,index,success,trial_type,trial_index,time_elapsed,internal_node_id,subject,date,prol_id,ctbl,sense_of_control_A,sense_of_control_B,sense_of_control_C,sense_of_control_D,age,gender,rt,url,stimulus,key_press,npress,is_data_trial,phase,trial,deck1,deck2,col1,col2,sym1,sym2,deck_l,deck_r,chosen_deck,chosen_col,chosen_sym,deck_rt,choose_choice,mutual_info,hidden_key,chosen_card,card_rt,player_num,win_card,outcome,mock_rating,response,responses
0,0,1.0,fullscreen,0,270531,0.0-0.0,2tbeti51h1y,2022-09-19 15:58:52.011,58a43e029a17120001d910d5,0,68,34,17,6,39,female,,,,,,,,,,,,,,,,,,,,,,,,,,,,,,,
1,0,,external-html,1,293828,0.0-1.0,2tbeti51h1y,2022-09-19 15:58:52.011,58a43e029a17120001d910d5,0,68,34,17,6,39,female,23147.3999996185,static/js/sub/consent.html,,,,,,,,,,,,,,,,,,,,,,,,,,,,,
2,0,,call-function,2,293831,0.0-2.0,2tbeti51h1y,2022-09-19 15:58:52.011,58a43e029a17120001d910d5,0,68,34,17,6,39,female,,,,,,,,,,,,,,,,,,,,,,,,,,,,,,,
3,0,,image-keyboard-response,3,300000,0.0-3.0-0.0,2tbeti51h1y,2022-09-19 15:58:52.011,58a43e029a17120001d910d5,0,68,34,17,6,39,female,6164.5999994278,,static/images/instructions_CB_0/Slide1.png,39.0,,,,,,,,,,,,,,,,,,,,,,,,,,,
4,0,,image-keyboard-response,4,309803,0.0-3.1-0.1,2tbeti51h1y,2022-09-19 15:58:52.011,58a43e029a17120001d910d5,0,68,34,17,6,39,female,9802.0999994278,,static/images/instructions_CB_0/Slide2.png,39.0,,,,,,,,,,,,,,,,,,,,,,,,,,,
5,0,,image-keyboard-response,5,315036,0.0-3.2-0.2,2tbeti51h1y,2022-09-19 15:58:52.011,58a43e029a17120001d910d5,0,68,34,17,6,39,female,5231.1000003815,,static/images/instructions_CB_0/Slide3.png,39.0,,,,,,,,,,,,,,,,,,,,,,,,,,,
6,0,,image-keyboard-response,6,320041,0.0-3.3-0.3,2tbeti51h1y,2022-09-19 15:58:52.011,58a43e029a17120001d910d5,0,68,34,17,6,39,female,5003.9000005722,,static/images/instructions_CB_0/Slide4.png,39.0,,,,,,,,,,,,,,,,,,,,,,,,,,,
7,0,,image-keyboard-response,7,324309,0.0-3.4-0.4,2tbeti51h1y,2022-09-19 15:58:52.011,58a43e029a17120001d910d5,0,68,34,17,6,39,female,4267.3000001907,,static/images/instructions_CB_0/Slide5.png,39.0,,,,,,,,,,,,,,,,,,,,,,,,,,,
8,0,,image-keyboard-response,8,326333,0.0-3.5-0.5,2tbeti51h1y,2022-09-19 15:58:52.011,58a43e029a17120001d910d5,0,68,34,17,6,39,female,2021.1000003815,,static/images/instructions_CB_0/Slide6.png,39.0,,,,,,,,,,,,,,,,,,,,,,,,,,,
9,0,,image-keyboard-response,9,330975,0.0-3.6-0.6,2tbeti51h1y,2022-09-19 15:58:52.011,58a43e029a17120001d910d5,0,68,34,17,6,39,female,4650.0,,static/images/instructions_CB_0/Slide7.png,39.0,,,,,,,,,,,,,,,,,,,,,,,,,,,
10,0,,image-keyboard-response,10,342079,0.0-3.7-0.7,2tbeti51h1y,2022-09-19 15:58:52.011,58a43e029a17120001d910d5,0,68,34,17,6,39,female,11102.5,,static/images/instructions_CB_0/Slide8.png,39.0,,,,,,,,,,,,,,,,,,,,,,,,,,,
11,0,,image-keyboard-response,11,347340,0.0-3.8-0.8,2tbeti51h1y,2022-09-19 15:58:52.011,58a43e029a17120001d910d5,0,68,34,17,6,39,female,5260.3000001907,,static/images/instructions_CB_0/Slide9.png,39.0,,,,,,,,,,,,,,,,,,,,,,,,,,,
12,0,,image-keyboard-response,12,353977,0.0-3.9-0.9,2tbeti51h1y,2022-09-19 15:58:52.011,58a43e029a17120001d910d5,0,68,34,17,6,39,female,6634.5,,static/images/instructions_CB_0/Slide10.png,39.0,,,,,,,,,,,,,,,,,,,,,,,,,,,
13,0,,image-keyboard-response,13,357851,0.0-3.10-0.10,2tbeti51h1y,2022-09-19 15:58:52.011,58a43e029a17120001d910d5,0,68,34,17,6,39,female,3872.6999998093,,static/images/instructions_CB_0/Slide11.png,39.0,,,,,,,,,,,,,,,,,,,,,,,,,,,
14,0,,image-keyboard-response,14,376089,0.0-3.11-0.11,2tbeti51h1y,2022-09-19 15:58:52.011,58a43e029a17120001d910d5,0,68,34,17,6,39,female,18237.2000007629,,static/images/instructions_CB_0/Slide12.png,39.0,,,,,,,,,,,,,,,,,,,,,,,,,,,
15,0,,image-keyboard-response,15,387946,0.0-3.12-0.12,2tbeti51h1y,2022-09-19 15:58:52.011,58a43e029a17120001d910d5,0,68,34,17,6,39,female,11855.6999998093,,static/images/instructions_CB_0/Slide13.png,39.0,,,,,,,,,,,,,,,,,,,,,,,,,,,
16,0,,image-keyboard-response,16,392864,0.0-3.13-0.13,2tbeti51h1y,2022-09-19 15:58:52.011,58a43e029a17120001d910d5,0,68,34,17,6,39,female,4914.6000003815,,static/images/instructions_CB_0/Slide14.png,39.0,,,,,,,,,,,,,,,,,,,,,,,,,,,
17,0,,image-keyboard-response,17,400583,0.0-3.14-0.14,2tbeti51h1y,2022-09-19 15:58:52.011,58a43e029a17120001d910d5,0,68,34,17,6,39,female,7717.3000001907,,static/images/instructions_CB_0/Slide15.png,39.0,,,,,,,,,,,,,,,,,,,,,,,,,,,
18,0,,image-keyboard-response,18,406620,0.0-3.15-0.15,2tbeti51h1y,2022-09-19 15:58:52.011,58a43e029a17120001d910d5,0,68,34,17,6,39,female,6035.6000003815,,static/images/instructions_CB_0/Slide16.png,39.0,,,,,,,,,,,,,,,,,,,,,,,,,,,
19,0,,image-keyboard-response,19,417013,0.0-3.16-0.16,2tbeti51h1y,2022-09-19 15:58:52.011,58a43e029a17120001d910d5,0,68,34,17,6,39,female,10390.8000001907,,static/images/instructions_CB_0/Slide17.png,39.0,,,,,,,,,,,,,,,,,,,,,,,,,,,
20,0,,image-keyboard-response,20,460480,0.0-3.17-0.17,2tbeti51h1y,2022-09-19 15:58:52.011,58a43e029a17120001d910d5,0,68,34,17,6,39,female,43473.3999996185,,static/images/instructions_CB_0/Slide18.png,39.0,,,,,,,,,,,,,,,,,,,,,,,,,,,
21,0,,image-keyboard-response,21,468442,0.0-3.18-0.18,2tbeti51h1y,2022-09-19 15:58:52.011,58a43e029a17120001d910d5,0,68,34,17,6,39,female,7962.0,,static/images/instructions_CB_0/Slide19.png,39.0,,,,,,,,,,,,,,,,,,,,,,,,,,,
22,0,,html-keyboard-response,22,469953,0.0-4.0-0.0,2tbeti51h1y,2022-09-19 15:58:52.011,58a43e029a17120001d910d5,0,68,34,17,6,39,female,,,"<img src=""static/images/cards/stack_of_red_stars.svg"" width=""175px"" height=""250px""></img>",,,,,,,,,,,,,,,,,,,,,,,,,,,,
23,0,,html-keyboard-response,23,471473,0.0-4.0-1.0,2tbeti51h1y,2022-09-19 15:58:52.011,58a43e029a17120001d910d5,0,68,34,17,6,39,female,1011.8000001907,,"
  <table>
  <tr height=300>
    <td width=300 height=300><img src=""static/images/cards/back_of_red_stars.svg"" width=""175px"" height=""250px""></img></td>
    <td width=300 height=300><img src=""static/images/cards/back_of_red_stars.svg"" width=""175px"" height=""250px""></img></td>
  </tr>
  <tr height=200>
    <td width=300><img src=""static/images/keys/z.svg"" width=""35%"" height=""75%""></img></td>
    <td width=300><img src=""static/images/keys/m.svg"" width=""35%"" height=""75%""></img></td>
  </tr>
</table>
  ",77.0,1.0,,,,,,,,,,,,,,,,,,,,,,,,,,
24,0,,html-keyboard-response,24,472981,0.0-4.0-2.0,2tbeti51h1y,2022-09-19 15:58:52.011,58a43e029a17120001d910d5,0,68,34,17,6,39,female,,,"
  <table>
  <tr height=300>
    <td width=300 height=300><img src=""static/images/cards/back_of_red_stars.svg"" width=""175px"" height=""250px""></img></td>
    <td width=300 height=300><img src=""static/images/cards/3_of_red_stars.svg"" width=""175px"" height=""250px""></img></td>
  </tr>
  <tr height=200>
    <td width=300><img src=""static/images/keys/z.svg"" width=""35%"" height=""75%""></img></td>
    <td width=300><img src=""static/images/keys/m.svg"" width=""35%"" height=""75%""></img></td>
  </tr>
</table>
  ",,,,,,,,,,,,,,,,,,,,,,,,,,,,
25,0,,html-keyboard-response,25,474492,0.0-4.0-3.0,2tbeti51h1y,2022-09-19 15:58:52.011,58a43e029a17120001d910d5,0,68,34,17,6,39,female,,,"<p style=""font-size:50px"">You Lose!
No points this round.</p>",,,,,,,,,,,,,,,,,,,,,,,,,,,,
26,0,,html-keyboard-response,26,475013,0.0-4.0-4.0,2tbeti51h1y,2022-09-19 15:58:52.011,58a43e029a17120001d910d5,0,68,34,17,6,39,female,,,,,,1.0,learning,0.0,A,,red,,stars,,,,A,red,stars,,1.0,1.0,NA,right,1011.8000001907,3.0,0.0,0.0,,,
27,0,,html-keyboard-response,27,476524,0.0-4.1-0.1,2tbeti51h1y,2022-09-19 15:58:52.011,58a43e029a17120001d910d5,0,68,34,17,6,39,female,,,"<img src=""static/images/cards/stack_of_black_stars.svg"" width=""175px"" height=""250px""></img>",,,,,,,,,,,,,,,,,,,,,,,,,,,,
28,0,,html-keyboard-response,28,477584,0.0-4.1-1.1,2tbeti51h1y,2022-09-19 15:58:52.011,58a43e029a17120001d910d5,0,68,34,17,6,39,female,541.5999994278,,"
  <table>
  <tr height=300>
    <td width=300 height=300><img src=""static/images/cards/back_of_black_stars.svg"" width=""175px"" height=""250px""></img></td>
    <td width=300 height=300><img src=""static/images/cards/back_of_black_stars.svg"" width=""175px"" height=""250px""></img></td>
  </tr>
  <tr height=200>
    <td width=300></td>
    <td width=300><img src=""static/images/keys/m.svg"" width=""35%"" height=""75%""></img></td>
  </tr>
</table>
  ",77.0,1.0,,,,,,,,,,,,,,,,,,,,,,,,,,
29,0,,html-keyboard-response,29,479086,0.0-4.1-2.1,2tbeti51h1y,2022-09-19 15:58:52.011,58a43e029a17120001d910d5,0,68,34,17,6,39,female,,,"
  <table>
  <tr height=300>
    <td width=300 height=300><img src=""static/images/cards/back_of_black_stars.svg"" width=""175px"" height=""250px""></img></td>
    <td width=300 height=300><img src=""static/images/cards/3_of_black_stars.svg"" width=""175px"" height=""250px""></img></td>
  </tr>
  <tr height=200>
    <td width=300></td>
    <td width=300><img src=""static/images/keys/m.svg"" width=""35%"" height=""75%""></img></td>
  </tr>
</table>
  ",,,,,,,,,,,,,,,,,,,,,,,,,,,,
30,0,,html-keyboard-response,30,480606,0.0-4.1-3.1,2tbeti51h1y,2022-09-19 15:58:52.011,58a43e029a17120001d910d5,0,68,34,17,6,39,female,,,"<p style=""font-size:50px"">You Lose!
No points this round.</p>",,,,,,,,,,,,,,,,,,,,,,,,,,,,
31,0,,html-keyboard-response,31,481112,0.0-4.1-4.1,2tbeti51h1y,2022-09-19 15:58:52.011,58a43e029a17120001d910d5,0,68,34,17,6,39,female,,,,,,1.0,learning,1.0,B,,black,,stars,,,,B,black,stars,,0.0,1.0,0,right,541.5999994278,3.0,0.0,0.0,,,
32,0,,html-keyboard-response,32,482616,0.0-4.2-0.2,2tbeti51h1y,2022-09-19 15:58:52.011,58a43e029a17120001d910d5,0,68,34,17,6,39,female,,,"<img src=""static/images/cards/stack_of_red_moons.svg"" width=""175px"" height=""250px""></img>",,,,,,,,,,,,,,,,,,,,,,,,,,,,
33,0,,html-keyboard-response,33,483809,0.0-4.2-1.2,2tbeti51h1y,2022-09-19 15:58:52.011,58a43e029a17120001d910d5,0,68,34,17,6,39,female,684.8000001907,,"
  <table>
  <tr height=300>
    <td width=300 height=300><img src=""static/images/cards/back_of_red_moons.svg"" width=""175px"" height=""250px""></img></td>
    <td width=300 height=300><img src=""static/images/cards/back_of_red_moons.svg"" width=""175px"" height=""250px""></img></td>
  </tr>
  <tr height=200>
    <td width=300><img src=""static/images/keys/z.svg"" width=""35%"" height=""75%""></img></td>
    <td width=300><img src=""static/images/keys/m.svg"" width=""35%"" height=""75%""></img></td>
  </tr>
</table>
  ",90.0,1.0,,,,,,,,,,,,,,,,,,,,,,,,,,
34,0,,html-keyboard-response,34,485328,0.0-4.2-2.2,2tbeti51h1y,2022-09-19 15:58:52.011,58a43e029a17120001d910d5,0,68,34,17,6,39,female,,,"
  <table>
  <tr height=300>
    <td width=300 height=300><img src=""static/images/cards/1_of_red_moons.svg"" width=""175px"" height=""250px""></img></td>
    <td width=300 height=300><img src=""static/images/cards/back_of_red_moons.svg"" width=""175px"" height=""250px""></img></td>
  </tr>
  <tr height=200>
    <td width=300><img src=""static/images/keys/z.svg"" width=""35%"" height=""75%""></img></td>
    <td width=300><img src=""static/images/keys/m.svg"" width=""35%"" height=""75%""></img></td>
  </tr>
</table>
  ",,,,,,,,,,,,,,,,,,,,,,,,,,,,
35,0,,html-keyboard-response,35,486855,0.0-4.2-3.2,2tbeti51h1y,2022-09-19 15:58:52.011,58a43e029a17120001d910d5,0,68,34,17,6,39,female,,,"<p style=""font-size:50px"">You win!
+10 points this round!</p>",,,,,,,,,,,,,,,,,,,,,,,,,,,,
36,0,,html-keyboard-response,36,487361,0.0-4.2-4.2,2tbeti51h1y,2022-09-19 15:58:52.011,58a43e029a17120001d910d5,0,68,34,17,6,39,female,,,,,,1.0,learning,2.0,C,,red,,moons,,,,C,red,moons,,1.0,0.0,NA,left,684.8000001907,1.0,0.0,1.0,,,
37,0,,html-keyboard-response,37,488866,0.0-4.3-0.3,2tbeti51h1y,2022-09-19 15:58:52.011,58a43e029a17120001d910d5,0,68,34,17,6,39,female,,,"<img src=""static/images/cards/stack_of_black_moons.svg"" width=""175px"" height=""250px""></img>",,,,,,,,,,,,,,,,,,,,,,,,,,,,
38,0,,html-keyboard-response,38,490349,0.0-4.3-1.3,2tbeti51h1y,2022-09-19 15:58:52.011,58a43e029a17120001d910d5,0,68,34,17,6,39,female,974.8000001907,,"
  <table>
  <tr height=300>
    <td width=300 height=300><img src=""static/images/cards/back_of_black_moons.svg"" width=""175px"" height=""250px""></img></td>
    <td width=300 height=300><img src=""static/images/cards/back_of_black_moons.svg"" width=""175px"" height=""250px""></img></td>
  </tr>
  <tr height=200>
    <td width=300><img src=""static/images/keys/z.svg"" width=""35%"" height=""75%""></img></td>
    <td width=300></td>
  </tr>
</table>
  ",90.0,2.0,,,,,,,,,,,,,,,,,,,,,,,,,,
39,0,,html-keyboard-response,39,491854,0.0-4.3-2.3,2tbeti51h1y,2022-09-19 15:58:52.011,58a43e029a17120001d910d5,0,68,34,17,6,39,female,,,"
  <table>
  <tr height=300>
    <td width=300 height=300><img src=""static/images/cards/10_of_black_moons.svg"" width=""175px"" height=""250px""></img></td>
    <td width=300 height=300><img src=""static/images/cards/back_of_black_moons.svg"" width=""175px"" height=""250px""></img></td>
  </tr>
  <tr height=200>
    <td width=300><img src=""static/images/keys/z.svg"" width=""35%"" height=""75%""></img></td>
    <td width=300></td>
  </tr>
</table>
  ",,,,,,,,,,,,,,,,,,,,,,,,,,,,
40,0,,html-keyboard-response,40,493377,0.0-4.3-3.3,2tbeti51h1y,2022-09-19 15:58:52.011,58a43e029a17120001d910d5,0,68,34,17,6,39,female,,,"<p style=""font-size:50px"">You win!
+10 points this round!</p>",,,,,,,,,,,,,,,,,,,,,,,,,,,,
41,0,,html-keyboard-response,41,493892,0.0-4.3-4.3,2tbeti51h1y,2022-09-19 15:58:52.011,58a43e029a17120001d910d5,0,68,34,17,6,39,female,,,,,,1.0,learning,3.0,D,,black,,moons,,,,D,black,moons,,0.0,0.0,1,left,974.8000001907,10.0,1.0,1.0,,,
42,0,,html-keyboard-response,42,495403,0.0-4.4-0.4,2tbeti51h1y,2022-09-19 15:58:52.011,58a43e029a17120001d910d5,0,68,34,17,6,39,female,,,"<img src=""static/images/cards/stack_of_red_bolts.svg"" width=""175px"" height=""250px""></img>",,,,,,,,,,,,,,,,,,,,,,,,,,,,
43,0,,html-keyboard-response,43,496539,0.0-4.4-1.4,2tbeti51h1y,2022-09-19 15:58:52.011,58a43e029a17120001d910d5,0,68,34,17,6,39,female,618.5,,"
  <table>
  <tr height=300>
    <td width=300 height=300><img src=""static/images/cards/back_of_red_bolts.svg"" width=""175px"" height=""250px""></img></td>
    <td width=300 height=300><img src=""static/images/cards/back_of_red_bolts.svg"" width=""175px"" height=""250px""></img></td>
  </tr>
  <tr height=200>
    <td width=300><img src=""static/images/keys/z.svg"" width=""35%"" height=""75%""></img></td>
    <td width=300><img src=""static/images/keys/m.svg"" width=""35%"" height=""75%""></img></td>
  </tr>
</table>
  ",90.0,1.0,,,,,,,,,,,,,,,,,,,,,,,,,,
44,0,,html-keyboard-response,44,498051,0.0-4.4-2.4,2tbeti51h1y,2022-09-19 15:58:52.011,58a43e029a17120001d910d5,0,68,34,17,6,39,female,,,"
  <table>
  <tr height=300>
    <td width=300 height=300><img src=""static/images/cards/6_of_red_bolts.svg"" width=""175px"" height=""250px""></img></td>
    <td width=300 height=300><img src=""static/images/cards/back_of_red_bolts.svg"" width=""175px"" height=""250px""></img></td>
  </tr>
  <tr height=200>
    <td width=300><img src=""static/images/keys/z.svg"" width=""35%"" height=""75%""></img></td>
    <td width=300><img src=""static/images/keys/m.svg"" width=""35%"" height=""75%""></img></td>
  </tr>
</table>
  ",,,,,,,,,,,,,,,,,,,,,,,,,,,,
45,0,,html-keyboard-response,45,499568,0.0-4.4-3.4,2tbeti51h1y,2022-09-19 15:58:52.011,58a43e029a17120001d910d5,0,68,34,17,6,39,female,,,"<p style=""font-size:50px"">You win!
+10 points this round!</p>",,,,,,,,,,,,,,,,,,,,,,,,,,,,
46,0,,html-keyboard-response,46,500074,0.0-4.4-4.4,2tbeti51h1y,2022-09-19 15:58:52.011,58a43e029a17120001d910d5,0,68,34,17,6,39,female,,,,,,1.0,learning,4.0,Xc,,red,,bolts,,,,Xc,red,bolts,,1.0,0.0,NA,left,618.5,6.0,1.0,1.0,,,
47,0,,html-keyboard-response,47,501585,0.0-4.5-0.5,2tbeti51h1y,2022-09-19 15:58:52.011,58a43e029a17120001d910d5,0,68,34,17,6,39,female,,,"<img src=""static/images/cards/stack_of_black_bolts.svg"" width=""175px"" height=""250px""></img>",,,,,,,,,,,,,,,,,,,,,,,,,,,,
48,0,,html-keyboard-response,48,502876,0.0-4.5-1.5,2tbeti51h1y,2022-09-19 15:58:52.011,58a43e029a17120001d910d5,0,68,34,17,6,39,female,773.1999998093,,"
  <table>
  <tr height=300>
    <td width=300 height=300><img src=""static/images/cards/back_of_black_bolts.svg"" width=""175px"" height=""250px""></img></td>
    <td width=300 height=300><img src=""static/images/cards/back_of_black_bolts.svg"" width=""175px"" height=""250px""></img></td>
  </tr>
  <tr height=200>
    <td width=300><img src=""static/images/keys/z.svg"" width=""35%"" height=""75%""></img></td>
    <td width=300></td>
  </tr>
</table>
  ",90.0,1.0,,,,,,,,,,,,,,,,,,,,,,,,,,
49,0,,html-keyboard-response,49,504379,0.0-4.5-2.5,2tbeti51h1y,2022-09-19 15:58:52.011,58a43e029a17120001d910d5,0,68,34,17,6,39,female,,,"
  <table>
  <tr height=300>
    <td width=300 height=300><img src=""static/images/cards/1_of_black_bolts.svg"" width=""175px"" height=""250px""></img></td>
    <td width=300 height=300><img src=""static/images/cards/back_of_black_bolts.svg"" width=""175px"" height=""250px""></img></td>
  </tr>
  <tr height=200>
    <td width=300><img src=""static/images/keys/z.svg"" width=""35%"" height=""75%""></img></td>
    <td width=300></td>
  </tr>
</table>
  ",,,,,,,,,,,,,,,,,,,,,,,,,,,,
50,0,,html-keyboard-response,50,505900,0.0-4.5-3.5,2tbeti51h1y,2022-09-19 15:58:52.011,58a43e029a17120001d910d5,0,68,34,17,6,39,female,,,"<p style=""font-size:50px"">You win!
+10 points this round!</p>",,,,,,,,,,,,,,,,,,,,,,,,,,,,
51,0,,html-keyboard-response,51,506411,0.0-4.5-4.5,2tbeti51h1y,2022-09-19 15:58:52.011,58a43e029a17120001d910d5,0,68,34,17,6,39,female,,,,,,1.0,learning,5.0,Xnc,,black,,bolts,,,,Xnc,black,bolts,,0.0,0.0,1,left,773.1999998093,1.0,0.0,1.0,,,
52,0,,html-keyboard-response,52,507918,0.0-4.6-0.6,2tbeti51h1y,2022-09-19 15:58:52.011,58a43e029a17120001d910d5,0,68,34,17,6,39,female,,,"<img src=""static/images/cards/stack_of_red_stars.svg"" width=""175px"" height=""250px""></img>",,,,,,,,,,,,,,,,,,,,,,,,,,,,
53,0,,html-keyboard-response,53,509036,0.0-4.6-1.6,2tbeti51h1y,2022-09-19 15:58:52.011,58a43e029a17120001d910d5,0,68,34,17,6,39,female,609.3000001907,,"
  <table>
  <tr height=300>
    <td width=300 height=300><img src=""static/images/cards/back_of_red_stars.svg"" width=""175px"" height=""250px""></img></td>
    <td width=300 height=300><img src=""static/images/cards/back_of_red_stars.svg"" width=""175px"" height=""250px""></img></td>
  </tr>
  <tr height=200>
    <td width=300><img src=""static/images/keys/z.svg"" width=""35%"" height=""75%""></img></td>
    <td width=300><img src=""static/images/keys/m.svg"" width=""35%"" height=""75%""></img></td>
  </tr>
</table>
  ",77.0,1.0,,,,,,,,,,,,,,,,,,,,,,,,,,
54,0,,html-keyboard-response,54,510542,0.0-4.6-2.6,2tbeti51h1y,2022-09-19 15:58:52.011,58a43e029a17120001d910d5,0,68,34,17,6,39,female,,,"
  <table>
  <tr height=300>
    <td width=300 height=300><img src=""static/images/cards/back_of_red_stars.svg"" width=""175px"" height=""250px""></img></td>
    <td width=300 height=300><img src=""static/images/cards/4_of_red_stars.svg"" width=""175px"" height=""250px""></img></td>
  </tr>
  <tr height=200>
    <td width=300><img src=""static/images/keys/z.svg"" width=""35%"" height=""75%""></img></td>
    <td width=300><img src=""static/images/keys/m.svg"" width=""35%"" height=""75%""></img></td>
  </tr>
</table>
  ",,,,,,,,,,,,,,,,,,,,,,,,,,,,
55,0,,html-keyboard-response,55,512051,0.0-4.6-3.6,2tbeti51h1y,2022-09-19 15:58:52.011,58a43e029a17120001d910d5,0,68,34,17,6,39,female,,,"<p style=""font-size:50px"">You Lose!
No points this round.</p>",,,,,,,,,,,,,,,,,,,,,,,,,,,,
56,0,,html-keyboard-response,56,512562,0.0-4.6-4.6,2tbeti51h1y,2022-09-19 15:58:52.011,58a43e029a17120001d910d5,0,68,34,17,6,39,female,,,,,,1.0,learning,6.0,A,,red,,stars,,,,A,red,stars,,1.0,1.0,NA,right,609.3000001907,4.0,0.0,0.0,,,
57,0,,html-keyboard-response,57,514071,0.0-4.7-0.7,2tbeti51h1y,2022-09-19 15:58:52.011,58a43e029a17120001d910d5,0,68,34,17,6,39,female,,,"<img src=""static/images/cards/stack_of_black_stars.svg"" width=""175px"" height=""250px""></img>",,,,,,,,,,,,,,,,,,,,,,,,,,,,
58,0,,html-keyboard-response,58,515204,0.0-4.7-1.7,2tbeti51h1y,2022-09-19 15:58:52.011,58a43e029a17120001d910d5,0,68,34,17,6,39,female,621.3999996185,,"
  <table>
  <tr height=300>
    <td width=300 height=300><img src=""static/images/cards/back_of_black_stars.svg"" width=""175px"" height=""250px""></img></td>
    <td width=300 height=300><img src=""static/images/cards/back_of_black_stars.svg"" width=""175px"" height=""250px""></img></td>
  </tr>
  <tr height=200>
    <td width=300></td>
    <td width=300><img src=""static/images/keys/m.svg"" width=""35%"" height=""75%""></img></td>
  </tr>
</table>
  ",77.0,1.0,,,,,,,,,,,,,,,,,,,,,,,,,,
59,0,,html-keyboard-response,59,516720,0.0-4.7-2.7,2tbeti51h1y,2022-09-19 15:58:52.011,58a43e029a17120001d910d5,0,68,34,17,6,39,female,,,"
  <table>
  <tr height=300>
    <td width=300 height=300><img src=""static/images/cards/back_of_black_stars.svg"" width=""175px"" height=""250px""></img></td>
    <td width=300 height=300><img src=""static/images/cards/10_of_black_stars.svg"" width=""175px"" height=""250px""></img></td>
  </tr>
  <tr height=200>
    <td width=300></td>
    <td width=300><img src=""static/images/keys/m.svg"" width=""35%"" height=""75%""></img></td>
  </tr>
</table>
  ",,,,,,,,,,,,,,,,,,,,,,,,,,,,
60,0,,html-keyboard-response,60,518246,0.0-4.7-3.7,2tbeti51h1y,2022-09-19 15:58:52.011,58a43e029a17120001d910d5,0,68,34,17,6,39,female,,,"<p style=""font-size:50px"">You win!
+10 points this round!</p>",,,,,,,,,,,,,,,,,,,,,,,,,,,,
61,0,,html-keyboard-response,61,518760,0.0-4.7-4.7,2tbeti51h1y,2022-09-19 15:58:52.011,58a43e029a17120001d910d5,0,68,34,17,6,39,female,,,,,,1.0,learning,7.0,B,,black,,stars,,,,B,black,stars,,0.0,1.0,0,right,621.3999996185,10.0,1.0,1.0,,,
62,0,,html-keyboard-response,62,520271,0.0-4.8-0.8,2tbeti51h1y,2022-09-19 15:58:52.011,58a43e029a17120001d910d5,0,68,34,17,6,39,female,,,"<img src=""static/images/cards/stack_of_red_moons.svg"" width=""175px"" height=""250px""></img>",,,,,,,,,,,,,,,,,,,,,,,,,,,,
63,0,,html-keyboard-response,63,521826,0.0-4.8-1.8,2tbeti51h1y,2022-09-19 15:58:52.011,58a43e029a17120001d910d5,0,68,34,17,6,39,female,1023.4000005722,,"
  <table>
  <tr height=300>
    <td width=300 height=300><img src=""static/images/cards/back_of_red_moons.svg"" width=""175px"" height=""250px""></img></td>
    <td width=300 height=300><img src=""static/images/cards/back_of_red_moons.svg"" width=""175px"" height=""250px""></img></td>
  </tr>
  <tr height=200>
    <td width=300><img src=""static/images/keys/z.svg"" width=""35%"" height=""75%""></img></td>
    <td width=300><img src=""static/images/keys/m.svg"" width=""35%"" height=""75%""></img></td>
  </tr>
</table>
  ",90.0,1.0,,,,,,,,,,,,,,,,,,,,,,,,,,
64,0,,html-keyboard-response,64,523339,0.0-4.8-2.8,2tbeti51h1y,2022-09-19 15:58:52.011,58a43e029a17120001d910d5,0,68,34,17,6,39,female,,,"
  <table>
  <tr height=300>
    <td width=300 height=300><img src=""static/images/cards/10_of_red_moons.svg"" width=""175px"" height=""250px""></img></td>
    <td width=300 height=300><img src=""static/images/cards/back_of_red_moons.svg"" width=""175px"" height=""250px""></img></td>
  </tr>
  <tr height=200>
    <td width=300><img src=""static/images/keys/z.svg"" width=""35%"" height=""75%""></img></td>
    <td width=300><img src=""static/images/keys/m.svg"" width=""35%"" height=""75%""></img></td>
  </tr>
</table>
  ",,,,,,,,,,,,,,,,,,,,,,,,,,,,
65,0,,html-keyboard-response,65,524849,0.0-4.8-3.8,2tbeti51h1y,2022-09-19 15:58:52.011,58a43e029a17120001d910d5,0,68,34,17,6,39,female,,,"<p style=""font-size:50px"">You win!
+10 points this round!</p>",,,,,,,,,,,,,,,,,,,,,,,,,,,,
66,0,,html-keyboard-response,66,525364,0.0-4.8-4.8,2tbeti51h1y,2022-09-19 15:58:52.011,58a43e029a17120001d910d5,0,68,34,17,6,39,female,,,,,,1.0,learning,8.0,C,,red,,moons,,,,C,red,moons,,1.0,0.0,NA,left,1023.4000005722,10.0,1.0,1.0,,,
67,0,,html-keyboard-response,67,526875,0.0-4.9-0.9,2tbeti51h1y,2022-09-19 15:58:52.011,58a43e029a17120001d910d5,0,68,34,17,6,39,female,,,"<img src=""static/images/cards/stack_of_black_moons.svg"" width=""175px"" height=""250px""></img>",,,,,,,,,,,,,,,,,,,,,,,,,,,,
68,0,,html-keyboard-response,68,527971,0.0-4.9-1.9,2tbeti51h1y,2022-09-19 15:58:52.011,58a43e029a17120001d910d5,0,68,34,17,6,39,female,588.1999998093,,"
  <table>
  <tr height=300>
    <td width=300 height=300><img src=""static/images/cards/back_of_black_moons.svg"" width=""175px"" height=""250px""></img></td>
    <td width=300 height=300><img src=""static/images/cards/back_of_black_moons.svg"" width=""175px"" height=""250px""></img></td>
  </tr>
  <tr height=200>
    <td width=300></td>
    <td width=300><img src=""static/images/keys/m.svg"" width=""35%"" height=""75%""></img></td>
  </tr>
</table>
  ",77.0,1.0,,,,,,,,,,,,,,,,,,,,,,,,,,
69,0,,html-keyboard-response,69,529487,0.0-4.9-2.9,2tbeti51h1y,2022-09-19 15:58:52.011,58a43e029a17120001d910d5,0,68,34,17,6,39,female,,,"
  <table>
  <tr height=300>
    <td width=300 height=300><img src=""static/images/cards/back_of_black_moons.svg"" width=""175px"" height=""250px""></img></td>
    <td width=300 height=300><img src=""static/images/cards/4_of_black_moons.svg"" width=""175px"" height=""250px""></img></td>
  </tr>
  <tr height=200>
    <td width=300></td>
    <td width=300><img src=""static/images/keys/m.svg"" width=""35%"" height=""75%""></img></td>
  </tr>
</table>
  ",,,,,,,,,,,,,,,,,,,,,,,,,,,,
70,0,,html-keyboard-response,70,531008,0.0-4.9-3.9,2tbeti51h1y,2022-09-19 15:58:52.011,58a43e029a17120001d910d5,0,68,34,17,6,39,female,,,"<p style=""font-size:50px"">You Lose!
No points this round.</p>",,,,,,,,,,,,,,,,,,,,,,,,,,,,
71,0,,html-keyboard-response,71,531514,0.0-4.9-4.9,2tbeti51h1y,2022-09-19 15:58:52.011,58a43e029a17120001d910d5,0,68,34,17,6,39,female,,,,,,1.0,learning,9.0,D,,black,,moons,,,,D,black,moons,,0.0,0.0,0,right,588.1999998093,4.0,0.0,0.0,,,
72,0,,html-keyboard-response,72,533025,0.0-4.10-0.10,2tbeti51h1y,2022-09-19 15:58:52.011,58a43e029a17120001d910d5,0,68,34,17,6,39,female,,,"<img src=""static/images/cards/stack_of_red_bolts.svg"" width=""175px"" height=""250px""></img>",,,,,,,,,,,,,,,,,,,,,,,,,,,,
73,0,,html-keyboard-response,73,534218,0.0-4.10-1.10,2tbeti51h1y,2022-09-19 15:58:52.011,58a43e029a17120001d910d5,0,68,34,17,6,39,female,687.1000003815,,"
  <table>
  <tr height=300>
    <td width=300 height=300><img src=""static/images/cards/back_of_red_bolts.svg"" width=""175px"" height=""250px""></img></td>
    <td width=300 height=300><img src=""static/images/cards/back_of_red_bolts.svg"" width=""175px"" height=""250px""></img></td>
  </tr>
  <tr height=200>
    <td width=300><img src=""static/images/keys/z.svg"" width=""35%"" height=""75%""></img></td>
    <td width=300><img src=""static/images/keys/m.svg"" width=""35%"" height=""75%""></img></td>
  </tr>
</table>
  ",77.0,1.0,,,,,,,,,,,,,,,,,,,,,,,,,,
74,0,,html-keyboard-response,74,535732,0.0-4.10-2.10,2tbeti51h1y,2022-09-19 15:58:52.011,58a43e029a17120001d910d5,0,68,34,17,6,39,female,,,"
  <table>
  <tr height=300>
    <td width=300 height=300><img src=""static/images/cards/back_of_red_bolts.svg"" width=""175px"" height=""250px""></img></td>
    <td width=300 height=300><img src=""static/images/cards/8_of_red_bolts.svg"" width=""175px"" height=""250px""></img></td>
  </tr>
  <tr height=200>
    <td width=300><img src=""static/images/keys/z.svg"" width=""35%"" height=""75%""></img></td>
    <td width=300><img src=""static/images/keys/m.svg"" width=""35%"" height=""75%""></img></td>
  </tr>
</table>
  ",,,,,,,,,,,,,,,,,,,,,,,,,,,,
75,0,,html-keyboard-response,75,537245,0.0-4.10-3.10,2tbeti51h1y,2022-09-19 15:58:52.011,58a43e029a17120001d910d5,0,68,34,17,6,39,female,,,"<p style=""font-size:50px"">You win!
+10 points this round!</p>",,,,,,,,,,,,,,,,,,,,,,,,,,,,
76,0,,html-keyboard-response,76,537753,0.0-4.10-4.10,2tbeti51h1y,2022-09-19 15:58:52.011,58a43e029a17120001d910d5,0,68,34,17,6,39,female,,,,,,1.0,learning,10.0,Xc,,red,,bolts,,,,Xc,red,bolts,,1.0,0.0,NA,right,687.1000003815,8.0,1.0,1.0,,,
77,0,,html-keyboard-response,77,539262,0.0-4.11-0.11,2tbeti51h1y,2022-09-19 15:58:52.011,58a43e029a17120001d910d5,0,68,34,17,6,39,female,,,"<img src=""static/images/cards/stack_of_black_bolts.svg"" width=""175px"" height=""250px""></img>",,,,,,,,,,,,,,,,,,,,,,,,,,,,
78,0,,html-keyboard-response,78,540472,0.0-4.11-1.11,2tbeti51h1y,2022-09-19 15:58:52.011,58a43e029a17120001d910d5,0,68,34,17,6,39,female,693.0,,"
  <table>
  <tr height=300>
    <td width=300 height=300><img src=""static/images/cards/back_of_black_bolts.svg"" width=""175px"" height=""250px""></img></td>
    <td width=300 height=300><img src=""static/images/cards/back_of_black_bolts.svg"" width=""175px"" height=""250px""></img></td>
  </tr>
  <tr height=200>
    <td width=300></td>
    <td width=300><img src=""static/images/keys/m.svg"" width=""35%"" height=""75%""></img></td>
  </tr>
</table>
  ",77.0,1.0,,,,,,,,,,,,,,,,,,,,,,,,,,
79,0,,html-keyboard-response,79,541988,0.0-4.11-2.11,2tbeti51h1y,2022-09-19 15:58:52.011,58a43e029a17120001d910d5,0,68,34,17,6,39,female,,,"
  <table>
  <tr height=300>
    <td width=300 height=300><img src=""static/images/cards/back_of_black_bolts.svg"" width=""175px"" height=""250px""></img></td>
    <td width=300 height=300><img src=""static/images/cards/2_of_black_bolts.svg"" width=""175px"" height=""250px""></img></td>
  </tr>
  <tr height=200>
    <td width=300></td>
    <td width=300><img src=""static/images/keys/m.svg"" width=""35%"" height=""75%""></img></td>
  </tr>
</table>
  ",,,,,,,,,,,,,,,,,,,,,,,,,,,,
80,0,,html-keyboard-response,80,543507,0.0-4.11-3.11,2tbeti51h1y,2022-09-19 15:58:52.011,58a43e029a17120001d910d5,0,68,34,17,6,39,female,,,"<p style=""font-size:50px"">You win!
+10 points this round!</p>",,,,,,,,,,,,,,,,,,,,,,,,,,,,
81,0,,html-keyboard-response,81,544028,0.0-4.11-4.11,2tbeti51h1y,2022-09-19 15:58:52.011,58a43e029a17120001d910d5,0,68,34,17,6,39,female,,,,,,1.0,learning,11.0,Xnc,,black,,bolts,,,,Xnc,black,bolts,,0.0,0.0,0,right,693.0,2.0,0.0,1.0,,,
82,0,,html-keyboard-response,82,545542,0.0-4.12-0.12,2tbeti51h1y,2022-09-19 15:58:52.011,58a43e029a17120001d910d5,0,68,34,17,6,39,female,,,"<img src=""static/images/cards/stack_of_red_stars.svg"" width=""175px"" height=""250px""></img>",,,,,,,,,,,,,,,,,,,,,,,,,,,,
83,0,,html-keyboard-response,83,547087,0.0-4.12-1.12,2tbeti51h1y,2022-09-19 15:58:52.011,58a43e029a17120001d910d5,0,68,34,17,6,39,female,1041.0,,"
  <table>
  <tr height=300>
    <td width=300 height=300><img src=""static/images/cards/back_of_red_stars.svg"" width=""175px"" height=""250px""></img></td>
    <td width=300 height=300><img src=""static/images/cards/back_of_red_stars.svg"" width=""175px"" height=""250px""></img></td>
  </tr>
  <tr height=200>
    <td width=300><img src=""static/images/keys/z.svg"" width=""35%"" height=""75%""></img></td>
    <td width=300><img src=""static/images/keys/m.svg"" width=""35%"" height=""75%""></img></td>
  </tr>
</table>
  ",90.0,1.0,,,,,,,,,,,,,,,,,,,,,,,,,,
84,0,,html-keyboard-response,84,548592,0.0-4.12-2.12,2tbeti51h1y,2022-09-19 15:58:52.011,58a43e029a17120001d910d5,0,68,34,17,6,39,female,,,"
  <table>
  <tr height=300>
    <td width=300 height=300><img src=""static/images/cards/10_of_red_stars.svg"" width=""175px"" height=""250px""></img></td>
    <td width=300 height=300><img src=""static/images/cards/back_of_red_stars.svg"" width=""175px"" height=""250px""></img></td>
  </tr>
  <tr height=200>
    <td width=300><img src=""static/images/keys/z.svg"" width=""35%"" height=""75%""></img></td>
    <td width=300><img src=""static/images/keys/m.svg"" width=""35%"" height=""75%""></img></td>
  </tr>
</table>
  ",,,,,,,,,,,,,,,,,,,,,,,,,,,,
85,0,,html-keyboard-response,85,550115,0.0-4.12-3.12,2tbeti51h1y,2022-09-19 15:58:52.011,58a43e029a17120001d910d5,0,68,34,17,6,39,female,,,"<p style=""font-size:50px"">You win!
+10 points this round!</p>",,,,,,,,,,,,,,,,,,,,,,,,,,,,
86,0,,html-keyboard-response,86,550636,0.0-4.12-4.12,2tbeti51h1y,2022-09-19 15:58:52.011,58a43e029a17120001d910d5,0,68,34,17,6,39,female,,,,,,1.0,learning,12.0,A,,red,,stars,,,,A,red,stars,,1.0,1.0,NA,left,1041.0,10.0,1.0,1.0,,,
87,0,,html-keyboard-response,87,552145,0.0-4.13-0.13,2tbeti51h1y,2022-09-19 15:58:52.011,58a43e029a17120001d910d5,0,68,34,17,6,39,female,,,"<img src=""static/images/cards/stack_of_black_stars.svg"" width=""175px"" height=""250px""></img>",,,,,,,,,,,,,,,,,,,,,,,,,,,,
88,0,,html-keyboard-response,88,553698,0.0-4.13-1.13,2tbeti51h1y,2022-09-19 15:58:52.011,58a43e029a17120001d910d5,0,68,34,17,6,39,female,1043.9000005722,,"
  <table>
  <tr height=300>
    <td width=300 height=300><img src=""static/images/cards/back_of_black_stars.svg"" width=""175px"" height=""250px""></img></td>
    <td width=300 height=300><img src=""static/images/cards/back_of_black_stars.svg"" width=""175px"" height=""250px""></img></td>
  </tr>
  <tr height=200>
    <td width=300><img src=""static/images/keys/z.svg"" width=""35%"" height=""75%""></img></td>
    <td width=300></td>
  </tr>
</table>
  ",90.0,1.0,,,,,,,,,,,,,,,,,,,,,,,,,,
89,0,,html-keyboard-response,89,555214,0.0-4.13-2.13,2tbeti51h1y,2022-09-19 15:58:52.011,58a43e029a17120001d910d5,0,68,34,17,6,39,female,,,"
  <table>
  <tr height=300>
    <td width=300 height=300><img src=""static/images/cards/8_of_black_stars.svg"" width=""175px"" height=""250px""></img></td>
    <td width=300 height=300><img src=""static/images/cards/back_of_black_stars.svg"" width=""175px"" height=""250px""></img></td>
  </tr>
  <tr height=200>
    <td width=300><img src=""static/images/keys/z.svg"" width=""35%"" height=""75%""></img></td>
    <td width=300></td>
  </tr>
</table>
  ",,,,,,,,,,,,,,,,,,,,,,,,,,,,
90,0,,html-keyboard-response,90,556737,0.0-4.13-3.13,2tbeti51h1y,2022-09-19 15:58:52.011,58a43e029a17120001d910d5,0,68,34,17,6,39,female,,,"<p style=""font-size:50px"">You win!
+10 points this round!</p>",,,,,,,,,,,,,,,,,,,,,,,,,,,,
91,0,,html-keyboard-response,91,557257,0.0-4.13-4.13,2tbeti51h1y,2022-09-19 15:58:52.011,58a43e029a17120001d910d5,0,68,34,17,6,39,female,,,,,,1.0,learning,13.0,B,,black,,stars,,,,B,black,stars,,0.0,1.0,1,left,1043.9000005722,8.0,1.0,1.0,,,
92,0,,html-keyboard-response,92,558770,0.0-4.14-0.14,2tbeti51h1y,2022-09-19 15:58:52.011,58a43e029a17120001d910d5,0,68,34,17,6,39,female,,,"<img src=""static/images/cards/stack_of_red_moons.svg"" width=""175px"" height=""250px""></img>",,,,,,,,,,,,,,,,,,,,,,,,,,,,
93,0,,html-keyboard-response,93,559868,0.0-4.14-1.14,2tbeti51h1y,2022-09-19 15:58:52.011,58a43e029a17120001d910d5,0,68,34,17,6,39,female,583.0999994278,,"
  <table>
  <tr height=300>
    <td width=300 height=300><img src=""static/images/cards/back_of_red_moons.svg"" width=""175px"" height=""250px""></img></td>
    <td width=300 height=300><img src=""static/images/cards/back_of_red_moons.svg"" width=""175px"" height=""250px""></img></td>
  </tr>
  <tr height=200>
    <td width=300><img src=""static/images/keys/z.svg"" width=""35%"" height=""75%""></img></td>
    <td width=300><img src=""static/images/keys/m.svg"" width=""35%"" height=""75%""></img></td>
  </tr>
</table>
  ",77.0,1.0,,,,,,,,,,,,,,,,,,,,,,,,,,
94,0,,html-keyboard-response,94,561377,0.0-4.14-2.14,2tbeti51h1y,2022-09-19 15:58:52.011,58a43e029a17120001d910d5,0,68,34,17,6,39,female,,,"
  <table>
  <tr height=300>
    <td width=300 height=300><img src=""static/images/cards/back_of_red_moons.svg"" width=""175px"" height=""250px""></img></td>
    <td width=300 height=300><img src=""static/images/cards/4_of_red_moons.svg"" width=""175px"" height=""250px""></img></td>
  </tr>
  <tr height=200>
    <td width=300><img src=""static/images/keys/z.svg"" width=""35%"" height=""75%""></img></td>
    <td width=300><img src=""static/images/keys/m.svg"" width=""35%"" height=""75%""></img></td>
  </tr>
</table>
  ",,,,,,,,,,,,,,,,,,,,,,,,,,,,
95,0,,html-keyboard-response,95,562885,0.0-4.14-3.14,2tbeti51h1y,2022-09-19 15:58:52.011,58a43e029a17120001d910d5,0,68,34,17,6,39,female,,,"<p style=""font-size:50px"">You win!
+10 points this round!</p>",,,,,,,,,,,,,,,,,,,,,,,,,,,,
96,0,,html-keyboard-response,96,563390,0.0-4.14-4.14,2tbeti51h1y,2022-09-19 15:58:52.011,58a43e029a17120001d910d5,0,68,34,17,6,39,female,,,,,,1.0,learning,14.0,C,,red,,moons,,,,C,red,moons,,1.0,0.0,NA,right,583.0999994278,4.0,0.0,1.0,,,
97,0,,html-keyboard-response,97,564907,0.0-4.15-0.15,2tbeti51h1y,2022-09-19 15:58:52.011,58a43e029a17120001d910d5,0,68,34,17,6,39,female,,,"<img src=""static/images/cards/stack_of_black_moons.svg"" width=""175px"" height=""250px""></img>",,,,,,,,,,,,,,,,,,,,,,,,,,,,
98,0,,html-keyboard-response,98,566303,0.0-4.15-1.15,2tbeti51h1y,2022-09-19 15:58:52.011,58a43e029a17120001d910d5,0,68,34,17,6,39,female,888.0,,"
  <table>
  <tr height=300>
    <td width=300 height=300><img src=""static/images/cards/back_of_black_moons.svg"" width=""175px"" height=""250px""></img></td>
    <td width=300 height=300><img src=""static/images/cards/back_of_black_moons.svg"" width=""175px"" height=""250px""></img></td>
  </tr>
  <tr height=200>
    <td width=300><img src=""static/images/keys/z.svg"" width=""35%"" height=""75%""></img></td>
    <td width=300></td>
  </tr>
</table>
  ",90.0,1.0,,,,,,,,,,,,,,,,,,,,,,,,,,
99,0,,html-keyboard-response,99,567809,0.0-4.15-2.15,2tbeti51h1y,2022-09-19 15:58:52.011,58a43e029a17120001d910d5,0,68,34,17,6,39,female,,,"
  <table>
  <tr height=300>
    <td width=300 height=300><img src=""static/images/cards/10_of_black_moons.svg"" width=""175px"" height=""250px""></img></td>
    <td width=300 height=300><img src=""static/images/cards/back_of_black_moons.svg"" width=""175px"" height=""250px""></img></td>
  </tr>
  <tr height=200>
    <td width=300><img src=""static/images/keys/z.svg"" width=""35%"" height=""75%""></img></td>
    <td width=300></td>
  </tr>
</table>
  ",,,,,,,,,,,,,,,,,,,,,,,,,,,,
100,0,,html-keyboard-response,100,569323,0.0-4.15-3.15,2tbeti51h1y,2022-09-19 15:58:52.011,58a43e029a17120001d910d5,0,68,34,17,6,39,female,,,"<p style=""font-size:50px"">You Lose!
No points this round.</p>",,,,,,,,,,,,,,,,,,,,,,,,,,,,
101,0,,html-keyboard-response,101,569837,0.0-4.15-4.15,2tbeti51h1y,2022-09-19 15:58:52.011,58a43e029a17120001d910d5,0,68,34,17,6,39,female,,,,,,1.0,learning,15.0,D,,black,,moons,,,,D,black,moons,,0.0,0.0,1,left,888.0,10.0,1.0,0.0,,,
102,0,,html-keyboard-response,102,571348,0.0-4.16-0.16,2tbeti51h1y,2022-09-19 15:58:52.011,58a43e029a17120001d910d5,0,68,34,17,6,39,female,,,"<img src=""static/images/cards/stack_of_red_bolts.svg"" width=""175px"" height=""250px""></img>",,,,,,,,,,,,,,,,,,,,,,,,,,,,
103,0,,html-keyboard-response,103,572413,0.0-4.16-1.16,2tbeti51h1y,2022-09-19 15:58:52.011,58a43e029a17120001d910d5,0,68,34,17,6,39,female,556.4000005722,,"
  <table>
  <tr height=300>
    <td width=300 height=300><img src=""static/images/cards/back_of_red_bolts.svg"" width=""175px"" height=""250px""></img></td>
    <td width=300 height=300><img src=""static/images/cards/back_of_red_bolts.svg"" width=""175px"" height=""250px""></img></td>
  </tr>
  <tr height=200>
    <td width=300><img src=""static/images/keys/z.svg"" width=""35%"" height=""75%""></img></td>
    <td width=300><img src=""static/images/keys/m.svg"" width=""35%"" height=""75%""></img></td>
  </tr>
</table>
  ",90.0,1.0,,,,,,,,,,,,,,,,,,,,,,,,,,
104,0,,html-keyboard-response,104,573918,0.0-4.16-2.16,2tbeti51h1y,2022-09-19 15:58:52.011,58a43e029a17120001d910d5,0,68,34,17,6,39,female,,,"
  <table>
  <tr height=300>
    <td width=300 height=300><img src=""static/images/cards/3_of_red_bolts.svg"" width=""175px"" height=""250px""></img></td>
    <td width=300 height=300><img src=""static/images/cards/back_of_red_bolts.svg"" width=""175px"" height=""250px""></img></td>
  </tr>
  <tr height=200>
    <td width=300><img src=""static/images/keys/z.svg"" width=""35%"" height=""75%""></img></td>
    <td width=300><img src=""static/images/keys/m.svg"" width=""35%"" height=""75%""></img></td>
  </tr>
</table>
  ",,,,,,,,,,,,,,,,,,,,,,,,,,,,
105,0,,html-keyboard-response,105,575443,0.0-4.16-3.16,2tbeti51h1y,2022-09-19 15:58:52.011,58a43e029a17120001d910d5,0,68,34,17,6,39,female,,,"<p style=""font-size:50px"">You win!
+10 points this round!</p>",,,,,,,,,,,,,,,,,,,,,,,,,,,,
106,0,,html-keyboard-response,106,575952,0.0-4.16-4.16,2tbeti51h1y,2022-09-19 15:58:52.011,58a43e029a17120001d910d5,0,68,34,17,6,39,female,,,,,,1.0,learning,16.0,Xc,,red,,bolts,,,,Xc,red,bolts,,1.0,0.0,NA,left,556.4000005722,3.0,0.0,1.0,,,
107,0,,html-keyboard-response,107,577470,0.0-4.17-0.17,2tbeti51h1y,2022-09-19 15:58:52.011,58a43e029a17120001d910d5,0,68,34,17,6,39,female,,,"<img src=""static/images/cards/stack_of_black_bolts.svg"" width=""175px"" height=""250px""></img>",,,,,,,,,,,,,,,,,,,,,,,,,,,,
108,0,,html-keyboard-response,108,578920,0.0-4.17-1.17,2tbeti51h1y,2022-09-19 15:58:52.011,58a43e029a17120001d910d5,0,68,34,17,6,39,female,938.8999996185,,"
  <table>
  <tr height=300>
    <td width=300 height=300><img src=""static/images/cards/back_of_black_bolts.svg"" width=""175px"" height=""250px""></img></td>
    <td width=300 height=300><img src=""static/images/cards/back_of_black_bolts.svg"" width=""175px"" height=""250px""></img></td>
  </tr>
  <tr height=200>
    <td width=300><img src=""static/images/keys/z.svg"" width=""35%"" height=""75%""></img></td>
    <td width=300></td>
  </tr>
</table>
  ",90.0,1.0,,,,,,,,,,,,,,,,,,,,,,,,,,
109,0,,html-keyboard-response,109,580429,0.0-4.17-2.17,2tbeti51h1y,2022-09-19 15:58:52.011,58a43e029a17120001d910d5,0,68,34,17,6,39,female,,,"
  <table>
  <tr height=300>
    <td width=300 height=300><img src=""static/images/cards/7_of_black_bolts.svg"" width=""175px"" height=""250px""></img></td>
    <td width=300 height=300><img src=""static/images/cards/back_of_black_bolts.svg"" width=""175px"" height=""250px""></img></td>
  </tr>
  <tr height=200>
    <td width=300><img src=""static/images/keys/z.svg"" width=""35%"" height=""75%""></img></td>
    <td width=300></td>
  </tr>
</table>
  ",,,,,,,,,,,,,,,,,,,,,,,,,,,,
110,0,,html-keyboard-response,110,581943,0.0-4.17-3.17,2tbeti51h1y,2022-09-19 15:58:52.011,58a43e029a17120001d910d5,0,68,34,17,6,39,female,,,"<p style=""font-size:50px"">You win!
+10 points this round!</p>",,,,,,,,,,,,,,,,,,,,,,,,,,,,
111,0,,html-keyboard-response,111,582451,0.0-4.17-4.17,2tbeti51h1y,2022-09-19 15:58:52.011,58a43e029a17120001d910d5,0,68,34,17,6,39,female,,,,,,1.0,learning,17.0,Xnc,,black,,bolts,,,,Xnc,black,bolts,,0.0,0.0,1,left,938.8999996185,7.0,1.0,1.0,,,
112,0,,html-keyboard-response,112,583964,0.0-4.18-0.18,2tbeti51h1y,2022-09-19 15:58:52.011,58a43e029a17120001d910d5,0,68,34,17,6,39,female,,,"<img src=""static/images/cards/stack_of_red_stars.svg"" width=""175px"" height=""250px""></img>",,,,,,,,,,,,,,,,,,,,,,,,,,,,
113,0,,html-keyboard-response,113,585102,0.0-4.18-1.18,2tbeti51h1y,2022-09-19 15:58:52.011,58a43e029a17120001d910d5,0,68,34,17,6,39,female,622.0,,"
  <table>
  <tr height=300>
    <td width=300 height=300><img src=""static/images/cards/back_of_red_stars.svg"" width=""175px"" height=""250px""></img></td>
    <td width=300 height=300><img src=""static/images/cards/back_of_red_stars.svg"" width=""175px"" height=""250px""></img></td>
  </tr>
  <tr height=200>
    <td width=300><img src=""static/images/keys/z.svg"" width=""35%"" height=""75%""></img></td>
    <td width=300><img src=""static/images/keys/m.svg"" width=""35%"" height=""75%""></img></td>
  </tr>
</table>
  ",77.0,1.0,,,,,,,,,,,,,,,,,,,,,,,,,,
114,0,,html-keyboard-response,114,586606,0.0-4.18-2.18,2tbeti51h1y,2022-09-19 15:58:52.011,58a43e029a17120001d910d5,0,68,34,17,6,39,female,,,"
  <table>
  <tr height=300>
    <td width=300 height=300><img src=""static/images/cards/back_of_red_stars.svg"" width=""175px"" height=""250px""></img></td>
    <td width=300 height=300><img src=""static/images/cards/9_of_red_stars.svg"" width=""175px"" height=""250px""></img></td>
  </tr>
  <tr height=200>
    <td width=300><img src=""static/images/keys/z.svg"" width=""35%"" height=""75%""></img></td>
    <td width=300><img src=""static/images/keys/m.svg"" width=""35%"" height=""75%""></img></td>
  </tr>
</table>
  ",,,,,,,,,,,,,,,,,,,,,,,,,,,,
115,0,,html-keyboard-response,115,588112,0.0-4.18-3.18,2tbeti51h1y,2022-09-19 15:58:52.011,58a43e029a17120001d910d5,0,68,34,17,6,39,female,,,"<p style=""font-size:50px"">You win!
+10 points this round!</p>",,,,,,,,,,,,,,,,,,,,,,,,,,,,
116,0,,html-keyboard-response,116,588631,0.0-4.18-4.18,2tbeti51h1y,2022-09-19 15:58:52.011,58a43e029a17120001d910d5,0,68,34,17,6,39,female,,,,,,1.0,learning,18.0,A,,red,,stars,,,,A,red,stars,,1.0,1.0,NA,right,622.0,9.0,1.0,1.0,,,
117,0,,html-keyboard-response,117,590141,0.0-4.19-0.19,2tbeti51h1y,2022-09-19 15:58:52.011,58a43e029a17120001d910d5,0,68,34,17,6,39,female,,,"<img src=""static/images/cards/stack_of_black_stars.svg"" width=""175px"" height=""250px""></img>",,,,,,,,,,,,,,,,,,,,,,,,,,,,
118,0,,html-keyboard-response,118,591478,0.0-4.19-1.19,2tbeti51h1y,2022-09-19 15:58:52.011,58a43e029a17120001d910d5,0,68,34,17,6,39,female,832.5,,"
  <table>
  <tr height=300>
    <td width=300 height=300><img src=""static/images/cards/back_of_black_stars.svg"" width=""175px"" height=""250px""></img></td>
    <td width=300 height=300><img src=""static/images/cards/back_of_black_stars.svg"" width=""175px"" height=""250px""></img></td>
  </tr>
  <tr height=200>
    <td width=300><img src=""static/images/keys/z.svg"" width=""35%"" height=""75%""></img></td>
    <td width=300></td>
  </tr>
</table>
  ",90.0,1.0,,,,,,,,,,,,,,,,,,,,,,,,,,
119,0,,html-keyboard-response,119,592986,0.0-4.19-2.19,2tbeti51h1y,2022-09-19 15:58:52.011,58a43e029a17120001d910d5,0,68,34,17,6,39,female,,,"
  <table>
  <tr height=300>
    <td width=300 height=300><img src=""static/images/cards/3_of_black_stars.svg"" width=""175px"" height=""250px""></img></td>
    <td width=300 height=300><img src=""static/images/cards/back_of_black_stars.svg"" width=""175px"" height=""250px""></img></td>
  </tr>
  <tr height=200>
    <td width=300><img src=""static/images/keys/z.svg"" width=""35%"" height=""75%""></img></td>
    <td width=300></td>
  </tr>
</table>
  ",,,,,,,,,,,,,,,,,,,,,,,,,,,,
120,0,,html-keyboard-response,120,594501,0.0-4.19-3.19,2tbeti51h1y,2022-09-19 15:58:52.011,58a43e029a17120001d910d5,0,68,34,17,6,39,female,,,"<p style=""font-size:50px"">You Lose!
No points this round.</p>",,,,,,,,,,,,,,,,,,,,,,,,,,,,
121,0,,html-keyboard-response,121,595016,0.0-4.19-4.19,2tbeti51h1y,2022-09-19 15:58:52.011,58a43e029a17120001d910d5,0,68,34,17,6,39,female,,,,,,1.0,learning,19.0,B,,black,,stars,,,,B,black,stars,,0.0,1.0,1,left,832.5,3.0,0.0,0.0,,,
122,0,,html-keyboard-response,122,596533,0.0-4.20-0.20,2tbeti51h1y,2022-09-19 15:58:52.011,58a43e029a17120001d910d5,0,68,34,17,6,39,female,,,"<img src=""static/images/cards/stack_of_red_moons.svg"" width=""175px"" height=""250px""></img>",,,,,,,,,,,,,,,,,,,,,,,,,,,,
123,0,,html-keyboard-response,123,597992,0.0-4.20-1.20,2tbeti51h1y,2022-09-19 15:58:52.011,58a43e029a17120001d910d5,0,68,34,17,6,39,female,949.7000007629,,"
  <table>
  <tr height=300>
    <td width=300 height=300><img src=""static/images/cards/back_of_red_moons.svg"" width=""175px"" height=""250px""></img></td>
    <td width=300 height=300><img src=""static/images/cards/back_of_red_moons.svg"" width=""175px"" height=""250px""></img></td>
  </tr>
  <tr height=200>
    <td width=300><img src=""static/images/keys/z.svg"" width=""35%"" height=""75%""></img></td>
    <td width=300><img src=""static/images/keys/m.svg"" width=""35%"" height=""75%""></img></td>
  </tr>
</table>
  ",77.0,1.0,,,,,,,,,,,,,,,,,,,,,,,,,,
124,0,,html-keyboard-response,124,599497,0.0-4.20-2.20,2tbeti51h1y,2022-09-19 15:58:52.011,58a43e029a17120001d910d5,0,68,34,17,6,39,female,,,"
  <table>
  <tr height=300>
    <td width=300 height=300><img src=""static/images/cards/back_of_red_moons.svg"" width=""175px"" height=""250px""></img></td>
    <td width=300 height=300><img src=""static/images/cards/10_of_red_moons.svg"" width=""175px"" height=""250px""></img></td>
  </tr>
  <tr height=200>
    <td width=300><img src=""static/images/keys/z.svg"" width=""35%"" height=""75%""></img></td>
    <td width=300><img src=""static/images/keys/m.svg"" width=""35%"" height=""75%""></img></td>
  </tr>
</table>
  ",,,,,,,,,,,,,,,,,,,,,,,,,,,,
125,0,,html-keyboard-response,125,601008,0.0-4.20-3.20,2tbeti51h1y,2022-09-19 15:58:52.011,58a43e029a17120001d910d5,0,68,34,17,6,39,female,,,"<p style=""font-size:50px"">You win!
+10 points this round!</p>",,,,,,,,,,,,,,,,,,,,,,,,,,,,
126,0,,html-keyboard-response,126,601514,0.0-4.20-4.20,2tbeti51h1y,2022-09-19 15:58:52.011,58a43e029a17120001d910d5,0,68,34,17,6,39,female,,,,,,1.0,learning,20.0,C,,red,,moons,,,,C,red,moons,,1.0,0.0,NA,right,949.7000007629,10.0,1.0,1.0,,,
127,0,,html-keyboard-response,127,603025,0.0-4.21-0.21,2tbeti51h1y,2022-09-19 15:58:52.011,58a43e029a17120001d910d5,0,68,34,17,6,39,female,,,"<img src=""static/images/cards/stack_of_black_moons.svg"" width=""175px"" height=""250px""></img>",,,,,,,,,,,,,,,,,,,,,,,,,,,,
128,0,,html-keyboard-response,128,604124,0.0-4.21-1.21,2tbeti51h1y,2022-09-19 15:58:52.011,58a43e029a17120001d910d5,0,68,34,17,6,39,female,583.5,,"
  <table>
  <tr height=300>
    <td width=300 height=300><img src=""static/images/cards/back_of_black_moons.svg"" width=""175px"" height=""250px""></img></td>
    <td width=300 height=300><img src=""static/images/cards/back_of_black_moons.svg"" width=""175px"" height=""250px""></img></td>
  </tr>
  <tr height=200>
    <td width=300></td>
    <td width=300><img src=""static/images/keys/m.svg"" width=""35%"" height=""75%""></img></td>
  </tr>
</table>
  ",77.0,1.0,,,,,,,,,,,,,,,,,,,,,,,,,,
129,0,,html-keyboard-response,129,605629,0.0-4.21-2.21,2tbeti51h1y,2022-09-19 15:58:52.011,58a43e029a17120001d910d5,0,68,34,17,6,39,female,,,"
  <table>
  <tr height=300>
    <td width=300 height=300><img src=""static/images/cards/back_of_black_moons.svg"" width=""175px"" height=""250px""></img></td>
    <td width=300 height=300><img src=""static/images/cards/2_of_black_moons.svg"" width=""175px"" height=""250px""></img></td>
  </tr>
  <tr height=200>
    <td width=300></td>
    <td width=300><img src=""static/images/keys/m.svg"" width=""35%"" height=""75%""></img></td>
  </tr>
</table>
  ",,,,,,,,,,,,,,,,,,,,,,,,,,,,
130,0,,html-keyboard-response,130,607156,0.0-4.21-3.21,2tbeti51h1y,2022-09-19 15:58:52.011,58a43e029a17120001d910d5,0,68,34,17,6,39,female,,,"<p style=""font-size:50px"">You win!
+10 points this round!</p>",,,,,,,,,,,,,,,,,,,,,,,,,,,,
131,0,,html-keyboard-response,131,607663,0.0-4.21-4.21,2tbeti51h1y,2022-09-19 15:58:52.011,58a43e029a17120001d910d5,0,68,34,17,6,39,female,,,,,,1.0,learning,21.0,D,,black,,moons,,,,D,black,moons,,0.0,0.0,0,right,583.5,2.0,0.0,1.0,,,
132,0,,html-keyboard-response,132,609167,0.0-4.22-0.22,2tbeti51h1y,2022-09-19 15:58:52.011,58a43e029a17120001d910d5,0,68,34,17,6,39,female,,,"<img src=""static/images/cards/stack_of_red_bolts.svg"" width=""175px"" height=""250px""></img>",,,,,,,,,,,,,,,,,,,,,,,,,,,,
133,0,,html-keyboard-response,133,610564,0.0-4.22-1.22,2tbeti51h1y,2022-09-19 15:58:52.011,58a43e029a17120001d910d5,0,68,34,17,6,39,female,889.0999994278,,"
  <table>
  <tr height=300>
    <td width=300 height=300><img src=""static/images/cards/back_of_red_bolts.svg"" width=""175px"" height=""250px""></img></td>
    <td width=300 height=300><img src=""static/images/cards/back_of_red_bolts.svg"" width=""175px"" height=""250px""></img></td>
  </tr>
  <tr height=200>
    <td width=300><img src=""static/images/keys/z.svg"" width=""35%"" height=""75%""></img></td>
    <td width=300><img src=""static/images/keys/m.svg"" width=""35%"" height=""75%""></img></td>
  </tr>
</table>
  ",90.0,1.0,,,,,,,,,,,,,,,,,,,,,,,,,,
134,0,,html-keyboard-response,134,612067,0.0-4.22-2.22,2tbeti51h1y,2022-09-19 15:58:52.011,58a43e029a17120001d910d5,0,68,34,17,6,39,female,,,"
  <table>
  <tr height=300>
    <td width=300 height=300><img src=""static/images/cards/4_of_red_bolts.svg"" width=""175px"" height=""250px""></img></td>
    <td width=300 height=300><img src=""static/images/cards/back_of_red_bolts.svg"" width=""175px"" height=""250px""></img></td>
  </tr>
  <tr height=200>
    <td width=300><img src=""static/images/keys/z.svg"" width=""35%"" height=""75%""></img></td>
    <td width=300><img src=""static/images/keys/m.svg"" width=""35%"" height=""75%""></img></td>
  </tr>
</table>
  ",,,,,,,,,,,,,,,,,,,,,,,,,,,,
135,0,,html-keyboard-response,135,613586,0.0-4.22-3.22,2tbeti51h1y,2022-09-19 15:58:52.011,58a43e029a17120001d910d5,0,68,34,17,6,39,female,,,"<p style=""font-size:50px"">You win!
+10 points this round!</p>",,,,,,,,,,,,,,,,,,,,,,,,,,,,
136,0,,html-keyboard-response,136,614095,0.0-4.22-4.22,2tbeti51h1y,2022-09-19 15:58:52.011,58a43e029a17120001d910d5,0,68,34,17,6,39,female,,,,,,1.0,learning,22.0,Xc,,red,,bolts,,,,Xc,red,bolts,,1.0,0.0,NA,left,889.0999994278,4.0,0.0,1.0,,,
137,0,,html-keyboard-response,137,615605,0.0-4.23-0.23,2tbeti51h1y,2022-09-19 15:58:52.011,58a43e029a17120001d910d5,0,68,34,17,6,39,female,,,"<img src=""static/images/cards/stack_of_black_bolts.svg"" width=""175px"" height=""250px""></img>",,,,,,,,,,,,,,,,,,,,,,,,,,,,
138,0,,html-keyboard-response,138,616586,0.0-4.23-1.23,2tbeti51h1y,2022-09-19 15:58:52.011,58a43e029a17120001d910d5,0,68,34,17,6,39,female,463.1000003815,,"
  <table>
  <tr height=300>
    <td width=300 height=300><img src=""static/images/cards/back_of_black_bolts.svg"" width=""175px"" height=""250px""></img></td>
    <td width=300 height=300><img src=""static/images/cards/back_of_black_bolts.svg"" width=""175px"" height=""250px""></img></td>
  </tr>
  <tr height=200>
    <td width=300></td>
    <td width=300><img src=""static/images/keys/m.svg"" width=""35%"" height=""75%""></img></td>
  </tr>
</table>
  ",77.0,1.0,,,,,,,,,,,,,,,,,,,,,,,,,,
139,0,,html-keyboard-response,139,618089,0.0-4.23-2.23,2tbeti51h1y,2022-09-19 15:58:52.011,58a43e029a17120001d910d5,0,68,34,17,6,39,female,,,"
  <table>
  <tr height=300>
    <td width=300 height=300><img src=""static/images/cards/back_of_black_bolts.svg"" width=""175px"" height=""250px""></img></td>
    <td width=300 height=300><img src=""static/images/cards/6_of_black_bolts.svg"" width=""175px"" height=""250px""></img></td>
  </tr>
  <tr height=200>
    <td width=300></td>
    <td width=300><img src=""static/images/keys/m.svg"" width=""35%"" height=""75%""></img></td>
  </tr>
</table>
  ",,,,,,,,,,,,,,,,,,,,,,,,,,,,
140,0,,html-keyboard-response,140,619611,0.0-4.23-3.23,2tbeti51h1y,2022-09-19 15:58:52.011,58a43e029a17120001d910d5,0,68,34,17,6,39,female,,,"<p style=""font-size:50px"">You win!
+10 points this round!</p>",,,,,,,,,,,,,,,,,,,,,,,,,,,,
141,0,,html-keyboard-response,141,620124,0.0-4.23-4.23,2tbeti51h1y,2022-09-19 15:58:52.011,58a43e029a17120001d910d5,0,68,34,17,6,39,female,,,,,,1.0,learning,23.0,Xnc,,black,,bolts,,,,Xnc,black,bolts,,0.0,0.0,0,right,463.1000003815,6.0,1.0,1.0,,,
142,0,,call-function,142,620132,0.0-5.0,2tbeti51h1y,2022-09-19 15:58:52.011,58a43e029a17120001d910d5,0,68,34,17,6,39,female,,,,,,,,,,,,,,,,,,,,,,,,,,,,,,,
143,0,,image-keyboard-response,143,626681,0.0-6.0-0.0,2tbeti51h1y,2022-09-19 15:58:52.011,58a43e029a17120001d910d5,0,68,34,17,6,39,female,6548.8999996185,,static/images/instructions_CB_0/Slide20.png,39.0,,,,,,,,,,,,,,,,,,,,,,,,,,,
144,0,,image-keyboard-response,144,636474,0.0-6.1-0.1,2tbeti51h1y,2022-09-19 15:58:52.011,58a43e029a17120001d910d5,0,68,34,17,6,39,female,9790.5,,static/images/instructions_CB_0/Slide21.png,39.0,,,,,,,,,,,,,,,,,,,,,,,,,,,
145,0,,image-keyboard-response,145,643595,0.0-6.2-0.2,2tbeti51h1y,2022-09-19 15:58:52.011,58a43e029a17120001d910d5,0,68,34,17,6,39,female,7119.8999996185,,static/images/instructions_CB_0/Slide22.png,39.0,,,,,,,,,,,,,,,,,,,,,,,,,,,
146,0,,image-keyboard-response,146,650276,0.0-6.3-0.3,2tbeti51h1y,2022-09-19 15:58:52.011,58a43e029a17120001d910d5,0,68,34,17,6,39,female,6679.8000001907,,static/images/instructions_CB_0/Slide23.png,39.0,,,,,,,,,,,,,,,,,,,,,,,,,,,
147,0,,image-keyboard-response,147,653286,0.0-6.4-0.4,2tbeti51h1y,2022-09-19 15:58:52.011,58a43e029a17120001d910d5,0,68,34,17,6,39,female,3008.0,,static/images/instructions_CB_0/Slide24.png,39.0,,,,,,,,,,,,,,,,,,,,,,,,,,,
148,0,,html-keyboard-response,148,654249,0.0-7.0-0.0,2tbeti51h1y,2022-09-19 15:58:52.011,58a43e029a17120001d910d5,0,68,34,17,6,39,female,961.1000003815,,"
  <table>
  <tr height=300>
    <td width=300 height=300><img src=""static/images/cards/stack_of_red_stars.svg"" width=""175px"" height=""250px""></img></td>
    <td width=300 height=300><img src=""static/images/cards/stack_of_black_stars.svg"" width=""175px"" height=""250px""></img></td>
  </tr>
  <tr height=200>
    <td width=300><img src=""static/images/keys/w.svg"" width=""35%"" height=""75%""></img></td>
    <td width=300><img src=""static/images/keys/o.svg"" width=""35%"" height=""75%""></img></td>
  </tr>
</table>
  ",87.0,1.0,,,,,,,,,,,,,,,,,,,,,,,,,,
149,0,,html-keyboard-response,149,656057,0.0-7.0-1.0,2tbeti51h1y,2022-09-19 15:58:52.011,58a43e029a17120001d910d5,0,68,34,17,6,39,female,1296.3000001907,,"
  <table>
  <tr height=300>
    <td width=300 height=300><img src=""static/images/cards/back_of_red_stars.svg"" width=""175px"" height=""250px""></img></td>
    <td width=300 height=300><img src=""static/images/cards/back_of_red_stars.svg"" width=""175px"" height=""250px""></img></td>
  </tr>
  <tr height=200>
    <td width=300><img src=""static/images/keys/z.svg"" width=""35%"" height=""75%""></img></td>
    <td width=300><img src=""static/images/keys/m.svg"" width=""35%"" height=""75%""></img></td>
  </tr>
</table>
  ",90.0,1.0,,,,,,,,,,,,,,,,,,,,,,,,,,
150,0,,html-keyboard-response,150,657559,0.0-7.0-2.0,2tbeti51h1y,2022-09-19 15:58:52.011,58a43e029a17120001d910d5,0,68,34,17,6,39,female,,,"
  <table>
  <tr height=300>
    <td width=300 height=300><img src=""static/images/cards/9_of_red_stars.svg"" width=""175px"" height=""250px""></img></td>
    <td width=300 height=300><img src=""static/images/cards/back_of_red_stars.svg"" width=""175px"" height=""250px""></img></td>
  </tr>
  <tr height=200>
    <td width=300><img src=""static/images/keys/z.svg"" width=""35%"" height=""75%""></img></td>
    <td width=300><img src=""static/images/keys/m.svg"" width=""35%"" height=""75%""></img></td>
  </tr>
</table>
  ",,,,,,,,,,,,,,,,,,,,,,,,,,,,
151,0,,html-keyboard-response,151,659078,0.0-7.0-3.0,2tbeti51h1y,2022-09-19 15:58:52.011,58a43e029a17120001d910d5,0,68,34,17,6,39,female,,,"<p style=""font-size:50px"">You win!
+10 points this round!</p>",,,,,,,,,,,,,,,,,,,,,,,,,,,,
152,0,,html-keyboard-response,152,659598,0.0-7.0-4.0,2tbeti51h1y,2022-09-19 15:58:52.011,58a43e029a17120001d910d5,0,68,34,17,6,39,female,,,,,,1.0,choice,0.0,A,B,red,black,stars,stars,A,B,A,red,stars,961.1000003815,1.0,1.0,NA,left,1296.3000001907,9.0,1.0,1.0,,,
153,0,,html-keyboard-response,153,660639,0.0-7.1-0.1,2tbeti51h1y,2022-09-19 15:58:52.011,58a43e029a17120001d910d5,0,68,34,17,6,39,female,1037.5,,"
  <table>
  <tr height=300>
    <td width=300 height=300><img src=""static/images/cards/stack_of_black_stars.svg"" width=""175px"" height=""250px""></img></td>
    <td width=300 height=300><img src=""static/images/cards/stack_of_black_moons.svg"" width=""175px"" height=""250px""></img></td>
  </tr>
  <tr height=200>
    <td width=300><img src=""static/images/keys/w.svg"" width=""35%"" height=""75%""></img></td>
    <td width=300><img src=""static/images/keys/o.svg"" width=""35%"" height=""75%""></img></td>
  </tr>
</table>
  ",87.0,1.0,,,,,,,,,,,,,,,,,,,,,,,,,,
154,0,,html-keyboard-response,154,662236,0.0-7.1-1.1,2tbeti51h1y,2022-09-19 15:58:52.011,58a43e029a17120001d910d5,0,68,34,17,6,39,female,1091.0,,"
  <table>
  <tr height=300>
    <td width=300 height=300><img src=""static/images/cards/back_of_black_stars.svg"" width=""175px"" height=""250px""></img></td>
    <td width=300 height=300><img src=""static/images/cards/back_of_black_stars.svg"" width=""175px"" height=""250px""></img></td>
  </tr>
  <tr height=200>
    <td width=300></td>
    <td width=300><img src=""static/images/keys/m.svg"" width=""35%"" height=""75%""></img></td>
  </tr>
</table>
  ",77.0,1.0,,,,,,,,,,,,,,,,,,,,,,,,,,
155,0,,html-keyboard-response,155,663744,0.0-7.1-2.1,2tbeti51h1y,2022-09-19 15:58:52.011,58a43e029a17120001d910d5,0,68,34,17,6,39,female,,,"
  <table>
  <tr height=300>
    <td width=300 height=300><img src=""static/images/cards/back_of_black_stars.svg"" width=""175px"" height=""250px""></img></td>
    <td width=300 height=300><img src=""static/images/cards/9_of_black_stars.svg"" width=""175px"" height=""250px""></img></td>
  </tr>
  <tr height=200>
    <td width=300></td>
    <td width=300><img src=""static/images/keys/m.svg"" width=""35%"" height=""75%""></img></td>
  </tr>
</table>
  ",,,,,,,,,,,,,,,,,,,,,,,,,,,,
156,0,,html-keyboard-response,156,665259,0.0-7.1-3.1,2tbeti51h1y,2022-09-19 15:58:52.011,58a43e029a17120001d910d5,0,68,34,17,6,39,female,,,"<p style=""font-size:50px"">You win!
+10 points this round!</p>",,,,,,,,,,,,,,,,,,,,,,,,,,,,
157,0,,html-keyboard-response,157,665779,0.0-7.1-4.1,2tbeti51h1y,2022-09-19 15:58:52.011,58a43e029a17120001d910d5,0,68,34,17,6,39,female,,,,,,1.0,choice,1.0,B,D,black,black,stars,moons,B,D,B,black,stars,1037.5,0.0,1.0,0,right,1091.0,9.0,1.0,1.0,,,
158,0,,html-keyboard-response,158,667011,0.0-7.2-0.2,2tbeti51h1y,2022-09-19 15:58:52.011,58a43e029a17120001d910d5,0,68,34,17,6,39,female,1230.6999998093,,"
  <table>
  <tr height=300>
    <td width=300 height=300><img src=""static/images/cards/stack_of_black_moons.svg"" width=""175px"" height=""250px""></img></td>
    <td width=300 height=300><img src=""static/images/cards/stack_of_red_moons.svg"" width=""175px"" height=""250px""></img></td>
  </tr>
  <tr height=200>
    <td width=300><img src=""static/images/keys/w.svg"" width=""35%"" height=""75%""></img></td>
    <td width=300><img src=""static/images/keys/o.svg"" width=""35%"" height=""75%""></img></td>
  </tr>
</table>
  ",87.0,1.0,,,,,,,,,,,,,,,,,,,,,,,,,,
159,0,,html-keyboard-response,159,668551,0.0-7.2-1.2,2tbeti51h1y,2022-09-19 15:58:52.011,58a43e029a17120001d910d5,0,68,34,17,6,39,female,1025.0,,"
  <table>
  <tr height=300>
    <td width=300 height=300><img src=""static/images/cards/back_of_black_moons.svg"" width=""175px"" height=""250px""></img></td>
    <td width=300 height=300><img src=""static/images/cards/back_of_black_moons.svg"" width=""175px"" height=""250px""></img></td>
  </tr>
  <tr height=200>
    <td width=300><img src=""static/images/keys/z.svg"" width=""35%"" height=""75%""></img></td>
    <td width=300></td>
  </tr>
</table>
  ",90.0,1.0,,,,,,,,,,,,,,,,,,,,,,,,,,
160,0,,html-keyboard-response,160,670060,0.0-7.2-2.2,2tbeti51h1y,2022-09-19 15:58:52.011,58a43e029a17120001d910d5,0,68,34,17,6,39,female,,,"
  <table>
  <tr height=300>
    <td width=300 height=300><img src=""static/images/cards/4_of_black_moons.svg"" width=""175px"" height=""250px""></img></td>
    <td width=300 height=300><img src=""static/images/cards/back_of_black_moons.svg"" width=""175px"" height=""250px""></img></td>
  </tr>
  <tr height=200>
    <td width=300><img src=""static/images/keys/z.svg"" width=""35%"" height=""75%""></img></td>
    <td width=300></td>
  </tr>
</table>
  ",,,,,,,,,,,,,,,,,,,,,,,,,,,,
161,0,,html-keyboard-response,161,671591,0.0-7.2-3.2,2tbeti51h1y,2022-09-19 15:58:52.011,58a43e029a17120001d910d5,0,68,34,17,6,39,female,,,"<p style=""font-size:50px"">You Lose!
No points this round.</p>",,,,,,,,,,,,,,,,,,,,,,,,,,,,
162,0,,html-keyboard-response,162,672112,0.0-7.2-4.2,2tbeti51h1y,2022-09-19 15:58:52.011,58a43e029a17120001d910d5,0,68,34,17,6,39,female,,,,,,1.0,choice,2.0,C,D,black,red,moons,moons,D,C,D,black,moons,1230.6999998093,0.0,0.0,1,left,1025.0,4.0,0.0,0.0,,,
163,0,,html-keyboard-response,163,672997,0.0-7.3-0.3,2tbeti51h1y,2022-09-19 15:58:52.011,58a43e029a17120001d910d5,0,68,34,17,6,39,female,883.0,,"
  <table>
  <tr height=300>
    <td width=300 height=300><img src=""static/images/cards/stack_of_black_stars.svg"" width=""175px"" height=""250px""></img></td>
    <td width=300 height=300><img src=""static/images/cards/stack_of_black_moons.svg"" width=""175px"" height=""250px""></img></td>
  </tr>
  <tr height=200>
    <td width=300><img src=""static/images/keys/w.svg"" width=""35%"" height=""75%""></img></td>
    <td width=300><img src=""static/images/keys/o.svg"" width=""35%"" height=""75%""></img></td>
  </tr>
</table>
  ",87.0,1.0,,,,,,,,,,,,,,,,,,,,,,,,,,
164,0,,html-keyboard-response,164,674392,0.0-7.3-1.3,2tbeti51h1y,2022-09-19 15:58:52.011,58a43e029a17120001d910d5,0,68,34,17,6,39,female,884.2000007629,,"
  <table>
  <tr height=300>
    <td width=300 height=300><img src=""static/images/cards/back_of_black_stars.svg"" width=""175px"" height=""250px""></img></td>
    <td width=300 height=300><img src=""static/images/cards/back_of_black_stars.svg"" width=""175px"" height=""250px""></img></td>
  </tr>
  <tr height=200>
    <td width=300><img src=""static/images/keys/z.svg"" width=""35%"" height=""75%""></img></td>
    <td width=300></td>
  </tr>
</table>
  ",90.0,1.0,,,,,,,,,,,,,,,,,,,,,,,,,,
165,0,,html-keyboard-response,165,675903,0.0-7.3-2.3,2tbeti51h1y,2022-09-19 15:58:52.011,58a43e029a17120001d910d5,0,68,34,17,6,39,female,,,"
  <table>
  <tr height=300>
    <td width=300 height=300><img src=""static/images/cards/1_of_black_stars.svg"" width=""175px"" height=""250px""></img></td>
    <td width=300 height=300><img src=""static/images/cards/back_of_black_stars.svg"" width=""175px"" height=""250px""></img></td>
  </tr>
  <tr height=200>
    <td width=300><img src=""static/images/keys/z.svg"" width=""35%"" height=""75%""></img></td>
    <td width=300></td>
  </tr>
</table>
  ",,,,,,,,,,,,,,,,,,,,,,,,,,,,
166,0,,html-keyboard-response,166,677421,0.0-7.3-3.3,2tbeti51h1y,2022-09-19 15:58:52.011,58a43e029a17120001d910d5,0,68,34,17,6,39,female,,,"<p style=""font-size:50px"">You Lose!
No points this round.</p>",,,,,,,,,,,,,,,,,,,,,,,,,,,,
167,0,,html-keyboard-response,167,677935,0.0-7.3-4.3,2tbeti51h1y,2022-09-19 15:58:52.011,58a43e029a17120001d910d5,0,68,34,17,6,39,female,,,,,,1.0,choice,3.0,B,D,black,black,stars,moons,B,D,B,black,stars,883.0,0.0,1.0,1,left,884.2000007629,1.0,0.0,0.0,,,
168,0,,html-keyboard-response,168,679093,0.0-7.4-0.4,2tbeti51h1y,2022-09-19 15:58:52.011,58a43e029a17120001d910d5,0,68,34,17,6,39,female,1155.5,,"
  <table>
  <tr height=300>
    <td width=300 height=300><img src=""static/images/cards/stack_of_black_moons.svg"" width=""175px"" height=""250px""></img></td>
    <td width=300 height=300><img src=""static/images/cards/stack_of_red_moons.svg"" width=""175px"" height=""250px""></img></td>
  </tr>
  <tr height=200>
    <td width=300><img src=""static/images/keys/w.svg"" width=""35%"" height=""75%""></img></td>
    <td width=300><img src=""static/images/keys/o.svg"" width=""35%"" height=""75%""></img></td>
  </tr>
</table>
  ",79.0,1.0,,,,,,,,,,,,,,,,,,,,,,,,,,
169,0,,html-keyboard-response,169,680937,0.0-7.4-1.4,2tbeti51h1y,2022-09-19 15:58:52.011,58a43e029a17120001d910d5,0,68,34,17,6,39,female,1331.6000003815,,"
  <table>
  <tr height=300>
    <td width=300 height=300><img src=""static/images/cards/back_of_red_moons.svg"" width=""175px"" height=""250px""></img></td>
    <td width=300 height=300><img src=""static/images/cards/back_of_red_moons.svg"" width=""175px"" height=""250px""></img></td>
  </tr>
  <tr height=200>
    <td width=300><img src=""static/images/keys/z.svg"" width=""35%"" height=""75%""></img></td>
    <td width=300><img src=""static/images/keys/m.svg"" width=""35%"" height=""75%""></img></td>
  </tr>
</table>
  ",90.0,1.0,,,,,,,,,,,,,,,,,,,,,,,,,,
170,0,,html-keyboard-response,170,682439,0.0-7.4-2.4,2tbeti51h1y,2022-09-19 15:58:52.011,58a43e029a17120001d910d5,0,68,34,17,6,39,female,,,"
  <table>
  <tr height=300>
    <td width=300 height=300><img src=""static/images/cards/9_of_red_moons.svg"" width=""175px"" height=""250px""></img></td>
    <td width=300 height=300><img src=""static/images/cards/back_of_red_moons.svg"" width=""175px"" height=""250px""></img></td>
  </tr>
  <tr height=200>
    <td width=300><img src=""static/images/keys/z.svg"" width=""35%"" height=""75%""></img></td>
    <td width=300><img src=""static/images/keys/m.svg"" width=""35%"" height=""75%""></img></td>
  </tr>
</table>
  ",,,,,,,,,,,,,,,,,,,,,,,,,,,,
171,0,,html-keyboard-response,171,683956,0.0-7.4-3.4,2tbeti51h1y,2022-09-19 15:58:52.011,58a43e029a17120001d910d5,0,68,34,17,6,39,female,,,"<p style=""font-size:50px"">You win!
+10 points this round!</p>",,,,,,,,,,,,,,,,,,,,,,,,,,,,
172,0,,html-keyboard-response,172,684473,0.0-7.4-4.4,2tbeti51h1y,2022-09-19 15:58:52.011,58a43e029a17120001d910d5,0,68,34,17,6,39,female,,,,,,1.0,choice,4.0,C,D,black,red,moons,moons,D,C,C,red,moons,1155.5,1.0,0.0,NA,left,1331.6000003815,9.0,1.0,1.0,,,
173,0,,html-keyboard-response,173,685482,0.0-7.5-0.5,2tbeti51h1y,2022-09-19 15:58:52.011,58a43e029a17120001d910d5,0,68,34,17,6,39,female,1007.8999996185,,"
  <table>
  <tr height=300>
    <td width=300 height=300><img src=""static/images/cards/stack_of_red_stars.svg"" width=""175px"" height=""250px""></img></td>
    <td width=300 height=300><img src=""static/images/cards/stack_of_black_moons.svg"" width=""175px"" height=""250px""></img></td>
  </tr>
  <tr height=200>
    <td width=300><img src=""static/images/keys/w.svg"" width=""35%"" height=""75%""></img></td>
    <td width=300><img src=""static/images/keys/o.svg"" width=""35%"" height=""75%""></img></td>
  </tr>
</table>
  ",79.0,1.0,,,,,,,,,,,,,,,,,,,,,,,,,,
174,0,,html-keyboard-response,174,686823,0.0-7.5-1.5,2tbeti51h1y,2022-09-19 15:58:52.011,58a43e029a17120001d910d5,0,68,34,17,6,39,female,833.5999994278,,"
  <table>
  <tr height=300>
    <td width=300 height=300><img src=""static/images/cards/back_of_black_moons.svg"" width=""175px"" height=""250px""></img></td>
    <td width=300 height=300><img src=""static/images/cards/back_of_black_moons.svg"" width=""175px"" height=""250px""></img></td>
  </tr>
  <tr height=200>
    <td width=300></td>
    <td width=300><img src=""static/images/keys/m.svg"" width=""35%"" height=""75%""></img></td>
  </tr>
</table>
  ",77.0,1.0,,,,,,,,,,,,,,,,,,,,,,,,,,
175,0,,html-keyboard-response,175,688336,0.0-7.5-2.5,2tbeti51h1y,2022-09-19 15:58:52.011,58a43e029a17120001d910d5,0,68,34,17,6,39,female,,,"
  <table>
  <tr height=300>
    <td width=300 height=300><img src=""static/images/cards/back_of_black_moons.svg"" width=""175px"" height=""250px""></img></td>
    <td width=300 height=300><img src=""static/images/cards/8_of_black_moons.svg"" width=""175px"" height=""250px""></img></td>
  </tr>
  <tr height=200>
    <td width=300></td>
    <td width=300><img src=""static/images/keys/m.svg"" width=""35%"" height=""75%""></img></td>
  </tr>
</table>
  ",,,,,,,,,,,,,,,,,,,,,,,,,,,,
176,0,,html-keyboard-response,176,689853,0.0-7.5-3.5,2tbeti51h1y,2022-09-19 15:58:52.011,58a43e029a17120001d910d5,0,68,34,17,6,39,female,,,"<p style=""font-size:50px"">You win!
+10 points this round!</p>",,,,,,,,,,,,,,,,,,,,,,,,,,,,
177,0,,html-keyboard-response,177,690373,0.0-7.5-4.5,2tbeti51h1y,2022-09-19 15:58:52.011,58a43e029a17120001d910d5,0,68,34,17,6,39,female,,,,,,1.0,choice,5.0,A,D,red,black,stars,moons,A,D,D,black,moons,1007.8999996185,0.0,0.0,0,right,833.5999994278,8.0,1.0,1.0,,,
178,0,,html-keyboard-response,178,691997,0.0-7.6-0.6,2tbeti51h1y,2022-09-19 15:58:52.011,58a43e029a17120001d910d5,0,68,34,17,6,39,female,1621.1000003815,,"
  <table>
  <tr height=300>
    <td width=300 height=300><img src=""static/images/cards/stack_of_black_moons.svg"" width=""175px"" height=""250px""></img></td>
    <td width=300 height=300><img src=""static/images/cards/stack_of_black_stars.svg"" width=""175px"" height=""250px""></img></td>
  </tr>
  <tr height=200>
    <td width=300><img src=""static/images/keys/w.svg"" width=""35%"" height=""75%""></img></td>
    <td width=300><img src=""static/images/keys/o.svg"" width=""35%"" height=""75%""></img></td>
  </tr>
</table>
  ",87.0,1.0,,,,,,,,,,,,,,,,,,,,,,,,,,
179,0,,html-keyboard-response,179,693416,0.0-7.6-1.6,2tbeti51h1y,2022-09-19 15:58:52.011,58a43e029a17120001d910d5,0,68,34,17,6,39,female,914.3999996185,,"
  <table>
  <tr height=300>
    <td width=300 height=300><img src=""static/images/cards/back_of_black_moons.svg"" width=""175px"" height=""250px""></img></td>
    <td width=300 height=300><img src=""static/images/cards/back_of_black_moons.svg"" width=""175px"" height=""250px""></img></td>
  </tr>
  <tr height=200>
    <td width=300></td>
    <td width=300><img src=""static/images/keys/m.svg"" width=""35%"" height=""75%""></img></td>
  </tr>
</table>
  ",77.0,1.0,,,,,,,,,,,,,,,,,,,,,,,,,,
180,0,,html-keyboard-response,180,694918,0.0-7.6-2.6,2tbeti51h1y,2022-09-19 15:58:52.011,58a43e029a17120001d910d5,0,68,34,17,6,39,female,,,"
  <table>
  <tr height=300>
    <td width=300 height=300><img src=""static/images/cards/back_of_black_moons.svg"" width=""175px"" height=""250px""></img></td>
    <td width=300 height=300><img src=""static/images/cards/7_of_black_moons.svg"" width=""175px"" height=""250px""></img></td>
  </tr>
  <tr height=200>
    <td width=300></td>
    <td width=300><img src=""static/images/keys/m.svg"" width=""35%"" height=""75%""></img></td>
  </tr>
</table>
  ",,,,,,,,,,,,,,,,,,,,,,,,,,,,
181,0,,html-keyboard-response,181,696433,0.0-7.6-3.6,2tbeti51h1y,2022-09-19 15:58:52.011,58a43e029a17120001d910d5,0,68,34,17,6,39,female,,,"<p style=""font-size:50px"">You win!
+10 points this round!</p>",,,,,,,,,,,,,,,,,,,,,,,,,,,,
182,0,,html-keyboard-response,182,696939,0.0-7.6-4.6,2tbeti51h1y,2022-09-19 15:58:52.011,58a43e029a17120001d910d5,0,68,34,17,6,39,female,,,,,,1.0,choice,6.0,B,D,black,black,moons,stars,D,B,D,black,moons,1621.1000003815,0.0,0.0,0,right,914.3999996185,7.0,1.0,1.0,,,
183,0,,html-keyboard-response,183,698105,0.0-7.7-0.7,2tbeti51h1y,2022-09-19 15:58:52.011,58a43e029a17120001d910d5,0,68,34,17,6,39,female,1162.8999996185,,"
  <table>
  <tr height=300>
    <td width=300 height=300><img src=""static/images/cards/stack_of_red_stars.svg"" width=""175px"" height=""250px""></img></td>
    <td width=300 height=300><img src=""static/images/cards/stack_of_black_moons.svg"" width=""175px"" height=""250px""></img></td>
  </tr>
  <tr height=200>
    <td width=300><img src=""static/images/keys/w.svg"" width=""35%"" height=""75%""></img></td>
    <td width=300><img src=""static/images/keys/o.svg"" width=""35%"" height=""75%""></img></td>
  </tr>
</table>
  ",79.0,1.0,,,,,,,,,,,,,,,,,,,,,,,,,,
184,0,,html-keyboard-response,184,699615,0.0-7.7-1.7,2tbeti51h1y,2022-09-19 15:58:52.011,58a43e029a17120001d910d5,0,68,34,17,6,39,female,1003.1000003815,,"
  <table>
  <tr height=300>
    <td width=300 height=300><img src=""static/images/cards/back_of_black_moons.svg"" width=""175px"" height=""250px""></img></td>
    <td width=300 height=300><img src=""static/images/cards/back_of_black_moons.svg"" width=""175px"" height=""250px""></img></td>
  </tr>
  <tr height=200>
    <td width=300><img src=""static/images/keys/z.svg"" width=""35%"" height=""75%""></img></td>
    <td width=300></td>
  </tr>
</table>
  ",90.0,1.0,,,,,,,,,,,,,,,,,,,,,,,,,,
185,0,,html-keyboard-response,185,701120,0.0-7.7-2.7,2tbeti51h1y,2022-09-19 15:58:52.011,58a43e029a17120001d910d5,0,68,34,17,6,39,female,,,"
  <table>
  <tr height=300>
    <td width=300 height=300><img src=""static/images/cards/2_of_black_moons.svg"" width=""175px"" height=""250px""></img></td>
    <td width=300 height=300><img src=""static/images/cards/back_of_black_moons.svg"" width=""175px"" height=""250px""></img></td>
  </tr>
  <tr height=200>
    <td width=300><img src=""static/images/keys/z.svg"" width=""35%"" height=""75%""></img></td>
    <td width=300></td>
  </tr>
</table>
  ",,,,,,,,,,,,,,,,,,,,,,,,,,,,
186,0,,html-keyboard-response,186,702645,0.0-7.7-3.7,2tbeti51h1y,2022-09-19 15:58:52.011,58a43e029a17120001d910d5,0,68,34,17,6,39,female,,,"<p style=""font-size:50px"">You win!
+10 points this round!</p>",,,,,,,,,,,,,,,,,,,,,,,,,,,,
187,0,,html-keyboard-response,187,703161,0.0-7.7-4.7,2tbeti51h1y,2022-09-19 15:58:52.011,58a43e029a17120001d910d5,0,68,34,17,6,39,female,,,,,,1.0,choice,7.0,A,D,red,black,stars,moons,A,D,D,black,moons,1162.8999996185,0.0,0.0,1,left,1003.1000003815,2.0,0.0,1.0,,,
188,0,,html-keyboard-response,188,704050,0.0-7.8-0.8,2tbeti51h1y,2022-09-19 15:58:52.011,58a43e029a17120001d910d5,0,68,34,17,6,39,female,892.6999998093,,"
  <table>
  <tr height=300>
    <td width=300 height=300><img src=""static/images/cards/stack_of_black_stars.svg"" width=""175px"" height=""250px""></img></td>
    <td width=300 height=300><img src=""static/images/cards/stack_of_red_moons.svg"" width=""175px"" height=""250px""></img></td>
  </tr>
  <tr height=200>
    <td width=300><img src=""static/images/keys/w.svg"" width=""35%"" height=""75%""></img></td>
    <td width=300><img src=""static/images/keys/o.svg"" width=""35%"" height=""75%""></img></td>
  </tr>
</table>
  ",87.0,1.0,,,,,,,,,,,,,,,,,,,,,,,,,,
189,0,,html-keyboard-response,189,705126,0.0-7.8-1.8,2tbeti51h1y,2022-09-19 15:58:52.011,58a43e029a17120001d910d5,0,68,34,17,6,39,female,565.1999998093,,"
  <table>
  <tr height=300>
    <td width=300 height=300><img src=""static/images/cards/back_of_black_stars.svg"" width=""175px"" height=""250px""></img></td>
    <td width=300 height=300><img src=""static/images/cards/back_of_black_stars.svg"" width=""175px"" height=""250px""></img></td>
  </tr>
  <tr height=200>
    <td width=300></td>
    <td width=300><img src=""static/images/keys/m.svg"" width=""35%"" height=""75%""></img></td>
  </tr>
</table>
  ",77.0,1.0,,,,,,,,,,,,,,,,,,,,,,,,,,
190,0,,html-keyboard-response,190,706628,0.0-7.8-2.8,2tbeti51h1y,2022-09-19 15:58:52.011,58a43e029a17120001d910d5,0,68,34,17,6,39,female,,,"
  <table>
  <tr height=300>
    <td width=300 height=300><img src=""static/images/cards/back_of_black_stars.svg"" width=""175px"" height=""250px""></img></td>
    <td width=300 height=300><img src=""static/images/cards/2_of_black_stars.svg"" width=""175px"" height=""250px""></img></td>
  </tr>
  <tr height=200>
    <td width=300></td>
    <td width=300><img src=""static/images/keys/m.svg"" width=""35%"" height=""75%""></img></td>
  </tr>
</table>
  ",,,,,,,,,,,,,,,,,,,,,,,,,,,,
191,0,,html-keyboard-response,191,708156,0.0-7.8-3.8,2tbeti51h1y,2022-09-19 15:58:52.011,58a43e029a17120001d910d5,0,68,34,17,6,39,female,,,"<p style=""font-size:50px"">You Lose!
No points this round.</p>",,,,,,,,,,,,,,,,,,,,,,,,,,,,
192,0,,html-keyboard-response,192,708672,0.0-7.8-4.8,2tbeti51h1y,2022-09-19 15:58:52.011,58a43e029a17120001d910d5,0,68,34,17,6,39,female,,,,,,1.0,choice,8.0,B,C,black,red,stars,moons,B,C,B,black,stars,892.6999998093,0.0,1.0,0,right,565.1999998093,2.0,0.0,0.0,,,
193,0,,html-keyboard-response,193,709593,0.0-7.9-0.9,2tbeti51h1y,2022-09-19 15:58:52.011,58a43e029a17120001d910d5,0,68,34,17,6,39,female,918.6999998093,,"
  <table>
  <tr height=300>
    <td width=300 height=300><img src=""static/images/cards/stack_of_red_moons.svg"" width=""175px"" height=""250px""></img></td>
    <td width=300 height=300><img src=""static/images/cards/stack_of_black_bolts.svg"" width=""175px"" height=""250px""></img></td>
  </tr>
  <tr height=200>
    <td width=300><img src=""static/images/keys/w.svg"" width=""35%"" height=""75%""></img></td>
    <td width=300><img src=""static/images/keys/o.svg"" width=""35%"" height=""75%""></img></td>
  </tr>
</table>
  ",79.0,1.0,,,,,,,,,,,,,,,,,,,,,,,,,,
194,0,,html-keyboard-response,194,711456,0.0-7.9-1.9,2tbeti51h1y,2022-09-19 15:58:52.011,58a43e029a17120001d910d5,0,68,34,17,6,39,female,1354.0,,"
  <table>
  <tr height=300>
    <td width=300 height=300><img src=""static/images/cards/back_of_black_bolts.svg"" width=""175px"" height=""250px""></img></td>
    <td width=300 height=300><img src=""static/images/cards/back_of_black_bolts.svg"" width=""175px"" height=""250px""></img></td>
  </tr>
  <tr height=200>
    <td width=300><img src=""static/images/keys/z.svg"" width=""35%"" height=""75%""></img></td>
    <td width=300></td>
  </tr>
</table>
  ",90.0,1.0,,,,,,,,,,,,,,,,,,,,,,,,,,
195,0,,html-keyboard-response,195,712971,0.0-7.9-2.9,2tbeti51h1y,2022-09-19 15:58:52.011,58a43e029a17120001d910d5,0,68,34,17,6,39,female,,,"
  <table>
  <tr height=300>
    <td width=300 height=300><img src=""static/images/cards/7_of_black_bolts.svg"" width=""175px"" height=""250px""></img></td>
    <td width=300 height=300><img src=""static/images/cards/back_of_black_bolts.svg"" width=""175px"" height=""250px""></img></td>
  </tr>
  <tr height=200>
    <td width=300><img src=""static/images/keys/z.svg"" width=""35%"" height=""75%""></img></td>
    <td width=300></td>
  </tr>
</table>
  ",,,,,,,,,,,,,,,,,,,,,,,,,,,,
196,0,,html-keyboard-response,196,714475,0.0-7.9-3.9,2tbeti51h1y,2022-09-19 15:58:52.011,58a43e029a17120001d910d5,0,68,34,17,6,39,female,,,"<p style=""font-size:50px"">You win!
+10 points this round!</p>",,,,,,,,,,,,,,,,,,,,,,,,,,,,
197,0,,html-keyboard-response,197,714997,0.0-7.9-4.9,2tbeti51h1y,2022-09-19 15:58:52.011,58a43e029a17120001d910d5,0,68,34,17,6,39,female,,,,,,1.0,choice,9.0,C,Xnc,red,black,moons,bolts,C,Xnc,Xnc,black,bolts,918.6999998093,0.0,0.0,1,left,1354.0,7.0,1.0,1.0,,,
198,0,,html-keyboard-response,198,715982,0.0-7.10-0.10,2tbeti51h1y,2022-09-19 15:58:52.011,58a43e029a17120001d910d5,0,68,34,17,6,39,female,982.3000001907,,"
  <table>
  <tr height=300>
    <td width=300 height=300><img src=""static/images/cards/stack_of_red_moons.svg"" width=""175px"" height=""250px""></img></td>
    <td width=300 height=300><img src=""static/images/cards/stack_of_red_stars.svg"" width=""175px"" height=""250px""></img></td>
  </tr>
  <tr height=200>
    <td width=300><img src=""static/images/keys/w.svg"" width=""35%"" height=""75%""></img></td>
    <td width=300><img src=""static/images/keys/o.svg"" width=""35%"" height=""75%""></img></td>
  </tr>
</table>
  ",79.0,1.0,,,,,,,,,,,,,,,,,,,,,,,,,,
199,0,,html-keyboard-response,199,717501,0.0-7.10-1.10,2tbeti51h1y,2022-09-19 15:58:52.011,58a43e029a17120001d910d5,0,68,34,17,6,39,female,1008.3000001907,,"
  <table>
  <tr height=300>
    <td width=300 height=300><img src=""static/images/cards/back_of_red_stars.svg"" width=""175px"" height=""250px""></img></td>
    <td width=300 height=300><img src=""static/images/cards/back_of_red_stars.svg"" width=""175px"" height=""250px""></img></td>
  </tr>
  <tr height=200>
    <td width=300><img src=""static/images/keys/z.svg"" width=""35%"" height=""75%""></img></td>
    <td width=300><img src=""static/images/keys/m.svg"" width=""35%"" height=""75%""></img></td>
  </tr>
</table>
  ",90.0,1.0,,,,,,,,,,,,,,,,,,,,,,,,,,
200,0,,html-keyboard-response,200,719020,0.0-7.10-2.10,2tbeti51h1y,2022-09-19 15:58:52.011,58a43e029a17120001d910d5,0,68,34,17,6,39,female,,,"
  <table>
  <tr height=300>
    <td width=300 height=300><img src=""static/images/cards/4_of_red_stars.svg"" width=""175px"" height=""250px""></img></td>
    <td width=300 height=300><img src=""static/images/cards/back_of_red_stars.svg"" width=""175px"" height=""250px""></img></td>
  </tr>
  <tr height=200>
    <td width=300><img src=""static/images/keys/z.svg"" width=""35%"" height=""75%""></img></td>
    <td width=300><img src=""static/images/keys/m.svg"" width=""35%"" height=""75%""></img></td>
  </tr>
</table>
  ",,,,,,,,,,,,,,,,,,,,,,,,,,,,
201,0,,html-keyboard-response,201,720540,0.0-7.10-3.10,2tbeti51h1y,2022-09-19 15:58:52.011,58a43e029a17120001d910d5,0,68,34,17,6,39,female,,,"<p style=""font-size:50px"">You Lose!
No points this round.</p>",,,,,,,,,,,,,,,,,,,,,,,,,,,,
202,0,,html-keyboard-response,202,721060,0.0-7.10-4.10,2tbeti51h1y,2022-09-19 15:58:52.011,58a43e029a17120001d910d5,0,68,34,17,6,39,female,,,,,,1.0,choice,10.0,A,C,red,red,moons,stars,C,A,A,red,stars,982.3000001907,1.0,1.0,NA,left,1008.3000001907,4.0,0.0,0.0,,,
203,0,,html-keyboard-response,203,721998,0.0-7.11-0.11,2tbeti51h1y,2022-09-19 15:58:52.011,58a43e029a17120001d910d5,0,68,34,17,6,39,female,935.0,,"
  <table>
  <tr height=300>
    <td width=300 height=300><img src=""static/images/cards/stack_of_red_moons.svg"" width=""175px"" height=""250px""></img></td>
    <td width=300 height=300><img src=""static/images/cards/stack_of_black_moons.svg"" width=""175px"" height=""250px""></img></td>
  </tr>
  <tr height=200>
    <td width=300><img src=""static/images/keys/w.svg"" width=""35%"" height=""75%""></img></td>
    <td width=300><img src=""static/images/keys/o.svg"" width=""35%"" height=""75%""></img></td>
  </tr>
</table>
  ",87.0,1.0,,,,,,,,,,,,,,,,,,,,,,,,,,
204,0,,html-keyboard-response,204,723572,0.0-7.11-1.11,2tbeti51h1y,2022-09-19 15:58:52.011,58a43e029a17120001d910d5,0,68,34,17,6,39,female,1058.5999994278,,"
  <table>
  <tr height=300>
    <td width=300 height=300><img src=""static/images/cards/back_of_red_moons.svg"" width=""175px"" height=""250px""></img></td>
    <td width=300 height=300><img src=""static/images/cards/back_of_red_moons.svg"" width=""175px"" height=""250px""></img></td>
  </tr>
  <tr height=200>
    <td width=300><img src=""static/images/keys/z.svg"" width=""35%"" height=""75%""></img></td>
    <td width=300><img src=""static/images/keys/m.svg"" width=""35%"" height=""75%""></img></td>
  </tr>
</table>
  ",90.0,1.0,,,,,,,,,,,,,,,,,,,,,,,,,,
205,0,,html-keyboard-response,205,725086,0.0-7.11-2.11,2tbeti51h1y,2022-09-19 15:58:52.011,58a43e029a17120001d910d5,0,68,34,17,6,39,female,,,"
  <table>
  <tr height=300>
    <td width=300 height=300><img src=""static/images/cards/1_of_red_moons.svg"" width=""175px"" height=""250px""></img></td>
    <td width=300 height=300><img src=""static/images/cards/back_of_red_moons.svg"" width=""175px"" height=""250px""></img></td>
  </tr>
  <tr height=200>
    <td width=300><img src=""static/images/keys/z.svg"" width=""35%"" height=""75%""></img></td>
    <td width=300><img src=""static/images/keys/m.svg"" width=""35%"" height=""75%""></img></td>
  </tr>
</table>
  ",,,,,,,,,,,,,,,,,,,,,,,,,,,,
206,0,,html-keyboard-response,206,726605,0.0-7.11-3.11,2tbeti51h1y,2022-09-19 15:58:52.011,58a43e029a17120001d910d5,0,68,34,17,6,39,female,,,"<p style=""font-size:50px"">You Lose!
No points this round.</p>",,,,,,,,,,,,,,,,,,,,,,,,,,,,
207,0,,html-keyboard-response,207,727111,0.0-7.11-4.11,2tbeti51h1y,2022-09-19 15:58:52.011,58a43e029a17120001d910d5,0,68,34,17,6,39,female,,,,,,1.0,choice,11.0,C,D,red,black,moons,moons,C,D,C,red,moons,935.0,1.0,0.0,NA,left,1058.5999994278,1.0,0.0,0.0,,,
208,0,,html-keyboard-response,208,727992,0.0-7.12-0.12,2tbeti51h1y,2022-09-19 15:58:52.011,58a43e029a17120001d910d5,0,68,34,17,6,39,female,878.8000001907,,"
  <table>
  <tr height=300>
    <td width=300 height=300><img src=""static/images/cards/stack_of_black_stars.svg"" width=""175px"" height=""250px""></img></td>
    <td width=300 height=300><img src=""static/images/cards/stack_of_red_stars.svg"" width=""175px"" height=""250px""></img></td>
  </tr>
  <tr height=200>
    <td width=300><img src=""static/images/keys/w.svg"" width=""35%"" height=""75%""></img></td>
    <td width=300><img src=""static/images/keys/o.svg"" width=""35%"" height=""75%""></img></td>
  </tr>
</table>
  ",79.0,1.0,,,,,,,,,,,,,,,,,,,,,,,,,,
209,0,,html-keyboard-response,209,729163,0.0-7.12-1.12,2tbeti51h1y,2022-09-19 15:58:52.011,58a43e029a17120001d910d5,0,68,34,17,6,39,female,654.1999998093,,"
  <table>
  <tr height=300>
    <td width=300 height=300><img src=""static/images/cards/back_of_red_stars.svg"" width=""175px"" height=""250px""></img></td>
    <td width=300 height=300><img src=""static/images/cards/back_of_red_stars.svg"" width=""175px"" height=""250px""></img></td>
  </tr>
  <tr height=200>
    <td width=300><img src=""static/images/keys/z.svg"" width=""35%"" height=""75%""></img></td>
    <td width=300><img src=""static/images/keys/m.svg"" width=""35%"" height=""75%""></img></td>
  </tr>
</table>
  ",77.0,1.0,,,,,,,,,,,,,,,,,,,,,,,,,,
210,0,,html-keyboard-response,210,730672,0.0-7.12-2.12,2tbeti51h1y,2022-09-19 15:58:52.011,58a43e029a17120001d910d5,0,68,34,17,6,39,female,,,"
  <table>
  <tr height=300>
    <td width=300 height=300><img src=""static/images/cards/back_of_red_stars.svg"" width=""175px"" height=""250px""></img></td>
    <td width=300 height=300><img src=""static/images/cards/10_of_red_stars.svg"" width=""175px"" height=""250px""></img></td>
  </tr>
  <tr height=200>
    <td width=300><img src=""static/images/keys/z.svg"" width=""35%"" height=""75%""></img></td>
    <td width=300><img src=""static/images/keys/m.svg"" width=""35%"" height=""75%""></img></td>
  </tr>
</table>
  ",,,,,,,,,,,,,,,,,,,,,,,,,,,,
211,0,,html-keyboard-response,211,732191,0.0-7.12-3.12,2tbeti51h1y,2022-09-19 15:58:52.011,58a43e029a17120001d910d5,0,68,34,17,6,39,female,,,"<p style=""font-size:50px"">You win!
+10 points this round!</p>",,,,,,,,,,,,,,,,,,,,,,,,,,,,
212,0,,html-keyboard-response,212,732709,0.0-7.12-4.12,2tbeti51h1y,2022-09-19 15:58:52.011,58a43e029a17120001d910d5,0,68,34,17,6,39,female,,,,,,1.0,choice,12.0,A,B,black,red,stars,stars,B,A,A,red,stars,878.8000001907,1.0,1.0,NA,right,654.1999998093,10.0,1.0,1.0,,,
213,0,,html-keyboard-response,213,733704,0.0-7.13-0.13,2tbeti51h1y,2022-09-19 15:58:52.011,58a43e029a17120001d910d5,0,68,34,17,6,39,female,992.1999998093,,"
  <table>
  <tr height=300>
    <td width=300 height=300><img src=""static/images/cards/stack_of_black_stars.svg"" width=""175px"" height=""250px""></img></td>
    <td width=300 height=300><img src=""static/images/cards/stack_of_black_moons.svg"" width=""175px"" height=""250px""></img></td>
  </tr>
  <tr height=200>
    <td width=300><img src=""static/images/keys/w.svg"" width=""35%"" height=""75%""></img></td>
    <td width=300><img src=""static/images/keys/o.svg"" width=""35%"" height=""75%""></img></td>
  </tr>
</table>
  ",87.0,1.0,,,,,,,,,,,,,,,,,,,,,,,,,,
214,0,,html-keyboard-response,214,735087,0.0-7.13-1.13,2tbeti51h1y,2022-09-19 15:58:52.011,58a43e029a17120001d910d5,0,68,34,17,6,39,female,866.1000003815,,"
  <table>
  <tr height=300>
    <td width=300 height=300><img src=""static/images/cards/back_of_black_stars.svg"" width=""175px"" height=""250px""></img></td>
    <td width=300 height=300><img src=""static/images/cards/back_of_black_stars.svg"" width=""175px"" height=""250px""></img></td>
  </tr>
  <tr height=200>
    <td width=300><img src=""static/images/keys/z.svg"" width=""35%"" height=""75%""></img></td>
    <td width=300></td>
  </tr>
</table>
  ",90.0,1.0,,,,,,,,,,,,,,,,,,,,,,,,,,
215,0,,html-keyboard-response,215,736602,0.0-7.13-2.13,2tbeti51h1y,2022-09-19 15:58:52.011,58a43e029a17120001d910d5,0,68,34,17,6,39,female,,,"
  <table>
  <tr height=300>
    <td width=300 height=300><img src=""static/images/cards/3_of_black_stars.svg"" width=""175px"" height=""250px""></img></td>
    <td width=300 height=300><img src=""static/images/cards/back_of_black_stars.svg"" width=""175px"" height=""250px""></img></td>
  </tr>
  <tr height=200>
    <td width=300><img src=""static/images/keys/z.svg"" width=""35%"" height=""75%""></img></td>
    <td width=300></td>
  </tr>
</table>
  ",,,,,,,,,,,,,,,,,,,,,,,,,,,,
216,0,,html-keyboard-response,216,738119,0.0-7.13-3.13,2tbeti51h1y,2022-09-19 15:58:52.011,58a43e029a17120001d910d5,0,68,34,17,6,39,female,,,"<p style=""font-size:50px"">You Lose!
No points this round.</p>",,,,,,,,,,,,,,,,,,,,,,,,,,,,
217,0,,html-keyboard-response,217,738625,0.0-7.13-4.13,2tbeti51h1y,2022-09-19 15:58:52.011,58a43e029a17120001d910d5,0,68,34,17,6,39,female,,,,,,1.0,choice,13.0,B,D,black,black,stars,moons,B,D,B,black,stars,992.1999998093,0.0,1.0,1,left,866.1000003815,3.0,0.0,0.0,,,
218,0,,html-keyboard-response,218,739408,0.0-7.14-0.14,2tbeti51h1y,2022-09-19 15:58:52.011,58a43e029a17120001d910d5,0,68,34,17,6,39,female,781.0,,"
  <table>
  <tr height=300>
    <td width=300 height=300><img src=""static/images/cards/stack_of_black_moons.svg"" width=""175px"" height=""250px""></img></td>
    <td width=300 height=300><img src=""static/images/cards/stack_of_black_bolts.svg"" width=""175px"" height=""250px""></img></td>
  </tr>
  <tr height=200>
    <td width=300><img src=""static/images/keys/w.svg"" width=""35%"" height=""75%""></img></td>
    <td width=300><img src=""static/images/keys/o.svg"" width=""35%"" height=""75%""></img></td>
  </tr>
</table>
  ",79.0,1.0,,,,,,,,,,,,,,,,,,,,,,,,,,
219,0,,html-keyboard-response,219,740533,0.0-7.14-1.14,2tbeti51h1y,2022-09-19 15:58:52.011,58a43e029a17120001d910d5,0,68,34,17,6,39,female,607.5,,"
  <table>
  <tr height=300>
    <td width=300 height=300><img src=""static/images/cards/back_of_black_bolts.svg"" width=""175px"" height=""250px""></img></td>
    <td width=300 height=300><img src=""static/images/cards/back_of_black_bolts.svg"" width=""175px"" height=""250px""></img></td>
  </tr>
  <tr height=200>
    <td width=300></td>
    <td width=300><img src=""static/images/keys/m.svg"" width=""35%"" height=""75%""></img></td>
  </tr>
</table>
  ",77.0,1.0,,,,,,,,,,,,,,,,,,,,,,,,,,
220,0,,html-keyboard-response,220,742036,0.0-7.14-2.14,2tbeti51h1y,2022-09-19 15:58:52.011,58a43e029a17120001d910d5,0,68,34,17,6,39,female,,,"
  <table>
  <tr height=300>
    <td width=300 height=300><img src=""static/images/cards/back_of_black_bolts.svg"" width=""175px"" height=""250px""></img></td>
    <td width=300 height=300><img src=""static/images/cards/4_of_black_bolts.svg"" width=""175px"" height=""250px""></img></td>
  </tr>
  <tr height=200>
    <td width=300></td>
    <td width=300><img src=""static/images/keys/m.svg"" width=""35%"" height=""75%""></img></td>
  </tr>
</table>
  ",,,,,,,,,,,,,,,,,,,,,,,,,,,,
221,0,,html-keyboard-response,221,743564,0.0-7.14-3.14,2tbeti51h1y,2022-09-19 15:58:52.011,58a43e029a17120001d910d5,0,68,34,17,6,39,female,,,"<p style=""font-size:50px"">You win!
+10 points this round!</p>",,,,,,,,,,,,,,,,,,,,,,,,,,,,
222,0,,html-keyboard-response,222,744074,0.0-7.14-4.14,2tbeti51h1y,2022-09-19 15:58:52.011,58a43e029a17120001d910d5,0,68,34,17,6,39,female,,,,,,1.0,choice,14.0,D,Xnc,black,black,moons,bolts,D,Xnc,Xnc,black,bolts,781.0,0.0,0.0,0,right,607.5,4.0,0.0,1.0,,,
223,0,,html-keyboard-response,223,744921,0.0-7.15-0.15,2tbeti51h1y,2022-09-19 15:58:52.011,58a43e029a17120001d910d5,0,68,34,17,6,39,female,846.1999998093,,"
  <table>
  <tr height=300>
    <td width=300 height=300><img src=""static/images/cards/stack_of_black_moons.svg"" width=""175px"" height=""250px""></img></td>
    <td width=300 height=300><img src=""static/images/cards/stack_of_red_moons.svg"" width=""175px"" height=""250px""></img></td>
  </tr>
  <tr height=200>
    <td width=300><img src=""static/images/keys/w.svg"" width=""35%"" height=""75%""></img></td>
    <td width=300><img src=""static/images/keys/o.svg"" width=""35%"" height=""75%""></img></td>
  </tr>
</table>
  ",79.0,1.0,,,,,,,,,,,,,,,,,,,,,,,,,,
224,0,,html-keyboard-response,224,746341,0.0-7.15-1.15,2tbeti51h1y,2022-09-19 15:58:52.011,58a43e029a17120001d910d5,0,68,34,17,6,39,female,906.3999996185,,"
  <table>
  <tr height=300>
    <td width=300 height=300><img src=""static/images/cards/back_of_red_moons.svg"" width=""175px"" height=""250px""></img></td>
    <td width=300 height=300><img src=""static/images/cards/back_of_red_moons.svg"" width=""175px"" height=""250px""></img></td>
  </tr>
  <tr height=200>
    <td width=300><img src=""static/images/keys/z.svg"" width=""35%"" height=""75%""></img></td>
    <td width=300><img src=""static/images/keys/m.svg"" width=""35%"" height=""75%""></img></td>
  </tr>
</table>
  ",77.0,1.0,,,,,,,,,,,,,,,,,,,,,,,,,,
225,0,,html-keyboard-response,225,747850,0.0-7.15-2.15,2tbeti51h1y,2022-09-19 15:58:52.011,58a43e029a17120001d910d5,0,68,34,17,6,39,female,,,"
  <table>
  <tr height=300>
    <td width=300 height=300><img src=""static/images/cards/back_of_red_moons.svg"" width=""175px"" height=""250px""></img></td>
    <td width=300 height=300><img src=""static/images/cards/4_of_red_moons.svg"" width=""175px"" height=""250px""></img></td>
  </tr>
  <tr height=200>
    <td width=300><img src=""static/images/keys/z.svg"" width=""35%"" height=""75%""></img></td>
    <td width=300><img src=""static/images/keys/m.svg"" width=""35%"" height=""75%""></img></td>
  </tr>
</table>
  ",,,,,,,,,,,,,,,,,,,,,,,,,,,,
226,0,,html-keyboard-response,226,749368,0.0-7.15-3.15,2tbeti51h1y,2022-09-19 15:58:52.011,58a43e029a17120001d910d5,0,68,34,17,6,39,female,,,"<p style=""font-size:50px"">You Lose!
No points this round.</p>",,,,,,,,,,,,,,,,,,,,,,,,,,,,
227,0,,html-keyboard-response,227,749874,0.0-7.15-4.15,2tbeti51h1y,2022-09-19 15:58:52.011,58a43e029a17120001d910d5,0,68,34,17,6,39,female,,,,,,1.0,choice,15.0,C,D,black,red,moons,moons,D,C,C,red,moons,846.1999998093,1.0,0.0,NA,right,906.3999996185,4.0,0.0,0.0,,,
228,0,,html-keyboard-response,228,750892,0.0-7.16-0.16,2tbeti51h1y,2022-09-19 15:58:52.011,58a43e029a17120001d910d5,0,68,34,17,6,39,female,1014.2000007629,,"
  <table>
  <tr height=300>
    <td width=300 height=300><img src=""static/images/cards/stack_of_red_stars.svg"" width=""175px"" height=""250px""></img></td>
    <td width=300 height=300><img src=""static/images/cards/stack_of_black_moons.svg"" width=""175px"" height=""250px""></img></td>
  </tr>
  <tr height=200>
    <td width=300><img src=""static/images/keys/w.svg"" width=""35%"" height=""75%""></img></td>
    <td width=300><img src=""static/images/keys/o.svg"" width=""35%"" height=""75%""></img></td>
  </tr>
</table>
  ",79.0,1.0,,,,,,,,,,,,,,,,,,,,,,,,,,
229,0,,html-keyboard-response,229,752188,0.0-7.16-1.16,2tbeti51h1y,2022-09-19 15:58:52.011,58a43e029a17120001d910d5,0,68,34,17,6,39,female,788.3000001907,,"
  <table>
  <tr height=300>
    <td width=300 height=300><img src=""static/images/cards/back_of_black_moons.svg"" width=""175px"" height=""250px""></img></td>
    <td width=300 height=300><img src=""static/images/cards/back_of_black_moons.svg"" width=""175px"" height=""250px""></img></td>
  </tr>
  <tr height=200>
    <td width=300><img src=""static/images/keys/z.svg"" width=""35%"" height=""75%""></img></td>
    <td width=300></td>
  </tr>
</table>
  ",90.0,1.0,,,,,,,,,,,,,,,,,,,,,,,,,,
230,0,,html-keyboard-response,230,753706,0.0-7.16-2.16,2tbeti51h1y,2022-09-19 15:58:52.011,58a43e029a17120001d910d5,0,68,34,17,6,39,female,,,"
  <table>
  <tr height=300>
    <td width=300 height=300><img src=""static/images/cards/8_of_black_moons.svg"" width=""175px"" height=""250px""></img></td>
    <td width=300 height=300><img src=""static/images/cards/back_of_black_moons.svg"" width=""175px"" height=""250px""></img></td>
  </tr>
  <tr height=200>
    <td width=300><img src=""static/images/keys/z.svg"" width=""35%"" height=""75%""></img></td>
    <td width=300></td>
  </tr>
</table>
  ",,,,,,,,,,,,,,,,,,,,,,,,,,,,
231,0,,html-keyboard-response,231,755228,0.0-7.16-3.16,2tbeti51h1y,2022-09-19 15:58:52.011,58a43e029a17120001d910d5,0,68,34,17,6,39,female,,,"<p style=""font-size:50px"">You win!
+10 points this round!</p>",,,,,,,,,,,,,,,,,,,,,,,,,,,,
232,0,,html-keyboard-response,232,755741,0.0-7.16-4.16,2tbeti51h1y,2022-09-19 15:58:52.011,58a43e029a17120001d910d5,0,68,34,17,6,39,female,,,,,,1.0,choice,16.0,A,D,red,black,stars,moons,A,D,D,black,moons,1014.2000007629,0.0,0.0,1,left,788.3000001907,8.0,1.0,1.0,,,
233,0,,html-keyboard-response,233,756841,0.0-7.17-0.17,2tbeti51h1y,2022-09-19 15:58:52.011,58a43e029a17120001d910d5,0,68,34,17,6,39,female,1099.5,,"
  <table>
  <tr height=300>
    <td width=300 height=300><img src=""static/images/cards/stack_of_red_moons.svg"" width=""175px"" height=""250px""></img></td>
    <td width=300 height=300><img src=""static/images/cards/stack_of_black_moons.svg"" width=""175px"" height=""250px""></img></td>
  </tr>
  <tr height=200>
    <td width=300><img src=""static/images/keys/w.svg"" width=""35%"" height=""75%""></img></td>
