,index,success,trial_type,trial_index,time_elapsed,internal_node_id,subject,date,prol_id,ctbl,sense_of_control_A,sense_of_control_B,sense_of_control_C,sense_of_control_D,age,gender,rt,url,stimulus,key_press,npress,is_data_trial,phase,trial,deck1,deck2,col1,col2,sym1,sym2,deck_l,deck_r,chosen_deck,chosen_col,chosen_sym,deck_rt,choose_choice,mutual_info,hidden_key,chosen_card,card_rt,player_num,win_card,outcome,mock_rating,response,responses
0,0,1.0,fullscreen,0,55158,0.0-0.0,bo8r6ro5c16,2022-09-19 15:58:48.751,5b3b5f13dd6af000014d2a68,1,31,0,17,0,54,male,,,,,,,,,,,,,,,,,,,,,,,,,,,,,,,
1,0,,external-html,1,59364,0.0-1.0,bo8r6ro5c16,2022-09-19 15:58:48.751,5b3b5f13dd6af000014d2a68,1,31,0,17,0,54,male,4101.6000000015,static/js/sub/consent.html,,,,,,,,,,,,,,,,,,,,,,,,,,,,,
2,0,,call-function,2,59365,0.0-2.0,bo8r6ro5c16,2022-09-19 15:58:48.751,5b3b5f13dd6af000014d2a68,1,31,0,17,0,54,male,,,,,,,,,,,,,,,,,,,,,,,,,,,,,,,
3,0,,image-keyboard-response,3,62899,0.0-3.0-0.0,bo8r6ro5c16,2022-09-19 15:58:48.751,5b3b5f13dd6af000014d2a68,1,31,0,17,0,54,male,3533.299999997,,static/images/instructions_CB_1/Slide1.png,39.0,,,,,,,,,,,,,,,,,,,,,,,,,,,
4,0,,image-keyboard-response,4,71984,0.0-3.1-0.1,bo8r6ro5c16,2022-09-19 15:58:48.751,5b3b5f13dd6af000014d2a68,1,31,0,17,0,54,male,9084.3999999985,,static/images/instructions_CB_1/Slide2.png,39.0,,,,,,,,,,,,,,,,,,,,,,,,,,,
5,0,,image-keyboard-response,5,76886,0.0-3.2-0.2,bo8r6ro5c16,2022-09-19 15:58:48.751,5b3b5f13dd6af000014d2a68,1,31,0,17,0,54,male,4901.0,,static/images/instructions_CB_1/Slide3.png,39.0,,,,,,,,,,,,,,,,,,,,,,,,,,,
6,0,,image-keyboard-response,6,82216,0.0-3.3-0.3,bo8r6ro5c16,2022-09-19 15:58:48.751,5b3b5f13dd6af000014d2a68,1,31,0,17,0,54,male,5329.299999997,,static/images/instructions_CB_1/Slide4.png,39.0,,,,,,,,,,,,,,,,,,,,,,,,,,,
7,0,,image-keyboard-response,7,90083,0.0-3.4-0.4,bo8r6ro5c16,2022-09-19 15:58:48.751,5b3b5f13dd6af000014d2a68,1,31,0,17,0,54,male,7866.400000006,,static/images/instructions_CB_1/Slide5.png,39.0,,,,,,,,,,,,,,,,,,,,,,,,,,,
8,0,,image-keyboard-response,8,94006,0.0-3.5-0.5,bo8r6ro5c16,2022-09-19 15:58:48.751,5b3b5f13dd6af000014d2a68,1,31,0,17,0,54,male,3920.8999999985,,static/images/instructions_CB_1/Slide6.png,39.0,,,,,,,,,,,,,,,,,,,,,,,,,,,
9,0,,image-keyboard-response,9,98982,0.0-3.6-0.6,bo8r6ro5c16,2022-09-19 15:58:48.751,5b3b5f13dd6af000014d2a68,1,31,0,17,0,54,male,4974.8000000045,,static/images/instructions_CB_1/Slide7.png,39.0,,,,,,,,,,,,,,,,,,,,,,,,,,,
10,0,,image-keyboard-response,10,127785,0.0-3.7-0.7,bo8r6ro5c16,2022-09-19 15:58:48.751,5b3b5f13dd6af000014d2a68,1,31,0,17,0,54,male,28802.299999997,,static/images/instructions_CB_1/Slide8.png,39.0,,,,,,,,,,,,,,,,,,,,,,,,,,,
11,0,,image-keyboard-response,11,133197,0.0-3.8-0.8,bo8r6ro5c16,2022-09-19 15:58:48.751,5b3b5f13dd6af000014d2a68,1,31,0,17,0,54,male,5410.6999999955,,static/images/instructions_CB_1/Slide9.png,39.0,,,,,,,,,,,,,,,,,,,,,,,,,,,
12,0,,image-keyboard-response,12,140772,0.0-3.9-0.9,bo8r6ro5c16,2022-09-19 15:58:48.751,5b3b5f13dd6af000014d2a68,1,31,0,17,0,54,male,7573.3999999985,,static/images/instructions_CB_1/Slide10.png,39.0,,,,,,,,,,,,,,,,,,,,,,,,,,,
13,0,,image-keyboard-response,13,144289,0.0-3.10-0.10,bo8r6ro5c16,2022-09-19 15:58:48.751,5b3b5f13dd6af000014d2a68,1,31,0,17,0,54,male,3516.599999994,,static/images/instructions_CB_1/Slide11.png,37.0,,,,,,,,,,,,,,,,,,,,,,,,,,,
14,0,,image-keyboard-response,14,145277,0.0-3.11-0.11,bo8r6ro5c16,2022-09-19 15:58:48.751,5b3b5f13dd6af000014d2a68,1,31,0,17,0,54,male,986.599999994,,static/images/instructions_CB_1/Slide10.png,37.0,,,,,,,,,,,,,,,,,,,,,,,,,,,
15,0,,image-keyboard-response,15,145982,0.0-3.12-0.12,bo8r6ro5c16,2022-09-19 15:58:48.751,5b3b5f13dd6af000014d2a68,1,31,0,17,0,54,male,703.599999994,,static/images/instructions_CB_1/Slide9.png,39.0,,,,,,,,,,,,,,,,,,,,,,,,,,,
16,0,,image-keyboard-response,16,146432,0.0-3.13-0.13,bo8r6ro5c16,2022-09-19 15:58:48.751,5b3b5f13dd6af000014d2a68,1,31,0,17,0,54,male,448.599999994,,static/images/instructions_CB_1/Slide10.png,39.0,,,,,,,,,,,,,,,,,,,,,,,,,,,
17,0,,image-keyboard-response,17,160691,0.0-3.14-0.14,bo8r6ro5c16,2022-09-19 15:58:48.751,5b3b5f13dd6af000014d2a68,1,31,0,17,0,54,male,14257.3999999985,,static/images/instructions_CB_1/Slide11.png,39.0,,,,,,,,,,,,,,,,,,,,,,,,,,,
18,0,,image-keyboard-response,18,175730,0.0-3.15-0.15,bo8r6ro5c16,2022-09-19 15:58:48.751,5b3b5f13dd6af000014d2a68,1,31,0,17,0,54,male,15039.299999997,,static/images/instructions_CB_1/Slide12.png,39.0,,,,,,,,,,,,,,,,,,,,,,,,,,,
19,0,,image-keyboard-response,19,196465,0.0-3.16-0.16,bo8r6ro5c16,2022-09-19 15:58:48.751,5b3b5f13dd6af000014d2a68,1,31,0,17,0,54,male,20734.200000003,,static/images/instructions_CB_1/Slide13.png,39.0,,,,,,,,,,,,,,,,,,,,,,,,,,,
20,0,,image-keyboard-response,20,203281,0.0-3.17-0.17,bo8r6ro5c16,2022-09-19 15:58:48.751,5b3b5f13dd6af000014d2a68,1,31,0,17,0,54,male,6814.8999999985,,static/images/instructions_CB_1/Slide14.png,39.0,,,,,,,,,,,,,,,,,,,,,,,,,,,
21,0,,image-keyboard-response,21,213938,0.0-3.18-0.18,bo8r6ro5c16,2022-09-19 15:58:48.751,5b3b5f13dd6af000014d2a68,1,31,0,17,0,54,male,10655.1000000015,,static/images/instructions_CB_1/Slide15.png,39.0,,,,,,,,,,,,,,,,,,,,,,,,,,,
22,0,,image-keyboard-response,22,226085,0.0-3.19-0.19,bo8r6ro5c16,2022-09-19 15:58:48.751,5b3b5f13dd6af000014d2a68,1,31,0,17,0,54,male,12146.799999997,,static/images/instructions_CB_1/Slide16.png,39.0,,,,,,,,,,,,,,,,,,,,,,,,,,,
23,0,,image-keyboard-response,23,230691,0.0-3.20-0.20,bo8r6ro5c16,2022-09-19 15:58:48.751,5b3b5f13dd6af000014d2a68,1,31,0,17,0,54,male,4605.0,,static/images/instructions_CB_1/Slide17.png,39.0,,,,,,,,,,,,,,,,,,,,,,,,,,,
24,0,,image-keyboard-response,24,246003,0.0-3.21-0.21,bo8r6ro5c16,2022-09-19 15:58:48.751,5b3b5f13dd6af000014d2a68,1,31,0,17,0,54,male,15311.6000000015,,static/images/instructions_CB_1/Slide18.png,39.0,,,,,,,,,,,,,,,,,,,,,,,,,,,
25,0,,image-keyboard-response,25,252218,0.0-3.22-0.22,bo8r6ro5c16,2022-09-19 15:58:48.751,5b3b5f13dd6af000014d2a68,1,31,0,17,0,54,male,6213.6000000015,,static/images/instructions_CB_1/Slide19.png,39.0,,,,,,,,,,,,,,,,,,,,,,,,,,,
26,0,,html-keyboard-response,26,253730,0.0-4.0-0.0,bo8r6ro5c16,2022-09-19 15:58:48.751,5b3b5f13dd6af000014d2a68,1,31,0,17,0,54,male,,,"<img src=""static/images/cards/stack_of_red_moons.svg"" width=""175px"" height=""250px""></img>",,,,,,,,,,,,,,,,,,,,,,,,,,,,
27,0,,html-keyboard-response,27,255479,0.0-4.0-1.0,bo8r6ro5c16,2022-09-19 15:58:48.751,5b3b5f13dd6af000014d2a68,1,31,0,17,0,54,male,1244.3000000045,,"
  <table>
  <tr height=300>
    <td width=300 height=300><img src=""static/images/cards/back_of_red_moons.svg"" width=""175px"" height=""250px""></img></td>
    <td width=300 height=300><img src=""static/images/cards/back_of_red_moons.svg"" width=""175px"" height=""250px""></img></td>
  </tr>
  <tr height=200>
    <td width=300><img src=""static/images/keys/z.svg"" width=""35%"" height=""75%""></img></td>
    <td width=300><img src=""static/images/keys/m.svg"" width=""35%"" height=""75%""></img></td>
  </tr>
</table>
  ",77.0,1.0,,,,,,,,,,,,,,,,,,,,,,,,,,
28,0,,html-keyboard-response,28,256985,0.0-4.0-2.0,bo8r6ro5c16,2022-09-19 15:58:48.751,5b3b5f13dd6af000014d2a68,1,31,0,17,0,54,male,,,"
  <table>
  <tr height=300>
    <td width=300 height=300><img src=""static/images/cards/back_of_red_moons.svg"" width=""175px"" height=""250px""></img></td>
    <td width=300 height=300><img src=""static/images/cards/7_of_red_moons.svg"" width=""175px"" height=""250px""></img></td>
  </tr>
  <tr height=200>
    <td width=300><img src=""static/images/keys/z.svg"" width=""35%"" height=""75%""></img></td>
    <td width=300><img src=""static/images/keys/m.svg"" width=""35%"" height=""75%""></img></td>
  </tr>
</table>
  ",,,,,,,,,,,,,,,,,,,,,,,,,,,,
29,0,,html-keyboard-response,29,258506,0.0-4.0-3.0,bo8r6ro5c16,2022-09-19 15:58:48.751,5b3b5f13dd6af000014d2a68,1,31,0,17,0,54,male,,,"<p style=""font-size:50px"">You win!
+10 points this round!</p>",,,,,,,,,,,,,,,,,,,,,,,,,,,,
30,0,,html-keyboard-response,30,259013,0.0-4.0-4.0,bo8r6ro5c16,2022-09-19 15:58:48.751,5b3b5f13dd6af000014d2a68,1,31,0,17,0,54,male,,,,,,1.0,learning,0.0,A,,red,,moons,,,,A,red,moons,,1.0,1.0,NA,right,1244.3000000045,7.0,1.0,1.0,,,
31,0,,html-keyboard-response,31,260526,0.0-4.1-0.1,bo8r6ro5c16,2022-09-19 15:58:48.751,5b3b5f13dd6af000014d2a68,1,31,0,17,0,54,male,,,"<img src=""static/images/cards/stack_of_black_moons.svg"" width=""175px"" height=""250px""></img>",,,,,,,,,,,,,,,,,,,,,,,,,,,,
32,0,,html-keyboard-response,32,261973,0.0-4.1-1.1,bo8r6ro5c16,2022-09-19 15:58:48.751,5b3b5f13dd6af000014d2a68,1,31,0,17,0,54,male,945.200000003,,"
  <table>
  <tr height=300>
    <td width=300 height=300><img src=""static/images/cards/back_of_black_moons.svg"" width=""175px"" height=""250px""></img></td>
    <td width=300 height=300><img src=""static/images/cards/back_of_black_moons.svg"" width=""175px"" height=""250px""></img></td>
  </tr>
  <tr height=200>
    <td width=300></td>
    <td width=300><img src=""static/images/keys/m.svg"" width=""35%"" height=""75%""></img></td>
  </tr>
</table>
  ",77.0,1.0,,,,,,,,,,,,,,,,,,,,,,,,,,
33,0,,html-keyboard-response,33,263488,0.0-4.1-2.1,bo8r6ro5c16,2022-09-19 15:58:48.751,5b3b5f13dd6af000014d2a68,1,31,0,17,0,54,male,,,"
  <table>
  <tr height=300>
    <td width=300 height=300><img src=""static/images/cards/back_of_black_moons.svg"" width=""175px"" height=""250px""></img></td>
    <td width=300 height=300><img src=""static/images/cards/10_of_black_moons.svg"" width=""175px"" height=""250px""></img></td>
  </tr>
  <tr height=200>
    <td width=300></td>
    <td width=300><img src=""static/images/keys/m.svg"" width=""35%"" height=""75%""></img></td>
  </tr>
</table>
  ",,,,,,,,,,,,,,,,,,,,,,,,,,,,
34,0,,html-keyboard-response,34,265003,0.0-4.1-3.1,bo8r6ro5c16,2022-09-19 15:58:48.751,5b3b5f13dd6af000014d2a68,1,31,0,17,0,54,male,,,"<p style=""font-size:50px"">You win!
+10 points this round!</p>",,,,,,,,,,,,,,,,,,,,,,,,,,,,
35,0,,html-keyboard-response,35,265517,0.0-4.1-4.1,bo8r6ro5c16,2022-09-19 15:58:48.751,5b3b5f13dd6af000014d2a68,1,31,0,17,0,54,male,,,,,,1.0,learning,1.0,B,,black,,moons,,,,B,black,moons,,0.0,1.0,0,right,945.200000003,10.0,1.0,1.0,,,
36,0,,html-keyboard-response,36,267028,0.0-4.2-0.2,bo8r6ro5c16,2022-09-19 15:58:48.751,5b3b5f13dd6af000014d2a68,1,31,0,17,0,54,male,,,"<img src=""static/images/cards/stack_of_red_stars.svg"" width=""175px"" height=""250px""></img>",,,,,,,,,,,,,,,,,,,,,,,,,,,,
37,0,,html-keyboard-response,37,268204,0.0-4.2-1.2,bo8r6ro5c16,2022-09-19 15:58:48.751,5b3b5f13dd6af000014d2a68,1,31,0,17,0,54,male,665.5,,"
  <table>
  <tr height=300>
    <td width=300 height=300><img src=""static/images/cards/back_of_red_stars.svg"" width=""175px"" height=""250px""></img></td>
    <td width=300 height=300><img src=""static/images/cards/back_of_red_stars.svg"" width=""175px"" height=""250px""></img></td>
  </tr>
  <tr height=200>
    <td width=300><img src=""static/images/keys/z.svg"" width=""35%"" height=""75%""></img></td>
    <td width=300><img src=""static/images/keys/m.svg"" width=""35%"" height=""75%""></img></td>
  </tr>
</table>
  ",90.0,1.0,,,,,,,,,,,,,,,,,,,,,,,,,,
38,0,,html-keyboard-response,38,269716,0.0-4.2-2.2,bo8r6ro5c16,2022-09-19 15:58:48.751,5b3b5f13dd6af000014d2a68,1,31,0,17,0,54,male,,,"
  <table>
  <tr height=300>
    <td width=300 height=300><img src=""static/images/cards/6_of_red_stars.svg"" width=""175px"" height=""250px""></img></td>
    <td width=300 height=300><img src=""static/images/cards/back_of_red_stars.svg"" width=""175px"" height=""250px""></img></td>
  </tr>
  <tr height=200>
    <td width=300><img src=""static/images/keys/z.svg"" width=""35%"" height=""75%""></img></td>
    <td width=300><img src=""static/images/keys/m.svg"" width=""35%"" height=""75%""></img></td>
  </tr>
</table>
  ",,,,,,,,,,,,,,,,,,,,,,,,,,,,
39,0,,html-keyboard-response,39,271219,0.0-4.2-3.2,bo8r6ro5c16,2022-09-19 15:58:48.751,5b3b5f13dd6af000014d2a68,1,31,0,17,0,54,male,,,"<p style=""font-size:50px"">You win!
+10 points this round!</p>",,,,,,,,,,,,,,,,,,,,,,,,,,,,
40,0,,html-keyboard-response,40,271740,0.0-4.2-4.2,bo8r6ro5c16,2022-09-19 15:58:48.751,5b3b5f13dd6af000014d2a68,1,31,0,17,0,54,male,,,,,,1.0,learning,2.0,C,,red,,stars,,,,C,red,stars,,1.0,0.0,NA,left,665.5,6.0,1.0,1.0,,,
41,0,,html-keyboard-response,41,273252,0.0-4.3-0.3,bo8r6ro5c16,2022-09-19 15:58:48.751,5b3b5f13dd6af000014d2a68,1,31,0,17,0,54,male,,,"<img src=""static/images/cards/stack_of_black_stars.svg"" width=""175px"" height=""250px""></img>",,,,,,,,,,,,,,,,,,,,,,,,,,,,
42,0,,html-keyboard-response,42,274559,0.0-4.3-1.3,bo8r6ro5c16,2022-09-19 15:58:48.751,5b3b5f13dd6af000014d2a68,1,31,0,17,0,54,male,802.6999999955,,"
  <table>
  <tr height=300>
    <td width=300 height=300><img src=""static/images/cards/back_of_black_stars.svg"" width=""175px"" height=""250px""></img></td>
    <td width=300 height=300><img src=""static/images/cards/back_of_black_stars.svg"" width=""175px"" height=""250px""></img></td>
  </tr>
  <tr height=200>
    <td width=300><img src=""static/images/keys/z.svg"" width=""35%"" height=""75%""></img></td>
    <td width=300></td>
  </tr>
</table>
  ",90.0,1.0,,,,,,,,,,,,,,,,,,,,,,,,,,
43,0,,html-keyboard-response,43,276071,0.0-4.3-2.3,bo8r6ro5c16,2022-09-19 15:58:48.751,5b3b5f13dd6af000014d2a68,1,31,0,17,0,54,male,,,"
  <table>
  <tr height=300>
    <td width=300 height=300><img src=""static/images/cards/1_of_black_stars.svg"" width=""175px"" height=""250px""></img></td>
    <td width=300 height=300><img src=""static/images/cards/back_of_black_stars.svg"" width=""175px"" height=""250px""></img></td>
  </tr>
  <tr height=200>
    <td width=300><img src=""static/images/keys/z.svg"" width=""35%"" height=""75%""></img></td>
    <td width=300></td>
  </tr>
</table>
  ",,,,,,,,,,,,,,,,,,,,,,,,,,,,
44,0,,html-keyboard-response,44,277592,0.0-4.3-3.3,bo8r6ro5c16,2022-09-19 15:58:48.751,5b3b5f13dd6af000014d2a68,1,31,0,17,0,54,male,,,"<p style=""font-size:50px"">You win!
+10 points this round!</p>",,,,,,,,,,,,,,,,,,,,,,,,,,,,
45,0,,html-keyboard-response,45,278109,0.0-4.3-4.3,bo8r6ro5c16,2022-09-19 15:58:48.751,5b3b5f13dd6af000014d2a68,1,31,0,17,0,54,male,,,,,,1.0,learning,3.0,D,,black,,stars,,,,D,black,stars,,0.0,0.0,1,left,802.6999999955,1.0,0.0,1.0,,,
46,0,,html-keyboard-response,46,279623,0.0-4.4-0.4,bo8r6ro5c16,2022-09-19 15:58:48.751,5b3b5f13dd6af000014d2a68,1,31,0,17,0,54,male,,,"<img src=""static/images/cards/stack_of_red_bolts.svg"" width=""175px"" height=""250px""></img>",,,,,,,,,,,,,,,,,,,,,,,,,,,,
47,0,,html-keyboard-response,47,280813,0.0-4.4-1.4,bo8r6ro5c16,2022-09-19 15:58:48.751,5b3b5f13dd6af000014d2a68,1,31,0,17,0,54,male,683.200000003,,"
  <table>
  <tr height=300>
    <td width=300 height=300><img src=""static/images/cards/back_of_red_bolts.svg"" width=""175px"" height=""250px""></img></td>
    <td width=300 height=300><img src=""static/images/cards/back_of_red_bolts.svg"" width=""175px"" height=""250px""></img></td>
  </tr>
  <tr height=200>
    <td width=300><img src=""static/images/keys/z.svg"" width=""35%"" height=""75%""></img></td>
    <td width=300><img src=""static/images/keys/m.svg"" width=""35%"" height=""75%""></img></td>
  </tr>
</table>
  ",77.0,1.0,,,,,,,,,,,,,,,,,,,,,,,,,,
48,0,,html-keyboard-response,48,282318,0.0-4.4-2.4,bo8r6ro5c16,2022-09-19 15:58:48.751,5b3b5f13dd6af000014d2a68,1,31,0,17,0,54,male,,,"
  <table>
  <tr height=300>
    <td width=300 height=300><img src=""static/images/cards/back_of_red_bolts.svg"" width=""175px"" height=""250px""></img></td>
    <td width=300 height=300><img src=""static/images/cards/6_of_red_bolts.svg"" width=""175px"" height=""250px""></img></td>
  </tr>
  <tr height=200>
    <td width=300><img src=""static/images/keys/z.svg"" width=""35%"" height=""75%""></img></td>
    <td width=300><img src=""static/images/keys/m.svg"" width=""35%"" height=""75%""></img></td>
  </tr>
</table>
  ",,,,,,,,,,,,,,,,,,,,,,,,,,,,
49,0,,html-keyboard-response,49,283835,0.0-4.4-3.4,bo8r6ro5c16,2022-09-19 15:58:48.751,5b3b5f13dd6af000014d2a68,1,31,0,17,0,54,male,,,"<p style=""font-size:50px"">You win!
+10 points this round!</p>",,,,,,,,,,,,,,,,,,,,,,,,,,,,
50,0,,html-keyboard-response,50,284356,0.0-4.4-4.4,bo8r6ro5c16,2022-09-19 15:58:48.751,5b3b5f13dd6af000014d2a68,1,31,0,17,0,54,male,,,,,,1.0,learning,4.0,Xc,,red,,bolts,,,,Xc,red,bolts,,1.0,0.0,NA,right,683.200000003,6.0,1.0,1.0,,,
51,0,,html-keyboard-response,51,285868,0.0-4.5-0.5,bo8r6ro5c16,2022-09-19 15:58:48.751,5b3b5f13dd6af000014d2a68,1,31,0,17,0,54,male,,,"<img src=""static/images/cards/stack_of_black_bolts.svg"" width=""175px"" height=""250px""></img>",,,,,,,,,,,,,,,,,,,,,,,,,,,,
52,0,,html-keyboard-response,52,287148,0.0-4.5-1.5,bo8r6ro5c16,2022-09-19 15:58:48.751,5b3b5f13dd6af000014d2a68,1,31,0,17,0,54,male,765.6999999955,,"
  <table>
  <tr height=300>
    <td width=300 height=300><img src=""static/images/cards/back_of_black_bolts.svg"" width=""175px"" height=""250px""></img></td>
    <td width=300 height=300><img src=""static/images/cards/back_of_black_bolts.svg"" width=""175px"" height=""250px""></img></td>
  </tr>
  <tr height=200>
    <td width=300></td>
    <td width=300><img src=""static/images/keys/m.svg"" width=""35%"" height=""75%""></img></td>
  </tr>
</table>
  ",77.0,1.0,,,,,,,,,,,,,,,,,,,,,,,,,,
53,0,,html-keyboard-response,53,288656,0.0-4.5-2.5,bo8r6ro5c16,2022-09-19 15:58:48.751,5b3b5f13dd6af000014d2a68,1,31,0,17,0,54,male,,,"
  <table>
  <tr height=300>
    <td width=300 height=300><img src=""static/images/cards/back_of_black_bolts.svg"" width=""175px"" height=""250px""></img></td>
    <td width=300 height=300><img src=""static/images/cards/10_of_black_bolts.svg"" width=""175px"" height=""250px""></img></td>
  </tr>
  <tr height=200>
    <td width=300></td>
    <td width=300><img src=""static/images/keys/m.svg"" width=""35%"" height=""75%""></img></td>
  </tr>
</table>
  ",,,,,,,,,,,,,,,,,,,,,,,,,,,,
54,0,,html-keyboard-response,54,290175,0.0-4.5-3.5,bo8r6ro5c16,2022-09-19 15:58:48.751,5b3b5f13dd6af000014d2a68,1,31,0,17,0,54,male,,,"<p style=""font-size:50px"">You win!
+10 points this round!</p>",,,,,,,,,,,,,,,,,,,,,,,,,,,,
55,0,,html-keyboard-response,55,290681,0.0-4.5-4.5,bo8r6ro5c16,2022-09-19 15:58:48.751,5b3b5f13dd6af000014d2a68,1,31,0,17,0,54,male,,,,,,1.0,learning,5.0,Xnc,,black,,bolts,,,,Xnc,black,bolts,,0.0,0.0,0,right,765.6999999955,10.0,1.0,1.0,,,
56,0,,html-keyboard-response,56,292194,0.0-4.6-0.6,bo8r6ro5c16,2022-09-19 15:58:48.751,5b3b5f13dd6af000014d2a68,1,31,0,17,0,54,male,,,"<img src=""static/images/cards/stack_of_red_moons.svg"" width=""175px"" height=""250px""></img>",,,,,,,,,,,,,,,,,,,,,,,,,,,,
57,0,,html-keyboard-response,57,293645,0.0-4.6-1.6,bo8r6ro5c16,2022-09-19 15:58:48.751,5b3b5f13dd6af000014d2a68,1,31,0,17,0,54,male,953.6000000015,,"
  <table>
  <tr height=300>
    <td width=300 height=300><img src=""static/images/cards/back_of_red_moons.svg"" width=""175px"" height=""250px""></img></td>
    <td width=300 height=300><img src=""static/images/cards/back_of_red_moons.svg"" width=""175px"" height=""250px""></img></td>
  </tr>
  <tr height=200>
    <td width=300><img src=""static/images/keys/z.svg"" width=""35%"" height=""75%""></img></td>
    <td width=300><img src=""static/images/keys/m.svg"" width=""35%"" height=""75%""></img></td>
  </tr>
</table>
  ",90.0,1.0,,,,,,,,,,,,,,,,,,,,,,,,,,
58,0,,html-keyboard-response,58,295149,0.0-4.6-2.6,bo8r6ro5c16,2022-09-19 15:58:48.751,5b3b5f13dd6af000014d2a68,1,31,0,17,0,54,male,,,"
  <table>
  <tr height=300>
    <td width=300 height=300><img src=""static/images/cards/3_of_red_moons.svg"" width=""175px"" height=""250px""></img></td>
    <td width=300 height=300><img src=""static/images/cards/back_of_red_moons.svg"" width=""175px"" height=""250px""></img></td>
  </tr>
  <tr height=200>
    <td width=300><img src=""static/images/keys/z.svg"" width=""35%"" height=""75%""></img></td>
    <td width=300><img src=""static/images/keys/m.svg"" width=""35%"" height=""75%""></img></td>
  </tr>
</table>
  ",,,,,,,,,,,,,,,,,,,,,,,,,,,,
59,0,,html-keyboard-response,59,296681,0.0-4.6-3.6,bo8r6ro5c16,2022-09-19 15:58:48.751,5b3b5f13dd6af000014d2a68,1,31,0,17,0,54,male,,,"<p style=""font-size:50px"">You Lose!
No points this round.</p>",,,,,,,,,,,,,,,,,,,,,,,,,,,,
60,0,,html-keyboard-response,60,297188,0.0-4.6-4.6,bo8r6ro5c16,2022-09-19 15:58:48.751,5b3b5f13dd6af000014d2a68,1,31,0,17,0,54,male,,,,,,1.0,learning,6.0,A,,red,,moons,,,,A,red,moons,,1.0,1.0,NA,left,953.6000000015,3.0,0.0,0.0,,,
61,0,,html-keyboard-response,61,298701,0.0-4.7-0.7,bo8r6ro5c16,2022-09-19 15:58:48.751,5b3b5f13dd6af000014d2a68,1,31,0,17,0,54,male,,,"<img src=""static/images/cards/stack_of_black_moons.svg"" width=""175px"" height=""250px""></img>",,,,,,,,,,,,,,,,,,,,,,,,,,,,
62,0,,html-keyboard-response,62,299796,0.0-4.7-1.7,bo8r6ro5c16,2022-09-19 15:58:48.751,5b3b5f13dd6af000014d2a68,1,31,0,17,0,54,male,593.6999999955,,"
  <table>
  <tr height=300>
    <td width=300 height=300><img src=""static/images/cards/back_of_black_moons.svg"" width=""175px"" height=""250px""></img></td>
    <td width=300 height=300><img src=""static/images/cards/back_of_black_moons.svg"" width=""175px"" height=""250px""></img></td>
  </tr>
  <tr height=200>
    <td width=300><img src=""static/images/keys/z.svg"" width=""35%"" height=""75%""></img></td>
    <td width=300></td>
  </tr>
</table>
  ",90.0,1.0,,,,,,,,,,,,,,,,,,,,,,,,,,
63,0,,html-keyboard-response,63,301302,0.0-4.7-2.7,bo8r6ro5c16,2022-09-19 15:58:48.751,5b3b5f13dd6af000014d2a68,1,31,0,17,0,54,male,,,"
  <table>
  <tr height=300>
    <td width=300 height=300><img src=""static/images/cards/10_of_black_moons.svg"" width=""175px"" height=""250px""></img></td>
    <td width=300 height=300><img src=""static/images/cards/back_of_black_moons.svg"" width=""175px"" height=""250px""></img></td>
  </tr>
  <tr height=200>
    <td width=300><img src=""static/images/keys/z.svg"" width=""35%"" height=""75%""></img></td>
    <td width=300></td>
  </tr>
</table>
  ",,,,,,,,,,,,,,,,,,,,,,,,,,,,
64,0,,html-keyboard-response,64,302818,0.0-4.7-3.7,bo8r6ro5c16,2022-09-19 15:58:48.751,5b3b5f13dd6af000014d2a68,1,31,0,17,0,54,male,,,"<p style=""font-size:50px"">You win!
+10 points this round!</p>",,,,,,,,,,,,,,,,,,,,,,,,,,,,
65,0,,html-keyboard-response,65,303329,0.0-4.7-4.7,bo8r6ro5c16,2022-09-19 15:58:48.751,5b3b5f13dd6af000014d2a68,1,31,0,17,0,54,male,,,,,,1.0,learning,7.0,B,,black,,moons,,,,B,black,moons,,0.0,1.0,1,left,593.6999999955,10.0,1.0,1.0,,,
66,0,,html-keyboard-response,66,304839,0.0-4.8-0.8,bo8r6ro5c16,2022-09-19 15:58:48.751,5b3b5f13dd6af000014d2a68,1,31,0,17,0,54,male,,,"<img src=""static/images/cards/stack_of_red_stars.svg"" width=""175px"" height=""250px""></img>",,,,,,,,,,,,,,,,,,,,,,,,,,,,
67,0,,html-keyboard-response,67,306467,0.0-4.8-1.8,bo8r6ro5c16,2022-09-19 15:58:48.751,5b3b5f13dd6af000014d2a68,1,31,0,17,0,54,male,1122.1999999955,,"
  <table>
  <tr height=300>
    <td width=300 height=300><img src=""static/images/cards/back_of_red_stars.svg"" width=""175px"" height=""250px""></img></td>
    <td width=300 height=300><img src=""static/images/cards/back_of_red_stars.svg"" width=""175px"" height=""250px""></img></td>
  </tr>
  <tr height=200>
    <td width=300><img src=""static/images/keys/z.svg"" width=""35%"" height=""75%""></img></td>
    <td width=300><img src=""static/images/keys/m.svg"" width=""35%"" height=""75%""></img></td>
  </tr>
</table>
  ",77.0,1.0,,,,,,,,,,,,,,,,,,,,,,,,,,
68,0,,html-keyboard-response,68,307971,0.0-4.8-2.8,bo8r6ro5c16,2022-09-19 15:58:48.751,5b3b5f13dd6af000014d2a68,1,31,0,17,0,54,male,,,"
  <table>
  <tr height=300>
    <td width=300 height=300><img src=""static/images/cards/back_of_red_stars.svg"" width=""175px"" height=""250px""></img></td>
    <td width=300 height=300><img src=""static/images/cards/2_of_red_stars.svg"" width=""175px"" height=""250px""></img></td>
  </tr>
  <tr height=200>
    <td width=300><img src=""static/images/keys/z.svg"" width=""35%"" height=""75%""></img></td>
    <td width=300><img src=""static/images/keys/m.svg"" width=""35%"" height=""75%""></img></td>
  </tr>
</table>
  ",,,,,,,,,,,,,,,,,,,,,,,,,,,,
69,0,,html-keyboard-response,69,309488,0.0-4.8-3.8,bo8r6ro5c16,2022-09-19 15:58:48.751,5b3b5f13dd6af000014d2a68,1,31,0,17,0,54,male,,,"<p style=""font-size:50px"">You win!
+10 points this round!</p>",,,,,,,,,,,,,,,,,,,,,,,,,,,,
70,0,,html-keyboard-response,70,310002,0.0-4.8-4.8,bo8r6ro5c16,2022-09-19 15:58:48.751,5b3b5f13dd6af000014d2a68,1,31,0,17,0,54,male,,,,,,1.0,learning,8.0,C,,red,,stars,,,,C,red,stars,,1.0,0.0,NA,right,1122.1999999955,2.0,0.0,1.0,,,
71,0,,html-keyboard-response,71,311509,0.0-4.9-0.9,bo8r6ro5c16,2022-09-19 15:58:48.751,5b3b5f13dd6af000014d2a68,1,31,0,17,0,54,male,,,"<img src=""static/images/cards/stack_of_black_stars.svg"" width=""175px"" height=""250px""></img>",,,,,,,,,,,,,,,,,,,,,,,,,,,,
72,0,,html-keyboard-response,72,312756,0.0-4.9-1.9,bo8r6ro5c16,2022-09-19 15:58:48.751,5b3b5f13dd6af000014d2a68,1,31,0,17,0,54,male,738.299999997,,"
  <table>
  <tr height=300>
    <td width=300 height=300><img src=""static/images/cards/back_of_black_stars.svg"" width=""175px"" height=""250px""></img></td>
    <td width=300 height=300><img src=""static/images/cards/back_of_black_stars.svg"" width=""175px"" height=""250px""></img></td>
  </tr>
  <tr height=200>
    <td width=300><img src=""static/images/keys/z.svg"" width=""35%"" height=""75%""></img></td>
    <td width=300></td>
  </tr>
</table>
  ",90.0,1.0,,,,,,,,,,,,,,,,,,,,,,,,,,
73,0,,html-keyboard-response,73,314263,0.0-4.9-2.9,bo8r6ro5c16,2022-09-19 15:58:48.751,5b3b5f13dd6af000014d2a68,1,31,0,17,0,54,male,,,"
  <table>
  <tr height=300>
    <td width=300 height=300><img src=""static/images/cards/7_of_black_stars.svg"" width=""175px"" height=""250px""></img></td>
    <td width=300 height=300><img src=""static/images/cards/back_of_black_stars.svg"" width=""175px"" height=""250px""></img></td>
  </tr>
  <tr height=200>
    <td width=300><img src=""static/images/keys/z.svg"" width=""35%"" height=""75%""></img></td>
    <td width=300></td>
  </tr>
</table>
  ",,,,,,,,,,,,,,,,,,,,,,,,,,,,
74,0,,html-keyboard-response,74,315780,0.0-4.9-3.9,bo8r6ro5c16,2022-09-19 15:58:48.751,5b3b5f13dd6af000014d2a68,1,31,0,17,0,54,male,,,"<p style=""font-size:50px"">You Lose!
No points this round.</p>",,,,,,,,,,,,,,,,,,,,,,,,,,,,
75,0,,html-keyboard-response,75,316288,0.0-4.9-4.9,bo8r6ro5c16,2022-09-19 15:58:48.751,5b3b5f13dd6af000014d2a68,1,31,0,17,0,54,male,,,,,,1.0,learning,9.0,D,,black,,stars,,,,D,black,stars,,0.0,0.0,1,left,738.299999997,7.0,1.0,0.0,,,
76,0,,html-keyboard-response,76,317800,0.0-4.10-0.10,bo8r6ro5c16,2022-09-19 15:58:48.751,5b3b5f13dd6af000014d2a68,1,31,0,17,0,54,male,,,"<img src=""static/images/cards/stack_of_red_bolts.svg"" width=""175px"" height=""250px""></img>",,,,,,,,,,,,,,,,,,,,,,,,,,,,
77,0,,html-keyboard-response,77,319694,0.0-4.10-1.10,bo8r6ro5c16,2022-09-19 15:58:48.751,5b3b5f13dd6af000014d2a68,1,31,0,17,0,54,male,1389.6999999955,,"
  <table>
  <tr height=300>
    <td width=300 height=300><img src=""static/images/cards/back_of_red_bolts.svg"" width=""175px"" height=""250px""></img></td>
    <td width=300 height=300><img src=""static/images/cards/back_of_red_bolts.svg"" width=""175px"" height=""250px""></img></td>
  </tr>
  <tr height=200>
    <td width=300><img src=""static/images/keys/z.svg"" width=""35%"" height=""75%""></img></td>
    <td width=300><img src=""static/images/keys/m.svg"" width=""35%"" height=""75%""></img></td>
  </tr>
</table>
  ",77.0,1.0,,,,,,,,,,,,,,,,,,,,,,,,,,
78,0,,html-keyboard-response,78,321200,0.0-4.10-2.10,bo8r6ro5c16,2022-09-19 15:58:48.751,5b3b5f13dd6af000014d2a68,1,31,0,17,0,54,male,,,"
  <table>
  <tr height=300>
    <td width=300 height=300><img src=""static/images/cards/back_of_red_bolts.svg"" width=""175px"" height=""250px""></img></td>
    <td width=300 height=300><img src=""static/images/cards/8_of_red_bolts.svg"" width=""175px"" height=""250px""></img></td>
  </tr>
  <tr height=200>
    <td width=300><img src=""static/images/keys/z.svg"" width=""35%"" height=""75%""></img></td>
    <td width=300><img src=""static/images/keys/m.svg"" width=""35%"" height=""75%""></img></td>
  </tr>
</table>
  ",,,,,,,,,,,,,,,,,,,,,,,,,,,,
79,0,,html-keyboard-response,79,322716,0.0-4.10-3.10,bo8r6ro5c16,2022-09-19 15:58:48.751,5b3b5f13dd6af000014d2a68,1,31,0,17,0,54,male,,,"<p style=""font-size:50px"">You win!
+10 points this round!</p>",,,,,,,,,,,,,,,,,,,,,,,,,,,,
80,0,,html-keyboard-response,80,323223,0.0-4.10-4.10,bo8r6ro5c16,2022-09-19 15:58:48.751,5b3b5f13dd6af000014d2a68,1,31,0,17,0,54,male,,,,,,1.0,learning,10.0,Xc,,red,,bolts,,,,Xc,red,bolts,,1.0,0.0,NA,right,1389.6999999955,8.0,1.0,1.0,,,
81,0,,html-keyboard-response,81,324736,0.0-4.11-0.11,bo8r6ro5c16,2022-09-19 15:58:48.751,5b3b5f13dd6af000014d2a68,1,31,0,17,0,54,male,,,"<img src=""static/images/cards/stack_of_black_bolts.svg"" width=""175px"" height=""250px""></img>",,,,,,,,,,,,,,,,,,,,,,,,,,,,
82,0,,html-keyboard-response,82,325725,0.0-4.11-1.11,bo8r6ro5c16,2022-09-19 15:58:48.751,5b3b5f13dd6af000014d2a68,1,31,0,17,0,54,male,487.1000000015,,"
  <table>
  <tr height=300>
    <td width=300 height=300><img src=""static/images/cards/back_of_black_bolts.svg"" width=""175px"" height=""250px""></img></td>
    <td width=300 height=300><img src=""static/images/cards/back_of_black_bolts.svg"" width=""175px"" height=""250px""></img></td>
  </tr>
  <tr height=200>
    <td width=300><img src=""static/images/keys/z.svg"" width=""35%"" height=""75%""></img></td>
    <td width=300></td>
  </tr>
</table>
  ",90.0,1.0,,,,,,,,,,,,,,,,,,,,,,,,,,
83,0,,html-keyboard-response,83,327241,0.0-4.11-2.11,bo8r6ro5c16,2022-09-19 15:58:48.751,5b3b5f13dd6af000014d2a68,1,31,0,17,0,54,male,,,"
  <table>
  <tr height=300>
    <td width=300 height=300><img src=""static/images/cards/4_of_black_bolts.svg"" width=""175px"" height=""250px""></img></td>
    <td width=300 height=300><img src=""static/images/cards/back_of_black_bolts.svg"" width=""175px"" height=""250px""></img></td>
  </tr>
  <tr height=200>
    <td width=300><img src=""static/images/keys/z.svg"" width=""35%"" height=""75%""></img></td>
    <td width=300></td>
  </tr>
</table>
  ",,,,,,,,,,,,,,,,,,,,,,,,,,,,
84,0,,html-keyboard-response,84,328767,0.0-4.11-3.11,bo8r6ro5c16,2022-09-19 15:58:48.751,5b3b5f13dd6af000014d2a68,1,31,0,17,0,54,male,,,"<p style=""font-size:50px"">You win!
+10 points this round!</p>",,,,,,,,,,,,,,,,,,,,,,,,,,,,
85,0,,html-keyboard-response,85,329279,0.0-4.11-4.11,bo8r6ro5c16,2022-09-19 15:58:48.751,5b3b5f13dd6af000014d2a68,1,31,0,17,0,54,male,,,,,,1.0,learning,11.0,Xnc,,black,,bolts,,,,Xnc,black,bolts,,0.0,0.0,1,left,487.1000000015,4.0,0.0,1.0,,,
86,0,,html-keyboard-response,86,330793,0.0-4.12-0.12,bo8r6ro5c16,2022-09-19 15:58:48.751,5b3b5f13dd6af000014d2a68,1,31,0,17,0,54,male,,,"<img src=""static/images/cards/stack_of_red_moons.svg"" width=""175px"" height=""250px""></img>",,,,,,,,,,,,,,,,,,,,,,,,,,,,
87,0,,html-keyboard-response,87,332594,0.0-4.12-1.12,bo8r6ro5c16,2022-09-19 15:58:48.751,5b3b5f13dd6af000014d2a68,1,31,0,17,0,54,male,1297.3999999985,,"
  <table>
  <tr height=300>
    <td width=300 height=300><img src=""static/images/cards/back_of_red_moons.svg"" width=""175px"" height=""250px""></img></td>
    <td width=300 height=300><img src=""static/images/cards/back_of_red_moons.svg"" width=""175px"" height=""250px""></img></td>
  </tr>
  <tr height=200>
    <td width=300><img src=""static/images/keys/z.svg"" width=""35%"" height=""75%""></img></td>
    <td width=300><img src=""static/images/keys/m.svg"" width=""35%"" height=""75%""></img></td>
  </tr>
</table>
  ",77.0,1.0,,,,,,,,,,,,,,,,,,,,,,,,,,
88,0,,html-keyboard-response,88,334110,0.0-4.12-2.12,bo8r6ro5c16,2022-09-19 15:58:48.751,5b3b5f13dd6af000014d2a68,1,31,0,17,0,54,male,,,"
  <table>
  <tr height=300>
    <td width=300 height=300><img src=""static/images/cards/back_of_red_moons.svg"" width=""175px"" height=""250px""></img></td>
    <td width=300 height=300><img src=""static/images/cards/3_of_red_moons.svg"" width=""175px"" height=""250px""></img></td>
  </tr>
  <tr height=200>
    <td width=300><img src=""static/images/keys/z.svg"" width=""35%"" height=""75%""></img></td>
    <td width=300><img src=""static/images/keys/m.svg"" width=""35%"" height=""75%""></img></td>
  </tr>
</table>
  ",,,,,,,,,,,,,,,,,,,,,,,,,,,,
89,0,,html-keyboard-response,89,335628,0.0-4.12-3.12,bo8r6ro5c16,2022-09-19 15:58:48.751,5b3b5f13dd6af000014d2a68,1,31,0,17,0,54,male,,,"<p style=""font-size:50px"">You Lose!
No points this round.</p>",,,,,,,,,,,,,,,,,,,,,,,,,,,,
90,0,,html-keyboard-response,90,336145,0.0-4.12-4.12,bo8r6ro5c16,2022-09-19 15:58:48.751,5b3b5f13dd6af000014d2a68,1,31,0,17,0,54,male,,,,,,1.0,learning,12.0,A,,red,,moons,,,,A,red,moons,,1.0,1.0,NA,right,1297.3999999985,3.0,0.0,0.0,,,
91,0,,html-keyboard-response,91,337647,0.0-4.13-0.13,bo8r6ro5c16,2022-09-19 15:58:48.751,5b3b5f13dd6af000014d2a68,1,31,0,17,0,54,male,,,"<img src=""static/images/cards/stack_of_black_moons.svg"" width=""175px"" height=""250px""></img>",,,,,,,,,,,,,,,,,,,,,,,,,,,,
92,0,,html-keyboard-response,92,338732,0.0-4.13-1.13,bo8r6ro5c16,2022-09-19 15:58:48.751,5b3b5f13dd6af000014d2a68,1,31,0,17,0,54,male,571.799999997,,"
  <table>
  <tr height=300>
    <td width=300 height=300><img src=""static/images/cards/back_of_black_moons.svg"" width=""175px"" height=""250px""></img></td>
    <td width=300 height=300><img src=""static/images/cards/back_of_black_moons.svg"" width=""175px"" height=""250px""></img></td>
  </tr>
  <tr height=200>
    <td width=300></td>
    <td width=300><img src=""static/images/keys/m.svg"" width=""35%"" height=""75%""></img></td>
  </tr>
</table>
  ",77.0,1.0,,,,,,,,,,,,,,,,,,,,,,,,,,
93,0,,html-keyboard-response,93,340242,0.0-4.13-2.13,bo8r6ro5c16,2022-09-19 15:58:48.751,5b3b5f13dd6af000014d2a68,1,31,0,17,0,54,male,,,"
  <table>
  <tr height=300>
    <td width=300 height=300><img src=""static/images/cards/back_of_black_moons.svg"" width=""175px"" height=""250px""></img></td>
    <td width=300 height=300><img src=""static/images/cards/4_of_black_moons.svg"" width=""175px"" height=""250px""></img></td>
  </tr>
  <tr height=200>
    <td width=300></td>
    <td width=300><img src=""static/images/keys/m.svg"" width=""35%"" height=""75%""></img></td>
  </tr>
</table>
  ",,,,,,,,,,,,,,,,,,,,,,,,,,,,
94,0,,html-keyboard-response,94,341767,0.0-4.13-3.13,bo8r6ro5c16,2022-09-19 15:58:48.751,5b3b5f13dd6af000014d2a68,1,31,0,17,0,54,male,,,"<p style=""font-size:50px"">You Lose!
No points this round.</p>",,,,,,,,,,,,,,,,,,,,,,,,,,,,
95,0,,html-keyboard-response,95,342283,0.0-4.13-4.13,bo8r6ro5c16,2022-09-19 15:58:48.751,5b3b5f13dd6af000014d2a68,1,31,0,17,0,54,male,,,,,,1.0,learning,13.0,B,,black,,moons,,,,B,black,moons,,0.0,1.0,0,right,571.799999997,4.0,0.0,0.0,,,
96,0,,html-keyboard-response,96,343798,0.0-4.14-0.14,bo8r6ro5c16,2022-09-19 15:58:48.751,5b3b5f13dd6af000014d2a68,1,31,0,17,0,54,male,,,"<img src=""static/images/cards/stack_of_red_stars.svg"" width=""175px"" height=""250px""></img>",,,,,,,,,,,,,,,,,,,,,,,,,,,,
97,0,,html-keyboard-response,97,345179,0.0-4.14-1.14,bo8r6ro5c16,2022-09-19 15:58:48.751,5b3b5f13dd6af000014d2a68,1,31,0,17,0,54,male,864.200000003,,"
  <table>
  <tr height=300>
    <td width=300 height=300><img src=""static/images/cards/back_of_red_stars.svg"" width=""175px"" height=""250px""></img></td>
    <td width=300 height=300><img src=""static/images/cards/back_of_red_stars.svg"" width=""175px"" height=""250px""></img></td>
  </tr>
  <tr height=200>
    <td width=300><img src=""static/images/keys/z.svg"" width=""35%"" height=""75%""></img></td>
    <td width=300><img src=""static/images/keys/m.svg"" width=""35%"" height=""75%""></img></td>
  </tr>
</table>
  ",90.0,1.0,,,,,,,,,,,,,,,,,,,,,,,,,,
98,0,,html-keyboard-response,98,346683,0.0-4.14-2.14,bo8r6ro5c16,2022-09-19 15:58:48.751,5b3b5f13dd6af000014d2a68,1,31,0,17,0,54,male,,,"
  <table>
  <tr height=300>
    <td width=300 height=300><img src=""static/images/cards/1_of_red_stars.svg"" width=""175px"" height=""250px""></img></td>
    <td width=300 height=300><img src=""static/images/cards/back_of_red_stars.svg"" width=""175px"" height=""250px""></img></td>
  </tr>
  <tr height=200>
    <td width=300><img src=""static/images/keys/z.svg"" width=""35%"" height=""75%""></img></td>
    <td width=300><img src=""static/images/keys/m.svg"" width=""35%"" height=""75%""></img></td>
  </tr>
</table>
  ",,,,,,,,,,,,,,,,,,,,,,,,,,,,
99,0,,html-keyboard-response,99,348201,0.0-4.14-3.14,bo8r6ro5c16,2022-09-19 15:58:48.751,5b3b5f13dd6af000014d2a68,1,31,0,17,0,54,male,,,"<p style=""font-size:50px"">You Lose!
No points this round.</p>",,,,,,,,,,,,,,,,,,,,,,,,,,,,
100,0,,html-keyboard-response,100,348707,0.0-4.14-4.14,bo8r6ro5c16,2022-09-19 15:58:48.751,5b3b5f13dd6af000014d2a68,1,31,0,17,0,54,male,,,,,,1.0,learning,14.0,C,,red,,stars,,,,C,red,stars,,1.0,0.0,NA,left,864.200000003,1.0,0.0,0.0,,,
101,0,,html-keyboard-response,101,350220,0.0-4.15-0.15,bo8r6ro5c16,2022-09-19 15:58:48.751,5b3b5f13dd6af000014d2a68,1,31,0,17,0,54,male,,,"<img src=""static/images/cards/stack_of_black_stars.svg"" width=""175px"" height=""250px""></img>",,,,,,,,,,,,,,,,,,,,,,,,,,,,
102,0,,html-keyboard-response,102,351613,0.0-4.15-1.15,bo8r6ro5c16,2022-09-19 15:58:48.751,5b3b5f13dd6af000014d2a68,1,31,0,17,0,54,male,890.3000000045,,"
  <table>
  <tr height=300>
    <td width=300 height=300><img src=""static/images/cards/back_of_black_stars.svg"" width=""175px"" height=""250px""></img></td>
    <td width=300 height=300><img src=""static/images/cards/back_of_black_stars.svg"" width=""175px"" height=""250px""></img></td>
  </tr>
  <tr height=200>
    <td width=300><img src=""static/images/keys/z.svg"" width=""35%"" height=""75%""></img></td>
    <td width=300></td>
  </tr>
</table>
  ",90.0,1.0,,,,,,,,,,,,,,,,,,,,,,,,,,
103,0,,html-keyboard-response,103,353116,0.0-4.15-2.15,bo8r6ro5c16,2022-09-19 15:58:48.751,5b3b5f13dd6af000014d2a68,1,31,0,17,0,54,male,,,"
  <table>
  <tr height=300>
    <td width=300 height=300><img src=""static/images/cards/1_of_black_stars.svg"" width=""175px"" height=""250px""></img></td>
    <td width=300 height=300><img src=""static/images/cards/back_of_black_stars.svg"" width=""175px"" height=""250px""></img></td>
  </tr>
  <tr height=200>
    <td width=300><img src=""static/images/keys/z.svg"" width=""35%"" height=""75%""></img></td>
    <td width=300></td>
  </tr>
</table>
  ",,,,,,,,,,,,,,,,,,,,,,,,,,,,
104,0,,html-keyboard-response,104,354632,0.0-4.15-3.15,bo8r6ro5c16,2022-09-19 15:58:48.751,5b3b5f13dd6af000014d2a68,1,31,0,17,0,54,male,,,"<p style=""font-size:50px"">You Lose!
No points this round.</p>",,,,,,,,,,,,,,,,,,,,,,,,,,,,
105,0,,html-keyboard-response,105,355138,0.0-4.15-4.15,bo8r6ro5c16,2022-09-19 15:58:48.751,5b3b5f13dd6af000014d2a68,1,31,0,17,0,54,male,,,,,,1.0,learning,15.0,D,,black,,stars,,,,D,black,stars,,0.0,0.0,1,left,890.3000000045,1.0,0.0,0.0,,,
106,0,,html-keyboard-response,106,356645,0.0-4.16-0.16,bo8r6ro5c16,2022-09-19 15:58:48.751,5b3b5f13dd6af000014d2a68,1,31,0,17,0,54,male,,,"<img src=""static/images/cards/stack_of_red_bolts.svg"" width=""175px"" height=""250px""></img>",,,,,,,,,,,,,,,,,,,,,,,,,,,,
107,0,,html-keyboard-response,107,357663,0.0-4.16-1.16,bo8r6ro5c16,2022-09-19 15:58:48.751,5b3b5f13dd6af000014d2a68,1,31,0,17,0,54,male,512.1000000015,,"
  <table>
  <tr height=300>
    <td width=300 height=300><img src=""static/images/cards/back_of_red_bolts.svg"" width=""175px"" height=""250px""></img></td>
    <td width=300 height=300><img src=""static/images/cards/back_of_red_bolts.svg"" width=""175px"" height=""250px""></img></td>
  </tr>
  <tr height=200>
    <td width=300><img src=""static/images/keys/z.svg"" width=""35%"" height=""75%""></img></td>
    <td width=300><img src=""static/images/keys/m.svg"" width=""35%"" height=""75%""></img></td>
  </tr>
</table>
  ",90.0,1.0,,,,,,,,,,,,,,,,,,,,,,,,,,
108,0,,html-keyboard-response,108,359169,0.0-4.16-2.16,bo8r6ro5c16,2022-09-19 15:58:48.751,5b3b5f13dd6af000014d2a68,1,31,0,17,0,54,male,,,"
  <table>
  <tr height=300>
    <td width=300 height=300><img src=""static/images/cards/1_of_red_bolts.svg"" width=""175px"" height=""250px""></img></td>
    <td width=300 height=300><img src=""static/images/cards/back_of_red_bolts.svg"" width=""175px"" height=""250px""></img></td>
  </tr>
  <tr height=200>
    <td width=300><img src=""static/images/keys/z.svg"" width=""35%"" height=""75%""></img></td>
    <td width=300><img src=""static/images/keys/m.svg"" width=""35%"" height=""75%""></img></td>
  </tr>
</table>
  ",,,,,,,,,,,,,,,,,,,,,,,,,,,,
109,0,,html-keyboard-response,109,360688,0.0-4.16-3.16,bo8r6ro5c16,2022-09-19 15:58:48.751,5b3b5f13dd6af000014d2a68,1,31,0,17,0,54,male,,,"<p style=""font-size:50px"">You win!
+10 points this round!</p>",,,,,,,,,,,,,,,,,,,,,,,,,,,,
110,0,,html-keyboard-response,110,361208,0.0-4.16-4.16,bo8r6ro5c16,2022-09-19 15:58:48.751,5b3b5f13dd6af000014d2a68,1,31,0,17,0,54,male,,,,,,1.0,learning,16.0,Xc,,red,,bolts,,,,Xc,red,bolts,,1.0,0.0,NA,left,512.1000000015,1.0,0.0,1.0,,,
111,0,,html-keyboard-response,111,362722,0.0-4.17-0.17,bo8r6ro5c16,2022-09-19 15:58:48.751,5b3b5f13dd6af000014d2a68,1,31,0,17,0,54,male,,,"<img src=""static/images/cards/stack_of_black_bolts.svg"" width=""175px"" height=""250px""></img>",,,,,,,,,,,,,,,,,,,,,,,,,,,,
112,0,,html-keyboard-response,112,363857,0.0-4.17-1.17,bo8r6ro5c16,2022-09-19 15:58:48.751,5b3b5f13dd6af000014d2a68,1,31,0,17,0,54,male,632.0,,"
  <table>
  <tr height=300>
    <td width=300 height=300><img src=""static/images/cards/back_of_black_bolts.svg"" width=""175px"" height=""250px""></img></td>
    <td width=300 height=300><img src=""static/images/cards/back_of_black_bolts.svg"" width=""175px"" height=""250px""></img></td>
  </tr>
  <tr height=200>
    <td width=300></td>
    <td width=300><img src=""static/images/keys/m.svg"" width=""35%"" height=""75%""></img></td>
  </tr>
</table>
  ",77.0,1.0,,,,,,,,,,,,,,,,,,,,,,,,,,
113,0,,html-keyboard-response,113,365358,0.0-4.17-2.17,bo8r6ro5c16,2022-09-19 15:58:48.751,5b3b5f13dd6af000014d2a68,1,31,0,17,0,54,male,,,"
  <table>
  <tr height=300>
    <td width=300 height=300><img src=""static/images/cards/back_of_black_bolts.svg"" width=""175px"" height=""250px""></img></td>
    <td width=300 height=300><img src=""static/images/cards/3_of_black_bolts.svg"" width=""175px"" height=""250px""></img></td>
  </tr>
  <tr height=200>
    <td width=300></td>
    <td width=300><img src=""static/images/keys/m.svg"" width=""35%"" height=""75%""></img></td>
  </tr>
</table>
  ",,,,,,,,,,,,,,,,,,,,,,,,,,,,
114,0,,html-keyboard-response,114,366875,0.0-4.17-3.17,bo8r6ro5c16,2022-09-19 15:58:48.751,5b3b5f13dd6af000014d2a68,1,31,0,17,0,54,male,,,"<p style=""font-size:50px"">You win!
+10 points this round!</p>",,,,,,,,,,,,,,,,,,,,,,,,,,,,
115,0,,html-keyboard-response,115,367382,0.0-4.17-4.17,bo8r6ro5c16,2022-09-19 15:58:48.751,5b3b5f13dd6af000014d2a68,1,31,0,17,0,54,male,,,,,,1.0,learning,17.0,Xnc,,black,,bolts,,,,Xnc,black,bolts,,0.0,0.0,0,right,632.0,3.0,0.0,1.0,,,
116,0,,html-keyboard-response,116,368894,0.0-4.18-0.18,bo8r6ro5c16,2022-09-19 15:58:48.751,5b3b5f13dd6af000014d2a68,1,31,0,17,0,54,male,,,"<img src=""static/images/cards/stack_of_red_moons.svg"" width=""175px"" height=""250px""></img>",,,,,,,,,,,,,,,,,,,,,,,,,,,,
117,0,,html-keyboard-response,117,370574,0.0-4.18-1.18,bo8r6ro5c16,2022-09-19 15:58:48.751,5b3b5f13dd6af000014d2a68,1,31,0,17,0,54,male,1174.700000003,,"
  <table>
  <tr height=300>
    <td width=300 height=300><img src=""static/images/cards/back_of_red_moons.svg"" width=""175px"" height=""250px""></img></td>
    <td width=300 height=300><img src=""static/images/cards/back_of_red_moons.svg"" width=""175px"" height=""250px""></img></td>
  </tr>
  <tr height=200>
    <td width=300><img src=""static/images/keys/z.svg"" width=""35%"" height=""75%""></img></td>
    <td width=300><img src=""static/images/keys/m.svg"" width=""35%"" height=""75%""></img></td>
  </tr>
</table>
  ",77.0,1.0,,,,,,,,,,,,,,,,,,,,,,,,,,
118,0,,html-keyboard-response,118,372081,0.0-4.18-2.18,bo8r6ro5c16,2022-09-19 15:58:48.751,5b3b5f13dd6af000014d2a68,1,31,0,17,0,54,male,,,"
  <table>
  <tr height=300>
    <td width=300 height=300><img src=""static/images/cards/back_of_red_moons.svg"" width=""175px"" height=""250px""></img></td>
    <td width=300 height=300><img src=""static/images/cards/7_of_red_moons.svg"" width=""175px"" height=""250px""></img></td>
  </tr>
  <tr height=200>
    <td width=300><img src=""static/images/keys/z.svg"" width=""35%"" height=""75%""></img></td>
    <td width=300><img src=""static/images/keys/m.svg"" width=""35%"" height=""75%""></img></td>
  </tr>
</table>
  ",,,,,,,,,,,,,,,,,,,,,,,,,,,,
119,0,,html-keyboard-response,119,373598,0.0-4.18-3.18,bo8r6ro5c16,2022-09-19 15:58:48.751,5b3b5f13dd6af000014d2a68,1,31,0,17,0,54,male,,,"<p style=""font-size:50px"">You win!
+10 points this round!</p>",,,,,,,,,,,,,,,,,,,,,,,,,,,,
120,0,,html-keyboard-response,120,374120,0.0-4.18-4.18,bo8r6ro5c16,2022-09-19 15:58:48.751,5b3b5f13dd6af000014d2a68,1,31,0,17,0,54,male,,,,,,1.0,learning,18.0,A,,red,,moons,,,,A,red,moons,,1.0,1.0,NA,right,1174.700000003,7.0,1.0,1.0,,,
121,0,,html-keyboard-response,121,375634,0.0-4.19-0.19,bo8r6ro5c16,2022-09-19 15:58:48.751,5b3b5f13dd6af000014d2a68,1,31,0,17,0,54,male,,,"<img src=""static/images/cards/stack_of_black_moons.svg"" width=""175px"" height=""250px""></img>",,,,,,,,,,,,,,,,,,,,,,,,,,,,
122,0,,html-keyboard-response,122,376972,0.0-4.19-1.19,bo8r6ro5c16,2022-09-19 15:58:48.751,5b3b5f13dd6af000014d2a68,1,31,0,17,0,54,male,834.8000000045,,"
  <table>
  <tr height=300>
    <td width=300 height=300><img src=""static/images/cards/back_of_black_moons.svg"" width=""175px"" height=""250px""></img></td>
    <td width=300 height=300><img src=""static/images/cards/back_of_black_moons.svg"" width=""175px"" height=""250px""></img></td>
  </tr>
  <tr height=200>
    <td width=300><img src=""static/images/keys/z.svg"" width=""35%"" height=""75%""></img></td>
    <td width=300></td>
  </tr>
</table>
  ",90.0,1.0,,,,,,,,,,,,,,,,,,,,,,,,,,
123,0,,html-keyboard-response,123,378486,0.0-4.19-2.19,bo8r6ro5c16,2022-09-19 15:58:48.751,5b3b5f13dd6af000014d2a68,1,31,0,17,0,54,male,,,"
  <table>
  <tr height=300>
    <td width=300 height=300><img src=""static/images/cards/1_of_black_moons.svg"" width=""175px"" height=""250px""></img></td>
    <td width=300 height=300><img src=""static/images/cards/back_of_black_moons.svg"" width=""175px"" height=""250px""></img></td>
  </tr>
  <tr height=200>
    <td width=300><img src=""static/images/keys/z.svg"" width=""35%"" height=""75%""></img></td>
    <td width=300></td>
  </tr>
</table>
  ",,,,,,,,,,,,,,,,,,,,,,,,,,,,
124,0,,html-keyboard-response,124,380005,0.0-4.19-3.19,bo8r6ro5c16,2022-09-19 15:58:48.751,5b3b5f13dd6af000014d2a68,1,31,0,17,0,54,male,,,"<p style=""font-size:50px"">You Lose!
No points this round.</p>",,,,,,,,,,,,,,,,,,,,,,,,,,,,
125,0,,html-keyboard-response,125,380511,0.0-4.19-4.19,bo8r6ro5c16,2022-09-19 15:58:48.751,5b3b5f13dd6af000014d2a68,1,31,0,17,0,54,male,,,,,,1.0,learning,19.0,B,,black,,moons,,,,B,black,moons,,0.0,1.0,1,left,834.8000000045,1.0,0.0,0.0,,,
126,0,,html-keyboard-response,126,382024,0.0-4.20-0.20,bo8r6ro5c16,2022-09-19 15:58:48.751,5b3b5f13dd6af000014d2a68,1,31,0,17,0,54,male,,,"<img src=""static/images/cards/stack_of_red_stars.svg"" width=""175px"" height=""250px""></img>",,,,,,,,,,,,,,,,,,,,,,,,,,,,
127,0,,html-keyboard-response,127,383660,0.0-4.20-1.20,bo8r6ro5c16,2022-09-19 15:58:48.751,5b3b5f13dd6af000014d2a68,1,31,0,17,0,54,male,1133.0,,"
  <table>
  <tr height=300>
    <td width=300 height=300><img src=""static/images/cards/back_of_red_stars.svg"" width=""175px"" height=""250px""></img></td>
    <td width=300 height=300><img src=""static/images/cards/back_of_red_stars.svg"" width=""175px"" height=""250px""></img></td>
  </tr>
  <tr height=200>
    <td width=300><img src=""static/images/keys/z.svg"" width=""35%"" height=""75%""></img></td>
    <td width=300><img src=""static/images/keys/m.svg"" width=""35%"" height=""75%""></img></td>
  </tr>
</table>
  ",77.0,1.0,,,,,,,,,,,,,,,,,,,,,,,,,,
128,0,,html-keyboard-response,128,385173,0.0-4.20-2.20,bo8r6ro5c16,2022-09-19 15:58:48.751,5b3b5f13dd6af000014d2a68,1,31,0,17,0,54,male,,,"
  <table>
  <tr height=300>
    <td width=300 height=300><img src=""static/images/cards/back_of_red_stars.svg"" width=""175px"" height=""250px""></img></td>
    <td width=300 height=300><img src=""static/images/cards/10_of_red_stars.svg"" width=""175px"" height=""250px""></img></td>
  </tr>
  <tr height=200>
    <td width=300><img src=""static/images/keys/z.svg"" width=""35%"" height=""75%""></img></td>
    <td width=300><img src=""static/images/keys/m.svg"" width=""35%"" height=""75%""></img></td>
  </tr>
</table>
  ",,,,,,,,,,,,,,,,,,,,,,,,,,,,
129,0,,html-keyboard-response,129,386692,0.0-4.20-3.20,bo8r6ro5c16,2022-09-19 15:58:48.751,5b3b5f13dd6af000014d2a68,1,31,0,17,0,54,male,,,"<p style=""font-size:50px"">You Lose!
No points this round.</p>",,,,,,,,,,,,,,,,,,,,,,,,,,,,
130,0,,html-keyboard-response,130,387201,0.0-4.20-4.20,bo8r6ro5c16,2022-09-19 15:58:48.751,5b3b5f13dd6af000014d2a68,1,31,0,17,0,54,male,,,,,,1.0,learning,20.0,C,,red,,stars,,,,C,red,stars,,1.0,0.0,NA,right,1133.0,10.0,1.0,0.0,,,
131,0,,html-keyboard-response,131,388714,0.0-4.21-0.21,bo8r6ro5c16,2022-09-19 15:58:48.751,5b3b5f13dd6af000014d2a68,1,31,0,17,0,54,male,,,"<img src=""static/images/cards/stack_of_black_stars.svg"" width=""175px"" height=""250px""></img>",,,,,,,,,,,,,,,,,,,,,,,,,,,,
132,0,,html-keyboard-response,132,389785,0.0-4.21-1.21,bo8r6ro5c16,2022-09-19 15:58:48.751,5b3b5f13dd6af000014d2a68,1,31,0,17,0,54,male,568.1999999955,,"
  <table>
  <tr height=300>
    <td width=300 height=300><img src=""static/images/cards/back_of_black_stars.svg"" width=""175px"" height=""250px""></img></td>
    <td width=300 height=300><img src=""static/images/cards/back_of_black_stars.svg"" width=""175px"" height=""250px""></img></td>
  </tr>
  <tr height=200>
    <td width=300><img src=""static/images/keys/z.svg"" width=""35%"" height=""75%""></img></td>
    <td width=300></td>
  </tr>
</table>
  ",90.0,1.0,,,,,,,,,,,,,,,,,,,,,,,,,,
133,0,,html-keyboard-response,133,391298,0.0-4.21-2.21,bo8r6ro5c16,2022-09-19 15:58:48.751,5b3b5f13dd6af000014d2a68,1,31,0,17,0,54,male,,,"
  <table>
  <tr height=300>
    <td width=300 height=300><img src=""static/images/cards/7_of_black_stars.svg"" width=""175px"" height=""250px""></img></td>
    <td width=300 height=300><img src=""static/images/cards/back_of_black_stars.svg"" width=""175px"" height=""250px""></img></td>
  </tr>
  <tr height=200>
    <td width=300><img src=""static/images/keys/z.svg"" width=""35%"" height=""75%""></img></td>
    <td width=300></td>
  </tr>
</table>
  ",,,,,,,,,,,,,,,,,,,,,,,,,,,,
134,0,,html-keyboard-response,134,392817,0.0-4.21-3.21,bo8r6ro5c16,2022-09-19 15:58:48.751,5b3b5f13dd6af000014d2a68,1,31,0,17,0,54,male,,,"<p style=""font-size:50px"">You win!
+10 points this round!</p>",,,,,,,,,,,,,,,,,,,,,,,,,,,,
135,0,,html-keyboard-response,135,393324,0.0-4.21-4.21,bo8r6ro5c16,2022-09-19 15:58:48.751,5b3b5f13dd6af000014d2a68,1,31,0,17,0,54,male,,,,,,1.0,learning,21.0,D,,black,,stars,,,,D,black,stars,,0.0,0.0,1,left,568.1999999955,7.0,1.0,1.0,,,
136,0,,html-keyboard-response,136,394836,0.0-4.22-0.22,bo8r6ro5c16,2022-09-19 15:58:48.751,5b3b5f13dd6af000014d2a68,1,31,0,17,0,54,male,,,"<img src=""static/images/cards/stack_of_red_bolts.svg"" width=""175px"" height=""250px""></img>",,,,,,,,,,,,,,,,,,,,,,,,,,,,
137,0,,html-keyboard-response,137,395689,0.0-4.22-1.22,bo8r6ro5c16,2022-09-19 15:58:48.751,5b3b5f13dd6af000014d2a68,1,31,0,17,0,54,male,335.3000000045,,"
  <table>
  <tr height=300>
    <td width=300 height=300><img src=""static/images/cards/back_of_red_bolts.svg"" width=""175px"" height=""250px""></img></td>
    <td width=300 height=300><img src=""static/images/cards/back_of_red_bolts.svg"" width=""175px"" height=""250px""></img></td>
  </tr>
  <tr height=200>
    <td width=300><img src=""static/images/keys/z.svg"" width=""35%"" height=""75%""></img></td>
    <td width=300><img src=""static/images/keys/m.svg"" width=""35%"" height=""75%""></img></td>
  </tr>
</table>
  ",90.0,1.0,,,,,,,,,,,,,,,,,,,,,,,,,,
138,0,,html-keyboard-response,138,397204,0.0-4.22-2.22,bo8r6ro5c16,2022-09-19 15:58:48.751,5b3b5f13dd6af000014d2a68,1,31,0,17,0,54,male,,,"
  <table>
  <tr height=300>
    <td width=300 height=300><img src=""static/images/cards/4_of_red_bolts.svg"" width=""175px"" height=""250px""></img></td>
    <td width=300 height=300><img src=""static/images/cards/back_of_red_bolts.svg"" width=""175px"" height=""250px""></img></td>
  </tr>
  <tr height=200>
    <td width=300><img src=""static/images/keys/z.svg"" width=""35%"" height=""75%""></img></td>
    <td width=300><img src=""static/images/keys/m.svg"" width=""35%"" height=""75%""></img></td>
  </tr>
</table>
  ",,,,,,,,,,,,,,,,,,,,,,,,,,,,
139,0,,html-keyboard-response,139,398710,0.0-4.22-3.22,bo8r6ro5c16,2022-09-19 15:58:48.751,5b3b5f13dd6af000014d2a68,1,31,0,17,0,54,male,,,"<p style=""font-size:50px"">You win!
+10 points this round!</p>",,,,,,,,,,,,,,,,,,,,,,,,,,,,
140,0,,html-keyboard-response,140,399228,0.0-4.22-4.22,bo8r6ro5c16,2022-09-19 15:58:48.751,5b3b5f13dd6af000014d2a68,1,31,0,17,0,54,male,,,,,,1.0,learning,22.0,Xc,,red,,bolts,,,,Xc,red,bolts,,1.0,0.0,NA,left,335.3000000045,4.0,0.0,1.0,,,
141,0,,html-keyboard-response,141,400742,0.0-4.23-0.23,bo8r6ro5c16,2022-09-19 15:58:48.751,5b3b5f13dd6af000014d2a68,1,31,0,17,0,54,male,,,"<img src=""static/images/cards/stack_of_black_bolts.svg"" width=""175px"" height=""250px""></img>",,,,,,,,,,,,,,,,,,,,,,,,,,,,
142,0,,html-keyboard-response,142,402581,0.0-4.23-1.23,bo8r6ro5c16,2022-09-19 15:58:48.751,5b3b5f13dd6af000014d2a68,1,31,0,17,0,54,male,1337.1000000015,,"
  <table>
  <tr height=300>
    <td width=300 height=300><img src=""static/images/cards/back_of_black_bolts.svg"" width=""175px"" height=""250px""></img></td>
    <td width=300 height=300><img src=""static/images/cards/back_of_black_bolts.svg"" width=""175px"" height=""250px""></img></td>
  </tr>
  <tr height=200>
    <td width=300></td>
    <td width=300><img src=""static/images/keys/m.svg"" width=""35%"" height=""75%""></img></td>
  </tr>
</table>
  ",77.0,1.0,,,,,,,,,,,,,,,,,,,,,,,,,,
143,0,,html-keyboard-response,143,404093,0.0-4.23-2.23,bo8r6ro5c16,2022-09-19 15:58:48.751,5b3b5f13dd6af000014d2a68,1,31,0,17,0,54,male,,,"
  <table>
  <tr height=300>
    <td width=300 height=300><img src=""static/images/cards/back_of_black_bolts.svg"" width=""175px"" height=""250px""></img></td>
    <td width=300 height=300><img src=""static/images/cards/7_of_black_bolts.svg"" width=""175px"" height=""250px""></img></td>
  </tr>
  <tr height=200>
    <td width=300></td>
    <td width=300><img src=""static/images/keys/m.svg"" width=""35%"" height=""75%""></img></td>
  </tr>
</table>
  ",,,,,,,,,,,,,,,,,,,,,,,,,,,,
144,0,,html-keyboard-response,144,405597,0.0-4.23-3.23,bo8r6ro5c16,2022-09-19 15:58:48.751,5b3b5f13dd6af000014d2a68,1,31,0,17,0,54,male,,,"<p style=""font-size:50px"">You win!
+10 points this round!</p>",,,,,,,,,,,,,,,,,,,,,,,,,,,,
145,0,,html-keyboard-response,145,406102,0.0-4.23-4.23,bo8r6ro5c16,2022-09-19 15:58:48.751,5b3b5f13dd6af000014d2a68,1,31,0,17,0,54,male,,,,,,1.0,learning,23.0,Xnc,,black,,bolts,,,,Xnc,black,bolts,,0.0,0.0,0,right,1337.1000000015,7.0,1.0,1.0,,,
146,0,,call-function,146,406109,0.0-5.0,bo8r6ro5c16,2022-09-19 15:58:48.751,5b3b5f13dd6af000014d2a68,1,31,0,17,0,54,male,,,,,,,,,,,,,,,,,,,,,,,,,,,,,,,
147,0,,image-keyboard-response,147,450364,0.0-6.0-0.0,bo8r6ro5c16,2022-09-19 15:58:48.751,5b3b5f13dd6af000014d2a68,1,31,0,17,0,54,male,44266.5,,static/images/instructions_CB_1/Slide20.png,39.0,,,,,,,,,,,,,,,,,,,,,,,,,,,
148,0,,image-keyboard-response,148,499593,0.0-6.1-0.1,bo8r6ro5c16,2022-09-19 15:58:48.751,5b3b5f13dd6af000014d2a68,1,31,0,17,0,54,male,49228.299999997,,static/images/instructions_CB_1/Slide21.png,39.0,,,,,,,,,,,,,,,,,,,,,,,,,,,
149,0,,image-keyboard-response,149,511757,0.0-6.2-0.2,bo8r6ro5c16,2022-09-19 15:58:48.751,5b3b5f13dd6af000014d2a68,1,31,0,17,0,54,male,12152.5,,static/images/instructions_CB_1/Slide22.png,39.0,,,,,,,,,,,,,,,,,,,,,,,,,,,
150,0,,image-keyboard-response,150,529952,0.0-6.3-0.3,bo8r6ro5c16,2022-09-19 15:58:48.751,5b3b5f13dd6af000014d2a68,1,31,0,17,0,54,male,18194.8999999985,,static/images/instructions_CB_1/Slide23.png,37.0,,,,,,,,,,,,,,,,,,,,,,,,,,,
151,0,,image-keyboard-response,151,532170,0.0-6.4-0.4,bo8r6ro5c16,2022-09-19 15:58:48.751,5b3b5f13dd6af000014d2a68,1,31,0,17,0,54,male,2216.8999999985,,static/images/instructions_CB_1/Slide22.png,37.0,,,,,,,,,,,,,,,,,,,,,,,,,,,
152,0,,image-keyboard-response,152,533013,0.0-6.5-0.5,bo8r6ro5c16,2022-09-19 15:58:48.751,5b3b5f13dd6af000014d2a68,1,31,0,17,0,54,male,841.6000000015,,static/images/instructions_CB_1/Slide21.png,39.0,,,,,,,,,,,,,,,,,,,,,,,,,,,
153,0,,image-keyboard-response,153,544771,0.0-6.6-0.6,bo8r6ro5c16,2022-09-19 15:58:48.751,5b3b5f13dd6af000014d2a68,1,31,0,17,0,54,male,11756.8000000045,,static/images/instructions_CB_1/Slide22.png,39.0,,,,,,,,,,,,,,,,,,,,,,,,,,,
154,0,,image-keyboard-response,154,561666,0.0-6.7-0.7,bo8r6ro5c16,2022-09-19 15:58:48.751,5b3b5f13dd6af000014d2a68,1,31,0,17,0,54,male,16894.200000003,,static/images/instructions_CB_1/Slide23.png,39.0,,,,,,,,,,,,,,,,,,,,,,,,,,,
155,0,,image-keyboard-response,155,564062,0.0-6.8-0.8,bo8r6ro5c16,2022-09-19 15:58:48.751,5b3b5f13dd6af000014d2a68,1,31,0,17,0,54,male,2395.8999999985,,static/images/instructions_CB_1/Slide24.png,39.0,,,,,,,,,,,,,,,,,,,,,,,,,,,
156,0,,html-keyboard-response,156,568642,0.0-7.0-0.0,bo8r6ro5c16,2022-09-19 15:58:48.751,5b3b5f13dd6af000014d2a68,1,31,0,17,0,54,male,4577.3999999985,,"
  <table>
  <tr height=300>
    <td width=300 height=300><img src=""static/images/cards/stack_of_black_moons.svg"" width=""175px"" height=""250px""></img></td>
    <td width=300 height=300><img src=""static/images/cards/stack_of_red_stars.svg"" width=""175px"" height=""250px""></img></td>
  </tr>
  <tr height=200>
    <td width=300><img src=""static/images/keys/w.svg"" width=""35%"" height=""75%""></img></td>
    <td width=300><img src=""static/images/keys/o.svg"" width=""35%"" height=""75%""></img></td>
  </tr>
</table>
  ",87.0,1.0,,,,,,,,,,,,,,,,,,,,,,,,,,
157,0,,html-keyboard-response,157,570600,0.0-7.0-1.0,bo8r6ro5c16,2022-09-19 15:58:48.751,5b3b5f13dd6af000014d2a68,1,31,0,17,0,54,male,1446.1000000015,,"
  <table>
  <tr height=300>
    <td width=300 height=300><img src=""static/images/cards/back_of_black_moons.svg"" width=""175px"" height=""250px""></img></td>
    <td width=300 height=300><img src=""static/images/cards/back_of_black_moons.svg"" width=""175px"" height=""250px""></img></td>
  </tr>
  <tr height=200>
    <td width=300></td>
    <td width=300><img src=""static/images/keys/m.svg"" width=""35%"" height=""75%""></img></td>
  </tr>
</table>
  ",77.0,1.0,,,,,,,,,,,,,,,,,,,,,,,,,,
158,0,,html-keyboard-response,158,572104,0.0-7.0-2.0,bo8r6ro5c16,2022-09-19 15:58:48.751,5b3b5f13dd6af000014d2a68,1,31,0,17,0,54,male,,,"
  <table>
  <tr height=300>
    <td width=300 height=300><img src=""static/images/cards/back_of_black_moons.svg"" width=""175px"" height=""250px""></img></td>
    <td width=300 height=300><img src=""static/images/cards/3_of_black_moons.svg"" width=""175px"" height=""250px""></img></td>
  </tr>
  <tr height=200>
    <td width=300></td>
    <td width=300><img src=""static/images/keys/m.svg"" width=""35%"" height=""75%""></img></td>
  </tr>
</table>
  ",,,,,,,,,,,,,,,,,,,,,,,,,,,,
159,0,,html-keyboard-response,159,573622,0.0-7.0-3.0,bo8r6ro5c16,2022-09-19 15:58:48.751,5b3b5f13dd6af000014d2a68,1,31,0,17,0,54,male,,,"<p style=""font-size:50px"">You Lose!
No points this round.</p>",,,,,,,,,,,,,,,,,,,,,,,,,,,,
160,0,,html-keyboard-response,160,574130,0.0-7.0-4.0,bo8r6ro5c16,2022-09-19 15:58:48.751,5b3b5f13dd6af000014d2a68,1,31,0,17,0,54,male,,,,,,1.0,choice,0.0,B,C,black,red,moons,stars,B,C,B,black,moons,4577.3999999985,0.0,1.0,0,right,1446.1000000015,3.0,0.0,0.0,,,
161,0,,html-keyboard-response,161,579137,0.0-7.1-0.1,bo8r6ro5c16,2022-09-19 15:58:48.751,5b3b5f13dd6af000014d2a68,1,31,0,17,0,54,male,,,"
  <table>
  <tr height=300>
    <td width=300 height=300><img src=""static/images/cards/stack_of_black_moons.svg"" width=""175px"" height=""250px""></img></td>
    <td width=300 height=300><img src=""static/images/cards/stack_of_red_moons.svg"" width=""175px"" height=""250px""></img></td>
  </tr>
  <tr height=200>
    <td width=300><img src=""static/images/keys/w.svg"" width=""35%"" height=""75%""></img></td>
    <td width=300><img src=""static/images/keys/o.svg"" width=""35%"" height=""75%""></img></td>
  </tr>
</table>
  ",,,,,,,,,,,,,,,,,,,,,,,,,,,,
162,0,,html-keyboard-response,162,579650,0.0-7.1-1.1,bo8r6ro5c16,2022-09-19 15:58:48.751,5b3b5f13dd6af000014d2a68,1,31,0,17,0,54,male,,,,,,,,,,,,,,,,,,,,,,,,,,,,,,,
163,0,,html-keyboard-response,163,579655,0.0-7.1-2.1,bo8r6ro5c16,2022-09-19 15:58:48.751,5b3b5f13dd6af000014d2a68,1,31,0,17,0,54,male,,,,,,,,,,,,,,,,,,,,,,,,,,,,,,,
164,0,,html-keyboard-response,164,581164,0.0-7.1-3.1,bo8r6ro5c16,2022-09-19 15:58:48.751,5b3b5f13dd6af000014d2a68,1,31,0,17,0,54,male,,,"<p style=""font-size:50px"">Too slow!</p>",,,,,,,,,,,,,,,,,,,,,,,,,,,,
165,0,,html-keyboard-response,165,581685,0.0-7.1-4.1,bo8r6ro5c16,2022-09-19 15:58:48.751,5b3b5f13dd6af000014d2a68,1,31,0,17,0,54,male,,,,,,1.0,choice,1.0,A,B,black,red,moons,moons,B,A,,,,,0.0,1.0,0,,,3.0,0.0,0.0,,,
166,0,,html-keyboard-response,166,583417,0.0-7.2-0.2,bo8r6ro5c16,2022-09-19 15:58:48.751,5b3b5f13dd6af000014d2a68,1,31,0,17,0,54,male,1730.3000000045,,"
  <table>
  <tr height=300>
    <td width=300 height=300><img src=""static/images/cards/stack_of_black_stars.svg"" width=""175px"" height=""250px""></img></td>
    <td width=300 height=300><img src=""static/images/cards/stack_of_black_moons.svg"" width=""175px"" height=""250px""></img></td>
  </tr>
  <tr height=200>
    <td width=300><img src=""static/images/keys/w.svg"" width=""35%"" height=""75%""></img></td>
    <td width=300><img src=""static/images/keys/o.svg"" width=""35%"" height=""75%""></img></td>
  </tr>
</table>
  ",87.0,1.0,,,,,,,,,,,,,,,,,,,,,,,,,,
167,0,,html-keyboard-response,167,585623,0.0-7.2-1.2,bo8r6ro5c16,2022-09-19 15:58:48.751,5b3b5f13dd6af000014d2a68,1,31,0,17,0,54,male,1705.0,,"
  <table>
  <tr height=300>
    <td width=300 height=300><img src=""static/images/cards/back_of_black_stars.svg"" width=""175px"" height=""250px""></img></td>
    <td width=300 height=300><img src=""static/images/cards/back_of_black_stars.svg"" width=""175px"" height=""250px""></img></td>
  </tr>
  <tr height=200>
    <td width=300><img src=""static/images/keys/z.svg"" width=""35%"" height=""75%""></img></td>
    <td width=300></td>
  </tr>
</table>
  ",90.0,1.0,,,,,,,,,,,,,,,,,,,,,,,,,,
168,0,,html-keyboard-response,168,587134,0.0-7.2-2.2,bo8r6ro5c16,2022-09-19 15:58:48.751,5b3b5f13dd6af000014d2a68,1,31,0,17,0,54,male,,,"
  <table>
  <tr height=300>
    <td width=300 height=300><img src=""static/images/cards/4_of_black_stars.svg"" width=""175px"" height=""250px""></img></td>
    <td width=300 height=300><img src=""static/images/cards/back_of_black_stars.svg"" width=""175px"" height=""250px""></img></td>
  </tr>
  <tr height=200>
    <td width=300><img src=""static/images/keys/z.svg"" width=""35%"" height=""75%""></img></td>
    <td width=300></td>
  </tr>
</table>
  ",,,,,,,,,,,,,,,,,,,,,,,,,,,,
169,0,,html-keyboard-response,169,588638,0.0-7.2-3.2,bo8r6ro5c16,2022-09-19 15:58:48.751,5b3b5f13dd6af000014d2a68,1,31,0,17,0,54,male,,,"<p style=""font-size:50px"">You Lose!
No points this round.</p>",,,,,,,,,,,,,,,,,,,,,,,,,,,,
170,0,,html-keyboard-response,170,589144,0.0-7.2-4.2,bo8r6ro5c16,2022-09-19 15:58:48.751,5b3b5f13dd6af000014d2a68,1,31,0,17,0,54,male,,,,,,1.0,choice,2.0,B,D,black,black,stars,moons,D,B,D,black,stars,1730.3000000045,0.0,0.0,1,left,1705.0,4.0,0.0,0.0,,,
171,0,,html-keyboard-response,171,591747,0.0-7.3-0.3,bo8r6ro5c16,2022-09-19 15:58:48.751,5b3b5f13dd6af000014d2a68,1,31,0,17,0,54,male,2601.1000000015,,"
  <table>
  <tr height=300>
    <td width=300 height=300><img src=""static/images/cards/stack_of_red_stars.svg"" width=""175px"" height=""250px""></img></td>
    <td width=300 height=300><img src=""static/images/cards/stack_of_black_stars.svg"" width=""175px"" height=""250px""></img></td>
  </tr>
  <tr height=200>
    <td width=300><img src=""static/images/keys/w.svg"" width=""35%"" height=""75%""></img></td>
    <td width=300><img src=""static/images/keys/o.svg"" width=""35%"" height=""75%""></img></td>
  </tr>
</table>
  ",79.0,1.0,,,,,,,,,,,,,,,,,,,,,,,,,,
172,0,,html-keyboard-response,172,593757,0.0-7.3-1.3,bo8r6ro5c16,2022-09-19 15:58:48.751,5b3b5f13dd6af000014d2a68,1,31,0,17,0,54,male,1500.0,,"
  <table>
  <tr height=300>
    <td width=300 height=300><img src=""static/images/cards/back_of_black_stars.svg"" width=""175px"" height=""250px""></img></td>
    <td width=300 height=300><img src=""static/images/cards/back_of_black_stars.svg"" width=""175px"" height=""250px""></img></td>
  </tr>
  <tr height=200>
    <td width=300><img src=""static/images/keys/z.svg"" width=""35%"" height=""75%""></img></td>
    <td width=300></td>
  </tr>
</table>
  ",90.0,1.0,,,,,,,,,,,,,,,,,,,,,,,,,,
173,0,,html-keyboard-response,173,595260,0.0-7.3-2.3,bo8r6ro5c16,2022-09-19 15:58:48.751,5b3b5f13dd6af000014d2a68,1,31,0,17,0,54,male,,,"
  <table>
  <tr height=300>
    <td width=300 height=300><img src=""static/images/cards/2_of_black_stars.svg"" width=""175px"" height=""250px""></img></td>
    <td width=300 height=300><img src=""static/images/cards/back_of_black_stars.svg"" width=""175px"" height=""250px""></img></td>
  </tr>
  <tr height=200>
    <td width=300><img src=""static/images/keys/z.svg"" width=""35%"" height=""75%""></img></td>
    <td width=300></td>
  </tr>
</table>
  ",,,,,,,,,,,,,,,,,,,,,,,,,,,,
174,0,,html-keyboard-response,174,596763,0.0-7.3-3.3,bo8r6ro5c16,2022-09-19 15:58:48.751,5b3b5f13dd6af000014d2a68,1,31,0,17,0,54,male,,,"<p style=""font-size:50px"">You win!
+10 points this round!</p>",,,,,,,,,,,,,,,,,,,,,,,,,,,,
175,0,,html-keyboard-response,175,597268,0.0-7.3-4.3,bo8r6ro5c16,2022-09-19 15:58:48.751,5b3b5f13dd6af000014d2a68,1,31,0,17,0,54,male,,,,,,1.0,choice,3.0,C,D,red,black,stars,stars,C,D,D,black,stars,2601.1000000015,0.0,0.0,1,left,1500.0,2.0,0.0,1.0,,,
176,0,,html-keyboard-response,176,598873,0.0-7.4-0.4,bo8r6ro5c16,2022-09-19 15:58:48.751,5b3b5f13dd6af000014d2a68,1,31,0,17,0,54,male,1602.1000000015,,"
  <table>
  <tr height=300>
    <td width=300 height=300><img src=""static/images/cards/stack_of_red_stars.svg"" width=""175px"" height=""250px""></img></td>
    <td width=300 height=300><img src=""static/images/cards/stack_of_red_moons.svg"" width=""175px"" height=""250px""></img></td>
  </tr>
  <tr height=200>
    <td width=300><img src=""static/images/keys/w.svg"" width=""35%"" height=""75%""></img></td>
    <td width=300><img src=""static/images/keys/o.svg"" width=""35%"" height=""75%""></img></td>
  </tr>
</table>
  ",79.0,1.0,,,,,,,,,,,,,,,,,,,,,,,,,,
177,0,,html-keyboard-response,177,600614,0.0-7.4-1.4,bo8r6ro5c16,2022-09-19 15:58:48.751,5b3b5f13dd6af000014d2a68,1,31,0,17,0,54,male,1229.6999999955,,"
  <table>
  <tr height=300>
    <td width=300 height=300><img src=""static/images/cards/back_of_red_moons.svg"" width=""175px"" height=""250px""></img></td>
    <td width=300 height=300><img src=""static/images/cards/back_of_red_moons.svg"" width=""175px"" height=""250px""></img></td>
  </tr>
  <tr height=200>
    <td width=300><img src=""static/images/keys/z.svg"" width=""35%"" height=""75%""></img></td>
    <td width=300><img src=""static/images/keys/m.svg"" width=""35%"" height=""75%""></img></td>
  </tr>
</table>
  ",90.0,1.0,,,,,,,,,,,,,,,,,,,,,,,,,,
178,0,,html-keyboard-response,178,602116,0.0-7.4-2.4,bo8r6ro5c16,2022-09-19 15:58:48.751,5b3b5f13dd6af000014d2a68,1,31,0,17,0,54,male,,,"
  <table>
  <tr height=300>
    <td width=300 height=300><img src=""static/images/cards/2_of_red_moons.svg"" width=""175px"" height=""250px""></img></td>
    <td width=300 height=300><img src=""static/images/cards/back_of_red_moons.svg"" width=""175px"" height=""250px""></img></td>
  </tr>
  <tr height=200>
    <td width=300><img src=""static/images/keys/z.svg"" width=""35%"" height=""75%""></img></td>
    <td width=300><img src=""static/images/keys/m.svg"" width=""35%"" height=""75%""></img></td>
  </tr>
</table>
  ",,,,,,,,,,,,,,,,,,,,,,,,,,,,
179,0,,html-keyboard-response,179,603625,0.0-7.4-3.4,bo8r6ro5c16,2022-09-19 15:58:48.751,5b3b5f13dd6af000014d2a68,1,31,0,17,0,54,male,,,"<p style=""font-size:50px"">You Lose!
No points this round.</p>",,,,,,,,,,,,,,,,,,,,,,,,,,,,
180,0,,html-keyboard-response,180,604140,0.0-7.4-4.4,bo8r6ro5c16,2022-09-19 15:58:48.751,5b3b5f13dd6af000014d2a68,1,31,0,17,0,54,male,,,,,,1.0,choice,4.0,A,C,red,red,stars,moons,C,A,A,red,moons,1602.1000000015,1.0,1.0,NA,left,1229.6999999955,2.0,0.0,0.0,,,
181,0,,html-keyboard-response,181,607571,0.0-7.5-0.5,bo8r6ro5c16,2022-09-19 15:58:48.751,5b3b5f13dd6af000014d2a68,1,31,0,17,0,54,male,3428.3999999985,,"
  <table>
  <tr height=300>
    <td width=300 height=300><img src=""static/images/cards/stack_of_black_stars.svg"" width=""175px"" height=""250px""></img></td>
    <td width=300 height=300><img src=""static/images/cards/stack_of_red_moons.svg"" width=""175px"" height=""250px""></img></td>
  </tr>
  <tr height=200>
    <td width=300><img src=""static/images/keys/w.svg"" width=""35%"" height=""75%""></img></td>
    <td width=300><img src=""static/images/keys/o.svg"" width=""35%"" height=""75%""></img></td>
  </tr>
</table>
  ",87.0,3.0,,,,,,,,,,,,,,,,,,,,,,,,,,
182,0,,html-keyboard-response,182,609005,0.0-7.5-1.5,bo8r6ro5c16,2022-09-19 15:58:48.751,5b3b5f13dd6af000014d2a68,1,31,0,17,0,54,male,930.1000000015,,"
  <table>
  <tr height=300>
    <td width=300 height=300><img src=""static/images/cards/back_of_black_stars.svg"" width=""175px"" height=""250px""></img></td>
    <td width=300 height=300><img src=""static/images/cards/back_of_black_stars.svg"" width=""175px"" height=""250px""></img></td>
  </tr>
  <tr height=200>
    <td width=300></td>
    <td width=300><img src=""static/images/keys/m.svg"" width=""35%"" height=""75%""></img></td>
  </tr>
</table>
  ",77.0,1.0,,,,,,,,,,,,,,,,,,,,,,,,,,
183,0,,html-keyboard-response,183,610509,0.0-7.5-2.5,bo8r6ro5c16,2022-09-19 15:58:48.751,5b3b5f13dd6af000014d2a68,1,31,0,17,0,54,male,,,"
  <table>
  <tr height=300>
    <td width=300 height=300><img src=""static/images/cards/back_of_black_stars.svg"" width=""175px"" height=""250px""></img></td>
    <td width=300 height=300><img src=""static/images/cards/7_of_black_stars.svg"" width=""175px"" height=""250px""></img></td>
  </tr>
  <tr height=200>
    <td width=300></td>
    <td width=300><img src=""static/images/keys/m.svg"" width=""35%"" height=""75%""></img></td>
  </tr>
</table>
  ",,,,,,,,,,,,,,,,,,,,,,,,,,,,
184,0,,html-keyboard-response,184,612027,0.0-7.5-3.5,bo8r6ro5c16,2022-09-19 15:58:48.751,5b3b5f13dd6af000014d2a68,1,31,0,17,0,54,male,,,"<p style=""font-size:50px"">You Lose!
No points this round.</p>",,,,,,,,,,,,,,,,,,,,,,,,,,,,
185,0,,html-keyboard-response,185,612547,0.0-7.5-4.5,bo8r6ro5c16,2022-09-19 15:58:48.751,5b3b5f13dd6af000014d2a68,1,31,0,17,0,54,male,,,,,,1.0,choice,5.0,A,D,black,red,stars,moons,D,A,D,black,stars,3428.3999999985,0.0,0.0,0,right,930.1000000015,7.0,1.0,0.0,,,
186,0,,html-keyboard-response,186,615309,0.0-7.6-0.6,bo8r6ro5c16,2022-09-19 15:58:48.751,5b3b5f13dd6af000014d2a68,1,31,0,17,0,54,male,2758.8999999985,,"
  <table>
  <tr height=300>
    <td width=300 height=300><img src=""static/images/cards/stack_of_black_stars.svg"" width=""175px"" height=""250px""></img></td>
    <td width=300 height=300><img src=""static/images/cards/stack_of_black_moons.svg"" width=""175px"" height=""250px""></img></td>
  </tr>
  <tr height=200>
    <td width=300><img src=""static/images/keys/w.svg"" width=""35%"" height=""75%""></img></td>
    <td width=300><img src=""static/images/keys/o.svg"" width=""35%"" height=""75%""></img></td>
  </tr>
</table>
  ",79.0,1.0,,,,,,,,,,,,,,,,,,,,,,,,,,
187,0,,html-keyboard-response,187,617188,0.0-7.6-1.6,bo8r6ro5c16,2022-09-19 15:58:48.751,5b3b5f13dd6af000014d2a68,1,31,0,17,0,54,male,1373.8000000045,,"
  <table>
  <tr height=300>
    <td width=300 height=300><img src=""static/images/cards/back_of_black_moons.svg"" width=""175px"" height=""250px""></img></td>
    <td width=300 height=300><img src=""static/images/cards/back_of_black_moons.svg"" width=""175px"" height=""250px""></img></td>
  </tr>
  <tr height=200>
    <td width=300><img src=""static/images/keys/z.svg"" width=""35%"" height=""75%""></img></td>
    <td width=300></td>
  </tr>
</table>
  ",90.0,1.0,,,,,,,,,,,,,,,,,,,,,,,,,,
188,0,,html-keyboard-response,188,618698,0.0-7.6-2.6,bo8r6ro5c16,2022-09-19 15:58:48.751,5b3b5f13dd6af000014d2a68,1,31,0,17,0,54,male,,,"
  <table>
  <tr height=300>
    <td width=300 height=300><img src=""static/images/cards/8_of_black_moons.svg"" width=""175px"" height=""250px""></img></td>
    <td width=300 height=300><img src=""static/images/cards/back_of_black_moons.svg"" width=""175px"" height=""250px""></img></td>
  </tr>
  <tr height=200>
    <td width=300><img src=""static/images/keys/z.svg"" width=""35%"" height=""75%""></img></td>
    <td width=300></td>
  </tr>
</table>
  ",,,,,,,,,,,,,,,,,,,,,,,,,,,,
189,0,,html-keyboard-response,189,620201,0.0-7.6-3.6,bo8r6ro5c16,2022-09-19 15:58:48.751,5b3b5f13dd6af000014d2a68,1,31,0,17,0,54,male,,,"<p style=""font-size:50px"">You win!
+10 points this round!</p>",,,,,,,,,,,,,,,,,,,,,,,,,,,,
190,0,,html-keyboard-response,190,620707,0.0-7.6-4.6,bo8r6ro5c16,2022-09-19 15:58:48.751,5b3b5f13dd6af000014d2a68,1,31,0,17,0,54,male,,,,,,1.0,choice,6.0,B,D,black,black,stars,moons,D,B,B,black,moons,2758.8999999985,0.0,1.0,1,left,1373.8000000045,8.0,1.0,1.0,,,
191,0,,html-keyboard-response,191,623065,0.0-7.7-0.7,bo8r6ro5c16,2022-09-19 15:58:48.751,5b3b5f13dd6af000014d2a68,1,31,0,17,0,54,male,2354.1000000015,,"
  <table>
  <tr height=300>
    <td width=300 height=300><img src=""static/images/cards/stack_of_red_moons.svg"" width=""175px"" height=""250px""></img></td>
    <td width=300 height=300><img src=""static/images/cards/stack_of_red_stars.svg"" width=""175px"" height=""250px""></img></td>
  </tr>
  <tr height=200>
    <td width=300><img src=""static/images/keys/w.svg"" width=""35%"" height=""75%""></img></td>
    <td width=300><img src=""static/images/keys/o.svg"" width=""35%"" height=""75%""></img></td>
  </tr>
</table>
  ",87.0,1.0,,,,,,,,,,,,,,,,,,,,,,,,,,
192,0,,html-keyboard-response,192,625061,0.0-7.7-1.7,bo8r6ro5c16,2022-09-19 15:58:48.751,5b3b5f13dd6af000014d2a68,1,31,0,17,0,54,male,1484.599999994,,"
  <table>
  <tr height=300>
    <td width=300 height=300><img src=""static/images/cards/back_of_red_moons.svg"" width=""175px"" height=""250px""></img></td>
    <td width=300 height=300><img src=""static/images/cards/back_of_red_moons.svg"" width=""175px"" height=""250px""></img></td>
  </tr>
  <tr height=200>
    <td width=300><img src=""static/images/keys/z.svg"" width=""35%"" height=""75%""></img></td>
    <td width=300><img src=""static/images/keys/m.svg"" width=""35%"" height=""75%""></img></td>
  </tr>
</table>
  ",90.0,1.0,,,,,,,,,,,,,,,,,,,,,,,,,,
193,0,,html-keyboard-response,193,626570,0.0-7.7-2.7,bo8r6ro5c16,2022-09-19 15:58:48.751,5b3b5f13dd6af000014d2a68,1,31,0,17,0,54,male,,,"
  <table>
  <tr height=300>
    <td width=300 height=300><img src=""static/images/cards/9_of_red_moons.svg"" width=""175px"" height=""250px""></img></td>
    <td width=300 height=300><img src=""static/images/cards/back_of_red_moons.svg"" width=""175px"" height=""250px""></img></td>
  </tr>
  <tr height=200>
    <td width=300><img src=""static/images/keys/z.svg"" width=""35%"" height=""75%""></img></td>
    <td width=300><img src=""static/images/keys/m.svg"" width=""35%"" height=""75%""></img></td>
  </tr>
</table>
  ",,,,,,,,,,,,,,,,,,,,,,,,,,,,
194,0,,html-keyboard-response,194,628091,0.0-7.7-3.7,bo8r6ro5c16,2022-09-19 15:58:48.751,5b3b5f13dd6af000014d2a68,1,31,0,17,0,54,male,,,"<p style=""font-size:50px"">You win!
+10 points this round!</p>",,,,,,,,,,,,,,,,,,,,,,,,,,,,
195,0,,html-keyboard-response,195,628598,0.0-7.7-4.7,bo8r6ro5c16,2022-09-19 15:58:48.751,5b3b5f13dd6af000014d2a68,1,31,0,17,0,54,male,,,,,,1.0,choice,7.0,A,C,red,red,moons,stars,A,C,A,red,moons,2354.1000000015,1.0,1.0,NA,left,1484.599999994,9.0,1.0,1.0,,,
196,0,,html-keyboard-response,196,629929,0.0-7.8-0.8,bo8r6ro5c16,2022-09-19 15:58:48.751,5b3b5f13dd6af000014d2a68,1,31,0,17,0,54,male,1329.299999997,,"
  <table>
  <tr height=300>
    <td width=300 height=300><img src=""static/images/cards/stack_of_black_moons.svg"" width=""175px"" height=""250px""></img></td>
    <td width=300 height=300><img src=""static/images/cards/stack_of_red_moons.svg"" width=""175px"" height=""250px""></img></td>
  </tr>
  <tr height=200>
    <td width=300><img src=""static/images/keys/w.svg"" width=""35%"" height=""75%""></img></td>
    <td width=300><img src=""static/images/keys/o.svg"" width=""35%"" height=""75%""></img></td>
  </tr>
</table>
  ",79.0,1.0,,,,,,,,,,,,,,,,,,,,,,,,,,
197,0,,html-keyboard-response,197,632091,0.0-7.8-1.8,bo8r6ro5c16,2022-09-19 15:58:48.751,5b3b5f13dd6af000014d2a68,1,31,0,17,0,54,male,1645.5,,"
  <table>
  <tr height=300>
    <td width=300 height=300><img src=""static/images/cards/back_of_red_moons.svg"" width=""175px"" height=""250px""></img></td>
    <td width=300 height=300><img src=""static/images/cards/back_of_red_moons.svg"" width=""175px"" height=""250px""></img></td>
  </tr>
  <tr height=200>
    <td width=300><img src=""static/images/keys/z.svg"" width=""35%"" height=""75%""></img></td>
    <td width=300><img src=""static/images/keys/m.svg"" width=""35%"" height=""75%""></img></td>
  </tr>
</table>
  ",77.0,1.0,,,,,,,,,,,,,,,,,,,,,,,,,,
198,0,,html-keyboard-response,198,633596,0.0-7.8-2.8,bo8r6ro5c16,2022-09-19 15:58:48.751,5b3b5f13dd6af000014d2a68,1,31,0,17,0,54,male,,,"
  <table>
  <tr height=300>
    <td width=300 height=300><img src=""static/images/cards/back_of_red_moons.svg"" width=""175px"" height=""250px""></img></td>
    <td width=300 height=300><img src=""static/images/cards/4_of_red_moons.svg"" width=""175px"" height=""250px""></img></td>
  </tr>
  <tr height=200>
    <td width=300><img src=""static/images/keys/z.svg"" width=""35%"" height=""75%""></img></td>
    <td width=300><img src=""static/images/keys/m.svg"" width=""35%"" height=""75%""></img></td>
  </tr>
</table>
  ",,,,,,,,,,,,,,,,,,,,,,,,,,,,
199,0,,html-keyboard-response,199,635114,0.0-7.8-3.8,bo8r6ro5c16,2022-09-19 15:58:48.751,5b3b5f13dd6af000014d2a68,1,31,0,17,0,54,male,,,"<p style=""font-size:50px"">You Lose!
No points this round.</p>",,,,,,,,,,,,,,,,,,,,,,,,,,,,
200,0,,html-keyboard-response,200,635620,0.0-7.8-4.8,bo8r6ro5c16,2022-09-19 15:58:48.751,5b3b5f13dd6af000014d2a68,1,31,0,17,0,54,male,,,,,,1.0,choice,8.0,A,B,black,red,moons,moons,B,A,A,red,moons,1329.299999997,1.0,1.0,NA,right,1645.5,4.0,0.0,0.0,,,
201,0,,html-keyboard-response,201,636870,0.0-7.9-0.9,bo8r6ro5c16,2022-09-19 15:58:48.751,5b3b5f13dd6af000014d2a68,1,31,0,17,0,54,male,1247.8000000045,,"
  <table>
  <tr height=300>
    <td width=300 height=300><img src=""static/images/cards/stack_of_black_moons.svg"" width=""175px"" height=""250px""></img></td>
    <td width=300 height=300><img src=""static/images/cards/stack_of_black_stars.svg"" width=""175px"" height=""250px""></img></td>
  </tr>
  <tr height=200>
    <td width=300><img src=""static/images/keys/w.svg"" width=""35%"" height=""75%""></img></td>
    <td width=300><img src=""static/images/keys/o.svg"" width=""35%"" height=""75%""></img></td>
  </tr>
</table>
  ",87.0,1.0,,,,,,,,,,,,,,,,,,,,,,,,,,
202,0,,html-keyboard-response,202,638575,0.0-7.9-1.9,bo8r6ro5c16,2022-09-19 15:58:48.751,5b3b5f13dd6af000014d2a68,1,31,0,17,0,54,male,1189.8999999985,,"
  <table>
  <tr height=300>
    <td width=300 height=300><img src=""static/images/cards/back_of_black_moons.svg"" width=""175px"" height=""250px""></img></td>
    <td width=300 height=300><img src=""static/images/cards/back_of_black_moons.svg"" width=""175px"" height=""250px""></img></td>
  </tr>
  <tr height=200>
    <td width=300></td>
    <td width=300><img src=""static/images/keys/m.svg"" width=""35%"" height=""75%""></img></td>
  </tr>
</table>
  ",77.0,1.0,,,,,,,,,,,,,,,,,,,,,,,,,,
203,0,,html-keyboard-response,203,640087,0.0-7.9-2.9,bo8r6ro5c16,2022-09-19 15:58:48.751,5b3b5f13dd6af000014d2a68,1,31,0,17,0,54,male,,,"
  <table>
  <tr height=300>
    <td width=300 height=300><img src=""static/images/cards/back_of_black_moons.svg"" width=""175px"" height=""250px""></img></td>
    <td width=300 height=300><img src=""static/images/cards/3_of_black_moons.svg"" width=""175px"" height=""250px""></img></td>
  </tr>
  <tr height=200>
    <td width=300></td>
    <td width=300><img src=""static/images/keys/m.svg"" width=""35%"" height=""75%""></img></td>
  </tr>
</table>
  ",,,,,,,,,,,,,,,,,,,,,,,,,,,,
204,0,,html-keyboard-response,204,641605,0.0-7.9-3.9,bo8r6ro5c16,2022-09-19 15:58:48.751,5b3b5f13dd6af000014d2a68,1,31,0,17,0,54,male,,,"<p style=""font-size:50px"">You Lose!
No points this round.</p>",,,,,,,,,,,,,,,,,,,,,,,,,,,,
205,0,,html-keyboard-response,205,642126,0.0-7.9-4.9,bo8r6ro5c16,2022-09-19 15:58:48.751,5b3b5f13dd6af000014d2a68,1,31,0,17,0,54,male,,,,,,1.0,choice,9.0,B,D,black,black,moons,stars,B,D,B,black,moons,1247.8000000045,0.0,1.0,0,right,1189.8999999985,3.0,0.0,0.0,,,
206,0,,html-keyboard-response,206,643560,0.0-7.10-0.10,bo8r6ro5c16,2022-09-19 15:58:48.751,5b3b5f13dd6af000014d2a68,1,31,0,17,0,54,male,1431.799999997,,"
  <table>
  <tr height=300>
    <td width=300 height=300><img src=""static/images/cards/stack_of_red_stars.svg"" width=""175px"" height=""250px""></img></td>
    <td width=300 height=300><img src=""static/images/cards/stack_of_black_stars.svg"" width=""175px"" height=""250px""></img></td>
  </tr>
  <tr height=200>
    <td width=300><img src=""static/images/keys/w.svg"" width=""35%"" height=""75%""></img></td>
    <td width=300><img src=""static/images/keys/o.svg"" width=""35%"" height=""75%""></img></td>
  </tr>
</table>
  ",87.0,1.0,,,,,,,,,,,,,,,,,,,,,,,,,,
207,0,,html-keyboard-response,207,645186,0.0-7.10-1.10,bo8r6ro5c16,2022-09-19 15:58:48.751,5b3b5f13dd6af000014d2a68,1,31,0,17,0,54,male,1111.0,,"
  <table>
  <tr height=300>
    <td width=300 height=300><img src=""static/images/cards/back_of_red_stars.svg"" width=""175px"" height=""250px""></img></td>
    <td width=300 height=300><img src=""static/images/cards/back_of_red_stars.svg"" width=""175px"" height=""250px""></img></td>
  </tr>
  <tr height=200>
    <td width=300><img src=""static/images/keys/z.svg"" width=""35%"" height=""75%""></img></td>
    <td width=300><img src=""static/images/keys/m.svg"" width=""35%"" height=""75%""></img></td>
  </tr>
</table>
  ",90.0,1.0,,,,,,,,,,,,,,,,,,,,,,,,,,
208,0,,html-keyboard-response,208,646693,0.0-7.10-2.10,bo8r6ro5c16,2022-09-19 15:58:48.751,5b3b5f13dd6af000014d2a68,1,31,0,17,0,54,male,,,"
  <table>
  <tr height=300>
    <td width=300 height=300><img src=""static/images/cards/4_of_red_stars.svg"" width=""175px"" height=""250px""></img></td>
    <td width=300 height=300><img src=""static/images/cards/back_of_red_stars.svg"" width=""175px"" height=""250px""></img></td>
  </tr>
  <tr height=200>
    <td width=300><img src=""static/images/keys/z.svg"" width=""35%"" height=""75%""></img></td>
    <td width=300><img src=""static/images/keys/m.svg"" width=""35%"" height=""75%""></img></td>
  </tr>
</table>
  ",,,,,,,,,,,,,,,,,,,,,,,,,,,,
209,0,,html-keyboard-response,209,648195,0.0-7.10-3.10,bo8r6ro5c16,2022-09-19 15:58:48.751,5b3b5f13dd6af000014d2a68,1,31,0,17,0,54,male,,,"<p style=""font-size:50px"">You Lose!
No points this round.</p>",,,,,,,,,,,,,,,,,,,,,,,,,,,,
210,0,,html-keyboard-response,210,648701,0.0-7.10-4.10,bo8r6ro5c16,2022-09-19 15:58:48.751,5b3b5f13dd6af000014d2a68,1,31,0,17,0,54,male,,,,,,1.0,choice,10.0,C,D,red,black,stars,stars,C,D,C,red,stars,1431.799999997,1.0,0.0,NA,left,1111.0,4.0,0.0,0.0,,,
211,0,,html-keyboard-response,211,650515,0.0-7.11-0.11,bo8r6ro5c16,2022-09-19 15:58:48.751,5b3b5f13dd6af000014d2a68,1,31,0,17,0,54,male,1812.1000000015,,"
  <table>
  <tr height=300>
    <td width=300 height=300><img src=""static/images/cards/stack_of_black_moons.svg"" width=""175px"" height=""250px""></img></td>
    <td width=300 height=300><img src=""static/images/cards/stack_of_black_stars.svg"" width=""175px"" height=""250px""></img></td>
  </tr>
  <tr height=200>
    <td width=300><img src=""static/images/keys/w.svg"" width=""35%"" height=""75%""></img></td>
    <td width=300><img src=""static/images/keys/o.svg"" width=""35%"" height=""75%""></img></td>
  </tr>
</table>
  ",87.0,1.0,,,,,,,,,,,,,,,,,,,,,,,,,,
212,0,,html-keyboard-response,212,652104,0.0-7.11-1.11,bo8r6ro5c16,2022-09-19 15:58:48.751,5b3b5f13dd6af000014d2a68,1,31,0,17,0,54,male,1072.8999999985,,"
  <table>
  <tr height=300>
    <td width=300 height=300><img src=""static/images/cards/back_of_black_moons.svg"" width=""175px"" height=""250px""></img></td>
    <td width=300 height=300><img src=""static/images/cards/back_of_black_moons.svg"" width=""175px"" height=""250px""></img></td>
  </tr>
  <tr height=200>
    <td width=300></td>
    <td width=300><img src=""static/images/keys/m.svg"" width=""35%"" height=""75%""></img></td>
  </tr>
</table>
  ",77.0,1.0,,,,,,,,,,,,,,,,,,,,,,,,,,
213,0,,html-keyboard-response,213,653619,0.0-7.11-2.11,bo8r6ro5c16,2022-09-19 15:58:48.751,5b3b5f13dd6af000014d2a68,1,31,0,17,0,54,male,,,"
  <table>
  <tr height=300>
    <td width=300 height=300><img src=""static/images/cards/back_of_black_moons.svg"" width=""175px"" height=""250px""></img></td>
    <td width=300 height=300><img src=""static/images/cards/1_of_black_moons.svg"" width=""175px"" height=""250px""></img></td>
  </tr>
  <tr height=200>
    <td width=300></td>
    <td width=300><img src=""static/images/keys/m.svg"" width=""35%"" height=""75%""></img></td>
  </tr>
</table>
  ",,,,,,,,,,,,,,,,,,,,,,,,,,,,
214,0,,html-keyboard-response,214,655135,0.0-7.11-3.11,bo8r6ro5c16,2022-09-19 15:58:48.751,5b3b5f13dd6af000014d2a68,1,31,0,17,0,54,male,,,"<p style=""font-size:50px"">You Lose!
No points this round.</p>",,,,,,,,,,,,,,,,,,,,,,,,,,,,
215,0,,html-keyboard-response,215,655655,0.0-7.11-4.11,bo8r6ro5c16,2022-09-19 15:58:48.751,5b3b5f13dd6af000014d2a68,1,31,0,17,0,54,male,,,,,,1.0,choice,11.0,B,D,black,black,moons,stars,B,D,B,black,moons,1812.1000000015,0.0,1.0,0,right,1072.8999999985,1.0,0.0,0.0,,,
216,0,,html-keyboard-response,216,657364,0.0-7.12-0.12,bo8r6ro5c16,2022-09-19 15:58:48.751,5b3b5f13dd6af000014d2a68,1,31,0,17,0,54,male,1707.8999999985,,"
  <table>
  <tr height=300>
    <td width=300 height=300><img src=""static/images/cards/stack_of_black_stars.svg"" width=""175px"" height=""250px""></img></td>
    <td width=300 height=300><img src=""static/images/cards/stack_of_red_moons.svg"" width=""175px"" height=""250px""></img></td>
  </tr>
  <tr height=200>
    <td width=300><img src=""static/images/keys/w.svg"" width=""35%"" height=""75%""></img></td>
    <td width=300><img src=""static/images/keys/o.svg"" width=""35%"" height=""75%""></img></td>
  </tr>
</table>
  ",79.0,1.0,,,,,,,,,,,,,,,,,,,,,,,,,,
217,0,,html-keyboard-response,217,659097,0.0-7.12-1.12,bo8r6ro5c16,2022-09-19 15:58:48.751,5b3b5f13dd6af000014d2a68,1,31,0,17,0,54,male,1226.5,,"
  <table>
  <tr height=300>
    <td width=300 height=300><img src=""static/images/cards/back_of_red_moons.svg"" width=""175px"" height=""250px""></img></td>
    <td width=300 height=300><img src=""static/images/cards/back_of_red_moons.svg"" width=""175px"" height=""250px""></img></td>
  </tr>
  <tr height=200>
    <td width=300><img src=""static/images/keys/z.svg"" width=""35%"" height=""75%""></img></td>
    <td width=300><img src=""static/images/keys/m.svg"" width=""35%"" height=""75%""></img></td>
  </tr>
</table>
  ",77.0,1.0,,,,,,,,,,,,,,,,,,,,,,,,,,
218,0,,html-keyboard-response,218,660605,0.0-7.12-2.12,bo8r6ro5c16,2022-09-19 15:58:48.751,5b3b5f13dd6af000014d2a68,1,31,0,17,0,54,male,,,"
  <table>
  <tr height=300>
    <td width=300 height=300><img src=""static/images/cards/back_of_red_moons.svg"" width=""175px"" height=""250px""></img></td>
    <td width=300 height=300><img src=""static/images/cards/4_of_red_moons.svg"" width=""175px"" height=""250px""></img></td>
  </tr>
  <tr height=200>
    <td width=300><img src=""static/images/keys/z.svg"" width=""35%"" height=""75%""></img></td>
    <td width=300><img src=""static/images/keys/m.svg"" width=""35%"" height=""75%""></img></td>
  </tr>
</table>
  ",,,,,,,,,,,,,,,,,,,,,,,,,,,,
219,0,,html-keyboard-response,219,662108,0.0-7.12-3.12,bo8r6ro5c16,2022-09-19 15:58:48.751,5b3b5f13dd6af000014d2a68,1,31,0,17,0,54,male,,,"<p style=""font-size:50px"">You Lose!
No points this round.</p>",,,,,,,,,,,,,,,,,,,,,,,,,,,,
220,0,,html-keyboard-response,220,662613,0.0-7.12-4.12,bo8r6ro5c16,2022-09-19 15:58:48.751,5b3b5f13dd6af000014d2a68,1,31,0,17,0,54,male,,,,,,1.0,choice,12.0,A,D,black,red,stars,moons,D,A,A,red,moons,1707.8999999985,1.0,1.0,NA,right,1226.5,4.0,0.0,0.0,,,
221,0,,html-keyboard-response,221,663646,0.0-7.13-0.13,bo8r6ro5c16,2022-09-19 15:58:48.751,5b3b5f13dd6af000014d2a68,1,31,0,17,0,54,male,1030.3999999985,,"
  <table>
  <tr height=300>
    <td width=300 height=300><img src=""static/images/cards/stack_of_red_moons.svg"" width=""175px"" height=""250px""></img></td>
    <td width=300 height=300><img src=""static/images/cards/stack_of_black_moons.svg"" width=""175px"" height=""250px""></img></td>
  </tr>
  <tr height=200>
    <td width=300><img src=""static/images/keys/w.svg"" width=""35%"" height=""75%""></img></td>
    <td width=300><img src=""static/images/keys/o.svg"" width=""35%"" height=""75%""></img></td>
  </tr>
</table>
  ",87.0,1.0,,,,,,,,,,,,,,,,,,,,,,,,,,
222,0,,html-keyboard-response,222,664638,0.0-7.13-1.13,bo8r6ro5c16,2022-09-19 15:58:48.751,5b3b5f13dd6af000014d2a68,1,31,0,17,0,54,male,477.900000006,,"
  <table>
  <tr height=300>
    <td width=300 height=300><img src=""static/images/cards/back_of_red_moons.svg"" width=""175px"" height=""250px""></img></td>
    <td width=300 height=300><img src=""static/images/cards/back_of_red_moons.svg"" width=""175px"" height=""250px""></img></td>
  </tr>
  <tr height=200>
    <td width=300><img src=""static/images/keys/z.svg"" width=""35%"" height=""75%""></img></td>
    <td width=300><img src=""static/images/keys/m.svg"" width=""35%"" height=""75%""></img></td>
  </tr>
</table>
  ",90.0,1.0,,,,,,,,,,,,,,,,,,,,,,,,,,
223,0,,html-keyboard-response,223,666144,0.0-7.13-2.13,bo8r6ro5c16,2022-09-19 15:58:48.751,5b3b5f13dd6af000014d2a68,1,31,0,17,0,54,male,,,"
  <table>
  <tr height=300>
    <td width=300 height=300><img src=""static/images/cards/4_of_red_moons.svg"" width=""175px"" height=""250px""></img></td>
    <td width=300 height=300><img src=""static/images/cards/back_of_red_moons.svg"" width=""175px"" height=""250px""></img></td>
  </tr>
  <tr height=200>
    <td width=300><img src=""static/images/keys/z.svg"" width=""35%"" height=""75%""></img></td>
    <td width=300><img src=""static/images/keys/m.svg"" width=""35%"" height=""75%""></img></td>
  </tr>
</table>
  ",,,,,,,,,,,,,,,,,,,,,,,,,,,,
224,0,,html-keyboard-response,224,667662,0.0-7.13-3.13,bo8r6ro5c16,2022-09-19 15:58:48.751,5b3b5f13dd6af000014d2a68,1,31,0,17,0,54,male,,,"<p style=""font-size:50px"">You Lose!
No points this round.</p>",,,,,,,,,,,,,,,,,,,,,,,,,,,,
225,0,,html-keyboard-response,225,668168,0.0-7.13-4.13,bo8r6ro5c16,2022-09-19 15:58:48.751,5b3b5f13dd6af000014d2a68,1,31,0,17,0,54,male,,,,,,1.0,choice,13.0,A,B,red,black,moons,moons,A,B,A,red,moons,1030.3999999985,1.0,1.0,NA,left,477.900000006,4.0,0.0,0.0,,,
226,0,,html-keyboard-response,226,669555,0.0-7.14-0.14,bo8r6ro5c16,2022-09-19 15:58:48.751,5b3b5f13dd6af000014d2a68,1,31,0,17,0,54,male,1385.0,,"
  <table>
  <tr height=300>
    <td width=300 height=300><img src=""static/images/cards/stack_of_red_moons.svg"" width=""175px"" height=""250px""></img></td>
    <td width=300 height=300><img src=""static/images/cards/stack_of_red_stars.svg"" width=""175px"" height=""250px""></img></td>
  </tr>
  <tr height=200>
    <td width=300><img src=""static/images/keys/w.svg"" width=""35%"" height=""75%""></img></td>
    <td width=300><img src=""static/images/keys/o.svg"" width=""35%"" height=""75%""></img></td>
  </tr>
</table>
  ",87.0,1.0,,,,,,,,,,,,,,,,,,,,,,,,,,
227,0,,html-keyboard-response,227,671128,0.0-7.14-1.14,bo8r6ro5c16,2022-09-19 15:58:48.751,5b3b5f13dd6af000014d2a68,1,31,0,17,0,54,male,1061.299999997,,"
  <table>
  <tr height=300>
    <td width=300 height=300><img src=""static/images/cards/back_of_red_moons.svg"" width=""175px"" height=""250px""></img></td>
    <td width=300 height=300><img src=""static/images/cards/back_of_red_moons.svg"" width=""175px"" height=""250px""></img></td>
  </tr>
  <tr height=200>
    <td width=300><img src=""static/images/keys/z.svg"" width=""35%"" height=""75%""></img></td>
    <td width=300><img src=""static/images/keys/m.svg"" width=""35%"" height=""75%""></img></td>
  </tr>
</table>
  ",77.0,1.0,,,,,,,,,,,,,,,,,,,,,,,,,,
228,0,,html-keyboard-response,228,672638,0.0-7.14-2.14,bo8r6ro5c16,2022-09-19 15:58:48.751,5b3b5f13dd6af000014d2a68,1,31,0,17,0,54,male,,,"
  <table>
  <tr height=300>
    <td width=300 height=300><img src=""static/images/cards/back_of_red_moons.svg"" width=""175px"" height=""250px""></img></td>
    <td width=300 height=300><img src=""static/images/cards/10_of_red_moons.svg"" width=""175px"" height=""250px""></img></td>
  </tr>
  <tr height=200>
    <td width=300><img src=""static/images/keys/z.svg"" width=""35%"" height=""75%""></img></td>
    <td width=300><img src=""static/images/keys/m.svg"" width=""35%"" height=""75%""></img></td>
  </tr>
</table>
  ",,,,,,,,,,,,,,,,,,,,,,,,,,,,
229,0,,html-keyboard-response,229,674152,0.0-7.14-3.14,bo8r6ro5c16,2022-09-19 15:58:48.751,5b3b5f13dd6af000014d2a68,1,31,0,17,0,54,male,,,"<p style=""font-size:50px"">You win!
+10 points this round!</p>",,,,,,,,,,,,,,,,,,,,,,,,,,,,
230,0,,html-keyboard-response,230,674658,0.0-7.14-4.14,bo8r6ro5c16,2022-09-19 15:58:48.751,5b3b5f13dd6af000014d2a68,1,31,0,17,0,54,male,,,,,,1.0,choice,14.0,A,C,red,red,moons,stars,A,C,A,red,moons,1385.0,1.0,1.0,NA,right,1061.299999997,10.0,1.0,1.0,,,
231,0,,html-keyboard-response,231,675759,0.0-7.15-0.15,bo8r6ro5c16,2022-09-19 15:58:48.751,5b3b5f13dd6af000014d2a68,1,31,0,17,0,54,male,1099.3999999985,,"
  <table>
  <tr height=300>
    <td width=300 height=300><img src=""static/images/cards/stack_of_red_stars.svg"" width=""175px"" height=""250px""></img></td>
    <td width=300 height=300><img src=""static/images/cards/stack_of_red_moons.svg"" width=""175px"" height=""250px""></img></td>
  </tr>
  <tr height=200>
    <td width=300><img src=""static/images/keys/w.svg"" width=""35%"" height=""75%""></img></td>
    <td width=300><img src=""static/images/keys/o.svg"" width=""35%"" height=""75%""></img></td>
  </tr>
</table>
  ",87.0,1.0,,,,,,,,,,,,,,,,,,,,,,,,,,
232,0,,html-keyboard-response,232,677218,0.0-7.15-1.15,bo8r6ro5c16,2022-09-19 15:58:48.751,5b3b5f13dd6af000014d2a68,1,31,0,17,0,54,male,945.5,,"
  <table>
  <tr height=300>
    <td width=300 height=300><img src=""static/images/cards/back_of_red_stars.svg"" width=""175px"" height=""250px""></img></td>
    <td width=300 height=300><img src=""static/images/cards/back_of_red_stars.svg"" width=""175px"" height=""250px""></img></td>
  </tr>
  <tr height=200>
    <td width=300><img src=""static/images/keys/z.svg"" width=""35%"" height=""75%""></img></td>
    <td width=300><img src=""static/images/keys/m.svg"" width=""35%"" height=""75%""></img></td>
  </tr>
</table>
  ",77.0,1.0,,,,,,,,,,,,,,,,,,,,,,,,,,
233,0,,html-keyboard-response,233,678730,0.0-7.15-2.15,bo8r6ro5c16,2022-09-19 15:58:48.751,5b3b5f13dd6af000014d2a68,1,31,0,17,0,54,male,,,"
  <table>
  <tr height=300>
    <td width=300 height=300><img src=""static/images/cards/back_of_red_stars.svg"" width=""175px"" height=""250px""></img></td>
    <td width=300 height=300><img src=""static/images/cards/10_of_red_stars.svg"" width=""175px"" height=""250px""></img></td>
  </tr>
  <tr height=200>
    <td width=300><img src=""static/images/keys/z.svg"" width=""35%"" height=""75%""></img></td>
    <td width=300><img src=""static/images/keys/m.svg"" width=""35%"" height=""75%""></img></td>
  </tr>
</table>
  ",,,,,,,,,,,,,,,,,,,,,,,,,,,,
234,0,,html-keyboard-response,234,680242,0.0-7.15-3.15,bo8r6ro5c16,2022-09-19 15:58:48.751,5b3b5f13dd6af000014d2a68,1,31,0,17,0,54,male,,,"<p style=""font-size:50px"">You win!
+10 points this round!</p>",,,,,,,,,,,,,,,,,,,,,,,,,,,,
235,0,,html-keyboard-response,235,680748,0.0-7.15-4.15,bo8r6ro5c16,2022-09-19 15:58:48.751,5b3b5f13dd6af000014d2a68,1,31,0,17,0,54,male,,,,,,1.0,choice,15.0,A,C,red,red,stars,moons,C,A,C,red,stars,1099.3999999985,1.0,0.0,NA,right,945.5,10.0,1.0,1.0,,,
236,0,,html-keyboard-response,236,681978,0.0-7.16-0.16,bo8r6ro5c16,2022-09-19 15:58:48.751,5b3b5f13dd6af000014d2a68,1,31,0,17,0,54,male,1227.299999997,,"
  <table>
  <tr height=300>
    <td width=300 height=300><img src=""static/images/cards/stack_of_red_stars.svg"" width=""175px"" height=""250px""></img></td>
    <td width=300 height=300><img src=""static/images/cards/stack_of_red_moons.svg"" width=""175px"" height=""250px""></img></td>
  </tr>
  <tr height=200>
    <td width=300><img src=""static/images/keys/w.svg"" width=""35%"" height=""75%""></img></td>
    <td width=300><img src=""static/images/keys/o.svg"" width=""35%"" height=""75%""></img></td>
  </tr>
</table>
  ",87.0,1.0,,,,,,,,,,,,,,,,,,,,,,,,,,
237,0,,html-keyboard-response,237,683215,0.0-7.16-1.16,bo8r6ro5c16,2022-09-19 15:58:48.751,5b3b5f13dd6af000014d2a68,1,31,0,17,0,54,male,719.8999999985,,"
  <table>
  <tr height=300>
    <td width=300 height=300><img src=""static/images/cards/back_of_red_stars.svg"" width=""175px"" height=""250px""></img></td>
    <td width=300 height=300><img src=""static/images/cards/back_of_red_stars.svg"" width=""175px"" height=""250px""></img></td>
  </tr>
  <tr height=200>
    <td width=300><img src=""static/images/keys/z.svg"" width=""35%"" height=""75%""></img></td>
    <td width=300><img src=""static/images/keys/m.svg"" width=""35%"" height=""75%""></img></td>
  </tr>
</table>
  ",90.0,1.0,,,,,,,,,,,,,,,,,,,,,,,,,,
238,0,,html-keyboard-response,238,684727,0.0-7.16-2.16,bo8r6ro5c16,2022-09-19 15:58:48.751,5b3b5f13dd6af000014d2a68,1,31,0,17,0,54,male,,,"
  <table>
  <tr height=300>
    <td width=300 height=300><img src=""static/images/cards/8_of_red_stars.svg"" width=""175px"" height=""250px""></img></td>
    <td width=300 height=300><img src=""static/images/cards/back_of_red_stars.svg"" width=""175px"" height=""250px""></img></td>
  </tr>
  <tr height=200>
    <td width=300><img src=""static/images/keys/z.svg"" width=""35%"" height=""75%""></img></td>
    <td width=300><img src=""static/images/keys/m.svg"" width=""35%"" height=""75%""></img></td>
  </tr>
</table>
  ",,,,,,,,,,,,,,,,,,,,,,,,,,,,
239,0,,html-keyboard-response,239,686242,0.0-7.16-3.16,bo8r6ro5c16,2022-09-19 15:58:48.751,5b3b5f13dd6af000014d2a68,1,31,0,17,0,54,male,,,"<p style=""font-size:50px"">You win!
+10 points this round!</p>",,,,,,,,,,,,,,,,,,,,,,,,,,,,
240,0,,html-keyboard-response,240,686753,0.0-7.16-4.16,bo8r6ro5c16,2022-09-19 15:58:48.751,5b3b5f13dd6af000014d2a68,1,31,0,17,0,54,male,,,,,,1.0,choice,16.0,A,C,red,red,stars,moons,C,A,C,red,stars,1227.299999997,1.0,0.0,NA,left,719.8999999985,8.0,1.0,1.0,,,
