,index,success,trial_type,trial_index,time_elapsed,internal_node_id,subject,date,prol_id,ctbl,sense_of_control_A,sense_of_control_B,sense_of_control_C,sense_of_control_D,age,gender,rt,url,stimulus,key_press,npress,is_data_trial,phase,trial,deck1,deck2,col1,col2,sym1,sym2,deck_l,deck_r,chosen_deck,chosen_col,chosen_sym,deck_rt,choose_choice,mutual_info,hidden_key,chosen_card,card_rt,player_num,win_card,outcome,mock_rating,response,responses
0,0,1.0,fullscreen,0,74795,0.0-0.0,depslk9jlns,2022-09-19 16:45:10.704,631b45872f295244edb41f3e,3,57,38,89,72,30,Male,,,,,,,,,,,,,,,,,,,,,,,,,,,,,,,
1,0,,external-html,1,83225,0.0-1.0,depslk9jlns,2022-09-19 16:45:10.704,631b45872f295244edb41f3e,3,57,38,89,72,30,Male,8049.1000000238,static/js/sub/consent.html,,,,,,,,,,,,,,,,,,,,,,,,,,,,,
2,0,,call-function,2,83226,0.0-2.0,depslk9jlns,2022-09-19 16:45:10.704,631b45872f295244edb41f3e,3,57,38,89,72,30,Male,,,,,,,,,,,,,,,,,,,,,,,,,,,,,,,
3,0,,image-keyboard-response,3,87054,0.0-3.0-0.0,depslk9jlns,2022-09-19 16:45:10.704,631b45872f295244edb41f3e,3,57,38,89,72,30,Male,3827.6999999881,,static/images/instructions_CB_3/Slide1.png,39.0,,,,,,,,,,,,,,,,,,,,,,,,,,,
4,0,,image-keyboard-response,4,88037,0.0-3.1-0.1,depslk9jlns,2022-09-19 16:45:10.704,631b45872f295244edb41f3e,3,57,38,89,72,30,Male,981.2999999821,,static/images/instructions_CB_3/Slide2.png,37.0,,,,,,,,,,,,,,,,,,,,,,,,,,,
5,0,,image-keyboard-response,5,88428,0.0-3.2-0.2,depslk9jlns,2022-09-19 16:45:10.704,631b45872f295244edb41f3e,3,57,38,89,72,30,Male,389.7999999821,,static/images/instructions_CB_3/Slide1.png,39.0,,,,,,,,,,,,,,,,,,,,,,,,,,,
6,0,,image-keyboard-response,6,94396,0.0-3.3-0.3,depslk9jlns,2022-09-19 16:45:10.704,631b45872f295244edb41f3e,3,57,38,89,72,30,Male,5967.3000000119,,static/images/instructions_CB_3/Slide2.png,39.0,,,,,,,,,,,,,,,,,,,,,,,,,,,
7,0,,image-keyboard-response,7,98397,0.0-3.4-0.4,depslk9jlns,2022-09-19 16:45:10.704,631b45872f295244edb41f3e,3,57,38,89,72,30,Male,3999.2000000179,,static/images/instructions_CB_3/Slide3.png,39.0,,,,,,,,,,,,,,,,,,,,,,,,,,,
8,0,,image-keyboard-response,8,103620,0.0-3.5-0.5,depslk9jlns,2022-09-19 16:45:10.704,631b45872f295244edb41f3e,3,57,38,89,72,30,Male,5221.8000000119,,static/images/instructions_CB_3/Slide4.png,39.0,,,,,,,,,,,,,,,,,,,,,,,,,,,
9,0,,image-keyboard-response,9,111933,0.0-3.6-0.6,depslk9jlns,2022-09-19 16:45:10.704,631b45872f295244edb41f3e,3,57,38,89,72,30,Male,8311.6999999881,,static/images/instructions_CB_3/Slide5.png,39.0,,,,,,,,,,,,,,,,,,,,,,,,,,,
10,0,,image-keyboard-response,10,113685,0.0-3.7-0.7,depslk9jlns,2022-09-19 16:45:10.704,631b45872f295244edb41f3e,3,57,38,89,72,30,Male,1750.5,,static/images/instructions_CB_3/Slide6.png,39.0,,,,,,,,,,,,,,,,,,,,,,,,,,,
11,0,,image-keyboard-response,11,124677,0.0-3.8-0.8,depslk9jlns,2022-09-19 16:45:10.704,631b45872f295244edb41f3e,3,57,38,89,72,30,Male,10990.2999999821,,static/images/instructions_CB_3/Slide7.png,39.0,,,,,,,,,,,,,,,,,,,,,,,,,,,
12,0,,image-keyboard-response,12,142518,0.0-3.9-0.9,depslk9jlns,2022-09-19 16:45:10.704,631b45872f295244edb41f3e,3,57,38,89,72,30,Male,17840.0,,static/images/instructions_CB_3/Slide8.png,37.0,,,,,,,,,,,,,,,,,,,,,,,,,,,
13,0,,image-keyboard-response,13,142821,0.0-3.10-0.10,depslk9jlns,2022-09-19 16:45:10.704,631b45872f295244edb41f3e,3,57,38,89,72,30,Male,302.0,,static/images/instructions_CB_3/Slide7.png,39.0,,,,,,,,,,,,,,,,,,,,,,,,,,,
14,0,,image-keyboard-response,14,148541,0.0-3.11-0.11,depslk9jlns,2022-09-19 16:45:10.704,631b45872f295244edb41f3e,3,57,38,89,72,30,Male,5718.900000006,,static/images/instructions_CB_3/Slide8.png,39.0,,,,,,,,,,,,,,,,,,,,,,,,,,,
15,0,,image-keyboard-response,15,153469,0.0-3.12-0.12,depslk9jlns,2022-09-19 16:45:10.704,631b45872f295244edb41f3e,3,57,38,89,72,30,Male,4927.8000000119,,static/images/instructions_CB_3/Slide9.png,39.0,,,,,,,,,,,,,,,,,,,,,,,,,,,
16,0,,image-keyboard-response,16,165574,0.0-3.13-0.13,depslk9jlns,2022-09-19 16:45:10.704,631b45872f295244edb41f3e,3,57,38,89,72,30,Male,12103.599999994,,static/images/instructions_CB_3/Slide10.png,39.0,,,,,,,,,,,,,,,,,,,,,,,,,,,
17,0,,image-keyboard-response,17,170589,0.0-3.14-0.14,depslk9jlns,2022-09-19 16:45:10.704,631b45872f295244edb41f3e,3,57,38,89,72,30,Male,5014.5,,static/images/instructions_CB_3/Slide11.png,39.0,,,,,,,,,,,,,,,,,,,,,,,,,,,
18,0,,image-keyboard-response,18,191341,0.0-3.15-0.15,depslk9jlns,2022-09-19 16:45:10.704,631b45872f295244edb41f3e,3,57,38,89,72,30,Male,20751.400000006,,static/images/instructions_CB_3/Slide12.png,39.0,,,,,,,,,,,,,,,,,,,,,,,,,,,
19,0,,image-keyboard-response,19,201653,0.0-3.16-0.16,depslk9jlns,2022-09-19 16:45:10.704,631b45872f295244edb41f3e,3,57,38,89,72,30,Male,10311.0,,static/images/instructions_CB_3/Slide13.png,39.0,,,,,,,,,,,,,,,,,,,,,,,,,,,
20,0,,image-keyboard-response,20,204382,0.0-3.17-0.17,depslk9jlns,2022-09-19 16:45:10.704,631b45872f295244edb41f3e,3,57,38,89,72,30,Male,2727.900000006,,static/images/instructions_CB_3/Slide14.png,39.0,,,,,,,,,,,,,,,,,,,,,,,,,,,
21,0,,image-keyboard-response,21,208788,0.0-3.18-0.18,depslk9jlns,2022-09-19 16:45:10.704,631b45872f295244edb41f3e,3,57,38,89,72,30,Male,4406.099999994,,static/images/instructions_CB_3/Slide15.png,39.0,,,,,,,,,,,,,,,,,,,,,,,,,,,
22,0,,image-keyboard-response,22,211181,0.0-3.19-0.19,depslk9jlns,2022-09-19 16:45:10.704,631b45872f295244edb41f3e,3,57,38,89,72,30,Male,2391.8000000119,,static/images/instructions_CB_3/Slide16.png,39.0,,,,,,,,,,,,,,,,,,,,,,,,,,,
23,0,,image-keyboard-response,23,211854,0.0-3.20-0.20,depslk9jlns,2022-09-19 16:45:10.704,631b45872f295244edb41f3e,3,57,38,89,72,30,Male,671.7000000179,,static/images/instructions_CB_3/Slide17.png,39.0,,,,,,,,,,,,,,,,,,,,,,,,,,,
24,0,,image-keyboard-response,24,212333,0.0-3.21-0.21,depslk9jlns,2022-09-19 16:45:10.704,631b45872f295244edb41f3e,3,57,38,89,72,30,Male,478.7999999821,,static/images/instructions_CB_3/Slide18.png,37.0,,,,,,,,,,,,,,,,,,,,,,,,,,,
25,0,,image-keyboard-response,25,214685,0.0-3.22-0.22,depslk9jlns,2022-09-19 16:45:10.704,631b45872f295244edb41f3e,3,57,38,89,72,30,Male,2351.0,,static/images/instructions_CB_3/Slide17.png,39.0,,,,,,,,,,,,,,,,,,,,,,,,,,,
26,0,,image-keyboard-response,26,215781,0.0-3.23-0.23,depslk9jlns,2022-09-19 16:45:10.704,631b45872f295244edb41f3e,3,57,38,89,72,30,Male,1095.0,,static/images/instructions_CB_3/Slide18.png,39.0,,,,,,,,,,,,,,,,,,,,,,,,,,,
27,0,,image-keyboard-response,27,218101,0.0-3.24-0.24,depslk9jlns,2022-09-19 16:45:10.704,631b45872f295244edb41f3e,3,57,38,89,72,30,Male,2318.599999994,,static/images/instructions_CB_3/Slide19.png,39.0,,,,,,,,,,,,,,,,,,,,,,,,,,,
28,0,,html-keyboard-response,28,219613,0.0-4.0-0.0,depslk9jlns,2022-09-19 16:45:10.704,631b45872f295244edb41f3e,3,57,38,89,72,30,Male,,,"<img src=""static/images/cards/stack_of_black_moons.svg"" width=""175px"" height=""250px""></img>",,,,,,,,,,,,,,,,,,,,,,,,,,,,
29,0,,html-keyboard-response,29,221669,0.0-4.0-1.0,depslk9jlns,2022-09-19 16:45:10.704,631b45872f295244edb41f3e,3,57,38,89,72,30,Male,1541.2999999821,,"
  <table>
  <tr height=300>
    <td width=300 height=300><img src=""static/images/cards/back_of_black_moons.svg"" width=""175px"" height=""250px""></img></td>
    <td width=300 height=300><img src=""static/images/cards/back_of_black_moons.svg"" width=""175px"" height=""250px""></img></td>
  </tr>
  <tr height=200>
    <td width=300><img src=""static/images/keys/z.svg"" width=""35%"" height=""75%""></img></td>
    <td width=300><img src=""static/images/keys/m.svg"" width=""35%"" height=""75%""></img></td>
  </tr>
</table>
  ",90.0,1.0,,,,,,,,,,,,,,,,,,,,,,,,,,
30,0,,html-keyboard-response,30,223179,0.0-4.0-2.0,depslk9jlns,2022-09-19 16:45:10.704,631b45872f295244edb41f3e,3,57,38,89,72,30,Male,,,"
  <table>
  <tr height=300>
    <td width=300 height=300><img src=""static/images/cards/4_of_black_moons.svg"" width=""175px"" height=""250px""></img></td>
    <td width=300 height=300><img src=""static/images/cards/back_of_black_moons.svg"" width=""175px"" height=""250px""></img></td>
  </tr>
  <tr height=200>
    <td width=300><img src=""static/images/keys/z.svg"" width=""35%"" height=""75%""></img></td>
    <td width=300><img src=""static/images/keys/m.svg"" width=""35%"" height=""75%""></img></td>
  </tr>
</table>
  ",,,,,,,,,,,,,,,,,,,,,,,,,,,,
31,0,,html-keyboard-response,31,224705,0.0-4.0-3.0,depslk9jlns,2022-09-19 16:45:10.704,631b45872f295244edb41f3e,3,57,38,89,72,30,Male,,,"<p style=""font-size:50px"">You Lose!
No points this round.</p>",,,,,,,,,,,,,,,,,,,,,,,,,,,,
32,0,,html-keyboard-response,32,225223,0.0-4.0-4.0,depslk9jlns,2022-09-19 16:45:10.704,631b45872f295244edb41f3e,3,57,38,89,72,30,Male,,,,,,1.0,learning,0.0,A,,black,,moons,,,,A,black,moons,,1.0,1.0,NA,left,1541.2999999821,4.0,0.0,0.0,,,
33,0,,html-keyboard-response,33,226732,0.0-4.1-0.1,depslk9jlns,2022-09-19 16:45:10.704,631b45872f295244edb41f3e,3,57,38,89,72,30,Male,,,"<img src=""static/images/cards/stack_of_red_moons.svg"" width=""175px"" height=""250px""></img>",,,,,,,,,,,,,,,,,,,,,,,,,,,,
34,0,,html-keyboard-response,34,227982,0.0-4.1-1.1,depslk9jlns,2022-09-19 16:45:10.704,631b45872f295244edb41f3e,3,57,38,89,72,30,Male,747.099999994,,"
  <table>
  <tr height=300>
    <td width=300 height=300><img src=""static/images/cards/back_of_red_moons.svg"" width=""175px"" height=""250px""></img></td>
    <td width=300 height=300><img src=""static/images/cards/back_of_red_moons.svg"" width=""175px"" height=""250px""></img></td>
  </tr>
  <tr height=200>
    <td width=300><img src=""static/images/keys/z.svg"" width=""35%"" height=""75%""></img></td>
    <td width=300></td>
  </tr>
</table>
  ",90.0,1.0,,,,,,,,,,,,,,,,,,,,,,,,,,
35,0,,html-keyboard-response,35,229489,0.0-4.1-2.1,depslk9jlns,2022-09-19 16:45:10.704,631b45872f295244edb41f3e,3,57,38,89,72,30,Male,,,"
  <table>
  <tr height=300>
    <td width=300 height=300><img src=""static/images/cards/1_of_red_moons.svg"" width=""175px"" height=""250px""></img></td>
    <td width=300 height=300><img src=""static/images/cards/back_of_red_moons.svg"" width=""175px"" height=""250px""></img></td>
  </tr>
  <tr height=200>
    <td width=300><img src=""static/images/keys/z.svg"" width=""35%"" height=""75%""></img></td>
    <td width=300></td>
  </tr>
</table>
  ",,,,,,,,,,,,,,,,,,,,,,,,,,,,
36,0,,html-keyboard-response,36,231003,0.0-4.1-3.1,depslk9jlns,2022-09-19 16:45:10.704,631b45872f295244edb41f3e,3,57,38,89,72,30,Male,,,"<p style=""font-size:50px"">You Lose!
No points this round.</p>",,,,,,,,,,,,,,,,,,,,,,,,,,,,
37,0,,html-keyboard-response,37,231516,0.0-4.1-4.1,depslk9jlns,2022-09-19 16:45:10.704,631b45872f295244edb41f3e,3,57,38,89,72,30,Male,,,,,,1.0,learning,1.0,B,,red,,moons,,,,B,red,moons,,0.0,1.0,1,left,747.099999994,1.0,0.0,0.0,,,
38,0,,html-keyboard-response,38,233028,0.0-4.2-0.2,depslk9jlns,2022-09-19 16:45:10.704,631b45872f295244edb41f3e,3,57,38,89,72,30,Male,,,"<img src=""static/images/cards/stack_of_black_stars.svg"" width=""175px"" height=""250px""></img>",,,,,,,,,,,,,,,,,,,,,,,,,,,,
39,0,,html-keyboard-response,39,234172,0.0-4.2-1.2,depslk9jlns,2022-09-19 16:45:10.704,631b45872f295244edb41f3e,3,57,38,89,72,30,Male,630.1999999881,,"
  <table>
  <tr height=300>
    <td width=300 height=300><img src=""static/images/cards/back_of_black_stars.svg"" width=""175px"" height=""250px""></img></td>
    <td width=300 height=300><img src=""static/images/cards/back_of_black_stars.svg"" width=""175px"" height=""250px""></img></td>
  </tr>
  <tr height=200>
    <td width=300><img src=""static/images/keys/z.svg"" width=""35%"" height=""75%""></img></td>
    <td width=300><img src=""static/images/keys/m.svg"" width=""35%"" height=""75%""></img></td>
  </tr>
</table>
  ",77.0,1.0,,,,,,,,,,,,,,,,,,,,,,,,,,
40,0,,html-keyboard-response,40,235676,0.0-4.2-2.2,depslk9jlns,2022-09-19 16:45:10.704,631b45872f295244edb41f3e,3,57,38,89,72,30,Male,,,"
  <table>
  <tr height=300>
    <td width=300 height=300><img src=""static/images/cards/back_of_black_stars.svg"" width=""175px"" height=""250px""></img></td>
    <td width=300 height=300><img src=""static/images/cards/1_of_black_stars.svg"" width=""175px"" height=""250px""></img></td>
  </tr>
  <tr height=200>
    <td width=300><img src=""static/images/keys/z.svg"" width=""35%"" height=""75%""></img></td>
    <td width=300><img src=""static/images/keys/m.svg"" width=""35%"" height=""75%""></img></td>
  </tr>
</table>
  ",,,,,,,,,,,,,,,,,,,,,,,,,,,,
41,0,,html-keyboard-response,41,237197,0.0-4.2-3.2,depslk9jlns,2022-09-19 16:45:10.704,631b45872f295244edb41f3e,3,57,38,89,72,30,Male,,,"<p style=""font-size:50px"">You win!
+10 points this round!</p>",,,,,,,,,,,,,,,,,,,,,,,,,,,,
42,0,,html-keyboard-response,42,237713,0.0-4.2-4.2,depslk9jlns,2022-09-19 16:45:10.704,631b45872f295244edb41f3e,3,57,38,89,72,30,Male,,,,,,1.0,learning,2.0,C,,black,,stars,,,,C,black,stars,,1.0,0.0,NA,right,630.1999999881,1.0,0.0,1.0,,,
43,0,,html-keyboard-response,43,239217,0.0-4.3-0.3,depslk9jlns,2022-09-19 16:45:10.704,631b45872f295244edb41f3e,3,57,38,89,72,30,Male,,,"<img src=""static/images/cards/stack_of_red_stars.svg"" width=""175px"" height=""250px""></img>",,,,,,,,,,,,,,,,,,,,,,,,,,,,
44,0,,html-keyboard-response,44,240237,0.0-4.3-1.3,depslk9jlns,2022-09-19 16:45:10.704,631b45872f295244edb41f3e,3,57,38,89,72,30,Male,517.0,,"
  <table>
  <tr height=300>
    <td width=300 height=300><img src=""static/images/cards/back_of_red_stars.svg"" width=""175px"" height=""250px""></img></td>
    <td width=300 height=300><img src=""static/images/cards/back_of_red_stars.svg"" width=""175px"" height=""250px""></img></td>
  </tr>
  <tr height=200>
    <td width=300><img src=""static/images/keys/z.svg"" width=""35%"" height=""75%""></img></td>
    <td width=300></td>
  </tr>
</table>
  ",90.0,1.0,,,,,,,,,,,,,,,,,,,,,,,,,,
45,0,,html-keyboard-response,45,241750,0.0-4.3-2.3,depslk9jlns,2022-09-19 16:45:10.704,631b45872f295244edb41f3e,3,57,38,89,72,30,Male,,,"
  <table>
  <tr height=300>
    <td width=300 height=300><img src=""static/images/cards/2_of_red_stars.svg"" width=""175px"" height=""250px""></img></td>
    <td width=300 height=300><img src=""static/images/cards/back_of_red_stars.svg"" width=""175px"" height=""250px""></img></td>
  </tr>
  <tr height=200>
    <td width=300><img src=""static/images/keys/z.svg"" width=""35%"" height=""75%""></img></td>
    <td width=300></td>
  </tr>
</table>
  ",,,,,,,,,,,,,,,,,,,,,,,,,,,,
46,0,,html-keyboard-response,46,243262,0.0-4.3-3.3,depslk9jlns,2022-09-19 16:45:10.704,631b45872f295244edb41f3e,3,57,38,89,72,30,Male,,,"<p style=""font-size:50px"">You win!
+10 points this round!</p>",,,,,,,,,,,,,,,,,,,,,,,,,,,,
47,0,,html-keyboard-response,47,243777,0.0-4.3-4.3,depslk9jlns,2022-09-19 16:45:10.704,631b45872f295244edb41f3e,3,57,38,89,72,30,Male,,,,,,1.0,learning,3.0,D,,red,,stars,,,,D,red,stars,,0.0,0.0,1,left,517.0,2.0,0.0,1.0,,,
48,0,,html-keyboard-response,48,245294,0.0-4.4-0.4,depslk9jlns,2022-09-19 16:45:10.704,631b45872f295244edb41f3e,3,57,38,89,72,30,Male,,,"<img src=""static/images/cards/stack_of_red_bolts.svg"" width=""175px"" height=""250px""></img>",,,,,,,,,,,,,,,,,,,,,,,,,,,,
49,0,,html-keyboard-response,49,246669,0.0-4.4-1.4,depslk9jlns,2022-09-19 16:45:10.704,631b45872f295244edb41f3e,3,57,38,89,72,30,Male,859.2000000179,,"
  <table>
  <tr height=300>
    <td width=300 height=300><img src=""static/images/cards/back_of_red_bolts.svg"" width=""175px"" height=""250px""></img></td>
    <td width=300 height=300><img src=""static/images/cards/back_of_red_bolts.svg"" width=""175px"" height=""250px""></img></td>
  </tr>
  <tr height=200>
    <td width=300><img src=""static/images/keys/z.svg"" width=""35%"" height=""75%""></img></td>
    <td width=300><img src=""static/images/keys/m.svg"" width=""35%"" height=""75%""></img></td>
  </tr>
</table>
  ",90.0,1.0,,,,,,,,,,,,,,,,,,,,,,,,,,
50,0,,html-keyboard-response,50,248179,0.0-4.4-2.4,depslk9jlns,2022-09-19 16:45:10.704,631b45872f295244edb41f3e,3,57,38,89,72,30,Male,,,"
  <table>
  <tr height=300>
    <td width=300 height=300><img src=""static/images/cards/7_of_red_bolts.svg"" width=""175px"" height=""250px""></img></td>
    <td width=300 height=300><img src=""static/images/cards/back_of_red_bolts.svg"" width=""175px"" height=""250px""></img></td>
  </tr>
  <tr height=200>
    <td width=300><img src=""static/images/keys/z.svg"" width=""35%"" height=""75%""></img></td>
    <td width=300><img src=""static/images/keys/m.svg"" width=""35%"" height=""75%""></img></td>
  </tr>
</table>
  ",,,,,,,,,,,,,,,,,,,,,,,,,,,,
51,0,,html-keyboard-response,51,249705,0.0-4.4-3.4,depslk9jlns,2022-09-19 16:45:10.704,631b45872f295244edb41f3e,3,57,38,89,72,30,Male,,,"<p style=""font-size:50px"">You win!
+10 points this round!</p>",,,,,,,,,,,,,,,,,,,,,,,,,,,,
52,0,,html-keyboard-response,52,250212,0.0-4.4-4.4,depslk9jlns,2022-09-19 16:45:10.704,631b45872f295244edb41f3e,3,57,38,89,72,30,Male,,,,,,1.0,learning,4.0,Xc,,red,,bolts,,,,Xc,red,bolts,,1.0,0.0,NA,left,859.2000000179,7.0,1.0,1.0,,,
53,0,,html-keyboard-response,53,251714,0.0-4.5-0.5,depslk9jlns,2022-09-19 16:45:10.704,631b45872f295244edb41f3e,3,57,38,89,72,30,Male,,,"<img src=""static/images/cards/stack_of_black_bolts.svg"" width=""175px"" height=""250px""></img>",,,,,,,,,,,,,,,,,,,,,,,,,,,,
54,0,,html-keyboard-response,54,253221,0.0-4.5-1.5,depslk9jlns,2022-09-19 16:45:10.704,631b45872f295244edb41f3e,3,57,38,89,72,30,Male,995.8000000119,,"
  <table>
  <tr height=300>
    <td width=300 height=300><img src=""static/images/cards/back_of_black_bolts.svg"" width=""175px"" height=""250px""></img></td>
    <td width=300 height=300><img src=""static/images/cards/back_of_black_bolts.svg"" width=""175px"" height=""250px""></img></td>
  </tr>
  <tr height=200>
    <td width=300><img src=""static/images/keys/z.svg"" width=""35%"" height=""75%""></img></td>
    <td width=300></td>
  </tr>
</table>
  ",90.0,1.0,,,,,,,,,,,,,,,,,,,,,,,,,,
55,0,,html-keyboard-response,55,254732,0.0-4.5-2.5,depslk9jlns,2022-09-19 16:45:10.704,631b45872f295244edb41f3e,3,57,38,89,72,30,Male,,,"
  <table>
  <tr height=300>
    <td width=300 height=300><img src=""static/images/cards/8_of_black_bolts.svg"" width=""175px"" height=""250px""></img></td>
    <td width=300 height=300><img src=""static/images/cards/back_of_black_bolts.svg"" width=""175px"" height=""250px""></img></td>
  </tr>
  <tr height=200>
    <td width=300><img src=""static/images/keys/z.svg"" width=""35%"" height=""75%""></img></td>
    <td width=300></td>
  </tr>
</table>
  ",,,,,,,,,,,,,,,,,,,,,,,,,,,,
56,0,,html-keyboard-response,56,256255,0.0-4.5-3.5,depslk9jlns,2022-09-19 16:45:10.704,631b45872f295244edb41f3e,3,57,38,89,72,30,Male,,,"<p style=""font-size:50px"">You win!
+10 points this round!</p>",,,,,,,,,,,,,,,,,,,,,,,,,,,,
57,0,,html-keyboard-response,57,256772,0.0-4.5-4.5,depslk9jlns,2022-09-19 16:45:10.704,631b45872f295244edb41f3e,3,57,38,89,72,30,Male,,,,,,1.0,learning,5.0,Xnc,,black,,bolts,,,,Xnc,black,bolts,,0.0,0.0,1,left,995.8000000119,8.0,1.0,1.0,,,
58,0,,html-keyboard-response,58,258287,0.0-4.6-0.6,depslk9jlns,2022-09-19 16:45:10.704,631b45872f295244edb41f3e,3,57,38,89,72,30,Male,,,"<img src=""static/images/cards/stack_of_black_moons.svg"" width=""175px"" height=""250px""></img>",,,,,,,,,,,,,,,,,,,,,,,,,,,,
59,0,,html-keyboard-response,59,259894,0.0-4.6-1.6,depslk9jlns,2022-09-19 16:45:10.704,631b45872f295244edb41f3e,3,57,38,89,72,30,Male,1089.6999999881,,"
  <table>
  <tr height=300>
    <td width=300 height=300><img src=""static/images/cards/back_of_black_moons.svg"" width=""175px"" height=""250px""></img></td>
    <td width=300 height=300><img src=""static/images/cards/back_of_black_moons.svg"" width=""175px"" height=""250px""></img></td>
  </tr>
  <tr height=200>
    <td width=300><img src=""static/images/keys/z.svg"" width=""35%"" height=""75%""></img></td>
    <td width=300><img src=""static/images/keys/m.svg"" width=""35%"" height=""75%""></img></td>
  </tr>
</table>
  ",90.0,1.0,,,,,,,,,,,,,,,,,,,,,,,,,,
60,0,,html-keyboard-response,60,261397,0.0-4.6-2.6,depslk9jlns,2022-09-19 16:45:10.704,631b45872f295244edb41f3e,3,57,38,89,72,30,Male,,,"
  <table>
  <tr height=300>
    <td width=300 height=300><img src=""static/images/cards/6_of_black_moons.svg"" width=""175px"" height=""250px""></img></td>
    <td width=300 height=300><img src=""static/images/cards/back_of_black_moons.svg"" width=""175px"" height=""250px""></img></td>
  </tr>
  <tr height=200>
    <td width=300><img src=""static/images/keys/z.svg"" width=""35%"" height=""75%""></img></td>
    <td width=300><img src=""static/images/keys/m.svg"" width=""35%"" height=""75%""></img></td>
  </tr>
</table>
  ",,,,,,,,,,,,,,,,,,,,,,,,,,,,
61,0,,html-keyboard-response,61,262924,0.0-4.6-3.6,depslk9jlns,2022-09-19 16:45:10.704,631b45872f295244edb41f3e,3,57,38,89,72,30,Male,,,"<p style=""font-size:50px"">You win!
+10 points this round!</p>",,,,,,,,,,,,,,,,,,,,,,,,,,,,
62,0,,html-keyboard-response,62,263440,0.0-4.6-4.6,depslk9jlns,2022-09-19 16:45:10.704,631b45872f295244edb41f3e,3,57,38,89,72,30,Male,,,,,,1.0,learning,6.0,A,,black,,moons,,,,A,black,moons,,1.0,1.0,NA,left,1089.6999999881,6.0,1.0,1.0,,,
63,0,,html-keyboard-response,63,264956,0.0-4.7-0.7,depslk9jlns,2022-09-19 16:45:10.704,631b45872f295244edb41f3e,3,57,38,89,72,30,Male,,,"<img src=""static/images/cards/stack_of_red_moons.svg"" width=""175px"" height=""250px""></img>",,,,,,,,,,,,,,,,,,,,,,,,,,,,
64,0,,html-keyboard-response,64,266101,0.0-4.7-1.7,depslk9jlns,2022-09-19 16:45:10.704,631b45872f295244edb41f3e,3,57,38,89,72,30,Male,635.400000006,,"
  <table>
  <tr height=300>
    <td width=300 height=300><img src=""static/images/cards/back_of_red_moons.svg"" width=""175px"" height=""250px""></img></td>
    <td width=300 height=300><img src=""static/images/cards/back_of_red_moons.svg"" width=""175px"" height=""250px""></img></td>
  </tr>
  <tr height=200>
    <td width=300></td>
    <td width=300><img src=""static/images/keys/m.svg"" width=""35%"" height=""75%""></img></td>
  </tr>
</table>
  ",77.0,1.0,,,,,,,,,,,,,,,,,,,,,,,,,,
65,0,,html-keyboard-response,65,267607,0.0-4.7-2.7,depslk9jlns,2022-09-19 16:45:10.704,631b45872f295244edb41f3e,3,57,38,89,72,30,Male,,,"
  <table>
  <tr height=300>
    <td width=300 height=300><img src=""static/images/cards/back_of_red_moons.svg"" width=""175px"" height=""250px""></img></td>
    <td width=300 height=300><img src=""static/images/cards/10_of_red_moons.svg"" width=""175px"" height=""250px""></img></td>
  </tr>
  <tr height=200>
    <td width=300></td>
    <td width=300><img src=""static/images/keys/m.svg"" width=""35%"" height=""75%""></img></td>
  </tr>
</table>
  ",,,,,,,,,,,,,,,,,,,,,,,,,,,,
66,0,,html-keyboard-response,66,269129,0.0-4.7-3.7,depslk9jlns,2022-09-19 16:45:10.704,631b45872f295244edb41f3e,3,57,38,89,72,30,Male,,,"<p style=""font-size:50px"">You win!
+10 points this round!</p>",,,,,,,,,,,,,,,,,,,,,,,,,,,,
67,0,,html-keyboard-response,67,269648,0.0-4.7-4.7,depslk9jlns,2022-09-19 16:45:10.704,631b45872f295244edb41f3e,3,57,38,89,72,30,Male,,,,,,1.0,learning,7.0,B,,red,,moons,,,,B,red,moons,,0.0,1.0,0,right,635.400000006,10.0,1.0,1.0,,,
68,0,,html-keyboard-response,68,271165,0.0-4.8-0.8,depslk9jlns,2022-09-19 16:45:10.704,631b45872f295244edb41f3e,3,57,38,89,72,30,Male,,,"<img src=""static/images/cards/stack_of_black_stars.svg"" width=""175px"" height=""250px""></img>",,,,,,,,,,,,,,,,,,,,,,,,,,,,
69,0,,html-keyboard-response,69,272405,0.0-4.8-1.8,depslk9jlns,2022-09-19 16:45:10.704,631b45872f295244edb41f3e,3,57,38,89,72,30,Male,727.7000000179,,"
  <table>
  <tr height=300>
    <td width=300 height=300><img src=""static/images/cards/back_of_black_stars.svg"" width=""175px"" height=""250px""></img></td>
    <td width=300 height=300><img src=""static/images/cards/back_of_black_stars.svg"" width=""175px"" height=""250px""></img></td>
  </tr>
  <tr height=200>
    <td width=300><img src=""static/images/keys/z.svg"" width=""35%"" height=""75%""></img></td>
    <td width=300><img src=""static/images/keys/m.svg"" width=""35%"" height=""75%""></img></td>
  </tr>
</table>
  ",90.0,1.0,,,,,,,,,,,,,,,,,,,,,,,,,,
70,0,,html-keyboard-response,70,273915,0.0-4.8-2.8,depslk9jlns,2022-09-19 16:45:10.704,631b45872f295244edb41f3e,3,57,38,89,72,30,Male,,,"
  <table>
  <tr height=300>
    <td width=300 height=300><img src=""static/images/cards/7_of_black_stars.svg"" width=""175px"" height=""250px""></img></td>
    <td width=300 height=300><img src=""static/images/cards/back_of_black_stars.svg"" width=""175px"" height=""250px""></img></td>
  </tr>
  <tr height=200>
    <td width=300><img src=""static/images/keys/z.svg"" width=""35%"" height=""75%""></img></td>
    <td width=300><img src=""static/images/keys/m.svg"" width=""35%"" height=""75%""></img></td>
  </tr>
</table>
  ",,,,,,,,,,,,,,,,,,,,,,,,,,,,
71,0,,html-keyboard-response,71,275426,0.0-4.8-3.8,depslk9jlns,2022-09-19 16:45:10.704,631b45872f295244edb41f3e,3,57,38,89,72,30,Male,,,"<p style=""font-size:50px"">You Lose!
No points this round.</p>",,,,,,,,,,,,,,,,,,,,,,,,,,,,
72,0,,html-keyboard-response,72,275948,0.0-4.8-4.8,depslk9jlns,2022-09-19 16:45:10.704,631b45872f295244edb41f3e,3,57,38,89,72,30,Male,,,,,,1.0,learning,8.0,C,,black,,stars,,,,C,black,stars,,1.0,0.0,NA,left,727.7000000179,7.0,1.0,0.0,,,
73,0,,html-keyboard-response,73,277463,0.0-4.9-0.9,depslk9jlns,2022-09-19 16:45:10.704,631b45872f295244edb41f3e,3,57,38,89,72,30,Male,,,"<img src=""static/images/cards/stack_of_red_stars.svg"" width=""175px"" height=""250px""></img>",,,,,,,,,,,,,,,,,,,,,,,,,,,,
74,0,,html-keyboard-response,74,278429,0.0-4.9-1.9,depslk9jlns,2022-09-19 16:45:10.704,631b45872f295244edb41f3e,3,57,38,89,72,30,Male,453.099999994,,"
  <table>
  <tr height=300>
    <td width=300 height=300><img src=""static/images/cards/back_of_red_stars.svg"" width=""175px"" height=""250px""></img></td>
    <td width=300 height=300><img src=""static/images/cards/back_of_red_stars.svg"" width=""175px"" height=""250px""></img></td>
  </tr>
  <tr height=200>
    <td width=300><img src=""static/images/keys/z.svg"" width=""35%"" height=""75%""></img></td>
    <td width=300></td>
  </tr>
</table>
  ",90.0,1.0,,,,,,,,,,,,,,,,,,,,,,,,,,
75,0,,html-keyboard-response,75,279936,0.0-4.9-2.9,depslk9jlns,2022-09-19 16:45:10.704,631b45872f295244edb41f3e,3,57,38,89,72,30,Male,,,"
  <table>
  <tr height=300>
    <td width=300 height=300><img src=""static/images/cards/9_of_red_stars.svg"" width=""175px"" height=""250px""></img></td>
    <td width=300 height=300><img src=""static/images/cards/back_of_red_stars.svg"" width=""175px"" height=""250px""></img></td>
  </tr>
  <tr height=200>
    <td width=300><img src=""static/images/keys/z.svg"" width=""35%"" height=""75%""></img></td>
    <td width=300></td>
  </tr>
</table>
  ",,,,,,,,,,,,,,,,,,,,,,,,,,,,
76,0,,html-keyboard-response,76,281457,0.0-4.9-3.9,depslk9jlns,2022-09-19 16:45:10.704,631b45872f295244edb41f3e,3,57,38,89,72,30,Male,,,"<p style=""font-size:50px"">You Lose!
No points this round.</p>",,,,,,,,,,,,,,,,,,,,,,,,,,,,
77,0,,html-keyboard-response,77,281975,0.0-4.9-4.9,depslk9jlns,2022-09-19 16:45:10.704,631b45872f295244edb41f3e,3,57,38,89,72,30,Male,,,,,,1.0,learning,9.0,D,,red,,stars,,,,D,red,stars,,0.0,0.0,1,left,453.099999994,9.0,1.0,0.0,,,
78,0,,html-keyboard-response,78,283478,0.0-4.10-0.10,depslk9jlns,2022-09-19 16:45:10.704,631b45872f295244edb41f3e,3,57,38,89,72,30,Male,,,"<img src=""static/images/cards/stack_of_red_bolts.svg"" width=""175px"" height=""250px""></img>",,,,,,,,,,,,,,,,,,,,,,,,,,,,
79,0,,html-keyboard-response,79,285269,0.0-4.10-1.10,depslk9jlns,2022-09-19 16:45:10.704,631b45872f295244edb41f3e,3,57,38,89,72,30,Male,1281.5,,"
  <table>
  <tr height=300>
    <td width=300 height=300><img src=""static/images/cards/back_of_red_bolts.svg"" width=""175px"" height=""250px""></img></td>
    <td width=300 height=300><img src=""static/images/cards/back_of_red_bolts.svg"" width=""175px"" height=""250px""></img></td>
  </tr>
  <tr height=200>
    <td width=300><img src=""static/images/keys/z.svg"" width=""35%"" height=""75%""></img></td>
    <td width=300><img src=""static/images/keys/m.svg"" width=""35%"" height=""75%""></img></td>
  </tr>
</table>
  ",90.0,1.0,,,,,,,,,,,,,,,,,,,,,,,,,,
80,0,,html-keyboard-response,80,286786,0.0-4.10-2.10,depslk9jlns,2022-09-19 16:45:10.704,631b45872f295244edb41f3e,3,57,38,89,72,30,Male,,,"
  <table>
  <tr height=300>
    <td width=300 height=300><img src=""static/images/cards/3_of_red_bolts.svg"" width=""175px"" height=""250px""></img></td>
    <td width=300 height=300><img src=""static/images/cards/back_of_red_bolts.svg"" width=""175px"" height=""250px""></img></td>
  </tr>
  <tr height=200>
    <td width=300><img src=""static/images/keys/z.svg"" width=""35%"" height=""75%""></img></td>
    <td width=300><img src=""static/images/keys/m.svg"" width=""35%"" height=""75%""></img></td>
  </tr>
</table>
  ",,,,,,,,,,,,,,,,,,,,,,,,,,,,
81,0,,html-keyboard-response,81,288308,0.0-4.10-3.10,depslk9jlns,2022-09-19 16:45:10.704,631b45872f295244edb41f3e,3,57,38,89,72,30,Male,,,"<p style=""font-size:50px"">You win!
+10 points this round!</p>",,,,,,,,,,,,,,,,,,,,,,,,,,,,
82,0,,html-keyboard-response,82,288827,0.0-4.10-4.10,depslk9jlns,2022-09-19 16:45:10.704,631b45872f295244edb41f3e,3,57,38,89,72,30,Male,,,,,,1.0,learning,10.0,Xc,,red,,bolts,,,,Xc,red,bolts,,1.0,0.0,NA,left,1281.5,3.0,0.0,1.0,,,
83,0,,html-keyboard-response,83,290331,0.0-4.11-0.11,depslk9jlns,2022-09-19 16:45:10.704,631b45872f295244edb41f3e,3,57,38,89,72,30,Male,,,"<img src=""static/images/cards/stack_of_black_bolts.svg"" width=""175px"" height=""250px""></img>",,,,,,,,,,,,,,,,,,,,,,,,,,,,
84,0,,html-keyboard-response,84,291309,0.0-4.11-1.11,depslk9jlns,2022-09-19 16:45:10.704,631b45872f295244edb41f3e,3,57,38,89,72,30,Male,463.400000006,,"
  <table>
  <tr height=300>
    <td width=300 height=300><img src=""static/images/cards/back_of_black_bolts.svg"" width=""175px"" height=""250px""></img></td>
    <td width=300 height=300><img src=""static/images/cards/back_of_black_bolts.svg"" width=""175px"" height=""250px""></img></td>
  </tr>
  <tr height=200>
    <td width=300></td>
    <td width=300><img src=""static/images/keys/m.svg"" width=""35%"" height=""75%""></img></td>
  </tr>
</table>
  ",77.0,1.0,,,,,,,,,,,,,,,,,,,,,,,,,,
85,0,,html-keyboard-response,85,292822,0.0-4.11-2.11,depslk9jlns,2022-09-19 16:45:10.704,631b45872f295244edb41f3e,3,57,38,89,72,30,Male,,,"
  <table>
  <tr height=300>
    <td width=300 height=300><img src=""static/images/cards/back_of_black_bolts.svg"" width=""175px"" height=""250px""></img></td>
    <td width=300 height=300><img src=""static/images/cards/6_of_black_bolts.svg"" width=""175px"" height=""250px""></img></td>
  </tr>
  <tr height=200>
    <td width=300></td>
    <td width=300><img src=""static/images/keys/m.svg"" width=""35%"" height=""75%""></img></td>
  </tr>
</table>
  ",,,,,,,,,,,,,,,,,,,,,,,,,,,,
86,0,,html-keyboard-response,86,294345,0.0-4.11-3.11,depslk9jlns,2022-09-19 16:45:10.704,631b45872f295244edb41f3e,3,57,38,89,72,30,Male,,,"<p style=""font-size:50px"">You win!
+10 points this round!</p>",,,,,,,,,,,,,,,,,,,,,,,,,,,,
87,0,,html-keyboard-response,87,294860,0.0-4.11-4.11,depslk9jlns,2022-09-19 16:45:10.704,631b45872f295244edb41f3e,3,57,38,89,72,30,Male,,,,,,1.0,learning,11.0,Xnc,,black,,bolts,,,,Xnc,black,bolts,,0.0,0.0,0,right,463.400000006,6.0,1.0,1.0,,,
88,0,,html-keyboard-response,88,296370,0.0-4.12-0.12,depslk9jlns,2022-09-19 16:45:10.704,631b45872f295244edb41f3e,3,57,38,89,72,30,Male,,,"<img src=""static/images/cards/stack_of_black_moons.svg"" width=""175px"" height=""250px""></img>",,,,,,,,,,,,,,,,,,,,,,,,,,,,
89,0,,html-keyboard-response,89,297671,0.0-4.12-1.12,depslk9jlns,2022-09-19 16:45:10.704,631b45872f295244edb41f3e,3,57,38,89,72,30,Male,785.1999999881,,"
  <table>
  <tr height=300>
    <td width=300 height=300><img src=""static/images/cards/back_of_black_moons.svg"" width=""175px"" height=""250px""></img></td>
    <td width=300 height=300><img src=""static/images/cards/back_of_black_moons.svg"" width=""175px"" height=""250px""></img></td>
  </tr>
  <tr height=200>
    <td width=300><img src=""static/images/keys/z.svg"" width=""35%"" height=""75%""></img></td>
    <td width=300><img src=""static/images/keys/m.svg"" width=""35%"" height=""75%""></img></td>
  </tr>
</table>
  ",90.0,1.0,,,,,,,,,,,,,,,,,,,,,,,,,,
90,0,,html-keyboard-response,90,299184,0.0-4.12-2.12,depslk9jlns,2022-09-19 16:45:10.704,631b45872f295244edb41f3e,3,57,38,89,72,30,Male,,,"
  <table>
  <tr height=300>
    <td width=300 height=300><img src=""static/images/cards/8_of_black_moons.svg"" width=""175px"" height=""250px""></img></td>
    <td width=300 height=300><img src=""static/images/cards/back_of_black_moons.svg"" width=""175px"" height=""250px""></img></td>
  </tr>
  <tr height=200>
    <td width=300><img src=""static/images/keys/z.svg"" width=""35%"" height=""75%""></img></td>
    <td width=300><img src=""static/images/keys/m.svg"" width=""35%"" height=""75%""></img></td>
  </tr>
</table>
  ",,,,,,,,,,,,,,,,,,,,,,,,,,,,
91,0,,html-keyboard-response,91,300699,0.0-4.12-3.12,depslk9jlns,2022-09-19 16:45:10.704,631b45872f295244edb41f3e,3,57,38,89,72,30,Male,,,"<p style=""font-size:50px"">You win!
+10 points this round!</p>",,,,,,,,,,,,,,,,,,,,,,,,,,,,
92,0,,html-keyboard-response,92,301218,0.0-4.12-4.12,depslk9jlns,2022-09-19 16:45:10.704,631b45872f295244edb41f3e,3,57,38,89,72,30,Male,,,,,,1.0,learning,12.0,A,,black,,moons,,,,A,black,moons,,1.0,1.0,NA,left,785.1999999881,8.0,1.0,1.0,,,
93,0,,html-keyboard-response,93,302724,0.0-4.13-0.13,depslk9jlns,2022-09-19 16:45:10.704,631b45872f295244edb41f3e,3,57,38,89,72,30,Male,,,"<img src=""static/images/cards/stack_of_red_moons.svg"" width=""175px"" height=""250px""></img>",,,,,,,,,,,,,,,,,,,,,,,,,,,,
94,0,,html-keyboard-response,94,303669,0.0-4.13-1.13,depslk9jlns,2022-09-19 16:45:10.704,631b45872f295244edb41f3e,3,57,38,89,72,30,Male,432.5,,"
  <table>
  <tr height=300>
    <td width=300 height=300><img src=""static/images/cards/back_of_red_moons.svg"" width=""175px"" height=""250px""></img></td>
    <td width=300 height=300><img src=""static/images/cards/back_of_red_moons.svg"" width=""175px"" height=""250px""></img></td>
  </tr>
  <tr height=200>
    <td width=300><img src=""static/images/keys/z.svg"" width=""35%"" height=""75%""></img></td>
    <td width=300></td>
  </tr>
</table>
  ",90.0,1.0,,,,,,,,,,,,,,,,,,,,,,,,,,
95,0,,html-keyboard-response,95,305175,0.0-4.13-2.13,depslk9jlns,2022-09-19 16:45:10.704,631b45872f295244edb41f3e,3,57,38,89,72,30,Male,,,"
  <table>
  <tr height=300>
    <td width=300 height=300><img src=""static/images/cards/10_of_red_moons.svg"" width=""175px"" height=""250px""></img></td>
    <td width=300 height=300><img src=""static/images/cards/back_of_red_moons.svg"" width=""175px"" height=""250px""></img></td>
  </tr>
  <tr height=200>
    <td width=300><img src=""static/images/keys/z.svg"" width=""35%"" height=""75%""></img></td>
    <td width=300></td>
  </tr>
</table>
  ",,,,,,,,,,,,,,,,,,,,,,,,,,,,
96,0,,html-keyboard-response,96,306698,0.0-4.13-3.13,depslk9jlns,2022-09-19 16:45:10.704,631b45872f295244edb41f3e,3,57,38,89,72,30,Male,,,"<p style=""font-size:50px"">You win!
+10 points this round!</p>",,,,,,,,,,,,,,,,,,,,,,,,,,,,
97,0,,html-keyboard-response,97,307213,0.0-4.13-4.13,depslk9jlns,2022-09-19 16:45:10.704,631b45872f295244edb41f3e,3,57,38,89,72,30,Male,,,,,,1.0,learning,13.0,B,,red,,moons,,,,B,red,moons,,0.0,1.0,1,left,432.5,10.0,1.0,1.0,,,
98,0,,html-keyboard-response,98,308716,0.0-4.14-0.14,depslk9jlns,2022-09-19 16:45:10.704,631b45872f295244edb41f3e,3,57,38,89,72,30,Male,,,"<img src=""static/images/cards/stack_of_black_stars.svg"" width=""175px"" height=""250px""></img>",,,,,,,,,,,,,,,,,,,,,,,,,,,,
99,0,,html-keyboard-response,99,311221,0.0-4.14-1.14,depslk9jlns,2022-09-19 16:45:10.704,631b45872f295244edb41f3e,3,57,38,89,72,30,Male,2001.3999999762,,"
  <table>
  <tr height=300>
    <td width=300 height=300><img src=""static/images/cards/back_of_black_stars.svg"" width=""175px"" height=""250px""></img></td>
    <td width=300 height=300><img src=""static/images/cards/back_of_black_stars.svg"" width=""175px"" height=""250px""></img></td>
  </tr>
  <tr height=200>
    <td width=300><img src=""static/images/keys/z.svg"" width=""35%"" height=""75%""></img></td>
    <td width=300><img src=""static/images/keys/m.svg"" width=""35%"" height=""75%""></img></td>
  </tr>
</table>
  ",90.0,1.0,,,,,,,,,,,,,,,,,,,,,,,,,,
100,0,,html-keyboard-response,100,312737,0.0-4.14-2.14,depslk9jlns,2022-09-19 16:45:10.704,631b45872f295244edb41f3e,3,57,38,89,72,30,Male,,,"
  <table>
  <tr height=300>
    <td width=300 height=300><img src=""static/images/cards/9_of_black_stars.svg"" width=""175px"" height=""250px""></img></td>
    <td width=300 height=300><img src=""static/images/cards/back_of_black_stars.svg"" width=""175px"" height=""250px""></img></td>
  </tr>
  <tr height=200>
    <td width=300><img src=""static/images/keys/z.svg"" width=""35%"" height=""75%""></img></td>
    <td width=300><img src=""static/images/keys/m.svg"" width=""35%"" height=""75%""></img></td>
  </tr>
</table>
  ",,,,,,,,,,,,,,,,,,,,,,,,,,,,
101,0,,html-keyboard-response,101,314259,0.0-4.14-3.14,depslk9jlns,2022-09-19 16:45:10.704,631b45872f295244edb41f3e,3,57,38,89,72,30,Male,,,"<p style=""font-size:50px"">You win!
+10 points this round!</p>",,,,,,,,,,,,,,,,,,,,,,,,,,,,
102,0,,html-keyboard-response,102,314777,0.0-4.14-4.14,depslk9jlns,2022-09-19 16:45:10.704,631b45872f295244edb41f3e,3,57,38,89,72,30,Male,,,,,,1.0,learning,14.0,C,,black,,stars,,,,C,black,stars,,1.0,0.0,NA,left,2001.3999999762,9.0,1.0,1.0,,,
103,0,,html-keyboard-response,103,316279,0.0-4.15-0.15,depslk9jlns,2022-09-19 16:45:10.704,631b45872f295244edb41f3e,3,57,38,89,72,30,Male,,,"<img src=""static/images/cards/stack_of_red_stars.svg"" width=""175px"" height=""250px""></img>",,,,,,,,,,,,,,,,,,,,,,,,,,,,
104,0,,html-keyboard-response,104,317501,0.0-4.15-1.15,depslk9jlns,2022-09-19 16:45:10.704,631b45872f295244edb41f3e,3,57,38,89,72,30,Male,709.599999994,,"
  <table>
  <tr height=300>
    <td width=300 height=300><img src=""static/images/cards/back_of_red_stars.svg"" width=""175px"" height=""250px""></img></td>
    <td width=300 height=300><img src=""static/images/cards/back_of_red_stars.svg"" width=""175px"" height=""250px""></img></td>
  </tr>
  <tr height=200>
    <td width=300><img src=""static/images/keys/z.svg"" width=""35%"" height=""75%""></img></td>
    <td width=300></td>
  </tr>
</table>
  ",90.0,1.0,,,,,,,,,,,,,,,,,,,,,,,,,,
105,0,,html-keyboard-response,105,319009,0.0-4.15-2.15,depslk9jlns,2022-09-19 16:45:10.704,631b45872f295244edb41f3e,3,57,38,89,72,30,Male,,,"
  <table>
  <tr height=300>
    <td width=300 height=300><img src=""static/images/cards/6_of_red_stars.svg"" width=""175px"" height=""250px""></img></td>
    <td width=300 height=300><img src=""static/images/cards/back_of_red_stars.svg"" width=""175px"" height=""250px""></img></td>
  </tr>
  <tr height=200>
    <td width=300><img src=""static/images/keys/z.svg"" width=""35%"" height=""75%""></img></td>
    <td width=300></td>
  </tr>
</table>
  ",,,,,,,,,,,,,,,,,,,,,,,,,,,,
106,0,,html-keyboard-response,106,320531,0.0-4.15-3.15,depslk9jlns,2022-09-19 16:45:10.704,631b45872f295244edb41f3e,3,57,38,89,72,30,Male,,,"<p style=""font-size:50px"">You win!
+10 points this round!</p>",,,,,,,,,,,,,,,,,,,,,,,,,,,,
107,0,,html-keyboard-response,107,321051,0.0-4.15-4.15,depslk9jlns,2022-09-19 16:45:10.704,631b45872f295244edb41f3e,3,57,38,89,72,30,Male,,,,,,1.0,learning,15.0,D,,red,,stars,,,,D,red,stars,,0.0,0.0,1,left,709.599999994,6.0,1.0,1.0,,,
108,0,,html-keyboard-response,108,322559,0.0-4.16-0.16,depslk9jlns,2022-09-19 16:45:10.704,631b45872f295244edb41f3e,3,57,38,89,72,30,Male,,,"<img src=""static/images/cards/stack_of_red_bolts.svg"" width=""175px"" height=""250px""></img>",,,,,,,,,,,,,,,,,,,,,,,,,,,,
109,0,,html-keyboard-response,109,323396,0.0-4.16-1.16,depslk9jlns,2022-09-19 16:45:10.704,631b45872f295244edb41f3e,3,57,38,89,72,30,Male,321.0,,"
  <table>
  <tr height=300>
    <td width=300 height=300><img src=""static/images/cards/back_of_red_bolts.svg"" width=""175px"" height=""250px""></img></td>
    <td width=300 height=300><img src=""static/images/cards/back_of_red_bolts.svg"" width=""175px"" height=""250px""></img></td>
  </tr>
  <tr height=200>
    <td width=300><img src=""static/images/keys/z.svg"" width=""35%"" height=""75%""></img></td>
    <td width=300><img src=""static/images/keys/m.svg"" width=""35%"" height=""75%""></img></td>
  </tr>
</table>
  ",90.0,1.0,,,,,,,,,,,,,,,,,,,,,,,,,,
110,0,,html-keyboard-response,110,324907,0.0-4.16-2.16,depslk9jlns,2022-09-19 16:45:10.704,631b45872f295244edb41f3e,3,57,38,89,72,30,Male,,,"
  <table>
  <tr height=300>
    <td width=300 height=300><img src=""static/images/cards/7_of_red_bolts.svg"" width=""175px"" height=""250px""></img></td>
    <td width=300 height=300><img src=""static/images/cards/back_of_red_bolts.svg"" width=""175px"" height=""250px""></img></td>
  </tr>
  <tr height=200>
    <td width=300><img src=""static/images/keys/z.svg"" width=""35%"" height=""75%""></img></td>
    <td width=300><img src=""static/images/keys/m.svg"" width=""35%"" height=""75%""></img></td>
  </tr>
</table>
  ",,,,,,,,,,,,,,,,,,,,,,,,,,,,
111,0,,html-keyboard-response,111,326425,0.0-4.16-3.16,depslk9jlns,2022-09-19 16:45:10.704,631b45872f295244edb41f3e,3,57,38,89,72,30,Male,,,"<p style=""font-size:50px"">You win!
+10 points this round!</p>",,,,,,,,,,,,,,,,,,,,,,,,,,,,
112,0,,html-keyboard-response,112,326945,0.0-4.16-4.16,depslk9jlns,2022-09-19 16:45:10.704,631b45872f295244edb41f3e,3,57,38,89,72,30,Male,,,,,,1.0,learning,16.0,Xc,,red,,bolts,,,,Xc,red,bolts,,1.0,0.0,NA,left,321.0,7.0,1.0,1.0,,,
113,0,,html-keyboard-response,113,328456,0.0-4.17-0.17,depslk9jlns,2022-09-19 16:45:10.704,631b45872f295244edb41f3e,3,57,38,89,72,30,Male,,,"<img src=""static/images/cards/stack_of_black_bolts.svg"" width=""175px"" height=""250px""></img>",,,,,,,,,,,,,,,,,,,,,,,,,,,,
114,0,,html-keyboard-response,114,330150,0.0-4.17-1.17,depslk9jlns,2022-09-19 16:45:10.704,631b45872f295244edb41f3e,3,57,38,89,72,30,Male,1180.599999994,,"
  <table>
  <tr height=300>
    <td width=300 height=300><img src=""static/images/cards/back_of_black_bolts.svg"" width=""175px"" height=""250px""></img></td>
    <td width=300 height=300><img src=""static/images/cards/back_of_black_bolts.svg"" width=""175px"" height=""250px""></img></td>
  </tr>
  <tr height=200>
    <td width=300></td>
    <td width=300><img src=""static/images/keys/m.svg"" width=""35%"" height=""75%""></img></td>
  </tr>
</table>
  ",77.0,1.0,,,,,,,,,,,,,,,,,,,,,,,,,,
115,0,,html-keyboard-response,115,331661,0.0-4.17-2.17,depslk9jlns,2022-09-19 16:45:10.704,631b45872f295244edb41f3e,3,57,38,89,72,30,Male,,,"
  <table>
  <tr height=300>
    <td width=300 height=300><img src=""static/images/cards/back_of_black_bolts.svg"" width=""175px"" height=""250px""></img></td>
    <td width=300 height=300><img src=""static/images/cards/3_of_black_bolts.svg"" width=""175px"" height=""250px""></img></td>
  </tr>
  <tr height=200>
    <td width=300></td>
    <td width=300><img src=""static/images/keys/m.svg"" width=""35%"" height=""75%""></img></td>
  </tr>
</table>
  ",,,,,,,,,,,,,,,,,,,,,,,,,,,,
116,0,,html-keyboard-response,116,333183,0.0-4.17-3.17,depslk9jlns,2022-09-19 16:45:10.704,631b45872f295244edb41f3e,3,57,38,89,72,30,Male,,,"<p style=""font-size:50px"">You win!
+10 points this round!</p>",,,,,,,,,,,,,,,,,,,,,,,,,,,,
117,0,,html-keyboard-response,117,333700,0.0-4.17-4.17,depslk9jlns,2022-09-19 16:45:10.704,631b45872f295244edb41f3e,3,57,38,89,72,30,Male,,,,,,1.0,learning,17.0,Xnc,,black,,bolts,,,,Xnc,black,bolts,,0.0,0.0,0,right,1180.599999994,3.0,0.0,1.0,,,
118,0,,html-keyboard-response,118,335214,0.0-4.18-0.18,depslk9jlns,2022-09-19 16:45:10.704,631b45872f295244edb41f3e,3,57,38,89,72,30,Male,,,"<img src=""static/images/cards/stack_of_black_moons.svg"" width=""175px"" height=""250px""></img>",,,,,,,,,,,,,,,,,,,,,,,,,,,,
119,0,,html-keyboard-response,119,336518,0.0-4.18-1.18,depslk9jlns,2022-09-19 16:45:10.704,631b45872f295244edb41f3e,3,57,38,89,72,30,Male,795.1999999881,,"
  <table>
  <tr height=300>
    <td width=300 height=300><img src=""static/images/cards/back_of_black_moons.svg"" width=""175px"" height=""250px""></img></td>
    <td width=300 height=300><img src=""static/images/cards/back_of_black_moons.svg"" width=""175px"" height=""250px""></img></td>
  </tr>
  <tr height=200>
    <td width=300><img src=""static/images/keys/z.svg"" width=""35%"" height=""75%""></img></td>
    <td width=300><img src=""static/images/keys/m.svg"" width=""35%"" height=""75%""></img></td>
  </tr>
</table>
  ",90.0,1.0,,,,,,,,,,,,,,,,,,,,,,,,,,
120,0,,html-keyboard-response,120,338023,0.0-4.18-2.18,depslk9jlns,2022-09-19 16:45:10.704,631b45872f295244edb41f3e,3,57,38,89,72,30,Male,,,"
  <table>
  <tr height=300>
    <td width=300 height=300><img src=""static/images/cards/3_of_black_moons.svg"" width=""175px"" height=""250px""></img></td>
    <td width=300 height=300><img src=""static/images/cards/back_of_black_moons.svg"" width=""175px"" height=""250px""></img></td>
  </tr>
  <tr height=200>
    <td width=300><img src=""static/images/keys/z.svg"" width=""35%"" height=""75%""></img></td>
    <td width=300><img src=""static/images/keys/m.svg"" width=""35%"" height=""75%""></img></td>
  </tr>
</table>
  ",,,,,,,,,,,,,,,,,,,,,,,,,,,,
121,0,,html-keyboard-response,121,339546,0.0-4.18-3.18,depslk9jlns,2022-09-19 16:45:10.704,631b45872f295244edb41f3e,3,57,38,89,72,30,Male,,,"<p style=""font-size:50px"">You Lose!
No points this round.</p>",,,,,,,,,,,,,,,,,,,,,,,,,,,,
122,0,,html-keyboard-response,122,340060,0.0-4.18-4.18,depslk9jlns,2022-09-19 16:45:10.704,631b45872f295244edb41f3e,3,57,38,89,72,30,Male,,,,,,1.0,learning,18.0,A,,black,,moons,,,,A,black,moons,,1.0,1.0,NA,left,795.1999999881,3.0,0.0,0.0,,,
123,0,,html-keyboard-response,123,341561,0.0-4.19-0.19,depslk9jlns,2022-09-19 16:45:10.704,631b45872f295244edb41f3e,3,57,38,89,72,30,Male,,,"<img src=""static/images/cards/stack_of_red_moons.svg"" width=""175px"" height=""250px""></img>",,,,,,,,,,,,,,,,,,,,,,,,,,,,
124,0,,html-keyboard-response,124,342495,0.0-4.19-1.19,depslk9jlns,2022-09-19 16:45:10.704,631b45872f295244edb41f3e,3,57,38,89,72,30,Male,420.5,,"
  <table>
  <tr height=300>
    <td width=300 height=300><img src=""static/images/cards/back_of_red_moons.svg"" width=""175px"" height=""250px""></img></td>
    <td width=300 height=300><img src=""static/images/cards/back_of_red_moons.svg"" width=""175px"" height=""250px""></img></td>
  </tr>
  <tr height=200>
    <td width=300><img src=""static/images/keys/z.svg"" width=""35%"" height=""75%""></img></td>
    <td width=300></td>
  </tr>
</table>
  ",90.0,1.0,,,,,,,,,,,,,,,,,,,,,,,,,,
125,0,,html-keyboard-response,125,343996,0.0-4.19-2.19,depslk9jlns,2022-09-19 16:45:10.704,631b45872f295244edb41f3e,3,57,38,89,72,30,Male,,,"
  <table>
  <tr height=300>
    <td width=300 height=300><img src=""static/images/cards/4_of_red_moons.svg"" width=""175px"" height=""250px""></img></td>
    <td width=300 height=300><img src=""static/images/cards/back_of_red_moons.svg"" width=""175px"" height=""250px""></img></td>
  </tr>
  <tr height=200>
    <td width=300><img src=""static/images/keys/z.svg"" width=""35%"" height=""75%""></img></td>
    <td width=300></td>
  </tr>
</table>
  ",,,,,,,,,,,,,,,,,,,,,,,,,,,,
126,0,,html-keyboard-response,126,345523,0.0-4.19-3.19,depslk9jlns,2022-09-19 16:45:10.704,631b45872f295244edb41f3e,3,57,38,89,72,30,Male,,,"<p style=""font-size:50px"">You Lose!
No points this round.</p>",,,,,,,,,,,,,,,,,,,,,,,,,,,,
127,0,,html-keyboard-response,127,346039,0.0-4.19-4.19,depslk9jlns,2022-09-19 16:45:10.704,631b45872f295244edb41f3e,3,57,38,89,72,30,Male,,,,,,1.0,learning,19.0,B,,red,,moons,,,,B,red,moons,,0.0,1.0,1,left,420.5,4.0,0.0,0.0,,,
128,0,,html-keyboard-response,128,347552,0.0-4.20-0.20,depslk9jlns,2022-09-19 16:45:10.704,631b45872f295244edb41f3e,3,57,38,89,72,30,Male,,,"<img src=""static/images/cards/stack_of_black_stars.svg"" width=""175px"" height=""250px""></img>",,,,,,,,,,,,,,,,,,,,,,,,,,,,
129,0,,html-keyboard-response,129,350749,0.0-4.20-1.20,depslk9jlns,2022-09-19 16:45:10.704,631b45872f295244edb41f3e,3,57,38,89,72,30,Male,2682.8000000119,,"
  <table>
  <tr height=300>
    <td width=300 height=300><img src=""static/images/cards/back_of_black_stars.svg"" width=""175px"" height=""250px""></img></td>
    <td width=300 height=300><img src=""static/images/cards/back_of_black_stars.svg"" width=""175px"" height=""250px""></img></td>
  </tr>
  <tr height=200>
    <td width=300><img src=""static/images/keys/z.svg"" width=""35%"" height=""75%""></img></td>
    <td width=300><img src=""static/images/keys/m.svg"" width=""35%"" height=""75%""></img></td>
  </tr>
</table>
  ",90.0,1.0,,,,,,,,,,,,,,,,,,,,,,,,,,
130,0,,html-keyboard-response,130,352251,0.0-4.20-2.20,depslk9jlns,2022-09-19 16:45:10.704,631b45872f295244edb41f3e,3,57,38,89,72,30,Male,,,"
  <table>
  <tr height=300>
    <td width=300 height=300><img src=""static/images/cards/1_of_black_stars.svg"" width=""175px"" height=""250px""></img></td>
    <td width=300 height=300><img src=""static/images/cards/back_of_black_stars.svg"" width=""175px"" height=""250px""></img></td>
  </tr>
  <tr height=200>
    <td width=300><img src=""static/images/keys/z.svg"" width=""35%"" height=""75%""></img></td>
    <td width=300><img src=""static/images/keys/m.svg"" width=""35%"" height=""75%""></img></td>
  </tr>
</table>
  ",,,,,,,,,,,,,,,,,,,,,,,,,,,,
131,0,,html-keyboard-response,131,353773,0.0-4.20-3.20,depslk9jlns,2022-09-19 16:45:10.704,631b45872f295244edb41f3e,3,57,38,89,72,30,Male,,,"<p style=""font-size:50px"">You Lose!
No points this round.</p>",,,,,,,,,,,,,,,,,,,,,,,,,,,,
132,0,,html-keyboard-response,132,354287,0.0-4.20-4.20,depslk9jlns,2022-09-19 16:45:10.704,631b45872f295244edb41f3e,3,57,38,89,72,30,Male,,,,,,1.0,learning,20.0,C,,black,,stars,,,,C,black,stars,,1.0,0.0,NA,left,2682.8000000119,1.0,0.0,0.0,,,
133,0,,html-keyboard-response,133,355791,0.0-4.21-0.21,depslk9jlns,2022-09-19 16:45:10.704,631b45872f295244edb41f3e,3,57,38,89,72,30,Male,,,"<img src=""static/images/cards/stack_of_red_stars.svg"" width=""175px"" height=""250px""></img>",,,,,,,,,,,,,,,,,,,,,,,,,,,,
134,0,,html-keyboard-response,134,356717,0.0-4.21-1.21,depslk9jlns,2022-09-19 16:45:10.704,631b45872f295244edb41f3e,3,57,38,89,72,30,Male,411.6999999881,,"
  <table>
  <tr height=300>
    <td width=300 height=300><img src=""static/images/cards/back_of_red_stars.svg"" width=""175px"" height=""250px""></img></td>
    <td width=300 height=300><img src=""static/images/cards/back_of_red_stars.svg"" width=""175px"" height=""250px""></img></td>
  </tr>
  <tr height=200>
    <td width=300></td>
    <td width=300><img src=""static/images/keys/m.svg"" width=""35%"" height=""75%""></img></td>
  </tr>
</table>
  ",77.0,1.0,,,,,,,,,,,,,,,,,,,,,,,,,,
135,0,,html-keyboard-response,135,358223,0.0-4.21-2.21,depslk9jlns,2022-09-19 16:45:10.704,631b45872f295244edb41f3e,3,57,38,89,72,30,Male,,,"
  <table>
  <tr height=300>
    <td width=300 height=300><img src=""static/images/cards/back_of_red_stars.svg"" width=""175px"" height=""250px""></img></td>
    <td width=300 height=300><img src=""static/images/cards/2_of_red_stars.svg"" width=""175px"" height=""250px""></img></td>
  </tr>
  <tr height=200>
    <td width=300></td>
    <td width=300><img src=""static/images/keys/m.svg"" width=""35%"" height=""75%""></img></td>
  </tr>
</table>
  ",,,,,,,,,,,,,,,,,,,,,,,,,,,,
136,0,,html-keyboard-response,136,359749,0.0-4.21-3.21,depslk9jlns,2022-09-19 16:45:10.704,631b45872f295244edb41f3e,3,57,38,89,72,30,Male,,,"<p style=""font-size:50px"">You Lose!
No points this round.</p>",,,,,,,,,,,,,,,,,,,,,,,,,,,,
137,0,,html-keyboard-response,137,360268,0.0-4.21-4.21,depslk9jlns,2022-09-19 16:45:10.704,631b45872f295244edb41f3e,3,57,38,89,72,30,Male,,,,,,1.0,learning,21.0,D,,red,,stars,,,,D,red,stars,,0.0,0.0,0,right,411.6999999881,2.0,0.0,0.0,,,
138,0,,html-keyboard-response,138,361770,0.0-4.22-0.22,depslk9jlns,2022-09-19 16:45:10.704,631b45872f295244edb41f3e,3,57,38,89,72,30,Male,,,"<img src=""static/images/cards/stack_of_red_bolts.svg"" width=""175px"" height=""250px""></img>",,,,,,,,,,,,,,,,,,,,,,,,,,,,
139,0,,html-keyboard-response,139,363014,0.0-4.22-1.22,depslk9jlns,2022-09-19 16:45:10.704,631b45872f295244edb41f3e,3,57,38,89,72,30,Male,728.8000000119,,"
  <table>
  <tr height=300>
    <td width=300 height=300><img src=""static/images/cards/back_of_red_bolts.svg"" width=""175px"" height=""250px""></img></td>
    <td width=300 height=300><img src=""static/images/cards/back_of_red_bolts.svg"" width=""175px"" height=""250px""></img></td>
  </tr>
  <tr height=200>
    <td width=300><img src=""static/images/keys/z.svg"" width=""35%"" height=""75%""></img></td>
    <td width=300><img src=""static/images/keys/m.svg"" width=""35%"" height=""75%""></img></td>
  </tr>
</table>
  ",77.0,1.0,,,,,,,,,,,,,,,,,,,,,,,,,,
140,0,,html-keyboard-response,140,364523,0.0-4.22-2.22,depslk9jlns,2022-09-19 16:45:10.704,631b45872f295244edb41f3e,3,57,38,89,72,30,Male,,,"
  <table>
  <tr height=300>
    <td width=300 height=300><img src=""static/images/cards/back_of_red_bolts.svg"" width=""175px"" height=""250px""></img></td>
    <td width=300 height=300><img src=""static/images/cards/4_of_red_bolts.svg"" width=""175px"" height=""250px""></img></td>
  </tr>
  <tr height=200>
    <td width=300><img src=""static/images/keys/z.svg"" width=""35%"" height=""75%""></img></td>
    <td width=300><img src=""static/images/keys/m.svg"" width=""35%"" height=""75%""></img></td>
  </tr>
</table>
  ",,,,,,,,,,,,,,,,,,,,,,,,,,,,
141,0,,html-keyboard-response,141,366046,0.0-4.22-3.22,depslk9jlns,2022-09-19 16:45:10.704,631b45872f295244edb41f3e,3,57,38,89,72,30,Male,,,"<p style=""font-size:50px"">You win!
+10 points this round!</p>",,,,,,,,,,,,,,,,,,,,,,,,,,,,
142,0,,html-keyboard-response,142,366562,0.0-4.22-4.22,depslk9jlns,2022-09-19 16:45:10.704,631b45872f295244edb41f3e,3,57,38,89,72,30,Male,,,,,,1.0,learning,22.0,Xc,,red,,bolts,,,,Xc,red,bolts,,1.0,0.0,NA,right,728.8000000119,4.0,0.0,1.0,,,
143,0,,html-keyboard-response,143,368078,0.0-4.23-0.23,depslk9jlns,2022-09-19 16:45:10.704,631b45872f295244edb41f3e,3,57,38,89,72,30,Male,,,"<img src=""static/images/cards/stack_of_black_bolts.svg"" width=""175px"" height=""250px""></img>",,,,,,,,,,,,,,,,,,,,,,,,,,,,
144,0,,html-keyboard-response,144,369638,0.0-4.23-1.23,depslk9jlns,2022-09-19 16:45:10.704,631b45872f295244edb41f3e,3,57,38,89,72,30,Male,1048.1999999881,,"
  <table>
  <tr height=300>
    <td width=300 height=300><img src=""static/images/cards/back_of_black_bolts.svg"" width=""175px"" height=""250px""></img></td>
    <td width=300 height=300><img src=""static/images/cards/back_of_black_bolts.svg"" width=""175px"" height=""250px""></img></td>
  </tr>
  <tr height=200>
    <td width=300><img src=""static/images/keys/z.svg"" width=""35%"" height=""75%""></img></td>
    <td width=300></td>
  </tr>
</table>
  ",90.0,1.0,,,,,,,,,,,,,,,,,,,,,,,,,,
145,0,,html-keyboard-response,145,371149,0.0-4.23-2.23,depslk9jlns,2022-09-19 16:45:10.704,631b45872f295244edb41f3e,3,57,38,89,72,30,Male,,,"
  <table>
  <tr height=300>
    <td width=300 height=300><img src=""static/images/cards/4_of_black_bolts.svg"" width=""175px"" height=""250px""></img></td>
    <td width=300 height=300><img src=""static/images/cards/back_of_black_bolts.svg"" width=""175px"" height=""250px""></img></td>
  </tr>
  <tr height=200>
    <td width=300><img src=""static/images/keys/z.svg"" width=""35%"" height=""75%""></img></td>
    <td width=300></td>
  </tr>
</table>
  ",,,,,,,,,,,,,,,,,,,,,,,,,,,,
146,0,,html-keyboard-response,146,372673,0.0-4.23-3.23,depslk9jlns,2022-09-19 16:45:10.704,631b45872f295244edb41f3e,3,57,38,89,72,30,Male,,,"<p style=""font-size:50px"">You win!
+10 points this round!</p>",,,,,,,,,,,,,,,,,,,,,,,,,,,,
147,0,,html-keyboard-response,147,373189,0.0-4.23-4.23,depslk9jlns,2022-09-19 16:45:10.704,631b45872f295244edb41f3e,3,57,38,89,72,30,Male,,,,,,1.0,learning,23.0,Xnc,,black,,bolts,,,,Xnc,black,bolts,,0.0,0.0,1,left,1048.1999999881,4.0,0.0,1.0,,,
148,0,,call-function,148,373195,0.0-5.0,depslk9jlns,2022-09-19 16:45:10.704,631b45872f295244edb41f3e,3,57,38,89,72,30,Male,,,,,,,,,,,,,,,,,,,,,,,,,,,,,,,
149,0,,image-keyboard-response,149,379397,0.0-6.0-0.0,depslk9jlns,2022-09-19 16:45:10.704,631b45872f295244edb41f3e,3,57,38,89,72,30,Male,6202.1999999881,,static/images/instructions_CB_3/Slide20.png,39.0,,,,,,,,,,,,,,,,,,,,,,,,,,,
150,0,,image-keyboard-response,150,396604,0.0-6.1-0.1,depslk9jlns,2022-09-19 16:45:10.704,631b45872f295244edb41f3e,3,57,38,89,72,30,Male,17206.6999999881,,static/images/instructions_CB_3/Slide21.png,39.0,,,,,,,,,,,,,,,,,,,,,,,,,,,
151,0,,image-keyboard-response,151,405493,0.0-6.2-0.2,depslk9jlns,2022-09-19 16:45:10.704,631b45872f295244edb41f3e,3,57,38,89,72,30,Male,8887.0,,static/images/instructions_CB_3/Slide22.png,39.0,,,,,,,,,,,,,,,,,,,,,,,,,,,
152,0,,image-keyboard-response,152,407172,0.0-6.3-0.3,depslk9jlns,2022-09-19 16:45:10.704,631b45872f295244edb41f3e,3,57,38,89,72,30,Male,1678.3999999762,,static/images/instructions_CB_3/Slide23.png,39.0,,,,,,,,,,,,,,,,,,,,,,,,,,,
153,0,,image-keyboard-response,153,408100,0.0-6.4-0.4,depslk9jlns,2022-09-19 16:45:10.704,631b45872f295244edb41f3e,3,57,38,89,72,30,Male,927.0,,static/images/instructions_CB_3/Slide24.png,39.0,,,,,,,,,,,,,,,,,,,,,,,,,,,
154,0,,html-keyboard-response,154,409854,0.0-7.0-0.0,depslk9jlns,2022-09-19 16:45:10.704,631b45872f295244edb41f3e,3,57,38,89,72,30,Male,1750.900000006,,"
  <table>
  <tr height=300>
    <td width=300 height=300><img src=""static/images/cards/stack_of_black_moons.svg"" width=""175px"" height=""250px""></img></td>
    <td width=300 height=300><img src=""static/images/cards/stack_of_red_moons.svg"" width=""175px"" height=""250px""></img></td>
  </tr>
  <tr height=200>
    <td width=300><img src=""static/images/keys/w.svg"" width=""35%"" height=""75%""></img></td>
    <td width=300><img src=""static/images/keys/o.svg"" width=""35%"" height=""75%""></img></td>
  </tr>
</table>
  ",79.0,1.0,,,,,,,,,,,,,,,,,,,,,,,,,,
155,0,,html-keyboard-response,155,411294,0.0-7.0-1.0,depslk9jlns,2022-09-19 16:45:10.704,631b45872f295244edb41f3e,3,57,38,89,72,30,Male,936.400000006,,"
  <table>
  <tr height=300>
    <td width=300 height=300><img src=""static/images/cards/back_of_red_moons.svg"" width=""175px"" height=""250px""></img></td>
    <td width=300 height=300><img src=""static/images/cards/back_of_red_moons.svg"" width=""175px"" height=""250px""></img></td>
  </tr>
  <tr height=200>
    <td width=300></td>
    <td width=300><img src=""static/images/keys/m.svg"" width=""35%"" height=""75%""></img></td>
  </tr>
</table>
  ",77.0,1.0,,,,,,,,,,,,,,,,,,,,,,,,,,
156,0,,html-keyboard-response,156,412801,0.0-7.0-2.0,depslk9jlns,2022-09-19 16:45:10.704,631b45872f295244edb41f3e,3,57,38,89,72,30,Male,,,"
  <table>
  <tr height=300>
    <td width=300 height=300><img src=""static/images/cards/back_of_red_moons.svg"" width=""175px"" height=""250px""></img></td>
    <td width=300 height=300><img src=""static/images/cards/4_of_red_moons.svg"" width=""175px"" height=""250px""></img></td>
  </tr>
  <tr height=200>
    <td width=300></td>
    <td width=300><img src=""static/images/keys/m.svg"" width=""35%"" height=""75%""></img></td>
  </tr>
</table>
  ",,,,,,,,,,,,,,,,,,,,,,,,,,,,
157,0,,html-keyboard-response,157,414323,0.0-7.0-3.0,depslk9jlns,2022-09-19 16:45:10.704,631b45872f295244edb41f3e,3,57,38,89,72,30,Male,,,"<p style=""font-size:50px"">You Lose!
No points this round.</p>",,,,,,,,,,,,,,,,,,,,,,,,,,,,
158,0,,html-keyboard-response,158,414840,0.0-7.0-4.0,depslk9jlns,2022-09-19 16:45:10.704,631b45872f295244edb41f3e,3,57,38,89,72,30,Male,,,,,,1.0,choice,0.0,A,B,black,red,moons,moons,A,B,B,red,moons,1750.900000006,0.0,1.0,0,right,936.400000006,4.0,0.0,0.0,,,
159,0,,html-keyboard-response,159,415773,0.0-7.1-0.1,depslk9jlns,2022-09-19 16:45:10.704,631b45872f295244edb41f3e,3,57,38,89,72,30,Male,931.2000000179,,"
  <table>
  <tr height=300>
    <td width=300 height=300><img src=""static/images/cards/stack_of_red_stars.svg"" width=""175px"" height=""250px""></img></td>
    <td width=300 height=300><img src=""static/images/cards/stack_of_black_stars.svg"" width=""175px"" height=""250px""></img></td>
  </tr>
  <tr height=200>
    <td width=300><img src=""static/images/keys/w.svg"" width=""35%"" height=""75%""></img></td>
    <td width=300><img src=""static/images/keys/o.svg"" width=""35%"" height=""75%""></img></td>
  </tr>
</table>
  ",87.0,1.0,,,,,,,,,,,,,,,,,,,,,,,,,,
160,0,,html-keyboard-response,160,417053,0.0-7.1-1.1,depslk9jlns,2022-09-19 16:45:10.704,631b45872f295244edb41f3e,3,57,38,89,72,30,Male,772.0,,"
  <table>
  <tr height=300>
    <td width=300 height=300><img src=""static/images/cards/back_of_red_stars.svg"" width=""175px"" height=""250px""></img></td>
    <td width=300 height=300><img src=""static/images/cards/back_of_red_stars.svg"" width=""175px"" height=""250px""></img></td>
  </tr>
  <tr height=200>
    <td width=300></td>
    <td width=300><img src=""static/images/keys/m.svg"" width=""35%"" height=""75%""></img></td>
  </tr>
</table>
  ",77.0,1.0,,,,,,,,,,,,,,,,,,,,,,,,,,
161,0,,html-keyboard-response,161,418557,0.0-7.1-2.1,depslk9jlns,2022-09-19 16:45:10.704,631b45872f295244edb41f3e,3,57,38,89,72,30,Male,,,"
  <table>
  <tr height=300>
    <td width=300 height=300><img src=""static/images/cards/back_of_red_stars.svg"" width=""175px"" height=""250px""></img></td>
    <td width=300 height=300><img src=""static/images/cards/2_of_red_stars.svg"" width=""175px"" height=""250px""></img></td>
  </tr>
  <tr height=200>
    <td width=300></td>
    <td width=300><img src=""static/images/keys/m.svg"" width=""35%"" height=""75%""></img></td>
  </tr>
</table>
  ",,,,,,,,,,,,,,,,,,,,,,,,,,,,
162,0,,html-keyboard-response,162,420085,0.0-7.1-3.1,depslk9jlns,2022-09-19 16:45:10.704,631b45872f295244edb41f3e,3,57,38,89,72,30,Male,,,"<p style=""font-size:50px"">You win!
+10 points this round!</p>",,,,,,,,,,,,,,,,,,,,,,,,,,,,
163,0,,html-keyboard-response,163,420604,0.0-7.1-4.1,depslk9jlns,2022-09-19 16:45:10.704,631b45872f295244edb41f3e,3,57,38,89,72,30,Male,,,,,,1.0,choice,1.0,C,D,red,black,stars,stars,D,C,D,red,stars,931.2000000179,0.0,0.0,0,right,772.0,2.0,0.0,1.0,,,
164,0,,html-keyboard-response,164,421797,0.0-7.2-0.2,depslk9jlns,2022-09-19 16:45:10.704,631b45872f295244edb41f3e,3,57,38,89,72,30,Male,1191.1999999881,,"
  <table>
  <tr height=300>
    <td width=300 height=300><img src=""static/images/cards/stack_of_black_stars.svg"" width=""175px"" height=""250px""></img></td>
    <td width=300 height=300><img src=""static/images/cards/stack_of_red_moons.svg"" width=""175px"" height=""250px""></img></td>
  </tr>
  <tr height=200>
    <td width=300><img src=""static/images/keys/w.svg"" width=""35%"" height=""75%""></img></td>
    <td width=300><img src=""static/images/keys/o.svg"" width=""35%"" height=""75%""></img></td>
  </tr>
</table>
  ",87.0,1.0,,,,,,,,,,,,,,,,,,,,,,,,,,
165,0,,html-keyboard-response,165,423165,0.0-7.2-1.2,depslk9jlns,2022-09-19 16:45:10.704,631b45872f295244edb41f3e,3,57,38,89,72,30,Male,861.400000006,,"
  <table>
  <tr height=300>
    <td width=300 height=300><img src=""static/images/cards/back_of_black_stars.svg"" width=""175px"" height=""250px""></img></td>
    <td width=300 height=300><img src=""static/images/cards/back_of_black_stars.svg"" width=""175px"" height=""250px""></img></td>
  </tr>
  <tr height=200>
    <td width=300><img src=""static/images/keys/z.svg"" width=""35%"" height=""75%""></img></td>
    <td width=300><img src=""static/images/keys/m.svg"" width=""35%"" height=""75%""></img></td>
  </tr>
</table>
  ",77.0,1.0,,,,,,,,,,,,,,,,,,,,,,,,,,
166,0,,html-keyboard-response,166,424680,0.0-7.2-2.2,depslk9jlns,2022-09-19 16:45:10.704,631b45872f295244edb41f3e,3,57,38,89,72,30,Male,,,"
  <table>
  <tr height=300>
    <td width=300 height=300><img src=""static/images/cards/back_of_black_stars.svg"" width=""175px"" height=""250px""></img></td>
    <td width=300 height=300><img src=""static/images/cards/10_of_black_stars.svg"" width=""175px"" height=""250px""></img></td>
  </tr>
  <tr height=200>
    <td width=300><img src=""static/images/keys/z.svg"" width=""35%"" height=""75%""></img></td>
    <td width=300><img src=""static/images/keys/m.svg"" width=""35%"" height=""75%""></img></td>
  </tr>
</table>
  ",,,,,,,,,,,,,,,,,,,,,,,,,,,,
167,0,,html-keyboard-response,167,426210,0.0-7.2-3.2,depslk9jlns,2022-09-19 16:45:10.704,631b45872f295244edb41f3e,3,57,38,89,72,30,Male,,,"<p style=""font-size:50px"">You win!
+10 points this round!</p>",,,,,,,,,,,,,,,,,,,,,,,,,,,,
168,0,,html-keyboard-response,168,426723,0.0-7.2-4.2,depslk9jlns,2022-09-19 16:45:10.704,631b45872f295244edb41f3e,3,57,38,89,72,30,Male,,,,,,1.0,choice,2.0,B,C,black,red,stars,moons,C,B,C,black,stars,1191.1999999881,1.0,0.0,NA,right,861.400000006,10.0,1.0,1.0,,,
169,0,,html-keyboard-response,169,428237,0.0-7.3-0.3,depslk9jlns,2022-09-19 16:45:10.704,631b45872f295244edb41f3e,3,57,38,89,72,30,Male,1511.8000000119,,"
  <table>
  <tr height=300>
    <td width=300 height=300><img src=""static/images/cards/stack_of_black_moons.svg"" width=""175px"" height=""250px""></img></td>
    <td width=300 height=300><img src=""static/images/cards/stack_of_red_moons.svg"" width=""175px"" height=""250px""></img></td>
  </tr>
  <tr height=200>
    <td width=300><img src=""static/images/keys/w.svg"" width=""35%"" height=""75%""></img></td>
    <td width=300><img src=""static/images/keys/o.svg"" width=""35%"" height=""75%""></img></td>
  </tr>
</table>
  ",87.0,1.0,,,,,,,,,,,,,,,,,,,,,,,,,,
170,0,,html-keyboard-response,170,429533,0.0-7.3-1.3,depslk9jlns,2022-09-19 16:45:10.704,631b45872f295244edb41f3e,3,57,38,89,72,30,Male,786.2999999821,,"
  <table>
  <tr height=300>
    <td width=300 height=300><img src=""static/images/cards/back_of_black_moons.svg"" width=""175px"" height=""250px""></img></td>
    <td width=300 height=300><img src=""static/images/cards/back_of_black_moons.svg"" width=""175px"" height=""250px""></img></td>
  </tr>
  <tr height=200>
    <td width=300><img src=""static/images/keys/z.svg"" width=""35%"" height=""75%""></img></td>
    <td width=300><img src=""static/images/keys/m.svg"" width=""35%"" height=""75%""></img></td>
  </tr>
</table>
  ",77.0,1.0,,,,,,,,,,,,,,,,,,,,,,,,,,
171,0,,html-keyboard-response,171,431037,0.0-7.3-2.3,depslk9jlns,2022-09-19 16:45:10.704,631b45872f295244edb41f3e,3,57,38,89,72,30,Male,,,"
  <table>
  <tr height=300>
    <td width=300 height=300><img src=""static/images/cards/back_of_black_moons.svg"" width=""175px"" height=""250px""></img></td>
    <td width=300 height=300><img src=""static/images/cards/4_of_black_moons.svg"" width=""175px"" height=""250px""></img></td>
  </tr>
  <tr height=200>
    <td width=300><img src=""static/images/keys/z.svg"" width=""35%"" height=""75%""></img></td>
    <td width=300><img src=""static/images/keys/m.svg"" width=""35%"" height=""75%""></img></td>
  </tr>
</table>
  ",,,,,,,,,,,,,,,,,,,,,,,,,,,,
172,0,,html-keyboard-response,172,432559,0.0-7.3-3.3,depslk9jlns,2022-09-19 16:45:10.704,631b45872f295244edb41f3e,3,57,38,89,72,30,Male,,,"<p style=""font-size:50px"">You Lose!
No points this round.</p>",,,,,,,,,,,,,,,,,,,,,,,,,,,,
173,0,,html-keyboard-response,173,433076,0.0-7.3-4.3,depslk9jlns,2022-09-19 16:45:10.704,631b45872f295244edb41f3e,3,57,38,89,72,30,Male,,,,,,1.0,choice,3.0,A,B,black,red,moons,moons,A,B,A,black,moons,1511.8000000119,1.0,1.0,NA,right,786.2999999821,4.0,0.0,0.0,,,
174,0,,html-keyboard-response,174,434069,0.0-7.4-0.4,depslk9jlns,2022-09-19 16:45:10.704,631b45872f295244edb41f3e,3,57,38,89,72,30,Male,991.1999999881,,"
  <table>
  <tr height=300>
    <td width=300 height=300><img src=""static/images/cards/stack_of_red_stars.svg"" width=""175px"" height=""250px""></img></td>
    <td width=300 height=300><img src=""static/images/cards/stack_of_red_moons.svg"" width=""175px"" height=""250px""></img></td>
  </tr>
  <tr height=200>
    <td width=300><img src=""static/images/keys/w.svg"" width=""35%"" height=""75%""></img></td>
    <td width=300><img src=""static/images/keys/o.svg"" width=""35%"" height=""75%""></img></td>
  </tr>
</table>
  ",87.0,1.0,,,,,,,,,,,,,,,,,,,,,,,,,,
175,0,,html-keyboard-response,175,435221,0.0-7.4-1.4,depslk9jlns,2022-09-19 16:45:10.704,631b45872f295244edb41f3e,3,57,38,89,72,30,Male,650.0,,"
  <table>
  <tr height=300>
    <td width=300 height=300><img src=""static/images/cards/back_of_red_stars.svg"" width=""175px"" height=""250px""></img></td>
    <td width=300 height=300><img src=""static/images/cards/back_of_red_stars.svg"" width=""175px"" height=""250px""></img></td>
  </tr>
  <tr height=200>
    <td width=300></td>
    <td width=300><img src=""static/images/keys/m.svg"" width=""35%"" height=""75%""></img></td>
  </tr>
</table>
  ",77.0,1.0,,,,,,,,,,,,,,,,,,,,,,,,,,
176,0,,html-keyboard-response,176,436735,0.0-7.4-2.4,depslk9jlns,2022-09-19 16:45:10.704,631b45872f295244edb41f3e,3,57,38,89,72,30,Male,,,"
  <table>
  <tr height=300>
    <td width=300 height=300><img src=""static/images/cards/back_of_red_stars.svg"" width=""175px"" height=""250px""></img></td>
    <td width=300 height=300><img src=""static/images/cards/9_of_red_stars.svg"" width=""175px"" height=""250px""></img></td>
  </tr>
  <tr height=200>
    <td width=300></td>
    <td width=300><img src=""static/images/keys/m.svg"" width=""35%"" height=""75%""></img></td>
  </tr>
</table>
  ",,,,,,,,,,,,,,,,,,,,,,,,,,,,
177,0,,html-keyboard-response,177,438260,0.0-7.4-3.4,depslk9jlns,2022-09-19 16:45:10.704,631b45872f295244edb41f3e,3,57,38,89,72,30,Male,,,"<p style=""font-size:50px"">You win!
+10 points this round!</p>",,,,,,,,,,,,,,,,,,,,,,,,,,,,
178,0,,html-keyboard-response,178,438777,0.0-7.4-4.4,depslk9jlns,2022-09-19 16:45:10.704,631b45872f295244edb41f3e,3,57,38,89,72,30,Male,,,,,,1.0,choice,4.0,B,D,red,red,stars,moons,D,B,D,red,stars,991.1999999881,0.0,0.0,0,right,650.0,9.0,1.0,1.0,,,
179,0,,html-keyboard-response,179,439452,0.0-7.5-0.5,depslk9jlns,2022-09-19 16:45:10.704,631b45872f295244edb41f3e,3,57,38,89,72,30,Male,673.099999994,,"
  <table>
  <tr height=300>
    <td width=300 height=300><img src=""static/images/cards/stack_of_black_stars.svg"" width=""175px"" height=""250px""></img></td>
    <td width=300 height=300><img src=""static/images/cards/stack_of_black_moons.svg"" width=""175px"" height=""250px""></img></td>
  </tr>
  <tr height=200>
    <td width=300><img src=""static/images/keys/w.svg"" width=""35%"" height=""75%""></img></td>
    <td width=300><img src=""static/images/keys/o.svg"" width=""35%"" height=""75%""></img></td>
  </tr>
</table>
  ",87.0,1.0,,,,,,,,,,,,,,,,,,,,,,,,,,
180,0,,html-keyboard-response,180,440606,0.0-7.5-1.5,depslk9jlns,2022-09-19 16:45:10.704,631b45872f295244edb41f3e,3,57,38,89,72,30,Male,650.8000000119,,"
  <table>
  <tr height=300>
    <td width=300 height=300><img src=""static/images/cards/back_of_black_stars.svg"" width=""175px"" height=""250px""></img></td>
    <td width=300 height=300><img src=""static/images/cards/back_of_black_stars.svg"" width=""175px"" height=""250px""></img></td>
  </tr>
  <tr height=200>
    <td width=300><img src=""static/images/keys/z.svg"" width=""35%"" height=""75%""></img></td>
    <td width=300><img src=""static/images/keys/m.svg"" width=""35%"" height=""75%""></img></td>
  </tr>
</table>
  ",77.0,1.0,,,,,,,,,,,,,,,,,,,,,,,,,,
181,0,,html-keyboard-response,181,442112,0.0-7.5-2.5,depslk9jlns,2022-09-19 16:45:10.704,631b45872f295244edb41f3e,3,57,38,89,72,30,Male,,,"
  <table>
  <tr height=300>
    <td width=300 height=300><img src=""static/images/cards/back_of_black_stars.svg"" width=""175px"" height=""250px""></img></td>
    <td width=300 height=300><img src=""static/images/cards/10_of_black_stars.svg"" width=""175px"" height=""250px""></img></td>
  </tr>
  <tr height=200>
    <td width=300><img src=""static/images/keys/z.svg"" width=""35%"" height=""75%""></img></td>
    <td width=300><img src=""static/images/keys/m.svg"" width=""35%"" height=""75%""></img></td>
  </tr>
</table>
  ",,,,,,,,,,,,,,,,,,,,,,,,,,,,
182,0,,html-keyboard-response,182,443636,0.0-7.5-3.5,depslk9jlns,2022-09-19 16:45:10.704,631b45872f295244edb41f3e,3,57,38,89,72,30,Male,,,"<p style=""font-size:50px"">You Lose!
No points this round.</p>",,,,,,,,,,,,,,,,,,,,,,,,,,,,
183,0,,html-keyboard-response,183,444157,0.0-7.5-4.5,depslk9jlns,2022-09-19 16:45:10.704,631b45872f295244edb41f3e,3,57,38,89,72,30,Male,,,,,,1.0,choice,5.0,A,C,black,black,stars,moons,C,A,C,black,stars,673.099999994,1.0,0.0,NA,right,650.8000000119,10.0,1.0,0.0,,,
184,0,,html-keyboard-response,184,444973,0.0-7.6-0.6,depslk9jlns,2022-09-19 16:45:10.704,631b45872f295244edb41f3e,3,57,38,89,72,30,Male,814.7999999821,,"
  <table>
  <tr height=300>
    <td width=300 height=300><img src=""static/images/cards/stack_of_red_stars.svg"" width=""175px"" height=""250px""></img></td>
    <td width=300 height=300><img src=""static/images/cards/stack_of_red_bolts.svg"" width=""175px"" height=""250px""></img></td>
  </tr>
  <tr height=200>
    <td width=300><img src=""static/images/keys/w.svg"" width=""35%"" height=""75%""></img></td>
    <td width=300><img src=""static/images/keys/o.svg"" width=""35%"" height=""75%""></img></td>
  </tr>
</table>
  ",87.0,1.0,,,,,,,,,,,,,,,,,,,,,,,,,,
185,0,,html-keyboard-response,185,446164,0.0-7.6-1.6,depslk9jlns,2022-09-19 16:45:10.704,631b45872f295244edb41f3e,3,57,38,89,72,30,Male,675.400000006,,"
  <table>
  <tr height=300>
    <td width=300 height=300><img src=""static/images/cards/back_of_red_stars.svg"" width=""175px"" height=""250px""></img></td>
    <td width=300 height=300><img src=""static/images/cards/back_of_red_stars.svg"" width=""175px"" height=""250px""></img></td>
  </tr>
  <tr height=200>
    <td width=300></td>
    <td width=300><img src=""static/images/keys/m.svg"" width=""35%"" height=""75%""></img></td>
  </tr>
</table>
  ",77.0,1.0,,,,,,,,,,,,,,,,,,,,,,,,,,
186,0,,html-keyboard-response,186,447673,0.0-7.6-2.6,depslk9jlns,2022-09-19 16:45:10.704,631b45872f295244edb41f3e,3,57,38,89,72,30,Male,,,"
  <table>
  <tr height=300>
    <td width=300 height=300><img src=""static/images/cards/back_of_red_stars.svg"" width=""175px"" height=""250px""></img></td>
    <td width=300 height=300><img src=""static/images/cards/3_of_red_stars.svg"" width=""175px"" height=""250px""></img></td>
  </tr>
  <tr height=200>
    <td width=300></td>
    <td width=300><img src=""static/images/keys/m.svg"" width=""35%"" height=""75%""></img></td>
  </tr>
</table>
  ",,,,,,,,,,,,,,,,,,,,,,,,,,,,
187,0,,html-keyboard-response,187,449202,0.0-7.6-3.6,depslk9jlns,2022-09-19 16:45:10.704,631b45872f295244edb41f3e,3,57,38,89,72,30,Male,,,"<p style=""font-size:50px"">You win!
+10 points this round!</p>",,,,,,,,,,,,,,,,,,,,,,,,,,,,
188,0,,html-keyboard-response,188,449720,0.0-7.6-4.6,depslk9jlns,2022-09-19 16:45:10.704,631b45872f295244edb41f3e,3,57,38,89,72,30,Male,,,,,,1.0,choice,6.0,D,Xc,red,red,stars,bolts,D,Xc,D,red,stars,814.7999999821,0.0,0.0,0,right,675.400000006,3.0,0.0,1.0,,,
189,0,,html-keyboard-response,189,451525,0.0-7.7-0.7,depslk9jlns,2022-09-19 16:45:10.704,631b45872f295244edb41f3e,3,57,38,89,72,30,Male,1803.0,,"
  <table>
  <tr height=300>
    <td width=300 height=300><img src=""static/images/cards/stack_of_black_moons.svg"" width=""175px"" height=""250px""></img></td>
    <td width=300 height=300><img src=""static/images/cards/stack_of_red_stars.svg"" width=""175px"" height=""250px""></img></td>
  </tr>
  <tr height=200>
    <td width=300><img src=""static/images/keys/w.svg"" width=""35%"" height=""75%""></img></td>
    <td width=300><img src=""static/images/keys/o.svg"" width=""35%"" height=""75%""></img></td>
  </tr>
</table>
  ",79.0,1.0,,,,,,,,,,,,,,,,,,,,,,,,,,
190,0,,html-keyboard-response,190,453069,0.0-7.7-1.7,depslk9jlns,2022-09-19 16:45:10.704,631b45872f295244edb41f3e,3,57,38,89,72,30,Male,1037.1999999881,,"
  <table>
  <tr height=300>
    <td width=300 height=300><img src=""static/images/cards/back_of_red_stars.svg"" width=""175px"" height=""250px""></img></td>
    <td width=300 height=300><img src=""static/images/cards/back_of_red_stars.svg"" width=""175px"" height=""250px""></img></td>
  </tr>
  <tr height=200>
    <td width=300><img src=""static/images/keys/z.svg"" width=""35%"" height=""75%""></img></td>
    <td width=300></td>
  </tr>
</table>
  ",90.0,1.0,,,,,,,,,,,,,,,,,,,,,,,,,,
191,0,,html-keyboard-response,191,454582,0.0-7.7-2.7,depslk9jlns,2022-09-19 16:45:10.704,631b45872f295244edb41f3e,3,57,38,89,72,30,Male,,,"
  <table>
  <tr height=300>
    <td width=300 height=300><img src=""static/images/cards/4_of_red_stars.svg"" width=""175px"" height=""250px""></img></td>
    <td width=300 height=300><img src=""static/images/cards/back_of_red_stars.svg"" width=""175px"" height=""250px""></img></td>
  </tr>
  <tr height=200>
    <td width=300><img src=""static/images/keys/z.svg"" width=""35%"" height=""75%""></img></td>
    <td width=300></td>
  </tr>
</table>
  ",,,,,,,,,,,,,,,,,,,,,,,,,,,,
192,0,,html-keyboard-response,192,456104,0.0-7.7-3.7,depslk9jlns,2022-09-19 16:45:10.704,631b45872f295244edb41f3e,3,57,38,89,72,30,Male,,,"<p style=""font-size:50px"">You win!
+10 points this round!</p>",,,,,,,,,,,,,,,,,,,,,,,,,,,,
193,0,,html-keyboard-response,193,456623,0.0-7.7-4.7,depslk9jlns,2022-09-19 16:45:10.704,631b45872f295244edb41f3e,3,57,38,89,72,30,Male,,,,,,1.0,choice,7.0,A,D,black,red,moons,stars,A,D,D,red,stars,1803.0,0.0,0.0,1,left,1037.1999999881,4.0,0.0,1.0,,,
194,0,,html-keyboard-response,194,457309,0.0-7.8-0.8,depslk9jlns,2022-09-19 16:45:10.704,631b45872f295244edb41f3e,3,57,38,89,72,30,Male,684.2999999821,,"
  <table>
  <tr height=300>
    <td width=300 height=300><img src=""static/images/cards/stack_of_red_stars.svg"" width=""175px"" height=""250px""></img></td>
    <td width=300 height=300><img src=""static/images/cards/stack_of_black_moons.svg"" width=""175px"" height=""250px""></img></td>
  </tr>
  <tr height=200>
    <td width=300><img src=""static/images/keys/w.svg"" width=""35%"" height=""75%""></img></td>
    <td width=300><img src=""static/images/keys/o.svg"" width=""35%"" height=""75%""></img></td>
  </tr>
</table>
  ",87.0,1.0,,,,,,,,,,,,,,,,,,,,,,,,,,
195,0,,html-keyboard-response,195,458525,0.0-7.8-1.8,depslk9jlns,2022-09-19 16:45:10.704,631b45872f295244edb41f3e,3,57,38,89,72,30,Male,703.5,,"
  <table>
  <tr height=300>
    <td width=300 height=300><img src=""static/images/cards/back_of_red_stars.svg"" width=""175px"" height=""250px""></img></td>
    <td width=300 height=300><img src=""static/images/cards/back_of_red_stars.svg"" width=""175px"" height=""250px""></img></td>
  </tr>
  <tr height=200>
    <td width=300></td>
    <td width=300><img src=""static/images/keys/m.svg"" width=""35%"" height=""75%""></img></td>
  </tr>
</table>
  ",77.0,1.0,,,,,,,,,,,,,,,,,,,,,,,,,,
196,0,,html-keyboard-response,196,460032,0.0-7.8-2.8,depslk9jlns,2022-09-19 16:45:10.704,631b45872f295244edb41f3e,3,57,38,89,72,30,Male,,,"
  <table>
  <tr height=300>
    <td width=300 height=300><img src=""static/images/cards/back_of_red_stars.svg"" width=""175px"" height=""250px""></img></td>
    <td width=300 height=300><img src=""static/images/cards/10_of_red_stars.svg"" width=""175px"" height=""250px""></img></td>
  </tr>
  <tr height=200>
    <td width=300></td>
    <td width=300><img src=""static/images/keys/m.svg"" width=""35%"" height=""75%""></img></td>
  </tr>
</table>
  ",,,,,,,,,,,,,,,,,,,,,,,,,,,,
197,0,,html-keyboard-response,197,461554,0.0-7.8-3.8,depslk9jlns,2022-09-19 16:45:10.704,631b45872f295244edb41f3e,3,57,38,89,72,30,Male,,,"<p style=""font-size:50px"">You Lose!
No points this round.</p>",,,,,,,,,,,,,,,,,,,,,,,,,,,,
198,0,,html-keyboard-response,198,462069,0.0-7.8-4.8,depslk9jlns,2022-09-19 16:45:10.704,631b45872f295244edb41f3e,3,57,38,89,72,30,Male,,,,,,1.0,choice,8.0,A,D,red,black,stars,moons,D,A,D,red,stars,684.2999999821,0.0,0.0,0,right,703.5,10.0,1.0,0.0,,,
199,0,,html-keyboard-response,199,464205,0.0-7.9-0.9,depslk9jlns,2022-09-19 16:45:10.704,631b45872f295244edb41f3e,3,57,38,89,72,30,Male,2134.1000000238,,"
  <table>
  <tr height=300>
    <td width=300 height=300><img src=""static/images/cards/stack_of_red_moons.svg"" width=""175px"" height=""250px""></img></td>
    <td width=300 height=300><img src=""static/images/cards/stack_of_red_stars.svg"" width=""175px"" height=""250px""></img></td>
  </tr>
  <tr height=200>
    <td width=300><img src=""static/images/keys/w.svg"" width=""35%"" height=""75%""></img></td>
    <td width=300><img src=""static/images/keys/o.svg"" width=""35%"" height=""75%""></img></td>
  </tr>
</table>
  ",79.0,1.0,,,,,,,,,,,,,,,,,,,,,,,,,,
200,0,,html-keyboard-response,200,465190,0.0-7.9-1.9,depslk9jlns,2022-09-19 16:45:10.704,631b45872f295244edb41f3e,3,57,38,89,72,30,Male,475.099999994,,"
  <table>
  <tr height=300>
    <td width=300 height=300><img src=""static/images/cards/back_of_red_stars.svg"" width=""175px"" height=""250px""></img></td>
    <td width=300 height=300><img src=""static/images/cards/back_of_red_stars.svg"" width=""175px"" height=""250px""></img></td>
  </tr>
  <tr height=200>
    <td width=300></td>
    <td width=300><img src=""static/images/keys/m.svg"" width=""35%"" height=""75%""></img></td>
  </tr>
</table>
  ",77.0,1.0,,,,,,,,,,,,,,,,,,,,,,,,,,
201,0,,html-keyboard-response,201,466699,0.0-7.9-2.9,depslk9jlns,2022-09-19 16:45:10.704,631b45872f295244edb41f3e,3,57,38,89,72,30,Male,,,"
  <table>
  <tr height=300>
    <td width=300 height=300><img src=""static/images/cards/back_of_red_stars.svg"" width=""175px"" height=""250px""></img></td>
    <td width=300 height=300><img src=""static/images/cards/2_of_red_stars.svg"" width=""175px"" height=""250px""></img></td>
  </tr>
  <tr height=200>
    <td width=300></td>
    <td width=300><img src=""static/images/keys/m.svg"" width=""35%"" height=""75%""></img></td>
  </tr>
</table>
  ",,,,,,,,,,,,,,,,,,,,,,,,,,,,
202,0,,html-keyboard-response,202,468211,0.0-7.9-3.9,depslk9jlns,2022-09-19 16:45:10.704,631b45872f295244edb41f3e,3,57,38,89,72,30,Male,,,"<p style=""font-size:50px"">You win!
+10 points this round!</p>",,,,,,,,,,,,,,,,,,,,,,,,,,,,
203,0,,html-keyboard-response,203,468731,0.0-7.9-4.9,depslk9jlns,2022-09-19 16:45:10.704,631b45872f295244edb41f3e,3,57,38,89,72,30,Male,,,,,,1.0,choice,9.0,B,D,red,red,moons,stars,B,D,D,red,stars,2134.1000000238,0.0,0.0,0,right,475.099999994,2.0,0.0,1.0,,,
204,0,,html-keyboard-response,204,470205,0.0-7.10-0.10,depslk9jlns,2022-09-19 16:45:10.704,631b45872f295244edb41f3e,3,57,38,89,72,30,Male,1472.6999999881,,"
  <table>
  <tr height=300>
    <td width=300 height=300><img src=""static/images/cards/stack_of_black_moons.svg"" width=""175px"" height=""250px""></img></td>
    <td width=300 height=300><img src=""static/images/cards/stack_of_black_bolts.svg"" width=""175px"" height=""250px""></img></td>
  </tr>
  <tr height=200>
    <td width=300><img src=""static/images/keys/w.svg"" width=""35%"" height=""75%""></img></td>
    <td width=300><img src=""static/images/keys/o.svg"" width=""35%"" height=""75%""></img></td>
  </tr>
</table>
  ",79.0,1.0,,,,,,,,,,,,,,,,,,,,,,,,,,
205,0,,html-keyboard-response,205,472349,0.0-7.10-1.10,depslk9jlns,2022-09-19 16:45:10.704,631b45872f295244edb41f3e,3,57,38,89,72,30,Male,1638.900000006,,"
  <table>
  <tr height=300>
    <td width=300 height=300><img src=""static/images/cards/back_of_black_bolts.svg"" width=""175px"" height=""250px""></img></td>
    <td width=300 height=300><img src=""static/images/cards/back_of_black_bolts.svg"" width=""175px"" height=""250px""></img></td>
  </tr>
  <tr height=200>
    <td width=300><img src=""static/images/keys/z.svg"" width=""35%"" height=""75%""></img></td>
    <td width=300></td>
  </tr>
</table>
  ",90.0,1.0,,,,,,,,,,,,,,,,,,,,,,,,,,
206,0,,html-keyboard-response,206,473863,0.0-7.10-2.10,depslk9jlns,2022-09-19 16:45:10.704,631b45872f295244edb41f3e,3,57,38,89,72,30,Male,,,"
  <table>
  <tr height=300>
    <td width=300 height=300><img src=""static/images/cards/3_of_black_bolts.svg"" width=""175px"" height=""250px""></img></td>
    <td width=300 height=300><img src=""static/images/cards/back_of_black_bolts.svg"" width=""175px"" height=""250px""></img></td>
  </tr>
  <tr height=200>
    <td width=300><img src=""static/images/keys/z.svg"" width=""35%"" height=""75%""></img></td>
    <td width=300></td>
  </tr>
</table>
  ",,,,,,,,,,,,,,,,,,,,,,,,,,,,
207,0,,html-keyboard-response,207,475388,0.0-7.10-3.10,depslk9jlns,2022-09-19 16:45:10.704,631b45872f295244edb41f3e,3,57,38,89,72,30,Male,,,"<p style=""font-size:50px"">You win!
+10 points this round!</p>",,,,,,,,,,,,,,,,,,,,,,,,,,,,
208,0,,html-keyboard-response,208,475904,0.0-7.10-4.10,depslk9jlns,2022-09-19 16:45:10.704,631b45872f295244edb41f3e,3,57,38,89,72,30,Male,,,,,,1.0,choice,10.0,A,Xnc,black,black,moons,bolts,A,Xnc,Xnc,black,bolts,1472.6999999881,0.0,0.0,1,left,1638.900000006,3.0,0.0,1.0,,,
209,0,,html-keyboard-response,209,477741,0.0-7.11-0.11,depslk9jlns,2022-09-19 16:45:10.704,631b45872f295244edb41f3e,3,57,38,89,72,30,Male,1836.3000000119,,"
  <table>
  <tr height=300>
    <td width=300 height=300><img src=""static/images/cards/stack_of_red_stars.svg"" width=""175px"" height=""250px""></img></td>
    <td width=300 height=300><img src=""static/images/cards/stack_of_black_stars.svg"" width=""175px"" height=""250px""></img></td>
  </tr>
  <tr height=200>
    <td width=300><img src=""static/images/keys/w.svg"" width=""35%"" height=""75%""></img></td>
    <td width=300><img src=""static/images/keys/o.svg"" width=""35%"" height=""75%""></img></td>
  </tr>
</table>
  ",87.0,1.0,,,,,,,,,,,,,,,,,,,,,,,,,,
210,0,,html-keyboard-response,210,479005,0.0-7.11-1.11,depslk9jlns,2022-09-19 16:45:10.704,631b45872f295244edb41f3e,3,57,38,89,72,30,Male,754.2000000179,,"
  <table>
  <tr height=300>
    <td width=300 height=300><img src=""static/images/cards/back_of_red_stars.svg"" width=""175px"" height=""250px""></img></td>
    <td width=300 height=300><img src=""static/images/cards/back_of_red_stars.svg"" width=""175px"" height=""250px""></img></td>
  </tr>
  <tr height=200>
    <td width=300></td>
    <td width=300><img src=""static/images/keys/m.svg"" width=""35%"" height=""75%""></img></td>
  </tr>
</table>
  ",77.0,1.0,,,,,,,,,,,,,,,,,,,,,,,,,,
211,0,,html-keyboard-response,211,480507,0.0-7.11-2.11,depslk9jlns,2022-09-19 16:45:10.704,631b45872f295244edb41f3e,3,57,38,89,72,30,Male,,,"
  <table>
  <tr height=300>
    <td width=300 height=300><img src=""static/images/cards/back_of_red_stars.svg"" width=""175px"" height=""250px""></img></td>
    <td width=300 height=300><img src=""static/images/cards/6_of_red_stars.svg"" width=""175px"" height=""250px""></img></td>
  </tr>
  <tr height=200>
    <td width=300></td>
    <td width=300><img src=""static/images/keys/m.svg"" width=""35%"" height=""75%""></img></td>
  </tr>
</table>
  ",,,,,,,,,,,,,,,,,,,,,,,,,,,,
212,0,,html-keyboard-response,212,482031,0.0-7.11-3.11,depslk9jlns,2022-09-19 16:45:10.704,631b45872f295244edb41f3e,3,57,38,89,72,30,Male,,,"<p style=""font-size:50px"">You Lose!
No points this round.</p>",,,,,,,,,,,,,,,,,,,,,,,,,,,,
213,0,,html-keyboard-response,213,482547,0.0-7.11-4.11,depslk9jlns,2022-09-19 16:45:10.704,631b45872f295244edb41f3e,3,57,38,89,72,30,Male,,,,,,1.0,choice,11.0,C,D,red,black,stars,stars,D,C,D,red,stars,1836.3000000119,0.0,0.0,0,right,754.2000000179,6.0,1.0,0.0,,,
214,0,,html-keyboard-response,214,483499,0.0-7.12-0.12,depslk9jlns,2022-09-19 16:45:10.704,631b45872f295244edb41f3e,3,57,38,89,72,30,Male,951.1999999881,,"
  <table>
  <tr height=300>
    <td width=300 height=300><img src=""static/images/cards/stack_of_red_moons.svg"" width=""175px"" height=""250px""></img></td>
    <td width=300 height=300><img src=""static/images/cards/stack_of_black_stars.svg"" width=""175px"" height=""250px""></img></td>
  </tr>
  <tr height=200>
    <td width=300><img src=""static/images/keys/w.svg"" width=""35%"" height=""75%""></img></td>
    <td width=300><img src=""static/images/keys/o.svg"" width=""35%"" height=""75%""></img></td>
  </tr>
</table>
  ",79.0,1.0,,,,,,,,,,,,,,,,,,,,,,,,,,
215,0,,html-keyboard-response,215,484509,0.0-7.12-1.12,depslk9jlns,2022-09-19 16:45:10.704,631b45872f295244edb41f3e,3,57,38,89,72,30,Male,506.0,,"
  <table>
  <tr height=300>
    <td width=300 height=300><img src=""static/images/cards/back_of_black_stars.svg"" width=""175px"" height=""250px""></img></td>
    <td width=300 height=300><img src=""static/images/cards/back_of_black_stars.svg"" width=""175px"" height=""250px""></img></td>
  </tr>
  <tr height=200>
    <td width=300><img src=""static/images/keys/z.svg"" width=""35%"" height=""75%""></img></td>
    <td width=300><img src=""static/images/keys/m.svg"" width=""35%"" height=""75%""></img></td>
  </tr>
</table>
  ",77.0,1.0,,,,,,,,,,,,,,,,,,,,,,,,,,
216,0,,html-keyboard-response,216,486020,0.0-7.12-2.12,depslk9jlns,2022-09-19 16:45:10.704,631b45872f295244edb41f3e,3,57,38,89,72,30,Male,,,"
  <table>
  <tr height=300>
    <td width=300 height=300><img src=""static/images/cards/back_of_black_stars.svg"" width=""175px"" height=""250px""></img></td>
    <td width=300 height=300><img src=""static/images/cards/3_of_black_stars.svg"" width=""175px"" height=""250px""></img></td>
  </tr>
  <tr height=200>
    <td width=300><img src=""static/images/keys/z.svg"" width=""35%"" height=""75%""></img></td>
    <td width=300><img src=""static/images/keys/m.svg"" width=""35%"" height=""75%""></img></td>
  </tr>
</table>
  ",,,,,,,,,,,,,,,,,,,,,,,,,,,,
217,0,,html-keyboard-response,217,487544,0.0-7.12-3.12,depslk9jlns,2022-09-19 16:45:10.704,631b45872f295244edb41f3e,3,57,38,89,72,30,Male,,,"<p style=""font-size:50px"">You win!
+10 points this round!</p>",,,,,,,,,,,,,,,,,,,,,,,,,,,,
218,0,,html-keyboard-response,218,488059,0.0-7.12-4.12,depslk9jlns,2022-09-19 16:45:10.704,631b45872f295244edb41f3e,3,57,38,89,72,30,Male,,,,,,1.0,choice,12.0,B,C,red,black,moons,stars,B,C,C,black,stars,951.1999999881,1.0,0.0,NA,right,506.0,3.0,0.0,1.0,,,
219,0,,html-keyboard-response,219,489158,0.0-7.13-0.13,depslk9jlns,2022-09-19 16:45:10.704,631b45872f295244edb41f3e,3,57,38,89,72,30,Male,1096.5,,"
  <table>
  <tr height=300>
    <td width=300 height=300><img src=""static/images/cards/stack_of_red_stars.svg"" width=""175px"" height=""250px""></img></td>
    <td width=300 height=300><img src=""static/images/cards/stack_of_black_stars.svg"" width=""175px"" height=""250px""></img></td>
  </tr>
  <tr height=200>
    <td width=300><img src=""static/images/keys/w.svg"" width=""35%"" height=""75%""></img></td>
    <td width=300><img src=""static/images/keys/o.svg"" width=""35%"" height=""75%""></img></td>
  </tr>
</table>
  ",79.0,1.0,,,,,,,,,,,,,,,,,,,,,,,,,,
220,0,,html-keyboard-response,220,490389,0.0-7.13-1.13,depslk9jlns,2022-09-19 16:45:10.704,631b45872f295244edb41f3e,3,57,38,89,72,30,Male,715.099999994,,"
  <table>
  <tr height=300>
    <td width=300 height=300><img src=""static/images/cards/back_of_black_stars.svg"" width=""175px"" height=""250px""></img></td>
    <td width=300 height=300><img src=""static/images/cards/back_of_black_stars.svg"" width=""175px"" height=""250px""></img></td>
  </tr>
  <tr height=200>
    <td width=300><img src=""static/images/keys/z.svg"" width=""35%"" height=""75%""></img></td>
    <td width=300><img src=""static/images/keys/m.svg"" width=""35%"" height=""75%""></img></td>
  </tr>
</table>
  ",77.0,1.0,,,,,,,,,,,,,,,,,,,,,,,,,,
221,0,,html-keyboard-response,221,491900,0.0-7.13-2.13,depslk9jlns,2022-09-19 16:45:10.704,631b45872f295244edb41f3e,3,57,38,89,72,30,Male,,,"
  <table>
  <tr height=300>
    <td width=300 height=300><img src=""static/images/cards/back_of_black_stars.svg"" width=""175px"" height=""250px""></img></td>
    <td width=300 height=300><img src=""static/images/cards/3_of_black_stars.svg"" width=""175px"" height=""250px""></img></td>
  </tr>
  <tr height=200>
    <td width=300><img src=""static/images/keys/z.svg"" width=""35%"" height=""75%""></img></td>
    <td width=300><img src=""static/images/keys/m.svg"" width=""35%"" height=""75%""></img></td>
  </tr>
</table>
  ",,,,,,,,,,,,,,,,,,,,,,,,,,,,
222,0,,html-keyboard-response,222,493419,0.0-7.13-3.13,depslk9jlns,2022-09-19 16:45:10.704,631b45872f295244edb41f3e,3,57,38,89,72,30,Male,,,"<p style=""font-size:50px"">You win!
+10 points this round!</p>",,,,,,,,,,,,,,,,,,,,,,,,,,,,
223,0,,html-keyboard-response,223,493925,0.0-7.13-4.13,depslk9jlns,2022-09-19 16:45:10.704,631b45872f295244edb41f3e,3,57,38,89,72,30,Male,,,,,,1.0,choice,13.0,C,D,red,black,stars,stars,D,C,C,black,stars,1096.5,1.0,0.0,NA,right,715.099999994,3.0,0.0,1.0,,,
224,0,,html-keyboard-response,224,495485,0.0-7.14-0.14,depslk9jlns,2022-09-19 16:45:10.704,631b45872f295244edb41f3e,3,57,38,89,72,30,Male,1557.400000006,,"
  <table>
  <tr height=300>
    <td width=300 height=300><img src=""static/images/cards/stack_of_black_moons.svg"" width=""175px"" height=""250px""></img></td>
    <td width=300 height=300><img src=""static/images/cards/stack_of_red_moons.svg"" width=""175px"" height=""250px""></img></td>
  </tr>
  <tr height=200>
    <td width=300><img src=""static/images/keys/w.svg"" width=""35%"" height=""75%""></img></td>
    <td width=300><img src=""static/images/keys/o.svg"" width=""35%"" height=""75%""></img></td>
  </tr>
</table>
  ",87.0,1.0,,,,,,,,,,,,,,,,,,,,,,,,,,
225,0,,html-keyboard-response,225,496461,0.0-7.14-1.14,depslk9jlns,2022-09-19 16:45:10.704,631b45872f295244edb41f3e,3,57,38,89,72,30,Male,471.8999999762,,"
  <table>
  <tr height=300>
    <td width=300 height=300><img src=""static/images/cards/back_of_black_moons.svg"" width=""175px"" height=""250px""></img></td>
    <td width=300 height=300><img src=""static/images/cards/back_of_black_moons.svg"" width=""175px"" height=""250px""></img></td>
  </tr>
  <tr height=200>
    <td width=300><img src=""static/images/keys/z.svg"" width=""35%"" height=""75%""></img></td>
    <td width=300><img src=""static/images/keys/m.svg"" width=""35%"" height=""75%""></img></td>
  </tr>
</table>
  ",77.0,1.0,,,,,,,,,,,,,,,,,,,,,,,,,,
226,0,,html-keyboard-response,226,497973,0.0-7.14-2.14,depslk9jlns,2022-09-19 16:45:10.704,631b45872f295244edb41f3e,3,57,38,89,72,30,Male,,,"
  <table>
  <tr height=300>
    <td width=300 height=300><img src=""static/images/cards/back_of_black_moons.svg"" width=""175px"" height=""250px""></img></td>
    <td width=300 height=300><img src=""static/images/cards/2_of_black_moons.svg"" width=""175px"" height=""250px""></img></td>
  </tr>
  <tr height=200>
    <td width=300><img src=""static/images/keys/z.svg"" width=""35%"" height=""75%""></img></td>
    <td width=300><img src=""static/images/keys/m.svg"" width=""35%"" height=""75%""></img></td>
  </tr>
</table>
  ",,,,,,,,,,,,,,,,,,,,,,,,,,,,
227,0,,html-keyboard-response,227,499493,0.0-7.14-3.14,depslk9jlns,2022-09-19 16:45:10.704,631b45872f295244edb41f3e,3,57,38,89,72,30,Male,,,"<p style=""font-size:50px"">You Lose!
No points this round.</p>",,,,,,,,,,,,,,,,,,,,,,,,,,,,
228,0,,html-keyboard-response,228,500010,0.0-7.14-4.14,depslk9jlns,2022-09-19 16:45:10.704,631b45872f295244edb41f3e,3,57,38,89,72,30,Male,,,,,,1.0,choice,14.0,A,B,black,red,moons,moons,A,B,A,black,moons,1557.400000006,1.0,1.0,NA,right,471.8999999762,2.0,0.0,0.0,,,
229,0,,html-keyboard-response,229,500606,0.0-7.15-0.15,depslk9jlns,2022-09-19 16:45:10.704,631b45872f295244edb41f3e,3,57,38,89,72,30,Male,593.900000006,,"
  <table>
  <tr height=300>
    <td width=300 height=300><img src=""static/images/cards/stack_of_black_moons.svg"" width=""175px"" height=""250px""></img></td>
    <td width=300 height=300><img src=""static/images/cards/stack_of_red_stars.svg"" width=""175px"" height=""250px""></img></td>
  </tr>
  <tr height=200>
    <td width=300><img src=""static/images/keys/w.svg"" width=""35%"" height=""75%""></img></td>
    <td width=300><img src=""static/images/keys/o.svg"" width=""35%"" height=""75%""></img></td>
  </tr>
</table>
  ",87.0,1.0,,,,,,,,,,,,,,,,,,,,,,,,,,
230,0,,html-keyboard-response,230,502092,0.0-7.15-1.15,depslk9jlns,2022-09-19 16:45:10.704,631b45872f295244edb41f3e,3,57,38,89,72,30,Male,980.900000006,,"
  <table>
  <tr height=300>
    <td width=300 height=300><img src=""static/images/cards/back_of_black_moons.svg"" width=""175px"" height=""250px""></img></td>
    <td width=300 height=300><img src=""static/images/cards/back_of_black_moons.svg"" width=""175px"" height=""250px""></img></td>
  </tr>
  <tr height=200>
    <td width=300><img src=""static/images/keys/z.svg"" width=""35%"" height=""75%""></img></td>
    <td width=300><img src=""static/images/keys/m.svg"" width=""35%"" height=""75%""></img></td>
  </tr>
</table>
  ",77.0,1.0,,,,,,,,,,,,,,,,,,,,,,,,,,
231,0,,html-keyboard-response,231,503596,0.0-7.15-2.15,depslk9jlns,2022-09-19 16:45:10.704,631b45872f295244edb41f3e,3,57,38,89,72,30,Male,,,"
  <table>
  <tr height=300>
    <td width=300 height=300><img src=""static/images/cards/back_of_black_moons.svg"" width=""175px"" height=""250px""></img></td>
    <td width=300 height=300><img src=""static/images/cards/2_of_black_moons.svg"" width=""175px"" height=""250px""></img></td>
  </tr>
  <tr height=200>
    <td width=300><img src=""static/images/keys/z.svg"" width=""35%"" height=""75%""></img></td>
    <td width=300><img src=""static/images/keys/m.svg"" width=""35%"" height=""75%""></img></td>
  </tr>
</table>
  ",,,,,,,,,,,,,,,,,,,,,,,,,,,,
232,0,,html-keyboard-response,232,505112,0.0-7.15-3.15,depslk9jlns,2022-09-19 16:45:10.704,631b45872f295244edb41f3e,3,57,38,89,72,30,Male,,,"<p style=""font-size:50px"">You Lose!
No points this round.</p>",,,,,,,,,,,,,,,,,,,,,,,,,,,,
233,0,,html-keyboard-response,233,505630,0.0-7.15-4.15,depslk9jlns,2022-09-19 16:45:10.704,631b45872f295244edb41f3e,3,57,38,89,72,30,Male,,,,,,1.0,choice,15.0,A,D,black,red,moons,stars,A,D,A,black,moons,593.900000006,1.0,1.0,NA,right,980.900000006,2.0,0.0,0.0,,,
234,0,,html-keyboard-response,234,506189,0.0-7.16-0.16,depslk9jlns,2022-09-19 16:45:10.704,631b45872f295244edb41f3e,3,57,38,89,72,30,Male,557.099999994,,"
  <table>
  <tr height=300>
    <td width=300 height=300><img src=""static/images/cards/stack_of_black_stars.svg"" width=""175px"" height=""250px""></img></td>
    <td width=300 height=300><img src=""static/images/cards/stack_of_red_moons.svg"" width=""175px"" height=""250px""></img></td>
  </tr>
  <tr height=200>
    <td width=300><img src=""static/images/keys/w.svg"" width=""35%"" height=""75%""></img></td>
    <td width=300><img src=""static/images/keys/o.svg"" width=""35%"" height=""75%""></img></td>
  </tr>
</table>
  ",87.0,1.0,,,,,,,,,,,,,,,,,,,,,,,,,,
235,0,,html-keyboard-response,235,507053,0.0-7.16-1.16,depslk9jlns,2022-09-19 16:45:10.704,631b45872f295244edb41f3e,3,57,38,89,72,30,Male,348.1999999881,,"
  <table>
  <tr height=300>
    <td width=300 height=300><img src=""static/images/cards/back_of_black_stars.svg"" width=""175px"" height=""250px""></img></td>
    <td width=300 height=300><img src=""static/images/cards/back_of_black_stars.svg"" width=""175px"" height=""250px""></img></td>
  </tr>
  <tr height=200>
    <td width=300><img src=""static/images/keys/z.svg"" width=""35%"" height=""75%""></img></td>
    <td width=300><img src=""static/images/keys/m.svg"" width=""35%"" height=""75%""></img></td>
  </tr>
</table>
  ",77.0,1.0,,,,,,,,,,,,,,,,,,,,,,,,,,
236,0,,html-keyboard-response,236,508567,0.0-7.16-2.16,depslk9jlns,2022-09-19 16:45:10.704,631b45872f295244edb41f3e,3,57,38,89,72,30,Male,,,"
  <table>
  <tr height=300>
    <td width=300 height=300><img src=""static/images/cards/back_of_black_stars.svg"" width=""175px"" height=""250px""></img></td>
