,index,success,trial_type,trial_index,time_elapsed,internal_node_id,subject,date,prol_id,ctbl,sense_of_control_A,sense_of_control_B,sense_of_control_C,sense_of_control_D,age,gender,rt,url,stimulus,key_press,npress,is_data_trial,phase,trial,deck1,deck2,col1,col2,sym1,sym2,deck_l,deck_r,chosen_deck,chosen_col,chosen_sym,deck_rt,choose_choice,mutual_info,hidden_key,chosen_card,card_rt,player_num,win_card,outcome,mock_rating,response,responses
0,0,1.0,fullscreen,0,11696,0.0-0.0,1eocbzkws7,2022-09-19 16:21:58.817,62a212208e8395cfb1c4e42b,2,77,26,90,34,37,Male,,,,,,,,,,,,,,,,,,,,,,,,,,,,,,,
1,0,,external-html,1,16795,0.0-1.0,1eocbzkws7,2022-09-19 16:21:58.817,62a212208e8395cfb1c4e42b,2,77,26,90,34,37,Male,4698.799999997,static/js/sub/consent.html,,,,,,,,,,,,,,,,,,,,,,,,,,,,,
2,0,,call-function,2,16799,0.0-2.0,1eocbzkws7,2022-09-19 16:21:58.817,62a212208e8395cfb1c4e42b,2,77,26,90,34,37,Male,,,,,,,,,,,,,,,,,,,,,,,,,,,,,,,
3,0,,image-keyboard-response,3,21746,0.0-3.0-0.0,1eocbzkws7,2022-09-19 16:21:58.817,62a212208e8395cfb1c4e42b,2,77,26,90,34,37,Male,4945.200000003,,static/images/instructions_CB_2/Slide1.png,39.0,,,,,,,,,,,,,,,,,,,,,,,,,,,
4,0,,image-keyboard-response,4,27699,0.0-3.1-0.1,1eocbzkws7,2022-09-19 16:21:58.817,62a212208e8395cfb1c4e42b,2,77,26,90,34,37,Male,5951.700000003,,static/images/instructions_CB_2/Slide2.png,39.0,,,,,,,,,,,,,,,,,,,,,,,,,,,
5,0,,image-keyboard-response,5,30539,0.0-3.2-0.2,1eocbzkws7,2022-09-19 16:21:58.817,62a212208e8395cfb1c4e42b,2,77,26,90,34,37,Male,2838.900000006,,static/images/instructions_CB_2/Slide3.png,39.0,,,,,,,,,,,,,,,,,,,,,,,,,,,
6,0,,image-keyboard-response,6,35311,0.0-3.3-0.3,1eocbzkws7,2022-09-19 16:21:58.817,62a212208e8395cfb1c4e42b,2,77,26,90,34,37,Male,4770.5,,static/images/instructions_CB_2/Slide4.png,39.0,,,,,,,,,,,,,,,,,,,,,,,,,,,
7,0,,image-keyboard-response,7,39655,0.0-3.4-0.4,1eocbzkws7,2022-09-19 16:21:58.817,62a212208e8395cfb1c4e42b,2,77,26,90,34,37,Male,4342.200000003,,static/images/instructions_CB_2/Slide5.png,39.0,,,,,,,,,,,,,,,,,,,,,,,,,,,
8,0,,image-keyboard-response,8,40939,0.0-3.5-0.5,1eocbzkws7,2022-09-19 16:21:58.817,62a212208e8395cfb1c4e42b,2,77,26,90,34,37,Male,1281.900000006,,static/images/instructions_CB_2/Slide6.png,39.0,,,,,,,,,,,,,,,,,,,,,,,,,,,
9,0,,image-keyboard-response,9,42785,0.0-3.6-0.6,1eocbzkws7,2022-09-19 16:21:58.817,62a212208e8395cfb1c4e42b,2,77,26,90,34,37,Male,1844.799999997,,static/images/instructions_CB_2/Slide7.png,39.0,,,,,,,,,,,,,,,,,,,,,,,,,,,
10,0,,image-keyboard-response,10,59913,0.0-3.7-0.7,1eocbzkws7,2022-09-19 16:21:58.817,62a212208e8395cfb1c4e42b,2,77,26,90,34,37,Male,17126.799999997,,static/images/instructions_CB_2/Slide8.png,39.0,,,,,,,,,,,,,,,,,,,,,,,,,,,
11,0,,image-keyboard-response,11,65830,0.0-3.8-0.8,1eocbzkws7,2022-09-19 16:21:58.817,62a212208e8395cfb1c4e42b,2,77,26,90,34,37,Male,5916.0,,static/images/instructions_CB_2/Slide9.png,39.0,,,,,,,,,,,,,,,,,,,,,,,,,,,
12,0,,image-keyboard-response,12,77084,0.0-3.9-0.9,1eocbzkws7,2022-09-19 16:21:58.817,62a212208e8395cfb1c4e42b,2,77,26,90,34,37,Male,11253.0,,static/images/instructions_CB_2/Slide10.png,39.0,,,,,,,,,,,,,,,,,,,,,,,,,,,
13,0,,image-keyboard-response,13,81857,0.0-3.10-0.10,1eocbzkws7,2022-09-19 16:21:58.817,62a212208e8395cfb1c4e42b,2,77,26,90,34,37,Male,4771.5,,static/images/instructions_CB_2/Slide11.png,39.0,,,,,,,,,,,,,,,,,,,,,,,,,,,
14,0,,image-keyboard-response,14,96759,0.0-3.11-0.11,1eocbzkws7,2022-09-19 16:21:58.817,62a212208e8395cfb1c4e42b,2,77,26,90,34,37,Male,14901.5,,static/images/instructions_CB_2/Slide12.png,39.0,,,,,,,,,,,,,,,,,,,,,,,,,,,
15,0,,image-keyboard-response,15,107026,0.0-3.12-0.12,1eocbzkws7,2022-09-19 16:21:58.817,62a212208e8395cfb1c4e42b,2,77,26,90,34,37,Male,10266.299999997,,static/images/instructions_CB_2/Slide13.png,39.0,,,,,,,,,,,,,,,,,,,,,,,,,,,
16,0,,image-keyboard-response,16,112036,0.0-3.13-0.13,1eocbzkws7,2022-09-19 16:21:58.817,62a212208e8395cfb1c4e42b,2,77,26,90,34,37,Male,5008.400000006,,static/images/instructions_CB_2/Slide14.png,37.0,,,,,,,,,,,,,,,,,,,,,,,,,,,
17,0,,image-keyboard-response,17,121658,0.0-3.14-0.14,1eocbzkws7,2022-09-19 16:21:58.817,62a212208e8395cfb1c4e42b,2,77,26,90,34,37,Male,9621.099999994,,static/images/instructions_CB_2/Slide13.png,39.0,,,,,,,,,,,,,,,,,,,,,,,,,,,
18,0,,image-keyboard-response,18,124999,0.0-3.15-0.15,1eocbzkws7,2022-09-19 16:21:58.817,62a212208e8395cfb1c4e42b,2,77,26,90,34,37,Male,3339.5,,static/images/instructions_CB_2/Slide14.png,39.0,,,,,,,,,,,,,,,,,,,,,,,,,,,
19,0,,image-keyboard-response,19,128525,0.0-3.16-0.16,1eocbzkws7,2022-09-19 16:21:58.817,62a212208e8395cfb1c4e42b,2,77,26,90,34,37,Male,3525.099999994,,static/images/instructions_CB_2/Slide15.png,39.0,,,,,,,,,,,,,,,,,,,,,,,,,,,
20,0,,image-keyboard-response,20,132541,0.0-3.17-0.17,1eocbzkws7,2022-09-19 16:21:58.817,62a212208e8395cfb1c4e42b,2,77,26,90,34,37,Male,4015.1000000089,,static/images/instructions_CB_2/Slide16.png,39.0,,,,,,,,,,,,,,,,,,,,,,,,,,,
21,0,,image-keyboard-response,21,140973,0.0-3.18-0.18,1eocbzkws7,2022-09-19 16:21:58.817,62a212208e8395cfb1c4e42b,2,77,26,90,34,37,Male,8431.1000000089,,static/images/instructions_CB_2/Slide17.png,39.0,,,,,,,,,,,,,,,,,,,,,,,,,,,
22,0,,image-keyboard-response,22,153059,0.0-3.19-0.19,1eocbzkws7,2022-09-19 16:21:58.817,62a212208e8395cfb1c4e42b,2,77,26,90,34,37,Male,12085.3000000119,,static/images/instructions_CB_2/Slide18.png,39.0,,,,,,,,,,,,,,,,,,,,,,,,,,,
23,0,,image-keyboard-response,23,161796,0.0-3.20-0.20,1eocbzkws7,2022-09-19 16:21:58.817,62a212208e8395cfb1c4e42b,2,77,26,90,34,37,Male,8735.599999994,,static/images/instructions_CB_2/Slide19.png,39.0,,,,,,,,,,,,,,,,,,,,,,,,,,,
24,0,,html-keyboard-response,24,163301,0.0-4.0-0.0,1eocbzkws7,2022-09-19 16:21:58.817,62a212208e8395cfb1c4e42b,2,77,26,90,34,37,Male,,,"<img src=""static/images/cards/stack_of_black_stars.svg"" width=""175px"" height=""250px""></img>",,,,,,,,,,,,,,,,,,,,,,,,,,,,
25,0,,html-keyboard-response,25,165176,0.0-4.0-1.0,1eocbzkws7,2022-09-19 16:21:58.817,62a212208e8395cfb1c4e42b,2,77,26,90,34,37,Male,1367.1000000089,,"
  <table>
  <tr height=300>
    <td width=300 height=300><img src=""static/images/cards/back_of_black_stars.svg"" width=""175px"" height=""250px""></img></td>
    <td width=300 height=300><img src=""static/images/cards/back_of_black_stars.svg"" width=""175px"" height=""250px""></img></td>
  </tr>
  <tr height=200>
    <td width=300><img src=""static/images/keys/z.svg"" width=""35%"" height=""75%""></img></td>
    <td width=300><img src=""static/images/keys/m.svg"" width=""35%"" height=""75%""></img></td>
  </tr>
</table>
  ",77.0,1.0,,,,,,,,,,,,,,,,,,,,,,,,,,
26,0,,html-keyboard-response,26,166679,0.0-4.0-2.0,1eocbzkws7,2022-09-19 16:21:58.817,62a212208e8395cfb1c4e42b,2,77,26,90,34,37,Male,,,"
  <table>
  <tr height=300>
    <td width=300 height=300><img src=""static/images/cards/back_of_black_stars.svg"" width=""175px"" height=""250px""></img></td>
    <td width=300 height=300><img src=""static/images/cards/7_of_black_stars.svg"" width=""175px"" height=""250px""></img></td>
  </tr>
  <tr height=200>
    <td width=300><img src=""static/images/keys/z.svg"" width=""35%"" height=""75%""></img></td>
    <td width=300><img src=""static/images/keys/m.svg"" width=""35%"" height=""75%""></img></td>
  </tr>
</table>
  ",,,,,,,,,,,,,,,,,,,,,,,,,,,,
27,0,,html-keyboard-response,27,168188,0.0-4.0-3.0,1eocbzkws7,2022-09-19 16:21:58.817,62a212208e8395cfb1c4e42b,2,77,26,90,34,37,Male,,,"<p style=""font-size:50px"">You win!
+10 points this round!</p>",,,,,,,,,,,,,,,,,,,,,,,,,,,,
28,0,,html-keyboard-response,28,168698,0.0-4.0-4.0,1eocbzkws7,2022-09-19 16:21:58.817,62a212208e8395cfb1c4e42b,2,77,26,90,34,37,Male,,,,,,1.0,learning,0.0,A,,black,,stars,,,,A,black,stars,,1.0,1.0,NA,right,1367.1000000089,7.0,1.0,1.0,,,
29,0,,html-keyboard-response,29,170202,0.0-4.1-0.1,1eocbzkws7,2022-09-19 16:21:58.817,62a212208e8395cfb1c4e42b,2,77,26,90,34,37,Male,,,"<img src=""static/images/cards/stack_of_red_stars.svg"" width=""175px"" height=""250px""></img>",,,,,,,,,,,,,,,,,,,,,,,,,,,,
30,0,,html-keyboard-response,30,171324,0.0-4.1-1.1,1eocbzkws7,2022-09-19 16:21:58.817,62a212208e8395cfb1c4e42b,2,77,26,90,34,37,Male,615.099999994,,"
  <table>
  <tr height=300>
    <td width=300 height=300><img src=""static/images/cards/back_of_red_stars.svg"" width=""175px"" height=""250px""></img></td>
    <td width=300 height=300><img src=""static/images/cards/back_of_red_stars.svg"" width=""175px"" height=""250px""></img></td>
  </tr>
  <tr height=200>
    <td width=300><img src=""static/images/keys/z.svg"" width=""35%"" height=""75%""></img></td>
    <td width=300></td>
  </tr>
</table>
  ",90.0,1.0,,,,,,,,,,,,,,,,,,,,,,,,,,
31,0,,html-keyboard-response,31,172828,0.0-4.1-2.1,1eocbzkws7,2022-09-19 16:21:58.817,62a212208e8395cfb1c4e42b,2,77,26,90,34,37,Male,,,"
  <table>
  <tr height=300>
    <td width=300 height=300><img src=""static/images/cards/4_of_red_stars.svg"" width=""175px"" height=""250px""></img></td>
    <td width=300 height=300><img src=""static/images/cards/back_of_red_stars.svg"" width=""175px"" height=""250px""></img></td>
  </tr>
  <tr height=200>
    <td width=300><img src=""static/images/keys/z.svg"" width=""35%"" height=""75%""></img></td>
    <td width=300></td>
  </tr>
</table>
  ",,,,,,,,,,,,,,,,,,,,,,,,,,,,
32,0,,html-keyboard-response,32,174336,0.0-4.1-3.1,1eocbzkws7,2022-09-19 16:21:58.817,62a212208e8395cfb1c4e42b,2,77,26,90,34,37,Male,,,"<p style=""font-size:50px"">You Lose!
No points this round.</p>",,,,,,,,,,,,,,,,,,,,,,,,,,,,
33,0,,html-keyboard-response,33,174847,0.0-4.1-4.1,1eocbzkws7,2022-09-19 16:21:58.817,62a212208e8395cfb1c4e42b,2,77,26,90,34,37,Male,,,,,,1.0,learning,1.0,B,,red,,stars,,,,B,red,stars,,0.0,1.0,1,left,615.099999994,4.0,0.0,0.0,,,
34,0,,html-keyboard-response,34,176348,0.0-4.2-0.2,1eocbzkws7,2022-09-19 16:21:58.817,62a212208e8395cfb1c4e42b,2,77,26,90,34,37,Male,,,"<img src=""static/images/cards/stack_of_black_moons.svg"" width=""175px"" height=""250px""></img>",,,,,,,,,,,,,,,,,,,,,,,,,,,,
35,0,,html-keyboard-response,35,177847,0.0-4.2-1.2,1eocbzkws7,2022-09-19 16:21:58.817,62a212208e8395cfb1c4e42b,2,77,26,90,34,37,Male,994.799999997,,"
  <table>
  <tr height=300>
    <td width=300 height=300><img src=""static/images/cards/back_of_black_moons.svg"" width=""175px"" height=""250px""></img></td>
    <td width=300 height=300><img src=""static/images/cards/back_of_black_moons.svg"" width=""175px"" height=""250px""></img></td>
  </tr>
  <tr height=200>
    <td width=300><img src=""static/images/keys/z.svg"" width=""35%"" height=""75%""></img></td>
    <td width=300><img src=""static/images/keys/m.svg"" width=""35%"" height=""75%""></img></td>
  </tr>
</table>
  ",90.0,1.0,,,,,,,,,,,,,,,,,,,,,,,,,,
36,0,,html-keyboard-response,36,179351,0.0-4.2-2.2,1eocbzkws7,2022-09-19 16:21:58.817,62a212208e8395cfb1c4e42b,2,77,26,90,34,37,Male,,,"
  <table>
  <tr height=300>
    <td width=300 height=300><img src=""static/images/cards/4_of_black_moons.svg"" width=""175px"" height=""250px""></img></td>
    <td width=300 height=300><img src=""static/images/cards/back_of_black_moons.svg"" width=""175px"" height=""250px""></img></td>
  </tr>
  <tr height=200>
    <td width=300><img src=""static/images/keys/z.svg"" width=""35%"" height=""75%""></img></td>
    <td width=300><img src=""static/images/keys/m.svg"" width=""35%"" height=""75%""></img></td>
  </tr>
</table>
  ",,,,,,,,,,,,,,,,,,,,,,,,,,,,
37,0,,html-keyboard-response,37,180854,0.0-4.2-3.2,1eocbzkws7,2022-09-19 16:21:58.817,62a212208e8395cfb1c4e42b,2,77,26,90,34,37,Male,,,"<p style=""font-size:50px"">You win!
+10 points this round!</p>",,,,,,,,,,,,,,,,,,,,,,,,,,,,
38,0,,html-keyboard-response,38,181365,0.0-4.2-4.2,1eocbzkws7,2022-09-19 16:21:58.817,62a212208e8395cfb1c4e42b,2,77,26,90,34,37,Male,,,,,,1.0,learning,2.0,C,,black,,moons,,,,C,black,moons,,1.0,0.0,NA,left,994.799999997,4.0,0.0,1.0,,,
39,0,,html-keyboard-response,39,182866,0.0-4.3-0.3,1eocbzkws7,2022-09-19 16:21:58.817,62a212208e8395cfb1c4e42b,2,77,26,90,34,37,Male,,,"<img src=""static/images/cards/stack_of_red_moons.svg"" width=""175px"" height=""250px""></img>",,,,,,,,,,,,,,,,,,,,,,,,,,,,
40,0,,html-keyboard-response,40,183871,0.0-4.3-1.3,1eocbzkws7,2022-09-19 16:21:58.817,62a212208e8395cfb1c4e42b,2,77,26,90,34,37,Male,497.700000003,,"
  <table>
  <tr height=300>
    <td width=300 height=300><img src=""static/images/cards/back_of_red_moons.svg"" width=""175px"" height=""250px""></img></td>
    <td width=300 height=300><img src=""static/images/cards/back_of_red_moons.svg"" width=""175px"" height=""250px""></img></td>
  </tr>
  <tr height=200>
    <td width=300><img src=""static/images/keys/z.svg"" width=""35%"" height=""75%""></img></td>
    <td width=300></td>
  </tr>
</table>
  ",90.0,1.0,,,,,,,,,,,,,,,,,,,,,,,,,,
41,0,,html-keyboard-response,41,185379,0.0-4.3-2.3,1eocbzkws7,2022-09-19 16:21:58.817,62a212208e8395cfb1c4e42b,2,77,26,90,34,37,Male,,,"
  <table>
  <tr height=300>
    <td width=300 height=300><img src=""static/images/cards/8_of_red_moons.svg"" width=""175px"" height=""250px""></img></td>
    <td width=300 height=300><img src=""static/images/cards/back_of_red_moons.svg"" width=""175px"" height=""250px""></img></td>
  </tr>
  <tr height=200>
    <td width=300><img src=""static/images/keys/z.svg"" width=""35%"" height=""75%""></img></td>
    <td width=300></td>
  </tr>
</table>
  ",,,,,,,,,,,,,,,,,,,,,,,,,,,,
42,0,,html-keyboard-response,42,186882,0.0-4.3-3.3,1eocbzkws7,2022-09-19 16:21:58.817,62a212208e8395cfb1c4e42b,2,77,26,90,34,37,Male,,,"<p style=""font-size:50px"">You Lose!
No points this round.</p>",,,,,,,,,,,,,,,,,,,,,,,,,,,,
43,0,,html-keyboard-response,43,187391,0.0-4.3-4.3,1eocbzkws7,2022-09-19 16:21:58.817,62a212208e8395cfb1c4e42b,2,77,26,90,34,37,Male,,,,,,1.0,learning,3.0,D,,red,,moons,,,,D,red,moons,,0.0,0.0,1,left,497.700000003,8.0,1.0,0.0,,,
44,0,,html-keyboard-response,44,188892,0.0-4.4-0.4,1eocbzkws7,2022-09-19 16:21:58.817,62a212208e8395cfb1c4e42b,2,77,26,90,34,37,Male,,,"<img src=""static/images/cards/stack_of_red_bolts.svg"" width=""175px"" height=""250px""></img>",,,,,,,,,,,,,,,,,,,,,,,,,,,,
45,0,,html-keyboard-response,45,190177,0.0-4.4-1.4,1eocbzkws7,2022-09-19 16:21:58.817,62a212208e8395cfb1c4e42b,2,77,26,90,34,37,Male,777.3999999911,,"
  <table>
  <tr height=300>
    <td width=300 height=300><img src=""static/images/cards/back_of_red_bolts.svg"" width=""175px"" height=""250px""></img></td>
    <td width=300 height=300><img src=""static/images/cards/back_of_red_bolts.svg"" width=""175px"" height=""250px""></img></td>
  </tr>
  <tr height=200>
    <td width=300><img src=""static/images/keys/z.svg"" width=""35%"" height=""75%""></img></td>
    <td width=300><img src=""static/images/keys/m.svg"" width=""35%"" height=""75%""></img></td>
  </tr>
</table>
  ",77.0,1.0,,,,,,,,,,,,,,,,,,,,,,,,,,
46,0,,html-keyboard-response,46,191683,0.0-4.4-2.4,1eocbzkws7,2022-09-19 16:21:58.817,62a212208e8395cfb1c4e42b,2,77,26,90,34,37,Male,,,"
  <table>
  <tr height=300>
    <td width=300 height=300><img src=""static/images/cards/back_of_red_bolts.svg"" width=""175px"" height=""250px""></img></td>
    <td width=300 height=300><img src=""static/images/cards/3_of_red_bolts.svg"" width=""175px"" height=""250px""></img></td>
  </tr>
  <tr height=200>
    <td width=300><img src=""static/images/keys/z.svg"" width=""35%"" height=""75%""></img></td>
    <td width=300><img src=""static/images/keys/m.svg"" width=""35%"" height=""75%""></img></td>
  </tr>
</table>
  ",,,,,,,,,,,,,,,,,,,,,,,,,,,,
47,0,,html-keyboard-response,47,193191,0.0-4.4-3.4,1eocbzkws7,2022-09-19 16:21:58.817,62a212208e8395cfb1c4e42b,2,77,26,90,34,37,Male,,,"<p style=""font-size:50px"">You win!
+10 points this round!</p>",,,,,,,,,,,,,,,,,,,,,,,,,,,,
48,0,,html-keyboard-response,48,193702,0.0-4.4-4.4,1eocbzkws7,2022-09-19 16:21:58.817,62a212208e8395cfb1c4e42b,2,77,26,90,34,37,Male,,,,,,1.0,learning,4.0,Xc,,red,,bolts,,,,Xc,red,bolts,,1.0,0.0,NA,right,777.3999999911,3.0,0.0,1.0,,,
49,0,,html-keyboard-response,49,195204,0.0-4.5-0.5,1eocbzkws7,2022-09-19 16:21:58.817,62a212208e8395cfb1c4e42b,2,77,26,90,34,37,Male,,,"<img src=""static/images/cards/stack_of_black_bolts.svg"" width=""175px"" height=""250px""></img>",,,,,,,,,,,,,,,,,,,,,,,,,,,,
50,0,,html-keyboard-response,50,196379,0.0-4.5-1.5,1eocbzkws7,2022-09-19 16:21:58.817,62a212208e8395cfb1c4e42b,2,77,26,90,34,37,Male,667.400000006,,"
  <table>
  <tr height=300>
    <td width=300 height=300><img src=""static/images/cards/back_of_black_bolts.svg"" width=""175px"" height=""250px""></img></td>
    <td width=300 height=300><img src=""static/images/cards/back_of_black_bolts.svg"" width=""175px"" height=""250px""></img></td>
  </tr>
  <tr height=200>
    <td width=300></td>
    <td width=300><img src=""static/images/keys/m.svg"" width=""35%"" height=""75%""></img></td>
  </tr>
</table>
  ",77.0,1.0,,,,,,,,,,,,,,,,,,,,,,,,,,
51,0,,html-keyboard-response,51,197883,0.0-4.5-2.5,1eocbzkws7,2022-09-19 16:21:58.817,62a212208e8395cfb1c4e42b,2,77,26,90,34,37,Male,,,"
  <table>
  <tr height=300>
    <td width=300 height=300><img src=""static/images/cards/back_of_black_bolts.svg"" width=""175px"" height=""250px""></img></td>
    <td width=300 height=300><img src=""static/images/cards/4_of_black_bolts.svg"" width=""175px"" height=""250px""></img></td>
  </tr>
  <tr height=200>
    <td width=300></td>
    <td width=300><img src=""static/images/keys/m.svg"" width=""35%"" height=""75%""></img></td>
  </tr>
</table>
  ",,,,,,,,,,,,,,,,,,,,,,,,,,,,
52,0,,html-keyboard-response,52,199390,0.0-4.5-3.5,1eocbzkws7,2022-09-19 16:21:58.817,62a212208e8395cfb1c4e42b,2,77,26,90,34,37,Male,,,"<p style=""font-size:50px"">You win!
+10 points this round!</p>",,,,,,,,,,,,,,,,,,,,,,,,,,,,
53,0,,html-keyboard-response,53,199901,0.0-4.5-4.5,1eocbzkws7,2022-09-19 16:21:58.817,62a212208e8395cfb1c4e42b,2,77,26,90,34,37,Male,,,,,,1.0,learning,5.0,Xnc,,black,,bolts,,,,Xnc,black,bolts,,0.0,0.0,0,right,667.400000006,4.0,0.0,1.0,,,
54,0,,html-keyboard-response,54,201403,0.0-4.6-0.6,1eocbzkws7,2022-09-19 16:21:58.817,62a212208e8395cfb1c4e42b,2,77,26,90,34,37,Male,,,"<img src=""static/images/cards/stack_of_black_stars.svg"" width=""175px"" height=""250px""></img>",,,,,,,,,,,,,,,,,,,,,,,,,,,,
55,0,,html-keyboard-response,55,202694,0.0-4.6-1.6,1eocbzkws7,2022-09-19 16:21:58.817,62a212208e8395cfb1c4e42b,2,77,26,90,34,37,Male,788.299999997,,"
  <table>
  <tr height=300>
    <td width=300 height=300><img src=""static/images/cards/back_of_black_stars.svg"" width=""175px"" height=""250px""></img></td>
    <td width=300 height=300><img src=""static/images/cards/back_of_black_stars.svg"" width=""175px"" height=""250px""></img></td>
  </tr>
  <tr height=200>
    <td width=300><img src=""static/images/keys/z.svg"" width=""35%"" height=""75%""></img></td>
    <td width=300><img src=""static/images/keys/m.svg"" width=""35%"" height=""75%""></img></td>
  </tr>
</table>
  ",90.0,1.0,,,,,,,,,,,,,,,,,,,,,,,,,,
56,0,,html-keyboard-response,56,204197,0.0-4.6-2.6,1eocbzkws7,2022-09-19 16:21:58.817,62a212208e8395cfb1c4e42b,2,77,26,90,34,37,Male,,,"
  <table>
  <tr height=300>
    <td width=300 height=300><img src=""static/images/cards/1_of_black_stars.svg"" width=""175px"" height=""250px""></img></td>
    <td width=300 height=300><img src=""static/images/cards/back_of_black_stars.svg"" width=""175px"" height=""250px""></img></td>
  </tr>
  <tr height=200>
    <td width=300><img src=""static/images/keys/z.svg"" width=""35%"" height=""75%""></img></td>
    <td width=300><img src=""static/images/keys/m.svg"" width=""35%"" height=""75%""></img></td>
  </tr>
</table>
  ",,,,,,,,,,,,,,,,,,,,,,,,,,,,
57,0,,html-keyboard-response,57,205703,0.0-4.6-3.6,1eocbzkws7,2022-09-19 16:21:58.817,62a212208e8395cfb1c4e42b,2,77,26,90,34,37,Male,,,"<p style=""font-size:50px"">You Lose!
No points this round.</p>",,,,,,,,,,,,,,,,,,,,,,,,,,,,
58,0,,html-keyboard-response,58,206209,0.0-4.6-4.6,1eocbzkws7,2022-09-19 16:21:58.817,62a212208e8395cfb1c4e42b,2,77,26,90,34,37,Male,,,,,,1.0,learning,6.0,A,,black,,stars,,,,A,black,stars,,1.0,1.0,NA,left,788.299999997,1.0,0.0,0.0,,,
59,0,,html-keyboard-response,59,207711,0.0-4.7-0.7,1eocbzkws7,2022-09-19 16:21:58.817,62a212208e8395cfb1c4e42b,2,77,26,90,34,37,Male,,,"<img src=""static/images/cards/stack_of_red_stars.svg"" width=""175px"" height=""250px""></img>",,,,,,,,,,,,,,,,,,,,,,,,,,,,
60,0,,html-keyboard-response,60,208753,0.0-4.7-1.7,1eocbzkws7,2022-09-19 16:21:58.817,62a212208e8395cfb1c4e42b,2,77,26,90,34,37,Male,534.8000000119,,"
  <table>
  <tr height=300>
    <td width=300 height=300><img src=""static/images/cards/back_of_red_stars.svg"" width=""175px"" height=""250px""></img></td>
    <td width=300 height=300><img src=""static/images/cards/back_of_red_stars.svg"" width=""175px"" height=""250px""></img></td>
  </tr>
  <tr height=200>
    <td width=300></td>
    <td width=300><img src=""static/images/keys/m.svg"" width=""35%"" height=""75%""></img></td>
  </tr>
</table>
  ",77.0,1.0,,,,,,,,,,,,,,,,,,,,,,,,,,
61,0,,html-keyboard-response,61,210260,0.0-4.7-2.7,1eocbzkws7,2022-09-19 16:21:58.817,62a212208e8395cfb1c4e42b,2,77,26,90,34,37,Male,,,"
  <table>
  <tr height=300>
    <td width=300 height=300><img src=""static/images/cards/back_of_red_stars.svg"" width=""175px"" height=""250px""></img></td>
    <td width=300 height=300><img src=""static/images/cards/9_of_red_stars.svg"" width=""175px"" height=""250px""></img></td>
  </tr>
  <tr height=200>
    <td width=300></td>
    <td width=300><img src=""static/images/keys/m.svg"" width=""35%"" height=""75%""></img></td>
  </tr>
</table>
  ",,,,,,,,,,,,,,,,,,,,,,,,,,,,
62,0,,html-keyboard-response,62,211771,0.0-4.7-3.7,1eocbzkws7,2022-09-19 16:21:58.817,62a212208e8395cfb1c4e42b,2,77,26,90,34,37,Male,,,"<p style=""font-size:50px"">You win!
+10 points this round!</p>",,,,,,,,,,,,,,,,,,,,,,,,,,,,
63,0,,html-keyboard-response,63,212282,0.0-4.7-4.7,1eocbzkws7,2022-09-19 16:21:58.817,62a212208e8395cfb1c4e42b,2,77,26,90,34,37,Male,,,,,,1.0,learning,7.0,B,,red,,stars,,,,B,red,stars,,0.0,1.0,0,right,534.8000000119,9.0,1.0,1.0,,,
64,0,,html-keyboard-response,64,213784,0.0-4.8-0.8,1eocbzkws7,2022-09-19 16:21:58.817,62a212208e8395cfb1c4e42b,2,77,26,90,34,37,Male,,,"<img src=""static/images/cards/stack_of_black_moons.svg"" width=""175px"" height=""250px""></img>",,,,,,,,,,,,,,,,,,,,,,,,,,,,
65,0,,html-keyboard-response,65,215119,0.0-4.8-1.8,1eocbzkws7,2022-09-19 16:21:58.817,62a212208e8395cfb1c4e42b,2,77,26,90,34,37,Male,828.5,,"
  <table>
  <tr height=300>
    <td width=300 height=300><img src=""static/images/cards/back_of_black_moons.svg"" width=""175px"" height=""250px""></img></td>
    <td width=300 height=300><img src=""static/images/cards/back_of_black_moons.svg"" width=""175px"" height=""250px""></img></td>
  </tr>
  <tr height=200>
    <td width=300><img src=""static/images/keys/z.svg"" width=""35%"" height=""75%""></img></td>
    <td width=300><img src=""static/images/keys/m.svg"" width=""35%"" height=""75%""></img></td>
  </tr>
</table>
  ",77.0,1.0,,,,,,,,,,,,,,,,,,,,,,,,,,
66,0,,html-keyboard-response,66,216626,0.0-4.8-2.8,1eocbzkws7,2022-09-19 16:21:58.817,62a212208e8395cfb1c4e42b,2,77,26,90,34,37,Male,,,"
  <table>
  <tr height=300>
    <td width=300 height=300><img src=""static/images/cards/back_of_black_moons.svg"" width=""175px"" height=""250px""></img></td>
    <td width=300 height=300><img src=""static/images/cards/8_of_black_moons.svg"" width=""175px"" height=""250px""></img></td>
  </tr>
  <tr height=200>
    <td width=300><img src=""static/images/keys/z.svg"" width=""35%"" height=""75%""></img></td>
    <td width=300><img src=""static/images/keys/m.svg"" width=""35%"" height=""75%""></img></td>
  </tr>
</table>
  ",,,,,,,,,,,,,,,,,,,,,,,,,,,,
67,0,,html-keyboard-response,67,218136,0.0-4.8-3.8,1eocbzkws7,2022-09-19 16:21:58.817,62a212208e8395cfb1c4e42b,2,77,26,90,34,37,Male,,,"<p style=""font-size:50px"">You win!
+10 points this round!</p>",,,,,,,,,,,,,,,,,,,,,,,,,,,,
68,0,,html-keyboard-response,68,218647,0.0-4.8-4.8,1eocbzkws7,2022-09-19 16:21:58.817,62a212208e8395cfb1c4e42b,2,77,26,90,34,37,Male,,,,,,1.0,learning,8.0,C,,black,,moons,,,,C,black,moons,,1.0,0.0,NA,right,828.5,8.0,1.0,1.0,,,
69,0,,html-keyboard-response,69,220150,0.0-4.9-0.9,1eocbzkws7,2022-09-19 16:21:58.817,62a212208e8395cfb1c4e42b,2,77,26,90,34,37,Male,,,"<img src=""static/images/cards/stack_of_red_moons.svg"" width=""175px"" height=""250px""></img>",,,,,,,,,,,,,,,,,,,,,,,,,,,,
70,0,,html-keyboard-response,70,221208,0.0-4.9-1.9,1eocbzkws7,2022-09-19 16:21:58.817,62a212208e8395cfb1c4e42b,2,77,26,90,34,37,Male,551.0,,"
  <table>
  <tr height=300>
    <td width=300 height=300><img src=""static/images/cards/back_of_red_moons.svg"" width=""175px"" height=""250px""></img></td>
    <td width=300 height=300><img src=""static/images/cards/back_of_red_moons.svg"" width=""175px"" height=""250px""></img></td>
  </tr>
  <tr height=200>
    <td width=300><img src=""static/images/keys/z.svg"" width=""35%"" height=""75%""></img></td>
    <td width=300></td>
  </tr>
</table>
  ",90.0,1.0,,,,,,,,,,,,,,,,,,,,,,,,,,
71,0,,html-keyboard-response,71,222715,0.0-4.9-2.9,1eocbzkws7,2022-09-19 16:21:58.817,62a212208e8395cfb1c4e42b,2,77,26,90,34,37,Male,,,"
  <table>
  <tr height=300>
    <td width=300 height=300><img src=""static/images/cards/1_of_red_moons.svg"" width=""175px"" height=""250px""></img></td>
    <td width=300 height=300><img src=""static/images/cards/back_of_red_moons.svg"" width=""175px"" height=""250px""></img></td>
  </tr>
  <tr height=200>
    <td width=300><img src=""static/images/keys/z.svg"" width=""35%"" height=""75%""></img></td>
    <td width=300></td>
  </tr>
</table>
  ",,,,,,,,,,,,,,,,,,,,,,,,,,,,
72,0,,html-keyboard-response,72,224222,0.0-4.9-3.9,1eocbzkws7,2022-09-19 16:21:58.817,62a212208e8395cfb1c4e42b,2,77,26,90,34,37,Male,,,"<p style=""font-size:50px"">You win!
+10 points this round!</p>",,,,,,,,,,,,,,,,,,,,,,,,,,,,
73,0,,html-keyboard-response,73,224733,0.0-4.9-4.9,1eocbzkws7,2022-09-19 16:21:58.817,62a212208e8395cfb1c4e42b,2,77,26,90,34,37,Male,,,,,,1.0,learning,9.0,D,,red,,moons,,,,D,red,moons,,0.0,0.0,1,left,551.0,1.0,0.0,1.0,,,
74,0,,html-keyboard-response,74,226235,0.0-4.10-0.10,1eocbzkws7,2022-09-19 16:21:58.817,62a212208e8395cfb1c4e42b,2,77,26,90,34,37,Male,,,"<img src=""static/images/cards/stack_of_red_bolts.svg"" width=""175px"" height=""250px""></img>",,,,,,,,,,,,,,,,,,,,,,,,,,,,
75,0,,html-keyboard-response,75,227097,0.0-4.10-1.10,1eocbzkws7,2022-09-19 16:21:58.817,62a212208e8395cfb1c4e42b,2,77,26,90,34,37,Male,358.099999994,,"
  <table>
  <tr height=300>
    <td width=300 height=300><img src=""static/images/cards/back_of_red_bolts.svg"" width=""175px"" height=""250px""></img></td>
    <td width=300 height=300><img src=""static/images/cards/back_of_red_bolts.svg"" width=""175px"" height=""250px""></img></td>
  </tr>
  <tr height=200>
    <td width=300><img src=""static/images/keys/z.svg"" width=""35%"" height=""75%""></img></td>
    <td width=300><img src=""static/images/keys/m.svg"" width=""35%"" height=""75%""></img></td>
  </tr>
</table>
  ",90.0,1.0,,,,,,,,,,,,,,,,,,,,,,,,,,
76,0,,html-keyboard-response,76,228602,0.0-4.10-2.10,1eocbzkws7,2022-09-19 16:21:58.817,62a212208e8395cfb1c4e42b,2,77,26,90,34,37,Male,,,"
  <table>
  <tr height=300>
    <td width=300 height=300><img src=""static/images/cards/8_of_red_bolts.svg"" width=""175px"" height=""250px""></img></td>
    <td width=300 height=300><img src=""static/images/cards/back_of_red_bolts.svg"" width=""175px"" height=""250px""></img></td>
  </tr>
  <tr height=200>
    <td width=300><img src=""static/images/keys/z.svg"" width=""35%"" height=""75%""></img></td>
    <td width=300><img src=""static/images/keys/m.svg"" width=""35%"" height=""75%""></img></td>
  </tr>
</table>
  ",,,,,,,,,,,,,,,,,,,,,,,,,,,,
77,0,,html-keyboard-response,77,230112,0.0-4.10-3.10,1eocbzkws7,2022-09-19 16:21:58.817,62a212208e8395cfb1c4e42b,2,77,26,90,34,37,Male,,,"<p style=""font-size:50px"">You win!
+10 points this round!</p>",,,,,,,,,,,,,,,,,,,,,,,,,,,,
78,0,,html-keyboard-response,78,230621,0.0-4.10-4.10,1eocbzkws7,2022-09-19 16:21:58.817,62a212208e8395cfb1c4e42b,2,77,26,90,34,37,Male,,,,,,1.0,learning,10.0,Xc,,red,,bolts,,,,Xc,red,bolts,,1.0,0.0,NA,left,358.099999994,8.0,1.0,1.0,,,
79,0,,html-keyboard-response,79,232124,0.0-4.11-0.11,1eocbzkws7,2022-09-19 16:21:58.817,62a212208e8395cfb1c4e42b,2,77,26,90,34,37,Male,,,"<img src=""static/images/cards/stack_of_black_bolts.svg"" width=""175px"" height=""250px""></img>",,,,,,,,,,,,,,,,,,,,,,,,,,,,
80,0,,html-keyboard-response,80,233126,0.0-4.11-1.11,1eocbzkws7,2022-09-19 16:21:58.817,62a212208e8395cfb1c4e42b,2,77,26,90,34,37,Male,494.200000003,,"
  <table>
  <tr height=300>
    <td width=300 height=300><img src=""static/images/cards/back_of_black_bolts.svg"" width=""175px"" height=""250px""></img></td>
    <td width=300 height=300><img src=""static/images/cards/back_of_black_bolts.svg"" width=""175px"" height=""250px""></img></td>
  </tr>
  <tr height=200>
    <td width=300></td>
    <td width=300><img src=""static/images/keys/m.svg"" width=""35%"" height=""75%""></img></td>
  </tr>
</table>
  ",77.0,1.0,,,,,,,,,,,,,,,,,,,,,,,,,,
81,0,,html-keyboard-response,81,234629,0.0-4.11-2.11,1eocbzkws7,2022-09-19 16:21:58.817,62a212208e8395cfb1c4e42b,2,77,26,90,34,37,Male,,,"
  <table>
  <tr height=300>
    <td width=300 height=300><img src=""static/images/cards/back_of_black_bolts.svg"" width=""175px"" height=""250px""></img></td>
    <td width=300 height=300><img src=""static/images/cards/8_of_black_bolts.svg"" width=""175px"" height=""250px""></img></td>
  </tr>
  <tr height=200>
    <td width=300></td>
    <td width=300><img src=""static/images/keys/m.svg"" width=""35%"" height=""75%""></img></td>
  </tr>
</table>
  ",,,,,,,,,,,,,,,,,,,,,,,,,,,,
82,0,,html-keyboard-response,82,236135,0.0-4.11-3.11,1eocbzkws7,2022-09-19 16:21:58.817,62a212208e8395cfb1c4e42b,2,77,26,90,34,37,Male,,,"<p style=""font-size:50px"">You win!
+10 points this round!</p>",,,,,,,,,,,,,,,,,,,,,,,,,,,,
83,0,,html-keyboard-response,83,236643,0.0-4.11-4.11,1eocbzkws7,2022-09-19 16:21:58.817,62a212208e8395cfb1c4e42b,2,77,26,90,34,37,Male,,,,,,1.0,learning,11.0,Xnc,,black,,bolts,,,,Xnc,black,bolts,,0.0,0.0,0,right,494.200000003,8.0,1.0,1.0,,,
84,0,,html-keyboard-response,84,238145,0.0-4.12-0.12,1eocbzkws7,2022-09-19 16:21:58.817,62a212208e8395cfb1c4e42b,2,77,26,90,34,37,Male,,,"<img src=""static/images/cards/stack_of_black_stars.svg"" width=""175px"" height=""250px""></img>",,,,,,,,,,,,,,,,,,,,,,,,,,,,
85,0,,html-keyboard-response,85,239230,0.0-4.12-1.12,1eocbzkws7,2022-09-19 16:21:58.817,62a212208e8395cfb1c4e42b,2,77,26,90,34,37,Male,582.5,,"
  <table>
  <tr height=300>
    <td width=300 height=300><img src=""static/images/cards/back_of_black_stars.svg"" width=""175px"" height=""250px""></img></td>
    <td width=300 height=300><img src=""static/images/cards/back_of_black_stars.svg"" width=""175px"" height=""250px""></img></td>
  </tr>
  <tr height=200>
    <td width=300><img src=""static/images/keys/z.svg"" width=""35%"" height=""75%""></img></td>
    <td width=300><img src=""static/images/keys/m.svg"" width=""35%"" height=""75%""></img></td>
  </tr>
</table>
  ",90.0,1.0,,,,,,,,,,,,,,,,,,,,,,,,,,
86,0,,html-keyboard-response,86,240738,0.0-4.12-2.12,1eocbzkws7,2022-09-19 16:21:58.817,62a212208e8395cfb1c4e42b,2,77,26,90,34,37,Male,,,"
  <table>
  <tr height=300>
    <td width=300 height=300><img src=""static/images/cards/1_of_black_stars.svg"" width=""175px"" height=""250px""></img></td>
    <td width=300 height=300><img src=""static/images/cards/back_of_black_stars.svg"" width=""175px"" height=""250px""></img></td>
  </tr>
  <tr height=200>
    <td width=300><img src=""static/images/keys/z.svg"" width=""35%"" height=""75%""></img></td>
    <td width=300><img src=""static/images/keys/m.svg"" width=""35%"" height=""75%""></img></td>
  </tr>
</table>
  ",,,,,,,,,,,,,,,,,,,,,,,,,,,,
87,0,,html-keyboard-response,87,242243,0.0-4.12-3.12,1eocbzkws7,2022-09-19 16:21:58.817,62a212208e8395cfb1c4e42b,2,77,26,90,34,37,Male,,,"<p style=""font-size:50px"">You Lose!
No points this round.</p>",,,,,,,,,,,,,,,,,,,,,,,,,,,,
88,0,,html-keyboard-response,88,242754,0.0-4.12-4.12,1eocbzkws7,2022-09-19 16:21:58.817,62a212208e8395cfb1c4e42b,2,77,26,90,34,37,Male,,,,,,1.0,learning,12.0,A,,black,,stars,,,,A,black,stars,,1.0,1.0,NA,left,582.5,1.0,0.0,0.0,,,
89,0,,html-keyboard-response,89,244256,0.0-4.13-0.13,1eocbzkws7,2022-09-19 16:21:58.817,62a212208e8395cfb1c4e42b,2,77,26,90,34,37,Male,,,"<img src=""static/images/cards/stack_of_red_stars.svg"" width=""175px"" height=""250px""></img>",,,,,,,,,,,,,,,,,,,,,,,,,,,,
90,0,,html-keyboard-response,90,245255,0.0-4.13-1.13,1eocbzkws7,2022-09-19 16:21:58.817,62a212208e8395cfb1c4e42b,2,77,26,90,34,37,Male,496.200000003,,"
  <table>
  <tr height=300>
    <td width=300 height=300><img src=""static/images/cards/back_of_red_stars.svg"" width=""175px"" height=""250px""></img></td>
    <td width=300 height=300><img src=""static/images/cards/back_of_red_stars.svg"" width=""175px"" height=""250px""></img></td>
  </tr>
  <tr height=200>
    <td width=300><img src=""static/images/keys/z.svg"" width=""35%"" height=""75%""></img></td>
    <td width=300></td>
  </tr>
</table>
  ",90.0,1.0,,,,,,,,,,,,,,,,,,,,,,,,,,
91,0,,html-keyboard-response,91,246762,0.0-4.13-2.13,1eocbzkws7,2022-09-19 16:21:58.817,62a212208e8395cfb1c4e42b,2,77,26,90,34,37,Male,,,"
  <table>
  <tr height=300>
    <td width=300 height=300><img src=""static/images/cards/9_of_red_stars.svg"" width=""175px"" height=""250px""></img></td>
    <td width=300 height=300><img src=""static/images/cards/back_of_red_stars.svg"" width=""175px"" height=""250px""></img></td>
  </tr>
  <tr height=200>
    <td width=300><img src=""static/images/keys/z.svg"" width=""35%"" height=""75%""></img></td>
    <td width=300></td>
  </tr>
</table>
  ",,,,,,,,,,,,,,,,,,,,,,,,,,,,
92,0,,html-keyboard-response,92,248263,0.0-4.13-3.13,1eocbzkws7,2022-09-19 16:21:58.817,62a212208e8395cfb1c4e42b,2,77,26,90,34,37,Male,,,"<p style=""font-size:50px"">You win!
+10 points this round!</p>",,,,,,,,,,,,,,,,,,,,,,,,,,,,
93,0,,html-keyboard-response,93,248774,0.0-4.13-4.13,1eocbzkws7,2022-09-19 16:21:58.817,62a212208e8395cfb1c4e42b,2,77,26,90,34,37,Male,,,,,,1.0,learning,13.0,B,,red,,stars,,,,B,red,stars,,0.0,1.0,1,left,496.200000003,9.0,1.0,1.0,,,
94,0,,html-keyboard-response,94,250276,0.0-4.14-0.14,1eocbzkws7,2022-09-19 16:21:58.817,62a212208e8395cfb1c4e42b,2,77,26,90,34,37,Male,,,"<img src=""static/images/cards/stack_of_black_moons.svg"" width=""175px"" height=""250px""></img>",,,,,,,,,,,,,,,,,,,,,,,,,,,,
95,0,,html-keyboard-response,95,251408,0.0-4.14-1.14,1eocbzkws7,2022-09-19 16:21:58.817,62a212208e8395cfb1c4e42b,2,77,26,90,34,37,Male,626.0,,"
  <table>
  <tr height=300>
    <td width=300 height=300><img src=""static/images/cards/back_of_black_moons.svg"" width=""175px"" height=""250px""></img></td>
    <td width=300 height=300><img src=""static/images/cards/back_of_black_moons.svg"" width=""175px"" height=""250px""></img></td>
  </tr>
  <tr height=200>
    <td width=300><img src=""static/images/keys/z.svg"" width=""35%"" height=""75%""></img></td>
    <td width=300><img src=""static/images/keys/m.svg"" width=""35%"" height=""75%""></img></td>
  </tr>
</table>
  ",77.0,1.0,,,,,,,,,,,,,,,,,,,,,,,,,,
96,0,,html-keyboard-response,96,252915,0.0-4.14-2.14,1eocbzkws7,2022-09-19 16:21:58.817,62a212208e8395cfb1c4e42b,2,77,26,90,34,37,Male,,,"
  <table>
  <tr height=300>
    <td width=300 height=300><img src=""static/images/cards/back_of_black_moons.svg"" width=""175px"" height=""250px""></img></td>
    <td width=300 height=300><img src=""static/images/cards/3_of_black_moons.svg"" width=""175px"" height=""250px""></img></td>
  </tr>
  <tr height=200>
    <td width=300><img src=""static/images/keys/z.svg"" width=""35%"" height=""75%""></img></td>
    <td width=300><img src=""static/images/keys/m.svg"" width=""35%"" height=""75%""></img></td>
  </tr>
</table>
  ",,,,,,,,,,,,,,,,,,,,,,,,,,,,
97,0,,html-keyboard-response,97,254424,0.0-4.14-3.14,1eocbzkws7,2022-09-19 16:21:58.817,62a212208e8395cfb1c4e42b,2,77,26,90,34,37,Male,,,"<p style=""font-size:50px"">You Lose!
No points this round.</p>",,,,,,,,,,,,,,,,,,,,,,,,,,,,
98,0,,html-keyboard-response,98,254932,0.0-4.14-4.14,1eocbzkws7,2022-09-19 16:21:58.817,62a212208e8395cfb1c4e42b,2,77,26,90,34,37,Male,,,,,,1.0,learning,14.0,C,,black,,moons,,,,C,black,moons,,1.0,0.0,NA,right,626.0,3.0,0.0,0.0,,,
99,0,,html-keyboard-response,99,256435,0.0-4.15-0.15,1eocbzkws7,2022-09-19 16:21:58.817,62a212208e8395cfb1c4e42b,2,77,26,90,34,37,Male,,,"<img src=""static/images/cards/stack_of_red_moons.svg"" width=""175px"" height=""250px""></img>",,,,,,,,,,,,,,,,,,,,,,,,,,,,
100,0,,html-keyboard-response,100,257432,0.0-4.15-1.15,1eocbzkws7,2022-09-19 16:21:58.817,62a212208e8395cfb1c4e42b,2,77,26,90,34,37,Male,489.900000006,,"
  <table>
  <tr height=300>
    <td width=300 height=300><img src=""static/images/cards/back_of_red_moons.svg"" width=""175px"" height=""250px""></img></td>
    <td width=300 height=300><img src=""static/images/cards/back_of_red_moons.svg"" width=""175px"" height=""250px""></img></td>
  </tr>
  <tr height=200>
    <td width=300></td>
    <td width=300><img src=""static/images/keys/m.svg"" width=""35%"" height=""75%""></img></td>
  </tr>
</table>
  ",77.0,1.0,,,,,,,,,,,,,,,,,,,,,,,,,,
101,0,,html-keyboard-response,101,258936,0.0-4.15-2.15,1eocbzkws7,2022-09-19 16:21:58.817,62a212208e8395cfb1c4e42b,2,77,26,90,34,37,Male,,,"
  <table>
  <tr height=300>
    <td width=300 height=300><img src=""static/images/cards/back_of_red_moons.svg"" width=""175px"" height=""250px""></img></td>
    <td width=300 height=300><img src=""static/images/cards/2_of_red_moons.svg"" width=""175px"" height=""250px""></img></td>
  </tr>
  <tr height=200>
    <td width=300></td>
    <td width=300><img src=""static/images/keys/m.svg"" width=""35%"" height=""75%""></img></td>
  </tr>
</table>
  ",,,,,,,,,,,,,,,,,,,,,,,,,,,,
102,0,,html-keyboard-response,102,260445,0.0-4.15-3.15,1eocbzkws7,2022-09-19 16:21:58.817,62a212208e8395cfb1c4e42b,2,77,26,90,34,37,Male,,,"<p style=""font-size:50px"">You Lose!
No points this round.</p>",,,,,,,,,,,,,,,,,,,,,,,,,,,,
103,0,,html-keyboard-response,103,260955,0.0-4.15-4.15,1eocbzkws7,2022-09-19 16:21:58.817,62a212208e8395cfb1c4e42b,2,77,26,90,34,37,Male,,,,,,1.0,learning,15.0,D,,red,,moons,,,,D,red,moons,,0.0,0.0,0,right,489.900000006,2.0,0.0,0.0,,,
104,0,,html-keyboard-response,104,262457,0.0-4.16-0.16,1eocbzkws7,2022-09-19 16:21:58.817,62a212208e8395cfb1c4e42b,2,77,26,90,34,37,Male,,,"<img src=""static/images/cards/stack_of_red_bolts.svg"" width=""175px"" height=""250px""></img>",,,,,,,,,,,,,,,,,,,,,,,,,,,,
105,0,,html-keyboard-response,105,263423,0.0-4.16-1.16,1eocbzkws7,2022-09-19 16:21:58.817,62a212208e8395cfb1c4e42b,2,77,26,90,34,37,Male,459.099999994,,"
  <table>
  <tr height=300>
    <td width=300 height=300><img src=""static/images/cards/back_of_red_bolts.svg"" width=""175px"" height=""250px""></img></td>
    <td width=300 height=300><img src=""static/images/cards/back_of_red_bolts.svg"" width=""175px"" height=""250px""></img></td>
  </tr>
  <tr height=200>
    <td width=300><img src=""static/images/keys/z.svg"" width=""35%"" height=""75%""></img></td>
    <td width=300><img src=""static/images/keys/m.svg"" width=""35%"" height=""75%""></img></td>
  </tr>
</table>
  ",90.0,1.0,,,,,,,,,,,,,,,,,,,,,,,,,,
106,0,,html-keyboard-response,106,264930,0.0-4.16-2.16,1eocbzkws7,2022-09-19 16:21:58.817,62a212208e8395cfb1c4e42b,2,77,26,90,34,37,Male,,,"
  <table>
  <tr height=300>
    <td width=300 height=300><img src=""static/images/cards/6_of_red_bolts.svg"" width=""175px"" height=""250px""></img></td>
    <td width=300 height=300><img src=""static/images/cards/back_of_red_bolts.svg"" width=""175px"" height=""250px""></img></td>
  </tr>
  <tr height=200>
    <td width=300><img src=""static/images/keys/z.svg"" width=""35%"" height=""75%""></img></td>
    <td width=300><img src=""static/images/keys/m.svg"" width=""35%"" height=""75%""></img></td>
  </tr>
</table>
  ",,,,,,,,,,,,,,,,,,,,,,,,,,,,
107,0,,html-keyboard-response,107,266441,0.0-4.16-3.16,1eocbzkws7,2022-09-19 16:21:58.817,62a212208e8395cfb1c4e42b,2,77,26,90,34,37,Male,,,"<p style=""font-size:50px"">You win!
+10 points this round!</p>",,,,,,,,,,,,,,,,,,,,,,,,,,,,
108,0,,html-keyboard-response,108,266951,0.0-4.16-4.16,1eocbzkws7,2022-09-19 16:21:58.817,62a212208e8395cfb1c4e42b,2,77,26,90,34,37,Male,,,,,,1.0,learning,16.0,Xc,,red,,bolts,,,,Xc,red,bolts,,1.0,0.0,NA,left,459.099999994,6.0,1.0,1.0,,,
109,0,,html-keyboard-response,109,268453,0.0-4.17-0.17,1eocbzkws7,2022-09-19 16:21:58.817,62a212208e8395cfb1c4e42b,2,77,26,90,34,37,Male,,,"<img src=""static/images/cards/stack_of_black_bolts.svg"" width=""175px"" height=""250px""></img>",,,,,,,,,,,,,,,,,,,,,,,,,,,,
110,0,,html-keyboard-response,110,269408,0.0-4.17-1.17,1eocbzkws7,2022-09-19 16:21:58.817,62a212208e8395cfb1c4e42b,2,77,26,90,34,37,Male,447.299999997,,"
  <table>
  <tr height=300>
    <td width=300 height=300><img src=""static/images/cards/back_of_black_bolts.svg"" width=""175px"" height=""250px""></img></td>
    <td width=300 height=300><img src=""static/images/cards/back_of_black_bolts.svg"" width=""175px"" height=""250px""></img></td>
  </tr>
  <tr height=200>
    <td width=300><img src=""static/images/keys/z.svg"" width=""35%"" height=""75%""></img></td>
    <td width=300></td>
  </tr>
</table>
  ",90.0,1.0,,,,,,,,,,,,,,,,,,,,,,,,,,
111,0,,html-keyboard-response,111,270915,0.0-4.17-2.17,1eocbzkws7,2022-09-19 16:21:58.817,62a212208e8395cfb1c4e42b,2,77,26,90,34,37,Male,,,"
  <table>
  <tr height=300>
    <td width=300 height=300><img src=""static/images/cards/10_of_black_bolts.svg"" width=""175px"" height=""250px""></img></td>
    <td width=300 height=300><img src=""static/images/cards/back_of_black_bolts.svg"" width=""175px"" height=""250px""></img></td>
  </tr>
  <tr height=200>
    <td width=300><img src=""static/images/keys/z.svg"" width=""35%"" height=""75%""></img></td>
    <td width=300></td>
  </tr>
</table>
  ",,,,,,,,,,,,,,,,,,,,,,,,,,,,
112,0,,html-keyboard-response,112,272424,0.0-4.17-3.17,1eocbzkws7,2022-09-19 16:21:58.817,62a212208e8395cfb1c4e42b,2,77,26,90,34,37,Male,,,"<p style=""font-size:50px"">You win!
+10 points this round!</p>",,,,,,,,,,,,,,,,,,,,,,,,,,,,
113,0,,html-keyboard-response,113,272934,0.0-4.17-4.17,1eocbzkws7,2022-09-19 16:21:58.817,62a212208e8395cfb1c4e42b,2,77,26,90,34,37,Male,,,,,,1.0,learning,17.0,Xnc,,black,,bolts,,,,Xnc,black,bolts,,0.0,0.0,1,left,447.299999997,10.0,1.0,1.0,,,
114,0,,html-keyboard-response,114,274437,0.0-4.18-0.18,1eocbzkws7,2022-09-19 16:21:58.817,62a212208e8395cfb1c4e42b,2,77,26,90,34,37,Male,,,"<img src=""static/images/cards/stack_of_black_stars.svg"" width=""175px"" height=""250px""></img>",,,,,,,,,,,,,,,,,,,,,,,,,,,,
115,0,,html-keyboard-response,115,275391,0.0-4.18-1.18,1eocbzkws7,2022-09-19 16:21:58.817,62a212208e8395cfb1c4e42b,2,77,26,90,34,37,Male,447.0,,"
  <table>
  <tr height=300>
    <td width=300 height=300><img src=""static/images/cards/back_of_black_stars.svg"" width=""175px"" height=""250px""></img></td>
    <td width=300 height=300><img src=""static/images/cards/back_of_black_stars.svg"" width=""175px"" height=""250px""></img></td>
  </tr>
  <tr height=200>
    <td width=300><img src=""static/images/keys/z.svg"" width=""35%"" height=""75%""></img></td>
    <td width=300><img src=""static/images/keys/m.svg"" width=""35%"" height=""75%""></img></td>
  </tr>
</table>
  ",77.0,1.0,,,,,,,,,,,,,,,,,,,,,,,,,,
116,0,,html-keyboard-response,116,276898,0.0-4.18-2.18,1eocbzkws7,2022-09-19 16:21:58.817,62a212208e8395cfb1c4e42b,2,77,26,90,34,37,Male,,,"
  <table>
  <tr height=300>
    <td width=300 height=300><img src=""static/images/cards/back_of_black_stars.svg"" width=""175px"" height=""250px""></img></td>
    <td width=300 height=300><img src=""static/images/cards/9_of_black_stars.svg"" width=""175px"" height=""250px""></img></td>
  </tr>
  <tr height=200>
    <td width=300><img src=""static/images/keys/z.svg"" width=""35%"" height=""75%""></img></td>
    <td width=300><img src=""static/images/keys/m.svg"" width=""35%"" height=""75%""></img></td>
  </tr>
</table>
  ",,,,,,,,,,,,,,,,,,,,,,,,,,,,
117,0,,html-keyboard-response,117,278401,0.0-4.18-3.18,1eocbzkws7,2022-09-19 16:21:58.817,62a212208e8395cfb1c4e42b,2,77,26,90,34,37,Male,,,"<p style=""font-size:50px"">You win!
+10 points this round!</p>",,,,,,,,,,,,,,,,,,,,,,,,,,,,
118,0,,html-keyboard-response,118,278906,0.0-4.18-4.18,1eocbzkws7,2022-09-19 16:21:58.817,62a212208e8395cfb1c4e42b,2,77,26,90,34,37,Male,,,,,,1.0,learning,18.0,A,,black,,stars,,,,A,black,stars,,1.0,1.0,NA,right,447.0,9.0,1.0,1.0,,,
119,0,,html-keyboard-response,119,280410,0.0-4.19-0.19,1eocbzkws7,2022-09-19 16:21:58.817,62a212208e8395cfb1c4e42b,2,77,26,90,34,37,Male,,,"<img src=""static/images/cards/stack_of_red_stars.svg"" width=""175px"" height=""250px""></img>",,,,,,,,,,,,,,,,,,,,,,,,,,,,
120,0,,html-keyboard-response,120,281326,0.0-4.19-1.19,1eocbzkws7,2022-09-19 16:21:58.817,62a212208e8395cfb1c4e42b,2,77,26,90,34,37,Male,411.3000000119,,"
  <table>
  <tr height=300>
    <td width=300 height=300><img src=""static/images/cards/back_of_red_stars.svg"" width=""175px"" height=""250px""></img></td>
    <td width=300 height=300><img src=""static/images/cards/back_of_red_stars.svg"" width=""175px"" height=""250px""></img></td>
  </tr>
  <tr height=200>
    <td width=300><img src=""static/images/keys/z.svg"" width=""35%"" height=""75%""></img></td>
    <td width=300></td>
  </tr>
</table>
  ",90.0,1.0,,,,,,,,,,,,,,,,,,,,,,,,,,
121,0,,html-keyboard-response,121,282828,0.0-4.19-2.19,1eocbzkws7,2022-09-19 16:21:58.817,62a212208e8395cfb1c4e42b,2,77,26,90,34,37,Male,,,"
  <table>
  <tr height=300>
    <td width=300 height=300><img src=""static/images/cards/2_of_red_stars.svg"" width=""175px"" height=""250px""></img></td>
    <td width=300 height=300><img src=""static/images/cards/back_of_red_stars.svg"" width=""175px"" height=""250px""></img></td>
  </tr>
  <tr height=200>
    <td width=300><img src=""static/images/keys/z.svg"" width=""35%"" height=""75%""></img></td>
    <td width=300></td>
  </tr>
</table>
  ",,,,,,,,,,,,,,,,,,,,,,,,,,,,
122,0,,html-keyboard-response,122,284339,0.0-4.19-3.19,1eocbzkws7,2022-09-19 16:21:58.817,62a212208e8395cfb1c4e42b,2,77,26,90,34,37,Male,,,"<p style=""font-size:50px"">You Lose!
No points this round.</p>",,,,,,,,,,,,,,,,,,,,,,,,,,,,
123,0,,html-keyboard-response,123,284845,0.0-4.19-4.19,1eocbzkws7,2022-09-19 16:21:58.817,62a212208e8395cfb1c4e42b,2,77,26,90,34,37,Male,,,,,,1.0,learning,19.0,B,,red,,stars,,,,B,red,stars,,0.0,1.0,1,left,411.3000000119,2.0,0.0,0.0,,,
124,0,,html-keyboard-response,124,286349,0.0-4.20-0.20,1eocbzkws7,2022-09-19 16:21:58.817,62a212208e8395cfb1c4e42b,2,77,26,90,34,37,Male,,,"<img src=""static/images/cards/stack_of_black_moons.svg"" width=""175px"" height=""250px""></img>",,,,,,,,,,,,,,,,,,,,,,,,,,,,
125,0,,html-keyboard-response,125,287851,0.0-4.20-1.20,1eocbzkws7,2022-09-19 16:21:58.817,62a212208e8395cfb1c4e42b,2,77,26,90,34,37,Male,994.900000006,,"
  <table>
  <tr height=300>
    <td width=300 height=300><img src=""static/images/cards/back_of_black_moons.svg"" width=""175px"" height=""250px""></img></td>
    <td width=300 height=300><img src=""static/images/cards/back_of_black_moons.svg"" width=""175px"" height=""250px""></img></td>
  </tr>
  <tr height=200>
    <td width=300><img src=""static/images/keys/z.svg"" width=""35%"" height=""75%""></img></td>
    <td width=300><img src=""static/images/keys/m.svg"" width=""35%"" height=""75%""></img></td>
  </tr>
</table>
  ",77.0,1.0,,,,,,,,,,,,,,,,,,,,,,,,,,
126,0,,html-keyboard-response,126,289355,0.0-4.20-2.20,1eocbzkws7,2022-09-19 16:21:58.817,62a212208e8395cfb1c4e42b,2,77,26,90,34,37,Male,,,"
  <table>
  <tr height=300>
    <td width=300 height=300><img src=""static/images/cards/back_of_black_moons.svg"" width=""175px"" height=""250px""></img></td>
    <td width=300 height=300><img src=""static/images/cards/7_of_black_moons.svg"" width=""175px"" height=""250px""></img></td>
  </tr>
  <tr height=200>
    <td width=300><img src=""static/images/keys/z.svg"" width=""35%"" height=""75%""></img></td>
    <td width=300><img src=""static/images/keys/m.svg"" width=""35%"" height=""75%""></img></td>
  </tr>
</table>
  ",,,,,,,,,,,,,,,,,,,,,,,,,,,,
127,0,,html-keyboard-response,127,290866,0.0-4.20-3.20,1eocbzkws7,2022-09-19 16:21:58.817,62a212208e8395cfb1c4e42b,2,77,26,90,34,37,Male,,,"<p style=""font-size:50px"">You Lose!
No points this round.</p>",,,,,,,,,,,,,,,,,,,,,,,,,,,,
128,0,,html-keyboard-response,128,291376,0.0-4.20-4.20,1eocbzkws7,2022-09-19 16:21:58.817,62a212208e8395cfb1c4e42b,2,77,26,90,34,37,Male,,,,,,1.0,learning,20.0,C,,black,,moons,,,,C,black,moons,,1.0,0.0,NA,right,994.900000006,7.0,1.0,0.0,,,
129,0,,html-keyboard-response,129,292878,0.0-4.21-0.21,1eocbzkws7,2022-09-19 16:21:58.817,62a212208e8395cfb1c4e42b,2,77,26,90,34,37,Male,,,"<img src=""static/images/cards/stack_of_red_moons.svg"" width=""175px"" height=""250px""></img>",,,,,,,,,,,,,,,,,,,,,,,,,,,,
130,0,,html-keyboard-response,130,293874,0.0-4.21-1.21,1eocbzkws7,2022-09-19 16:21:58.817,62a212208e8395cfb1c4e42b,2,77,26,90,34,37,Male,490.6000000089,,"
  <table>
  <tr height=300>
    <td width=300 height=300><img src=""static/images/cards/back_of_red_moons.svg"" width=""175px"" height=""250px""></img></td>
    <td width=300 height=300><img src=""static/images/cards/back_of_red_moons.svg"" width=""175px"" height=""250px""></img></td>
  </tr>
  <tr height=200>
    <td width=300><img src=""static/images/keys/z.svg"" width=""35%"" height=""75%""></img></td>
    <td width=300></td>
  </tr>
</table>
  ",90.0,1.0,,,,,,,,,,,,,,,,,,,,,,,,,,
131,0,,html-keyboard-response,131,295378,0.0-4.21-2.21,1eocbzkws7,2022-09-19 16:21:58.817,62a212208e8395cfb1c4e42b,2,77,26,90,34,37,Male,,,"
  <table>
  <tr height=300>
    <td width=300 height=300><img src=""static/images/cards/6_of_red_moons.svg"" width=""175px"" height=""250px""></img></td>
    <td width=300 height=300><img src=""static/images/cards/back_of_red_moons.svg"" width=""175px"" height=""250px""></img></td>
  </tr>
  <tr height=200>
    <td width=300><img src=""static/images/keys/z.svg"" width=""35%"" height=""75%""></img></td>
    <td width=300></td>
  </tr>
</table>
  ",,,,,,,,,,,,,,,,,,,,,,,,,,,,
132,0,,html-keyboard-response,132,296889,0.0-4.21-3.21,1eocbzkws7,2022-09-19 16:21:58.817,62a212208e8395cfb1c4e42b,2,77,26,90,34,37,Male,,,"<p style=""font-size:50px"">You win!
+10 points this round!</p>",,,,,,,,,,,,,,,,,,,,,,,,,,,,
133,0,,html-keyboard-response,133,297400,0.0-4.21-4.21,1eocbzkws7,2022-09-19 16:21:58.817,62a212208e8395cfb1c4e42b,2,77,26,90,34,37,Male,,,,,,1.0,learning,21.0,D,,red,,moons,,,,D,red,moons,,0.0,0.0,1,left,490.6000000089,6.0,1.0,1.0,,,
134,0,,html-keyboard-response,134,298902,0.0-4.22-0.22,1eocbzkws7,2022-09-19 16:21:58.817,62a212208e8395cfb1c4e42b,2,77,26,90,34,37,Male,,,"<img src=""static/images/cards/stack_of_red_bolts.svg"" width=""175px"" height=""250px""></img>",,,,,,,,,,,,,,,,,,,,,,,,,,,,
135,0,,html-keyboard-response,135,299974,0.0-4.22-1.22,1eocbzkws7,2022-09-19 16:21:58.817,62a212208e8395cfb1c4e42b,2,77,26,90,34,37,Male,566.6000000089,,"
  <table>
  <tr height=300>
    <td width=300 height=300><img src=""static/images/cards/back_of_red_bolts.svg"" width=""175px"" height=""250px""></img></td>
    <td width=300 height=300><img src=""static/images/cards/back_of_red_bolts.svg"" width=""175px"" height=""250px""></img></td>
  </tr>
  <tr height=200>
    <td width=300><img src=""static/images/keys/z.svg"" width=""35%"" height=""75%""></img></td>
    <td width=300><img src=""static/images/keys/m.svg"" width=""35%"" height=""75%""></img></td>
  </tr>
</table>
  ",90.0,1.0,,,,,,,,,,,,,,,,,,,,,,,,,,
136,0,,html-keyboard-response,136,301479,0.0-4.22-2.22,1eocbzkws7,2022-09-19 16:21:58.817,62a212208e8395cfb1c4e42b,2,77,26,90,34,37,Male,,,"
  <table>
  <tr height=300>
    <td width=300 height=300><img src=""static/images/cards/4_of_red_bolts.svg"" width=""175px"" height=""250px""></img></td>
    <td width=300 height=300><img src=""static/images/cards/back_of_red_bolts.svg"" width=""175px"" height=""250px""></img></td>
  </tr>
  <tr height=200>
    <td width=300><img src=""static/images/keys/z.svg"" width=""35%"" height=""75%""></img></td>
    <td width=300><img src=""static/images/keys/m.svg"" width=""35%"" height=""75%""></img></td>
  </tr>
</table>
  ",,,,,,,,,,,,,,,,,,,,,,,,,,,,
137,0,,html-keyboard-response,137,302982,0.0-4.22-3.22,1eocbzkws7,2022-09-19 16:21:58.817,62a212208e8395cfb1c4e42b,2,77,26,90,34,37,Male,,,"<p style=""font-size:50px"">You win!
+10 points this round!</p>",,,,,,,,,,,,,,,,,,,,,,,,,,,,
138,0,,html-keyboard-response,138,303493,0.0-4.22-4.22,1eocbzkws7,2022-09-19 16:21:58.817,62a212208e8395cfb1c4e42b,2,77,26,90,34,37,Male,,,,,,1.0,learning,22.0,Xc,,red,,bolts,,,,Xc,red,bolts,,1.0,0.0,NA,left,566.6000000089,4.0,0.0,1.0,,,
139,0,,html-keyboard-response,139,304995,0.0-4.23-0.23,1eocbzkws7,2022-09-19 16:21:58.817,62a212208e8395cfb1c4e42b,2,77,26,90,34,37,Male,,,"<img src=""static/images/cards/stack_of_black_bolts.svg"" width=""175px"" height=""250px""></img>",,,,,,,,,,,,,,,,,,,,,,,,,,,,
140,0,,html-keyboard-response,140,305945,0.0-4.23-1.23,1eocbzkws7,2022-09-19 16:21:58.817,62a212208e8395cfb1c4e42b,2,77,26,90,34,37,Male,446.6000000089,,"
  <table>
  <tr height=300>
    <td width=300 height=300><img src=""static/images/cards/back_of_black_bolts.svg"" width=""175px"" height=""250px""></img></td>
    <td width=300 height=300><img src=""static/images/cards/back_of_black_bolts.svg"" width=""175px"" height=""250px""></img></td>
  </tr>
  <tr height=200>
    <td width=300></td>
    <td width=300><img src=""static/images/keys/m.svg"" width=""35%"" height=""75%""></img></td>
  </tr>
</table>
  ",77.0,1.0,,,,,,,,,,,,,,,,,,,,,,,,,,
141,0,,html-keyboard-response,141,307447,0.0-4.23-2.23,1eocbzkws7,2022-09-19 16:21:58.817,62a212208e8395cfb1c4e42b,2,77,26,90,34,37,Male,,,"
  <table>
  <tr height=300>
    <td width=300 height=300><img src=""static/images/cards/back_of_black_bolts.svg"" width=""175px"" height=""250px""></img></td>
    <td width=300 height=300><img src=""static/images/cards/4_of_black_bolts.svg"" width=""175px"" height=""250px""></img></td>
  </tr>
  <tr height=200>
    <td width=300></td>
    <td width=300><img src=""static/images/keys/m.svg"" width=""35%"" height=""75%""></img></td>
  </tr>
</table>
  ",,,,,,,,,,,,,,,,,,,,,,,,,,,,
142,0,,html-keyboard-response,142,308955,0.0-4.23-3.23,1eocbzkws7,2022-09-19 16:21:58.817,62a212208e8395cfb1c4e42b,2,77,26,90,34,37,Male,,,"<p style=""font-size:50px"">You win!
+10 points this round!</p>",,,,,,,,,,,,,,,,,,,,,,,,,,,,
143,0,,html-keyboard-response,143,309464,0.0-4.23-4.23,1eocbzkws7,2022-09-19 16:21:58.817,62a212208e8395cfb1c4e42b,2,77,26,90,34,37,Male,,,,,,1.0,learning,23.0,Xnc,,black,,bolts,,,,Xnc,black,bolts,,0.0,0.0,0,right,446.6000000089,4.0,0.0,1.0,,,
144,0,,call-function,144,309473,0.0-5.0,1eocbzkws7,2022-09-19 16:21:58.817,62a212208e8395cfb1c4e42b,2,77,26,90,34,37,Male,,,,,,,,,,,,,,,,,,,,,,,,,,,,,,,
145,0,,image-keyboard-response,145,320815,0.0-6.0-0.0,1eocbzkws7,2022-09-19 16:21:58.817,62a212208e8395cfb1c4e42b,2,77,26,90,34,37,Male,11341.5,,static/images/instructions_CB_2/Slide20.png,39.0,,,,,,,,,,,,,,,,,,,,,,,,,,,
146,0,,image-keyboard-response,146,331048,0.0-6.1-0.1,1eocbzkws7,2022-09-19 16:21:58.817,62a212208e8395cfb1c4e42b,2,77,26,90,34,37,Male,10231.900000006,,static/images/instructions_CB_2/Slide21.png,39.0,,,,,,,,,,,,,,,,,,,,,,,,,,,
147,0,,image-keyboard-response,147,335798,0.0-6.2-0.2,1eocbzkws7,2022-09-19 16:21:58.817,62a212208e8395cfb1c4e42b,2,77,26,90,34,37,Male,4747.799999997,,static/images/instructions_CB_2/Slide22.png,39.0,,,,,,,,,,,,,,,,,,,,,,,,,,,
148,0,,image-keyboard-response,148,358231,0.0-6.3-0.3,1eocbzkws7,2022-09-19 16:21:58.817,62a212208e8395cfb1c4e42b,2,77,26,90,34,37,Male,22432.200000003,,static/images/instructions_CB_2/Slide23.png,39.0,,,,,,,,,,,,,,,,,,,,,,,,,,,
149,0,,image-keyboard-response,149,360718,0.0-6.4-0.4,1eocbzkws7,2022-09-19 16:21:58.817,62a212208e8395cfb1c4e42b,2,77,26,90,34,37,Male,2485.900000006,,static/images/instructions_CB_2/Slide24.png,39.0,,,,,,,,,,,,,,,,,,,,,,,,,,,
150,0,,html-keyboard-response,150,362655,0.0-7.0-0.0,1eocbzkws7,2022-09-19 16:21:58.817,62a212208e8395cfb1c4e42b,2,77,26,90,34,37,Male,1934.299999997,,"
  <table>
  <tr height=300>
    <td width=300 height=300><img src=""static/images/cards/stack_of_black_bolts.svg"" width=""175px"" height=""250px""></img></td>
    <td width=300 height=300><img src=""static/images/cards/stack_of_black_moons.svg"" width=""175px"" height=""250px""></img></td>
  </tr>
  <tr height=200>
    <td width=300><img src=""static/images/keys/w.svg"" width=""35%"" height=""75%""></img></td>
    <td width=300><img src=""static/images/keys/o.svg"" width=""35%"" height=""75%""></img></td>
  </tr>
</table>
  ",87.0,1.0,,,,,,,,,,,,,,,,,,,,,,,,,,
151,0,,html-keyboard-response,151,364337,0.0-7.0-1.0,1eocbzkws7,2022-09-19 16:21:58.817,62a212208e8395cfb1c4e42b,2,77,26,90,34,37,Male,1176.1000000089,,"
  <table>
  <tr height=300>
    <td width=300 height=300><img src=""static/images/cards/back_of_black_bolts.svg"" width=""175px"" height=""250px""></img></td>
    <td width=300 height=300><img src=""static/images/cards/back_of_black_bolts.svg"" width=""175px"" height=""250px""></img></td>
  </tr>
  <tr height=200>
    <td width=300><img src=""static/images/keys/z.svg"" width=""35%"" height=""75%""></img></td>
    <td width=300></td>
  </tr>
</table>
  ",90.0,1.0,,,,,,,,,,,,,,,,,,,,,,,,,,
152,0,,html-keyboard-response,152,365841,0.0-7.0-2.0,1eocbzkws7,2022-09-19 16:21:58.817,62a212208e8395cfb1c4e42b,2,77,26,90,34,37,Male,,,"
  <table>
  <tr height=300>
    <td width=300 height=300><img src=""static/images/cards/2_of_black_bolts.svg"" width=""175px"" height=""250px""></img></td>
    <td width=300 height=300><img src=""static/images/cards/back_of_black_bolts.svg"" width=""175px"" height=""250px""></img></td>
  </tr>
  <tr height=200>
    <td width=300><img src=""static/images/keys/z.svg"" width=""35%"" height=""75%""></img></td>
    <td width=300></td>
  </tr>
</table>
  ",,,,,,,,,,,,,,,,,,,,,,,,,,,,
153,0,,html-keyboard-response,153,367347,0.0-7.0-3.0,1eocbzkws7,2022-09-19 16:21:58.817,62a212208e8395cfb1c4e42b,2,77,26,90,34,37,Male,,,"<p style=""font-size:50px"">You win!
+10 points this round!</p>",,,,,,,,,,,,,,,,,,,,,,,,,,,,
154,0,,html-keyboard-response,154,367854,0.0-7.0-4.0,1eocbzkws7,2022-09-19 16:21:58.817,62a212208e8395cfb1c4e42b,2,77,26,90,34,37,Male,,,,,,1.0,choice,0.0,C,Xnc,black,black,bolts,moons,Xnc,C,Xnc,black,bolts,1934.299999997,0.0,0.0,1,left,1176.1000000089,2.0,0.0,1.0,,,
155,0,,html-keyboard-response,155,368957,0.0-7.1-0.1,1eocbzkws7,2022-09-19 16:21:58.817,62a212208e8395cfb1c4e42b,2,77,26,90,34,37,Male,1101.0,,"
  <table>
  <tr height=300>
    <td width=300 height=300><img src=""static/images/cards/stack_of_red_stars.svg"" width=""175px"" height=""250px""></img></td>
    <td width=300 height=300><img src=""static/images/cards/stack_of_red_bolts.svg"" width=""175px"" height=""250px""></img></td>
  </tr>
  <tr height=200>
    <td width=300><img src=""static/images/keys/w.svg"" width=""35%"" height=""75%""></img></td>
    <td width=300><img src=""static/images/keys/o.svg"" width=""35%"" height=""75%""></img></td>
  </tr>
</table>
  ",79.0,1.0,,,,,,,,,,,,,,,,,,,,,,,,,,
156,0,,html-keyboard-response,156,370690,0.0-7.1-1.1,1eocbzkws7,2022-09-19 16:21:58.817,62a212208e8395cfb1c4e42b,2,77,26,90,34,37,Male,1231.099999994,,"
  <table>
  <tr height=300>
    <td width=300 height=300><img src=""static/images/cards/back_of_red_bolts.svg"" width=""175px"" height=""250px""></img></td>
    <td width=300 height=300><img src=""static/images/cards/back_of_red_bolts.svg"" width=""175px"" height=""250px""></img></td>
  </tr>
  <tr height=200>
    <td width=300><img src=""static/images/keys/z.svg"" width=""35%"" height=""75%""></img></td>
    <td width=300><img src=""static/images/keys/m.svg"" width=""35%"" height=""75%""></img></td>
  </tr>
</table>
  ",77.0,1.0,,,,,,,,,,,,,,,,,,,,,,,,,,
157,0,,html-keyboard-response,157,372196,0.0-7.1-2.1,1eocbzkws7,2022-09-19 16:21:58.817,62a212208e8395cfb1c4e42b,2,77,26,90,34,37,Male,,,"
  <table>
  <tr height=300>
    <td width=300 height=300><img src=""static/images/cards/back_of_red_bolts.svg"" width=""175px"" height=""250px""></img></td>
    <td width=300 height=300><img src=""static/images/cards/3_of_red_bolts.svg"" width=""175px"" height=""250px""></img></td>
  </tr>
  <tr height=200>
    <td width=300><img src=""static/images/keys/z.svg"" width=""35%"" height=""75%""></img></td>
    <td width=300><img src=""static/images/keys/m.svg"" width=""35%"" height=""75%""></img></td>
  </tr>
</table>
  ",,,,,,,,,,,,,,,,,,,,,,,,,,,,
158,0,,html-keyboard-response,158,373700,0.0-7.1-3.1,1eocbzkws7,2022-09-19 16:21:58.817,62a212208e8395cfb1c4e42b,2,77,26,90,34,37,Male,,,"<p style=""font-size:50px"">You win!
+10 points this round!</p>",,,,,,,,,,,,,,,,,,,,,,,,,,,,
159,0,,html-keyboard-response,159,374206,0.0-7.1-4.1,1eocbzkws7,2022-09-19 16:21:58.817,62a212208e8395cfb1c4e42b,2,77,26,90,34,37,Male,,,,,,1.0,choice,1.0,B,Xc,red,red,stars,bolts,B,Xc,Xc,red,bolts,1101.0,1.0,0.0,NA,right,1231.099999994,3.0,0.0,1.0,,,
160,0,,html-keyboard-response,160,375647,0.0-7.2-0.2,1eocbzkws7,2022-09-19 16:21:58.817,62a212208e8395cfb1c4e42b,2,77,26,90,34,37,Male,1438.900000006,,"
  <table>
  <tr height=300>
    <td width=300 height=300><img src=""static/images/cards/stack_of_red_moons.svg"" width=""175px"" height=""250px""></img></td>
    <td width=300 height=300><img src=""static/images/cards/stack_of_black_stars.svg"" width=""175px"" height=""250px""></img></td>
  </tr>
  <tr height=200>
    <td width=300><img src=""static/images/keys/w.svg"" width=""35%"" height=""75%""></img></td>
    <td width=300><img src=""static/images/keys/o.svg"" width=""35%"" height=""75%""></img></td>
  </tr>
</table>
  ",79.0,1.0,,,,,,,,,,,,,,,,,,,,,,,,,,
161,0,,html-keyboard-response,161,377081,0.0-7.2-1.2,1eocbzkws7,2022-09-19 16:21:58.817,62a212208e8395cfb1c4e42b,2,77,26,90,34,37,Male,928.0,,"
  <table>
  <tr height=300>
    <td width=300 height=300><img src=""static/images/cards/back_of_black_stars.svg"" width=""175px"" height=""250px""></img></td>
    <td width=300 height=300><img src=""static/images/cards/back_of_black_stars.svg"" width=""175px"" height=""250px""></img></td>
  </tr>
  <tr height=200>
    <td width=300><img src=""static/images/keys/z.svg"" width=""35%"" height=""75%""></img></td>
    <td width=300><img src=""static/images/keys/m.svg"" width=""35%"" height=""75%""></img></td>
  </tr>
</table>
  ",90.0,1.0,,,,,,,,,,,,,,,,,,,,,,,,,,
162,0,,html-keyboard-response,162,378589,0.0-7.2-2.2,1eocbzkws7,2022-09-19 16:21:58.817,62a212208e8395cfb1c4e42b,2,77,26,90,34,37,Male,,,"
  <table>
  <tr height=300>
    <td width=300 height=300><img src=""static/images/cards/3_of_black_stars.svg"" width=""175px"" height=""250px""></img></td>
    <td width=300 height=300><img src=""static/images/cards/back_of_black_stars.svg"" width=""175px"" height=""250px""></img></td>
  </tr>
  <tr height=200>
    <td width=300><img src=""static/images/keys/z.svg"" width=""35%"" height=""75%""></img></td>
    <td width=300><img src=""static/images/keys/m.svg"" width=""35%"" height=""75%""></img></td>
  </tr>
</table>
  ",,,,,,,,,,,,,,,,,,,,,,,,,,,,
163,0,,html-keyboard-response,163,380100,0.0-7.2-3.2,1eocbzkws7,2022-09-19 16:21:58.817,62a212208e8395cfb1c4e42b,2,77,26,90,34,37,Male,,,"<p style=""font-size:50px"">You Lose!
No points this round.</p>",,,,,,,,,,,,,,,,,,,,,,,,,,,,
164,0,,html-keyboard-response,164,380606,0.0-7.2-4.2,1eocbzkws7,2022-09-19 16:21:58.817,62a212208e8395cfb1c4e42b,2,77,26,90,34,37,Male,,,,,,1.0,choice,2.0,A,D,red,black,moons,stars,D,A,A,black,stars,1438.900000006,1.0,1.0,NA,left,928.0,3.0,0.0,0.0,,,
165,0,,html-keyboard-response,165,382352,0.0-7.3-0.3,1eocbzkws7,2022-09-19 16:21:58.817,62a212208e8395cfb1c4e42b,2,77,26,90,34,37,Male,1744.0,,"
  <table>
  <tr height=300>
    <td width=300 height=300><img src=""static/images/cards/stack_of_black_moons.svg"" width=""175px"" height=""250px""></img></td>
    <td width=300 height=300><img src=""static/images/cards/stack_of_red_bolts.svg"" width=""175px"" height=""250px""></img></td>
  </tr>
  <tr height=200>
    <td width=300><img src=""static/images/keys/w.svg"" width=""35%"" height=""75%""></img></td>
    <td width=300><img src=""static/images/keys/o.svg"" width=""35%"" height=""75%""></img></td>
  </tr>
</table>
  ",79.0,1.0,,,,,,,,,,,,,,,,,,,,,,,,,,
166,0,,html-keyboard-response,166,383700,0.0-7.3-1.3,1eocbzkws7,2022-09-19 16:21:58.817,62a212208e8395cfb1c4e42b,2,77,26,90,34,37,Male,843.0,,"
  <table>
  <tr height=300>
    <td width=300 height=300><img src=""static/images/cards/back_of_red_bolts.svg"" width=""175px"" height=""250px""></img></td>
    <td width=300 height=300><img src=""static/images/cards/back_of_red_bolts.svg"" width=""175px"" height=""250px""></img></td>
  </tr>
  <tr height=200>
    <td width=300><img src=""static/images/keys/z.svg"" width=""35%"" height=""75%""></img></td>
    <td width=300><img src=""static/images/keys/m.svg"" width=""35%"" height=""75%""></img></td>
  </tr>
</table>
  ",77.0,1.0,,,,,,,,,,,,,,,,,,,,,,,,,,
167,0,,html-keyboard-response,167,385203,0.0-7.3-2.3,1eocbzkws7,2022-09-19 16:21:58.817,62a212208e8395cfb1c4e42b,2,77,26,90,34,37,Male,,,"
  <table>
  <tr height=300>
    <td width=300 height=300><img src=""static/images/cards/back_of_red_bolts.svg"" width=""175px"" height=""250px""></img></td>
    <td width=300 height=300><img src=""static/images/cards/8_of_red_bolts.svg"" width=""175px"" height=""250px""></img></td>
  </tr>
  <tr height=200>
    <td width=300><img src=""static/images/keys/z.svg"" width=""35%"" height=""75%""></img></td>
    <td width=300><img src=""static/images/keys/m.svg"" width=""35%"" height=""75%""></img></td>
  </tr>
</table>
  ",,,,,,,,,,,,,,,,,,,,,,,,,,,,
168,0,,html-keyboard-response,168,386709,0.0-7.3-3.3,1eocbzkws7,2022-09-19 16:21:58.817,62a212208e8395cfb1c4e42b,2,77,26,90,34,37,Male,,,"<p style=""font-size:50px"">You win!
+10 points this round!</p>",,,,,,,,,,,,,,,,,,,,,,,,,,,,
169,0,,html-keyboard-response,169,387220,0.0-7.3-4.3,1eocbzkws7,2022-09-19 16:21:58.817,62a212208e8395cfb1c4e42b,2,77,26,90,34,37,Male,,,,,,1.0,choice,3.0,C,Xc,black,red,moons,bolts,C,Xc,Xc,red,bolts,1744.0,1.0,0.0,NA,right,843.0,8.0,1.0,1.0,,,
170,0,,html-keyboard-response,170,388622,0.0-7.4-0.4,1eocbzkws7,2022-09-19 16:21:58.817,62a212208e8395cfb1c4e42b,2,77,26,90,34,37,Male,1399.799999997,,"
  <table>
  <tr height=300>
    <td width=300 height=300><img src=""static/images/cards/stack_of_black_moons.svg"" width=""175px"" height=""250px""></img></td>
    <td width=300 height=300><img src=""static/images/cards/stack_of_black_stars.svg"" width=""175px"" height=""250px""></img></td>
  </tr>
  <tr height=200>
    <td width=300><img src=""static/images/keys/w.svg"" width=""35%"" height=""75%""></img></td>
    <td width=300><img src=""static/images/keys/o.svg"" width=""35%"" height=""75%""></img></td>
  </tr>
</table>
  ",87.0,1.0,,,,,,,,,,,,,,,,,,,,,,,,,,
171,0,,html-keyboard-response,171,389757,0.0-7.4-1.4,1eocbzkws7,2022-09-19 16:21:58.817,62a212208e8395cfb1c4e42b,2,77,26,90,34,37,Male,629.799999997,,"
  <table>
  <tr height=300>
    <td width=300 height=300><img src=""static/images/cards/back_of_black_moons.svg"" width=""175px"" height=""250px""></img></td>
    <td width=300 height=300><img src=""static/images/cards/back_of_black_moons.svg"" width=""175px"" height=""250px""></img></td>
  </tr>
  <tr height=200>
    <td width=300><img src=""static/images/keys/z.svg"" width=""35%"" height=""75%""></img></td>
    <td width=300><img src=""static/images/keys/m.svg"" width=""35%"" height=""75%""></img></td>
  </tr>
</table>
  ",90.0,1.0,,,,,,,,,,,,,,,,,,,,,,,,,,
172,0,,html-keyboard-response,172,391263,0.0-7.4-2.4,1eocbzkws7,2022-09-19 16:21:58.817,62a212208e8395cfb1c4e42b,2,77,26,90,34,37,Male,,,"
  <table>
  <tr height=300>
    <td width=300 height=300><img src=""static/images/cards/4_of_black_moons.svg"" width=""175px"" height=""250px""></img></td>
    <td width=300 height=300><img src=""static/images/cards/back_of_black_moons.svg"" width=""175px"" height=""250px""></img></td>
  </tr>
  <tr height=200>
    <td width=300><img src=""static/images/keys/z.svg"" width=""35%"" height=""75%""></img></td>
    <td width=300><img src=""static/images/keys/m.svg"" width=""35%"" height=""75%""></img></td>
  </tr>
</table>
  ",,,,,,,,,,,,,,,,,,,,,,,,,,,,
173,0,,html-keyboard-response,173,392771,0.0-7.4-3.4,1eocbzkws7,2022-09-19 16:21:58.817,62a212208e8395cfb1c4e42b,2,77,26,90,34,37,Male,,,"<p style=""font-size:50px"">You Lose!
No points this round.</p>",,,,,,,,,,,,,,,,,,,,,,,,,,,,
174,0,,html-keyboard-response,174,393281,0.0-7.4-4.4,1eocbzkws7,2022-09-19 16:21:58.817,62a212208e8395cfb1c4e42b,2,77,26,90,34,37,Male,,,,,,1.0,choice,4.0,A,C,black,black,moons,stars,C,A,C,black,moons,1399.799999997,1.0,0.0,NA,left,629.799999997,4.0,0.0,0.0,,,
175,0,,html-keyboard-response,175,394416,0.0-7.5-0.5,1eocbzkws7,2022-09-19 16:21:58.817,62a212208e8395cfb1c4e42b,2,77,26,90,34,37,Male,1133.200000003,,"
  <table>
  <tr height=300>
    <td width=300 height=300><img src=""static/images/cards/stack_of_red_moons.svg"" width=""175px"" height=""250px""></img></td>
    <td width=300 height=300><img src=""static/images/cards/stack_of_red_stars.svg"" width=""175px"" height=""250px""></img></td>
  </tr>
  <tr height=200>
    <td width=300><img src=""static/images/keys/w.svg"" width=""35%"" height=""75%""></img></td>
    <td width=300><img src=""static/images/keys/o.svg"" width=""35%"" height=""75%""></img></td>
  </tr>
</table>
  ",79.0,1.0,,,,,,,,,,,,,,,,,,,,,,,,,,
176,0,,html-keyboard-response,176,395800,0.0-7.5-1.5,1eocbzkws7,2022-09-19 16:21:58.817,62a212208e8395cfb1c4e42b,2,77,26,90,34,37,Male,877.599999994,,"
  <table>
  <tr height=300>
    <td width=300 height=300><img src=""static/images/cards/back_of_red_stars.svg"" width=""175px"" height=""250px""></img></td>
    <td width=300 height=300><img src=""static/images/cards/back_of_red_stars.svg"" width=""175px"" height=""250px""></img></td>
  </tr>
  <tr height=200>
    <td width=300><img src=""static/images/keys/z.svg"" width=""35%"" height=""75%""></img></td>
    <td width=300></td>
  </tr>
</table>
  ",90.0,2.0,,,,,,,,,,,,,,,,,,,,,,,,,,
177,0,,html-keyboard-response,177,397303,0.0-7.5-2.5,1eocbzkws7,2022-09-19 16:21:58.817,62a212208e8395cfb1c4e42b,2,77,26,90,34,37,Male,,,"
  <table>
  <tr height=300>
    <td width=300 height=300><img src=""static/images/cards/3_of_red_stars.svg"" width=""175px"" height=""250px""></img></td>
    <td width=300 height=300><img src=""static/images/cards/back_of_red_stars.svg"" width=""175px"" height=""250px""></img></td>
  </tr>
  <tr height=200>
    <td width=300><img src=""static/images/keys/z.svg"" width=""35%"" height=""75%""></img></td>
    <td width=300></td>
  </tr>
</table>
  ",,,,,,,,,,,,,,,,,,,,,,,,,,,,
178,0,,html-keyboard-response,178,398812,0.0-7.5-3.5,1eocbzkws7,2022-09-19 16:21:58.817,62a212208e8395cfb1c4e42b,2,77,26,90,34,37,Male,,,"<p style=""font-size:50px"">You Lose!
No points this round.</p>",,,,,,,,,,,,,,,,,,,,,,,,,,,,
179,0,,html-keyboard-response,179,399318,0.0-7.5-4.5,1eocbzkws7,2022-09-19 16:21:58.817,62a212208e8395cfb1c4e42b,2,77,26,90,34,37,Male,,,,,,1.0,choice,5.0,B,D,red,red,moons,stars,D,B,B,red,stars,1133.200000003,0.0,1.0,1,left,877.599999994,3.0,0.0,0.0,,,
180,0,,html-keyboard-response,180,400690,0.0-7.6-0.6,1eocbzkws7,2022-09-19 16:21:58.817,62a212208e8395cfb1c4e42b,2,77,26,90,34,37,Male,1370.599999994,,"
  <table>
  <tr height=300>
    <td width=300 height=300><img src=""static/images/cards/stack_of_red_moons.svg"" width=""175px"" height=""250px""></img></td>
    <td width=300 height=300><img src=""static/images/cards/stack_of_black_stars.svg"" width=""175px"" height=""250px""></img></td>
  </tr>
  <tr height=200>
    <td width=300><img src=""static/images/keys/w.svg"" width=""35%"" height=""75%""></img></td>
    <td width=300><img src=""static/images/keys/o.svg"" width=""35%"" height=""75%""></img></td>
  </tr>
</table>
  ",87.0,1.0,,,,,,,,,,,,,,,,,,,,,,,,,,
181,0,,html-keyboard-response,181,402175,0.0-7.6-1.6,1eocbzkws7,2022-09-19 16:21:58.817,62a212208e8395cfb1c4e42b,2,77,26,90,34,37,Male,979.200000003,,"
  <table>
  <tr height=300>
    <td width=300 height=300><img src=""static/images/cards/back_of_red_moons.svg"" width=""175px"" height=""250px""></img></td>
    <td width=300 height=300><img src=""static/images/cards/back_of_red_moons.svg"" width=""175px"" height=""250px""></img></td>
  </tr>
  <tr height=200>
    <td width=300><img src=""static/images/keys/z.svg"" width=""35%"" height=""75%""></img></td>
    <td width=300></td>
  </tr>
</table>
  ",90.0,1.0,,,,,,,,,,,,,,,,,,,,,,,,,,
182,0,,html-keyboard-response,182,403682,0.0-7.6-2.6,1eocbzkws7,2022-09-19 16:21:58.817,62a212208e8395cfb1c4e42b,2,77,26,90,34,37,Male,,,"
  <table>
  <tr height=300>
    <td width=300 height=300><img src=""static/images/cards/9_of_red_moons.svg"" width=""175px"" height=""250px""></img></td>
    <td width=300 height=300><img src=""static/images/cards/back_of_red_moons.svg"" width=""175px"" height=""250px""></img></td>
  </tr>
  <tr height=200>
    <td width=300><img src=""static/images/keys/z.svg"" width=""35%"" height=""75%""></img></td>
    <td width=300></td>
  </tr>
</table>
  ",,,,,,,,,,,,,,,,,,,,,,,,,,,,
183,0,,html-keyboard-response,183,405191,0.0-7.6-3.6,1eocbzkws7,2022-09-19 16:21:58.817,62a212208e8395cfb1c4e42b,2,77,26,90,34,37,Male,,,"<p style=""font-size:50px"">You Lose!
No points this round.</p>",,,,,,,,,,,,,,,,,,,,,,,,,,,,
184,0,,html-keyboard-response,184,405702,0.0-7.6-4.6,1eocbzkws7,2022-09-19 16:21:58.817,62a212208e8395cfb1c4e42b,2,77,26,90,34,37,Male,,,,,,1.0,choice,6.0,A,D,red,black,moons,stars,D,A,D,red,moons,1370.599999994,0.0,0.0,1,left,979.200000003,9.0,1.0,0.0,,,
185,0,,html-keyboard-response,185,406814,0.0-7.7-0.7,1eocbzkws7,2022-09-19 16:21:58.817,62a212208e8395cfb1c4e42b,2,77,26,90,34,37,Male,1110.599999994,,"
  <table>
  <tr height=300>
    <td width=300 height=300><img src=""static/images/cards/stack_of_red_stars.svg"" width=""175px"" height=""250px""></img></td>
    <td width=300 height=300><img src=""static/images/cards/stack_of_black_moons.svg"" width=""175px"" height=""250px""></img></td>
  </tr>
  <tr height=200>
    <td width=300><img src=""static/images/keys/w.svg"" width=""35%"" height=""75%""></img></td>
    <td width=300><img src=""static/images/keys/o.svg"" width=""35%"" height=""75%""></img></td>
  </tr>
</table>
  ",87.0,1.0,,,,,,,,,,,,,,,,,,,,,,,,,,
186,0,,html-keyboard-response,186,407915,0.0-7.7-1.7,1eocbzkws7,2022-09-19 16:21:58.817,62a212208e8395cfb1c4e42b,2,77,26,90,34,37,Male,597.5,,"
  <table>
  <tr height=300>
    <td width=300 height=300><img src=""static/images/cards/back_of_red_stars.svg"" width=""175px"" height=""250px""></img></td>
    <td width=300 height=300><img src=""static/images/cards/back_of_red_stars.svg"" width=""175px"" height=""250px""></img></td>
  </tr>
  <tr height=200>
    <td width=300><img src=""static/images/keys/z.svg"" width=""35%"" height=""75%""></img></td>
    <td width=300></td>
  </tr>
</table>
  ",90.0,1.0,,,,,,,,,,,,,,,,,,,,,,,,,,
187,0,,html-keyboard-response,187,409422,0.0-7.7-2.7,1eocbzkws7,2022-09-19 16:21:58.817,62a212208e8395cfb1c4e42b,2,77,26,90,34,37,Male,,,"
  <table>
  <tr height=300>
    <td width=300 height=300><img src=""static/images/cards/1_of_red_stars.svg"" width=""175px"" height=""250px""></img></td>
    <td width=300 height=300><img src=""static/images/cards/back_of_red_stars.svg"" width=""175px"" height=""250px""></img></td>
  </tr>
  <tr height=200>
    <td width=300><img src=""static/images/keys/z.svg"" width=""35%"" height=""75%""></img></td>
    <td width=300></td>
  </tr>
</table>
  ",,,,,,,,,,,,,,,,,,,,,,,,,,,,
188,0,,html-keyboard-response,188,410931,0.0-7.7-3.7,1eocbzkws7,2022-09-19 16:21:58.817,62a212208e8395cfb1c4e42b,2,77,26,90,34,37,Male,,,"<p style=""font-size:50px"">You Lose!
No points this round.</p>",,,,,,,,,,,,,,,,,,,,,,,,,,,,
189,0,,html-keyboard-response,189,411438,0.0-7.7-4.7,1eocbzkws7,2022-09-19 16:21:58.817,62a212208e8395cfb1c4e42b,2,77,26,90,34,37,Male,,,,,,1.0,choice,7.0,B,C,red,black,stars,moons,B,C,B,red,stars,1110.599999994,0.0,1.0,1,left,597.5,1.0,0.0,0.0,,,
190,0,,html-keyboard-response,190,412654,0.0-7.8-0.8,1eocbzkws7,2022-09-19 16:21:58.817,62a212208e8395cfb1c4e42b,2,77,26,90,34,37,Male,1213.599999994,,"
  <table>
  <tr height=300>
    <td width=300 height=300><img src=""static/images/cards/stack_of_black_moons.svg"" width=""175px"" height=""250px""></img></td>
    <td width=300 height=300><img src=""static/images/cards/stack_of_red_stars.svg"" width=""175px"" height=""250px""></img></td>
  </tr>
  <tr height=200>
    <td width=300><img src=""static/images/keys/w.svg"" width=""35%"" height=""75%""></img></td>
    <td width=300><img src=""static/images/keys/o.svg"" width=""35%"" height=""75%""></img></td>
  </tr>
</table>
  ",79.0,1.0,,,,,,,,,,,,,,,,,,,,,,,,,,
191,0,,html-keyboard-response,191,413669,0.0-7.8-1.8,1eocbzkws7,2022-09-19 16:21:58.817,62a212208e8395cfb1c4e42b,2,77,26,90,34,37,Male,511.799999997,,"
  <table>
  <tr height=300>
    <td width=300 height=300><img src=""static/images/cards/back_of_red_stars.svg"" width=""175px"" height=""250px""></img></td>
    <td width=300 height=300><img src=""static/images/cards/back_of_red_stars.svg"" width=""175px"" height=""250px""></img></td>
  </tr>
  <tr height=200>
    <td width=300><img src=""static/images/keys/z.svg"" width=""35%"" height=""75%""></img></td>
    <td width=300></td>
  </tr>
</table>
  ",90.0,1.0,,,,,,,,,,,,,,,,,,,,,,,,,,
192,0,,html-keyboard-response,192,415172,0.0-7.8-2.8,1eocbzkws7,2022-09-19 16:21:58.817,62a212208e8395cfb1c4e42b,2,77,26,90,34,37,Male,,,"
  <table>
  <tr height=300>
    <td width=300 height=300><img src=""static/images/cards/3_of_red_stars.svg"" width=""175px"" height=""250px""></img></td>
    <td width=300 height=300><img src=""static/images/cards/back_of_red_stars.svg"" width=""175px"" height=""250px""></img></td>
  </tr>
  <tr height=200>
    <td width=300><img src=""static/images/keys/z.svg"" width=""35%"" height=""75%""></img></td>
    <td width=300></td>
  </tr>
</table>
  ",,,,,,,,,,,,,,,,,,,,,,,,,,,,
193,0,,html-keyboard-response,193,416680,0.0-7.8-3.8,1eocbzkws7,2022-09-19 16:21:58.817,62a212208e8395cfb1c4e42b,2,77,26,90,34,37,Male,,,"<p style=""font-size:50px"">You Lose!
No points this round.</p>",,,,,,,,,,,,,,,,,,,,,,,,,,,,
194,0,,html-keyboard-response,194,417187,0.0-7.8-4.8,1eocbzkws7,2022-09-19 16:21:58.817,62a212208e8395cfb1c4e42b,2,77,26,90,34,37,Male,,,,,,1.0,choice,8.0,B,C,black,red,moons,stars,C,B,B,red,stars,1213.599999994,0.0,1.0,1,left,511.799999997,3.0,0.0,0.0,,,
195,0,,html-keyboard-response,195,417663,0.0-7.9-0.9,1eocbzkws7,2022-09-19 16:21:58.817,62a212208e8395cfb1c4e42b,2,77,26,90,34,37,Male,474.5,,"
  <table>
  <tr height=300>
    <td width=300 height=300><img src=""static/images/cards/stack_of_black_moons.svg"" width=""175px"" height=""250px""></img></td>
    <td width=300 height=300><img src=""static/images/cards/stack_of_red_moons.svg"" width=""175px"" height=""250px""></img></td>
  </tr>
  <tr height=200>
    <td width=300><img src=""static/images/keys/w.svg"" width=""35%"" height=""75%""></img></td>
    <td width=300><img src=""static/images/keys/o.svg"" width=""35%"" height=""75%""></img></td>
  </tr>
</table>
  ",87.0,1.0,,,,,,,,,,,,,,,,,,,,,,,,,,
196,0,,html-keyboard-response,196,419268,0.0-7.9-1.9,1eocbzkws7,2022-09-19 16:21:58.817,62a212208e8395cfb1c4e42b,2,77,26,90,34,37,Male,1098.200000003,,"
  <table>
  <tr height=300>
    <td width=300 height=300><img src=""static/images/cards/back_of_black_moons.svg"" width=""175px"" height=""250px""></img></td>
    <td width=300 height=300><img src=""static/images/cards/back_of_black_moons.svg"" width=""175px"" height=""250px""></img></td>
  </tr>
  <tr height=200>
    <td width=300><img src=""static/images/keys/z.svg"" width=""35%"" height=""75%""></img></td>
    <td width=300><img src=""static/images/keys/m.svg"" width=""35%"" height=""75%""></img></td>
  </tr>
</table>
  ",77.0,1.0,,,,,,,,,,,,,,,,,,,,,,,,,,
197,0,,html-keyboard-response,197,420771,0.0-7.9-2.9,1eocbzkws7,2022-09-19 16:21:58.817,62a212208e8395cfb1c4e42b,2,77,26,90,34,37,Male,,,"
  <table>
  <tr height=300>
    <td width=300 height=300><img src=""static/images/cards/back_of_black_moons.svg"" width=""175px"" height=""250px""></img></td>
    <td width=300 height=300><img src=""static/images/cards/1_of_black_moons.svg"" width=""175px"" height=""250px""></img></td>
  </tr>
  <tr height=200>
    <td width=300><img src=""static/images/keys/z.svg"" width=""35%"" height=""75%""></img></td>
    <td width=300><img src=""static/images/keys/m.svg"" width=""35%"" height=""75%""></img></td>
  </tr>
</table>
  ",,,,,,,,,,,,,,,,,,,,,,,,,,,,
198,0,,html-keyboard-response,198,422281,0.0-7.9-3.9,1eocbzkws7,2022-09-19 16:21:58.817,62a212208e8395cfb1c4e42b,2,77,26,90,34,37,Male,,,"<p style=""font-size:50px"">You win!
+10 points this round!</p>",,,,,,,,,,,,,,,,,,,,,,,,,,,,
199,0,,html-keyboard-response,199,422791,0.0-7.9-4.9,1eocbzkws7,2022-09-19 16:21:58.817,62a212208e8395cfb1c4e42b,2,77,26,90,34,37,Male,,,,,,1.0,choice,9.0,C,D,black,red,moons,moons,C,D,C,black,moons,474.5,1.0,0.0,NA,right,1098.200000003,1.0,0.0,1.0,,,
200,0,,html-keyboard-response,200,423374,0.0-7.10-0.10,1eocbzkws7,2022-09-19 16:21:58.817,62a212208e8395cfb1c4e42b,2,77,26,90,34,37,Male,581.200000003,,"
  <table>
  <tr height=300>
    <td width=300 height=300><img src=""static/images/cards/stack_of_black_moons.svg"" width=""175px"" height=""250px""></img></td>
    <td width=300 height=300><img src=""static/images/cards/stack_of_red_moons.svg"" width=""175px"" height=""250px""></img></td>
  </tr>
  <tr height=200>
    <td width=300><img src=""static/images/keys/w.svg"" width=""35%"" height=""75%""></img></td>
    <td width=300><img src=""static/images/keys/o.svg"" width=""35%"" height=""75%""></img></td>
  </tr>
</table>
  ",87.0,1.0,,,,,,,,,,,,,,,,,,,,,,,,,,
201,0,,html-keyboard-response,201,424449,0.0-7.10-1.10,1eocbzkws7,2022-09-19 16:21:58.817,62a212208e8395cfb1c4e42b,2,77,26,90,34,37,Male,572.700000003,,"
  <table>
  <tr height=300>
    <td width=300 height=300><img src=""static/images/cards/back_of_black_moons.svg"" width=""175px"" height=""250px""></img></td>
    <td width=300 height=300><img src=""static/images/cards/back_of_black_moons.svg"" width=""175px"" height=""250px""></img></td>
  </tr>
  <tr height=200>
    <td width=300><img src=""static/images/keys/z.svg"" width=""35%"" height=""75%""></img></td>
    <td width=300><img src=""static/images/keys/m.svg"" width=""35%"" height=""75%""></img></td>
  </tr>
</table>
  ",90.0,1.0,,,,,,,,,,,,,,,,,,,,,,,,,,
202,0,,html-keyboard-response,202,425952,0.0-7.10-2.10,1eocbzkws7,2022-09-19 16:21:58.817,62a212208e8395cfb1c4e42b,2,77,26,90,34,37,Male,,,"
  <table>
  <tr height=300>
    <td width=300 height=300><img src=""static/images/cards/4_of_black_moons.svg"" width=""175px"" height=""250px""></img></td>
    <td width=300 height=300><img src=""static/images/cards/back_of_black_moons.svg"" width=""175px"" height=""250px""></img></td>
  </tr>
  <tr height=200>
    <td width=300><img src=""static/images/keys/z.svg"" width=""35%"" height=""75%""></img></td>
    <td width=300><img src=""static/images/keys/m.svg"" width=""35%"" height=""75%""></img></td>
  </tr>
</table>
  ",,,,,,,,,,,,,,,,,,,,,,,,,,,,
203,0,,html-keyboard-response,203,427460,0.0-7.10-3.10,1eocbzkws7,2022-09-19 16:21:58.817,62a212208e8395cfb1c4e42b,2,77,26,90,34,37,Male,,,"<p style=""font-size:50px"">You win!
+10 points this round!</p>",,,,,,,,,,,,,,,,,,,,,,,,,,,,
204,0,,html-keyboard-response,204,427970,0.0-7.10-4.10,1eocbzkws7,2022-09-19 16:21:58.817,62a212208e8395cfb1c4e42b,2,77,26,90,34,37,Male,,,,,,1.0,choice,10.0,C,D,black,red,moons,moons,C,D,C,black,moons,581.200000003,1.0,0.0,NA,left,572.700000003,4.0,0.0,1.0,,,
205,0,,html-keyboard-response,205,429331,0.0-7.11-0.11,1eocbzkws7,2022-09-19 16:21:58.817,62a212208e8395cfb1c4e42b,2,77,26,90,34,37,Male,1357.400000006,,"
  <table>
  <tr height=300>
    <td width=300 height=300><img src=""static/images/cards/stack_of_black_stars.svg"" width=""175px"" height=""250px""></img></td>
    <td width=300 height=300><img src=""static/images/cards/stack_of_red_stars.svg"" width=""175px"" height=""250px""></img></td>
  </tr>
  <tr height=200>
    <td width=300><img src=""static/images/keys/w.svg"" width=""35%"" height=""75%""></img></td>
    <td width=300><img src=""static/images/keys/o.svg"" width=""35%"" height=""75%""></img></td>
  </tr>
</table>
  ",87.0,1.0,,,,,,,,,,,,,,,,,,,,,,,,,,
206,0,,html-keyboard-response,206,430372,0.0-7.11-1.11,1eocbzkws7,2022-09-19 16:21:58.817,62a212208e8395cfb1c4e42b,2,77,26,90,34,37,Male,536.700000003,,"
  <table>
  <tr height=300>
    <td width=300 height=300><img src=""static/images/cards/back_of_black_stars.svg"" width=""175px"" height=""250px""></img></td>
    <td width=300 height=300><img src=""static/images/cards/back_of_black_stars.svg"" width=""175px"" height=""250px""></img></td>
  </tr>
  <tr height=200>
    <td width=300><img src=""static/images/keys/z.svg"" width=""35%"" height=""75%""></img></td>
    <td width=300><img src=""static/images/keys/m.svg"" width=""35%"" height=""75%""></img></td>
  </tr>
</table>
  ",77.0,1.0,,,,,,,,,,,,,,,,,,,,,,,,,,
207,0,,html-keyboard-response,207,431877,0.0-7.11-2.11,1eocbzkws7,2022-09-19 16:21:58.817,62a212208e8395cfb1c4e42b,2,77,26,90,34,37,Male,,,"
  <table>
  <tr height=300>
    <td width=300 height=300><img src=""static/images/cards/back_of_black_stars.svg"" width=""175px"" height=""250px""></img></td>
    <td width=300 height=300><img src=""static/images/cards/7_of_black_stars.svg"" width=""175px"" height=""250px""></img></td>
  </tr>
  <tr height=200>
    <td width=300><img src=""static/images/keys/z.svg"" width=""35%"" height=""75%""></img></td>
    <td width=300><img src=""static/images/keys/m.svg"" width=""35%"" height=""75%""></img></td>
  </tr>
</table>
  ",,,,,,,,,,,,,,,,,,,,,,,,,,,,
208,0,,html-keyboard-response,208,433385,0.0-7.11-3.11,1eocbzkws7,2022-09-19 16:21:58.817,62a212208e8395cfb1c4e42b,2,77,26,90,34,37,Male,,,"<p style=""font-size:50px"">You win!
+10 points this round!</p>",,,,,,,,,,,,,,,,,,,,,,,,,,,,
209,0,,html-keyboard-response,209,433894,0.0-7.11-4.11,1eocbzkws7,2022-09-19 16:21:58.817,62a212208e8395cfb1c4e42b,2,77,26,90,34,37,Male,,,,,,1.0,choice,11.0,A,B,black,red,stars,stars,A,B,A,black,stars,1357.400000006,1.0,1.0,NA,right,536.700000003,7.0,1.0,1.0,,,
210,0,,html-keyboard-response,210,435716,0.0-7.12-0.12,1eocbzkws7,2022-09-19 16:21:58.817,62a212208e8395cfb1c4e42b,2,77,26,90,34,37,Male,1820.200000003,,"
  <table>
  <tr height=300>
    <td width=300 height=300><img src=""static/images/cards/stack_of_black_moons.svg"" width=""175px"" height=""250px""></img></td>
    <td width=300 height=300><img src=""static/images/cards/stack_of_black_stars.svg"" width=""175px"" height=""250px""></img></td>
  </tr>
  <tr height=200>
    <td width=300><img src=""static/images/keys/w.svg"" width=""35%"" height=""75%""></img></td>
    <td width=300><img src=""static/images/keys/o.svg"" width=""35%"" height=""75%""></img></td>
  </tr>
</table>
  ",79.0,1.0,,,,,,,,,,,,,,,,,,,,,,,,,,
211,0,,html-keyboard-response,211,436722,0.0-7.12-1.12,1eocbzkws7,2022-09-19 16:21:58.817,62a212208e8395cfb1c4e42b,2,77,26,90,34,37,Male,499.8999999911,,"
  <table>
  <tr height=300>
    <td width=300 height=300><img src=""static/images/cards/back_of_black_stars.svg"" width=""175px"" height=""250px""></img></td>
    <td width=300 height=300><img src=""static/images/cards/back_of_black_stars.svg"" width=""175px"" height=""250px""></img></td>
  </tr>
  <tr height=200>
    <td width=300><img src=""static/images/keys/z.svg"" width=""35%"" height=""75%""></img></td>
    <td width=300><img src=""static/images/keys/m.svg"" width=""35%"" height=""75%""></img></td>
  </tr>
</table>
  ",77.0,1.0,,,,,,,,,,,,,,,,,,,,,,,,,,
212,0,,html-keyboard-response,212,438227,0.0-7.12-2.12,1eocbzkws7,2022-09-19 16:21:58.817,62a212208e8395cfb1c4e42b,2,77,26,90,34,37,Male,,,"
  <table>
  <tr height=300>
    <td width=300 height=300><img src=""static/images/cards/back_of_black_stars.svg"" width=""175px"" height=""250px""></img></td>
    <td width=300 height=300><img src=""static/images/cards/3_of_black_stars.svg"" width=""175px"" height=""250px""></img></td>
  </tr>
  <tr height=200>
    <td width=300><img src=""static/images/keys/z.svg"" width=""35%"" height=""75%""></img></td>
    <td width=300><img src=""static/images/keys/m.svg"" width=""35%"" height=""75%""></img></td>
  </tr>
</table>
  ",,,,,,,,,,,,,,,,,,,,,,,,,,,,
213,0,,html-keyboard-response,213,439732,0.0-7.12-3.12,1eocbzkws7,2022-09-19 16:21:58.817,62a212208e8395cfb1c4e42b,2,77,26,90,34,37,Male,,,"<p style=""font-size:50px"">You Lose!
No points this round.</p>",,,,,,,,,,,,,,,,,,,,,,,,,,,,
214,0,,html-keyboard-response,214,440242,0.0-7.12-4.12,1eocbzkws7,2022-09-19 16:21:58.817,62a212208e8395cfb1c4e42b,2,77,26,90,34,37,Male,,,,,,1.0,choice,12.0,A,C,black,black,moons,stars,C,A,A,black,stars,1820.200000003,1.0,1.0,NA,right,499.8999999911,3.0,0.0,0.0,,,
215,0,,html-keyboard-response,215,441534,0.0-7.13-0.13,1eocbzkws7,2022-09-19 16:21:58.817,62a212208e8395cfb1c4e42b,2,77,26,90,34,37,Male,1290.299999997,,"
  <table>
  <tr height=300>
    <td width=300 height=300><img src=""static/images/cards/stack_of_black_stars.svg"" width=""175px"" height=""250px""></img></td>
    <td width=300 height=300><img src=""static/images/cards/stack_of_red_stars.svg"" width=""175px"" height=""250px""></img></td>
  </tr>
  <tr height=200>
    <td width=300><img src=""static/images/keys/w.svg"" width=""35%"" height=""75%""></img></td>
    <td width=300><img src=""static/images/keys/o.svg"" width=""35%"" height=""75%""></img></td>
  </tr>
</table>
  ",79.0,1.0,,,,,,,,,,,,,,,,,,,,,,,,,,
216,0,,html-keyboard-response,216,442893,0.0-7.13-1.13,1eocbzkws7,2022-09-19 16:21:58.817,62a212208e8395cfb1c4e42b,2,77,26,90,34,37,Male,854.0,,"
  <table>
  <tr height=300>
    <td width=300 height=300><img src=""static/images/cards/back_of_red_stars.svg"" width=""175px"" height=""250px""></img></td>
    <td width=300 height=300><img src=""static/images/cards/back_of_red_stars.svg"" width=""175px"" height=""250px""></img></td>
  </tr>
  <tr height=200>
    <td width=300><img src=""static/images/keys/z.svg"" width=""35%"" height=""75%""></img></td>
    <td width=300></td>
  </tr>
</table>
  ",90.0,1.0,,,,,,,,,,,,,,,,,,,,,,,,,,
217,0,,html-keyboard-response,217,444397,0.0-7.13-2.13,1eocbzkws7,2022-09-19 16:21:58.817,62a212208e8395cfb1c4e42b,2,77,26,90,34,37,Male,,,"
  <table>
  <tr height=300>
    <td width=300 height=300><img src=""static/images/cards/4_of_red_stars.svg"" width=""175px"" height=""250px""></img></td>
    <td width=300 height=300><img src=""static/images/cards/back_of_red_stars.svg"" width=""175px"" height=""250px""></img></td>
  </tr>
  <tr height=200>
    <td width=300><img src=""static/images/keys/z.svg"" width=""35%"" height=""75%""></img></td>
    <td width=300></td>
  </tr>
</table>
  ",,,,,,,,,,,,,,,,,,,,,,,,,,,,
218,0,,html-keyboard-response,218,445901,0.0-7.13-3.13,1eocbzkws7,2022-09-19 16:21:58.817,62a212208e8395cfb1c4e42b,2,77,26,90,34,37,Male,,,"<p style=""font-size:50px"">You Lose!
No points this round.</p>",,,,,,,,,,,,,,,,,,,,,,,,,,,,
219,0,,html-keyboard-response,219,446409,0.0-7.13-4.13,1eocbzkws7,2022-09-19 16:21:58.817,62a212208e8395cfb1c4e42b,2,77,26,90,34,37,Male,,,,,,1.0,choice,13.0,A,B,black,red,stars,stars,A,B,B,red,stars,1290.299999997,0.0,1.0,1,left,854.0,4.0,0.0,0.0,,,
220,0,,html-keyboard-response,220,447822,0.0-7.14-0.14,1eocbzkws7,2022-09-19 16:21:58.817,62a212208e8395cfb1c4e42b,2,77,26,90,34,37,Male,1410.799999997,,"
  <table>
  <tr height=300>
    <td width=300 height=300><img src=""static/images/cards/stack_of_red_moons.svg"" width=""175px"" height=""250px""></img></td>
    <td width=300 height=300><img src=""static/images/cards/stack_of_red_stars.svg"" width=""175px"" height=""250px""></img></td>
  </tr>
  <tr height=200>
    <td width=300><img src=""static/images/keys/w.svg"" width=""35%"" height=""75%""></img></td>
    <td width=300><img src=""static/images/keys/o.svg"" width=""35%"" height=""75%""></img></td>
  </tr>
</table>
  ",87.0,1.0,,,,,,,,,,,,,,,,,,,,,,,,,,
221,0,,html-keyboard-response,221,448947,0.0-7.14-1.14,1eocbzkws7,2022-09-19 16:21:58.817,62a212208e8395cfb1c4e42b,2,77,26,90,34,37,Male,620.599999994,,"
  <table>
  <tr height=300>
    <td width=300 height=300><img src=""static/images/cards/back_of_red_moons.svg"" width=""175px"" height=""250px""></img></td>
    <td width=300 height=300><img src=""static/images/cards/back_of_red_moons.svg"" width=""175px"" height=""250px""></img></td>
  </tr>
  <tr height=200>
    <td width=300><img src=""static/images/keys/z.svg"" width=""35%"" height=""75%""></img></td>
    <td width=300></td>
  </tr>
</table>
  ",90.0,1.0,,,,,,,,,,,,,,,,,,,,,,,,,,
222,0,,html-keyboard-response,222,450454,0.0-7.14-2.14,1eocbzkws7,2022-09-19 16:21:58.817,62a212208e8395cfb1c4e42b,2,77,26,90,34,37,Male,,,"
  <table>
  <tr height=300>
    <td width=300 height=300><img src=""static/images/cards/10_of_red_moons.svg"" width=""175px"" height=""250px""></img></td>
    <td width=300 height=300><img src=""static/images/cards/back_of_red_moons.svg"" width=""175px"" height=""250px""></img></td>
  </tr>
  <tr height=200>
    <td width=300><img src=""static/images/keys/z.svg"" width=""35%"" height=""75%""></img></td>
    <td width=300></td>
  </tr>
</table>
  ",,,,,,,,,,,,,,,,,,,,,,,,,,,,
223,0,,html-keyboard-response,223,451961,0.0-7.14-3.14,1eocbzkws7,2022-09-19 16:21:58.817,62a212208e8395cfb1c4e42b,2,77,26,90,34,37,Male,,,"<p style=""font-size:50px"">You Lose!
No points this round.</p>",,,,,,,,,,,,,,,,,,,,,,,,,,,,
224,0,,html-keyboard-response,224,452472,0.0-7.14-4.14,1eocbzkws7,2022-09-19 16:21:58.817,62a212208e8395cfb1c4e42b,2,77,26,90,34,37,Male,,,,,,1.0,choice,14.0,B,D,red,red,moons,stars,D,B,D,red,moons,1410.799999997,0.0,0.0,1,left,620.599999994,10.0,1.0,0.0,,,
225,0,,html-keyboard-response,225,453901,0.0-7.15-0.15,1eocbzkws7,2022-09-19 16:21:58.817,62a212208e8395cfb1c4e42b,2,77,26,90,34,37,Male,1427.200000003,,"
  <table>
  <tr height=300>
    <td width=300 height=300><img src=""static/images/cards/stack_of_red_stars.svg"" width=""175px"" height=""250px""></img></td>
    <td width=300 height=300><img src=""static/images/cards/stack_of_black_moons.svg"" width=""175px"" height=""250px""></img></td>
  </tr>
  <tr height=200>
    <td width=300><img src=""static/images/keys/w.svg"" width=""35%"" height=""75%""></img></td>
    <td width=300><img src=""static/images/keys/o.svg"" width=""35%"" height=""75%""></img></td>
  </tr>
</table>
  ",79.0,1.0,,,,,,,,,,,,,,,,,,,,,,,,,,
226,0,,html-keyboard-response,226,455007,0.0-7.15-1.15,1eocbzkws7,2022-09-19 16:21:58.817,62a212208e8395cfb1c4e42b,2,77,26,90,34,37,Male,599.5,,"
  <table>
  <tr height=300>
    <td width=300 height=300><img src=""static/images/cards/back_of_black_moons.svg"" width=""175px"" height=""250px""></img></td>
    <td width=300 height=300><img src=""static/images/cards/back_of_black_moons.svg"" width=""175px"" height=""250px""></img></td>
  </tr>
  <tr height=200>
    <td width=300><img src=""static/images/keys/z.svg"" width=""35%"" height=""75%""></img></td>
    <td width=300><img src=""static/images/keys/m.svg"" width=""35%"" height=""75%""></img></td>
  </tr>
</table>
  ",77.0,1.0,,,,,,,,,,,,,,,,,,,,,,,,,,
227,0,,html-keyboard-response,227,456511,0.0-7.15-2.15,1eocbzkws7,2022-09-19 16:21:58.817,62a212208e8395cfb1c4e42b,2,77,26,90,34,37,Male,,,"
  <table>
  <tr height=300>
    <td width=300 height=300><img src=""static/images/cards/back_of_black_moons.svg"" width=""175px"" height=""250px""></img></td>
    <td width=300 height=300><img src=""static/images/cards/4_of_black_moons.svg"" width=""175px"" height=""250px""></img></td>
  </tr>
  <tr height=200>
    <td width=300><img src=""static/images/keys/z.svg"" width=""35%"" height=""75%""></img></td>
    <td width=300><img src=""static/images/keys/m.svg"" width=""35%"" height=""75%""></img></td>
  </tr>
</table>
  ",,,,,,,,,,,,,,,,,,,,,,,,,,,,
228,0,,html-keyboard-response,228,458020,0.0-7.15-3.15,1eocbzkws7,2022-09-19 16:21:58.817,62a212208e8395cfb1c4e42b,2,77,26,90,34,37,Male,,,"<p style=""font-size:50px"">You Lose!
No points this round.</p>",,,,,,,,,,,,,,,,,,,,,,,,,,,,
229,0,,html-keyboard-response,229,458530,0.0-7.15-4.15,1eocbzkws7,2022-09-19 16:21:58.817,62a212208e8395cfb1c4e42b,2,77,26,90,34,37,Male,,,,,,1.0,choice,15.0,B,C,red,black,stars,moons,B,C,C,black,moons,1427.200000003,1.0,0.0,NA,right,599.5,4.0,0.0,0.0,,,
230,0,,html-keyboard-response,230,459523,0.0-7.16-0.16,1eocbzkws7,2022-09-19 16:21:58.817,62a212208e8395cfb1c4e42b,2,77,26,90,34,37,Male,990.700000003,,"
  <table>
  <tr height=300>
    <td width=300 height=300><img src=""static/images/cards/stack_of_red_moons.svg"" width=""175px"" height=""250px""></img></td>
    <td width=300 height=300><img src=""static/images/cards/stack_of_red_bolts.svg"" width=""175px"" height=""250px""></img></td>
  </tr>
  <tr height=200>
    <td width=300><img src=""static/images/keys/w.svg"" width=""35%"" height=""75%""></img></td>
    <td width=300><img src=""static/images/keys/o.svg"" width=""35%"" height=""75%""></img></td>
  </tr>
</table>
  ",79.0,1.0,,,,,,,,,,,,,,,,,,,,,,,,,,
231,0,,html-keyboard-response,231,460753,0.0-7.16-1.16,1eocbzkws7,2022-09-19 16:21:58.817,62a212208e8395cfb1c4e42b,2,77,26,90,34,37,Male,726.299999997,,"
  <table>
  <tr height=300>
    <td width=300 height=300><img src=""static/images/cards/back_of_red_bolts.svg"" width=""175px"" height=""250px""></img></td>
    <td width=300 height=300><img src=""static/images/cards/back_of_red_bolts.svg"" width=""175px"" height=""250px""></img></td>
  </tr>
  <tr height=200>
    <td width=300><img src=""static/images/keys/z.svg"" width=""35%"" height=""75%""></img></td>
    <td width=300><img src=""static/images/keys/m.svg"" width=""35%"" height=""75%""></img></td>
  </tr>
</table>
  ",77.0,1.0,,,,,,,,,,,,,,,,,,,,,,,,,,
232,0,,html-keyboard-response,232,462260,0.0-7.16-2.16,1eocbzkws7,2022-09-19 16:21:58.817,62a212208e8395cfb1c4e42b,2,77,26,90,34,37,Male,,,"
  <table>
  <tr height=300>
    <td width=300 height=300><img src=""static/images/cards/back_of_red_bolts.svg"" width=""175px"" height=""250px""></img></td>
    <td width=300 height=300><img src=""static/images/cards/4_of_red_bolts.svg"" width=""175px"" height=""250px""></img></td>
  </tr>
  <tr height=200>
    <td width=300><img src=""static/images/keys/z.svg"" width=""35%"" height=""75%""></img></td>
    <td width=300><img src=""static/images/keys/m.svg"" width=""35%"" height=""75%""></img></td>
  </tr>
</table>
  ",,,,,,,,,,,,,,,,,,,,,,,,,,,,
233,0,,html-keyboard-response,233,463771,0.0-7.16-3.16,1eocbzkws7,2022-09-19 16:21:58.817,62a212208e8395cfb1c4e42b,2,77,26,90,34,37,Male,,,"<p style=""font-size:50px"">You win!
+10 points this round!</p>",,,,,,,,,,,,,,,,,,,,,,,,,,,,
234,0,,html-keyboard-response,234,464282,0.0-7.16-4.16,1eocbzkws7,2022-09-19 16:21:58.817,62a212208e8395cfb1c4e42b,2,77,26,90,34,37,Male,,,,,,1.0,choice,16.0,D,Xc,red,red,moons,bolts,D,Xc,Xc,red,bolts,990.700000003,1.0,0.0,NA,right,726.299999997,4.0,0.0,1.0,,,
