,index,success,trial_type,trial_index,time_elapsed,internal_node_id,subject,date,prol_id,ctbl,sense_of_control_A,sense_of_control_B,sense_of_control_C,sense_of_control_D,age,gender,rt,url,stimulus,key_press,npress,is_data_trial,phase,trial,deck1,deck2,col1,col2,sym1,sym2,deck_l,deck_r,chosen_deck,chosen_col,chosen_sym,deck_rt,choose_choice,mutual_info,hidden_key,chosen_card,card_rt,player_num,win_card,outcome,mock_rating,response,responses
0,0,1.0,fullscreen,0,11697,0.0-0.0,95vnnqgkx4n,2022-09-19 15:32:41.897,594abd98215cbd000146debc,2,27,35,70,34,54,female,,,,,,,,,,,,,,,,,,,,,,,,,,,,,,,
1,0,,external-html,1,59099,0.0-1.0,95vnnqgkx4n,2022-09-19 15:32:41.897,594abd98215cbd000146debc,2,27,35,70,34,54,female,47287.0,static/js/sub/consent.html,,,,,,,,,,,,,,,,,,,,,,,,,,,,,
2,0,,call-function,2,59102,0.0-2.0,95vnnqgkx4n,2022-09-19 15:32:41.897,594abd98215cbd000146debc,2,27,35,70,34,54,female,,,,,,,,,,,,,,,,,,,,,,,,,,,,,,,
3,0,,image-keyboard-response,3,67466,0.0-3.0-0.0,95vnnqgkx4n,2022-09-19 15:32:41.897,594abd98215cbd000146debc,2,27,35,70,34,54,female,8363.0,,static/images/instructions_CB_2/Slide1.png,39.0,,,,,,,,,,,,,,,,,,,,,,,,,,,
4,0,,image-keyboard-response,4,91164,0.0-3.1-0.1,95vnnqgkx4n,2022-09-19 15:32:41.897,594abd98215cbd000146debc,2,27,35,70,34,54,female,23697.0,,static/images/instructions_CB_2/Slide2.png,39.0,,,,,,,,,,,,,,,,,,,,,,,,,,,
5,0,,image-keyboard-response,5,106704,0.0-3.2-0.2,95vnnqgkx4n,2022-09-19 15:32:41.897,594abd98215cbd000146debc,2,27,35,70,34,54,female,15538.0,,static/images/instructions_CB_2/Slide3.png,37.0,,,,,,,,,,,,,,,,,,,,,,,,,,,
6,0,,image-keyboard-response,6,114525,0.0-3.3-0.3,95vnnqgkx4n,2022-09-19 15:32:41.897,594abd98215cbd000146debc,2,27,35,70,34,54,female,7821.0,,static/images/instructions_CB_2/Slide2.png,39.0,,,,,,,,,,,,,,,,,,,,,,,,,,,
7,0,,image-keyboard-response,7,116383,0.0-3.4-0.4,95vnnqgkx4n,2022-09-19 15:32:41.897,594abd98215cbd000146debc,2,27,35,70,34,54,female,1858.0,,static/images/instructions_CB_2/Slide3.png,39.0,,,,,,,,,,,,,,,,,,,,,,,,,,,
8,0,,image-keyboard-response,8,133675,0.0-3.5-0.5,95vnnqgkx4n,2022-09-19 15:32:41.897,594abd98215cbd000146debc,2,27,35,70,34,54,female,17292.0,,static/images/instructions_CB_2/Slide4.png,39.0,,,,,,,,,,,,,,,,,,,,,,,,,,,
9,0,,image-keyboard-response,9,149655,0.0-3.6-0.6,95vnnqgkx4n,2022-09-19 15:32:41.897,594abd98215cbd000146debc,2,27,35,70,34,54,female,15979.0,,static/images/instructions_CB_2/Slide5.png,39.0,,,,,,,,,,,,,,,,,,,,,,,,,,,
10,0,,image-keyboard-response,10,156389,0.0-3.7-0.7,95vnnqgkx4n,2022-09-19 15:32:41.897,594abd98215cbd000146debc,2,27,35,70,34,54,female,6732.0,,static/images/instructions_CB_2/Slide6.png,39.0,,,,,,,,,,,,,,,,,,,,,,,,,,,
11,0,,image-keyboard-response,11,168608,0.0-3.8-0.8,95vnnqgkx4n,2022-09-19 15:32:41.897,594abd98215cbd000146debc,2,27,35,70,34,54,female,12218.0,,static/images/instructions_CB_2/Slide7.png,39.0,,,,,,,,,,,,,,,,,,,,,,,,,,,
12,0,,image-keyboard-response,12,186266,0.0-3.9-0.9,95vnnqgkx4n,2022-09-19 15:32:41.897,594abd98215cbd000146debc,2,27,35,70,34,54,female,17657.0,,static/images/instructions_CB_2/Slide8.png,39.0,,,,,,,,,,,,,,,,,,,,,,,,,,,
13,0,,image-keyboard-response,13,199624,0.0-3.10-0.10,95vnnqgkx4n,2022-09-19 15:32:41.897,594abd98215cbd000146debc,2,27,35,70,34,54,female,13356.0,,static/images/instructions_CB_2/Slide9.png,39.0,,,,,,,,,,,,,,,,,,,,,,,,,,,
14,0,,image-keyboard-response,14,223350,0.0-3.11-0.11,95vnnqgkx4n,2022-09-19 15:32:41.897,594abd98215cbd000146debc,2,27,35,70,34,54,female,23727.0,,static/images/instructions_CB_2/Slide10.png,39.0,,,,,,,,,,,,,,,,,,,,,,,,,,,
15,0,,image-keyboard-response,15,234039,0.0-3.12-0.12,95vnnqgkx4n,2022-09-19 15:32:41.897,594abd98215cbd000146debc,2,27,35,70,34,54,female,10688.0,,static/images/instructions_CB_2/Slide11.png,39.0,,,,,,,,,,,,,,,,,,,,,,,,,,,
16,0,,image-keyboard-response,16,266662,0.0-3.13-0.13,95vnnqgkx4n,2022-09-19 15:32:41.897,594abd98215cbd000146debc,2,27,35,70,34,54,female,32623.0,,static/images/instructions_CB_2/Slide12.png,39.0,,,,,,,,,,,,,,,,,,,,,,,,,,,
17,0,,image-keyboard-response,17,295338,0.0-3.14-0.14,95vnnqgkx4n,2022-09-19 15:32:41.897,594abd98215cbd000146debc,2,27,35,70,34,54,female,28675.0,,static/images/instructions_CB_2/Slide13.png,39.0,,,,,,,,,,,,,,,,,,,,,,,,,,,
18,0,,image-keyboard-response,18,308066,0.0-3.15-0.15,95vnnqgkx4n,2022-09-19 15:32:41.897,594abd98215cbd000146debc,2,27,35,70,34,54,female,12726.0,,static/images/instructions_CB_2/Slide14.png,39.0,,,,,,,,,,,,,,,,,,,,,,,,,,,
19,0,,image-keyboard-response,19,323164,0.0-3.16-0.16,95vnnqgkx4n,2022-09-19 15:32:41.897,594abd98215cbd000146debc,2,27,35,70,34,54,female,15096.0,,static/images/instructions_CB_2/Slide15.png,39.0,,,,,,,,,,,,,,,,,,,,,,,,,,,
20,0,,image-keyboard-response,20,344619,0.0-3.17-0.17,95vnnqgkx4n,2022-09-19 15:32:41.897,594abd98215cbd000146debc,2,27,35,70,34,54,female,21456.0,,static/images/instructions_CB_2/Slide16.png,39.0,,,,,,,,,,,,,,,,,,,,,,,,,,,
21,0,,image-keyboard-response,21,361561,0.0-3.18-0.18,95vnnqgkx4n,2022-09-19 15:32:41.897,594abd98215cbd000146debc,2,27,35,70,34,54,female,16940.0,,static/images/instructions_CB_2/Slide17.png,39.0,,,,,,,,,,,,,,,,,,,,,,,,,,,
22,0,,image-keyboard-response,22,379682,0.0-3.19-0.19,95vnnqgkx4n,2022-09-19 15:32:41.897,594abd98215cbd000146debc,2,27,35,70,34,54,female,18120.0,,static/images/instructions_CB_2/Slide18.png,39.0,,,,,,,,,,,,,,,,,,,,,,,,,,,
23,0,,image-keyboard-response,23,391895,0.0-3.20-0.20,95vnnqgkx4n,2022-09-19 15:32:41.897,594abd98215cbd000146debc,2,27,35,70,34,54,female,12213.0,,static/images/instructions_CB_2/Slide19.png,39.0,,,,,,,,,,,,,,,,,,,,,,,,,,,
24,0,,html-keyboard-response,24,393409,0.0-4.0-0.0,95vnnqgkx4n,2022-09-19 15:32:41.897,594abd98215cbd000146debc,2,27,35,70,34,54,female,,,"<img src=""static/images/cards/stack_of_black_stars.svg"" width=""175px"" height=""250px""></img>",,,,,,,,,,,,,,,,,,,,,,,,,,,,
25,0,,html-keyboard-response,25,394684,0.0-4.0-1.0,95vnnqgkx4n,2022-09-19 15:32:41.897,594abd98215cbd000146debc,2,27,35,70,34,54,female,753.0,,"
  <table>
  <tr height=300>
    <td width=300 height=300><img src=""static/images/cards/back_of_black_stars.svg"" width=""175px"" height=""250px""></img></td>
    <td width=300 height=300><img src=""static/images/cards/back_of_black_stars.svg"" width=""175px"" height=""250px""></img></td>
  </tr>
  <tr height=200>
    <td width=300><img src=""static/images/keys/z.svg"" width=""35%"" height=""75%""></img></td>
    <td width=300><img src=""static/images/keys/m.svg"" width=""35%"" height=""75%""></img></td>
  </tr>
</table>
  ",77.0,1.0,,,,,,,,,,,,,,,,,,,,,,,,,,
26,0,,html-keyboard-response,26,396188,0.0-4.0-2.0,95vnnqgkx4n,2022-09-19 15:32:41.897,594abd98215cbd000146debc,2,27,35,70,34,54,female,,,"
  <table>
  <tr height=300>
    <td width=300 height=300><img src=""static/images/cards/back_of_black_stars.svg"" width=""175px"" height=""250px""></img></td>
    <td width=300 height=300><img src=""static/images/cards/3_of_black_stars.svg"" width=""175px"" height=""250px""></img></td>
  </tr>
  <tr height=200>
    <td width=300><img src=""static/images/keys/z.svg"" width=""35%"" height=""75%""></img></td>
    <td width=300><img src=""static/images/keys/m.svg"" width=""35%"" height=""75%""></img></td>
  </tr>
</table>
  ",,,,,,,,,,,,,,,,,,,,,,,,,,,,
27,0,,html-keyboard-response,27,397728,0.0-4.0-3.0,95vnnqgkx4n,2022-09-19 15:32:41.897,594abd98215cbd000146debc,2,27,35,70,34,54,female,,,"<p style=""font-size:50px"">You Lose!
No points this round.</p>",,,,,,,,,,,,,,,,,,,,,,,,,,,,
28,0,,html-keyboard-response,28,398269,0.0-4.0-4.0,95vnnqgkx4n,2022-09-19 15:32:41.897,594abd98215cbd000146debc,2,27,35,70,34,54,female,,,,,,1.0,learning,0.0,A,,black,,stars,,,,A,black,stars,,1.0,1.0,NA,right,753.0,3.0,0.0,0.0,,,
29,0,,html-keyboard-response,29,399789,0.0-4.1-0.1,95vnnqgkx4n,2022-09-19 15:32:41.897,594abd98215cbd000146debc,2,27,35,70,34,54,female,,,"<img src=""static/images/cards/stack_of_red_stars.svg"" width=""175px"" height=""250px""></img>",,,,,,,,,,,,,,,,,,,,,,,,,,,,
30,0,,html-keyboard-response,30,400908,0.0-4.1-1.1,95vnnqgkx4n,2022-09-19 15:32:41.897,594abd98215cbd000146debc,2,27,35,70,34,54,female,599.0,,"
  <table>
  <tr height=300>
    <td width=300 height=300><img src=""static/images/cards/back_of_red_stars.svg"" width=""175px"" height=""250px""></img></td>
    <td width=300 height=300><img src=""static/images/cards/back_of_red_stars.svg"" width=""175px"" height=""250px""></img></td>
  </tr>
  <tr height=200>
    <td width=300><img src=""static/images/keys/z.svg"" width=""35%"" height=""75%""></img></td>
    <td width=300></td>
  </tr>
</table>
  ",90.0,1.0,,,,,,,,,,,,,,,,,,,,,,,,,,
31,0,,html-keyboard-response,31,402428,0.0-4.1-2.1,95vnnqgkx4n,2022-09-19 15:32:41.897,594abd98215cbd000146debc,2,27,35,70,34,54,female,,,"
  <table>
  <tr height=300>
    <td width=300 height=300><img src=""static/images/cards/3_of_red_stars.svg"" width=""175px"" height=""250px""></img></td>
    <td width=300 height=300><img src=""static/images/cards/back_of_red_stars.svg"" width=""175px"" height=""250px""></img></td>
  </tr>
  <tr height=200>
    <td width=300><img src=""static/images/keys/z.svg"" width=""35%"" height=""75%""></img></td>
    <td width=300></td>
  </tr>
</table>
  ",,,,,,,,,,,,,,,,,,,,,,,,,,,,
32,0,,html-keyboard-response,32,403968,0.0-4.1-3.1,95vnnqgkx4n,2022-09-19 15:32:41.897,594abd98215cbd000146debc,2,27,35,70,34,54,female,,,"<p style=""font-size:50px"">You Lose!
No points this round.</p>",,,,,,,,,,,,,,,,,,,,,,,,,,,,
33,0,,html-keyboard-response,33,404499,0.0-4.1-4.1,95vnnqgkx4n,2022-09-19 15:32:41.897,594abd98215cbd000146debc,2,27,35,70,34,54,female,,,,,,1.0,learning,1.0,B,,red,,stars,,,,B,red,stars,,0.0,1.0,1,left,599.0,3.0,0.0,0.0,,,
34,0,,html-keyboard-response,34,406019,0.0-4.2-0.2,95vnnqgkx4n,2022-09-19 15:32:41.897,594abd98215cbd000146debc,2,27,35,70,34,54,female,,,"<img src=""static/images/cards/stack_of_black_moons.svg"" width=""175px"" height=""250px""></img>",,,,,,,,,,,,,,,,,,,,,,,,,,,,
35,0,,html-keyboard-response,35,407175,0.0-4.2-1.2,95vnnqgkx4n,2022-09-19 15:32:41.897,594abd98215cbd000146debc,2,27,35,70,34,54,female,635.0,,"
  <table>
  <tr height=300>
    <td width=300 height=300><img src=""static/images/cards/back_of_black_moons.svg"" width=""175px"" height=""250px""></img></td>
    <td width=300 height=300><img src=""static/images/cards/back_of_black_moons.svg"" width=""175px"" height=""250px""></img></td>
  </tr>
  <tr height=200>
    <td width=300><img src=""static/images/keys/z.svg"" width=""35%"" height=""75%""></img></td>
    <td width=300><img src=""static/images/keys/m.svg"" width=""35%"" height=""75%""></img></td>
  </tr>
</table>
  ",90.0,1.0,,,,,,,,,,,,,,,,,,,,,,,,,,
36,0,,html-keyboard-response,36,408679,0.0-4.2-2.2,95vnnqgkx4n,2022-09-19 15:32:41.897,594abd98215cbd000146debc,2,27,35,70,34,54,female,,,"
  <table>
  <tr height=300>
    <td width=300 height=300><img src=""static/images/cards/1_of_black_moons.svg"" width=""175px"" height=""250px""></img></td>
    <td width=300 height=300><img src=""static/images/cards/back_of_black_moons.svg"" width=""175px"" height=""250px""></img></td>
  </tr>
  <tr height=200>
    <td width=300><img src=""static/images/keys/z.svg"" width=""35%"" height=""75%""></img></td>
    <td width=300><img src=""static/images/keys/m.svg"" width=""35%"" height=""75%""></img></td>
  </tr>
</table>
  ",,,,,,,,,,,,,,,,,,,,,,,,,,,,
37,0,,html-keyboard-response,37,410219,0.0-4.2-3.2,95vnnqgkx4n,2022-09-19 15:32:41.897,594abd98215cbd000146debc,2,27,35,70,34,54,female,,,"<p style=""font-size:50px"">You Lose!
No points this round.</p>",,,,,,,,,,,,,,,,,,,,,,,,,,,,
38,0,,html-keyboard-response,38,410759,0.0-4.2-4.2,95vnnqgkx4n,2022-09-19 15:32:41.897,594abd98215cbd000146debc,2,27,35,70,34,54,female,,,,,,1.0,learning,2.0,C,,black,,moons,,,,C,black,moons,,1.0,0.0,NA,left,635.0,1.0,0.0,0.0,,,
39,0,,html-keyboard-response,39,412278,0.0-4.3-0.3,95vnnqgkx4n,2022-09-19 15:32:41.897,594abd98215cbd000146debc,2,27,35,70,34,54,female,,,"<img src=""static/images/cards/stack_of_red_moons.svg"" width=""175px"" height=""250px""></img>",,,,,,,,,,,,,,,,,,,,,,,,,,,,
40,0,,html-keyboard-response,40,413393,0.0-4.3-1.3,95vnnqgkx4n,2022-09-19 15:32:41.897,594abd98215cbd000146debc,2,27,35,70,34,54,female,613.0,,"
  <table>
  <tr height=300>
    <td width=300 height=300><img src=""static/images/cards/back_of_red_moons.svg"" width=""175px"" height=""250px""></img></td>
    <td width=300 height=300><img src=""static/images/cards/back_of_red_moons.svg"" width=""175px"" height=""250px""></img></td>
  </tr>
  <tr height=200>
    <td width=300></td>
    <td width=300><img src=""static/images/keys/m.svg"" width=""35%"" height=""75%""></img></td>
  </tr>
</table>
  ",77.0,1.0,,,,,,,,,,,,,,,,,,,,,,,,,,
41,0,,html-keyboard-response,41,414899,0.0-4.3-2.3,95vnnqgkx4n,2022-09-19 15:32:41.897,594abd98215cbd000146debc,2,27,35,70,34,54,female,,,"
  <table>
  <tr height=300>
    <td width=300 height=300><img src=""static/images/cards/back_of_red_moons.svg"" width=""175px"" height=""250px""></img></td>
    <td width=300 height=300><img src=""static/images/cards/6_of_red_moons.svg"" width=""175px"" height=""250px""></img></td>
  </tr>
  <tr height=200>
    <td width=300></td>
    <td width=300><img src=""static/images/keys/m.svg"" width=""35%"" height=""75%""></img></td>
  </tr>
</table>
  ",,,,,,,,,,,,,,,,,,,,,,,,,,,,
42,0,,html-keyboard-response,42,416438,0.0-4.3-3.3,95vnnqgkx4n,2022-09-19 15:32:41.897,594abd98215cbd000146debc,2,27,35,70,34,54,female,,,"<p style=""font-size:50px"">You Lose!
No points this round.</p>",,,,,,,,,,,,,,,,,,,,,,,,,,,,
43,0,,html-keyboard-response,43,416979,0.0-4.3-4.3,95vnnqgkx4n,2022-09-19 15:32:41.897,594abd98215cbd000146debc,2,27,35,70,34,54,female,,,,,,1.0,learning,3.0,D,,red,,moons,,,,D,red,moons,,0.0,0.0,0,right,613.0,6.0,1.0,0.0,,,
44,0,,html-keyboard-response,44,418501,0.0-4.4-0.4,95vnnqgkx4n,2022-09-19 15:32:41.897,594abd98215cbd000146debc,2,27,35,70,34,54,female,,,"<img src=""static/images/cards/stack_of_red_bolts.svg"" width=""175px"" height=""250px""></img>",,,,,,,,,,,,,,,,,,,,,,,,,,,,
45,0,,html-keyboard-response,45,419562,0.0-4.4-1.4,95vnnqgkx4n,2022-09-19 15:32:41.897,594abd98215cbd000146debc,2,27,35,70,34,54,female,543.0,,"
  <table>
  <tr height=300>
    <td width=300 height=300><img src=""static/images/cards/back_of_red_bolts.svg"" width=""175px"" height=""250px""></img></td>
    <td width=300 height=300><img src=""static/images/cards/back_of_red_bolts.svg"" width=""175px"" height=""250px""></img></td>
  </tr>
  <tr height=200>
    <td width=300><img src=""static/images/keys/z.svg"" width=""35%"" height=""75%""></img></td>
    <td width=300><img src=""static/images/keys/m.svg"" width=""35%"" height=""75%""></img></td>
  </tr>
</table>
  ",90.0,1.0,,,,,,,,,,,,,,,,,,,,,,,,,,
46,0,,html-keyboard-response,46,421078,0.0-4.4-2.4,95vnnqgkx4n,2022-09-19 15:32:41.897,594abd98215cbd000146debc,2,27,35,70,34,54,female,,,"
  <table>
  <tr height=300>
    <td width=300 height=300><img src=""static/images/cards/4_of_red_bolts.svg"" width=""175px"" height=""250px""></img></td>
    <td width=300 height=300><img src=""static/images/cards/back_of_red_bolts.svg"" width=""175px"" height=""250px""></img></td>
  </tr>
  <tr height=200>
    <td width=300><img src=""static/images/keys/z.svg"" width=""35%"" height=""75%""></img></td>
    <td width=300><img src=""static/images/keys/m.svg"" width=""35%"" height=""75%""></img></td>
  </tr>
</table>
  ",,,,,,,,,,,,,,,,,,,,,,,,,,,,
47,0,,html-keyboard-response,47,422598,0.0-4.4-3.4,95vnnqgkx4n,2022-09-19 15:32:41.897,594abd98215cbd000146debc,2,27,35,70,34,54,female,,,"<p style=""font-size:50px"">You win!
+10 points this round!</p>",,,,,,,,,,,,,,,,,,,,,,,,,,,,
48,0,,html-keyboard-response,48,423119,0.0-4.4-4.4,95vnnqgkx4n,2022-09-19 15:32:41.897,594abd98215cbd000146debc,2,27,35,70,34,54,female,,,,,,1.0,learning,4.0,Xc,,red,,bolts,,,,Xc,red,bolts,,1.0,0.0,NA,left,543.0,4.0,0.0,1.0,,,
49,0,,html-keyboard-response,49,424634,0.0-4.5-0.5,95vnnqgkx4n,2022-09-19 15:32:41.897,594abd98215cbd000146debc,2,27,35,70,34,54,female,,,"<img src=""static/images/cards/stack_of_black_bolts.svg"" width=""175px"" height=""250px""></img>",,,,,,,,,,,,,,,,,,,,,,,,,,,,
50,0,,html-keyboard-response,50,425719,0.0-4.5-1.5,95vnnqgkx4n,2022-09-19 15:32:41.897,594abd98215cbd000146debc,2,27,35,70,34,54,female,582.0,,"
  <table>
  <tr height=300>
    <td width=300 height=300><img src=""static/images/cards/back_of_black_bolts.svg"" width=""175px"" height=""250px""></img></td>
    <td width=300 height=300><img src=""static/images/cards/back_of_black_bolts.svg"" width=""175px"" height=""250px""></img></td>
  </tr>
  <tr height=200>
    <td width=300><img src=""static/images/keys/z.svg"" width=""35%"" height=""75%""></img></td>
    <td width=300></td>
  </tr>
</table>
  ",90.0,1.0,,,,,,,,,,,,,,,,,,,,,,,,,,
51,0,,html-keyboard-response,51,427239,0.0-4.5-2.5,95vnnqgkx4n,2022-09-19 15:32:41.897,594abd98215cbd000146debc,2,27,35,70,34,54,female,,,"
  <table>
  <tr height=300>
    <td width=300 height=300><img src=""static/images/cards/10_of_black_bolts.svg"" width=""175px"" height=""250px""></img></td>
    <td width=300 height=300><img src=""static/images/cards/back_of_black_bolts.svg"" width=""175px"" height=""250px""></img></td>
  </tr>
  <tr height=200>
    <td width=300><img src=""static/images/keys/z.svg"" width=""35%"" height=""75%""></img></td>
    <td width=300></td>
  </tr>
</table>
  ",,,,,,,,,,,,,,,,,,,,,,,,,,,,
52,0,,html-keyboard-response,52,428759,0.0-4.5-3.5,95vnnqgkx4n,2022-09-19 15:32:41.897,594abd98215cbd000146debc,2,27,35,70,34,54,female,,,"<p style=""font-size:50px"">You win!
+10 points this round!</p>",,,,,,,,,,,,,,,,,,,,,,,,,,,,
53,0,,html-keyboard-response,53,429299,0.0-4.5-4.5,95vnnqgkx4n,2022-09-19 15:32:41.897,594abd98215cbd000146debc,2,27,35,70,34,54,female,,,,,,1.0,learning,5.0,Xnc,,black,,bolts,,,,Xnc,black,bolts,,0.0,0.0,1,left,582.0,10.0,1.0,1.0,,,
54,0,,html-keyboard-response,54,430819,0.0-4.6-0.6,95vnnqgkx4n,2022-09-19 15:32:41.897,594abd98215cbd000146debc,2,27,35,70,34,54,female,,,"<img src=""static/images/cards/stack_of_black_stars.svg"" width=""175px"" height=""250px""></img>",,,,,,,,,,,,,,,,,,,,,,,,,,,,
55,0,,html-keyboard-response,55,431977,0.0-4.6-1.6,95vnnqgkx4n,2022-09-19 15:32:41.897,594abd98215cbd000146debc,2,27,35,70,34,54,female,637.0,,"
  <table>
  <tr height=300>
    <td width=300 height=300><img src=""static/images/cards/back_of_black_stars.svg"" width=""175px"" height=""250px""></img></td>
    <td width=300 height=300><img src=""static/images/cards/back_of_black_stars.svg"" width=""175px"" height=""250px""></img></td>
  </tr>
  <tr height=200>
    <td width=300><img src=""static/images/keys/z.svg"" width=""35%"" height=""75%""></img></td>
    <td width=300><img src=""static/images/keys/m.svg"" width=""35%"" height=""75%""></img></td>
  </tr>
</table>
  ",77.0,1.0,,,,,,,,,,,,,,,,,,,,,,,,,,
56,0,,html-keyboard-response,56,433478,0.0-4.6-2.6,95vnnqgkx4n,2022-09-19 15:32:41.897,594abd98215cbd000146debc,2,27,35,70,34,54,female,,,"
  <table>
  <tr height=300>
    <td width=300 height=300><img src=""static/images/cards/back_of_black_stars.svg"" width=""175px"" height=""250px""></img></td>
    <td width=300 height=300><img src=""static/images/cards/7_of_black_stars.svg"" width=""175px"" height=""250px""></img></td>
  </tr>
  <tr height=200>
    <td width=300><img src=""static/images/keys/z.svg"" width=""35%"" height=""75%""></img></td>
    <td width=300><img src=""static/images/keys/m.svg"" width=""35%"" height=""75%""></img></td>
  </tr>
</table>
  ",,,,,,,,,,,,,,,,,,,,,,,,,,,,
57,0,,html-keyboard-response,57,434998,0.0-4.6-3.6,95vnnqgkx4n,2022-09-19 15:32:41.897,594abd98215cbd000146debc,2,27,35,70,34,54,female,,,"<p style=""font-size:50px"">You win!
+10 points this round!</p>",,,,,,,,,,,,,,,,,,,,,,,,,,,,
58,0,,html-keyboard-response,58,435539,0.0-4.6-4.6,95vnnqgkx4n,2022-09-19 15:32:41.897,594abd98215cbd000146debc,2,27,35,70,34,54,female,,,,,,1.0,learning,6.0,A,,black,,stars,,,,A,black,stars,,1.0,1.0,NA,right,637.0,7.0,1.0,1.0,,,
59,0,,html-keyboard-response,59,437059,0.0-4.7-0.7,95vnnqgkx4n,2022-09-19 15:32:41.897,594abd98215cbd000146debc,2,27,35,70,34,54,female,,,"<img src=""static/images/cards/stack_of_red_stars.svg"" width=""175px"" height=""250px""></img>",,,,,,,,,,,,,,,,,,,,,,,,,,,,
60,0,,html-keyboard-response,60,438403,0.0-4.7-1.7,95vnnqgkx4n,2022-09-19 15:32:41.897,594abd98215cbd000146debc,2,27,35,70,34,54,female,823.0,,"
  <table>
  <tr height=300>
    <td width=300 height=300><img src=""static/images/cards/back_of_red_stars.svg"" width=""175px"" height=""250px""></img></td>
    <td width=300 height=300><img src=""static/images/cards/back_of_red_stars.svg"" width=""175px"" height=""250px""></img></td>
  </tr>
  <tr height=200>
    <td width=300></td>
    <td width=300><img src=""static/images/keys/m.svg"" width=""35%"" height=""75%""></img></td>
  </tr>
</table>
  ",77.0,1.0,,,,,,,,,,,,,,,,,,,,,,,,,,
61,0,,html-keyboard-response,61,439918,0.0-4.7-2.7,95vnnqgkx4n,2022-09-19 15:32:41.897,594abd98215cbd000146debc,2,27,35,70,34,54,female,,,"
  <table>
  <tr height=300>
    <td width=300 height=300><img src=""static/images/cards/back_of_red_stars.svg"" width=""175px"" height=""250px""></img></td>
    <td width=300 height=300><img src=""static/images/cards/10_of_red_stars.svg"" width=""175px"" height=""250px""></img></td>
  </tr>
  <tr height=200>
    <td width=300></td>
    <td width=300><img src=""static/images/keys/m.svg"" width=""35%"" height=""75%""></img></td>
  </tr>
</table>
  ",,,,,,,,,,,,,,,,,,,,,,,,,,,,
62,0,,html-keyboard-response,62,441439,0.0-4.7-3.7,95vnnqgkx4n,2022-09-19 15:32:41.897,594abd98215cbd000146debc,2,27,35,70,34,54,female,,,"<p style=""font-size:50px"">You win!
+10 points this round!</p>",,,,,,,,,,,,,,,,,,,,,,,,,,,,
63,0,,html-keyboard-response,63,441979,0.0-4.7-4.7,95vnnqgkx4n,2022-09-19 15:32:41.897,594abd98215cbd000146debc,2,27,35,70,34,54,female,,,,,,1.0,learning,7.0,B,,red,,stars,,,,B,red,stars,,0.0,1.0,0,right,823.0,10.0,1.0,1.0,,,
64,0,,html-keyboard-response,64,443499,0.0-4.8-0.8,95vnnqgkx4n,2022-09-19 15:32:41.897,594abd98215cbd000146debc,2,27,35,70,34,54,female,,,"<img src=""static/images/cards/stack_of_black_moons.svg"" width=""175px"" height=""250px""></img>",,,,,,,,,,,,,,,,,,,,,,,,,,,,
65,0,,html-keyboard-response,65,444477,0.0-4.8-1.8,95vnnqgkx4n,2022-09-19 15:32:41.897,594abd98215cbd000146debc,2,27,35,70,34,54,female,461.0,,"
  <table>
  <tr height=300>
    <td width=300 height=300><img src=""static/images/cards/back_of_black_moons.svg"" width=""175px"" height=""250px""></img></td>
    <td width=300 height=300><img src=""static/images/cards/back_of_black_moons.svg"" width=""175px"" height=""250px""></img></td>
  </tr>
  <tr height=200>
    <td width=300><img src=""static/images/keys/z.svg"" width=""35%"" height=""75%""></img></td>
    <td width=300><img src=""static/images/keys/m.svg"" width=""35%"" height=""75%""></img></td>
  </tr>
</table>
  ",90.0,1.0,,,,,,,,,,,,,,,,,,,,,,,,,,
66,0,,html-keyboard-response,66,445979,0.0-4.8-2.8,95vnnqgkx4n,2022-09-19 15:32:41.897,594abd98215cbd000146debc,2,27,35,70,34,54,female,,,"
  <table>
  <tr height=300>
    <td width=300 height=300><img src=""static/images/cards/3_of_black_moons.svg"" width=""175px"" height=""250px""></img></td>
    <td width=300 height=300><img src=""static/images/cards/back_of_black_moons.svg"" width=""175px"" height=""250px""></img></td>
  </tr>
  <tr height=200>
    <td width=300><img src=""static/images/keys/z.svg"" width=""35%"" height=""75%""></img></td>
    <td width=300><img src=""static/images/keys/m.svg"" width=""35%"" height=""75%""></img></td>
  </tr>
</table>
  ",,,,,,,,,,,,,,,,,,,,,,,,,,,,
67,0,,html-keyboard-response,67,447499,0.0-4.8-3.8,95vnnqgkx4n,2022-09-19 15:32:41.897,594abd98215cbd000146debc,2,27,35,70,34,54,female,,,"<p style=""font-size:50px"">You win!
+10 points this round!</p>",,,,,,,,,,,,,,,,,,,,,,,,,,,,
68,0,,html-keyboard-response,68,448039,0.0-4.8-4.8,95vnnqgkx4n,2022-09-19 15:32:41.897,594abd98215cbd000146debc,2,27,35,70,34,54,female,,,,,,1.0,learning,8.0,C,,black,,moons,,,,C,black,moons,,1.0,0.0,NA,left,461.0,3.0,0.0,1.0,,,
69,0,,html-keyboard-response,69,449558,0.0-4.9-0.9,95vnnqgkx4n,2022-09-19 15:32:41.897,594abd98215cbd000146debc,2,27,35,70,34,54,female,,,"<img src=""static/images/cards/stack_of_red_moons.svg"" width=""175px"" height=""250px""></img>",,,,,,,,,,,,,,,,,,,,,,,,,,,,
70,0,,html-keyboard-response,70,450941,0.0-4.9-1.9,95vnnqgkx4n,2022-09-19 15:32:41.897,594abd98215cbd000146debc,2,27,35,70,34,54,female,881.0,,"
  <table>
  <tr height=300>
    <td width=300 height=300><img src=""static/images/cards/back_of_red_moons.svg"" width=""175px"" height=""250px""></img></td>
    <td width=300 height=300><img src=""static/images/cards/back_of_red_moons.svg"" width=""175px"" height=""250px""></img></td>
  </tr>
  <tr height=200>
    <td width=300></td>
    <td width=300><img src=""static/images/keys/m.svg"" width=""35%"" height=""75%""></img></td>
  </tr>
</table>
  ",77.0,1.0,,,,,,,,,,,,,,,,,,,,,,,,,,
71,0,,html-keyboard-response,71,452459,0.0-4.9-2.9,95vnnqgkx4n,2022-09-19 15:32:41.897,594abd98215cbd000146debc,2,27,35,70,34,54,female,,,"
  <table>
  <tr height=300>
    <td width=300 height=300><img src=""static/images/cards/back_of_red_moons.svg"" width=""175px"" height=""250px""></img></td>
    <td width=300 height=300><img src=""static/images/cards/1_of_red_moons.svg"" width=""175px"" height=""250px""></img></td>
  </tr>
  <tr height=200>
    <td width=300></td>
    <td width=300><img src=""static/images/keys/m.svg"" width=""35%"" height=""75%""></img></td>
  </tr>
</table>
  ",,,,,,,,,,,,,,,,,,,,,,,,,,,,
72,0,,html-keyboard-response,72,453998,0.0-4.9-3.9,95vnnqgkx4n,2022-09-19 15:32:41.897,594abd98215cbd000146debc,2,27,35,70,34,54,female,,,"<p style=""font-size:50px"">You win!
+10 points this round!</p>",,,,,,,,,,,,,,,,,,,,,,,,,,,,
73,0,,html-keyboard-response,73,454519,0.0-4.9-4.9,95vnnqgkx4n,2022-09-19 15:32:41.897,594abd98215cbd000146debc,2,27,35,70,34,54,female,,,,,,1.0,learning,9.0,D,,red,,moons,,,,D,red,moons,,0.0,0.0,0,right,881.0,1.0,0.0,1.0,,,
74,0,,html-keyboard-response,74,456039,0.0-4.10-0.10,95vnnqgkx4n,2022-09-19 15:32:41.897,594abd98215cbd000146debc,2,27,35,70,34,54,female,,,"<img src=""static/images/cards/stack_of_red_bolts.svg"" width=""175px"" height=""250px""></img>",,,,,,,,,,,,,,,,,,,,,,,,,,,,
75,0,,html-keyboard-response,75,457194,0.0-4.10-1.10,95vnnqgkx4n,2022-09-19 15:32:41.897,594abd98215cbd000146debc,2,27,35,70,34,54,female,634.0,,"
  <table>
  <tr height=300>
    <td width=300 height=300><img src=""static/images/cards/back_of_red_bolts.svg"" width=""175px"" height=""250px""></img></td>
    <td width=300 height=300><img src=""static/images/cards/back_of_red_bolts.svg"" width=""175px"" height=""250px""></img></td>
  </tr>
  <tr height=200>
    <td width=300><img src=""static/images/keys/z.svg"" width=""35%"" height=""75%""></img></td>
    <td width=300><img src=""static/images/keys/m.svg"" width=""35%"" height=""75%""></img></td>
  </tr>
</table>
  ",77.0,1.0,,,,,,,,,,,,,,,,,,,,,,,,,,
76,0,,html-keyboard-response,76,458699,0.0-4.10-2.10,95vnnqgkx4n,2022-09-19 15:32:41.897,594abd98215cbd000146debc,2,27,35,70,34,54,female,,,"
  <table>
  <tr height=300>
    <td width=300 height=300><img src=""static/images/cards/back_of_red_bolts.svg"" width=""175px"" height=""250px""></img></td>
    <td width=300 height=300><img src=""static/images/cards/6_of_red_bolts.svg"" width=""175px"" height=""250px""></img></td>
  </tr>
  <tr height=200>
    <td width=300><img src=""static/images/keys/z.svg"" width=""35%"" height=""75%""></img></td>
    <td width=300><img src=""static/images/keys/m.svg"" width=""35%"" height=""75%""></img></td>
  </tr>
</table>
  ",,,,,,,,,,,,,,,,,,,,,,,,,,,,
77,0,,html-keyboard-response,77,460234,0.0-4.10-3.10,95vnnqgkx4n,2022-09-19 15:32:41.897,594abd98215cbd000146debc,2,27,35,70,34,54,female,,,"<p style=""font-size:50px"">You win!
+10 points this round!</p>",,,,,,,,,,,,,,,,,,,,,,,,,,,,
78,0,,html-keyboard-response,78,460758,0.0-4.10-4.10,95vnnqgkx4n,2022-09-19 15:32:41.897,594abd98215cbd000146debc,2,27,35,70,34,54,female,,,,,,1.0,learning,10.0,Xc,,red,,bolts,,,,Xc,red,bolts,,1.0,0.0,NA,right,634.0,6.0,1.0,1.0,,,
79,0,,html-keyboard-response,79,462278,0.0-4.11-0.11,95vnnqgkx4n,2022-09-19 15:32:41.897,594abd98215cbd000146debc,2,27,35,70,34,54,female,,,"<img src=""static/images/cards/stack_of_black_bolts.svg"" width=""175px"" height=""250px""></img>",,,,,,,,,,,,,,,,,,,,,,,,,,,,
80,0,,html-keyboard-response,80,463481,0.0-4.11-1.11,95vnnqgkx4n,2022-09-19 15:32:41.897,594abd98215cbd000146debc,2,27,35,70,34,54,female,682.0,,"
  <table>
  <tr height=300>
    <td width=300 height=300><img src=""static/images/cards/back_of_black_bolts.svg"" width=""175px"" height=""250px""></img></td>
    <td width=300 height=300><img src=""static/images/cards/back_of_black_bolts.svg"" width=""175px"" height=""250px""></img></td>
  </tr>
  <tr height=200>
    <td width=300><img src=""static/images/keys/z.svg"" width=""35%"" height=""75%""></img></td>
    <td width=300></td>
  </tr>
</table>
  ",90.0,1.0,,,,,,,,,,,,,,,,,,,,,,,,,,
81,0,,html-keyboard-response,81,464994,0.0-4.11-2.11,95vnnqgkx4n,2022-09-19 15:32:41.897,594abd98215cbd000146debc,2,27,35,70,34,54,female,,,"
  <table>
  <tr height=300>
    <td width=300 height=300><img src=""static/images/cards/10_of_black_bolts.svg"" width=""175px"" height=""250px""></img></td>
    <td width=300 height=300><img src=""static/images/cards/back_of_black_bolts.svg"" width=""175px"" height=""250px""></img></td>
  </tr>
  <tr height=200>
    <td width=300><img src=""static/images/keys/z.svg"" width=""35%"" height=""75%""></img></td>
    <td width=300></td>
  </tr>
</table>
  ",,,,,,,,,,,,,,,,,,,,,,,,,,,,
82,0,,html-keyboard-response,82,466498,0.0-4.11-3.11,95vnnqgkx4n,2022-09-19 15:32:41.897,594abd98215cbd000146debc,2,27,35,70,34,54,female,,,"<p style=""font-size:50px"">You win!
+10 points this round!</p>",,,,,,,,,,,,,,,,,,,,,,,,,,,,
83,0,,html-keyboard-response,83,467019,0.0-4.11-4.11,95vnnqgkx4n,2022-09-19 15:32:41.897,594abd98215cbd000146debc,2,27,35,70,34,54,female,,,,,,1.0,learning,11.0,Xnc,,black,,bolts,,,,Xnc,black,bolts,,0.0,0.0,1,left,682.0,10.0,1.0,1.0,,,
84,0,,html-keyboard-response,84,468538,0.0-4.12-0.12,95vnnqgkx4n,2022-09-19 15:32:41.897,594abd98215cbd000146debc,2,27,35,70,34,54,female,,,"<img src=""static/images/cards/stack_of_black_stars.svg"" width=""175px"" height=""250px""></img>",,,,,,,,,,,,,,,,,,,,,,,,,,,,
85,0,,html-keyboard-response,85,469734,0.0-4.12-1.12,95vnnqgkx4n,2022-09-19 15:32:41.897,594abd98215cbd000146debc,2,27,35,70,34,54,female,674.0,,"
  <table>
  <tr height=300>
    <td width=300 height=300><img src=""static/images/cards/back_of_black_stars.svg"" width=""175px"" height=""250px""></img></td>
    <td width=300 height=300><img src=""static/images/cards/back_of_black_stars.svg"" width=""175px"" height=""250px""></img></td>
  </tr>
  <tr height=200>
    <td width=300><img src=""static/images/keys/z.svg"" width=""35%"" height=""75%""></img></td>
    <td width=300><img src=""static/images/keys/m.svg"" width=""35%"" height=""75%""></img></td>
  </tr>
</table>
  ",90.0,1.0,,,,,,,,,,,,,,,,,,,,,,,,,,
86,0,,html-keyboard-response,86,471239,0.0-4.12-2.12,95vnnqgkx4n,2022-09-19 15:32:41.897,594abd98215cbd000146debc,2,27,35,70,34,54,female,,,"
  <table>
  <tr height=300>
    <td width=300 height=300><img src=""static/images/cards/9_of_black_stars.svg"" width=""175px"" height=""250px""></img></td>
    <td width=300 height=300><img src=""static/images/cards/back_of_black_stars.svg"" width=""175px"" height=""250px""></img></td>
  </tr>
  <tr height=200>
    <td width=300><img src=""static/images/keys/z.svg"" width=""35%"" height=""75%""></img></td>
    <td width=300><img src=""static/images/keys/m.svg"" width=""35%"" height=""75%""></img></td>
  </tr>
</table>
  ",,,,,,,,,,,,,,,,,,,,,,,,,,,,
87,0,,html-keyboard-response,87,472759,0.0-4.12-3.12,95vnnqgkx4n,2022-09-19 15:32:41.897,594abd98215cbd000146debc,2,27,35,70,34,54,female,,,"<p style=""font-size:50px"">You win!
+10 points this round!</p>",,,,,,,,,,,,,,,,,,,,,,,,,,,,
88,0,,html-keyboard-response,88,473299,0.0-4.12-4.12,95vnnqgkx4n,2022-09-19 15:32:41.897,594abd98215cbd000146debc,2,27,35,70,34,54,female,,,,,,1.0,learning,12.0,A,,black,,stars,,,,A,black,stars,,1.0,1.0,NA,left,674.0,9.0,1.0,1.0,,,
89,0,,html-keyboard-response,89,474808,0.0-4.13-0.13,95vnnqgkx4n,2022-09-19 15:32:41.897,594abd98215cbd000146debc,2,27,35,70,34,54,female,,,"<img src=""static/images/cards/stack_of_red_stars.svg"" width=""175px"" height=""250px""></img>",,,,,,,,,,,,,,,,,,,,,,,,,,,,
90,0,,html-keyboard-response,90,476070,0.0-4.13-1.13,95vnnqgkx4n,2022-09-19 15:32:41.897,594abd98215cbd000146debc,2,27,35,70,34,54,female,741.0,,"
  <table>
  <tr height=300>
    <td width=300 height=300><img src=""static/images/cards/back_of_red_stars.svg"" width=""175px"" height=""250px""></img></td>
    <td width=300 height=300><img src=""static/images/cards/back_of_red_stars.svg"" width=""175px"" height=""250px""></img></td>
  </tr>
  <tr height=200>
    <td width=300></td>
    <td width=300><img src=""static/images/keys/m.svg"" width=""35%"" height=""75%""></img></td>
  </tr>
</table>
  ",77.0,1.0,,,,,,,,,,,,,,,,,,,,,,,,,,
91,0,,html-keyboard-response,91,477578,0.0-4.13-2.13,95vnnqgkx4n,2022-09-19 15:32:41.897,594abd98215cbd000146debc,2,27,35,70,34,54,female,,,"
  <table>
  <tr height=300>
    <td width=300 height=300><img src=""static/images/cards/back_of_red_stars.svg"" width=""175px"" height=""250px""></img></td>
    <td width=300 height=300><img src=""static/images/cards/9_of_red_stars.svg"" width=""175px"" height=""250px""></img></td>
  </tr>
  <tr height=200>
    <td width=300></td>
    <td width=300><img src=""static/images/keys/m.svg"" width=""35%"" height=""75%""></img></td>
  </tr>
</table>
  ",,,,,,,,,,,,,,,,,,,,,,,,,,,,
92,0,,html-keyboard-response,92,479118,0.0-4.13-3.13,95vnnqgkx4n,2022-09-19 15:32:41.897,594abd98215cbd000146debc,2,27,35,70,34,54,female,,,"<p style=""font-size:50px"">You win!
+10 points this round!</p>",,,,,,,,,,,,,,,,,,,,,,,,,,,,
93,0,,html-keyboard-response,93,479638,0.0-4.13-4.13,95vnnqgkx4n,2022-09-19 15:32:41.897,594abd98215cbd000146debc,2,27,35,70,34,54,female,,,,,,1.0,learning,13.0,B,,red,,stars,,,,B,red,stars,,0.0,1.0,0,right,741.0,9.0,1.0,1.0,,,
94,0,,html-keyboard-response,94,481159,0.0-4.14-0.14,95vnnqgkx4n,2022-09-19 15:32:41.897,594abd98215cbd000146debc,2,27,35,70,34,54,female,,,"<img src=""static/images/cards/stack_of_black_moons.svg"" width=""175px"" height=""250px""></img>",,,,,,,,,,,,,,,,,,,,,,,,,,,,
95,0,,html-keyboard-response,95,482219,0.0-4.14-1.14,95vnnqgkx4n,2022-09-19 15:32:41.897,594abd98215cbd000146debc,2,27,35,70,34,54,female,540.0,,"
  <table>
  <tr height=300>
    <td width=300 height=300><img src=""static/images/cards/back_of_black_moons.svg"" width=""175px"" height=""250px""></img></td>
    <td width=300 height=300><img src=""static/images/cards/back_of_black_moons.svg"" width=""175px"" height=""250px""></img></td>
  </tr>
  <tr height=200>
    <td width=300><img src=""static/images/keys/z.svg"" width=""35%"" height=""75%""></img></td>
    <td width=300><img src=""static/images/keys/m.svg"" width=""35%"" height=""75%""></img></td>
  </tr>
</table>
  ",90.0,1.0,,,,,,,,,,,,,,,,,,,,,,,,,,
96,0,,html-keyboard-response,96,483738,0.0-4.14-2.14,95vnnqgkx4n,2022-09-19 15:32:41.897,594abd98215cbd000146debc,2,27,35,70,34,54,female,,,"
  <table>
  <tr height=300>
    <td width=300 height=300><img src=""static/images/cards/9_of_black_moons.svg"" width=""175px"" height=""250px""></img></td>
    <td width=300 height=300><img src=""static/images/cards/back_of_black_moons.svg"" width=""175px"" height=""250px""></img></td>
  </tr>
  <tr height=200>
    <td width=300><img src=""static/images/keys/z.svg"" width=""35%"" height=""75%""></img></td>
    <td width=300><img src=""static/images/keys/m.svg"" width=""35%"" height=""75%""></img></td>
  </tr>
</table>
  ",,,,,,,,,,,,,,,,,,,,,,,,,,,,
97,0,,html-keyboard-response,97,485278,0.0-4.14-3.14,95vnnqgkx4n,2022-09-19 15:32:41.897,594abd98215cbd000146debc,2,27,35,70,34,54,female,,,"<p style=""font-size:50px"">You win!
+10 points this round!</p>",,,,,,,,,,,,,,,,,,,,,,,,,,,,
98,0,,html-keyboard-response,98,485798,0.0-4.14-4.14,95vnnqgkx4n,2022-09-19 15:32:41.897,594abd98215cbd000146debc,2,27,35,70,34,54,female,,,,,,1.0,learning,14.0,C,,black,,moons,,,,C,black,moons,,1.0,0.0,NA,left,540.0,9.0,1.0,1.0,,,
99,0,,html-keyboard-response,99,487320,0.0-4.15-0.15,95vnnqgkx4n,2022-09-19 15:32:41.897,594abd98215cbd000146debc,2,27,35,70,34,54,female,,,"<img src=""static/images/cards/stack_of_red_moons.svg"" width=""175px"" height=""250px""></img>",,,,,,,,,,,,,,,,,,,,,,,,,,,,
100,0,,html-keyboard-response,100,488591,0.0-4.15-1.15,95vnnqgkx4n,2022-09-19 15:32:41.897,594abd98215cbd000146debc,2,27,35,70,34,54,female,751.0,,"
  <table>
  <tr height=300>
    <td width=300 height=300><img src=""static/images/cards/back_of_red_moons.svg"" width=""175px"" height=""250px""></img></td>
    <td width=300 height=300><img src=""static/images/cards/back_of_red_moons.svg"" width=""175px"" height=""250px""></img></td>
  </tr>
  <tr height=200>
    <td width=300></td>
    <td width=300><img src=""static/images/keys/m.svg"" width=""35%"" height=""75%""></img></td>
  </tr>
</table>
  ",77.0,1.0,,,,,,,,,,,,,,,,,,,,,,,,,,
101,0,,html-keyboard-response,101,490098,0.0-4.15-2.15,95vnnqgkx4n,2022-09-19 15:32:41.897,594abd98215cbd000146debc,2,27,35,70,34,54,female,,,"
  <table>
  <tr height=300>
    <td width=300 height=300><img src=""static/images/cards/back_of_red_moons.svg"" width=""175px"" height=""250px""></img></td>
    <td width=300 height=300><img src=""static/images/cards/3_of_red_moons.svg"" width=""175px"" height=""250px""></img></td>
  </tr>
  <tr height=200>
    <td width=300></td>
    <td width=300><img src=""static/images/keys/m.svg"" width=""35%"" height=""75%""></img></td>
  </tr>
</table>
  ",,,,,,,,,,,,,,,,,,,,,,,,,,,,
102,0,,html-keyboard-response,102,491619,0.0-4.15-3.15,95vnnqgkx4n,2022-09-19 15:32:41.897,594abd98215cbd000146debc,2,27,35,70,34,54,female,,,"<p style=""font-size:50px"">You Lose!
No points this round.</p>",,,,,,,,,,,,,,,,,,,,,,,,,,,,
103,0,,html-keyboard-response,103,492158,0.0-4.15-4.15,95vnnqgkx4n,2022-09-19 15:32:41.897,594abd98215cbd000146debc,2,27,35,70,34,54,female,,,,,,1.0,learning,15.0,D,,red,,moons,,,,D,red,moons,,0.0,0.0,0,right,751.0,3.0,0.0,0.0,,,
104,0,,html-keyboard-response,104,493679,0.0-4.16-0.16,95vnnqgkx4n,2022-09-19 15:32:41.897,594abd98215cbd000146debc,2,27,35,70,34,54,female,,,"<img src=""static/images/cards/stack_of_red_bolts.svg"" width=""175px"" height=""250px""></img>",,,,,,,,,,,,,,,,,,,,,,,,,,,,
105,0,,html-keyboard-response,105,494740,0.0-4.16-1.16,95vnnqgkx4n,2022-09-19 15:32:41.897,594abd98215cbd000146debc,2,27,35,70,34,54,female,559.0,,"
  <table>
  <tr height=300>
    <td width=300 height=300><img src=""static/images/cards/back_of_red_bolts.svg"" width=""175px"" height=""250px""></img></td>
    <td width=300 height=300><img src=""static/images/cards/back_of_red_bolts.svg"" width=""175px"" height=""250px""></img></td>
  </tr>
  <tr height=200>
    <td width=300><img src=""static/images/keys/z.svg"" width=""35%"" height=""75%""></img></td>
    <td width=300><img src=""static/images/keys/m.svg"" width=""35%"" height=""75%""></img></td>
  </tr>
</table>
  ",77.0,1.0,,,,,,,,,,,,,,,,,,,,,,,,,,
106,0,,html-keyboard-response,106,496255,0.0-4.16-2.16,95vnnqgkx4n,2022-09-19 15:32:41.897,594abd98215cbd000146debc,2,27,35,70,34,54,female,,,"
  <table>
  <tr height=300>
    <td width=300 height=300><img src=""static/images/cards/back_of_red_bolts.svg"" width=""175px"" height=""250px""></img></td>
    <td width=300 height=300><img src=""static/images/cards/6_of_red_bolts.svg"" width=""175px"" height=""250px""></img></td>
  </tr>
  <tr height=200>
    <td width=300><img src=""static/images/keys/z.svg"" width=""35%"" height=""75%""></img></td>
    <td width=300><img src=""static/images/keys/m.svg"" width=""35%"" height=""75%""></img></td>
  </tr>
</table>
  ",,,,,,,,,,,,,,,,,,,,,,,,,,,,
107,0,,html-keyboard-response,107,497759,0.0-4.16-3.16,95vnnqgkx4n,2022-09-19 15:32:41.897,594abd98215cbd000146debc,2,27,35,70,34,54,female,,,"<p style=""font-size:50px"">You win!
+10 points this round!</p>",,,,,,,,,,,,,,,,,,,,,,,,,,,,
108,0,,html-keyboard-response,108,498278,0.0-4.16-4.16,95vnnqgkx4n,2022-09-19 15:32:41.897,594abd98215cbd000146debc,2,27,35,70,34,54,female,,,,,,1.0,learning,16.0,Xc,,red,,bolts,,,,Xc,red,bolts,,1.0,0.0,NA,right,559.0,6.0,1.0,1.0,,,
109,0,,html-keyboard-response,109,499798,0.0-4.17-0.17,95vnnqgkx4n,2022-09-19 15:32:41.897,594abd98215cbd000146debc,2,27,35,70,34,54,female,,,"<img src=""static/images/cards/stack_of_black_bolts.svg"" width=""175px"" height=""250px""></img>",,,,,,,,,,,,,,,,,,,,,,,,,,,,
110,0,,html-keyboard-response,110,500941,0.0-4.17-1.17,95vnnqgkx4n,2022-09-19 15:32:41.897,594abd98215cbd000146debc,2,27,35,70,34,54,female,621.0,,"
  <table>
  <tr height=300>
    <td width=300 height=300><img src=""static/images/cards/back_of_black_bolts.svg"" width=""175px"" height=""250px""></img></td>
    <td width=300 height=300><img src=""static/images/cards/back_of_black_bolts.svg"" width=""175px"" height=""250px""></img></td>
  </tr>
  <tr height=200>
    <td width=300></td>
    <td width=300><img src=""static/images/keys/m.svg"" width=""35%"" height=""75%""></img></td>
  </tr>
</table>
  ",77.0,1.0,,,,,,,,,,,,,,,,,,,,,,,,,,
111,0,,html-keyboard-response,111,502458,0.0-4.17-2.17,95vnnqgkx4n,2022-09-19 15:32:41.897,594abd98215cbd000146debc,2,27,35,70,34,54,female,,,"
  <table>
  <tr height=300>
    <td width=300 height=300><img src=""static/images/cards/back_of_black_bolts.svg"" width=""175px"" height=""250px""></img></td>
    <td width=300 height=300><img src=""static/images/cards/2_of_black_bolts.svg"" width=""175px"" height=""250px""></img></td>
  </tr>
  <tr height=200>
    <td width=300></td>
    <td width=300><img src=""static/images/keys/m.svg"" width=""35%"" height=""75%""></img></td>
  </tr>
</table>
  ",,,,,,,,,,,,,,,,,,,,,,,,,,,,
112,0,,html-keyboard-response,112,503999,0.0-4.17-3.17,95vnnqgkx4n,2022-09-19 15:32:41.897,594abd98215cbd000146debc,2,27,35,70,34,54,female,,,"<p style=""font-size:50px"">You win!
+10 points this round!</p>",,,,,,,,,,,,,,,,,,,,,,,,,,,,
113,0,,html-keyboard-response,113,504528,0.0-4.17-4.17,95vnnqgkx4n,2022-09-19 15:32:41.897,594abd98215cbd000146debc,2,27,35,70,34,54,female,,,,,,1.0,learning,17.0,Xnc,,black,,bolts,,,,Xnc,black,bolts,,0.0,0.0,0,right,621.0,2.0,0.0,1.0,,,
114,0,,html-keyboard-response,114,506049,0.0-4.18-0.18,95vnnqgkx4n,2022-09-19 15:32:41.897,594abd98215cbd000146debc,2,27,35,70,34,54,female,,,"<img src=""static/images/cards/stack_of_black_stars.svg"" width=""175px"" height=""250px""></img>",,,,,,,,,,,,,,,,,,,,,,,,,,,,
115,0,,html-keyboard-response,115,507148,0.0-4.18-1.18,95vnnqgkx4n,2022-09-19 15:32:41.897,594abd98215cbd000146debc,2,27,35,70,34,54,female,579.0,,"
  <table>
  <tr height=300>
    <td width=300 height=300><img src=""static/images/cards/back_of_black_stars.svg"" width=""175px"" height=""250px""></img></td>
    <td width=300 height=300><img src=""static/images/cards/back_of_black_stars.svg"" width=""175px"" height=""250px""></img></td>
  </tr>
  <tr height=200>
    <td width=300><img src=""static/images/keys/z.svg"" width=""35%"" height=""75%""></img></td>
    <td width=300><img src=""static/images/keys/m.svg"" width=""35%"" height=""75%""></img></td>
  </tr>
</table>
  ",90.0,1.0,,,,,,,,,,,,,,,,,,,,,,,,,,
116,0,,html-keyboard-response,116,508668,0.0-4.18-2.18,95vnnqgkx4n,2022-09-19 15:32:41.897,594abd98215cbd000146debc,2,27,35,70,34,54,female,,,"
  <table>
  <tr height=300>
    <td width=300 height=300><img src=""static/images/cards/1_of_black_stars.svg"" width=""175px"" height=""250px""></img></td>
    <td width=300 height=300><img src=""static/images/cards/back_of_black_stars.svg"" width=""175px"" height=""250px""></img></td>
  </tr>
  <tr height=200>
    <td width=300><img src=""static/images/keys/z.svg"" width=""35%"" height=""75%""></img></td>
    <td width=300><img src=""static/images/keys/m.svg"" width=""35%"" height=""75%""></img></td>
  </tr>
</table>
  ",,,,,,,,,,,,,,,,,,,,,,,,,,,,
117,0,,html-keyboard-response,117,510209,0.0-4.18-3.18,95vnnqgkx4n,2022-09-19 15:32:41.897,594abd98215cbd000146debc,2,27,35,70,34,54,female,,,"<p style=""font-size:50px"">You Lose!
No points this round.</p>",,,,,,,,,,,,,,,,,,,,,,,,,,,,
118,0,,html-keyboard-response,118,510748,0.0-4.18-4.18,95vnnqgkx4n,2022-09-19 15:32:41.897,594abd98215cbd000146debc,2,27,35,70,34,54,female,,,,,,1.0,learning,18.0,A,,black,,stars,,,,A,black,stars,,1.0,1.0,NA,left,579.0,1.0,0.0,0.0,,,
119,0,,html-keyboard-response,119,512268,0.0-4.19-0.19,95vnnqgkx4n,2022-09-19 15:32:41.897,594abd98215cbd000146debc,2,27,35,70,34,54,female,,,"<img src=""static/images/cards/stack_of_red_stars.svg"" width=""175px"" height=""250px""></img>",,,,,,,,,,,,,,,,,,,,,,,,,,,,
120,0,,html-keyboard-response,120,513455,0.0-4.19-1.19,95vnnqgkx4n,2022-09-19 15:32:41.897,594abd98215cbd000146debc,2,27,35,70,34,54,female,684.0,,"
  <table>
  <tr height=300>
    <td width=300 height=300><img src=""static/images/cards/back_of_red_stars.svg"" width=""175px"" height=""250px""></img></td>
    <td width=300 height=300><img src=""static/images/cards/back_of_red_stars.svg"" width=""175px"" height=""250px""></img></td>
  </tr>
  <tr height=200>
    <td width=300></td>
    <td width=300><img src=""static/images/keys/m.svg"" width=""35%"" height=""75%""></img></td>
  </tr>
</table>
  ",77.0,1.0,,,,,,,,,,,,,,,,,,,,,,,,,,
121,0,,html-keyboard-response,121,514968,0.0-4.19-2.19,95vnnqgkx4n,2022-09-19 15:32:41.897,594abd98215cbd000146debc,2,27,35,70,34,54,female,,,"
  <table>
  <tr height=300>
    <td width=300 height=300><img src=""static/images/cards/back_of_red_stars.svg"" width=""175px"" height=""250px""></img></td>
    <td width=300 height=300><img src=""static/images/cards/3_of_red_stars.svg"" width=""175px"" height=""250px""></img></td>
  </tr>
  <tr height=200>
    <td width=300></td>
    <td width=300><img src=""static/images/keys/m.svg"" width=""35%"" height=""75%""></img></td>
  </tr>
</table>
  ",,,,,,,,,,,,,,,,,,,,,,,,,,,,
122,0,,html-keyboard-response,122,516509,0.0-4.19-3.19,95vnnqgkx4n,2022-09-19 15:32:41.897,594abd98215cbd000146debc,2,27,35,70,34,54,female,,,"<p style=""font-size:50px"">You Lose!
No points this round.</p>",,,,,,,,,,,,,,,,,,,,,,,,,,,,
123,0,,html-keyboard-response,123,517048,0.0-4.19-4.19,95vnnqgkx4n,2022-09-19 15:32:41.897,594abd98215cbd000146debc,2,27,35,70,34,54,female,,,,,,1.0,learning,19.0,B,,red,,stars,,,,B,red,stars,,0.0,1.0,0,right,684.0,3.0,0.0,0.0,,,
124,0,,html-keyboard-response,124,518568,0.0-4.20-0.20,95vnnqgkx4n,2022-09-19 15:32:41.897,594abd98215cbd000146debc,2,27,35,70,34,54,female,,,"<img src=""static/images/cards/stack_of_black_moons.svg"" width=""175px"" height=""250px""></img>",,,,,,,,,,,,,,,,,,,,,,,,,,,,
125,0,,html-keyboard-response,125,519699,0.0-4.20-1.20,95vnnqgkx4n,2022-09-19 15:32:41.897,594abd98215cbd000146debc,2,27,35,70,34,54,female,609.0,,"
  <table>
  <tr height=300>
    <td width=300 height=300><img src=""static/images/cards/back_of_black_moons.svg"" width=""175px"" height=""250px""></img></td>
    <td width=300 height=300><img src=""static/images/cards/back_of_black_moons.svg"" width=""175px"" height=""250px""></img></td>
  </tr>
  <tr height=200>
    <td width=300><img src=""static/images/keys/z.svg"" width=""35%"" height=""75%""></img></td>
    <td width=300><img src=""static/images/keys/m.svg"" width=""35%"" height=""75%""></img></td>
  </tr>
</table>
  ",90.0,1.0,,,,,,,,,,,,,,,,,,,,,,,,,,
126,0,,html-keyboard-response,126,521208,0.0-4.20-2.20,95vnnqgkx4n,2022-09-19 15:32:41.897,594abd98215cbd000146debc,2,27,35,70,34,54,female,,,"
  <table>
  <tr height=300>
    <td width=300 height=300><img src=""static/images/cards/8_of_black_moons.svg"" width=""175px"" height=""250px""></img></td>
    <td width=300 height=300><img src=""static/images/cards/back_of_black_moons.svg"" width=""175px"" height=""250px""></img></td>
  </tr>
  <tr height=200>
    <td width=300><img src=""static/images/keys/z.svg"" width=""35%"" height=""75%""></img></td>
    <td width=300><img src=""static/images/keys/m.svg"" width=""35%"" height=""75%""></img></td>
  </tr>
</table>
  ",,,,,,,,,,,,,,,,,,,,,,,,,,,,
127,0,,html-keyboard-response,127,522728,0.0-4.20-3.20,95vnnqgkx4n,2022-09-19 15:32:41.897,594abd98215cbd000146debc,2,27,35,70,34,54,female,,,"<p style=""font-size:50px"">You Lose!
No points this round.</p>",,,,,,,,,,,,,,,,,,,,,,,,,,,,
128,0,,html-keyboard-response,128,523269,0.0-4.20-4.20,95vnnqgkx4n,2022-09-19 15:32:41.897,594abd98215cbd000146debc,2,27,35,70,34,54,female,,,,,,1.0,learning,20.0,C,,black,,moons,,,,C,black,moons,,1.0,0.0,NA,left,609.0,8.0,1.0,0.0,,,
129,0,,html-keyboard-response,129,524778,0.0-4.21-0.21,95vnnqgkx4n,2022-09-19 15:32:41.897,594abd98215cbd000146debc,2,27,35,70,34,54,female,,,"<img src=""static/images/cards/stack_of_red_moons.svg"" width=""175px"" height=""250px""></img>",,,,,,,,,,,,,,,,,,,,,,,,,,,,
130,0,,html-keyboard-response,130,525853,0.0-4.21-1.21,95vnnqgkx4n,2022-09-19 15:32:41.897,594abd98215cbd000146debc,2,27,35,70,34,54,female,553.0,,"
  <table>
  <tr height=300>
    <td width=300 height=300><img src=""static/images/cards/back_of_red_moons.svg"" width=""175px"" height=""250px""></img></td>
    <td width=300 height=300><img src=""static/images/cards/back_of_red_moons.svg"" width=""175px"" height=""250px""></img></td>
  </tr>
  <tr height=200>
    <td width=300></td>
    <td width=300><img src=""static/images/keys/m.svg"" width=""35%"" height=""75%""></img></td>
  </tr>
</table>
  ",77.0,1.0,,,,,,,,,,,,,,,,,,,,,,,,,,
131,0,,html-keyboard-response,131,527354,0.0-4.21-2.21,95vnnqgkx4n,2022-09-19 15:32:41.897,594abd98215cbd000146debc,2,27,35,70,34,54,female,,,"
  <table>
  <tr height=300>
    <td width=300 height=300><img src=""static/images/cards/back_of_red_moons.svg"" width=""175px"" height=""250px""></img></td>
    <td width=300 height=300><img src=""static/images/cards/7_of_red_moons.svg"" width=""175px"" height=""250px""></img></td>
  </tr>
  <tr height=200>
    <td width=300></td>
    <td width=300><img src=""static/images/keys/m.svg"" width=""35%"" height=""75%""></img></td>
  </tr>
</table>
  ",,,,,,,,,,,,,,,,,,,,,,,,,,,,
132,0,,html-keyboard-response,132,528859,0.0-4.21-3.21,95vnnqgkx4n,2022-09-19 15:32:41.897,594abd98215cbd000146debc,2,27,35,70,34,54,female,,,"<p style=""font-size:50px"">You win!
+10 points this round!</p>",,,,,,,,,,,,,,,,,,,,,,,,,,,,
133,0,,html-keyboard-response,133,529398,0.0-4.21-4.21,95vnnqgkx4n,2022-09-19 15:32:41.897,594abd98215cbd000146debc,2,27,35,70,34,54,female,,,,,,1.0,learning,21.0,D,,red,,moons,,,,D,red,moons,,0.0,0.0,0,right,553.0,7.0,1.0,1.0,,,
134,0,,html-keyboard-response,134,530919,0.0-4.22-0.22,95vnnqgkx4n,2022-09-19 15:32:41.897,594abd98215cbd000146debc,2,27,35,70,34,54,female,,,"<img src=""static/images/cards/stack_of_red_bolts.svg"" width=""175px"" height=""250px""></img>",,,,,,,,,,,,,,,,,,,,,,,,,,,,
135,0,,html-keyboard-response,135,532125,0.0-4.22-1.22,95vnnqgkx4n,2022-09-19 15:32:41.897,594abd98215cbd000146debc,2,27,35,70,34,54,female,686.0,,"
  <table>
  <tr height=300>
    <td width=300 height=300><img src=""static/images/cards/back_of_red_bolts.svg"" width=""175px"" height=""250px""></img></td>
    <td width=300 height=300><img src=""static/images/cards/back_of_red_bolts.svg"" width=""175px"" height=""250px""></img></td>
  </tr>
  <tr height=200>
    <td width=300><img src=""static/images/keys/z.svg"" width=""35%"" height=""75%""></img></td>
    <td width=300><img src=""static/images/keys/m.svg"" width=""35%"" height=""75%""></img></td>
  </tr>
</table>
  ",77.0,1.0,,,,,,,,,,,,,,,,,,,,,,,,,,
136,0,,html-keyboard-response,136,533638,0.0-4.22-2.22,95vnnqgkx4n,2022-09-19 15:32:41.897,594abd98215cbd000146debc,2,27,35,70,34,54,female,,,"
  <table>
  <tr height=300>
    <td width=300 height=300><img src=""static/images/cards/back_of_red_bolts.svg"" width=""175px"" height=""250px""></img></td>
    <td width=300 height=300><img src=""static/images/cards/2_of_red_bolts.svg"" width=""175px"" height=""250px""></img></td>
  </tr>
  <tr height=200>
    <td width=300><img src=""static/images/keys/z.svg"" width=""35%"" height=""75%""></img></td>
    <td width=300><img src=""static/images/keys/m.svg"" width=""35%"" height=""75%""></img></td>
  </tr>
</table>
  ",,,,,,,,,,,,,,,,,,,,,,,,,,,,
137,0,,html-keyboard-response,137,535178,0.0-4.22-3.22,95vnnqgkx4n,2022-09-19 15:32:41.897,594abd98215cbd000146debc,2,27,35,70,34,54,female,,,"<p style=""font-size:50px"">You win!
+10 points this round!</p>",,,,,,,,,,,,,,,,,,,,,,,,,,,,
138,0,,html-keyboard-response,138,535698,0.0-4.22-4.22,95vnnqgkx4n,2022-09-19 15:32:41.897,594abd98215cbd000146debc,2,27,35,70,34,54,female,,,,,,1.0,learning,22.0,Xc,,red,,bolts,,,,Xc,red,bolts,,1.0,0.0,NA,right,686.0,2.0,0.0,1.0,,,
139,0,,html-keyboard-response,139,537219,0.0-4.23-0.23,95vnnqgkx4n,2022-09-19 15:32:41.897,594abd98215cbd000146debc,2,27,35,70,34,54,female,,,"<img src=""static/images/cards/stack_of_black_bolts.svg"" width=""175px"" height=""250px""></img>",,,,,,,,,,,,,,,,,,,,,,,,,,,,
140,0,,html-keyboard-response,140,538450,0.0-4.23-1.23,95vnnqgkx4n,2022-09-19 15:32:41.897,594abd98215cbd000146debc,2,27,35,70,34,54,female,711.0,,"
  <table>
  <tr height=300>
    <td width=300 height=300><img src=""static/images/cards/back_of_black_bolts.svg"" width=""175px"" height=""250px""></img></td>
    <td width=300 height=300><img src=""static/images/cards/back_of_black_bolts.svg"" width=""175px"" height=""250px""></img></td>
  </tr>
  <tr height=200>
    <td width=300></td>
    <td width=300><img src=""static/images/keys/m.svg"" width=""35%"" height=""75%""></img></td>
  </tr>
</table>
  ",77.0,1.0,,,,,,,,,,,,,,,,,,,,,,,,,,
141,0,,html-keyboard-response,141,539958,0.0-4.23-2.23,95vnnqgkx4n,2022-09-19 15:32:41.897,594abd98215cbd000146debc,2,27,35,70,34,54,female,,,"
  <table>
  <tr height=300>
    <td width=300 height=300><img src=""static/images/cards/back_of_black_bolts.svg"" width=""175px"" height=""250px""></img></td>
    <td width=300 height=300><img src=""static/images/cards/1_of_black_bolts.svg"" width=""175px"" height=""250px""></img></td>
  </tr>
  <tr height=200>
    <td width=300></td>
    <td width=300><img src=""static/images/keys/m.svg"" width=""35%"" height=""75%""></img></td>
  </tr>
</table>
  ",,,,,,,,,,,,,,,,,,,,,,,,,,,,
142,0,,html-keyboard-response,142,541479,0.0-4.23-3.23,95vnnqgkx4n,2022-09-19 15:32:41.897,594abd98215cbd000146debc,2,27,35,70,34,54,female,,,"<p style=""font-size:50px"">You win!
+10 points this round!</p>",,,,,,,,,,,,,,,,,,,,,,,,,,,,
143,0,,html-keyboard-response,143,542019,0.0-4.23-4.23,95vnnqgkx4n,2022-09-19 15:32:41.897,594abd98215cbd000146debc,2,27,35,70,34,54,female,,,,,,1.0,learning,23.0,Xnc,,black,,bolts,,,,Xnc,black,bolts,,0.0,0.0,0,right,711.0,1.0,0.0,1.0,,,
144,0,,call-function,144,542022,0.0-5.0,95vnnqgkx4n,2022-09-19 15:32:41.897,594abd98215cbd000146debc,2,27,35,70,34,54,female,,,,,,,,,,,,,,,,,,,,,,,,,,,,,,,
145,0,,image-keyboard-response,145,551910,0.0-6.0-0.0,95vnnqgkx4n,2022-09-19 15:32:41.897,594abd98215cbd000146debc,2,27,35,70,34,54,female,9888.0,,static/images/instructions_CB_2/Slide20.png,39.0,,,,,,,,,,,,,,,,,,,,,,,,,,,
146,0,,image-keyboard-response,146,571503,0.0-6.1-0.1,95vnnqgkx4n,2022-09-19 15:32:41.897,594abd98215cbd000146debc,2,27,35,70,34,54,female,19592.0,,static/images/instructions_CB_2/Slide21.png,39.0,,,,,,,,,,,,,,,,,,,,,,,,,,,
147,0,,image-keyboard-response,147,581508,0.0-6.2-0.2,95vnnqgkx4n,2022-09-19 15:32:41.897,594abd98215cbd000146debc,2,27,35,70,34,54,female,10004.0,,static/images/instructions_CB_2/Slide22.png,39.0,,,,,,,,,,,,,,,,,,,,,,,,,,,
148,0,,image-keyboard-response,148,585105,0.0-6.3-0.3,95vnnqgkx4n,2022-09-19 15:32:41.897,594abd98215cbd000146debc,2,27,35,70,34,54,female,3595.0,,static/images/instructions_CB_2/Slide23.png,39.0,,,,,,,,,,,,,,,,,,,,,,,,,,,
149,0,,image-keyboard-response,149,590777,0.0-6.4-0.4,95vnnqgkx4n,2022-09-19 15:32:41.897,594abd98215cbd000146debc,2,27,35,70,34,54,female,5672.0,,static/images/instructions_CB_2/Slide24.png,39.0,,,,,,,,,,,,,,,,,,,,,,,,,,,
150,0,,html-keyboard-response,150,592950,0.0-7.0-0.0,95vnnqgkx4n,2022-09-19 15:32:41.897,594abd98215cbd000146debc,2,27,35,70,34,54,female,2170.0,,"
  <table>
  <tr height=300>
    <td width=300 height=300><img src=""static/images/cards/stack_of_red_moons.svg"" width=""175px"" height=""250px""></img></td>
    <td width=300 height=300><img src=""static/images/cards/stack_of_black_moons.svg"" width=""175px"" height=""250px""></img></td>
  </tr>
  <tr height=200>
    <td width=300><img src=""static/images/keys/w.svg"" width=""35%"" height=""75%""></img></td>
    <td width=300><img src=""static/images/keys/o.svg"" width=""35%"" height=""75%""></img></td>
  </tr>
</table>
  ",79.0,1.0,,,,,,,,,,,,,,,,,,,,,,,,,,
151,0,,html-keyboard-response,151,594465,0.0-7.0-1.0,95vnnqgkx4n,2022-09-19 15:32:41.897,594abd98215cbd000146debc,2,27,35,70,34,54,female,995.0,,"
  <table>
  <tr height=300>
    <td width=300 height=300><img src=""static/images/cards/back_of_black_moons.svg"" width=""175px"" height=""250px""></img></td>
    <td width=300 height=300><img src=""static/images/cards/back_of_black_moons.svg"" width=""175px"" height=""250px""></img></td>
  </tr>
  <tr height=200>
    <td width=300><img src=""static/images/keys/z.svg"" width=""35%"" height=""75%""></img></td>
    <td width=300><img src=""static/images/keys/m.svg"" width=""35%"" height=""75%""></img></td>
  </tr>
</table>
  ",77.0,1.0,,,,,,,,,,,,,,,,,,,,,,,,,,
152,0,,html-keyboard-response,152,595978,0.0-7.0-2.0,95vnnqgkx4n,2022-09-19 15:32:41.897,594abd98215cbd000146debc,2,27,35,70,34,54,female,,,"
  <table>
  <tr height=300>
    <td width=300 height=300><img src=""static/images/cards/back_of_black_moons.svg"" width=""175px"" height=""250px""></img></td>
    <td width=300 height=300><img src=""static/images/cards/6_of_black_moons.svg"" width=""175px"" height=""250px""></img></td>
  </tr>
  <tr height=200>
    <td width=300><img src=""static/images/keys/z.svg"" width=""35%"" height=""75%""></img></td>
    <td width=300><img src=""static/images/keys/m.svg"" width=""35%"" height=""75%""></img></td>
  </tr>
</table>
  ",,,,,,,,,,,,,,,,,,,,,,,,,,,,
153,0,,html-keyboard-response,153,597498,0.0-7.0-3.0,95vnnqgkx4n,2022-09-19 15:32:41.897,594abd98215cbd000146debc,2,27,35,70,34,54,female,,,"<p style=""font-size:50px"">You win!
+10 points this round!</p>",,,,,,,,,,,,,,,,,,,,,,,,,,,,
154,0,,html-keyboard-response,154,598038,0.0-7.0-4.0,95vnnqgkx4n,2022-09-19 15:32:41.897,594abd98215cbd000146debc,2,27,35,70,34,54,female,,,,,,1.0,choice,0.0,C,D,red,black,moons,moons,D,C,C,black,moons,2170.0,1.0,0.0,NA,right,995.0,6.0,1.0,1.0,,,
155,0,,html-keyboard-response,155,601280,0.0-7.1-0.1,95vnnqgkx4n,2022-09-19 15:32:41.897,594abd98215cbd000146debc,2,27,35,70,34,54,female,3241.0,,"
  <table>
  <tr height=300>
    <td width=300 height=300><img src=""static/images/cards/stack_of_black_moons.svg"" width=""175px"" height=""250px""></img></td>
    <td width=300 height=300><img src=""static/images/cards/stack_of_black_stars.svg"" width=""175px"" height=""250px""></img></td>
  </tr>
  <tr height=200>
    <td width=300><img src=""static/images/keys/w.svg"" width=""35%"" height=""75%""></img></td>
    <td width=300><img src=""static/images/keys/o.svg"" width=""35%"" height=""75%""></img></td>
  </tr>
</table>
  ",87.0,1.0,,,,,,,,,,,,,,,,,,,,,,,,,,
156,0,,html-keyboard-response,156,603069,0.0-7.1-1.1,95vnnqgkx4n,2022-09-19 15:32:41.897,594abd98215cbd000146debc,2,27,35,70,34,54,female,1270.0,,"
  <table>
  <tr height=300>
    <td width=300 height=300><img src=""static/images/cards/back_of_black_moons.svg"" width=""175px"" height=""250px""></img></td>
    <td width=300 height=300><img src=""static/images/cards/back_of_black_moons.svg"" width=""175px"" height=""250px""></img></td>
  </tr>
  <tr height=200>
    <td width=300><img src=""static/images/keys/z.svg"" width=""35%"" height=""75%""></img></td>
    <td width=300><img src=""static/images/keys/m.svg"" width=""35%"" height=""75%""></img></td>
  </tr>
</table>
  ",90.0,1.0,,,,,,,,,,,,,,,,,,,,,,,,,,
157,0,,html-keyboard-response,157,604588,0.0-7.1-2.1,95vnnqgkx4n,2022-09-19 15:32:41.897,594abd98215cbd000146debc,2,27,35,70,34,54,female,,,"
  <table>
  <tr height=300>
    <td width=300 height=300><img src=""static/images/cards/6_of_black_moons.svg"" width=""175px"" height=""250px""></img></td>
    <td width=300 height=300><img src=""static/images/cards/back_of_black_moons.svg"" width=""175px"" height=""250px""></img></td>
  </tr>
  <tr height=200>
    <td width=300><img src=""static/images/keys/z.svg"" width=""35%"" height=""75%""></img></td>
    <td width=300><img src=""static/images/keys/m.svg"" width=""35%"" height=""75%""></img></td>
  </tr>
</table>
  ",,,,,,,,,,,,,,,,,,,,,,,,,,,,
158,0,,html-keyboard-response,158,606128,0.0-7.1-3.1,95vnnqgkx4n,2022-09-19 15:32:41.897,594abd98215cbd000146debc,2,27,35,70,34,54,female,,,"<p style=""font-size:50px"">You Lose!
No points this round.</p>",,,,,,,,,,,,,,,,,,,,,,,,,,,,
159,0,,html-keyboard-response,159,606669,0.0-7.1-4.1,95vnnqgkx4n,2022-09-19 15:32:41.897,594abd98215cbd000146debc,2,27,35,70,34,54,female,,,,,,1.0,choice,1.0,A,C,black,black,moons,stars,C,A,C,black,moons,3241.0,1.0,0.0,NA,left,1270.0,6.0,1.0,0.0,,,
160,0,,html-keyboard-response,160,609478,0.0-7.2-0.2,95vnnqgkx4n,2022-09-19 15:32:41.897,594abd98215cbd000146debc,2,27,35,70,34,54,female,2808.0,,"
  <table>
  <tr height=300>
    <td width=300 height=300><img src=""static/images/cards/stack_of_black_moons.svg"" width=""175px"" height=""250px""></img></td>
    <td width=300 height=300><img src=""static/images/cards/stack_of_red_stars.svg"" width=""175px"" height=""250px""></img></td>
  </tr>
  <tr height=200>
    <td width=300><img src=""static/images/keys/w.svg"" width=""35%"" height=""75%""></img></td>
    <td width=300><img src=""static/images/keys/o.svg"" width=""35%"" height=""75%""></img></td>
  </tr>
</table>
  ",79.0,1.0,,,,,,,,,,,,,,,,,,,,,,,,,,
161,0,,html-keyboard-response,161,610860,0.0-7.2-1.2,95vnnqgkx4n,2022-09-19 15:32:41.897,594abd98215cbd000146debc,2,27,35,70,34,54,female,870.0,,"
  <table>
  <tr height=300>
    <td width=300 height=300><img src=""static/images/cards/back_of_red_stars.svg"" width=""175px"" height=""250px""></img></td>
    <td width=300 height=300><img src=""static/images/cards/back_of_red_stars.svg"" width=""175px"" height=""250px""></img></td>
  </tr>
  <tr height=200>
    <td width=300></td>
    <td width=300><img src=""static/images/keys/m.svg"" width=""35%"" height=""75%""></img></td>
  </tr>
</table>
  ",77.0,1.0,,,,,,,,,,,,,,,,,,,,,,,,,,
162,0,,html-keyboard-response,162,612368,0.0-7.2-2.2,95vnnqgkx4n,2022-09-19 15:32:41.897,594abd98215cbd000146debc,2,27,35,70,34,54,female,,,"
  <table>
  <tr height=300>
    <td width=300 height=300><img src=""static/images/cards/back_of_red_stars.svg"" width=""175px"" height=""250px""></img></td>
    <td width=300 height=300><img src=""static/images/cards/8_of_red_stars.svg"" width=""175px"" height=""250px""></img></td>
  </tr>
  <tr height=200>
    <td width=300></td>
    <td width=300><img src=""static/images/keys/m.svg"" width=""35%"" height=""75%""></img></td>
  </tr>
</table>
  ",,,,,,,,,,,,,,,,,,,,,,,,,,,,
163,0,,html-keyboard-response,163,613869,0.0-7.2-3.2,95vnnqgkx4n,2022-09-19 15:32:41.897,594abd98215cbd000146debc,2,27,35,70,34,54,female,,,"<p style=""font-size:50px"">You win!
+10 points this round!</p>",,,,,,,,,,,,,,,,,,,,,,,,,,,,
164,0,,html-keyboard-response,164,614409,0.0-7.2-4.2,95vnnqgkx4n,2022-09-19 15:32:41.897,594abd98215cbd000146debc,2,27,35,70,34,54,female,,,,,,1.0,choice,2.0,B,C,black,red,moons,stars,C,B,B,red,stars,2808.0,0.0,1.0,0,right,870.0,8.0,1.0,1.0,,,
165,0,,html-keyboard-response,165,615770,0.0-7.3-0.3,95vnnqgkx4n,2022-09-19 15:32:41.897,594abd98215cbd000146debc,2,27,35,70,34,54,female,1358.0,,"
  <table>
  <tr height=300>
    <td width=300 height=300><img src=""static/images/cards/stack_of_red_bolts.svg"" width=""175px"" height=""250px""></img></td>
    <td width=300 height=300><img src=""static/images/cards/stack_of_red_moons.svg"" width=""175px"" height=""250px""></img></td>
  </tr>
  <tr height=200>
    <td width=300><img src=""static/images/keys/w.svg"" width=""35%"" height=""75%""></img></td>
    <td width=300><img src=""static/images/keys/o.svg"" width=""35%"" height=""75%""></img></td>
  </tr>
</table>
  ",87.0,1.0,,,,,,,,,,,,,,,,,,,,,,,,,,
166,0,,html-keyboard-response,166,617166,0.0-7.3-1.3,95vnnqgkx4n,2022-09-19 15:32:41.897,594abd98215cbd000146debc,2,27,35,70,34,54,female,876.0,,"
  <table>
  <tr height=300>
    <td width=300 height=300><img src=""static/images/cards/back_of_red_bolts.svg"" width=""175px"" height=""250px""></img></td>
    <td width=300 height=300><img src=""static/images/cards/back_of_red_bolts.svg"" width=""175px"" height=""250px""></img></td>
  </tr>
  <tr height=200>
    <td width=300><img src=""static/images/keys/z.svg"" width=""35%"" height=""75%""></img></td>
    <td width=300><img src=""static/images/keys/m.svg"" width=""35%"" height=""75%""></img></td>
  </tr>
</table>
  ",90.0,1.0,,,,,,,,,,,,,,,,,,,,,,,,,,
167,0,,html-keyboard-response,167,618668,0.0-7.3-2.3,95vnnqgkx4n,2022-09-19 15:32:41.897,594abd98215cbd000146debc,2,27,35,70,34,54,female,,,"
  <table>
  <tr height=300>
    <td width=300 height=300><img src=""static/images/cards/6_of_red_bolts.svg"" width=""175px"" height=""250px""></img></td>
    <td width=300 height=300><img src=""static/images/cards/back_of_red_bolts.svg"" width=""175px"" height=""250px""></img></td>
  </tr>
  <tr height=200>
    <td width=300><img src=""static/images/keys/z.svg"" width=""35%"" height=""75%""></img></td>
    <td width=300><img src=""static/images/keys/m.svg"" width=""35%"" height=""75%""></img></td>
  </tr>
</table>
  ",,,,,,,,,,,,,,,,,,,,,,,,,,,,
168,0,,html-keyboard-response,168,620189,0.0-7.3-3.3,95vnnqgkx4n,2022-09-19 15:32:41.897,594abd98215cbd000146debc,2,27,35,70,34,54,female,,,"<p style=""font-size:50px"">You win!
+10 points this round!</p>",,,,,,,,,,,,,,,,,,,,,,,,,,,,
169,0,,html-keyboard-response,169,620728,0.0-7.3-4.3,95vnnqgkx4n,2022-09-19 15:32:41.897,594abd98215cbd000146debc,2,27,35,70,34,54,female,,,,,,1.0,choice,3.0,D,Xc,red,red,bolts,moons,Xc,D,Xc,red,bolts,1358.0,1.0,0.0,NA,left,876.0,6.0,1.0,1.0,,,
170,0,,html-keyboard-response,170,622028,0.0-7.4-0.4,95vnnqgkx4n,2022-09-19 15:32:41.897,594abd98215cbd000146debc,2,27,35,70,34,54,female,1299.0,,"
  <table>
  <tr height=300>
    <td width=300 height=300><img src=""static/images/cards/stack_of_red_stars.svg"" width=""175px"" height=""250px""></img></td>
    <td width=300 height=300><img src=""static/images/cards/stack_of_red_moons.svg"" width=""175px"" height=""250px""></img></td>
  </tr>
  <tr height=200>
    <td width=300><img src=""static/images/keys/w.svg"" width=""35%"" height=""75%""></img></td>
    <td width=300><img src=""static/images/keys/o.svg"" width=""35%"" height=""75%""></img></td>
  </tr>
</table>
  ",87.0,1.0,,,,,,,,,,,,,,,,,,,,,,,,,,
171,0,,html-keyboard-response,171,624245,0.0-7.4-1.4,95vnnqgkx4n,2022-09-19 15:32:41.897,594abd98215cbd000146debc,2,27,35,70,34,54,female,1716.0,,"
  <table>
  <tr height=300>
    <td width=300 height=300><img src=""static/images/cards/back_of_red_stars.svg"" width=""175px"" height=""250px""></img></td>
    <td width=300 height=300><img src=""static/images/cards/back_of_red_stars.svg"" width=""175px"" height=""250px""></img></td>
  </tr>
  <tr height=200>
    <td width=300><img src=""static/images/keys/z.svg"" width=""35%"" height=""75%""></img></td>
    <td width=300></td>
  </tr>
</table>
  ",90.0,1.0,,,,,,,,,,,,,,,,,,,,,,,,,,
172,0,,html-keyboard-response,172,625748,0.0-7.4-2.4,95vnnqgkx4n,2022-09-19 15:32:41.897,594abd98215cbd000146debc,2,27,35,70,34,54,female,,,"
  <table>
  <tr height=300>
    <td width=300 height=300><img src=""static/images/cards/2_of_red_stars.svg"" width=""175px"" height=""250px""></img></td>
    <td width=300 height=300><img src=""static/images/cards/back_of_red_stars.svg"" width=""175px"" height=""250px""></img></td>
  </tr>
  <tr height=200>
    <td width=300><img src=""static/images/keys/z.svg"" width=""35%"" height=""75%""></img></td>
    <td width=300></td>
  </tr>
</table>
  ",,,,,,,,,,,,,,,,,,,,,,,,,,,,
173,0,,html-keyboard-response,173,627258,0.0-7.4-3.4,95vnnqgkx4n,2022-09-19 15:32:41.897,594abd98215cbd000146debc,2,27,35,70,34,54,female,,,"<p style=""font-size:50px"">You Lose!
No points this round.</p>",,,,,,,,,,,,,,,,,,,,,,,,,,,,
174,0,,html-keyboard-response,174,627779,0.0-7.4-4.4,95vnnqgkx4n,2022-09-19 15:32:41.897,594abd98215cbd000146debc,2,27,35,70,34,54,female,,,,,,1.0,choice,4.0,B,D,red,red,stars,moons,B,D,B,red,stars,1299.0,0.0,1.0,1,left,1716.0,2.0,0.0,0.0,,,
175,0,,html-keyboard-response,175,629756,0.0-7.5-0.5,95vnnqgkx4n,2022-09-19 15:32:41.897,594abd98215cbd000146debc,2,27,35,70,34,54,female,1977.0,,"
  <table>
  <tr height=300>
    <td width=300 height=300><img src=""static/images/cards/stack_of_red_moons.svg"" width=""175px"" height=""250px""></img></td>
    <td width=300 height=300><img src=""static/images/cards/stack_of_black_stars.svg"" width=""175px"" height=""250px""></img></td>
  </tr>
  <tr height=200>
    <td width=300><img src=""static/images/keys/w.svg"" width=""35%"" height=""75%""></img></td>
    <td width=300><img src=""static/images/keys/o.svg"" width=""35%"" height=""75%""></img></td>
  </tr>
</table>
  ",79.0,1.0,,,,,,,,,,,,,,,,,,,,,,,,,,
176,0,,html-keyboard-response,176,631965,0.0-7.5-1.5,95vnnqgkx4n,2022-09-19 15:32:41.897,594abd98215cbd000146debc,2,27,35,70,34,54,female,1705.0,,"
  <table>
  <tr height=300>
    <td width=300 height=300><img src=""static/images/cards/back_of_black_stars.svg"" width=""175px"" height=""250px""></img></td>
    <td width=300 height=300><img src=""static/images/cards/back_of_black_stars.svg"" width=""175px"" height=""250px""></img></td>
  </tr>
  <tr height=200>
    <td width=300><img src=""static/images/keys/z.svg"" width=""35%"" height=""75%""></img></td>
    <td width=300><img src=""static/images/keys/m.svg"" width=""35%"" height=""75%""></img></td>
  </tr>
</table>
  ",90.0,1.0,,,,,,,,,,,,,,,,,,,,,,,,,,
177,0,,html-keyboard-response,177,633488,0.0-7.5-2.5,95vnnqgkx4n,2022-09-19 15:32:41.897,594abd98215cbd000146debc,2,27,35,70,34,54,female,,,"
  <table>
  <tr height=300>
    <td width=300 height=300><img src=""static/images/cards/2_of_black_stars.svg"" width=""175px"" height=""250px""></img></td>
    <td width=300 height=300><img src=""static/images/cards/back_of_black_stars.svg"" width=""175px"" height=""250px""></img></td>
  </tr>
  <tr height=200>
    <td width=300><img src=""static/images/keys/z.svg"" width=""35%"" height=""75%""></img></td>
    <td width=300><img src=""static/images/keys/m.svg"" width=""35%"" height=""75%""></img></td>
  </tr>
</table>
  ",,,,,,,,,,,,,,,,,,,,,,,,,,,,
178,0,,html-keyboard-response,178,635008,0.0-7.5-3.5,95vnnqgkx4n,2022-09-19 15:32:41.897,594abd98215cbd000146debc,2,27,35,70,34,54,female,,,"<p style=""font-size:50px"">You Lose!
No points this round.</p>",,,,,,,,,,,,,,,,,,,,,,,,,,,,
179,0,,html-keyboard-response,179,635528,0.0-7.5-4.5,95vnnqgkx4n,2022-09-19 15:32:41.897,594abd98215cbd000146debc,2,27,35,70,34,54,female,,,,,,1.0,choice,5.0,A,D,red,black,moons,stars,D,A,A,black,stars,1977.0,1.0,1.0,NA,left,1705.0,2.0,0.0,0.0,,,
180,0,,html-keyboard-response,180,637392,0.0-7.6-0.6,95vnnqgkx4n,2022-09-19 15:32:41.897,594abd98215cbd000146debc,2,27,35,70,34,54,female,1862.0,,"
  <table>
  <tr height=300>
    <td width=300 height=300><img src=""static/images/cards/stack_of_red_moons.svg"" width=""175px"" height=""250px""></img></td>
    <td width=300 height=300><img src=""static/images/cards/stack_of_black_moons.svg"" width=""175px"" height=""250px""></img></td>
  </tr>
  <tr height=200>
    <td width=300><img src=""static/images/keys/w.svg"" width=""35%"" height=""75%""></img></td>
    <td width=300><img src=""static/images/keys/o.svg"" width=""35%"" height=""75%""></img></td>
  </tr>
</table>
  ",79.0,1.0,,,,,,,,,,,,,,,,,,,,,,,,,,
181,0,,html-keyboard-response,181,639073,0.0-7.6-1.6,95vnnqgkx4n,2022-09-19 15:32:41.897,594abd98215cbd000146debc,2,27,35,70,34,54,female,1175.0,,"
  <table>
  <tr height=300>
    <td width=300 height=300><img src=""static/images/cards/back_of_black_moons.svg"" width=""175px"" height=""250px""></img></td>
    <td width=300 height=300><img src=""static/images/cards/back_of_black_moons.svg"" width=""175px"" height=""250px""></img></td>
  </tr>
  <tr height=200>
    <td width=300><img src=""static/images/keys/z.svg"" width=""35%"" height=""75%""></img></td>
    <td width=300><img src=""static/images/keys/m.svg"" width=""35%"" height=""75%""></img></td>
  </tr>
</table>
  ",77.0,1.0,,,,,,,,,,,,,,,,,,,,,,,,,,
182,0,,html-keyboard-response,182,640587,0.0-7.6-2.6,95vnnqgkx4n,2022-09-19 15:32:41.897,594abd98215cbd000146debc,2,27,35,70,34,54,female,,,"
  <table>
  <tr height=300>
    <td width=300 height=300><img src=""static/images/cards/back_of_black_moons.svg"" width=""175px"" height=""250px""></img></td>
    <td width=300 height=300><img src=""static/images/cards/6_of_black_moons.svg"" width=""175px"" height=""250px""></img></td>
  </tr>
  <tr height=200>
    <td width=300><img src=""static/images/keys/z.svg"" width=""35%"" height=""75%""></img></td>
    <td width=300><img src=""static/images/keys/m.svg"" width=""35%"" height=""75%""></img></td>
  </tr>
</table>
  ",,,,,,,,,,,,,,,,,,,,,,,,,,,,
183,0,,html-keyboard-response,183,642108,0.0-7.6-3.6,95vnnqgkx4n,2022-09-19 15:32:41.897,594abd98215cbd000146debc,2,27,35,70,34,54,female,,,"<p style=""font-size:50px"">You Lose!
No points this round.</p>",,,,,,,,,,,,,,,,,,,,,,,,,,,,
184,0,,html-keyboard-response,184,642638,0.0-7.6-4.6,95vnnqgkx4n,2022-09-19 15:32:41.897,594abd98215cbd000146debc,2,27,35,70,34,54,female,,,,,,1.0,choice,6.0,C,D,red,black,moons,moons,D,C,C,black,moons,1862.0,1.0,0.0,NA,right,1175.0,6.0,1.0,0.0,,,
185,0,,html-keyboard-response,185,645681,0.0-7.7-0.7,95vnnqgkx4n,2022-09-19 15:32:41.897,594abd98215cbd000146debc,2,27,35,70,34,54,female,3041.0,,"
  <table>
  <tr height=300>
    <td width=300 height=300><img src=""static/images/cards/stack_of_black_stars.svg"" width=""175px"" height=""250px""></img></td>
    <td width=300 height=300><img src=""static/images/cards/stack_of_black_moons.svg"" width=""175px"" height=""250px""></img></td>
  </tr>
  <tr height=200>
    <td width=300><img src=""static/images/keys/w.svg"" width=""35%"" height=""75%""></img></td>
    <td width=300><img src=""static/images/keys/o.svg"" width=""35%"" height=""75%""></img></td>
  </tr>
</table>
  ",79.0,1.0,,,,,,,,,,,,,,,,,,,,,,,,,,
186,0,,html-keyboard-response,186,646883,0.0-7.7-1.7,95vnnqgkx4n,2022-09-19 15:32:41.897,594abd98215cbd000146debc,2,27,35,70,34,54,female,694.0,,"
  <table>
  <tr height=300>
    <td width=300 height=300><img src=""static/images/cards/back_of_black_moons.svg"" width=""175px"" height=""250px""></img></td>
    <td width=300 height=300><img src=""static/images/cards/back_of_black_moons.svg"" width=""175px"" height=""250px""></img></td>
  </tr>
  <tr height=200>
    <td width=300><img src=""static/images/keys/z.svg"" width=""35%"" height=""75%""></img></td>
    <td width=300><img src=""static/images/keys/m.svg"" width=""35%"" height=""75%""></img></td>
  </tr>
</table>
  ",77.0,1.0,,,,,,,,,,,,,,,,,,,,,,,,,,
187,0,,html-keyboard-response,187,648388,0.0-7.7-2.7,95vnnqgkx4n,2022-09-19 15:32:41.897,594abd98215cbd000146debc,2,27,35,70,34,54,female,,,"
  <table>
  <tr height=300>
    <td width=300 height=300><img src=""static/images/cards/back_of_black_moons.svg"" width=""175px"" height=""250px""></img></td>
    <td width=300 height=300><img src=""static/images/cards/2_of_black_moons.svg"" width=""175px"" height=""250px""></img></td>
  </tr>
  <tr height=200>
    <td width=300><img src=""static/images/keys/z.svg"" width=""35%"" height=""75%""></img></td>
    <td width=300><img src=""static/images/keys/m.svg"" width=""35%"" height=""75%""></img></td>
  </tr>
</table>
  ",,,,,,,,,,,,,,,,,,,,,,,,,,,,
188,0,,html-keyboard-response,188,649929,0.0-7.7-3.7,95vnnqgkx4n,2022-09-19 15:32:41.897,594abd98215cbd000146debc,2,27,35,70,34,54,female,,,"<p style=""font-size:50px"">You win!
+10 points this round!</p>",,,,,,,,,,,,,,,,,,,,,,,,,,,,
189,0,,html-keyboard-response,189,650468,0.0-7.7-4.7,95vnnqgkx4n,2022-09-19 15:32:41.897,594abd98215cbd000146debc,2,27,35,70,34,54,female,,,,,,1.0,choice,7.0,A,C,black,black,stars,moons,A,C,C,black,moons,3041.0,1.0,0.0,NA,right,694.0,2.0,0.0,1.0,,,
190,0,,html-keyboard-response,190,651466,0.0-7.8-0.8,95vnnqgkx4n,2022-09-19 15:32:41.897,594abd98215cbd000146debc,2,27,35,70,34,54,female,997.0,,"
  <table>
  <tr height=300>
    <td width=300 height=300><img src=""static/images/cards/stack_of_red_moons.svg"" width=""175px"" height=""250px""></img></td>
    <td width=300 height=300><img src=""static/images/cards/stack_of_black_bolts.svg"" width=""175px"" height=""250px""></img></td>
  </tr>
  <tr height=200>
    <td width=300><img src=""static/images/keys/w.svg"" width=""35%"" height=""75%""></img></td>
    <td width=300><img src=""static/images/keys/o.svg"" width=""35%"" height=""75%""></img></td>
  </tr>
</table>
  ",79.0,1.0,,,,,,,,,,,,,,,,,,,,,,,,,,
191,0,,html-keyboard-response,191,652788,0.0-7.8-1.8,95vnnqgkx4n,2022-09-19 15:32:41.897,594abd98215cbd000146debc,2,27,35,70,34,54,female,819.0,,"
  <table>
  <tr height=300>
    <td width=300 height=300><img src=""static/images/cards/back_of_black_bolts.svg"" width=""175px"" height=""250px""></img></td>
    <td width=300 height=300><img src=""static/images/cards/back_of_black_bolts.svg"" width=""175px"" height=""250px""></img></td>
  </tr>
  <tr height=200>
    <td width=300><img src=""static/images/keys/z.svg"" width=""35%"" height=""75%""></img></td>
    <td width=300></td>
  </tr>
</table>
  ",90.0,1.0,,,,,,,,,,,,,,,,,,,,,,,,,,
192,0,,html-keyboard-response,192,654308,0.0-7.8-2.8,95vnnqgkx4n,2022-09-19 15:32:41.897,594abd98215cbd000146debc,2,27,35,70,34,54,female,,,"
  <table>
  <tr height=300>
    <td width=300 height=300><img src=""static/images/cards/7_of_black_bolts.svg"" width=""175px"" height=""250px""></img></td>
    <td width=300 height=300><img src=""static/images/cards/back_of_black_bolts.svg"" width=""175px"" height=""250px""></img></td>
  </tr>
  <tr height=200>
    <td width=300><img src=""static/images/keys/z.svg"" width=""35%"" height=""75%""></img></td>
    <td width=300></td>
  </tr>
</table>
  ",,,,,,,,,,,,,,,,,,,,,,,,,,,,
193,0,,html-keyboard-response,193,655838,0.0-7.8-3.8,95vnnqgkx4n,2022-09-19 15:32:41.897,594abd98215cbd000146debc,2,27,35,70,34,54,female,,,"<p style=""font-size:50px"">You win!
+10 points this round!</p>",,,,,,,,,,,,,,,,,,,,,,,,,,,,
194,0,,html-keyboard-response,194,656358,0.0-7.8-4.8,95vnnqgkx4n,2022-09-19 15:32:41.897,594abd98215cbd000146debc,2,27,35,70,34,54,female,,,,,,1.0,choice,8.0,D,Xnc,red,black,moons,bolts,D,Xnc,Xnc,black,bolts,997.0,0.0,0.0,1,left,819.0,7.0,1.0,1.0,,,
195,0,,html-keyboard-response,195,657830,0.0-7.9-0.9,95vnnqgkx4n,2022-09-19 15:32:41.897,594abd98215cbd000146debc,2,27,35,70,34,54,female,1471.0,,"
  <table>
  <tr height=300>
    <td width=300 height=300><img src=""static/images/cards/stack_of_black_moons.svg"" width=""175px"" height=""250px""></img></td>
    <td width=300 height=300><img src=""static/images/cards/stack_of_red_moons.svg"" width=""175px"" height=""250px""></img></td>
  </tr>
  <tr height=200>
    <td width=300><img src=""static/images/keys/w.svg"" width=""35%"" height=""75%""></img></td>
    <td width=300><img src=""static/images/keys/o.svg"" width=""35%"" height=""75%""></img></td>
  </tr>
</table>
  ",79.0,1.0,,,,,,,,,,,,,,,,,,,,,,,,,,
196,0,,html-keyboard-response,196,659164,0.0-7.9-1.9,95vnnqgkx4n,2022-09-19 15:32:41.897,594abd98215cbd000146debc,2,27,35,70,34,54,female,825.0,,"
  <table>
  <tr height=300>
    <td width=300 height=300><img src=""static/images/cards/back_of_red_moons.svg"" width=""175px"" height=""250px""></img></td>
    <td width=300 height=300><img src=""static/images/cards/back_of_red_moons.svg"" width=""175px"" height=""250px""></img></td>
  </tr>
  <tr height=200>
    <td width=300><img src=""static/images/keys/z.svg"" width=""35%"" height=""75%""></img></td>
    <td width=300></td>
  </tr>
</table>
  ",90.0,1.0,,,,,,,,,,,,,,,,,,,,,,,,,,
197,0,,html-keyboard-response,197,660679,0.0-7.9-2.9,95vnnqgkx4n,2022-09-19 15:32:41.897,594abd98215cbd000146debc,2,27,35,70,34,54,female,,,"
  <table>
  <tr height=300>
    <td width=300 height=300><img src=""static/images/cards/10_of_red_moons.svg"" width=""175px"" height=""250px""></img></td>
    <td width=300 height=300><img src=""static/images/cards/back_of_red_moons.svg"" width=""175px"" height=""250px""></img></td>
  </tr>
  <tr height=200>
    <td width=300><img src=""static/images/keys/z.svg"" width=""35%"" height=""75%""></img></td>
    <td width=300></td>
  </tr>
</table>
  ",,,,,,,,,,,,,,,,,,,,,,,,,,,,
198,0,,html-keyboard-response,198,662218,0.0-7.9-3.9,95vnnqgkx4n,2022-09-19 15:32:41.897,594abd98215cbd000146debc,2,27,35,70,34,54,female,,,"<p style=""font-size:50px"">You Lose!
No points this round.</p>",,,,,,,,,,,,,,,,,,,,,,,,,,,,
199,0,,html-keyboard-response,199,662758,0.0-7.9-4.9,95vnnqgkx4n,2022-09-19 15:32:41.897,594abd98215cbd000146debc,2,27,35,70,34,54,female,,,,,,1.0,choice,9.0,C,D,black,red,moons,moons,C,D,D,red,moons,1471.0,0.0,0.0,1,left,825.0,10.0,1.0,0.0,,,
200,0,,html-keyboard-response,200,664142,0.0-7.10-0.10,95vnnqgkx4n,2022-09-19 15:32:41.897,594abd98215cbd000146debc,2,27,35,70,34,54,female,1381.0,,"
  <table>
  <tr height=300>
    <td width=300 height=300><img src=""static/images/cards/stack_of_red_stars.svg"" width=""175px"" height=""250px""></img></td>
    <td width=300 height=300><img src=""static/images/cards/stack_of_black_stars.svg"" width=""175px"" height=""250px""></img></td>
  </tr>
  <tr height=200>
    <td width=300><img src=""static/images/keys/w.svg"" width=""35%"" height=""75%""></img></td>
    <td width=300><img src=""static/images/keys/o.svg"" width=""35%"" height=""75%""></img></td>
  </tr>
</table>
  ",79.0,1.0,,,,,,,,,,,,,,,,,,,,,,,,,,
201,0,,html-keyboard-response,201,665858,0.0-7.10-1.10,95vnnqgkx4n,2022-09-19 15:32:41.897,594abd98215cbd000146debc,2,27,35,70,34,54,female,1208.0,,"
  <table>
  <tr height=300>
    <td width=300 height=300><img src=""static/images/cards/back_of_black_stars.svg"" width=""175px"" height=""250px""></img></td>
    <td width=300 height=300><img src=""static/images/cards/back_of_black_stars.svg"" width=""175px"" height=""250px""></img></td>
  </tr>
  <tr height=200>
    <td width=300><img src=""static/images/keys/z.svg"" width=""35%"" height=""75%""></img></td>
    <td width=300><img src=""static/images/keys/m.svg"" width=""35%"" height=""75%""></img></td>
  </tr>
</table>
  ",90.0,1.0,,,,,,,,,,,,,,,,,,,,,,,,,,
202,0,,html-keyboard-response,202,667368,0.0-7.10-2.10,95vnnqgkx4n,2022-09-19 15:32:41.897,594abd98215cbd000146debc,2,27,35,70,34,54,female,,,"
  <table>
  <tr height=300>
    <td width=300 height=300><img src=""static/images/cards/9_of_black_stars.svg"" width=""175px"" height=""250px""></img></td>
    <td width=300 height=300><img src=""static/images/cards/back_of_black_stars.svg"" width=""175px"" height=""250px""></img></td>
  </tr>
  <tr height=200>
    <td width=300><img src=""static/images/keys/z.svg"" width=""35%"" height=""75%""></img></td>
    <td width=300><img src=""static/images/keys/m.svg"" width=""35%"" height=""75%""></img></td>
  </tr>
</table>
  ",,,,,,,,,,,,,,,,,,,,,,,,,,,,
203,0,,html-keyboard-response,203,668908,0.0-7.10-3.10,95vnnqgkx4n,2022-09-19 15:32:41.897,594abd98215cbd000146debc,2,27,35,70,34,54,female,,,"<p style=""font-size:50px"">You win!
+10 points this round!</p>",,,,,,,,,,,,,,,,,,,,,,,,,,,,
204,0,,html-keyboard-response,204,669448,0.0-7.10-4.10,95vnnqgkx4n,2022-09-19 15:32:41.897,594abd98215cbd000146debc,2,27,35,70,34,54,female,,,,,,1.0,choice,10.0,A,B,red,black,stars,stars,B,A,A,black,stars,1381.0,1.0,1.0,NA,left,1208.0,9.0,1.0,1.0,,,
205,0,,html-keyboard-response,205,671211,0.0-7.11-0.11,95vnnqgkx4n,2022-09-19 15:32:41.897,594abd98215cbd000146debc,2,27,35,70,34,54,female,1763.0,,"
  <table>
  <tr height=300>
    <td width=300 height=300><img src=""static/images/cards/stack_of_red_stars.svg"" width=""175px"" height=""250px""></img></td>
    <td width=300 height=300><img src=""static/images/cards/stack_of_red_moons.svg"" width=""175px"" height=""250px""></img></td>
  </tr>
  <tr height=200>
    <td width=300><img src=""static/images/keys/w.svg"" width=""35%"" height=""75%""></img></td>
    <td width=300><img src=""static/images/keys/o.svg"" width=""35%"" height=""75%""></img></td>
  </tr>
</table>
  ",79.0,1.0,,,,,,,,,,,,,,,,,,,,,,,,,,
206,0,,html-keyboard-response,206,672497,0.0-7.11-1.11,95vnnqgkx4n,2022-09-19 15:32:41.897,594abd98215cbd000146debc,2,27,35,70,34,54,female,768.0,,"
  <table>
  <tr height=300>
    <td width=300 height=300><img src=""static/images/cards/back_of_red_moons.svg"" width=""175px"" height=""250px""></img></td>
    <td width=300 height=300><img src=""static/images/cards/back_of_red_moons.svg"" width=""175px"" height=""250px""></img></td>
  </tr>
  <tr height=200>
    <td width=300></td>
    <td width=300><img src=""static/images/keys/m.svg"" width=""35%"" height=""75%""></img></td>
  </tr>
</table>
  ",77.0,1.0,,,,,,,,,,,,,,,,,,,,,,,,,,
207,0,,html-keyboard-response,207,673999,0.0-7.11-2.11,95vnnqgkx4n,2022-09-19 15:32:41.897,594abd98215cbd000146debc,2,27,35,70,34,54,female,,,"
  <table>
  <tr height=300>
    <td width=300 height=300><img src=""static/images/cards/back_of_red_moons.svg"" width=""175px"" height=""250px""></img></td>
    <td width=300 height=300><img src=""static/images/cards/9_of_red_moons.svg"" width=""175px"" height=""250px""></img></td>
  </tr>
  <tr height=200>
    <td width=300></td>
    <td width=300><img src=""static/images/keys/m.svg"" width=""35%"" height=""75%""></img></td>
  </tr>
</table>
  ",,,,,,,,,,,,,,,,,,,,,,,,,,,,
208,0,,html-keyboard-response,208,675539,0.0-7.11-3.11,95vnnqgkx4n,2022-09-19 15:32:41.897,594abd98215cbd000146debc,2,27,35,70,34,54,female,,,"<p style=""font-size:50px"">You win!
+10 points this round!</p>",,,,,,,,,,,,,,,,,,,,,,,,,,,,
209,0,,html-keyboard-response,209,676078,0.0-7.11-4.11,95vnnqgkx4n,2022-09-19 15:32:41.897,594abd98215cbd000146debc,2,27,35,70,34,54,female,,,,,,1.0,choice,11.0,B,D,red,red,stars,moons,B,D,D,red,moons,1763.0,0.0,0.0,0,right,768.0,9.0,1.0,1.0,,,
210,0,,html-keyboard-response,210,677490,0.0-7.12-0.12,95vnnqgkx4n,2022-09-19 15:32:41.897,594abd98215cbd000146debc,2,27,35,70,34,54,female,1411.0,,"
  <table>
  <tr height=300>
    <td width=300 height=300><img src=""static/images/cards/stack_of_red_bolts.svg"" width=""175px"" height=""250px""></img></td>
    <td width=300 height=300><img src=""static/images/cards/stack_of_black_stars.svg"" width=""175px"" height=""250px""></img></td>
  </tr>
  <tr height=200>
    <td width=300><img src=""static/images/keys/w.svg"" width=""35%"" height=""75%""></img></td>
    <td width=300><img src=""static/images/keys/o.svg"" width=""35%"" height=""75%""></img></td>
  </tr>
</table>
  ",87.0,1.0,,,,,,,,,,,,,,,,,,,,,,,,,,
211,0,,html-keyboard-response,211,678580,0.0-7.12-1.12,95vnnqgkx4n,2022-09-19 15:32:41.897,594abd98215cbd000146debc,2,27,35,70,34,54,female,583.0,,"
  <table>
  <tr height=300>
    <td width=300 height=300><img src=""static/images/cards/back_of_red_bolts.svg"" width=""175px"" height=""250px""></img></td>
    <td width=300 height=300><img src=""static/images/cards/back_of_red_bolts.svg"" width=""175px"" height=""250px""></img></td>
  </tr>
  <tr height=200>
    <td width=300><img src=""static/images/keys/z.svg"" width=""35%"" height=""75%""></img></td>
    <td width=300><img src=""static/images/keys/m.svg"" width=""35%"" height=""75%""></img></td>
  </tr>
</table>
  ",90.0,1.0,,,,,,,,,,,,,,,,,,,,,,,,,,
212,0,,html-keyboard-response,212,680098,0.0-7.12-2.12,95vnnqgkx4n,2022-09-19 15:32:41.897,594abd98215cbd000146debc,2,27,35,70,34,54,female,,,"
  <table>
  <tr height=300>
    <td width=300 height=300><img src=""static/images/cards/10_of_red_bolts.svg"" width=""175px"" height=""250px""></img></td>
    <td width=300 height=300><img src=""static/images/cards/back_of_red_bolts.svg"" width=""175px"" height=""250px""></img></td>
  </tr>
  <tr height=200>
    <td width=300><img src=""static/images/keys/z.svg"" width=""35%"" height=""75%""></img></td>
    <td width=300><img src=""static/images/keys/m.svg"" width=""35%"" height=""75%""></img></td>
  </tr>
</table>
  ",,,,,,,,,,,,,,,,,,,,,,,,,,,,
213,0,,html-keyboard-response,213,681638,0.0-7.12-3.12,95vnnqgkx4n,2022-09-19 15:32:41.897,594abd98215cbd000146debc,2,27,35,70,34,54,female,,,"<p style=""font-size:50px"">You win!
+10 points this round!</p>",,,,,,,,,,,,,,,,,,,,,,,,,,,,
214,0,,html-keyboard-response,214,682178,0.0-7.12-4.12,95vnnqgkx4n,2022-09-19 15:32:41.897,594abd98215cbd000146debc,2,27,35,70,34,54,female,,,,,,1.0,choice,12.0,A,Xc,red,black,bolts,stars,Xc,A,Xc,red,bolts,1411.0,1.0,0.0,NA,left,583.0,10.0,1.0,1.0,,,
215,0,,html-keyboard-response,215,683472,0.0-7.13-0.13,95vnnqgkx4n,2022-09-19 15:32:41.897,594abd98215cbd000146debc,2,27,35,70,34,54,female,1292.0,,"
  <table>
  <tr height=300>
    <td width=300 height=300><img src=""static/images/cards/stack_of_black_moons.svg"" width=""175px"" height=""250px""></img></td>
    <td width=300 height=300><img src=""static/images/cards/stack_of_red_stars.svg"" width=""175px"" height=""250px""></img></td>
  </tr>
  <tr height=200>
    <td width=300><img src=""static/images/keys/w.svg"" width=""35%"" height=""75%""></img></td>
    <td width=300><img src=""static/images/keys/o.svg"" width=""35%"" height=""75%""></img></td>
  </tr>
</table>
  ",87.0,1.0,,,,,,,,,,,,,,,,,,,,,,,,,,
216,0,,html-keyboard-response,216,684773,0.0-7.13-1.13,95vnnqgkx4n,2022-09-19 15:32:41.897,594abd98215cbd000146debc,2,27,35,70,34,54,female,797.0,,"
  <table>
  <tr height=300>
    <td width=300 height=300><img src=""static/images/cards/back_of_black_moons.svg"" width=""175px"" height=""250px""></img></td>
    <td width=300 height=300><img src=""static/images/cards/back_of_black_moons.svg"" width=""175px"" height=""250px""></img></td>
  </tr>
  <tr height=200>
    <td width=300><img src=""static/images/keys/z.svg"" width=""35%"" height=""75%""></img></td>
    <td width=300><img src=""static/images/keys/m.svg"" width=""35%"" height=""75%""></img></td>
  </tr>
</table>
  ",90.0,1.0,,,,,,,,,,,,,,,,,,,,,,,,,,
217,0,,html-keyboard-response,217,686284,0.0-7.13-2.13,95vnnqgkx4n,2022-09-19 15:32:41.897,594abd98215cbd000146debc,2,27,35,70,34,54,female,,,"
  <table>
  <tr height=300>
    <td width=300 height=300><img src=""static/images/cards/1_of_black_moons.svg"" width=""175px"" height=""250px""></img></td>
    <td width=300 height=300><img src=""static/images/cards/back_of_black_moons.svg"" width=""175px"" height=""250px""></img></td>
  </tr>
  <tr height=200>
    <td width=300><img src=""static/images/keys/z.svg"" width=""35%"" height=""75%""></img></td>
    <td width=300><img src=""static/images/keys/m.svg"" width=""35%"" height=""75%""></img></td>
  </tr>
</table>
  ",,,,,,,,,,,,,,,,,,,,,,,,,,,,
218,0,,html-keyboard-response,218,687788,0.0-7.13-3.13,95vnnqgkx4n,2022-09-19 15:32:41.897,594abd98215cbd000146debc,2,27,35,70,34,54,female,,,"<p style=""font-size:50px"">You win!
+10 points this round!</p>",,,,,,,,,,,,,,,,,,,,,,,,,,,,
219,0,,html-keyboard-response,219,688308,0.0-7.13-4.13,95vnnqgkx4n,2022-09-19 15:32:41.897,594abd98215cbd000146debc,2,27,35,70,34,54,female,,,,,,1.0,choice,13.0,B,C,black,red,moons,stars,C,B,C,black,moons,1292.0,1.0,0.0,NA,left,797.0,1.0,0.0,1.0,,,
220,0,,html-keyboard-response,220,689632,0.0-7.14-0.14,95vnnqgkx4n,2022-09-19 15:32:41.897,594abd98215cbd000146debc,2,27,35,70,34,54,female,1323.0,,"
  <table>
  <tr height=300>
    <td width=300 height=300><img src=""static/images/cards/stack_of_red_moons.svg"" width=""175px"" height=""250px""></img></td>
    <td width=300 height=300><img src=""static/images/cards/stack_of_black_moons.svg"" width=""175px"" height=""250px""></img></td>
  </tr>
  <tr height=200>
    <td width=300><img src=""static/images/keys/w.svg"" width=""35%"" height=""75%""></img></td>
    <td width=300><img src=""static/images/keys/o.svg"" width=""35%"" height=""75%""></img></td>
  </tr>
</table>
  ",79.0,1.0,,,,,,,,,,,,,,,,,,,,,,,,,,
221,0,,html-keyboard-response,221,690970,0.0-7.14-1.14,95vnnqgkx4n,2022-09-19 15:32:41.897,594abd98215cbd000146debc,2,27,35,70,34,54,female,820.0,,"
  <table>
  <tr height=300>
    <td width=300 height=300><img src=""static/images/cards/back_of_black_moons.svg"" width=""175px"" height=""250px""></img></td>
    <td width=300 height=300><img src=""static/images/cards/back_of_black_moons.svg"" width=""175px"" height=""250px""></img></td>
  </tr>
  <tr height=200>
    <td width=300><img src=""static/images/keys/z.svg"" width=""35%"" height=""75%""></img></td>
    <td width=300><img src=""static/images/keys/m.svg"" width=""35%"" height=""75%""></img></td>
  </tr>
</table>
  ",77.0,1.0,,,,,,,,,,,,,,,,,,,,,,,,,,
222,0,,html-keyboard-response,222,692488,0.0-7.14-2.14,95vnnqgkx4n,2022-09-19 15:32:41.897,594abd98215cbd000146debc,2,27,35,70,34,54,female,,,"
  <table>
  <tr height=300>
    <td width=300 height=300><img src=""static/images/cards/back_of_black_moons.svg"" width=""175px"" height=""250px""></img></td>
    <td width=300 height=300><img src=""static/images/cards/2_of_black_moons.svg"" width=""175px"" height=""250px""></img></td>
  </tr>
  <tr height=200>
    <td width=300><img src=""static/images/keys/z.svg"" width=""35%"" height=""75%""></img></td>
    <td width=300><img src=""static/images/keys/m.svg"" width=""35%"" height=""75%""></img></td>
  </tr>
</table>
  ",,,,,,,,,,,,,,,,,,,,,,,,,,,,
223,0,,html-keyboard-response,223,694028,0.0-7.14-3.14,95vnnqgkx4n,2022-09-19 15:32:41.897,594abd98215cbd000146debc,2,27,35,70,34,54,female,,,"<p style=""font-size:50px"">You win!
+10 points this round!</p>",,,,,,,,,,,,,,,,,,,,,,,,,,,,
224,0,,html-keyboard-response,224,694548,0.0-7.14-4.14,95vnnqgkx4n,2022-09-19 15:32:41.897,594abd98215cbd000146debc,2,27,35,70,34,54,female,,,,,,1.0,choice,14.0,C,D,red,black,moons,moons,D,C,C,black,moons,1323.0,1.0,0.0,NA,right,820.0,2.0,0.0,1.0,,,
225,0,,html-keyboard-response,225,696092,0.0-7.15-0.15,95vnnqgkx4n,2022-09-19 15:32:41.897,594abd98215cbd000146debc,2,27,35,70,34,54,female,1543.0,,"
  <table>
  <tr height=300>
    <td width=300 height=300><img src=""static/images/cards/stack_of_red_moons.svg"" width=""175px"" height=""250px""></img></td>
    <td width=300 height=300><img src=""static/images/cards/stack_of_black_moons.svg"" width=""175px"" height=""250px""></img></td>
  </tr>
  <tr height=200>
    <td width=300><img src=""static/images/keys/w.svg"" width=""35%"" height=""75%""></img></td>
    <td width=300><img src=""static/images/keys/o.svg"" width=""35%"" height=""75%""></img></td>
  </tr>
</table>
  ",87.0,1.0,,,,,,,,,,,,,,,,,,,,,,,,,,
226,0,,html-keyboard-response,226,697385,0.0-7.15-1.15,95vnnqgkx4n,2022-09-19 15:32:41.897,594abd98215cbd000146debc,2,27,35,70,34,54,female,774.0,,"
  <table>
  <tr height=300>
    <td width=300 height=300><img src=""static/images/cards/back_of_red_moons.svg"" width=""175px"" height=""250px""></img></td>
    <td width=300 height=300><img src=""static/images/cards/back_of_red_moons.svg"" width=""175px"" height=""250px""></img></td>
  </tr>
  <tr height=200>
    <td width=300><img src=""static/images/keys/z.svg"" width=""35%"" height=""75%""></img></td>
    <td width=300></td>
  </tr>
</table>
  ",90.0,1.0,,,,,,,,,,,,,,,,,,,,,,,,,,
227,0,,html-keyboard-response,227,698888,0.0-7.15-2.15,95vnnqgkx4n,2022-09-19 15:32:41.897,594abd98215cbd000146debc,2,27,35,70,34,54,female,,,"
  <table>
  <tr height=300>
    <td width=300 height=300><img src=""static/images/cards/6_of_red_moons.svg"" width=""175px"" height=""250px""></img></td>
    <td width=300 height=300><img src=""static/images/cards/back_of_red_moons.svg"" width=""175px"" height=""250px""></img></td>
  </tr>
  <tr height=200>
    <td width=300><img src=""static/images/keys/z.svg"" width=""35%"" height=""75%""></img></td>
    <td width=300></td>
  </tr>
</table>
  ",,,,,,,,,,,,,,,,,,,,,,,,,,,,
228,0,,html-keyboard-response,228,700408,0.0-7.15-3.15,95vnnqgkx4n,2022-09-19 15:32:41.897,594abd98215cbd000146debc,2,27,35,70,34,54,female,,,"<p style=""font-size:50px"">You win!
+10 points this round!</p>",,,,,,,,,,,,,,,,,,,,,,,,,,,,
229,0,,html-keyboard-response,229,700948,0.0-7.15-4.15,95vnnqgkx4n,2022-09-19 15:32:41.897,594abd98215cbd000146debc,2,27,35,70,34,54,female,,,,,,1.0,choice,15.0,C,D,red,black,moons,moons,D,C,D,red,moons,1543.0,0.0,0.0,1,left,774.0,6.0,1.0,1.0,,,
230,0,,html-keyboard-response,230,702275,0.0-7.16-0.16,95vnnqgkx4n,2022-09-19 15:32:41.897,594abd98215cbd000146debc,2,27,35,70,34,54,female,1326.0,,"
  <table>
  <tr height=300>
    <td width=300 height=300><img src=""static/images/cards/stack_of_black_stars.svg"" width=""175px"" height=""250px""></img></td>
    <td width=300 height=300><img src=""static/images/cards/stack_of_red_moons.svg"" width=""175px"" height=""250px""></img></td>
  </tr>
  <tr height=200>
    <td width=300><img src=""static/images/keys/w.svg"" width=""35%"" height=""75%""></img></td>
    <td width=300><img src=""static/images/keys/o.svg"" width=""35%"" height=""75%""></img></td>
  </tr>
</table>
  ",87.0,1.0,,,,,,,,,,,,,,,,,,,,,,,,,,
231,0,,html-keyboard-response,231,703511,0.0-7.16-1.16,95vnnqgkx4n,2022-09-19 15:32:41.897,594abd98215cbd000146debc,2,27,35,70,34,54,female,720.0,,"
  <table>
  <tr height=300>
    <td width=300 height=300><img src=""static/images/cards/back_of_black_stars.svg"" width=""175px"" height=""250px""></img></td>
    <td width=300 height=300><img src=""static/images/cards/back_of_black_stars.svg"" width=""175px"" height=""250px""></img></td>
  </tr>
  <tr height=200>
    <td width=300><img src=""static/images/keys/z.svg"" width=""35%"" height=""75%""></img></td>
    <td width=300><img src=""static/images/keys/m.svg"" width=""35%"" height=""75%""></img></td>
  </tr>
</table>
  ",77.0,1.0,,,,,,,,,,,,,,,,,,,,,,,,,,
232,0,,html-keyboard-response,232,705028,0.0-7.16-2.16,95vnnqgkx4n,2022-09-19 15:32:41.897,594abd98215cbd000146debc,2,27,35,70,34,54,female,,,"
  <table>
  <tr height=300>
    <td width=300 height=300><img src=""static/images/cards/back_of_black_stars.svg"" width=""175px"" height=""250px""></img></td>
    <td width=300 height=300><img src=""static/images/cards/1_of_black_stars.svg"" width=""175px"" height=""250px""></img></td>
  </tr>
  <tr height=200>
    <td width=300><img src=""static/images/keys/z.svg"" width=""35%"" height=""75%""></img></td>
    <td width=300><img src=""static/images/keys/m.svg"" width=""35%"" height=""75%""></img></td>
  </tr>
</table>
  ",,,,,,,,,,,,,,,,,,,,,,,,,,,,
233,0,,html-keyboard-response,233,706548,0.0-7.16-3.16,95vnnqgkx4n,2022-09-19 15:32:41.897,594abd98215cbd000146debc,2,27,35,70,34,54,female,,,"<p style=""font-size:50px"">You Lose!
No points this round.</p>",,,,,,,,,,,,,,,,,,,,,,,,,,,,
234,0,,html-keyboard-response,234,707089,0.0-7.16-4.16,95vnnqgkx4n,2022-09-19 15:32:41.897,594abd98215cbd000146debc,2,27,35,70,34,54,female,,,,,,1.0,choice,16.0,A,D,black,red,stars,moons,A,D,A,black,stars,1326.0,1.0,1.0,NA,right,720.0,1.0,0.0,0.0,,,
