,index,success,trial_type,trial_index,time_elapsed,internal_node_id,subject,date,prol_id,ctbl,sense_of_control_A,sense_of_control_B,sense_of_control_C,sense_of_control_D,age,gender,rt,url,stimulus,key_press,npress,is_data_trial,phase,trial,deck1,deck2,col1,col2,sym1,sym2,deck_l,deck_r,chosen_deck,chosen_col,chosen_sym,deck_rt,choose_choice,mutual_info,hidden_key,chosen_card,card_rt,player_num,win_card,outcome,mock_rating,response,responses
0,0,1.0,fullscreen,0,2889,0.0-0.0,guk1ocoej98,2022-09-19 16:21:47.555,59a2f6d14d25e800012fcbde,0,55,57,17,16,27,Male,,,,,,,,,,,,,,,,,,,,,,,,,,,,,,,
1,0,,external-html,1,752229,0.0-1.0,guk1ocoej98,2022-09-19 16:21:47.555,59a2f6d14d25e800012fcbde,0,55,57,17,16,27,Male,749300.5999999996,static/js/sub/consent.html,,,,,,,,,,,,,,,,,,,,,,,,,,,,,
2,0,,call-function,2,752231,0.0-2.0,guk1ocoej98,2022-09-19 16:21:47.555,59a2f6d14d25e800012fcbde,0,55,57,17,16,27,Male,,,,,,,,,,,,,,,,,,,,,,,,,,,,,,,
3,0,,image-keyboard-response,3,761885,0.0-3.0-0.0,guk1ocoej98,2022-09-19 16:21:47.555,59a2f6d14d25e800012fcbde,0,55,57,17,16,27,Male,9652.5,,static/images/instructions_CB_0/Slide1.png,39.0,,,,,,,,,,,,,,,,,,,,,,,,,,,
4,0,,image-keyboard-response,4,766821,0.0-3.1-0.1,guk1ocoej98,2022-09-19 16:21:47.555,59a2f6d14d25e800012fcbde,0,55,57,17,16,27,Male,4935.0999999996,,static/images/instructions_CB_0/Slide2.png,39.0,,,,,,,,,,,,,,,,,,,,,,,,,,,
5,0,,image-keyboard-response,5,768661,0.0-3.2-0.2,guk1ocoej98,2022-09-19 16:21:47.555,59a2f6d14d25e800012fcbde,0,55,57,17,16,27,Male,1839.4000000004,,static/images/instructions_CB_0/Slide3.png,39.0,,,,,,,,,,,,,,,,,,,,,,,,,,,
6,0,,image-keyboard-response,6,770438,0.0-3.3-0.3,guk1ocoej98,2022-09-19 16:21:47.555,59a2f6d14d25e800012fcbde,0,55,57,17,16,27,Male,1775.5999999996,,static/images/instructions_CB_0/Slide4.png,39.0,,,,,,,,,,,,,,,,,,,,,,,,,,,
7,0,,image-keyboard-response,7,774638,0.0-3.4-0.4,guk1ocoej98,2022-09-19 16:21:47.555,59a2f6d14d25e800012fcbde,0,55,57,17,16,27,Male,4199.8000000007,,static/images/instructions_CB_0/Slide5.png,39.0,,,,,,,,,,,,,,,,,,,,,,,,,,,
8,0,,image-keyboard-response,8,775814,0.0-3.5-0.5,guk1ocoej98,2022-09-19 16:21:47.555,59a2f6d14d25e800012fcbde,0,55,57,17,16,27,Male,1175.4000000004,,static/images/instructions_CB_0/Slide6.png,39.0,,,,,,,,,,,,,,,,,,,,,,,,,,,
9,0,,image-keyboard-response,9,777567,0.0-3.6-0.6,guk1ocoej98,2022-09-19 16:21:47.555,59a2f6d14d25e800012fcbde,0,55,57,17,16,27,Male,1751.9000000004,,static/images/instructions_CB_0/Slide7.png,39.0,,,,,,,,,,,,,,,,,,,,,,,,,,,
10,0,,image-keyboard-response,10,781159,0.0-3.7-0.7,guk1ocoej98,2022-09-19 16:21:47.555,59a2f6d14d25e800012fcbde,0,55,57,17,16,27,Male,3591.5999999996,,static/images/instructions_CB_0/Slide8.png,39.0,,,,,,,,,,,,,,,,,,,,,,,,,,,
11,0,,image-keyboard-response,11,784135,0.0-3.8-0.8,guk1ocoej98,2022-09-19 16:21:47.555,59a2f6d14d25e800012fcbde,0,55,57,17,16,27,Male,2975.6000000015,,static/images/instructions_CB_0/Slide9.png,39.0,,,,,,,,,,,,,,,,,,,,,,,,,,,
12,0,,image-keyboard-response,12,790536,0.0-3.9-0.9,guk1ocoej98,2022-09-19 16:21:47.555,59a2f6d14d25e800012fcbde,0,55,57,17,16,27,Male,6400.5,,static/images/instructions_CB_0/Slide10.png,39.0,,,,,,,,,,,,,,,,,,,,,,,,,,,
13,0,,image-keyboard-response,13,792344,0.0-3.10-0.10,guk1ocoej98,2022-09-19 16:21:47.555,59a2f6d14d25e800012fcbde,0,55,57,17,16,27,Male,1807.4000000004,,static/images/instructions_CB_0/Slide11.png,39.0,,,,,,,,,,,,,,,,,,,,,,,,,,,
14,0,,image-keyboard-response,14,842093,0.0-3.11-0.11,guk1ocoej98,2022-09-19 16:21:47.555,59a2f6d14d25e800012fcbde,0,55,57,17,16,27,Male,49748.9000000004,,static/images/instructions_CB_0/Slide12.png,39.0,,,,,,,,,,,,,,,,,,,,,,,,,,,
15,0,,image-keyboard-response,15,845245,0.0-3.12-0.12,guk1ocoej98,2022-09-19 16:21:47.555,59a2f6d14d25e800012fcbde,0,55,57,17,16,27,Male,3151.8000000007,,static/images/instructions_CB_0/Slide13.png,39.0,,,,,,,,,,,,,,,,,,,,,,,,,,,
16,0,,image-keyboard-response,16,853231,0.0-3.13-0.13,guk1ocoej98,2022-09-19 16:21:47.555,59a2f6d14d25e800012fcbde,0,55,57,17,16,27,Male,7984.6999999993,,static/images/instructions_CB_0/Slide14.png,37.0,,,,,,,,,,,,,,,,,,,,,,,,,,,
17,0,,image-keyboard-response,17,855175,0.0-3.14-0.14,guk1ocoej98,2022-09-19 16:21:47.555,59a2f6d14d25e800012fcbde,0,55,57,17,16,27,Male,1943.3000000007,,static/images/instructions_CB_0/Slide13.png,39.0,,,,,,,,,,,,,,,,,,,,,,,,,,,
18,0,,image-keyboard-response,18,855510,0.0-3.15-0.15,guk1ocoej98,2022-09-19 16:21:47.555,59a2f6d14d25e800012fcbde,0,55,57,17,16,27,Male,335.1999999993,,static/images/instructions_CB_0/Slide14.png,39.0,,,,,,,,,,,,,,,,,,,,,,,,,,,
19,0,,image-keyboard-response,19,860983,0.0-3.16-0.16,guk1ocoej98,2022-09-19 16:21:47.555,59a2f6d14d25e800012fcbde,0,55,57,17,16,27,Male,5471.9000000004,,static/images/instructions_CB_0/Slide15.png,39.0,,,,,,,,,,,,,,,,,,,,,,,,,,,
20,0,,image-keyboard-response,20,863799,0.0-3.17-0.17,guk1ocoej98,2022-09-19 16:21:47.555,59a2f6d14d25e800012fcbde,0,55,57,17,16,27,Male,2816.0999999996,,static/images/instructions_CB_0/Slide16.png,39.0,,,,,,,,,,,,,,,,,,,,,,,,,,,
21,0,,image-keyboard-response,21,865583,0.0-3.18-0.18,guk1ocoej98,2022-09-19 16:21:47.555,59a2f6d14d25e800012fcbde,0,55,57,17,16,27,Male,1783.5,,static/images/instructions_CB_0/Slide17.png,39.0,,,,,,,,,,,,,,,,,,,,,,,,,,,
22,0,,image-keyboard-response,22,867408,0.0-3.19-0.19,guk1ocoej98,2022-09-19 16:21:47.555,59a2f6d14d25e800012fcbde,0,55,57,17,16,27,Male,1823.7000000011,,static/images/instructions_CB_0/Slide18.png,39.0,,,,,,,,,,,,,,,,,,,,,,,,,,,
23,0,,image-keyboard-response,23,868560,0.0-3.20-0.20,guk1ocoej98,2022-09-19 16:21:47.555,59a2f6d14d25e800012fcbde,0,55,57,17,16,27,Male,1151.4000000004,,static/images/instructions_CB_0/Slide19.png,39.0,,,,,,,,,,,,,,,,,,,,,,,,,,,
24,0,,html-keyboard-response,24,870074,0.0-4.0-0.0,guk1ocoej98,2022-09-19 16:21:47.555,59a2f6d14d25e800012fcbde,0,55,57,17,16,27,Male,,,"<img src=""static/images/cards/stack_of_red_stars.svg"" width=""175px"" height=""250px""></img>",,,,,,,,,,,,,,,,,,,,,,,,,,,,
25,0,,html-keyboard-response,25,871472,0.0-4.0-1.0,guk1ocoej98,2022-09-19 16:21:47.555,59a2f6d14d25e800012fcbde,0,55,57,17,16,27,Male,882.0999999996,,"
  <table>
  <tr height=300>
    <td width=300 height=300><img src=""static/images/cards/back_of_red_stars.svg"" width=""175px"" height=""250px""></img></td>
    <td width=300 height=300><img src=""static/images/cards/back_of_red_stars.svg"" width=""175px"" height=""250px""></img></td>
  </tr>
  <tr height=200>
    <td width=300><img src=""static/images/keys/z.svg"" width=""35%"" height=""75%""></img></td>
    <td width=300><img src=""static/images/keys/m.svg"" width=""35%"" height=""75%""></img></td>
  </tr>
</table>
  ",90.0,1.0,,,,,,,,,,,,,,,,,,,,,,,,,,
26,0,,html-keyboard-response,26,872985,0.0-4.0-2.0,guk1ocoej98,2022-09-19 16:21:47.555,59a2f6d14d25e800012fcbde,0,55,57,17,16,27,Male,,,"
  <table>
  <tr height=300>
    <td width=300 height=300><img src=""static/images/cards/8_of_red_stars.svg"" width=""175px"" height=""250px""></img></td>
    <td width=300 height=300><img src=""static/images/cards/back_of_red_stars.svg"" width=""175px"" height=""250px""></img></td>
  </tr>
  <tr height=200>
    <td width=300><img src=""static/images/keys/z.svg"" width=""35%"" height=""75%""></img></td>
    <td width=300><img src=""static/images/keys/m.svg"" width=""35%"" height=""75%""></img></td>
  </tr>
</table>
  ",,,,,,,,,,,,,,,,,,,,,,,,,,,,
27,0,,html-keyboard-response,27,874496,0.0-4.0-3.0,guk1ocoej98,2022-09-19 16:21:47.555,59a2f6d14d25e800012fcbde,0,55,57,17,16,27,Male,,,"<p style=""font-size:50px"">You win!
+10 points this round!</p>",,,,,,,,,,,,,,,,,,,,,,,,,,,,
28,0,,html-keyboard-response,28,875004,0.0-4.0-4.0,guk1ocoej98,2022-09-19 16:21:47.555,59a2f6d14d25e800012fcbde,0,55,57,17,16,27,Male,,,,,,1.0,learning,0.0,A,,red,,stars,,,,A,red,stars,,1.0,1.0,NA,left,882.0999999996,8.0,1.0,1.0,,,
29,0,,html-keyboard-response,29,876507,0.0-4.1-0.1,guk1ocoej98,2022-09-19 16:21:47.555,59a2f6d14d25e800012fcbde,0,55,57,17,16,27,Male,,,"<img src=""static/images/cards/stack_of_black_stars.svg"" width=""175px"" height=""250px""></img>",,,,,,,,,,,,,,,,,,,,,,,,,,,,
30,0,,html-keyboard-response,30,877329,0.0-4.1-1.1,guk1ocoej98,2022-09-19 16:21:47.555,59a2f6d14d25e800012fcbde,0,55,57,17,16,27,Male,316.7999999989,,"
  <table>
  <tr height=300>
    <td width=300 height=300><img src=""static/images/cards/back_of_black_stars.svg"" width=""175px"" height=""250px""></img></td>
    <td width=300 height=300><img src=""static/images/cards/back_of_black_stars.svg"" width=""175px"" height=""250px""></img></td>
  </tr>
  <tr height=200>
    <td width=300><img src=""static/images/keys/z.svg"" width=""35%"" height=""75%""></img></td>
    <td width=300></td>
  </tr>
</table>
  ",90.0,1.0,,,,,,,,,,,,,,,,,,,,,,,,,,
31,0,,html-keyboard-response,31,878843,0.0-4.1-2.1,guk1ocoej98,2022-09-19 16:21:47.555,59a2f6d14d25e800012fcbde,0,55,57,17,16,27,Male,,,"
  <table>
  <tr height=300>
    <td width=300 height=300><img src=""static/images/cards/10_of_black_stars.svg"" width=""175px"" height=""250px""></img></td>
    <td width=300 height=300><img src=""static/images/cards/back_of_black_stars.svg"" width=""175px"" height=""250px""></img></td>
  </tr>
  <tr height=200>
    <td width=300><img src=""static/images/keys/z.svg"" width=""35%"" height=""75%""></img></td>
    <td width=300></td>
  </tr>
</table>
  ",,,,,,,,,,,,,,,,,,,,,,,,,,,,
32,0,,html-keyboard-response,32,880357,0.0-4.1-3.1,guk1ocoej98,2022-09-19 16:21:47.555,59a2f6d14d25e800012fcbde,0,55,57,17,16,27,Male,,,"<p style=""font-size:50px"">You win!
+10 points this round!</p>",,,,,,,,,,,,,,,,,,,,,,,,,,,,
33,0,,html-keyboard-response,33,880872,0.0-4.1-4.1,guk1ocoej98,2022-09-19 16:21:47.555,59a2f6d14d25e800012fcbde,0,55,57,17,16,27,Male,,,,,,1.0,learning,1.0,B,,black,,stars,,,,B,black,stars,,0.0,1.0,1,left,316.7999999989,10.0,1.0,1.0,,,
34,0,,html-keyboard-response,34,882384,0.0-4.2-0.2,guk1ocoej98,2022-09-19 16:21:47.555,59a2f6d14d25e800012fcbde,0,55,57,17,16,27,Male,,,"<img src=""static/images/cards/stack_of_red_moons.svg"" width=""175px"" height=""250px""></img>",,,,,,,,,,,,,,,,,,,,,,,,,,,,
35,0,,html-keyboard-response,35,883258,0.0-4.2-1.2,guk1ocoej98,2022-09-19 16:21:47.555,59a2f6d14d25e800012fcbde,0,55,57,17,16,27,Male,371.1000000015,,"
  <table>
  <tr height=300>
    <td width=300 height=300><img src=""static/images/cards/back_of_red_moons.svg"" width=""175px"" height=""250px""></img></td>
    <td width=300 height=300><img src=""static/images/cards/back_of_red_moons.svg"" width=""175px"" height=""250px""></img></td>
  </tr>
  <tr height=200>
    <td width=300><img src=""static/images/keys/z.svg"" width=""35%"" height=""75%""></img></td>
    <td width=300><img src=""static/images/keys/m.svg"" width=""35%"" height=""75%""></img></td>
  </tr>
</table>
  ",77.0,1.0,,,,,,,,,,,,,,,,,,,,,,,,,,
36,0,,html-keyboard-response,36,884761,0.0-4.2-2.2,guk1ocoej98,2022-09-19 16:21:47.555,59a2f6d14d25e800012fcbde,0,55,57,17,16,27,Male,,,"
  <table>
  <tr height=300>
    <td width=300 height=300><img src=""static/images/cards/back_of_red_moons.svg"" width=""175px"" height=""250px""></img></td>
    <td width=300 height=300><img src=""static/images/cards/10_of_red_moons.svg"" width=""175px"" height=""250px""></img></td>
  </tr>
  <tr height=200>
    <td width=300><img src=""static/images/keys/z.svg"" width=""35%"" height=""75%""></img></td>
    <td width=300><img src=""static/images/keys/m.svg"" width=""35%"" height=""75%""></img></td>
  </tr>
</table>
  ",,,,,,,,,,,,,,,,,,,,,,,,,,,,
37,0,,html-keyboard-response,37,886274,0.0-4.2-3.2,guk1ocoej98,2022-09-19 16:21:47.555,59a2f6d14d25e800012fcbde,0,55,57,17,16,27,Male,,,"<p style=""font-size:50px"">You Lose!
No points this round.</p>",,,,,,,,,,,,,,,,,,,,,,,,,,,,
38,0,,html-keyboard-response,38,886783,0.0-4.2-4.2,guk1ocoej98,2022-09-19 16:21:47.555,59a2f6d14d25e800012fcbde,0,55,57,17,16,27,Male,,,,,,1.0,learning,2.0,C,,red,,moons,,,,C,red,moons,,1.0,0.0,NA,right,371.1000000015,10.0,1.0,0.0,,,
39,0,,html-keyboard-response,39,888294,0.0-4.3-0.3,guk1ocoej98,2022-09-19 16:21:47.555,59a2f6d14d25e800012fcbde,0,55,57,17,16,27,Male,,,"<img src=""static/images/cards/stack_of_black_moons.svg"" width=""175px"" height=""250px""></img>",,,,,,,,,,,,,,,,,,,,,,,,,,,,
40,0,,html-keyboard-response,40,889114,0.0-4.3-1.3,guk1ocoej98,2022-09-19 16:21:47.555,59a2f6d14d25e800012fcbde,0,55,57,17,16,27,Male,305.9000000004,,"
  <table>
  <tr height=300>
    <td width=300 height=300><img src=""static/images/cards/back_of_black_moons.svg"" width=""175px"" height=""250px""></img></td>
    <td width=300 height=300><img src=""static/images/cards/back_of_black_moons.svg"" width=""175px"" height=""250px""></img></td>
  </tr>
  <tr height=200>
    <td width=300></td>
    <td width=300><img src=""static/images/keys/m.svg"" width=""35%"" height=""75%""></img></td>
  </tr>
</table>
  ",77.0,1.0,,,,,,,,,,,,,,,,,,,,,,,,,,
41,0,,html-keyboard-response,41,890618,0.0-4.3-2.3,guk1ocoej98,2022-09-19 16:21:47.555,59a2f6d14d25e800012fcbde,0,55,57,17,16,27,Male,,,"
  <table>
  <tr height=300>
    <td width=300 height=300><img src=""static/images/cards/back_of_black_moons.svg"" width=""175px"" height=""250px""></img></td>
    <td width=300 height=300><img src=""static/images/cards/8_of_black_moons.svg"" width=""175px"" height=""250px""></img></td>
  </tr>
  <tr height=200>
    <td width=300></td>
    <td width=300><img src=""static/images/keys/m.svg"" width=""35%"" height=""75%""></img></td>
  </tr>
</table>
  ",,,,,,,,,,,,,,,,,,,,,,,,,,,,
42,0,,html-keyboard-response,42,892129,0.0-4.3-3.3,guk1ocoej98,2022-09-19 16:21:47.555,59a2f6d14d25e800012fcbde,0,55,57,17,16,27,Male,,,"<p style=""font-size:50px"">You win!
+10 points this round!</p>",,,,,,,,,,,,,,,,,,,,,,,,,,,,
43,0,,html-keyboard-response,43,892638,0.0-4.3-4.3,guk1ocoej98,2022-09-19 16:21:47.555,59a2f6d14d25e800012fcbde,0,55,57,17,16,27,Male,,,,,,1.0,learning,3.0,D,,black,,moons,,,,D,black,moons,,0.0,0.0,0,right,305.9000000004,8.0,1.0,1.0,,,
44,0,,html-keyboard-response,44,894154,0.0-4.4-0.4,guk1ocoej98,2022-09-19 16:21:47.555,59a2f6d14d25e800012fcbde,0,55,57,17,16,27,Male,,,"<img src=""static/images/cards/stack_of_red_bolts.svg"" width=""175px"" height=""250px""></img>",,,,,,,,,,,,,,,,,,,,,,,,,,,,
45,0,,html-keyboard-response,45,895155,0.0-4.4-1.4,guk1ocoej98,2022-09-19 16:21:47.555,59a2f6d14d25e800012fcbde,0,55,57,17,16,27,Male,487.0,,"
  <table>
  <tr height=300>
    <td width=300 height=300><img src=""static/images/cards/back_of_red_bolts.svg"" width=""175px"" height=""250px""></img></td>
    <td width=300 height=300><img src=""static/images/cards/back_of_red_bolts.svg"" width=""175px"" height=""250px""></img></td>
  </tr>
  <tr height=200>
    <td width=300><img src=""static/images/keys/z.svg"" width=""35%"" height=""75%""></img></td>
    <td width=300><img src=""static/images/keys/m.svg"" width=""35%"" height=""75%""></img></td>
  </tr>
</table>
  ",90.0,1.0,,,,,,,,,,,,,,,,,,,,,,,,,,
46,0,,html-keyboard-response,46,896668,0.0-4.4-2.4,guk1ocoej98,2022-09-19 16:21:47.555,59a2f6d14d25e800012fcbde,0,55,57,17,16,27,Male,,,"
  <table>
  <tr height=300>
    <td width=300 height=300><img src=""static/images/cards/6_of_red_bolts.svg"" width=""175px"" height=""250px""></img></td>
    <td width=300 height=300><img src=""static/images/cards/back_of_red_bolts.svg"" width=""175px"" height=""250px""></img></td>
  </tr>
  <tr height=200>
    <td width=300><img src=""static/images/keys/z.svg"" width=""35%"" height=""75%""></img></td>
    <td width=300><img src=""static/images/keys/m.svg"" width=""35%"" height=""75%""></img></td>
  </tr>
</table>
  ",,,,,,,,,,,,,,,,,,,,,,,,,,,,
47,0,,html-keyboard-response,47,898175,0.0-4.4-3.4,guk1ocoej98,2022-09-19 16:21:47.555,59a2f6d14d25e800012fcbde,0,55,57,17,16,27,Male,,,"<p style=""font-size:50px"">You win!
+10 points this round!</p>",,,,,,,,,,,,,,,,,,,,,,,,,,,,
48,0,,html-keyboard-response,48,898685,0.0-4.4-4.4,guk1ocoej98,2022-09-19 16:21:47.555,59a2f6d14d25e800012fcbde,0,55,57,17,16,27,Male,,,,,,1.0,learning,4.0,Xc,,red,,bolts,,,,Xc,red,bolts,,1.0,0.0,NA,left,487.0,6.0,1.0,1.0,,,
49,0,,html-keyboard-response,49,900194,0.0-4.5-0.5,guk1ocoej98,2022-09-19 16:21:47.555,59a2f6d14d25e800012fcbde,0,55,57,17,16,27,Male,,,"<img src=""static/images/cards/stack_of_black_bolts.svg"" width=""175px"" height=""250px""></img>",,,,,,,,,,,,,,,,,,,,,,,,,,,,
50,0,,html-keyboard-response,50,900916,0.0-4.5-1.5,guk1ocoej98,2022-09-19 16:21:47.555,59a2f6d14d25e800012fcbde,0,55,57,17,16,27,Male,218.0999999996,,"
  <table>
  <tr height=300>
    <td width=300 height=300><img src=""static/images/cards/back_of_black_bolts.svg"" width=""175px"" height=""250px""></img></td>
    <td width=300 height=300><img src=""static/images/cards/back_of_black_bolts.svg"" width=""175px"" height=""250px""></img></td>
  </tr>
  <tr height=200>
    <td width=300></td>
    <td width=300><img src=""static/images/keys/m.svg"" width=""35%"" height=""75%""></img></td>
  </tr>
</table>
  ",77.0,1.0,,,,,,,,,,,,,,,,,,,,,,,,,,
51,0,,html-keyboard-response,51,902420,0.0-4.5-2.5,guk1ocoej98,2022-09-19 16:21:47.555,59a2f6d14d25e800012fcbde,0,55,57,17,16,27,Male,,,"
  <table>
  <tr height=300>
    <td width=300 height=300><img src=""static/images/cards/back_of_black_bolts.svg"" width=""175px"" height=""250px""></img></td>
    <td width=300 height=300><img src=""static/images/cards/9_of_black_bolts.svg"" width=""175px"" height=""250px""></img></td>
  </tr>
  <tr height=200>
    <td width=300></td>
    <td width=300><img src=""static/images/keys/m.svg"" width=""35%"" height=""75%""></img></td>
  </tr>
</table>
  ",,,,,,,,,,,,,,,,,,,,,,,,,,,,
52,0,,html-keyboard-response,52,903932,0.0-4.5-3.5,guk1ocoej98,2022-09-19 16:21:47.555,59a2f6d14d25e800012fcbde,0,55,57,17,16,27,Male,,,"<p style=""font-size:50px"">You win!
+10 points this round!</p>",,,,,,,,,,,,,,,,,,,,,,,,,,,,
53,0,,html-keyboard-response,53,904443,0.0-4.5-4.5,guk1ocoej98,2022-09-19 16:21:47.555,59a2f6d14d25e800012fcbde,0,55,57,17,16,27,Male,,,,,,1.0,learning,5.0,Xnc,,black,,bolts,,,,Xnc,black,bolts,,0.0,0.0,0,right,218.0999999996,9.0,1.0,1.0,,,
54,0,,html-keyboard-response,54,905947,0.0-4.6-0.6,guk1ocoej98,2022-09-19 16:21:47.555,59a2f6d14d25e800012fcbde,0,55,57,17,16,27,Male,,,"<img src=""static/images/cards/stack_of_red_stars.svg"" width=""175px"" height=""250px""></img>",,,,,,,,,,,,,,,,,,,,,,,,,,,,
55,0,,html-keyboard-response,55,906564,0.0-4.6-1.6,guk1ocoej98,2022-09-19 16:21:47.555,59a2f6d14d25e800012fcbde,0,55,57,17,16,27,Male,109.0,,"
  <table>
  <tr height=300>
    <td width=300 height=300><img src=""static/images/cards/back_of_red_stars.svg"" width=""175px"" height=""250px""></img></td>
    <td width=300 height=300><img src=""static/images/cards/back_of_red_stars.svg"" width=""175px"" height=""250px""></img></td>
  </tr>
  <tr height=200>
    <td width=300><img src=""static/images/keys/z.svg"" width=""35%"" height=""75%""></img></td>
    <td width=300><img src=""static/images/keys/m.svg"" width=""35%"" height=""75%""></img></td>
  </tr>
</table>
  ",90.0,1.0,,,,,,,,,,,,,,,,,,,,,,,,,,
56,0,,html-keyboard-response,56,908078,0.0-4.6-2.6,guk1ocoej98,2022-09-19 16:21:47.555,59a2f6d14d25e800012fcbde,0,55,57,17,16,27,Male,,,"
  <table>
  <tr height=300>
    <td width=300 height=300><img src=""static/images/cards/2_of_red_stars.svg"" width=""175px"" height=""250px""></img></td>
    <td width=300 height=300><img src=""static/images/cards/back_of_red_stars.svg"" width=""175px"" height=""250px""></img></td>
  </tr>
  <tr height=200>
    <td width=300><img src=""static/images/keys/z.svg"" width=""35%"" height=""75%""></img></td>
    <td width=300><img src=""static/images/keys/m.svg"" width=""35%"" height=""75%""></img></td>
  </tr>
</table>
  ",,,,,,,,,,,,,,,,,,,,,,,,,,,,
57,0,,html-keyboard-response,57,909603,0.0-4.6-3.6,guk1ocoej98,2022-09-19 16:21:47.555,59a2f6d14d25e800012fcbde,0,55,57,17,16,27,Male,,,"<p style=""font-size:50px"">You Lose!
No points this round.</p>",,,,,,,,,,,,,,,,,,,,,,,,,,,,
58,0,,html-keyboard-response,58,910125,0.0-4.6-4.6,guk1ocoej98,2022-09-19 16:21:47.555,59a2f6d14d25e800012fcbde,0,55,57,17,16,27,Male,,,,,,1.0,learning,6.0,A,,red,,stars,,,,A,red,stars,,1.0,1.0,NA,left,109.0,2.0,0.0,0.0,,,
59,0,,html-keyboard-response,59,911636,0.0-4.7-0.7,guk1ocoej98,2022-09-19 16:21:47.555,59a2f6d14d25e800012fcbde,0,55,57,17,16,27,Male,,,"<img src=""static/images/cards/stack_of_black_stars.svg"" width=""175px"" height=""250px""></img>",,,,,,,,,,,,,,,,,,,,,,,,,,,,
60,0,,html-keyboard-response,60,912805,0.0-4.7-1.7,guk1ocoej98,2022-09-19 16:21:47.555,59a2f6d14d25e800012fcbde,0,55,57,17,16,27,Male,658.9000000004,,"
  <table>
  <tr height=300>
    <td width=300 height=300><img src=""static/images/cards/back_of_black_stars.svg"" width=""175px"" height=""250px""></img></td>
    <td width=300 height=300><img src=""static/images/cards/back_of_black_stars.svg"" width=""175px"" height=""250px""></img></td>
  </tr>
  <tr height=200>
    <td width=300><img src=""static/images/keys/z.svg"" width=""35%"" height=""75%""></img></td>
    <td width=300></td>
  </tr>
</table>
  ",90.0,1.0,,,,,,,,,,,,,,,,,,,,,,,,,,
61,0,,html-keyboard-response,61,914312,0.0-4.7-2.7,guk1ocoej98,2022-09-19 16:21:47.555,59a2f6d14d25e800012fcbde,0,55,57,17,16,27,Male,,,"
  <table>
  <tr height=300>
    <td width=300 height=300><img src=""static/images/cards/3_of_black_stars.svg"" width=""175px"" height=""250px""></img></td>
    <td width=300 height=300><img src=""static/images/cards/back_of_black_stars.svg"" width=""175px"" height=""250px""></img></td>
  </tr>
  <tr height=200>
    <td width=300><img src=""static/images/keys/z.svg"" width=""35%"" height=""75%""></img></td>
    <td width=300></td>
  </tr>
</table>
  ",,,,,,,,,,,,,,,,,,,,,,,,,,,,
62,0,,html-keyboard-response,62,915836,0.0-4.7-3.7,guk1ocoej98,2022-09-19 16:21:47.555,59a2f6d14d25e800012fcbde,0,55,57,17,16,27,Male,,,"<p style=""font-size:50px"">You Lose!
No points this round.</p>",,,,,,,,,,,,,,,,,,,,,,,,,,,,
63,0,,html-keyboard-response,63,916354,0.0-4.7-4.7,guk1ocoej98,2022-09-19 16:21:47.555,59a2f6d14d25e800012fcbde,0,55,57,17,16,27,Male,,,,,,1.0,learning,7.0,B,,black,,stars,,,,B,black,stars,,0.0,1.0,1,left,658.9000000004,3.0,0.0,0.0,,,
64,0,,html-keyboard-response,64,917868,0.0-4.8-0.8,guk1ocoej98,2022-09-19 16:21:47.555,59a2f6d14d25e800012fcbde,0,55,57,17,16,27,Male,,,"<img src=""static/images/cards/stack_of_red_moons.svg"" width=""175px"" height=""250px""></img>",,,,,,,,,,,,,,,,,,,,,,,,,,,,
65,0,,html-keyboard-response,65,919198,0.0-4.8-1.8,guk1ocoej98,2022-09-19 16:21:47.555,59a2f6d14d25e800012fcbde,0,55,57,17,16,27,Male,824.0999999996,,"
  <table>
  <tr height=300>
    <td width=300 height=300><img src=""static/images/cards/back_of_red_moons.svg"" width=""175px"" height=""250px""></img></td>
    <td width=300 height=300><img src=""static/images/cards/back_of_red_moons.svg"" width=""175px"" height=""250px""></img></td>
  </tr>
  <tr height=200>
    <td width=300><img src=""static/images/keys/z.svg"" width=""35%"" height=""75%""></img></td>
    <td width=300><img src=""static/images/keys/m.svg"" width=""35%"" height=""75%""></img></td>
  </tr>
</table>
  ",90.0,1.0,,,,,,,,,,,,,,,,,,,,,,,,,,
66,0,,html-keyboard-response,66,920700,0.0-4.8-2.8,guk1ocoej98,2022-09-19 16:21:47.555,59a2f6d14d25e800012fcbde,0,55,57,17,16,27,Male,,,"
  <table>
  <tr height=300>
    <td width=300 height=300><img src=""static/images/cards/6_of_red_moons.svg"" width=""175px"" height=""250px""></img></td>
    <td width=300 height=300><img src=""static/images/cards/back_of_red_moons.svg"" width=""175px"" height=""250px""></img></td>
  </tr>
  <tr height=200>
    <td width=300><img src=""static/images/keys/z.svg"" width=""35%"" height=""75%""></img></td>
    <td width=300><img src=""static/images/keys/m.svg"" width=""35%"" height=""75%""></img></td>
  </tr>
</table>
  ",,,,,,,,,,,,,,,,,,,,,,,,,,,,
67,0,,html-keyboard-response,67,922215,0.0-4.8-3.8,guk1ocoej98,2022-09-19 16:21:47.555,59a2f6d14d25e800012fcbde,0,55,57,17,16,27,Male,,,"<p style=""font-size:50px"">You Lose!
No points this round.</p>",,,,,,,,,,,,,,,,,,,,,,,,,,,,
68,0,,html-keyboard-response,68,922724,0.0-4.8-4.8,guk1ocoej98,2022-09-19 16:21:47.555,59a2f6d14d25e800012fcbde,0,55,57,17,16,27,Male,,,,,,1.0,learning,8.0,C,,red,,moons,,,,C,red,moons,,1.0,0.0,NA,left,824.0999999996,6.0,1.0,0.0,,,
69,0,,html-keyboard-response,69,924233,0.0-4.9-0.9,guk1ocoej98,2022-09-19 16:21:47.555,59a2f6d14d25e800012fcbde,0,55,57,17,16,27,Male,,,"<img src=""static/images/cards/stack_of_black_moons.svg"" width=""175px"" height=""250px""></img>",,,,,,,,,,,,,,,,,,,,,,,,,,,,
70,0,,html-keyboard-response,70,925223,0.0-4.9-1.9,guk1ocoej98,2022-09-19 16:21:47.555,59a2f6d14d25e800012fcbde,0,55,57,17,16,27,Male,473.0,,"
  <table>
  <tr height=300>
    <td width=300 height=300><img src=""static/images/cards/back_of_black_moons.svg"" width=""175px"" height=""250px""></img></td>
    <td width=300 height=300><img src=""static/images/cards/back_of_black_moons.svg"" width=""175px"" height=""250px""></img></td>
  </tr>
  <tr height=200>
    <td width=300><img src=""static/images/keys/z.svg"" width=""35%"" height=""75%""></img></td>
    <td width=300></td>
  </tr>
</table>
  ",90.0,1.0,,,,,,,,,,,,,,,,,,,,,,,,,,
71,0,,html-keyboard-response,71,926729,0.0-4.9-2.9,guk1ocoej98,2022-09-19 16:21:47.555,59a2f6d14d25e800012fcbde,0,55,57,17,16,27,Male,,,"
  <table>
  <tr height=300>
    <td width=300 height=300><img src=""static/images/cards/4_of_black_moons.svg"" width=""175px"" height=""250px""></img></td>
    <td width=300 height=300><img src=""static/images/cards/back_of_black_moons.svg"" width=""175px"" height=""250px""></img></td>
  </tr>
  <tr height=200>
    <td width=300><img src=""static/images/keys/z.svg"" width=""35%"" height=""75%""></img></td>
    <td width=300></td>
  </tr>
</table>
  ",,,,,,,,,,,,,,,,,,,,,,,,,,,,
72,0,,html-keyboard-response,72,928244,0.0-4.9-3.9,guk1ocoej98,2022-09-19 16:21:47.555,59a2f6d14d25e800012fcbde,0,55,57,17,16,27,Male,,,"<p style=""font-size:50px"">You win!
+10 points this round!</p>",,,,,,,,,,,,,,,,,,,,,,,,,,,,
73,0,,html-keyboard-response,73,928753,0.0-4.9-4.9,guk1ocoej98,2022-09-19 16:21:47.555,59a2f6d14d25e800012fcbde,0,55,57,17,16,27,Male,,,,,,1.0,learning,9.0,D,,black,,moons,,,,D,black,moons,,0.0,0.0,1,left,473.0,4.0,0.0,1.0,,,
74,0,,html-keyboard-response,74,930254,0.0-4.10-0.10,guk1ocoej98,2022-09-19 16:21:47.555,59a2f6d14d25e800012fcbde,0,55,57,17,16,27,Male,,,"<img src=""static/images/cards/stack_of_red_bolts.svg"" width=""175px"" height=""250px""></img>",,,,,,,,,,,,,,,,,,,,,,,,,,,,
75,0,,html-keyboard-response,75,931487,0.0-4.10-1.10,guk1ocoej98,2022-09-19 16:21:47.555,59a2f6d14d25e800012fcbde,0,55,57,17,16,27,Male,728.0,,"
  <table>
  <tr height=300>
    <td width=300 height=300><img src=""static/images/cards/back_of_red_bolts.svg"" width=""175px"" height=""250px""></img></td>
    <td width=300 height=300><img src=""static/images/cards/back_of_red_bolts.svg"" width=""175px"" height=""250px""></img></td>
  </tr>
  <tr height=200>
    <td width=300><img src=""static/images/keys/z.svg"" width=""35%"" height=""75%""></img></td>
    <td width=300><img src=""static/images/keys/m.svg"" width=""35%"" height=""75%""></img></td>
  </tr>
</table>
  ",77.0,1.0,,,,,,,,,,,,,,,,,,,,,,,,,,
76,0,,html-keyboard-response,76,933004,0.0-4.10-2.10,guk1ocoej98,2022-09-19 16:21:47.555,59a2f6d14d25e800012fcbde,0,55,57,17,16,27,Male,,,"
  <table>
  <tr height=300>
    <td width=300 height=300><img src=""static/images/cards/back_of_red_bolts.svg"" width=""175px"" height=""250px""></img></td>
    <td width=300 height=300><img src=""static/images/cards/8_of_red_bolts.svg"" width=""175px"" height=""250px""></img></td>
  </tr>
  <tr height=200>
    <td width=300><img src=""static/images/keys/z.svg"" width=""35%"" height=""75%""></img></td>
    <td width=300><img src=""static/images/keys/m.svg"" width=""35%"" height=""75%""></img></td>
  </tr>
</table>
  ",,,,,,,,,,,,,,,,,,,,,,,,,,,,
77,0,,html-keyboard-response,77,934522,0.0-4.10-3.10,guk1ocoej98,2022-09-19 16:21:47.555,59a2f6d14d25e800012fcbde,0,55,57,17,16,27,Male,,,"<p style=""font-size:50px"">You win!
+10 points this round!</p>",,,,,,,,,,,,,,,,,,,,,,,,,,,,
78,0,,html-keyboard-response,78,935043,0.0-4.10-4.10,guk1ocoej98,2022-09-19 16:21:47.555,59a2f6d14d25e800012fcbde,0,55,57,17,16,27,Male,,,,,,1.0,learning,10.0,Xc,,red,,bolts,,,,Xc,red,bolts,,1.0,0.0,NA,right,728.0,8.0,1.0,1.0,,,
79,0,,html-keyboard-response,79,936546,0.0-4.11-0.11,guk1ocoej98,2022-09-19 16:21:47.555,59a2f6d14d25e800012fcbde,0,55,57,17,16,27,Male,,,"<img src=""static/images/cards/stack_of_black_bolts.svg"" width=""175px"" height=""250px""></img>",,,,,,,,,,,,,,,,,,,,,,,,,,,,
80,0,,html-keyboard-response,80,937416,0.0-4.11-1.11,guk1ocoej98,2022-09-19 16:21:47.555,59a2f6d14d25e800012fcbde,0,55,57,17,16,27,Male,365.0,,"
  <table>
  <tr height=300>
    <td width=300 height=300><img src=""static/images/cards/back_of_black_bolts.svg"" width=""175px"" height=""250px""></img></td>
    <td width=300 height=300><img src=""static/images/cards/back_of_black_bolts.svg"" width=""175px"" height=""250px""></img></td>
  </tr>
  <tr height=200>
    <td width=300></td>
    <td width=300><img src=""static/images/keys/m.svg"" width=""35%"" height=""75%""></img></td>
  </tr>
</table>
  ",77.0,1.0,,,,,,,,,,,,,,,,,,,,,,,,,,
81,0,,html-keyboard-response,81,938918,0.0-4.11-2.11,guk1ocoej98,2022-09-19 16:21:47.555,59a2f6d14d25e800012fcbde,0,55,57,17,16,27,Male,,,"
  <table>
  <tr height=300>
    <td width=300 height=300><img src=""static/images/cards/back_of_black_bolts.svg"" width=""175px"" height=""250px""></img></td>
    <td width=300 height=300><img src=""static/images/cards/2_of_black_bolts.svg"" width=""175px"" height=""250px""></img></td>
  </tr>
  <tr height=200>
    <td width=300></td>
    <td width=300><img src=""static/images/keys/m.svg"" width=""35%"" height=""75%""></img></td>
  </tr>
</table>
  ",,,,,,,,,,,,,,,,,,,,,,,,,,,,
82,0,,html-keyboard-response,82,940423,0.0-4.11-3.11,guk1ocoej98,2022-09-19 16:21:47.555,59a2f6d14d25e800012fcbde,0,55,57,17,16,27,Male,,,"<p style=""font-size:50px"">You win!
+10 points this round!</p>",,,,,,,,,,,,,,,,,,,,,,,,,,,,
83,0,,html-keyboard-response,83,940931,0.0-4.11-4.11,guk1ocoej98,2022-09-19 16:21:47.555,59a2f6d14d25e800012fcbde,0,55,57,17,16,27,Male,,,,,,1.0,learning,11.0,Xnc,,black,,bolts,,,,Xnc,black,bolts,,0.0,0.0,0,right,365.0,2.0,0.0,1.0,,,
84,0,,html-keyboard-response,84,942443,0.0-4.12-0.12,guk1ocoej98,2022-09-19 16:21:47.555,59a2f6d14d25e800012fcbde,0,55,57,17,16,27,Male,,,"<img src=""static/images/cards/stack_of_red_stars.svg"" width=""175px"" height=""250px""></img>",,,,,,,,,,,,,,,,,,,,,,,,,,,,
85,0,,html-keyboard-response,85,943449,0.0-4.12-1.12,guk1ocoej98,2022-09-19 16:21:47.555,59a2f6d14d25e800012fcbde,0,55,57,17,16,27,Male,502.3999999985,,"
  <table>
  <tr height=300>
    <td width=300 height=300><img src=""static/images/cards/back_of_red_stars.svg"" width=""175px"" height=""250px""></img></td>
    <td width=300 height=300><img src=""static/images/cards/back_of_red_stars.svg"" width=""175px"" height=""250px""></img></td>
  </tr>
  <tr height=200>
    <td width=300><img src=""static/images/keys/z.svg"" width=""35%"" height=""75%""></img></td>
    <td width=300><img src=""static/images/keys/m.svg"" width=""35%"" height=""75%""></img></td>
  </tr>
</table>
  ",77.0,1.0,,,,,,,,,,,,,,,,,,,,,,,,,,
86,0,,html-keyboard-response,86,944952,0.0-4.12-2.12,guk1ocoej98,2022-09-19 16:21:47.555,59a2f6d14d25e800012fcbde,0,55,57,17,16,27,Male,,,"
  <table>
  <tr height=300>
    <td width=300 height=300><img src=""static/images/cards/back_of_red_stars.svg"" width=""175px"" height=""250px""></img></td>
    <td width=300 height=300><img src=""static/images/cards/3_of_red_stars.svg"" width=""175px"" height=""250px""></img></td>
  </tr>
  <tr height=200>
    <td width=300><img src=""static/images/keys/z.svg"" width=""35%"" height=""75%""></img></td>
    <td width=300><img src=""static/images/keys/m.svg"" width=""35%"" height=""75%""></img></td>
  </tr>
</table>
  ",,,,,,,,,,,,,,,,,,,,,,,,,,,,
87,0,,html-keyboard-response,87,946469,0.0-4.12-3.12,guk1ocoej98,2022-09-19 16:21:47.555,59a2f6d14d25e800012fcbde,0,55,57,17,16,27,Male,,,"<p style=""font-size:50px"">You Lose!
No points this round.</p>",,,,,,,,,,,,,,,,,,,,,,,,,,,,
88,0,,html-keyboard-response,88,946980,0.0-4.12-4.12,guk1ocoej98,2022-09-19 16:21:47.555,59a2f6d14d25e800012fcbde,0,55,57,17,16,27,Male,,,,,,1.0,learning,12.0,A,,red,,stars,,,,A,red,stars,,1.0,1.0,NA,right,502.3999999985,3.0,0.0,0.0,,,
89,0,,html-keyboard-response,89,948481,0.0-4.13-0.13,guk1ocoej98,2022-09-19 16:21:47.555,59a2f6d14d25e800012fcbde,0,55,57,17,16,27,Male,,,"<img src=""static/images/cards/stack_of_black_stars.svg"" width=""175px"" height=""250px""></img>",,,,,,,,,,,,,,,,,,,,,,,,,,,,
90,0,,html-keyboard-response,90,949714,0.0-4.13-1.13,guk1ocoej98,2022-09-19 16:21:47.555,59a2f6d14d25e800012fcbde,0,55,57,17,16,27,Male,716.3000000007,,"
  <table>
  <tr height=300>
    <td width=300 height=300><img src=""static/images/cards/back_of_black_stars.svg"" width=""175px"" height=""250px""></img></td>
    <td width=300 height=300><img src=""static/images/cards/back_of_black_stars.svg"" width=""175px"" height=""250px""></img></td>
  </tr>
  <tr height=200>
    <td width=300><img src=""static/images/keys/z.svg"" width=""35%"" height=""75%""></img></td>
    <td width=300></td>
  </tr>
</table>
  ",90.0,1.0,,,,,,,,,,,,,,,,,,,,,,,,,,
91,0,,html-keyboard-response,91,951216,0.0-4.13-2.13,guk1ocoej98,2022-09-19 16:21:47.555,59a2f6d14d25e800012fcbde,0,55,57,17,16,27,Male,,,"
  <table>
  <tr height=300>
    <td width=300 height=300><img src=""static/images/cards/6_of_black_stars.svg"" width=""175px"" height=""250px""></img></td>
    <td width=300 height=300><img src=""static/images/cards/back_of_black_stars.svg"" width=""175px"" height=""250px""></img></td>
  </tr>
  <tr height=200>
    <td width=300><img src=""static/images/keys/z.svg"" width=""35%"" height=""75%""></img></td>
    <td width=300></td>
  </tr>
</table>
  ",,,,,,,,,,,,,,,,,,,,,,,,,,,,
92,0,,html-keyboard-response,92,952733,0.0-4.13-3.13,guk1ocoej98,2022-09-19 16:21:47.555,59a2f6d14d25e800012fcbde,0,55,57,17,16,27,Male,,,"<p style=""font-size:50px"">You win!
+10 points this round!</p>",,,,,,,,,,,,,,,,,,,,,,,,,,,,
93,0,,html-keyboard-response,93,953239,0.0-4.13-4.13,guk1ocoej98,2022-09-19 16:21:47.555,59a2f6d14d25e800012fcbde,0,55,57,17,16,27,Male,,,,,,1.0,learning,13.0,B,,black,,stars,,,,B,black,stars,,0.0,1.0,1,left,716.3000000007,6.0,1.0,1.0,,,
94,0,,html-keyboard-response,94,954749,0.0-4.14-0.14,guk1ocoej98,2022-09-19 16:21:47.555,59a2f6d14d25e800012fcbde,0,55,57,17,16,27,Male,,,"<img src=""static/images/cards/stack_of_red_moons.svg"" width=""175px"" height=""250px""></img>",,,,,,,,,,,,,,,,,,,,,,,,,,,,
95,0,,html-keyboard-response,95,956931,0.0-4.14-1.14,guk1ocoej98,2022-09-19 16:21:47.555,59a2f6d14d25e800012fcbde,0,55,57,17,16,27,Male,1665.7999999989,,"
  <table>
  <tr height=300>
    <td width=300 height=300><img src=""static/images/cards/back_of_red_moons.svg"" width=""175px"" height=""250px""></img></td>
    <td width=300 height=300><img src=""static/images/cards/back_of_red_moons.svg"" width=""175px"" height=""250px""></img></td>
  </tr>
  <tr height=200>
    <td width=300><img src=""static/images/keys/z.svg"" width=""35%"" height=""75%""></img></td>
    <td width=300><img src=""static/images/keys/m.svg"" width=""35%"" height=""75%""></img></td>
  </tr>
</table>
  ",77.0,1.0,,,,,,,,,,,,,,,,,,,,,,,,,,
96,0,,html-keyboard-response,96,958437,0.0-4.14-2.14,guk1ocoej98,2022-09-19 16:21:47.555,59a2f6d14d25e800012fcbde,0,55,57,17,16,27,Male,,,"
  <table>
  <tr height=300>
    <td width=300 height=300><img src=""static/images/cards/back_of_red_moons.svg"" width=""175px"" height=""250px""></img></td>
    <td width=300 height=300><img src=""static/images/cards/4_of_red_moons.svg"" width=""175px"" height=""250px""></img></td>
  </tr>
  <tr height=200>
    <td width=300><img src=""static/images/keys/z.svg"" width=""35%"" height=""75%""></img></td>
    <td width=300><img src=""static/images/keys/m.svg"" width=""35%"" height=""75%""></img></td>
  </tr>
</table>
  ",,,,,,,,,,,,,,,,,,,,,,,,,,,,
97,0,,html-keyboard-response,97,959949,0.0-4.14-3.14,guk1ocoej98,2022-09-19 16:21:47.555,59a2f6d14d25e800012fcbde,0,55,57,17,16,27,Male,,,"<p style=""font-size:50px"">You Lose!
No points this round.</p>",,,,,,,,,,,,,,,,,,,,,,,,,,,,
98,0,,html-keyboard-response,98,960458,0.0-4.14-4.14,guk1ocoej98,2022-09-19 16:21:47.555,59a2f6d14d25e800012fcbde,0,55,57,17,16,27,Male,,,,,,1.0,learning,14.0,C,,red,,moons,,,,C,red,moons,,1.0,0.0,NA,right,1665.7999999989,4.0,0.0,0.0,,,
99,0,,html-keyboard-response,99,961967,0.0-4.15-0.15,guk1ocoej98,2022-09-19 16:21:47.555,59a2f6d14d25e800012fcbde,0,55,57,17,16,27,Male,,,"<img src=""static/images/cards/stack_of_black_moons.svg"" width=""175px"" height=""250px""></img>",,,,,,,,,,,,,,,,,,,,,,,,,,,,
100,0,,html-keyboard-response,100,963020,0.0-4.15-1.15,guk1ocoej98,2022-09-19 16:21:47.555,59a2f6d14d25e800012fcbde,0,55,57,17,16,27,Male,537.3000000007,,"
  <table>
  <tr height=300>
    <td width=300 height=300><img src=""static/images/cards/back_of_black_moons.svg"" width=""175px"" height=""250px""></img></td>
    <td width=300 height=300><img src=""static/images/cards/back_of_black_moons.svg"" width=""175px"" height=""250px""></img></td>
  </tr>
  <tr height=200>
    <td width=300></td>
    <td width=300><img src=""static/images/keys/m.svg"" width=""35%"" height=""75%""></img></td>
  </tr>
</table>
  ",77.0,1.0,,,,,,,,,,,,,,,,,,,,,,,,,,
101,0,,html-keyboard-response,101,964522,0.0-4.15-2.15,guk1ocoej98,2022-09-19 16:21:47.555,59a2f6d14d25e800012fcbde,0,55,57,17,16,27,Male,,,"
  <table>
  <tr height=300>
    <td width=300 height=300><img src=""static/images/cards/back_of_black_moons.svg"" width=""175px"" height=""250px""></img></td>
    <td width=300 height=300><img src=""static/images/cards/1_of_black_moons.svg"" width=""175px"" height=""250px""></img></td>
  </tr>
  <tr height=200>
    <td width=300></td>
    <td width=300><img src=""static/images/keys/m.svg"" width=""35%"" height=""75%""></img></td>
  </tr>
</table>
  ",,,,,,,,,,,,,,,,,,,,,,,,,,,,
102,0,,html-keyboard-response,102,966031,0.0-4.15-3.15,guk1ocoej98,2022-09-19 16:21:47.555,59a2f6d14d25e800012fcbde,0,55,57,17,16,27,Male,,,"<p style=""font-size:50px"">You Lose!
No points this round.</p>",,,,,,,,,,,,,,,,,,,,,,,,,,,,
103,0,,html-keyboard-response,103,966544,0.0-4.15-4.15,guk1ocoej98,2022-09-19 16:21:47.555,59a2f6d14d25e800012fcbde,0,55,57,17,16,27,Male,,,,,,1.0,learning,15.0,D,,black,,moons,,,,D,black,moons,,0.0,0.0,0,right,537.3000000007,1.0,0.0,0.0,,,
104,0,,html-keyboard-response,104,968047,0.0-4.16-0.16,guk1ocoej98,2022-09-19 16:21:47.555,59a2f6d14d25e800012fcbde,0,55,57,17,16,27,Male,,,"<img src=""static/images/cards/stack_of_red_bolts.svg"" width=""175px"" height=""250px""></img>",,,,,,,,,,,,,,,,,,,,,,,,,,,,
105,0,,html-keyboard-response,105,969156,0.0-4.16-1.16,guk1ocoej98,2022-09-19 16:21:47.555,59a2f6d14d25e800012fcbde,0,55,57,17,16,27,Male,593.0,,"
  <table>
  <tr height=300>
    <td width=300 height=300><img src=""static/images/cards/back_of_red_bolts.svg"" width=""175px"" height=""250px""></img></td>
    <td width=300 height=300><img src=""static/images/cards/back_of_red_bolts.svg"" width=""175px"" height=""250px""></img></td>
  </tr>
  <tr height=200>
    <td width=300><img src=""static/images/keys/z.svg"" width=""35%"" height=""75%""></img></td>
    <td width=300><img src=""static/images/keys/m.svg"" width=""35%"" height=""75%""></img></td>
  </tr>
</table>
  ",90.0,1.0,,,,,,,,,,,,,,,,,,,,,,,,,,
106,0,,html-keyboard-response,106,970662,0.0-4.16-2.16,guk1ocoej98,2022-09-19 16:21:47.555,59a2f6d14d25e800012fcbde,0,55,57,17,16,27,Male,,,"
  <table>
  <tr height=300>
    <td width=300 height=300><img src=""static/images/cards/4_of_red_bolts.svg"" width=""175px"" height=""250px""></img></td>
    <td width=300 height=300><img src=""static/images/cards/back_of_red_bolts.svg"" width=""175px"" height=""250px""></img></td>
  </tr>
  <tr height=200>
    <td width=300><img src=""static/images/keys/z.svg"" width=""35%"" height=""75%""></img></td>
    <td width=300><img src=""static/images/keys/m.svg"" width=""35%"" height=""75%""></img></td>
  </tr>
</table>
  ",,,,,,,,,,,,,,,,,,,,,,,,,,,,
107,0,,html-keyboard-response,107,972185,0.0-4.16-3.16,guk1ocoej98,2022-09-19 16:21:47.555,59a2f6d14d25e800012fcbde,0,55,57,17,16,27,Male,,,"<p style=""font-size:50px"">You win!
+10 points this round!</p>",,,,,,,,,,,,,,,,,,,,,,,,,,,,
108,0,,html-keyboard-response,108,972693,0.0-4.16-4.16,guk1ocoej98,2022-09-19 16:21:47.555,59a2f6d14d25e800012fcbde,0,55,57,17,16,27,Male,,,,,,1.0,learning,16.0,Xc,,red,,bolts,,,,Xc,red,bolts,,1.0,0.0,NA,left,593.0,4.0,0.0,1.0,,,
109,0,,html-keyboard-response,109,974208,0.0-4.17-0.17,guk1ocoej98,2022-09-19 16:21:47.555,59a2f6d14d25e800012fcbde,0,55,57,17,16,27,Male,,,"<img src=""static/images/cards/stack_of_black_bolts.svg"" width=""175px"" height=""250px""></img>",,,,,,,,,,,,,,,,,,,,,,,,,,,,
110,0,,html-keyboard-response,110,975085,0.0-4.17-1.17,guk1ocoej98,2022-09-19 16:21:47.555,59a2f6d14d25e800012fcbde,0,55,57,17,16,27,Male,373.4000000004,,"
  <table>
  <tr height=300>
    <td width=300 height=300><img src=""static/images/cards/back_of_black_bolts.svg"" width=""175px"" height=""250px""></img></td>
    <td width=300 height=300><img src=""static/images/cards/back_of_black_bolts.svg"" width=""175px"" height=""250px""></img></td>
  </tr>
  <tr height=200>
    <td width=300></td>
    <td width=300><img src=""static/images/keys/m.svg"" width=""35%"" height=""75%""></img></td>
  </tr>
</table>
  ",77.0,1.0,,,,,,,,,,,,,,,,,,,,,,,,,,
111,0,,html-keyboard-response,111,976593,0.0-4.17-2.17,guk1ocoej98,2022-09-19 16:21:47.555,59a2f6d14d25e800012fcbde,0,55,57,17,16,27,Male,,,"
  <table>
  <tr height=300>
    <td width=300 height=300><img src=""static/images/cards/back_of_black_bolts.svg"" width=""175px"" height=""250px""></img></td>
    <td width=300 height=300><img src=""static/images/cards/6_of_black_bolts.svg"" width=""175px"" height=""250px""></img></td>
  </tr>
  <tr height=200>
    <td width=300></td>
    <td width=300><img src=""static/images/keys/m.svg"" width=""35%"" height=""75%""></img></td>
  </tr>
</table>
  ",,,,,,,,,,,,,,,,,,,,,,,,,,,,
112,0,,html-keyboard-response,112,978108,0.0-4.17-3.17,guk1ocoej98,2022-09-19 16:21:47.555,59a2f6d14d25e800012fcbde,0,55,57,17,16,27,Male,,,"<p style=""font-size:50px"">You win!
+10 points this round!</p>",,,,,,,,,,,,,,,,,,,,,,,,,,,,
113,0,,html-keyboard-response,113,978617,0.0-4.17-4.17,guk1ocoej98,2022-09-19 16:21:47.555,59a2f6d14d25e800012fcbde,0,55,57,17,16,27,Male,,,,,,1.0,learning,17.0,Xnc,,black,,bolts,,,,Xnc,black,bolts,,0.0,0.0,0,right,373.4000000004,6.0,1.0,1.0,,,
114,0,,html-keyboard-response,114,980129,0.0-4.18-0.18,guk1ocoej98,2022-09-19 16:21:47.555,59a2f6d14d25e800012fcbde,0,55,57,17,16,27,Male,,,"<img src=""static/images/cards/stack_of_red_stars.svg"" width=""175px"" height=""250px""></img>",,,,,,,,,,,,,,,,,,,,,,,,,,,,
115,0,,html-keyboard-response,115,981109,0.0-4.18-1.18,guk1ocoej98,2022-09-19 16:21:47.555,59a2f6d14d25e800012fcbde,0,55,57,17,16,27,Male,473.9000000004,,"
  <table>
  <tr height=300>
    <td width=300 height=300><img src=""static/images/cards/back_of_red_stars.svg"" width=""175px"" height=""250px""></img></td>
    <td width=300 height=300><img src=""static/images/cards/back_of_red_stars.svg"" width=""175px"" height=""250px""></img></td>
  </tr>
  <tr height=200>
    <td width=300><img src=""static/images/keys/z.svg"" width=""35%"" height=""75%""></img></td>
    <td width=300><img src=""static/images/keys/m.svg"" width=""35%"" height=""75%""></img></td>
  </tr>
</table>
  ",90.0,1.0,,,,,,,,,,,,,,,,,,,,,,,,,,
116,0,,html-keyboard-response,116,982625,0.0-4.18-2.18,guk1ocoej98,2022-09-19 16:21:47.555,59a2f6d14d25e800012fcbde,0,55,57,17,16,27,Male,,,"
  <table>
  <tr height=300>
    <td width=300 height=300><img src=""static/images/cards/8_of_red_stars.svg"" width=""175px"" height=""250px""></img></td>
    <td width=300 height=300><img src=""static/images/cards/back_of_red_stars.svg"" width=""175px"" height=""250px""></img></td>
  </tr>
  <tr height=200>
    <td width=300><img src=""static/images/keys/z.svg"" width=""35%"" height=""75%""></img></td>
    <td width=300><img src=""static/images/keys/m.svg"" width=""35%"" height=""75%""></img></td>
  </tr>
</table>
  ",,,,,,,,,,,,,,,,,,,,,,,,,,,,
117,0,,html-keyboard-response,117,984140,0.0-4.18-3.18,guk1ocoej98,2022-09-19 16:21:47.555,59a2f6d14d25e800012fcbde,0,55,57,17,16,27,Male,,,"<p style=""font-size:50px"">You win!
+10 points this round!</p>",,,,,,,,,,,,,,,,,,,,,,,,,,,,
118,0,,html-keyboard-response,118,984661,0.0-4.18-4.18,guk1ocoej98,2022-09-19 16:21:47.555,59a2f6d14d25e800012fcbde,0,55,57,17,16,27,Male,,,,,,1.0,learning,18.0,A,,red,,stars,,,,A,red,stars,,1.0,1.0,NA,left,473.9000000004,8.0,1.0,1.0,,,
119,0,,html-keyboard-response,119,986164,0.0-4.19-0.19,guk1ocoej98,2022-09-19 16:21:47.555,59a2f6d14d25e800012fcbde,0,55,57,17,16,27,Male,,,"<img src=""static/images/cards/stack_of_black_stars.svg"" width=""175px"" height=""250px""></img>",,,,,,,,,,,,,,,,,,,,,,,,,,,,
120,0,,html-keyboard-response,120,987342,0.0-4.19-1.19,guk1ocoej98,2022-09-19 16:21:47.555,59a2f6d14d25e800012fcbde,0,55,57,17,16,27,Male,668.1999999993,,"
  <table>
  <tr height=300>
    <td width=300 height=300><img src=""static/images/cards/back_of_black_stars.svg"" width=""175px"" height=""250px""></img></td>
    <td width=300 height=300><img src=""static/images/cards/back_of_black_stars.svg"" width=""175px"" height=""250px""></img></td>
  </tr>
  <tr height=200>
    <td width=300><img src=""static/images/keys/z.svg"" width=""35%"" height=""75%""></img></td>
    <td width=300></td>
  </tr>
</table>
  ",90.0,2.0,,,,,,,,,,,,,,,,,,,,,,,,,,
121,0,,html-keyboard-response,121,988850,0.0-4.19-2.19,guk1ocoej98,2022-09-19 16:21:47.555,59a2f6d14d25e800012fcbde,0,55,57,17,16,27,Male,,,"
  <table>
  <tr height=300>
    <td width=300 height=300><img src=""static/images/cards/3_of_black_stars.svg"" width=""175px"" height=""250px""></img></td>
    <td width=300 height=300><img src=""static/images/cards/back_of_black_stars.svg"" width=""175px"" height=""250px""></img></td>
  </tr>
  <tr height=200>
    <td width=300><img src=""static/images/keys/z.svg"" width=""35%"" height=""75%""></img></td>
    <td width=300></td>
  </tr>
</table>
  ",,,,,,,,,,,,,,,,,,,,,,,,,,,,
122,0,,html-keyboard-response,122,990353,0.0-4.19-3.19,guk1ocoej98,2022-09-19 16:21:47.555,59a2f6d14d25e800012fcbde,0,55,57,17,16,27,Male,,,"<p style=""font-size:50px"">You Lose!
No points this round.</p>",,,,,,,,,,,,,,,,,,,,,,,,,,,,
123,0,,html-keyboard-response,123,990873,0.0-4.19-4.19,guk1ocoej98,2022-09-19 16:21:47.555,59a2f6d14d25e800012fcbde,0,55,57,17,16,27,Male,,,,,,1.0,learning,19.0,B,,black,,stars,,,,B,black,stars,,0.0,1.0,1,left,668.1999999993,3.0,0.0,0.0,,,
124,0,,html-keyboard-response,124,992377,0.0-4.20-0.20,guk1ocoej98,2022-09-19 16:21:47.555,59a2f6d14d25e800012fcbde,0,55,57,17,16,27,Male,,,"<img src=""static/images/cards/stack_of_red_moons.svg"" width=""175px"" height=""250px""></img>",,,,,,,,,,,,,,,,,,,,,,,,,,,,
125,0,,html-keyboard-response,125,993575,0.0-4.20-1.20,guk1ocoej98,2022-09-19 16:21:47.555,59a2f6d14d25e800012fcbde,0,55,57,17,16,27,Male,693.8000000007,,"
  <table>
  <tr height=300>
    <td width=300 height=300><img src=""static/images/cards/back_of_red_moons.svg"" width=""175px"" height=""250px""></img></td>
    <td width=300 height=300><img src=""static/images/cards/back_of_red_moons.svg"" width=""175px"" height=""250px""></img></td>
  </tr>
  <tr height=200>
    <td width=300><img src=""static/images/keys/z.svg"" width=""35%"" height=""75%""></img></td>
    <td width=300><img src=""static/images/keys/m.svg"" width=""35%"" height=""75%""></img></td>
  </tr>
</table>
  ",90.0,1.0,,,,,,,,,,,,,,,,,,,,,,,,,,
126,0,,html-keyboard-response,126,995088,0.0-4.20-2.20,guk1ocoej98,2022-09-19 16:21:47.555,59a2f6d14d25e800012fcbde,0,55,57,17,16,27,Male,,,"
  <table>
  <tr height=300>
    <td width=300 height=300><img src=""static/images/cards/1_of_red_moons.svg"" width=""175px"" height=""250px""></img></td>
    <td width=300 height=300><img src=""static/images/cards/back_of_red_moons.svg"" width=""175px"" height=""250px""></img></td>
  </tr>
  <tr height=200>
    <td width=300><img src=""static/images/keys/z.svg"" width=""35%"" height=""75%""></img></td>
    <td width=300><img src=""static/images/keys/m.svg"" width=""35%"" height=""75%""></img></td>
  </tr>
</table>
  ",,,,,,,,,,,,,,,,,,,,,,,,,,,,
127,0,,html-keyboard-response,127,996601,0.0-4.20-3.20,guk1ocoej98,2022-09-19 16:21:47.555,59a2f6d14d25e800012fcbde,0,55,57,17,16,27,Male,,,"<p style=""font-size:50px"">You Lose!
No points this round.</p>",,,,,,,,,,,,,,,,,,,,,,,,,,,,
128,0,,html-keyboard-response,128,997111,0.0-4.20-4.20,guk1ocoej98,2022-09-19 16:21:47.555,59a2f6d14d25e800012fcbde,0,55,57,17,16,27,Male,,,,,,1.0,learning,20.0,C,,red,,moons,,,,C,red,moons,,1.0,0.0,NA,left,693.8000000007,1.0,0.0,0.0,,,
129,0,,html-keyboard-response,129,998622,0.0-4.21-0.21,guk1ocoej98,2022-09-19 16:21:47.555,59a2f6d14d25e800012fcbde,0,55,57,17,16,27,Male,,,"<img src=""static/images/cards/stack_of_black_moons.svg"" width=""175px"" height=""250px""></img>",,,,,,,,,,,,,,,,,,,,,,,,,,,,
130,0,,html-keyboard-response,130,999888,0.0-4.21-1.21,guk1ocoej98,2022-09-19 16:21:47.555,59a2f6d14d25e800012fcbde,0,55,57,17,16,27,Male,763.8000000007,,"
  <table>
  <tr height=300>
    <td width=300 height=300><img src=""static/images/cards/back_of_black_moons.svg"" width=""175px"" height=""250px""></img></td>
    <td width=300 height=300><img src=""static/images/cards/back_of_black_moons.svg"" width=""175px"" height=""250px""></img></td>
  </tr>
  <tr height=200>
    <td width=300><img src=""static/images/keys/z.svg"" width=""35%"" height=""75%""></img></td>
    <td width=300></td>
  </tr>
</table>
  ",90.0,2.0,,,,,,,,,,,,,,,,,,,,,,,,,,
131,0,,html-keyboard-response,131,1001392,0.0-4.21-2.21,guk1ocoej98,2022-09-19 16:21:47.555,59a2f6d14d25e800012fcbde,0,55,57,17,16,27,Male,,,"
  <table>
  <tr height=300>
    <td width=300 height=300><img src=""static/images/cards/6_of_black_moons.svg"" width=""175px"" height=""250px""></img></td>
    <td width=300 height=300><img src=""static/images/cards/back_of_black_moons.svg"" width=""175px"" height=""250px""></img></td>
  </tr>
  <tr height=200>
    <td width=300><img src=""static/images/keys/z.svg"" width=""35%"" height=""75%""></img></td>
    <td width=300></td>
  </tr>
</table>
  ",,,,,,,,,,,,,,,,,,,,,,,,,,,,
132,0,,html-keyboard-response,132,1002898,0.0-4.21-3.21,guk1ocoej98,2022-09-19 16:21:47.555,59a2f6d14d25e800012fcbde,0,55,57,17,16,27,Male,,,"<p style=""font-size:50px"">You Lose!
No points this round.</p>",,,,,,,,,,,,,,,,,,,,,,,,,,,,
133,0,,html-keyboard-response,133,1003406,0.0-4.21-4.21,guk1ocoej98,2022-09-19 16:21:47.555,59a2f6d14d25e800012fcbde,0,55,57,17,16,27,Male,,,,,,1.0,learning,21.0,D,,black,,moons,,,,D,black,moons,,0.0,0.0,1,left,763.8000000007,6.0,1.0,0.0,,,
134,0,,html-keyboard-response,134,1004922,0.0-4.22-0.22,guk1ocoej98,2022-09-19 16:21:47.555,59a2f6d14d25e800012fcbde,0,55,57,17,16,27,Male,,,"<img src=""static/images/cards/stack_of_red_bolts.svg"" width=""175px"" height=""250px""></img>",,,,,,,,,,,,,,,,,,,,,,,,,,,,
135,0,,html-keyboard-response,135,1005824,0.0-4.22-1.22,guk1ocoej98,2022-09-19 16:21:47.555,59a2f6d14d25e800012fcbde,0,55,57,17,16,27,Male,397.7999999989,,"
  <table>
  <tr height=300>
    <td width=300 height=300><img src=""static/images/cards/back_of_red_bolts.svg"" width=""175px"" height=""250px""></img></td>
    <td width=300 height=300><img src=""static/images/cards/back_of_red_bolts.svg"" width=""175px"" height=""250px""></img></td>
  </tr>
  <tr height=200>
    <td width=300><img src=""static/images/keys/z.svg"" width=""35%"" height=""75%""></img></td>
    <td width=300><img src=""static/images/keys/m.svg"" width=""35%"" height=""75%""></img></td>
  </tr>
</table>
  ",77.0,1.0,,,,,,,,,,,,,,,,,,,,,,,,,,
136,0,,html-keyboard-response,136,1007336,0.0-4.22-2.22,guk1ocoej98,2022-09-19 16:21:47.555,59a2f6d14d25e800012fcbde,0,55,57,17,16,27,Male,,,"
  <table>
  <tr height=300>
    <td width=300 height=300><img src=""static/images/cards/back_of_red_bolts.svg"" width=""175px"" height=""250px""></img></td>
    <td width=300 height=300><img src=""static/images/cards/4_of_red_bolts.svg"" width=""175px"" height=""250px""></img></td>
  </tr>
  <tr height=200>
    <td width=300><img src=""static/images/keys/z.svg"" width=""35%"" height=""75%""></img></td>
    <td width=300><img src=""static/images/keys/m.svg"" width=""35%"" height=""75%""></img></td>
  </tr>
</table>
  ",,,,,,,,,,,,,,,,,,,,,,,,,,,,
137,0,,html-keyboard-response,137,1008843,0.0-4.22-3.22,guk1ocoej98,2022-09-19 16:21:47.555,59a2f6d14d25e800012fcbde,0,55,57,17,16,27,Male,,,"<p style=""font-size:50px"">You win!
+10 points this round!</p>",,,,,,,,,,,,,,,,,,,,,,,,,,,,
138,0,,html-keyboard-response,138,1009349,0.0-4.22-4.22,guk1ocoej98,2022-09-19 16:21:47.555,59a2f6d14d25e800012fcbde,0,55,57,17,16,27,Male,,,,,,1.0,learning,22.0,Xc,,red,,bolts,,,,Xc,red,bolts,,1.0,0.0,NA,right,397.7999999989,4.0,0.0,1.0,,,
139,0,,html-keyboard-response,139,1010852,0.0-4.23-0.23,guk1ocoej98,2022-09-19 16:21:47.555,59a2f6d14d25e800012fcbde,0,55,57,17,16,27,Male,,,"<img src=""static/images/cards/stack_of_black_bolts.svg"" width=""175px"" height=""250px""></img>",,,,,,,,,,,,,,,,,,,,,,,,,,,,
140,0,,html-keyboard-response,140,1012329,0.0-4.23-1.23,guk1ocoej98,2022-09-19 16:21:47.555,59a2f6d14d25e800012fcbde,0,55,57,17,16,27,Male,974.5,,"
  <table>
  <tr height=300>
    <td width=300 height=300><img src=""static/images/cards/back_of_black_bolts.svg"" width=""175px"" height=""250px""></img></td>
    <td width=300 height=300><img src=""static/images/cards/back_of_black_bolts.svg"" width=""175px"" height=""250px""></img></td>
  </tr>
  <tr height=200>
    <td width=300></td>
    <td width=300><img src=""static/images/keys/m.svg"" width=""35%"" height=""75%""></img></td>
  </tr>
</table>
  ",77.0,1.0,,,,,,,,,,,,,,,,,,,,,,,,,,
141,0,,html-keyboard-response,141,1013834,0.0-4.23-2.23,guk1ocoej98,2022-09-19 16:21:47.555,59a2f6d14d25e800012fcbde,0,55,57,17,16,27,Male,,,"
  <table>
  <tr height=300>
    <td width=300 height=300><img src=""static/images/cards/back_of_black_bolts.svg"" width=""175px"" height=""250px""></img></td>
    <td width=300 height=300><img src=""static/images/cards/3_of_black_bolts.svg"" width=""175px"" height=""250px""></img></td>
  </tr>
  <tr height=200>
    <td width=300></td>
    <td width=300><img src=""static/images/keys/m.svg"" width=""35%"" height=""75%""></img></td>
  </tr>
</table>
  ",,,,,,,,,,,,,,,,,,,,,,,,,,,,
142,0,,html-keyboard-response,142,1015341,0.0-4.23-3.23,guk1ocoej98,2022-09-19 16:21:47.555,59a2f6d14d25e800012fcbde,0,55,57,17,16,27,Male,,,"<p style=""font-size:50px"">You win!
+10 points this round!</p>",,,,,,,,,,,,,,,,,,,,,,,,,,,,
143,0,,html-keyboard-response,143,1015856,0.0-4.23-4.23,guk1ocoej98,2022-09-19 16:21:47.555,59a2f6d14d25e800012fcbde,0,55,57,17,16,27,Male,,,,,,1.0,learning,23.0,Xnc,,black,,bolts,,,,Xnc,black,bolts,,0.0,0.0,0,right,974.5,3.0,0.0,1.0,,,
144,0,,call-function,144,1015860,0.0-5.0,guk1ocoej98,2022-09-19 16:21:47.555,59a2f6d14d25e800012fcbde,0,55,57,17,16,27,Male,,,,,,,,,,,,,,,,,,,,,,,,,,,,,,,
145,0,,image-keyboard-response,145,1438418,0.0-6.0-0.0,guk1ocoej98,2022-09-19 16:21:47.555,59a2f6d14d25e800012fcbde,0,55,57,17,16,27,Male,422557.0999999996,,static/images/instructions_CB_0/Slide20.png,39.0,,,,,,,,,,,,,,,,,,,,,,,,,,,
146,0,,image-keyboard-response,146,1445811,0.0-6.1-0.1,guk1ocoej98,2022-09-19 16:21:47.555,59a2f6d14d25e800012fcbde,0,55,57,17,16,27,Male,7392.0,,static/images/instructions_CB_0/Slide21.png,37.0,,,,,,,,,,,,,,,,,,,,,,,,,,,
147,0,,image-keyboard-response,147,1448403,0.0-6.2-0.2,guk1ocoej98,2022-09-19 16:21:47.555,59a2f6d14d25e800012fcbde,0,55,57,17,16,27,Male,2591.7999999989,,static/images/instructions_CB_0/Slide20.png,39.0,,,,,,,,,,,,,,,,,,,,,,,,,,,
148,0,,image-keyboard-response,148,1457156,0.0-6.3-0.3,guk1ocoej98,2022-09-19 16:21:47.555,59a2f6d14d25e800012fcbde,0,55,57,17,16,27,Male,8752.0999999996,,static/images/instructions_CB_0/Slide21.png,39.0,,,,,,,,,,,,,,,,,,,,,,,,,,,
149,0,,image-keyboard-response,149,1458124,0.0-6.4-0.4,guk1ocoej98,2022-09-19 16:21:47.555,59a2f6d14d25e800012fcbde,0,55,57,17,16,27,Male,966.4000000004,,static/images/instructions_CB_0/Slide22.png,37.0,,,,,,,,,,,,,,,,,,,,,,,,,,,
150,0,,image-keyboard-response,150,1462045,0.0-6.5-0.5,guk1ocoej98,2022-09-19 16:21:47.555,59a2f6d14d25e800012fcbde,0,55,57,17,16,27,Male,3920.2000000011,,static/images/instructions_CB_0/Slide21.png,39.0,,,,,,,,,,,,,,,,,,,,,,,,,,,
151,0,,image-keyboard-response,151,1466589,0.0-6.6-0.6,guk1ocoej98,2022-09-19 16:21:47.555,59a2f6d14d25e800012fcbde,0,55,57,17,16,27,Male,4543.6999999993,,static/images/instructions_CB_0/Slide22.png,39.0,,,,,,,,,,,,,,,,,,,,,,,,,,,
152,0,,image-keyboard-response,152,1467245,0.0-6.7-0.7,guk1ocoej98,2022-09-19 16:21:47.555,59a2f6d14d25e800012fcbde,0,55,57,17,16,27,Male,655.5999999996,,static/images/instructions_CB_0/Slide23.png,39.0,,,,,,,,,,,,,,,,,,,,,,,,,,,
153,0,,image-keyboard-response,153,1469230,0.0-6.8-0.8,guk1ocoej98,2022-09-19 16:21:47.555,59a2f6d14d25e800012fcbde,0,55,57,17,16,27,Male,1984.1000000015,,static/images/instructions_CB_0/Slide24.png,39.0,,,,,,,,,,,,,,,,,,,,,,,,,,,
154,0,,html-keyboard-response,154,1471302,0.0-7.0-0.0,guk1ocoej98,2022-09-19 16:21:47.555,59a2f6d14d25e800012fcbde,0,55,57,17,16,27,Male,2070.7000000011,,"
  <table>
  <tr height=300>
    <td width=300 height=300><img src=""static/images/cards/stack_of_red_stars.svg"" width=""175px"" height=""250px""></img></td>
    <td width=300 height=300><img src=""static/images/cards/stack_of_black_moons.svg"" width=""175px"" height=""250px""></img></td>
  </tr>
  <tr height=200>
    <td width=300><img src=""static/images/keys/w.svg"" width=""35%"" height=""75%""></img></td>
    <td width=300><img src=""static/images/keys/o.svg"" width=""35%"" height=""75%""></img></td>
  </tr>
</table>
  ",87.0,1.0,,,,,,,,,,,,,,,,,,,,,,,,,,
155,0,,html-keyboard-response,155,1473278,0.0-7.0-1.0,guk1ocoej98,2022-09-19 16:21:47.555,59a2f6d14d25e800012fcbde,0,55,57,17,16,27,Male,1462.5,,"
  <table>
  <tr height=300>
    <td width=300 height=300><img src=""static/images/cards/back_of_red_stars.svg"" width=""175px"" height=""250px""></img></td>
    <td width=300 height=300><img src=""static/images/cards/back_of_red_stars.svg"" width=""175px"" height=""250px""></img></td>
  </tr>
  <tr height=200>
    <td width=300><img src=""static/images/keys/z.svg"" width=""35%"" height=""75%""></img></td>
    <td width=300><img src=""static/images/keys/m.svg"" width=""35%"" height=""75%""></img></td>
  </tr>
</table>
  ",90.0,1.0,,,,,,,,,,,,,,,,,,,,,,,,,,
156,0,,html-keyboard-response,156,1474785,0.0-7.0-2.0,guk1ocoej98,2022-09-19 16:21:47.555,59a2f6d14d25e800012fcbde,0,55,57,17,16,27,Male,,,"
  <table>
  <tr height=300>
    <td width=300 height=300><img src=""static/images/cards/9_of_red_stars.svg"" width=""175px"" height=""250px""></img></td>
    <td width=300 height=300><img src=""static/images/cards/back_of_red_stars.svg"" width=""175px"" height=""250px""></img></td>
  </tr>
  <tr height=200>
    <td width=300><img src=""static/images/keys/z.svg"" width=""35%"" height=""75%""></img></td>
    <td width=300><img src=""static/images/keys/m.svg"" width=""35%"" height=""75%""></img></td>
  </tr>
</table>
  ",,,,,,,,,,,,,,,,,,,,,,,,,,,,
157,0,,html-keyboard-response,157,1476302,0.0-7.0-3.0,guk1ocoej98,2022-09-19 16:21:47.555,59a2f6d14d25e800012fcbde,0,55,57,17,16,27,Male,,,"<p style=""font-size:50px"">You win!
+10 points this round!</p>",,,,,,,,,,,,,,,,,,,,,,,,,,,,
158,0,,html-keyboard-response,158,1476814,0.0-7.0-4.0,guk1ocoej98,2022-09-19 16:21:47.555,59a2f6d14d25e800012fcbde,0,55,57,17,16,27,Male,,,,,,1.0,choice,0.0,A,D,red,black,stars,moons,A,D,A,red,stars,2070.7000000011,1.0,1.0,NA,left,1462.5,9.0,1.0,1.0,,,
159,0,,html-keyboard-response,159,1478463,0.0-7.1-0.1,guk1ocoej98,2022-09-19 16:21:47.555,59a2f6d14d25e800012fcbde,0,55,57,17,16,27,Male,1647.3000000007,,"
  <table>
  <tr height=300>
    <td width=300 height=300><img src=""static/images/cards/stack_of_red_moons.svg"" width=""175px"" height=""250px""></img></td>
    <td width=300 height=300><img src=""static/images/cards/stack_of_red_stars.svg"" width=""175px"" height=""250px""></img></td>
  </tr>
  <tr height=200>
    <td width=300><img src=""static/images/keys/w.svg"" width=""35%"" height=""75%""></img></td>
    <td width=300><img src=""static/images/keys/o.svg"" width=""35%"" height=""75%""></img></td>
  </tr>
</table>
  ",79.0,1.0,,,,,,,,,,,,,,,,,,,,,,,,,,
160,0,,html-keyboard-response,160,1479991,0.0-7.1-1.1,guk1ocoej98,2022-09-19 16:21:47.555,59a2f6d14d25e800012fcbde,0,55,57,17,16,27,Male,1020.9000000004,,"
  <table>
  <tr height=300>
    <td width=300 height=300><img src=""static/images/cards/back_of_red_stars.svg"" width=""175px"" height=""250px""></img></td>
    <td width=300 height=300><img src=""static/images/cards/back_of_red_stars.svg"" width=""175px"" height=""250px""></img></td>
  </tr>
  <tr height=200>
    <td width=300><img src=""static/images/keys/z.svg"" width=""35%"" height=""75%""></img></td>
    <td width=300><img src=""static/images/keys/m.svg"" width=""35%"" height=""75%""></img></td>
  </tr>
</table>
  ",90.0,1.0,,,,,,,,,,,,,,,,,,,,,,,,,,
161,0,,html-keyboard-response,161,1481499,0.0-7.1-2.1,guk1ocoej98,2022-09-19 16:21:47.555,59a2f6d14d25e800012fcbde,0,55,57,17,16,27,Male,,,"
  <table>
  <tr height=300>
    <td width=300 height=300><img src=""static/images/cards/1_of_red_stars.svg"" width=""175px"" height=""250px""></img></td>
    <td width=300 height=300><img src=""static/images/cards/back_of_red_stars.svg"" width=""175px"" height=""250px""></img></td>
  </tr>
  <tr height=200>
    <td width=300><img src=""static/images/keys/z.svg"" width=""35%"" height=""75%""></img></td>
    <td width=300><img src=""static/images/keys/m.svg"" width=""35%"" height=""75%""></img></td>
  </tr>
</table>
  ",,,,,,,,,,,,,,,,,,,,,,,,,,,,
162,0,,html-keyboard-response,162,1483011,0.0-7.1-3.1,guk1ocoej98,2022-09-19 16:21:47.555,59a2f6d14d25e800012fcbde,0,55,57,17,16,27,Male,,,"<p style=""font-size:50px"">You Lose!
No points this round.</p>",,,,,,,,,,,,,,,,,,,,,,,,,,,,
163,0,,html-keyboard-response,163,1483521,0.0-7.1-4.1,guk1ocoej98,2022-09-19 16:21:47.555,59a2f6d14d25e800012fcbde,0,55,57,17,16,27,Male,,,,,,1.0,choice,1.0,A,C,red,red,moons,stars,C,A,A,red,stars,1647.3000000007,1.0,1.0,NA,left,1020.9000000004,1.0,0.0,0.0,,,
164,0,,html-keyboard-response,164,1485615,0.0-7.2-0.2,guk1ocoej98,2022-09-19 16:21:47.555,59a2f6d14d25e800012fcbde,0,55,57,17,16,27,Male,2093.5,,"
  <table>
  <tr height=300>
    <td width=300 height=300><img src=""static/images/cards/stack_of_red_stars.svg"" width=""175px"" height=""250px""></img></td>
    <td width=300 height=300><img src=""static/images/cards/stack_of_black_moons.svg"" width=""175px"" height=""250px""></img></td>
  </tr>
  <tr height=200>
    <td width=300><img src=""static/images/keys/w.svg"" width=""35%"" height=""75%""></img></td>
    <td width=300><img src=""static/images/keys/o.svg"" width=""35%"" height=""75%""></img></td>
  </tr>
</table>
  ",87.0,1.0,,,,,,,,,,,,,,,,,,,,,,,,,,
165,0,,html-keyboard-response,165,1487407,0.0-7.2-1.2,guk1ocoej98,2022-09-19 16:21:47.555,59a2f6d14d25e800012fcbde,0,55,57,17,16,27,Male,1281.0,,"
  <table>
  <tr height=300>
    <td width=300 height=300><img src=""static/images/cards/back_of_red_stars.svg"" width=""175px"" height=""250px""></img></td>
    <td width=300 height=300><img src=""static/images/cards/back_of_red_stars.svg"" width=""175px"" height=""250px""></img></td>
  </tr>
  <tr height=200>
    <td width=300><img src=""static/images/keys/z.svg"" width=""35%"" height=""75%""></img></td>
    <td width=300><img src=""static/images/keys/m.svg"" width=""35%"" height=""75%""></img></td>
  </tr>
</table>
  ",90.0,1.0,,,,,,,,,,,,,,,,,,,,,,,,,,
166,0,,html-keyboard-response,166,1488921,0.0-7.2-2.2,guk1ocoej98,2022-09-19 16:21:47.555,59a2f6d14d25e800012fcbde,0,55,57,17,16,27,Male,,,"
  <table>
  <tr height=300>
    <td width=300 height=300><img src=""static/images/cards/9_of_red_stars.svg"" width=""175px"" height=""250px""></img></td>
    <td width=300 height=300><img src=""static/images/cards/back_of_red_stars.svg"" width=""175px"" height=""250px""></img></td>
  </tr>
  <tr height=200>
    <td width=300><img src=""static/images/keys/z.svg"" width=""35%"" height=""75%""></img></td>
    <td width=300><img src=""static/images/keys/m.svg"" width=""35%"" height=""75%""></img></td>
  </tr>
</table>
  ",,,,,,,,,,,,,,,,,,,,,,,,,,,,
167,0,,html-keyboard-response,167,1490444,0.0-7.2-3.2,guk1ocoej98,2022-09-19 16:21:47.555,59a2f6d14d25e800012fcbde,0,55,57,17,16,27,Male,,,"<p style=""font-size:50px"">You win!
+10 points this round!</p>",,,,,,,,,,,,,,,,,,,,,,,,,,,,
168,0,,html-keyboard-response,168,1490955,0.0-7.2-4.2,guk1ocoej98,2022-09-19 16:21:47.555,59a2f6d14d25e800012fcbde,0,55,57,17,16,27,Male,,,,,,1.0,choice,2.0,A,D,red,black,stars,moons,A,D,A,red,stars,2093.5,1.0,1.0,NA,left,1281.0,9.0,1.0,1.0,,,
169,0,,html-keyboard-response,169,1492376,0.0-7.3-0.3,guk1ocoej98,2022-09-19 16:21:47.555,59a2f6d14d25e800012fcbde,0,55,57,17,16,27,Male,1420.3000000007,,"
  <table>
  <tr height=300>
    <td width=300 height=300><img src=""static/images/cards/stack_of_black_stars.svg"" width=""175px"" height=""250px""></img></td>
    <td width=300 height=300><img src=""static/images/cards/stack_of_red_stars.svg"" width=""175px"" height=""250px""></img></td>
  </tr>
  <tr height=200>
    <td width=300><img src=""static/images/keys/w.svg"" width=""35%"" height=""75%""></img></td>
    <td width=300><img src=""static/images/keys/o.svg"" width=""35%"" height=""75%""></img></td>
  </tr>
</table>
  ",87.0,1.0,,,,,,,,,,,,,,,,,,,,,,,,,,
170,0,,html-keyboard-response,170,1493472,0.0-7.3-1.3,guk1ocoej98,2022-09-19 16:21:47.555,59a2f6d14d25e800012fcbde,0,55,57,17,16,27,Male,593.2999999989,,"
  <table>
  <tr height=300>
    <td width=300 height=300><img src=""static/images/cards/back_of_black_stars.svg"" width=""175px"" height=""250px""></img></td>
    <td width=300 height=300><img src=""static/images/cards/back_of_black_stars.svg"" width=""175px"" height=""250px""></img></td>
  </tr>
  <tr height=200>
    <td width=300></td>
    <td width=300><img src=""static/images/keys/m.svg"" width=""35%"" height=""75%""></img></td>
  </tr>
</table>
  ",77.0,1.0,,,,,,,,,,,,,,,,,,,,,,,,,,
171,0,,html-keyboard-response,171,1494978,0.0-7.3-2.3,guk1ocoej98,2022-09-19 16:21:47.555,59a2f6d14d25e800012fcbde,0,55,57,17,16,27,Male,,,"
  <table>
  <tr height=300>
    <td width=300 height=300><img src=""static/images/cards/back_of_black_stars.svg"" width=""175px"" height=""250px""></img></td>
    <td width=300 height=300><img src=""static/images/cards/4_of_black_stars.svg"" width=""175px"" height=""250px""></img></td>
  </tr>
  <tr height=200>
    <td width=300></td>
    <td width=300><img src=""static/images/keys/m.svg"" width=""35%"" height=""75%""></img></td>
  </tr>
</table>
  ",,,,,,,,,,,,,,,,,,,,,,,,,,,,
172,0,,html-keyboard-response,172,1496501,0.0-7.3-3.3,guk1ocoej98,2022-09-19 16:21:47.555,59a2f6d14d25e800012fcbde,0,55,57,17,16,27,Male,,,"<p style=""font-size:50px"">You Lose!
No points this round.</p>",,,,,,,,,,,,,,,,,,,,,,,,,,,,
173,0,,html-keyboard-response,173,1497010,0.0-7.3-4.3,guk1ocoej98,2022-09-19 16:21:47.555,59a2f6d14d25e800012fcbde,0,55,57,17,16,27,Male,,,,,,1.0,choice,3.0,A,B,black,red,stars,stars,B,A,B,black,stars,1420.3000000007,0.0,1.0,0,right,593.2999999989,4.0,0.0,0.0,,,
174,0,,html-keyboard-response,174,1498057,0.0-7.4-0.4,guk1ocoej98,2022-09-19 16:21:47.555,59a2f6d14d25e800012fcbde,0,55,57,17,16,27,Male,1046.3000000007,,"
  <table>
  <tr height=300>
    <td width=300 height=300><img src=""static/images/cards/stack_of_red_stars.svg"" width=""175px"" height=""250px""></img></td>
    <td width=300 height=300><img src=""static/images/cards/stack_of_black_stars.svg"" width=""175px"" height=""250px""></img></td>
  </tr>
  <tr height=200>
    <td width=300><img src=""static/images/keys/w.svg"" width=""35%"" height=""75%""></img></td>
    <td width=300><img src=""static/images/keys/o.svg"" width=""35%"" height=""75%""></img></td>
  </tr>
</table>
  ",87.0,1.0,,,,,,,,,,,,,,,,,,,,,,,,,,
175,0,,html-keyboard-response,175,1499369,0.0-7.4-1.4,guk1ocoej98,2022-09-19 16:21:47.555,59a2f6d14d25e800012fcbde,0,55,57,17,16,27,Male,808.8000000007,,"
  <table>
  <tr height=300>
    <td width=300 height=300><img src=""static/images/cards/back_of_red_stars.svg"" width=""175px"" height=""250px""></img></td>
    <td width=300 height=300><img src=""static/images/cards/back_of_red_stars.svg"" width=""175px"" height=""250px""></img></td>
  </tr>
  <tr height=200>
    <td width=300><img src=""static/images/keys/z.svg"" width=""35%"" height=""75%""></img></td>
    <td width=300><img src=""static/images/keys/m.svg"" width=""35%"" height=""75%""></img></td>
  </tr>
</table>
  ",90.0,1.0,,,,,,,,,,,,,,,,,,,,,,,,,,
176,0,,html-keyboard-response,176,1500880,0.0-7.4-2.4,guk1ocoej98,2022-09-19 16:21:47.555,59a2f6d14d25e800012fcbde,0,55,57,17,16,27,Male,,,"
  <table>
  <tr height=300>
    <td width=300 height=300><img src=""static/images/cards/2_of_red_stars.svg"" width=""175px"" height=""250px""></img></td>
    <td width=300 height=300><img src=""static/images/cards/back_of_red_stars.svg"" width=""175px"" height=""250px""></img></td>
  </tr>
  <tr height=200>
    <td width=300><img src=""static/images/keys/z.svg"" width=""35%"" height=""75%""></img></td>
    <td width=300><img src=""static/images/keys/m.svg"" width=""35%"" height=""75%""></img></td>
  </tr>
</table>
  ",,,,,,,,,,,,,,,,,,,,,,,,,,,,
177,0,,html-keyboard-response,177,1502400,0.0-7.4-3.4,guk1ocoej98,2022-09-19 16:21:47.555,59a2f6d14d25e800012fcbde,0,55,57,17,16,27,Male,,,"<p style=""font-size:50px"">You Lose!
No points this round.</p>",,,,,,,,,,,,,,,,,,,,,,,,,,,,
178,0,,html-keyboard-response,178,1502910,0.0-7.4-4.4,guk1ocoej98,2022-09-19 16:21:47.555,59a2f6d14d25e800012fcbde,0,55,57,17,16,27,Male,,,,,,1.0,choice,4.0,A,B,red,black,stars,stars,A,B,A,red,stars,1046.3000000007,1.0,1.0,NA,left,808.8000000007,2.0,0.0,0.0,,,
179,0,,html-keyboard-response,179,1503945,0.0-7.5-0.5,guk1ocoej98,2022-09-19 16:21:47.555,59a2f6d14d25e800012fcbde,0,55,57,17,16,27,Male,1034.1000000015,,"
  <table>
  <tr height=300>
    <td width=300 height=300><img src=""static/images/cards/stack_of_red_moons.svg"" width=""175px"" height=""250px""></img></td>
    <td width=300 height=300><img src=""static/images/cards/stack_of_red_bolts.svg"" width=""175px"" height=""250px""></img></td>
  </tr>
  <tr height=200>
    <td width=300><img src=""static/images/keys/w.svg"" width=""35%"" height=""75%""></img></td>
    <td width=300><img src=""static/images/keys/o.svg"" width=""35%"" height=""75%""></img></td>
  </tr>
</table>
  ",79.0,1.0,,,,,,,,,,,,,,,,,,,,,,,,,,
180,0,,html-keyboard-response,180,1504905,0.0-7.5-1.5,guk1ocoej98,2022-09-19 16:21:47.555,59a2f6d14d25e800012fcbde,0,55,57,17,16,27,Male,452.5999999996,,"
  <table>
  <tr height=300>
    <td width=300 height=300><img src=""static/images/cards/back_of_red_bolts.svg"" width=""175px"" height=""250px""></img></td>
    <td width=300 height=300><img src=""static/images/cards/back_of_red_bolts.svg"" width=""175px"" height=""250px""></img></td>
  </tr>
  <tr height=200>
    <td width=300><img src=""static/images/keys/z.svg"" width=""35%"" height=""75%""></img></td>
    <td width=300><img src=""static/images/keys/m.svg"" width=""35%"" height=""75%""></img></td>
  </tr>
</table>
  ",77.0,1.0,,,,,,,,,,,,,,,,,,,,,,,,,,
181,0,,html-keyboard-response,181,1506421,0.0-7.5-2.5,guk1ocoej98,2022-09-19 16:21:47.555,59a2f6d14d25e800012fcbde,0,55,57,17,16,27,Male,,,"
  <table>
  <tr height=300>
    <td width=300 height=300><img src=""static/images/cards/back_of_red_bolts.svg"" width=""175px"" height=""250px""></img></td>
    <td width=300 height=300><img src=""static/images/cards/8_of_red_bolts.svg"" width=""175px"" height=""250px""></img></td>
  </tr>
  <tr height=200>
    <td width=300><img src=""static/images/keys/z.svg"" width=""35%"" height=""75%""></img></td>
    <td width=300><img src=""static/images/keys/m.svg"" width=""35%"" height=""75%""></img></td>
  </tr>
</table>
  ",,,,,,,,,,,,,,,,,,,,,,,,,,,,
182,0,,html-keyboard-response,182,1507939,0.0-7.5-3.5,guk1ocoej98,2022-09-19 16:21:47.555,59a2f6d14d25e800012fcbde,0,55,57,17,16,27,Male,,,"<p style=""font-size:50px"">You win!
+10 points this round!</p>",,,,,,,,,,,,,,,,,,,,,,,,,,,,
183,0,,html-keyboard-response,183,1508448,0.0-7.5-4.5,guk1ocoej98,2022-09-19 16:21:47.555,59a2f6d14d25e800012fcbde,0,55,57,17,16,27,Male,,,,,,1.0,choice,5.0,C,Xc,red,red,moons,bolts,C,Xc,Xc,red,bolts,1034.1000000015,1.0,0.0,NA,right,452.5999999996,8.0,1.0,1.0,,,
184,0,,html-keyboard-response,184,1509594,0.0-7.6-0.6,guk1ocoej98,2022-09-19 16:21:47.555,59a2f6d14d25e800012fcbde,0,55,57,17,16,27,Male,1145.1999999993,,"
  <table>
  <tr height=300>
    <td width=300 height=300><img src=""static/images/cards/stack_of_red_moons.svg"" width=""175px"" height=""250px""></img></td>
    <td width=300 height=300><img src=""static/images/cards/stack_of_black_bolts.svg"" width=""175px"" height=""250px""></img></td>
  </tr>
  <tr height=200>
    <td width=300><img src=""static/images/keys/w.svg"" width=""35%"" height=""75%""></img></td>
    <td width=300><img src=""static/images/keys/o.svg"" width=""35%"" height=""75%""></img></td>
  </tr>
</table>
  ",79.0,1.0,,,,,,,,,,,,,,,,,,,,,,,,,,
185,0,,html-keyboard-response,185,1510642,0.0-7.6-1.6,guk1ocoej98,2022-09-19 16:21:47.555,59a2f6d14d25e800012fcbde,0,55,57,17,16,27,Male,540.9000000004,,"
  <table>
  <tr height=300>
    <td width=300 height=300><img src=""static/images/cards/back_of_black_bolts.svg"" width=""175px"" height=""250px""></img></td>
    <td width=300 height=300><img src=""static/images/cards/back_of_black_bolts.svg"" width=""175px"" height=""250px""></img></td>
  </tr>
  <tr height=200>
    <td width=300><img src=""static/images/keys/z.svg"" width=""35%"" height=""75%""></img></td>
    <td width=300></td>
  </tr>
</table>
  ",90.0,1.0,,,,,,,,,,,,,,,,,,,,,,,,,,
186,0,,html-keyboard-response,186,1512147,0.0-7.6-2.6,guk1ocoej98,2022-09-19 16:21:47.555,59a2f6d14d25e800012fcbde,0,55,57,17,16,27,Male,,,"
  <table>
  <tr height=300>
    <td width=300 height=300><img src=""static/images/cards/6_of_black_bolts.svg"" width=""175px"" height=""250px""></img></td>
    <td width=300 height=300><img src=""static/images/cards/back_of_black_bolts.svg"" width=""175px"" height=""250px""></img></td>
  </tr>
  <tr height=200>
    <td width=300><img src=""static/images/keys/z.svg"" width=""35%"" height=""75%""></img></td>
    <td width=300></td>
  </tr>
</table>
  ",,,,,,,,,,,,,,,,,,,,,,,,,,,,
187,0,,html-keyboard-response,187,1513661,0.0-7.6-3.6,guk1ocoej98,2022-09-19 16:21:47.555,59a2f6d14d25e800012fcbde,0,55,57,17,16,27,Male,,,"<p style=""font-size:50px"">You win!
+10 points this round!</p>",,,,,,,,,,,,,,,,,,,,,,,,,,,,
188,0,,html-keyboard-response,188,1514181,0.0-7.6-4.6,guk1ocoej98,2022-09-19 16:21:47.555,59a2f6d14d25e800012fcbde,0,55,57,17,16,27,Male,,,,,,1.0,choice,6.0,C,Xnc,red,black,moons,bolts,C,Xnc,Xnc,black,bolts,1145.1999999993,0.0,0.0,1,left,540.9000000004,6.0,1.0,1.0,,,
189,0,,html-keyboard-response,189,1516603,0.0-7.7-0.7,guk1ocoej98,2022-09-19 16:21:47.555,59a2f6d14d25e800012fcbde,0,55,57,17,16,27,Male,2421.4000000004,,"
  <table>
  <tr height=300>
    <td width=300 height=300><img src=""static/images/cards/stack_of_black_moons.svg"" width=""175px"" height=""250px""></img></td>
    <td width=300 height=300><img src=""static/images/cards/stack_of_red_stars.svg"" width=""175px"" height=""250px""></img></td>
  </tr>
  <tr height=200>
    <td width=300><img src=""static/images/keys/w.svg"" width=""35%"" height=""75%""></img></td>
    <td width=300><img src=""static/images/keys/o.svg"" width=""35%"" height=""75%""></img></td>
  </tr>
</table>
  ",79.0,1.0,,,,,,,,,,,,,,,,,,,,,,,,,,
190,0,,html-keyboard-response,190,1517827,0.0-7.7-1.7,guk1ocoej98,2022-09-19 16:21:47.555,59a2f6d14d25e800012fcbde,0,55,57,17,16,27,Male,714.1999999993,,"
  <table>
  <tr height=300>
    <td width=300 height=300><img src=""static/images/cards/back_of_red_stars.svg"" width=""175px"" height=""250px""></img></td>
    <td width=300 height=300><img src=""static/images/cards/back_of_red_stars.svg"" width=""175px"" height=""250px""></img></td>
  </tr>
  <tr height=200>
    <td width=300><img src=""static/images/keys/z.svg"" width=""35%"" height=""75%""></img></td>
    <td width=300><img src=""static/images/keys/m.svg"" width=""35%"" height=""75%""></img></td>
  </tr>
</table>
  ",90.0,1.0,,,,,,,,,,,,,,,,,,,,,,,,,,
191,0,,html-keyboard-response,191,1519333,0.0-7.7-2.7,guk1ocoej98,2022-09-19 16:21:47.555,59a2f6d14d25e800012fcbde,0,55,57,17,16,27,Male,,,"
  <table>
  <tr height=300>
    <td width=300 height=300><img src=""static/images/cards/1_of_red_stars.svg"" width=""175px"" height=""250px""></img></td>
    <td width=300 height=300><img src=""static/images/cards/back_of_red_stars.svg"" width=""175px"" height=""250px""></img></td>
  </tr>
  <tr height=200>
    <td width=300><img src=""static/images/keys/z.svg"" width=""35%"" height=""75%""></img></td>
    <td width=300><img src=""static/images/keys/m.svg"" width=""35%"" height=""75%""></img></td>
  </tr>
</table>
  ",,,,,,,,,,,,,,,,,,,,,,,,,,,,
192,0,,html-keyboard-response,192,1520846,0.0-7.7-3.7,guk1ocoej98,2022-09-19 16:21:47.555,59a2f6d14d25e800012fcbde,0,55,57,17,16,27,Male,,,"<p style=""font-size:50px"">You Lose!
No points this round.</p>",,,,,,,,,,,,,,,,,,,,,,,,,,,,
193,0,,html-keyboard-response,193,1521353,0.0-7.7-4.7,guk1ocoej98,2022-09-19 16:21:47.555,59a2f6d14d25e800012fcbde,0,55,57,17,16,27,Male,,,,,,1.0,choice,7.0,A,D,black,red,moons,stars,D,A,A,red,stars,2421.4000000004,1.0,1.0,NA,left,714.1999999993,1.0,0.0,0.0,,,
194,0,,html-keyboard-response,194,1522780,0.0-7.8-0.8,guk1ocoej98,2022-09-19 16:21:47.555,59a2f6d14d25e800012fcbde,0,55,57,17,16,27,Male,1426.2999999989,,"
  <table>
  <tr height=300>
    <td width=300 height=300><img src=""static/images/cards/stack_of_black_moons.svg"" width=""175px"" height=""250px""></img></td>
    <td width=300 height=300><img src=""static/images/cards/stack_of_black_stars.svg"" width=""175px"" height=""250px""></img></td>
  </tr>
  <tr height=200>
    <td width=300><img src=""static/images/keys/w.svg"" width=""35%"" height=""75%""></img></td>
    <td width=300><img src=""static/images/keys/o.svg"" width=""35%"" height=""75%""></img></td>
  </tr>
</table>
  ",79.0,1.0,,,,,,,,,,,,,,,,,,,,,,,,,,
195,0,,html-keyboard-response,195,1523964,0.0-7.8-1.8,guk1ocoej98,2022-09-19 16:21:47.555,59a2f6d14d25e800012fcbde,0,55,57,17,16,27,Male,680.0999999996,,"
  <table>
  <tr height=300>
    <td width=300 height=300><img src=""static/images/cards/back_of_black_stars.svg"" width=""175px"" height=""250px""></img></td>
    <td width=300 height=300><img src=""static/images/cards/back_of_black_stars.svg"" width=""175px"" height=""250px""></img></td>
  </tr>
  <tr height=200>
    <td width=300><img src=""static/images/keys/z.svg"" width=""35%"" height=""75%""></img></td>
    <td width=300></td>
  </tr>
</table>
  ",90.0,1.0,,,,,,,,,,,,,,,,,,,,,,,,,,
196,0,,html-keyboard-response,196,1525470,0.0-7.8-2.8,guk1ocoej98,2022-09-19 16:21:47.555,59a2f6d14d25e800012fcbde,0,55,57,17,16,27,Male,,,"
  <table>
  <tr height=300>
    <td width=300 height=300><img src=""static/images/cards/7_of_black_stars.svg"" width=""175px"" height=""250px""></img></td>
    <td width=300 height=300><img src=""static/images/cards/back_of_black_stars.svg"" width=""175px"" height=""250px""></img></td>
  </tr>
  <tr height=200>
    <td width=300><img src=""static/images/keys/z.svg"" width=""35%"" height=""75%""></img></td>
    <td width=300></td>
  </tr>
</table>
  ",,,,,,,,,,,,,,,,,,,,,,,,,,,,
197,0,,html-keyboard-response,197,1526989,0.0-7.8-3.8,guk1ocoej98,2022-09-19 16:21:47.555,59a2f6d14d25e800012fcbde,0,55,57,17,16,27,Male,,,"<p style=""font-size:50px"">You win!
+10 points this round!</p>",,,,,,,,,,,,,,,,,,,,,,,,,,,,
198,0,,html-keyboard-response,198,1527501,0.0-7.8-4.8,guk1ocoej98,2022-09-19 16:21:47.555,59a2f6d14d25e800012fcbde,0,55,57,17,16,27,Male,,,,,,1.0,choice,8.0,B,D,black,black,moons,stars,D,B,B,black,stars,1426.2999999989,0.0,1.0,1,left,680.0999999996,7.0,1.0,1.0,,,
199,0,,html-keyboard-response,199,1529069,0.0-7.9-0.9,guk1ocoej98,2022-09-19 16:21:47.555,59a2f6d14d25e800012fcbde,0,55,57,17,16,27,Male,1566.3000000007,,"
  <table>
  <tr height=300>
    <td width=300 height=300><img src=""static/images/cards/stack_of_red_moons.svg"" width=""175px"" height=""250px""></img></td>
    <td width=300 height=300><img src=""static/images/cards/stack_of_black_moons.svg"" width=""175px"" height=""250px""></img></td>
  </tr>
  <tr height=200>
    <td width=300><img src=""static/images/keys/w.svg"" width=""35%"" height=""75%""></img></td>
    <td width=300><img src=""static/images/keys/o.svg"" width=""35%"" height=""75%""></img></td>
  </tr>
</table>
  ",87.0,1.0,,,,,,,,,,,,,,,,,,,,,,,,,,
200,0,,html-keyboard-response,200,1530893,0.0-7.9-1.9,guk1ocoej98,2022-09-19 16:21:47.555,59a2f6d14d25e800012fcbde,0,55,57,17,16,27,Male,1311.3000000007,,"
  <table>
  <tr height=300>
    <td width=300 height=300><img src=""static/images/cards/back_of_red_moons.svg"" width=""175px"" height=""250px""></img></td>
    <td width=300 height=300><img src=""static/images/cards/back_of_red_moons.svg"" width=""175px"" height=""250px""></img></td>
  </tr>
  <tr height=200>
    <td width=300><img src=""static/images/keys/z.svg"" width=""35%"" height=""75%""></img></td>
    <td width=300><img src=""static/images/keys/m.svg"" width=""35%"" height=""75%""></img></td>
  </tr>
</table>
  ",77.0,1.0,,,,,,,,,,,,,,,,,,,,,,,,,,
201,0,,html-keyboard-response,201,1532399,0.0-7.9-2.9,guk1ocoej98,2022-09-19 16:21:47.555,59a2f6d14d25e800012fcbde,0,55,57,17,16,27,Male,,,"
  <table>
  <tr height=300>
    <td width=300 height=300><img src=""static/images/cards/back_of_red_moons.svg"" width=""175px"" height=""250px""></img></td>
    <td width=300 height=300><img src=""static/images/cards/9_of_red_moons.svg"" width=""175px"" height=""250px""></img></td>
  </tr>
  <tr height=200>
    <td width=300><img src=""static/images/keys/z.svg"" width=""35%"" height=""75%""></img></td>
    <td width=300><img src=""static/images/keys/m.svg"" width=""35%"" height=""75%""></img></td>
  </tr>
</table>
  ",,,,,,,,,,,,,,,,,,,,,,,,,,,,
202,0,,html-keyboard-response,202,1533914,0.0-7.9-3.9,guk1ocoej98,2022-09-19 16:21:47.555,59a2f6d14d25e800012fcbde,0,55,57,17,16,27,Male,,,"<p style=""font-size:50px"">You win!
+10 points this round!</p>",,,,,,,,,,,,,,,,,,,,,,,,,,,,
203,0,,html-keyboard-response,203,1534424,0.0-7.9-4.9,guk1ocoej98,2022-09-19 16:21:47.555,59a2f6d14d25e800012fcbde,0,55,57,17,16,27,Male,,,,,,1.0,choice,9.0,C,D,red,black,moons,moons,C,D,C,red,moons,1566.3000000007,1.0,0.0,NA,right,1311.3000000007,9.0,1.0,1.0,,,
204,0,,html-keyboard-response,204,1536325,0.0-7.10-0.10,guk1ocoej98,2022-09-19 16:21:47.555,59a2f6d14d25e800012fcbde,0,55,57,17,16,27,Male,1900.0999999996,,"
  <table>
  <tr height=300>
    <td width=300 height=300><img src=""static/images/cards/stack_of_red_stars.svg"" width=""175px"" height=""250px""></img></td>
    <td width=300 height=300><img src=""static/images/cards/stack_of_black_moons.svg"" width=""175px"" height=""250px""></img></td>
  </tr>
  <tr height=200>
    <td width=300><img src=""static/images/keys/w.svg"" width=""35%"" height=""75%""></img></td>
    <td width=300><img src=""static/images/keys/o.svg"" width=""35%"" height=""75%""></img></td>
  </tr>
</table>
  ",87.0,1.0,,,,,,,,,,,,,,,,,,,,,,,,,,
205,0,,html-keyboard-response,205,1537782,0.0-7.10-1.10,guk1ocoej98,2022-09-19 16:21:47.555,59a2f6d14d25e800012fcbde,0,55,57,17,16,27,Male,950.8999999985,,"
  <table>
  <tr height=300>
    <td width=300 height=300><img src=""static/images/cards/back_of_red_stars.svg"" width=""175px"" height=""250px""></img></td>
    <td width=300 height=300><img src=""static/images/cards/back_of_red_stars.svg"" width=""175px"" height=""250px""></img></td>
  </tr>
  <tr height=200>
    <td width=300><img src=""static/images/keys/z.svg"" width=""35%"" height=""75%""></img></td>
    <td width=300><img src=""static/images/keys/m.svg"" width=""35%"" height=""75%""></img></td>
  </tr>
</table>
  ",90.0,1.0,,,,,,,,,,,,,,,,,,,,,,,,,,
206,0,,html-keyboard-response,206,1539294,0.0-7.10-2.10,guk1ocoej98,2022-09-19 16:21:47.555,59a2f6d14d25e800012fcbde,0,55,57,17,16,27,Male,,,"
  <table>
  <tr height=300>
    <td width=300 height=300><img src=""static/images/cards/3_of_red_stars.svg"" width=""175px"" height=""250px""></img></td>
    <td width=300 height=300><img src=""static/images/cards/back_of_red_stars.svg"" width=""175px"" height=""250px""></img></td>
  </tr>
  <tr height=200>
    <td width=300><img src=""static/images/keys/z.svg"" width=""35%"" height=""75%""></img></td>
    <td width=300><img src=""static/images/keys/m.svg"" width=""35%"" height=""75%""></img></td>
  </tr>
</table>
  ",,,,,,,,,,,,,,,,,,,,,,,,,,,,
207,0,,html-keyboard-response,207,1540811,0.0-7.10-3.10,guk1ocoej98,2022-09-19 16:21:47.555,59a2f6d14d25e800012fcbde,0,55,57,17,16,27,Male,,,"<p style=""font-size:50px"">You Lose!
No points this round.</p>",,,,,,,,,,,,,,,,,,,,,,,,,,,,
208,0,,html-keyboard-response,208,1541323,0.0-7.10-4.10,guk1ocoej98,2022-09-19 16:21:47.555,59a2f6d14d25e800012fcbde,0,55,57,17,16,27,Male,,,,,,1.0,choice,10.0,A,D,red,black,stars,moons,A,D,A,red,stars,1900.0999999996,1.0,1.0,NA,left,950.8999999985,3.0,0.0,0.0,,,
209,0,,html-keyboard-response,209,1542318,0.0-7.11-0.11,guk1ocoej98,2022-09-19 16:21:47.555,59a2f6d14d25e800012fcbde,0,55,57,17,16,27,Male,994.2999999989,,"
  <table>
  <tr height=300>
    <td width=300 height=300><img src=""static/images/cards/stack_of_black_moons.svg"" width=""175px"" height=""250px""></img></td>
    <td width=300 height=300><img src=""static/images/cards/stack_of_red_bolts.svg"" width=""175px"" height=""250px""></img></td>
  </tr>
  <tr height=200>
    <td width=300><img src=""static/images/keys/w.svg"" width=""35%"" height=""75%""></img></td>
    <td width=300><img src=""static/images/keys/o.svg"" width=""35%"" height=""75%""></img></td>
  </tr>
</table>
  ",79.0,1.0,,,,,,,,,,,,,,,,,,,,,,,,,,
210,0,,html-keyboard-response,210,1542990,0.0-7.11-1.11,guk1ocoej98,2022-09-19 16:21:47.555,59a2f6d14d25e800012fcbde,0,55,57,17,16,27,Male,160.7000000011,,"
  <table>
  <tr height=300>
    <td width=300 height=300><img src=""static/images/cards/back_of_red_bolts.svg"" width=""175px"" height=""250px""></img></td>
    <td width=300 height=300><img src=""static/images/cards/back_of_red_bolts.svg"" width=""175px"" height=""250px""></img></td>
  </tr>
  <tr height=200>
    <td width=300><img src=""static/images/keys/z.svg"" width=""35%"" height=""75%""></img></td>
    <td width=300><img src=""static/images/keys/m.svg"" width=""35%"" height=""75%""></img></td>
  </tr>
</table>
  ",77.0,1.0,,,,,,,,,,,,,,,,,,,,,,,,,,
211,0,,html-keyboard-response,211,1544497,0.0-7.11-2.11,guk1ocoej98,2022-09-19 16:21:47.555,59a2f6d14d25e800012fcbde,0,55,57,17,16,27,Male,,,"
  <table>
  <tr height=300>
    <td width=300 height=300><img src=""static/images/cards/back_of_red_bolts.svg"" width=""175px"" height=""250px""></img></td>
    <td width=300 height=300><img src=""static/images/cards/3_of_red_bolts.svg"" width=""175px"" height=""250px""></img></td>
  </tr>
  <tr height=200>
    <td width=300><img src=""static/images/keys/z.svg"" width=""35%"" height=""75%""></img></td>
    <td width=300><img src=""static/images/keys/m.svg"" width=""35%"" height=""75%""></img></td>
  </tr>
</table>
  ",,,,,,,,,,,,,,,,,,,,,,,,,,,,
212,0,,html-keyboard-response,212,1546011,0.0-7.11-3.11,guk1ocoej98,2022-09-19 16:21:47.555,59a2f6d14d25e800012fcbde,0,55,57,17,16,27,Male,,,"<p style=""font-size:50px"">You win!
+10 points this round!</p>",,,,,,,,,,,,,,,,,,,,,,,,,,,,
213,0,,html-keyboard-response,213,1546524,0.0-7.11-4.11,guk1ocoej98,2022-09-19 16:21:47.555,59a2f6d14d25e800012fcbde,0,55,57,17,16,27,Male,,,,,,1.0,choice,11.0,D,Xc,black,red,moons,bolts,D,Xc,Xc,red,bolts,994.2999999989,1.0,0.0,NA,right,160.7000000011,3.0,0.0,1.0,,,
214,0,,html-keyboard-response,214,1547847,0.0-7.12-0.12,guk1ocoej98,2022-09-19 16:21:47.555,59a2f6d14d25e800012fcbde,0,55,57,17,16,27,Male,1322.2999999989,,"
  <table>
  <tr height=300>
    <td width=300 height=300><img src=""static/images/cards/stack_of_black_moons.svg"" width=""175px"" height=""250px""></img></td>
    <td width=300 height=300><img src=""static/images/cards/stack_of_black_stars.svg"" width=""175px"" height=""250px""></img></td>
  </tr>
  <tr height=200>
    <td width=300><img src=""static/images/keys/w.svg"" width=""35%"" height=""75%""></img></td>
    <td width=300><img src=""static/images/keys/o.svg"" width=""35%"" height=""75%""></img></td>
  </tr>
</table>
  ",79.0,1.0,,,,,,,,,,,,,,,,,,,,,,,,,,
215,0,,html-keyboard-response,215,1549127,0.0-7.12-1.12,guk1ocoej98,2022-09-19 16:21:47.555,59a2f6d14d25e800012fcbde,0,55,57,17,16,27,Male,768.4000000004,,"
  <table>
  <tr height=300>
    <td width=300 height=300><img src=""static/images/cards/back_of_black_stars.svg"" width=""175px"" height=""250px""></img></td>
    <td width=300 height=300><img src=""static/images/cards/back_of_black_stars.svg"" width=""175px"" height=""250px""></img></td>
  </tr>
  <tr height=200>
    <td width=300></td>
    <td width=300><img src=""static/images/keys/m.svg"" width=""35%"" height=""75%""></img></td>
  </tr>
</table>
  ",77.0,1.0,,,,,,,,,,,,,,,,,,,,,,,,,,
216,0,,html-keyboard-response,216,1550640,0.0-7.12-2.12,guk1ocoej98,2022-09-19 16:21:47.555,59a2f6d14d25e800012fcbde,0,55,57,17,16,27,Male,,,"
  <table>
  <tr height=300>
    <td width=300 height=300><img src=""static/images/cards/back_of_black_stars.svg"" width=""175px"" height=""250px""></img></td>
    <td width=300 height=300><img src=""static/images/cards/6_of_black_stars.svg"" width=""175px"" height=""250px""></img></td>
  </tr>
  <tr height=200>
    <td width=300></td>
    <td width=300><img src=""static/images/keys/m.svg"" width=""35%"" height=""75%""></img></td>
  </tr>
</table>
  ",,,,,,,,,,,,,,,,,,,,,,,,,,,,
217,0,,html-keyboard-response,217,1552160,0.0-7.12-3.12,guk1ocoej98,2022-09-19 16:21:47.555,59a2f6d14d25e800012fcbde,0,55,57,17,16,27,Male,,,"<p style=""font-size:50px"">You win!
+10 points this round!</p>",,,,,,,,,,,,,,,,,,,,,,,,,,,,
218,0,,html-keyboard-response,218,1552670,0.0-7.12-4.12,guk1ocoej98,2022-09-19 16:21:47.555,59a2f6d14d25e800012fcbde,0,55,57,17,16,27,Male,,,,,,1.0,choice,12.0,B,D,black,black,moons,stars,D,B,B,black,stars,1322.2999999989,0.0,1.0,0,right,768.4000000004,6.0,1.0,1.0,,,
219,0,,html-keyboard-response,219,1554768,0.0-7.13-0.13,guk1ocoej98,2022-09-19 16:21:47.555,59a2f6d14d25e800012fcbde,0,55,57,17,16,27,Male,2096.3000000007,,"
  <table>
  <tr height=300>
    <td width=300 height=300><img src=""static/images/cards/stack_of_red_stars.svg"" width=""175px"" height=""250px""></img></td>
    <td width=300 height=300><img src=""static/images/cards/stack_of_black_moons.svg"" width=""175px"" height=""250px""></img></td>
  </tr>
  <tr height=200>
    <td width=300><img src=""static/images/keys/w.svg"" width=""35%"" height=""75%""></img></td>
    <td width=300><img src=""static/images/keys/o.svg"" width=""35%"" height=""75%""></img></td>
  </tr>
</table>
  ",87.0,1.0,,,,,,,,,,,,,,,,,,,,,,,,,,
220,0,,html-keyboard-response,220,1555743,0.0-7.13-1.13,guk1ocoej98,2022-09-19 16:21:47.555,59a2f6d14d25e800012fcbde,0,55,57,17,16,27,Male,464.3999999985,,"
  <table>
  <tr height=300>
    <td width=300 height=300><img src=""static/images/cards/back_of_red_stars.svg"" width=""175px"" height=""250px""></img></td>
    <td width=300 height=300><img src=""static/images/cards/back_of_red_stars.svg"" width=""175px"" height=""250px""></img></td>
  </tr>
  <tr height=200>
    <td width=300><img src=""static/images/keys/z.svg"" width=""35%"" height=""75%""></img></td>
    <td width=300><img src=""static/images/keys/m.svg"" width=""35%"" height=""75%""></img></td>
  </tr>
</table>
  ",90.0,1.0,,,,,,,,,,,,,,,,,,,,,,,,,,
221,0,,html-keyboard-response,221,1557250,0.0-7.13-2.13,guk1ocoej98,2022-09-19 16:21:47.555,59a2f6d14d25e800012fcbde,0,55,57,17,16,27,Male,,,"
  <table>
  <tr height=300>
    <td width=300 height=300><img src=""static/images/cards/3_of_red_stars.svg"" width=""175px"" height=""250px""></img></td>
    <td width=300 height=300><img src=""static/images/cards/back_of_red_stars.svg"" width=""175px"" height=""250px""></img></td>
  </tr>
  <tr height=200>
    <td width=300><img src=""static/images/keys/z.svg"" width=""35%"" height=""75%""></img></td>
    <td width=300><img src=""static/images/keys/m.svg"" width=""35%"" height=""75%""></img></td>
  </tr>
</table>
  ",,,,,,,,,,,,,,,,,,,,,,,,,,,,
222,0,,html-keyboard-response,222,1558770,0.0-7.13-3.13,guk1ocoej98,2022-09-19 16:21:47.555,59a2f6d14d25e800012fcbde,0,55,57,17,16,27,Male,,,"<p style=""font-size:50px"">You Lose!
No points this round.</p>",,,,,,,,,,,,,,,,,,,,,,,,,,,,
223,0,,html-keyboard-response,223,1559276,0.0-7.13-4.13,guk1ocoej98,2022-09-19 16:21:47.555,59a2f6d14d25e800012fcbde,0,55,57,17,16,27,Male,,,,,,1.0,choice,13.0,A,D,red,black,stars,moons,A,D,A,red,stars,2096.3000000007,1.0,1.0,NA,left,464.3999999985,3.0,0.0,0.0,,,
224,0,,html-keyboard-response,224,1560120,0.0-7.14-0.14,guk1ocoej98,2022-09-19 16:21:47.555,59a2f6d14d25e800012fcbde,0,55,57,17,16,27,Male,842.9000000004,,"
  <table>
  <tr height=300>
    <td width=300 height=300><img src=""static/images/cards/stack_of_red_moons.svg"" width=""175px"" height=""250px""></img></td>
    <td width=300 height=300><img src=""static/images/cards/stack_of_black_stars.svg"" width=""175px"" height=""250px""></img></td>
  </tr>
  <tr height=200>
    <td width=300><img src=""static/images/keys/w.svg"" width=""35%"" height=""75%""></img></td>
    <td width=300><img src=""static/images/keys/o.svg"" width=""35%"" height=""75%""></img></td>
  </tr>
</table>
  ",79.0,1.0,,,,,,,,,,,,,,,,,,,,,,,,,,
225,0,,html-keyboard-response,225,1561144,0.0-7.14-1.14,guk1ocoej98,2022-09-19 16:21:47.555,59a2f6d14d25e800012fcbde,0,55,57,17,16,27,Male,519.3000000007,,"
  <table>
  <tr height=300>
    <td width=300 height=300><img src=""static/images/cards/back_of_black_stars.svg"" width=""175px"" height=""250px""></img></td>
    <td width=300 height=300><img src=""static/images/cards/back_of_black_stars.svg"" width=""175px"" height=""250px""></img></td>
  </tr>
  <tr height=200>
    <td width=300><img src=""static/images/keys/z.svg"" width=""35%"" height=""75%""></img></td>
    <td width=300></td>
  </tr>
</table>
  ",90.0,1.0,,,,,,,,,,,,,,,,,,,,,,,,,,
226,0,,html-keyboard-response,226,1562660,0.0-7.14-2.14,guk1ocoej98,2022-09-19 16:21:47.555,59a2f6d14d25e800012fcbde,0,55,57,17,16,27,Male,,,"
  <table>
  <tr height=300>
    <td width=300 height=300><img src=""static/images/cards/10_of_black_stars.svg"" width=""175px"" height=""250px""></img></td>
    <td width=300 height=300><img src=""static/images/cards/back_of_black_stars.svg"" width=""175px"" height=""250px""></img></td>
  </tr>
  <tr height=200>
    <td width=300><img src=""static/images/keys/z.svg"" width=""35%"" height=""75%""></img></td>
    <td width=300></td>
  </tr>
</table>
  ",,,,,,,,,,,,,,,,,,,,,,,,,,,,
227,0,,html-keyboard-response,227,1564175,0.0-7.14-3.14,guk1ocoej98,2022-09-19 16:21:47.555,59a2f6d14d25e800012fcbde,0,55,57,17,16,27,Male,,,"<p style=""font-size:50px"">You win!
+10 points this round!</p>",,,,,,,,,,,,,,,,,,,,,,,,,,,,
228,0,,html-keyboard-response,228,1564686,0.0-7.14-4.14,guk1ocoej98,2022-09-19 16:21:47.555,59a2f6d14d25e800012fcbde,0,55,57,17,16,27,Male,,,,,,1.0,choice,14.0,B,C,red,black,moons,stars,C,B,B,black,stars,842.9000000004,0.0,1.0,1,left,519.3000000007,10.0,1.0,1.0,,,
229,0,,html-keyboard-response,229,1565473,0.0-7.15-0.15,guk1ocoej98,2022-09-19 16:21:47.555,59a2f6d14d25e800012fcbde,0,55,57,17,16,27,Male,785.3000000007,,"
  <table>
  <tr height=300>
    <td width=300 height=300><img src=""static/images/cards/stack_of_red_stars.svg"" width=""175px"" height=""250px""></img></td>
    <td width=300 height=300><img src=""static/images/cards/stack_of_black_stars.svg"" width=""175px"" height=""250px""></img></td>
  </tr>
  <tr height=200>
    <td width=300><img src=""static/images/keys/w.svg"" width=""35%"" height=""75%""></img></td>
    <td width=300><img src=""static/images/keys/o.svg"" width=""35%"" height=""75%""></img></td>
  </tr>
</table>
  ",79.0,1.0,,,,,,,,,,,,,,,,,,,,,,,,,,
230,0,,html-keyboard-response,230,1566449,0.0-7.15-1.15,guk1ocoej98,2022-09-19 16:21:47.555,59a2f6d14d25e800012fcbde,0,55,57,17,16,27,Male,470.6999999993,,"
  <table>
  <tr height=300>
    <td width=300 height=300><img src=""static/images/cards/back_of_black_stars.svg"" width=""175px"" height=""250px""></img></td>
    <td width=300 height=300><img src=""static/images/cards/back_of_black_stars.svg"" width=""175px"" height=""250px""></img></td>
  </tr>
  <tr height=200>
    <td width=300></td>
    <td width=300><img src=""static/images/keys/m.svg"" width=""35%"" height=""75%""></img></td>
  </tr>
</table>
  ",77.0,1.0,,,,,,,,,,,,,,,,,,,,,,,,,,
231,0,,html-keyboard-response,231,1567956,0.0-7.15-2.15,guk1ocoej98,2022-09-19 16:21:47.555,59a2f6d14d25e800012fcbde,0,55,57,17,16,27,Male,,,"
  <table>
  <tr height=300>
    <td width=300 height=300><img src=""static/images/cards/back_of_black_stars.svg"" width=""175px"" height=""250px""></img></td>
    <td width=300 height=300><img src=""static/images/cards/1_of_black_stars.svg"" width=""175px"" height=""250px""></img></td>
  </tr>
  <tr height=200>
    <td width=300></td>
    <td width=300><img src=""static/images/keys/m.svg"" width=""35%"" height=""75%""></img></td>
  </tr>
</table>
  ",,,,,,,,,,,,,,,,,,,,,,,,,,,,
232,0,,html-keyboard-response,232,1569469,0.0-7.15-3.15,guk1ocoej98,2022-09-19 16:21:47.555,59a2f6d14d25e800012fcbde,0,55,57,17,16,27,Male,,,"<p style=""font-size:50px"">You Lose!
No points this round.</p>",,,,,,,,,,,,,,,,,,,,,,,,,,,,
233,0,,html-keyboard-response,233,1569978,0.0-7.15-4.15,guk1ocoej98,2022-09-19 16:21:47.555,59a2f6d14d25e800012fcbde,0,55,57,17,16,27,Male,,,,,,1.0,choice,15.0,A,B,red,black,stars,stars,A,B,B,black,stars,785.3000000007,0.0,1.0,0,right,470.6999999993,1.0,0.0,0.0,,,
234,0,,html-keyboard-response,234,1573050,0.0-7.16-0.16,guk1ocoej98,2022-09-19 16:21:47.555,59a2f6d14d25e800012fcbde,0,55,57,17,16,27,Male,3070.3000000007,,"
  <table>
  <tr height=300>
    <td width=300 height=300><img src=""static/images/cards/stack_of_red_moons.svg"" width=""175px"" height=""250px""></img></td>
    <td width=300 height=300><img src=""static/images/cards/stack_of_black_moons.svg"" width=""175px"" height=""250px""></img></td>
  </tr>
  <tr height=200>
    <td width=300><img src=""static/images/keys/w.svg"" width=""35%"" height=""75%""></img></td>
    <td width=300><img src=""static/images/keys/o.svg"" width=""35%"" height=""75%""></img></td>
  </tr>
</table>
  ",87.0,1.0,,,,,,,,,,,,,,,,,,,,,,,,,,
235,0,,html-keyboard-response,235,1574226,0.0-7.16-1.16,guk1ocoej98,2022-09-19 16:21:47.555,59a2f6d14d25e800012fcbde,0,55,57,17,16,27,Male,660.5,,"
  <table>
  <tr height=300>
    <td width=300 height=300><img src=""static/images/cards/back_of_red_moons.svg"" width=""175px"" height=""250px""></img></td>
    <td width=300 height=300><img src=""static/images/cards/back_of_red_moons.svg"" width=""175px"" height=""250px""></img></td>
  </tr>
  <tr height=200>
