,index,success,trial_type,trial_index,time_elapsed,internal_node_id,subject,date,prol_id,ctbl,sense_of_control_A,sense_of_control_B,sense_of_control_C,sense_of_control_D,age,gender,rt,url,stimulus,key_press,npress,is_data_trial,phase,trial,deck1,deck2,col1,col2,sym1,sym2,deck_l,deck_r,chosen_deck,chosen_col,chosen_sym,deck_rt,choose_choice,mutual_info,hidden_key,chosen_card,card_rt,player_num,win_card,outcome,mock_rating,response,responses
0,0,1.0,fullscreen,0,6833,0.0-0.0,i66c4nch84q,2022-09-16 14:52:04.624,5ac4fbad1667e40001d8615e,2,23,37,15,13,64,Female,,,,,,,,,,,,,,,,,,,,,,,,,,,,,,,
1,0,,external-html,1,68011,0.0-1.0,i66c4nch84q,2022-09-16 14:52:04.624,5ac4fbad1667e40001d8615e,2,23,37,15,13,64,Female,60270.1999998093,static/js/sub/consent.html,,,,,,,,,,,,,,,,,,,,,,,,,,,,,
2,0,,call-function,2,68011,0.0-2.0,i66c4nch84q,2022-09-16 14:52:04.624,5ac4fbad1667e40001d8615e,2,23,37,15,13,64,Female,,,,,,,,,,,,,,,,,,,,,,,,,,,,,,,
3,0,,image-keyboard-response,3,84878,0.0-3.0-0.0,i66c4nch84q,2022-09-16 14:52:04.624,5ac4fbad1667e40001d8615e,2,23,37,15,13,64,Female,16865.2000000477,,static/images/instructions_CB_2/Slide1.png,39.0,,,,,,,,,,,,,,,,,,,,,,,,,,,
4,0,,image-keyboard-response,4,105269,0.0-3.1-0.1,i66c4nch84q,2022-09-16 14:52:04.624,5ac4fbad1667e40001d8615e,2,23,37,15,13,64,Female,20387.5999999046,,static/images/instructions_CB_2/Slide2.png,39.0,,,,,,,,,,,,,,,,,,,,,,,,,,,
5,0,,image-keyboard-response,5,115615,0.0-3.2-0.2,i66c4nch84q,2022-09-16 14:52:04.624,5ac4fbad1667e40001d8615e,2,23,37,15,13,64,Female,10343.7999999523,,static/images/instructions_CB_2/Slide3.png,39.0,,,,,,,,,,,,,,,,,,,,,,,,,,,
6,0,,image-keyboard-response,6,127069,0.0-3.3-0.3,i66c4nch84q,2022-09-16 14:52:04.624,5ac4fbad1667e40001d8615e,2,23,37,15,13,64,Female,11452.4000000954,,static/images/instructions_CB_2/Slide4.png,39.0,,,,,,,,,,,,,,,,,,,,,,,,,,,
7,0,,image-keyboard-response,7,136360,0.0-3.4-0.4,i66c4nch84q,2022-09-16 14:52:04.624,5ac4fbad1667e40001d8615e,2,23,37,15,13,64,Female,9289.5,,static/images/instructions_CB_2/Slide5.png,39.0,,,,,,,,,,,,,,,,,,,,,,,,,,,
8,0,,image-keyboard-response,8,140211,0.0-3.5-0.5,i66c4nch84q,2022-09-16 14:52:04.624,5ac4fbad1667e40001d8615e,2,23,37,15,13,64,Female,3849.0,,static/images/instructions_CB_2/Slide6.png,39.0,,,,,,,,,,,,,,,,,,,,,,,,,,,
9,0,,image-keyboard-response,9,147116,0.0-3.6-0.6,i66c4nch84q,2022-09-16 14:52:04.624,5ac4fbad1667e40001d8615e,2,23,37,15,13,64,Female,6903.2000000477,,static/images/instructions_CB_2/Slide7.png,39.0,,,,,,,,,,,,,,,,,,,,,,,,,,,
10,0,,image-keyboard-response,10,240107,0.0-3.7-0.7,i66c4nch84q,2022-09-16 14:52:04.624,5ac4fbad1667e40001d8615e,2,23,37,15,13,64,Female,92989.7000000477,,static/images/instructions_CB_2/Slide8.png,39.0,,,,,,,,,,,,,,,,,,,,,,,,,,,
11,0,,image-keyboard-response,11,251295,0.0-3.8-0.8,i66c4nch84q,2022-09-16 14:52:04.624,5ac4fbad1667e40001d8615e,2,23,37,15,13,64,Female,11186.6000001431,,static/images/instructions_CB_2/Slide9.png,39.0,,,,,,,,,,,,,,,,,,,,,,,,,,,
12,0,,image-keyboard-response,12,284832,0.0-3.9-0.9,i66c4nch84q,2022-09-16 14:52:04.624,5ac4fbad1667e40001d8615e,2,23,37,15,13,64,Female,33534.7999999523,,static/images/instructions_CB_2/Slide10.png,39.0,,,,,,,,,,,,,,,,,,,,,,,,,,,
13,0,,image-keyboard-response,13,299894,0.0-3.10-0.10,i66c4nch84q,2022-09-16 14:52:04.624,5ac4fbad1667e40001d8615e,2,23,37,15,13,64,Female,15060.9000000954,,static/images/instructions_CB_2/Slide11.png,39.0,,,,,,,,,,,,,,,,,,,,,,,,,,,
14,0,,image-keyboard-response,14,347508,0.0-3.11-0.11,i66c4nch84q,2022-09-16 14:52:04.624,5ac4fbad1667e40001d8615e,2,23,37,15,13,64,Female,47612.7000000477,,static/images/instructions_CB_2/Slide12.png,39.0,,,,,,,,,,,,,,,,,,,,,,,,,,,
15,0,,image-keyboard-response,15,387949,0.0-3.12-0.12,i66c4nch84q,2022-09-16 14:52:04.624,5ac4fbad1667e40001d8615e,2,23,37,15,13,64,Female,40438.6000001431,,static/images/instructions_CB_2/Slide13.png,39.0,,,,,,,,,,,,,,,,,,,,,,,,,,,
16,0,,image-keyboard-response,16,412786,0.0-3.13-0.13,i66c4nch84q,2022-09-16 14:52:04.624,5ac4fbad1667e40001d8615e,2,23,37,15,13,64,Female,24835.7999999523,,static/images/instructions_CB_2/Slide14.png,39.0,,,,,,,,,,,,,,,,,,,,,,,,,,,
17,0,,image-keyboard-response,17,435029,0.0-3.14-0.14,i66c4nch84q,2022-09-16 14:52:04.624,5ac4fbad1667e40001d8615e,2,23,37,15,13,64,Female,22241.8999998569,,static/images/instructions_CB_2/Slide15.png,39.0,,,,,,,,,,,,,,,,,,,,,,,,,,,
18,0,,image-keyboard-response,18,442900,0.0-3.15-0.15,i66c4nch84q,2022-09-16 14:52:04.624,5ac4fbad1667e40001d8615e,2,23,37,15,13,64,Female,7869.0,,static/images/instructions_CB_2/Slide16.png,39.0,,,,,,,,,,,,,,,,,,,,,,,,,,,
19,0,,image-keyboard-response,19,455139,0.0-3.16-0.16,i66c4nch84q,2022-09-16 14:52:04.624,5ac4fbad1667e40001d8615e,2,23,37,15,13,64,Female,12237.4000000954,,static/images/instructions_CB_2/Slide17.png,39.0,,,,,,,,,,,,,,,,,,,,,,,,,,,
20,0,,image-keyboard-response,20,482217,0.0-3.17-0.17,i66c4nch84q,2022-09-16 14:52:04.624,5ac4fbad1667e40001d8615e,2,23,37,15,13,64,Female,27076.4000000954,,static/images/instructions_CB_2/Slide18.png,39.0,,,,,,,,,,,,,,,,,,,,,,,,,,,
21,0,,image-keyboard-response,21,494679,0.0-3.18-0.18,i66c4nch84q,2022-09-16 14:52:04.624,5ac4fbad1667e40001d8615e,2,23,37,15,13,64,Female,12460.0,,static/images/instructions_CB_2/Slide19.png,39.0,,,,,,,,,,,,,,,,,,,,,,,,,,,
22,0,,html-keyboard-response,22,496181,0.0-4.0-0.0,i66c4nch84q,2022-09-16 14:52:04.624,5ac4fbad1667e40001d8615e,2,23,37,15,13,64,Female,,,"<img src=""static/images/cards/stack_of_black_stars.svg"" width=""175px"" height=""250px""></img>",,,,,,,,,,,,,,,,,,,,,,,,,,,,
23,0,,html-keyboard-response,23,496808,0.0-4.0-1.0,i66c4nch84q,2022-09-16 14:52:04.624,5ac4fbad1667e40001d8615e,2,23,37,15,13,64,Female,124.1000001431,,"
  <table>
  <tr height=300>
    <td width=300 height=300><img src=""static/images/cards/back_of_black_stars.svg"" width=""175px"" height=""250px""></img></td>
    <td width=300 height=300><img src=""static/images/cards/back_of_black_stars.svg"" width=""175px"" height=""250px""></img></td>
  </tr>
  <tr height=200>
    <td width=300><img src=""static/images/keys/z.svg"" width=""35%"" height=""75%""></img></td>
    <td width=300><img src=""static/images/keys/m.svg"" width=""35%"" height=""75%""></img></td>
  </tr>
</table>
  ",90.0,1.0,,,,,,,,,,,,,,,,,,,,,,,,,,
24,0,,html-keyboard-response,24,498311,0.0-4.0-2.0,i66c4nch84q,2022-09-16 14:52:04.624,5ac4fbad1667e40001d8615e,2,23,37,15,13,64,Female,,,"
  <table>
  <tr height=300>
    <td width=300 height=300><img src=""static/images/cards/9_of_black_stars.svg"" width=""175px"" height=""250px""></img></td>
    <td width=300 height=300><img src=""static/images/cards/back_of_black_stars.svg"" width=""175px"" height=""250px""></img></td>
  </tr>
  <tr height=200>
    <td width=300><img src=""static/images/keys/z.svg"" width=""35%"" height=""75%""></img></td>
    <td width=300><img src=""static/images/keys/m.svg"" width=""35%"" height=""75%""></img></td>
  </tr>
</table>
  ",,,,,,,,,,,,,,,,,,,,,,,,,,,,
25,0,,html-keyboard-response,25,499814,0.0-4.0-3.0,i66c4nch84q,2022-09-16 14:52:04.624,5ac4fbad1667e40001d8615e,2,23,37,15,13,64,Female,,,"<p style=""font-size:50px"">You win!
+10 points this round!</p>",,,,,,,,,,,,,,,,,,,,,,,,,,,,
26,0,,html-keyboard-response,26,500320,0.0-4.0-4.0,i66c4nch84q,2022-09-16 14:52:04.624,5ac4fbad1667e40001d8615e,2,23,37,15,13,64,Female,,,,,,1.0,learning,0.0,A,,black,,stars,,,,A,black,stars,,1.0,1.0,NA,left,124.1000001431,9.0,1.0,1.0,,,
27,0,,html-keyboard-response,27,501823,0.0-4.1-0.1,i66c4nch84q,2022-09-16 14:52:04.624,5ac4fbad1667e40001d8615e,2,23,37,15,13,64,Female,,,"<img src=""static/images/cards/stack_of_red_stars.svg"" width=""175px"" height=""250px""></img>",,,,,,,,,,,,,,,,,,,,,,,,,,,,
28,0,,html-keyboard-response,28,503741,0.0-4.1-1.1,i66c4nch84q,2022-09-16 14:52:04.624,5ac4fbad1667e40001d8615e,2,23,37,15,13,64,Female,1414.5,,"
  <table>
  <tr height=300>
    <td width=300 height=300><img src=""static/images/cards/back_of_red_stars.svg"" width=""175px"" height=""250px""></img></td>
    <td width=300 height=300><img src=""static/images/cards/back_of_red_stars.svg"" width=""175px"" height=""250px""></img></td>
  </tr>
  <tr height=200>
    <td width=300></td>
    <td width=300><img src=""static/images/keys/m.svg"" width=""35%"" height=""75%""></img></td>
  </tr>
</table>
  ",77.0,1.0,,,,,,,,,,,,,,,,,,,,,,,,,,
29,0,,html-keyboard-response,29,505243,0.0-4.1-2.1,i66c4nch84q,2022-09-16 14:52:04.624,5ac4fbad1667e40001d8615e,2,23,37,15,13,64,Female,,,"
  <table>
  <tr height=300>
    <td width=300 height=300><img src=""static/images/cards/back_of_red_stars.svg"" width=""175px"" height=""250px""></img></td>
    <td width=300 height=300><img src=""static/images/cards/2_of_red_stars.svg"" width=""175px"" height=""250px""></img></td>
  </tr>
  <tr height=200>
    <td width=300></td>
    <td width=300><img src=""static/images/keys/m.svg"" width=""35%"" height=""75%""></img></td>
  </tr>
</table>
  ",,,,,,,,,,,,,,,,,,,,,,,,,,,,
30,0,,html-keyboard-response,30,506746,0.0-4.1-3.1,i66c4nch84q,2022-09-16 14:52:04.624,5ac4fbad1667e40001d8615e,2,23,37,15,13,64,Female,,,"<p style=""font-size:50px"">You Lose!
No points this round.</p>",,,,,,,,,,,,,,,,,,,,,,,,,,,,
31,0,,html-keyboard-response,31,507252,0.0-4.1-4.1,i66c4nch84q,2022-09-16 14:52:04.624,5ac4fbad1667e40001d8615e,2,23,37,15,13,64,Female,,,,,,1.0,learning,1.0,B,,red,,stars,,,,B,red,stars,,0.0,1.0,0,right,1414.5,2.0,0.0,0.0,,,
32,0,,html-keyboard-response,32,508754,0.0-4.2-0.2,i66c4nch84q,2022-09-16 14:52:04.624,5ac4fbad1667e40001d8615e,2,23,37,15,13,64,Female,,,"<img src=""static/images/cards/stack_of_black_moons.svg"" width=""175px"" height=""250px""></img>",,,,,,,,,,,,,,,,,,,,,,,,,,,,
33,0,,html-keyboard-response,33,510185,0.0-4.2-1.2,i66c4nch84q,2022-09-16 14:52:04.624,5ac4fbad1667e40001d8615e,2,23,37,15,13,64,Female,927.6000001431,,"
  <table>
  <tr height=300>
    <td width=300 height=300><img src=""static/images/cards/back_of_black_moons.svg"" width=""175px"" height=""250px""></img></td>
    <td width=300 height=300><img src=""static/images/cards/back_of_black_moons.svg"" width=""175px"" height=""250px""></img></td>
  </tr>
  <tr height=200>
    <td width=300><img src=""static/images/keys/z.svg"" width=""35%"" height=""75%""></img></td>
    <td width=300><img src=""static/images/keys/m.svg"" width=""35%"" height=""75%""></img></td>
  </tr>
</table>
  ",90.0,1.0,,,,,,,,,,,,,,,,,,,,,,,,,,
34,0,,html-keyboard-response,34,511688,0.0-4.2-2.2,i66c4nch84q,2022-09-16 14:52:04.624,5ac4fbad1667e40001d8615e,2,23,37,15,13,64,Female,,,"
  <table>
  <tr height=300>
    <td width=300 height=300><img src=""static/images/cards/1_of_black_moons.svg"" width=""175px"" height=""250px""></img></td>
    <td width=300 height=300><img src=""static/images/cards/back_of_black_moons.svg"" width=""175px"" height=""250px""></img></td>
  </tr>
  <tr height=200>
    <td width=300><img src=""static/images/keys/z.svg"" width=""35%"" height=""75%""></img></td>
    <td width=300><img src=""static/images/keys/m.svg"" width=""35%"" height=""75%""></img></td>
  </tr>
</table>
  ",,,,,,,,,,,,,,,,,,,,,,,,,,,,
35,0,,html-keyboard-response,35,513189,0.0-4.2-3.2,i66c4nch84q,2022-09-16 14:52:04.624,5ac4fbad1667e40001d8615e,2,23,37,15,13,64,Female,,,"<p style=""font-size:50px"">You Lose!
No points this round.</p>",,,,,,,,,,,,,,,,,,,,,,,,,,,,
36,0,,html-keyboard-response,36,513696,0.0-4.2-4.2,i66c4nch84q,2022-09-16 14:52:04.624,5ac4fbad1667e40001d8615e,2,23,37,15,13,64,Female,,,,,,1.0,learning,2.0,C,,black,,moons,,,,C,black,moons,,1.0,0.0,NA,left,927.6000001431,1.0,0.0,0.0,,,
37,0,,html-keyboard-response,37,515197,0.0-4.3-0.3,i66c4nch84q,2022-09-16 14:52:04.624,5ac4fbad1667e40001d8615e,2,23,37,15,13,64,Female,,,"<img src=""static/images/cards/stack_of_red_moons.svg"" width=""175px"" height=""250px""></img>",,,,,,,,,,,,,,,,,,,,,,,,,,,,
38,0,,html-keyboard-response,38,517204,0.0-4.3-1.3,i66c4nch84q,2022-09-16 14:52:04.624,5ac4fbad1667e40001d8615e,2,23,37,15,13,64,Female,1503.7999999523,,"
  <table>
  <tr height=300>
    <td width=300 height=300><img src=""static/images/cards/back_of_red_moons.svg"" width=""175px"" height=""250px""></img></td>
    <td width=300 height=300><img src=""static/images/cards/back_of_red_moons.svg"" width=""175px"" height=""250px""></img></td>
  </tr>
  <tr height=200>
    <td width=300></td>
    <td width=300><img src=""static/images/keys/m.svg"" width=""35%"" height=""75%""></img></td>
  </tr>
</table>
  ",77.0,1.0,,,,,,,,,,,,,,,,,,,,,,,,,,
39,0,,html-keyboard-response,39,518706,0.0-4.3-2.3,i66c4nch84q,2022-09-16 14:52:04.624,5ac4fbad1667e40001d8615e,2,23,37,15,13,64,Female,,,"
  <table>
  <tr height=300>
    <td width=300 height=300><img src=""static/images/cards/back_of_red_moons.svg"" width=""175px"" height=""250px""></img></td>
    <td width=300 height=300><img src=""static/images/cards/1_of_red_moons.svg"" width=""175px"" height=""250px""></img></td>
  </tr>
  <tr height=200>
    <td width=300></td>
    <td width=300><img src=""static/images/keys/m.svg"" width=""35%"" height=""75%""></img></td>
  </tr>
</table>
  ",,,,,,,,,,,,,,,,,,,,,,,,,,,,
40,0,,html-keyboard-response,40,520207,0.0-4.3-3.3,i66c4nch84q,2022-09-16 14:52:04.624,5ac4fbad1667e40001d8615e,2,23,37,15,13,64,Female,,,"<p style=""font-size:50px"">You win!
+10 points this round!</p>",,,,,,,,,,,,,,,,,,,,,,,,,,,,
41,0,,html-keyboard-response,41,520714,0.0-4.3-4.3,i66c4nch84q,2022-09-16 14:52:04.624,5ac4fbad1667e40001d8615e,2,23,37,15,13,64,Female,,,,,,1.0,learning,3.0,D,,red,,moons,,,,D,red,moons,,0.0,0.0,0,right,1503.7999999523,1.0,0.0,1.0,,,
42,0,,html-keyboard-response,42,522215,0.0-4.4-0.4,i66c4nch84q,2022-09-16 14:52:04.624,5ac4fbad1667e40001d8615e,2,23,37,15,13,64,Female,,,"<img src=""static/images/cards/stack_of_red_bolts.svg"" width=""175px"" height=""250px""></img>",,,,,,,,,,,,,,,,,,,,,,,,,,,,
43,0,,html-keyboard-response,43,524115,0.0-4.4-1.4,i66c4nch84q,2022-09-16 14:52:04.624,5ac4fbad1667e40001d8615e,2,23,37,15,13,64,Female,1396.4000000954,,"
  <table>
  <tr height=300>
    <td width=300 height=300><img src=""static/images/cards/back_of_red_bolts.svg"" width=""175px"" height=""250px""></img></td>
    <td width=300 height=300><img src=""static/images/cards/back_of_red_bolts.svg"" width=""175px"" height=""250px""></img></td>
  </tr>
  <tr height=200>
    <td width=300><img src=""static/images/keys/z.svg"" width=""35%"" height=""75%""></img></td>
    <td width=300><img src=""static/images/keys/m.svg"" width=""35%"" height=""75%""></img></td>
  </tr>
</table>
  ",77.0,1.0,,,,,,,,,,,,,,,,,,,,,,,,,,
44,0,,html-keyboard-response,44,525618,0.0-4.4-2.4,i66c4nch84q,2022-09-16 14:52:04.624,5ac4fbad1667e40001d8615e,2,23,37,15,13,64,Female,,,"
  <table>
  <tr height=300>
    <td width=300 height=300><img src=""static/images/cards/back_of_red_bolts.svg"" width=""175px"" height=""250px""></img></td>
    <td width=300 height=300><img src=""static/images/cards/2_of_red_bolts.svg"" width=""175px"" height=""250px""></img></td>
  </tr>
  <tr height=200>
    <td width=300><img src=""static/images/keys/z.svg"" width=""35%"" height=""75%""></img></td>
    <td width=300><img src=""static/images/keys/m.svg"" width=""35%"" height=""75%""></img></td>
  </tr>
</table>
  ",,,,,,,,,,,,,,,,,,,,,,,,,,,,
45,0,,html-keyboard-response,45,527120,0.0-4.4-3.4,i66c4nch84q,2022-09-16 14:52:04.624,5ac4fbad1667e40001d8615e,2,23,37,15,13,64,Female,,,"<p style=""font-size:50px"">You win!
+10 points this round!</p>",,,,,,,,,,,,,,,,,,,,,,,,,,,,
46,0,,html-keyboard-response,46,527626,0.0-4.4-4.4,i66c4nch84q,2022-09-16 14:52:04.624,5ac4fbad1667e40001d8615e,2,23,37,15,13,64,Female,,,,,,1.0,learning,4.0,Xc,,red,,bolts,,,,Xc,red,bolts,,1.0,0.0,NA,right,1396.4000000954,2.0,0.0,1.0,,,
47,0,,html-keyboard-response,47,529128,0.0-4.5-0.5,i66c4nch84q,2022-09-16 14:52:04.624,5ac4fbad1667e40001d8615e,2,23,37,15,13,64,Female,,,"<img src=""static/images/cards/stack_of_black_bolts.svg"" width=""175px"" height=""250px""></img>",,,,,,,,,,,,,,,,,,,,,,,,,,,,
48,0,,html-keyboard-response,48,531070,0.0-4.5-1.5,i66c4nch84q,2022-09-16 14:52:04.624,5ac4fbad1667e40001d8615e,2,23,37,15,13,64,Female,1439.5999999046,,"
  <table>
  <tr height=300>
    <td width=300 height=300><img src=""static/images/cards/back_of_black_bolts.svg"" width=""175px"" height=""250px""></img></td>
    <td width=300 height=300><img src=""static/images/cards/back_of_black_bolts.svg"" width=""175px"" height=""250px""></img></td>
  </tr>
  <tr height=200>
    <td width=300></td>
    <td width=300><img src=""static/images/keys/m.svg"" width=""35%"" height=""75%""></img></td>
  </tr>
</table>
  ",77.0,1.0,,,,,,,,,,,,,,,,,,,,,,,,,,
49,0,,html-keyboard-response,49,532572,0.0-4.5-2.5,i66c4nch84q,2022-09-16 14:52:04.624,5ac4fbad1667e40001d8615e,2,23,37,15,13,64,Female,,,"
  <table>
  <tr height=300>
    <td width=300 height=300><img src=""static/images/cards/back_of_black_bolts.svg"" width=""175px"" height=""250px""></img></td>
    <td width=300 height=300><img src=""static/images/cards/8_of_black_bolts.svg"" width=""175px"" height=""250px""></img></td>
  </tr>
  <tr height=200>
    <td width=300></td>
    <td width=300><img src=""static/images/keys/m.svg"" width=""35%"" height=""75%""></img></td>
  </tr>
</table>
  ",,,,,,,,,,,,,,,,,,,,,,,,,,,,
50,0,,html-keyboard-response,50,534076,0.0-4.5-3.5,i66c4nch84q,2022-09-16 14:52:04.624,5ac4fbad1667e40001d8615e,2,23,37,15,13,64,Female,,,"<p style=""font-size:50px"">You win!
+10 points this round!</p>",,,,,,,,,,,,,,,,,,,,,,,,,,,,
51,0,,html-keyboard-response,51,534582,0.0-4.5-4.5,i66c4nch84q,2022-09-16 14:52:04.624,5ac4fbad1667e40001d8615e,2,23,37,15,13,64,Female,,,,,,1.0,learning,5.0,Xnc,,black,,bolts,,,,Xnc,black,bolts,,0.0,0.0,0,right,1439.5999999046,8.0,1.0,1.0,,,
52,0,,html-keyboard-response,52,536084,0.0-4.6-0.6,i66c4nch84q,2022-09-16 14:52:04.624,5ac4fbad1667e40001d8615e,2,23,37,15,13,64,Female,,,"<img src=""static/images/cards/stack_of_black_stars.svg"" width=""175px"" height=""250px""></img>",,,,,,,,,,,,,,,,,,,,,,,,,,,,
53,0,,html-keyboard-response,53,539102,0.0-4.6-1.6,i66c4nch84q,2022-09-16 14:52:04.624,5ac4fbad1667e40001d8615e,2,23,37,15,13,64,Female,2515.0,,"
  <table>
  <tr height=300>
    <td width=300 height=300><img src=""static/images/cards/back_of_black_stars.svg"" width=""175px"" height=""250px""></img></td>
    <td width=300 height=300><img src=""static/images/cards/back_of_black_stars.svg"" width=""175px"" height=""250px""></img></td>
  </tr>
  <tr height=200>
    <td width=300><img src=""static/images/keys/z.svg"" width=""35%"" height=""75%""></img></td>
    <td width=300><img src=""static/images/keys/m.svg"" width=""35%"" height=""75%""></img></td>
  </tr>
</table>
  ",90.0,1.0,,,,,,,,,,,,,,,,,,,,,,,,,,
54,0,,html-keyboard-response,54,540603,0.0-4.6-2.6,i66c4nch84q,2022-09-16 14:52:04.624,5ac4fbad1667e40001d8615e,2,23,37,15,13,64,Female,,,"
  <table>
  <tr height=300>
    <td width=300 height=300><img src=""static/images/cards/3_of_black_stars.svg"" width=""175px"" height=""250px""></img></td>
    <td width=300 height=300><img src=""static/images/cards/back_of_black_stars.svg"" width=""175px"" height=""250px""></img></td>
  </tr>
  <tr height=200>
    <td width=300><img src=""static/images/keys/z.svg"" width=""35%"" height=""75%""></img></td>
    <td width=300><img src=""static/images/keys/m.svg"" width=""35%"" height=""75%""></img></td>
  </tr>
</table>
  ",,,,,,,,,,,,,,,,,,,,,,,,,,,,
55,0,,html-keyboard-response,55,542105,0.0-4.6-3.6,i66c4nch84q,2022-09-16 14:52:04.624,5ac4fbad1667e40001d8615e,2,23,37,15,13,64,Female,,,"<p style=""font-size:50px"">You Lose!
No points this round.</p>",,,,,,,,,,,,,,,,,,,,,,,,,,,,
56,0,,html-keyboard-response,56,542612,0.0-4.6-4.6,i66c4nch84q,2022-09-16 14:52:04.624,5ac4fbad1667e40001d8615e,2,23,37,15,13,64,Female,,,,,,1.0,learning,6.0,A,,black,,stars,,,,A,black,stars,,1.0,1.0,NA,left,2515.0,3.0,0.0,0.0,,,
57,0,,html-keyboard-response,57,544114,0.0-4.7-0.7,i66c4nch84q,2022-09-16 14:52:04.624,5ac4fbad1667e40001d8615e,2,23,37,15,13,64,Female,,,"<img src=""static/images/cards/stack_of_red_stars.svg"" width=""175px"" height=""250px""></img>",,,,,,,,,,,,,,,,,,,,,,,,,,,,
58,0,,html-keyboard-response,58,546248,0.0-4.7-1.7,i66c4nch84q,2022-09-16 14:52:04.624,5ac4fbad1667e40001d8615e,2,23,37,15,13,64,Female,1630.5,,"
  <table>
  <tr height=300>
    <td width=300 height=300><img src=""static/images/cards/back_of_red_stars.svg"" width=""175px"" height=""250px""></img></td>
    <td width=300 height=300><img src=""static/images/cards/back_of_red_stars.svg"" width=""175px"" height=""250px""></img></td>
  </tr>
  <tr height=200>
    <td width=300><img src=""static/images/keys/z.svg"" width=""35%"" height=""75%""></img></td>
    <td width=300></td>
  </tr>
</table>
  ",90.0,1.0,,,,,,,,,,,,,,,,,,,,,,,,,,
59,0,,html-keyboard-response,59,547750,0.0-4.7-2.7,i66c4nch84q,2022-09-16 14:52:04.624,5ac4fbad1667e40001d8615e,2,23,37,15,13,64,Female,,,"
  <table>
  <tr height=300>
    <td width=300 height=300><img src=""static/images/cards/8_of_red_stars.svg"" width=""175px"" height=""250px""></img></td>
    <td width=300 height=300><img src=""static/images/cards/back_of_red_stars.svg"" width=""175px"" height=""250px""></img></td>
  </tr>
  <tr height=200>
    <td width=300><img src=""static/images/keys/z.svg"" width=""35%"" height=""75%""></img></td>
    <td width=300></td>
  </tr>
</table>
  ",,,,,,,,,,,,,,,,,,,,,,,,,,,,
60,0,,html-keyboard-response,60,549252,0.0-4.7-3.7,i66c4nch84q,2022-09-16 14:52:04.624,5ac4fbad1667e40001d8615e,2,23,37,15,13,64,Female,,,"<p style=""font-size:50px"">You win!
+10 points this round!</p>",,,,,,,,,,,,,,,,,,,,,,,,,,,,
61,0,,html-keyboard-response,61,549758,0.0-4.7-4.7,i66c4nch84q,2022-09-16 14:52:04.624,5ac4fbad1667e40001d8615e,2,23,37,15,13,64,Female,,,,,,1.0,learning,7.0,B,,red,,stars,,,,B,red,stars,,0.0,1.0,1,left,1630.5,8.0,1.0,1.0,,,
62,0,,html-keyboard-response,62,551260,0.0-4.8-0.8,i66c4nch84q,2022-09-16 14:52:04.624,5ac4fbad1667e40001d8615e,2,23,37,15,13,64,Female,,,"<img src=""static/images/cards/stack_of_black_moons.svg"" width=""175px"" height=""250px""></img>",,,,,,,,,,,,,,,,,,,,,,,,,,,,
63,0,,html-keyboard-response,63,553254,0.0-4.8-1.8,i66c4nch84q,2022-09-16 14:52:04.624,5ac4fbad1667e40001d8615e,2,23,37,15,13,64,Female,1490.1999998093,,"
  <table>
  <tr height=300>
    <td width=300 height=300><img src=""static/images/cards/back_of_black_moons.svg"" width=""175px"" height=""250px""></img></td>
    <td width=300 height=300><img src=""static/images/cards/back_of_black_moons.svg"" width=""175px"" height=""250px""></img></td>
  </tr>
  <tr height=200>
    <td width=300><img src=""static/images/keys/z.svg"" width=""35%"" height=""75%""></img></td>
    <td width=300><img src=""static/images/keys/m.svg"" width=""35%"" height=""75%""></img></td>
  </tr>
</table>
  ",77.0,1.0,,,,,,,,,,,,,,,,,,,,,,,,,,
64,0,,html-keyboard-response,64,554756,0.0-4.8-2.8,i66c4nch84q,2022-09-16 14:52:04.624,5ac4fbad1667e40001d8615e,2,23,37,15,13,64,Female,,,"
  <table>
  <tr height=300>
    <td width=300 height=300><img src=""static/images/cards/back_of_black_moons.svg"" width=""175px"" height=""250px""></img></td>
    <td width=300 height=300><img src=""static/images/cards/2_of_black_moons.svg"" width=""175px"" height=""250px""></img></td>
  </tr>
  <tr height=200>
    <td width=300><img src=""static/images/keys/z.svg"" width=""35%"" height=""75%""></img></td>
    <td width=300><img src=""static/images/keys/m.svg"" width=""35%"" height=""75%""></img></td>
  </tr>
</table>
  ",,,,,,,,,,,,,,,,,,,,,,,,,,,,
65,0,,html-keyboard-response,65,556258,0.0-4.8-3.8,i66c4nch84q,2022-09-16 14:52:04.624,5ac4fbad1667e40001d8615e,2,23,37,15,13,64,Female,,,"<p style=""font-size:50px"">You Lose!
No points this round.</p>",,,,,,,,,,,,,,,,,,,,,,,,,,,,
66,0,,html-keyboard-response,66,556765,0.0-4.8-4.8,i66c4nch84q,2022-09-16 14:52:04.624,5ac4fbad1667e40001d8615e,2,23,37,15,13,64,Female,,,,,,1.0,learning,8.0,C,,black,,moons,,,,C,black,moons,,1.0,0.0,NA,right,1490.1999998093,2.0,0.0,0.0,,,
67,0,,html-keyboard-response,67,558267,0.0-4.9-0.9,i66c4nch84q,2022-09-16 14:52:04.624,5ac4fbad1667e40001d8615e,2,23,37,15,13,64,Female,,,"<img src=""static/images/cards/stack_of_red_moons.svg"" width=""175px"" height=""250px""></img>",,,,,,,,,,,,,,,,,,,,,,,,,,,,
68,0,,html-keyboard-response,68,560042,0.0-4.9-1.9,i66c4nch84q,2022-09-16 14:52:04.624,5ac4fbad1667e40001d8615e,2,23,37,15,13,64,Female,1270.2999999523,,"
  <table>
  <tr height=300>
    <td width=300 height=300><img src=""static/images/cards/back_of_red_moons.svg"" width=""175px"" height=""250px""></img></td>
    <td width=300 height=300><img src=""static/images/cards/back_of_red_moons.svg"" width=""175px"" height=""250px""></img></td>
  </tr>
  <tr height=200>
    <td width=300><img src=""static/images/keys/z.svg"" width=""35%"" height=""75%""></img></td>
    <td width=300></td>
  </tr>
</table>
  ",90.0,1.0,,,,,,,,,,,,,,,,,,,,,,,,,,
69,0,,html-keyboard-response,69,561544,0.0-4.9-2.9,i66c4nch84q,2022-09-16 14:52:04.624,5ac4fbad1667e40001d8615e,2,23,37,15,13,64,Female,,,"
  <table>
  <tr height=300>
    <td width=300 height=300><img src=""static/images/cards/8_of_red_moons.svg"" width=""175px"" height=""250px""></img></td>
    <td width=300 height=300><img src=""static/images/cards/back_of_red_moons.svg"" width=""175px"" height=""250px""></img></td>
  </tr>
  <tr height=200>
    <td width=300><img src=""static/images/keys/z.svg"" width=""35%"" height=""75%""></img></td>
    <td width=300></td>
  </tr>
</table>
  ",,,,,,,,,,,,,,,,,,,,,,,,,,,,
70,0,,html-keyboard-response,70,563047,0.0-4.9-3.9,i66c4nch84q,2022-09-16 14:52:04.624,5ac4fbad1667e40001d8615e,2,23,37,15,13,64,Female,,,"<p style=""font-size:50px"">You win!
+10 points this round!</p>",,,,,,,,,,,,,,,,,,,,,,,,,,,,
71,0,,html-keyboard-response,71,563554,0.0-4.9-4.9,i66c4nch84q,2022-09-16 14:52:04.624,5ac4fbad1667e40001d8615e,2,23,37,15,13,64,Female,,,,,,1.0,learning,9.0,D,,red,,moons,,,,D,red,moons,,0.0,0.0,1,left,1270.2999999523,8.0,1.0,1.0,,,
72,0,,html-keyboard-response,72,565057,0.0-4.10-0.10,i66c4nch84q,2022-09-16 14:52:04.624,5ac4fbad1667e40001d8615e,2,23,37,15,13,64,Female,,,"<img src=""static/images/cards/stack_of_red_bolts.svg"" width=""175px"" height=""250px""></img>",,,,,,,,,,,,,,,,,,,,,,,,,,,,
73,0,,html-keyboard-response,73,567445,0.0-4.10-1.10,i66c4nch84q,2022-09-16 14:52:04.624,5ac4fbad1667e40001d8615e,2,23,37,15,13,64,Female,1885.5,,"
  <table>
  <tr height=300>
    <td width=300 height=300><img src=""static/images/cards/back_of_red_bolts.svg"" width=""175px"" height=""250px""></img></td>
    <td width=300 height=300><img src=""static/images/cards/back_of_red_bolts.svg"" width=""175px"" height=""250px""></img></td>
  </tr>
  <tr height=200>
    <td width=300><img src=""static/images/keys/z.svg"" width=""35%"" height=""75%""></img></td>
    <td width=300><img src=""static/images/keys/m.svg"" width=""35%"" height=""75%""></img></td>
  </tr>
</table>
  ",90.0,1.0,,,,,,,,,,,,,,,,,,,,,,,,,,
74,0,,html-keyboard-response,74,568946,0.0-4.10-2.10,i66c4nch84q,2022-09-16 14:52:04.624,5ac4fbad1667e40001d8615e,2,23,37,15,13,64,Female,,,"
  <table>
  <tr height=300>
    <td width=300 height=300><img src=""static/images/cards/10_of_red_bolts.svg"" width=""175px"" height=""250px""></img></td>
    <td width=300 height=300><img src=""static/images/cards/back_of_red_bolts.svg"" width=""175px"" height=""250px""></img></td>
  </tr>
  <tr height=200>
    <td width=300><img src=""static/images/keys/z.svg"" width=""35%"" height=""75%""></img></td>
    <td width=300><img src=""static/images/keys/m.svg"" width=""35%"" height=""75%""></img></td>
  </tr>
</table>
  ",,,,,,,,,,,,,,,,,,,,,,,,,,,,
75,0,,html-keyboard-response,75,570449,0.0-4.10-3.10,i66c4nch84q,2022-09-16 14:52:04.624,5ac4fbad1667e40001d8615e,2,23,37,15,13,64,Female,,,"<p style=""font-size:50px"">You win!
+10 points this round!</p>",,,,,,,,,,,,,,,,,,,,,,,,,,,,
76,0,,html-keyboard-response,76,570955,0.0-4.10-4.10,i66c4nch84q,2022-09-16 14:52:04.624,5ac4fbad1667e40001d8615e,2,23,37,15,13,64,Female,,,,,,1.0,learning,10.0,Xc,,red,,bolts,,,,Xc,red,bolts,,1.0,0.0,NA,left,1885.5,10.0,1.0,1.0,,,
77,0,,html-keyboard-response,77,572457,0.0-4.11-0.11,i66c4nch84q,2022-09-16 14:52:04.624,5ac4fbad1667e40001d8615e,2,23,37,15,13,64,Female,,,"<img src=""static/images/cards/stack_of_black_bolts.svg"" width=""175px"" height=""250px""></img>",,,,,,,,,,,,,,,,,,,,,,,,,,,,
78,0,,html-keyboard-response,78,574346,0.0-4.11-1.11,i66c4nch84q,2022-09-16 14:52:04.624,5ac4fbad1667e40001d8615e,2,23,37,15,13,64,Female,1386.2000000477,,"
  <table>
  <tr height=300>
    <td width=300 height=300><img src=""static/images/cards/back_of_black_bolts.svg"" width=""175px"" height=""250px""></img></td>
    <td width=300 height=300><img src=""static/images/cards/back_of_black_bolts.svg"" width=""175px"" height=""250px""></img></td>
  </tr>
  <tr height=200>
    <td width=300><img src=""static/images/keys/z.svg"" width=""35%"" height=""75%""></img></td>
    <td width=300></td>
  </tr>
</table>
  ",90.0,1.0,,,,,,,,,,,,,,,,,,,,,,,,,,
79,0,,html-keyboard-response,79,575851,0.0-4.11-2.11,i66c4nch84q,2022-09-16 14:52:04.624,5ac4fbad1667e40001d8615e,2,23,37,15,13,64,Female,,,"
  <table>
  <tr height=300>
    <td width=300 height=300><img src=""static/images/cards/6_of_black_bolts.svg"" width=""175px"" height=""250px""></img></td>
    <td width=300 height=300><img src=""static/images/cards/back_of_black_bolts.svg"" width=""175px"" height=""250px""></img></td>
  </tr>
  <tr height=200>
    <td width=300><img src=""static/images/keys/z.svg"" width=""35%"" height=""75%""></img></td>
    <td width=300></td>
  </tr>
</table>
  ",,,,,,,,,,,,,,,,,,,,,,,,,,,,
80,0,,html-keyboard-response,80,577354,0.0-4.11-3.11,i66c4nch84q,2022-09-16 14:52:04.624,5ac4fbad1667e40001d8615e,2,23,37,15,13,64,Female,,,"<p style=""font-size:50px"">You win!
+10 points this round!</p>",,,,,,,,,,,,,,,,,,,,,,,,,,,,
81,0,,html-keyboard-response,81,577861,0.0-4.11-4.11,i66c4nch84q,2022-09-16 14:52:04.624,5ac4fbad1667e40001d8615e,2,23,37,15,13,64,Female,,,,,,1.0,learning,11.0,Xnc,,black,,bolts,,,,Xnc,black,bolts,,0.0,0.0,1,left,1386.2000000477,6.0,1.0,1.0,,,
82,0,,html-keyboard-response,82,579362,0.0-4.12-0.12,i66c4nch84q,2022-09-16 14:52:04.624,5ac4fbad1667e40001d8615e,2,23,37,15,13,64,Female,,,"<img src=""static/images/cards/stack_of_black_stars.svg"" width=""175px"" height=""250px""></img>",,,,,,,,,,,,,,,,,,,,,,,,,,,,
83,0,,html-keyboard-response,83,582192,0.0-4.12-1.12,i66c4nch84q,2022-09-16 14:52:04.624,5ac4fbad1667e40001d8615e,2,23,37,15,13,64,Female,2326.6999998093,,"
  <table>
  <tr height=300>
    <td width=300 height=300><img src=""static/images/cards/back_of_black_stars.svg"" width=""175px"" height=""250px""></img></td>
    <td width=300 height=300><img src=""static/images/cards/back_of_black_stars.svg"" width=""175px"" height=""250px""></img></td>
  </tr>
  <tr height=200>
    <td width=300><img src=""static/images/keys/z.svg"" width=""35%"" height=""75%""></img></td>
    <td width=300><img src=""static/images/keys/m.svg"" width=""35%"" height=""75%""></img></td>
  </tr>
</table>
  ",90.0,1.0,,,,,,,,,,,,,,,,,,,,,,,,,,
84,0,,html-keyboard-response,84,583694,0.0-4.12-2.12,i66c4nch84q,2022-09-16 14:52:04.624,5ac4fbad1667e40001d8615e,2,23,37,15,13,64,Female,,,"
  <table>
  <tr height=300>
    <td width=300 height=300><img src=""static/images/cards/6_of_black_stars.svg"" width=""175px"" height=""250px""></img></td>
    <td width=300 height=300><img src=""static/images/cards/back_of_black_stars.svg"" width=""175px"" height=""250px""></img></td>
  </tr>
  <tr height=200>
    <td width=300><img src=""static/images/keys/z.svg"" width=""35%"" height=""75%""></img></td>
    <td width=300><img src=""static/images/keys/m.svg"" width=""35%"" height=""75%""></img></td>
  </tr>
</table>
  ",,,,,,,,,,,,,,,,,,,,,,,,,,,,
85,0,,html-keyboard-response,85,585196,0.0-4.12-3.12,i66c4nch84q,2022-09-16 14:52:04.624,5ac4fbad1667e40001d8615e,2,23,37,15,13,64,Female,,,"<p style=""font-size:50px"">You win!
+10 points this round!</p>",,,,,,,,,,,,,,,,,,,,,,,,,,,,
86,0,,html-keyboard-response,86,585703,0.0-4.12-4.12,i66c4nch84q,2022-09-16 14:52:04.624,5ac4fbad1667e40001d8615e,2,23,37,15,13,64,Female,,,,,,1.0,learning,12.0,A,,black,,stars,,,,A,black,stars,,1.0,1.0,NA,left,2326.6999998093,6.0,1.0,1.0,,,
87,0,,html-keyboard-response,87,587205,0.0-4.13-0.13,i66c4nch84q,2022-09-16 14:52:04.624,5ac4fbad1667e40001d8615e,2,23,37,15,13,64,Female,,,"<img src=""static/images/cards/stack_of_red_stars.svg"" width=""175px"" height=""250px""></img>",,,,,,,,,,,,,,,,,,,,,,,,,,,,
88,0,,html-keyboard-response,88,589045,0.0-4.13-1.13,i66c4nch84q,2022-09-16 14:52:04.624,5ac4fbad1667e40001d8615e,2,23,37,15,13,64,Female,1336.7999999523,,"
  <table>
  <tr height=300>
    <td width=300 height=300><img src=""static/images/cards/back_of_red_stars.svg"" width=""175px"" height=""250px""></img></td>
    <td width=300 height=300><img src=""static/images/cards/back_of_red_stars.svg"" width=""175px"" height=""250px""></img></td>
  </tr>
  <tr height=200>
    <td width=300></td>
    <td width=300><img src=""static/images/keys/m.svg"" width=""35%"" height=""75%""></img></td>
  </tr>
</table>
  ",77.0,1.0,,,,,,,,,,,,,,,,,,,,,,,,,,
89,0,,html-keyboard-response,89,590548,0.0-4.13-2.13,i66c4nch84q,2022-09-16 14:52:04.624,5ac4fbad1667e40001d8615e,2,23,37,15,13,64,Female,,,"
  <table>
  <tr height=300>
    <td width=300 height=300><img src=""static/images/cards/back_of_red_stars.svg"" width=""175px"" height=""250px""></img></td>
    <td width=300 height=300><img src=""static/images/cards/1_of_red_stars.svg"" width=""175px"" height=""250px""></img></td>
  </tr>
  <tr height=200>
    <td width=300></td>
    <td width=300><img src=""static/images/keys/m.svg"" width=""35%"" height=""75%""></img></td>
  </tr>
</table>
  ",,,,,,,,,,,,,,,,,,,,,,,,,,,,
90,0,,html-keyboard-response,90,592049,0.0-4.13-3.13,i66c4nch84q,2022-09-16 14:52:04.624,5ac4fbad1667e40001d8615e,2,23,37,15,13,64,Female,,,"<p style=""font-size:50px"">You Lose!
No points this round.</p>",,,,,,,,,,,,,,,,,,,,,,,,,,,,
91,0,,html-keyboard-response,91,592556,0.0-4.13-4.13,i66c4nch84q,2022-09-16 14:52:04.624,5ac4fbad1667e40001d8615e,2,23,37,15,13,64,Female,,,,,,1.0,learning,13.0,B,,red,,stars,,,,B,red,stars,,0.0,1.0,0,right,1336.7999999523,1.0,0.0,0.0,,,
92,0,,html-keyboard-response,92,594057,0.0-4.14-0.14,i66c4nch84q,2022-09-16 14:52:04.624,5ac4fbad1667e40001d8615e,2,23,37,15,13,64,Female,,,"<img src=""static/images/cards/stack_of_black_moons.svg"" width=""175px"" height=""250px""></img>",,,,,,,,,,,,,,,,,,,,,,,,,,,,
93,0,,html-keyboard-response,93,595736,0.0-4.14-1.14,i66c4nch84q,2022-09-16 14:52:04.624,5ac4fbad1667e40001d8615e,2,23,37,15,13,64,Female,1176.0,,"
  <table>
  <tr height=300>
    <td width=300 height=300><img src=""static/images/cards/back_of_black_moons.svg"" width=""175px"" height=""250px""></img></td>
    <td width=300 height=300><img src=""static/images/cards/back_of_black_moons.svg"" width=""175px"" height=""250px""></img></td>
  </tr>
  <tr height=200>
    <td width=300><img src=""static/images/keys/z.svg"" width=""35%"" height=""75%""></img></td>
    <td width=300><img src=""static/images/keys/m.svg"" width=""35%"" height=""75%""></img></td>
  </tr>
</table>
  ",90.0,1.0,,,,,,,,,,,,,,,,,,,,,,,,,,
94,0,,html-keyboard-response,94,597239,0.0-4.14-2.14,i66c4nch84q,2022-09-16 14:52:04.624,5ac4fbad1667e40001d8615e,2,23,37,15,13,64,Female,,,"
  <table>
  <tr height=300>
    <td width=300 height=300><img src=""static/images/cards/9_of_black_moons.svg"" width=""175px"" height=""250px""></img></td>
    <td width=300 height=300><img src=""static/images/cards/back_of_black_moons.svg"" width=""175px"" height=""250px""></img></td>
  </tr>
  <tr height=200>
    <td width=300><img src=""static/images/keys/z.svg"" width=""35%"" height=""75%""></img></td>
    <td width=300><img src=""static/images/keys/m.svg"" width=""35%"" height=""75%""></img></td>
  </tr>
</table>
  ",,,,,,,,,,,,,,,,,,,,,,,,,,,,
95,0,,html-keyboard-response,95,598741,0.0-4.14-3.14,i66c4nch84q,2022-09-16 14:52:04.624,5ac4fbad1667e40001d8615e,2,23,37,15,13,64,Female,,,"<p style=""font-size:50px"">You Lose!
No points this round.</p>",,,,,,,,,,,,,,,,,,,,,,,,,,,,
96,0,,html-keyboard-response,96,599247,0.0-4.14-4.14,i66c4nch84q,2022-09-16 14:52:04.624,5ac4fbad1667e40001d8615e,2,23,37,15,13,64,Female,,,,,,1.0,learning,14.0,C,,black,,moons,,,,C,black,moons,,1.0,0.0,NA,left,1176.0,9.0,1.0,0.0,,,
97,0,,html-keyboard-response,97,600748,0.0-4.15-0.15,i66c4nch84q,2022-09-16 14:52:04.624,5ac4fbad1667e40001d8615e,2,23,37,15,13,64,Female,,,"<img src=""static/images/cards/stack_of_red_moons.svg"" width=""175px"" height=""250px""></img>",,,,,,,,,,,,,,,,,,,,,,,,,,,,
98,0,,html-keyboard-response,98,602406,0.0-4.15-1.15,i66c4nch84q,2022-09-16 14:52:04.624,5ac4fbad1667e40001d8615e,2,23,37,15,13,64,Female,1156.5999999046,,"
  <table>
  <tr height=300>
    <td width=300 height=300><img src=""static/images/cards/back_of_red_moons.svg"" width=""175px"" height=""250px""></img></td>
    <td width=300 height=300><img src=""static/images/cards/back_of_red_moons.svg"" width=""175px"" height=""250px""></img></td>
  </tr>
  <tr height=200>
    <td width=300><img src=""static/images/keys/z.svg"" width=""35%"" height=""75%""></img></td>
    <td width=300></td>
  </tr>
</table>
  ",90.0,1.0,,,,,,,,,,,,,,,,,,,,,,,,,,
99,0,,html-keyboard-response,99,603907,0.0-4.15-2.15,i66c4nch84q,2022-09-16 14:52:04.624,5ac4fbad1667e40001d8615e,2,23,37,15,13,64,Female,,,"
  <table>
  <tr height=300>
    <td width=300 height=300><img src=""static/images/cards/4_of_red_moons.svg"" width=""175px"" height=""250px""></img></td>
    <td width=300 height=300><img src=""static/images/cards/back_of_red_moons.svg"" width=""175px"" height=""250px""></img></td>
  </tr>
  <tr height=200>
    <td width=300><img src=""static/images/keys/z.svg"" width=""35%"" height=""75%""></img></td>
    <td width=300></td>
  </tr>
</table>
  ",,,,,,,,,,,,,,,,,,,,,,,,,,,,
100,0,,html-keyboard-response,100,605410,0.0-4.15-3.15,i66c4nch84q,2022-09-16 14:52:04.624,5ac4fbad1667e40001d8615e,2,23,37,15,13,64,Female,,,"<p style=""font-size:50px"">You win!
+10 points this round!</p>",,,,,,,,,,,,,,,,,,,,,,,,,,,,
101,0,,html-keyboard-response,101,605917,0.0-4.15-4.15,i66c4nch84q,2022-09-16 14:52:04.624,5ac4fbad1667e40001d8615e,2,23,37,15,13,64,Female,,,,,,1.0,learning,15.0,D,,red,,moons,,,,D,red,moons,,0.0,0.0,1,left,1156.5999999046,4.0,0.0,1.0,,,
102,0,,html-keyboard-response,102,607418,0.0-4.16-0.16,i66c4nch84q,2022-09-16 14:52:04.624,5ac4fbad1667e40001d8615e,2,23,37,15,13,64,Female,,,"<img src=""static/images/cards/stack_of_red_bolts.svg"" width=""175px"" height=""250px""></img>",,,,,,,,,,,,,,,,,,,,,,,,,,,,
103,0,,html-keyboard-response,103,608956,0.0-4.16-1.16,i66c4nch84q,2022-09-16 14:52:04.624,5ac4fbad1667e40001d8615e,2,23,37,15,13,64,Female,1035.7000000477,,"
  <table>
  <tr height=300>
    <td width=300 height=300><img src=""static/images/cards/back_of_red_bolts.svg"" width=""175px"" height=""250px""></img></td>
    <td width=300 height=300><img src=""static/images/cards/back_of_red_bolts.svg"" width=""175px"" height=""250px""></img></td>
  </tr>
  <tr height=200>
    <td width=300><img src=""static/images/keys/z.svg"" width=""35%"" height=""75%""></img></td>
    <td width=300><img src=""static/images/keys/m.svg"" width=""35%"" height=""75%""></img></td>
  </tr>
</table>
  ",90.0,1.0,,,,,,,,,,,,,,,,,,,,,,,,,,
104,0,,html-keyboard-response,104,610459,0.0-4.16-2.16,i66c4nch84q,2022-09-16 14:52:04.624,5ac4fbad1667e40001d8615e,2,23,37,15,13,64,Female,,,"
  <table>
  <tr height=300>
    <td width=300 height=300><img src=""static/images/cards/4_of_red_bolts.svg"" width=""175px"" height=""250px""></img></td>
    <td width=300 height=300><img src=""static/images/cards/back_of_red_bolts.svg"" width=""175px"" height=""250px""></img></td>
  </tr>
  <tr height=200>
    <td width=300><img src=""static/images/keys/z.svg"" width=""35%"" height=""75%""></img></td>
    <td width=300><img src=""static/images/keys/m.svg"" width=""35%"" height=""75%""></img></td>
  </tr>
</table>
  ",,,,,,,,,,,,,,,,,,,,,,,,,,,,
105,0,,html-keyboard-response,105,611961,0.0-4.16-3.16,i66c4nch84q,2022-09-16 14:52:04.624,5ac4fbad1667e40001d8615e,2,23,37,15,13,64,Female,,,"<p style=""font-size:50px"">You win!
+10 points this round!</p>",,,,,,,,,,,,,,,,,,,,,,,,,,,,
106,0,,html-keyboard-response,106,612468,0.0-4.16-4.16,i66c4nch84q,2022-09-16 14:52:04.624,5ac4fbad1667e40001d8615e,2,23,37,15,13,64,Female,,,,,,1.0,learning,16.0,Xc,,red,,bolts,,,,Xc,red,bolts,,1.0,0.0,NA,left,1035.7000000477,4.0,0.0,1.0,,,
107,0,,html-keyboard-response,107,613971,0.0-4.17-0.17,i66c4nch84q,2022-09-16 14:52:04.624,5ac4fbad1667e40001d8615e,2,23,37,15,13,64,Female,,,"<img src=""static/images/cards/stack_of_black_bolts.svg"" width=""175px"" height=""250px""></img>",,,,,,,,,,,,,,,,,,,,,,,,,,,,
108,0,,html-keyboard-response,108,615600,0.0-4.17-1.17,i66c4nch84q,2022-09-16 14:52:04.624,5ac4fbad1667e40001d8615e,2,23,37,15,13,64,Female,1126.2000000477,,"
  <table>
  <tr height=300>
    <td width=300 height=300><img src=""static/images/cards/back_of_black_bolts.svg"" width=""175px"" height=""250px""></img></td>
    <td width=300 height=300><img src=""static/images/cards/back_of_black_bolts.svg"" width=""175px"" height=""250px""></img></td>
  </tr>
  <tr height=200>
    <td width=300></td>
    <td width=300><img src=""static/images/keys/m.svg"" width=""35%"" height=""75%""></img></td>
  </tr>
</table>
  ",77.0,1.0,,,,,,,,,,,,,,,,,,,,,,,,,,
109,0,,html-keyboard-response,109,617104,0.0-4.17-2.17,i66c4nch84q,2022-09-16 14:52:04.624,5ac4fbad1667e40001d8615e,2,23,37,15,13,64,Female,,,"
  <table>
  <tr height=300>
    <td width=300 height=300><img src=""static/images/cards/back_of_black_bolts.svg"" width=""175px"" height=""250px""></img></td>
    <td width=300 height=300><img src=""static/images/cards/4_of_black_bolts.svg"" width=""175px"" height=""250px""></img></td>
  </tr>
  <tr height=200>
    <td width=300></td>
    <td width=300><img src=""static/images/keys/m.svg"" width=""35%"" height=""75%""></img></td>
  </tr>
</table>
  ",,,,,,,,,,,,,,,,,,,,,,,,,,,,
110,0,,html-keyboard-response,110,618608,0.0-4.17-3.17,i66c4nch84q,2022-09-16 14:52:04.624,5ac4fbad1667e40001d8615e,2,23,37,15,13,64,Female,,,"<p style=""font-size:50px"">You win!
+10 points this round!</p>",,,,,,,,,,,,,,,,,,,,,,,,,,,,
111,0,,html-keyboard-response,111,619114,0.0-4.17-4.17,i66c4nch84q,2022-09-16 14:52:04.624,5ac4fbad1667e40001d8615e,2,23,37,15,13,64,Female,,,,,,1.0,learning,17.0,Xnc,,black,,bolts,,,,Xnc,black,bolts,,0.0,0.0,0,right,1126.2000000477,4.0,0.0,1.0,,,
112,0,,html-keyboard-response,112,620616,0.0-4.18-0.18,i66c4nch84q,2022-09-16 14:52:04.624,5ac4fbad1667e40001d8615e,2,23,37,15,13,64,Female,,,"<img src=""static/images/cards/stack_of_black_stars.svg"" width=""175px"" height=""250px""></img>",,,,,,,,,,,,,,,,,,,,,,,,,,,,
113,0,,html-keyboard-response,113,622646,0.0-4.18-1.18,i66c4nch84q,2022-09-16 14:52:04.624,5ac4fbad1667e40001d8615e,2,23,37,15,13,64,Female,1527.1000001431,,"
  <table>
  <tr height=300>
    <td width=300 height=300><img src=""static/images/cards/back_of_black_stars.svg"" width=""175px"" height=""250px""></img></td>
    <td width=300 height=300><img src=""static/images/cards/back_of_black_stars.svg"" width=""175px"" height=""250px""></img></td>
  </tr>
  <tr height=200>
    <td width=300><img src=""static/images/keys/z.svg"" width=""35%"" height=""75%""></img></td>
    <td width=300><img src=""static/images/keys/m.svg"" width=""35%"" height=""75%""></img></td>
  </tr>
</table>
  ",90.0,1.0,,,,,,,,,,,,,,,,,,,,,,,,,,
114,0,,html-keyboard-response,114,624148,0.0-4.18-2.18,i66c4nch84q,2022-09-16 14:52:04.624,5ac4fbad1667e40001d8615e,2,23,37,15,13,64,Female,,,"
  <table>
  <tr height=300>
    <td width=300 height=300><img src=""static/images/cards/4_of_black_stars.svg"" width=""175px"" height=""250px""></img></td>
    <td width=300 height=300><img src=""static/images/cards/back_of_black_stars.svg"" width=""175px"" height=""250px""></img></td>
  </tr>
  <tr height=200>
    <td width=300><img src=""static/images/keys/z.svg"" width=""35%"" height=""75%""></img></td>
    <td width=300><img src=""static/images/keys/m.svg"" width=""35%"" height=""75%""></img></td>
  </tr>
</table>
  ",,,,,,,,,,,,,,,,,,,,,,,,,,,,
115,0,,html-keyboard-response,115,625650,0.0-4.18-3.18,i66c4nch84q,2022-09-16 14:52:04.624,5ac4fbad1667e40001d8615e,2,23,37,15,13,64,Female,,,"<p style=""font-size:50px"">You Lose!
No points this round.</p>",,,,,,,,,,,,,,,,,,,,,,,,,,,,
116,0,,html-keyboard-response,116,626157,0.0-4.18-4.18,i66c4nch84q,2022-09-16 14:52:04.624,5ac4fbad1667e40001d8615e,2,23,37,15,13,64,Female,,,,,,1.0,learning,18.0,A,,black,,stars,,,,A,black,stars,,1.0,1.0,NA,left,1527.1000001431,4.0,0.0,0.0,,,
117,0,,html-keyboard-response,117,627658,0.0-4.19-0.19,i66c4nch84q,2022-09-16 14:52:04.624,5ac4fbad1667e40001d8615e,2,23,37,15,13,64,Female,,,"<img src=""static/images/cards/stack_of_red_stars.svg"" width=""175px"" height=""250px""></img>",,,,,,,,,,,,,,,,,,,,,,,,,,,,
118,0,,html-keyboard-response,118,629437,0.0-4.19-1.19,i66c4nch84q,2022-09-16 14:52:04.624,5ac4fbad1667e40001d8615e,2,23,37,15,13,64,Female,1277.0,,"
  <table>
  <tr height=300>
    <td width=300 height=300><img src=""static/images/cards/back_of_red_stars.svg"" width=""175px"" height=""250px""></img></td>
    <td width=300 height=300><img src=""static/images/cards/back_of_red_stars.svg"" width=""175px"" height=""250px""></img></td>
  </tr>
  <tr height=200>
    <td width=300></td>
    <td width=300><img src=""static/images/keys/m.svg"" width=""35%"" height=""75%""></img></td>
  </tr>
</table>
  ",77.0,1.0,,,,,,,,,,,,,,,,,,,,,,,,,,
119,0,,html-keyboard-response,119,630939,0.0-4.19-2.19,i66c4nch84q,2022-09-16 14:52:04.624,5ac4fbad1667e40001d8615e,2,23,37,15,13,64,Female,,,"
  <table>
  <tr height=300>
    <td width=300 height=300><img src=""static/images/cards/back_of_red_stars.svg"" width=""175px"" height=""250px""></img></td>
    <td width=300 height=300><img src=""static/images/cards/10_of_red_stars.svg"" width=""175px"" height=""250px""></img></td>
  </tr>
  <tr height=200>
    <td width=300></td>
    <td width=300><img src=""static/images/keys/m.svg"" width=""35%"" height=""75%""></img></td>
  </tr>
</table>
  ",,,,,,,,,,,,,,,,,,,,,,,,,,,,
120,0,,html-keyboard-response,120,632440,0.0-4.19-3.19,i66c4nch84q,2022-09-16 14:52:04.624,5ac4fbad1667e40001d8615e,2,23,37,15,13,64,Female,,,"<p style=""font-size:50px"">You win!
+10 points this round!</p>",,,,,,,,,,,,,,,,,,,,,,,,,,,,
121,0,,html-keyboard-response,121,632946,0.0-4.19-4.19,i66c4nch84q,2022-09-16 14:52:04.624,5ac4fbad1667e40001d8615e,2,23,37,15,13,64,Female,,,,,,1.0,learning,19.0,B,,red,,stars,,,,B,red,stars,,0.0,1.0,0,right,1277.0,10.0,1.0,1.0,,,
122,0,,html-keyboard-response,122,634448,0.0-4.20-0.20,i66c4nch84q,2022-09-16 14:52:04.624,5ac4fbad1667e40001d8615e,2,23,37,15,13,64,Female,,,"<img src=""static/images/cards/stack_of_black_moons.svg"" width=""175px"" height=""250px""></img>",,,,,,,,,,,,,,,,,,,,,,,,,,,,
123,0,,html-keyboard-response,123,637422,0.0-4.20-1.20,i66c4nch84q,2022-09-16 14:52:04.624,5ac4fbad1667e40001d8615e,2,23,37,15,13,64,Female,2469.7000000477,,"
  <table>
  <tr height=300>
    <td width=300 height=300><img src=""static/images/cards/back_of_black_moons.svg"" width=""175px"" height=""250px""></img></td>
    <td width=300 height=300><img src=""static/images/cards/back_of_black_moons.svg"" width=""175px"" height=""250px""></img></td>
  </tr>
  <tr height=200>
    <td width=300><img src=""static/images/keys/z.svg"" width=""35%"" height=""75%""></img></td>
    <td width=300><img src=""static/images/keys/m.svg"" width=""35%"" height=""75%""></img></td>
  </tr>
</table>
  ",90.0,1.0,,,,,,,,,,,,,,,,,,,,,,,,,,
124,0,,html-keyboard-response,124,638925,0.0-4.20-2.20,i66c4nch84q,2022-09-16 14:52:04.624,5ac4fbad1667e40001d8615e,2,23,37,15,13,64,Female,,,"
  <table>
  <tr height=300>
    <td width=300 height=300><img src=""static/images/cards/7_of_black_moons.svg"" width=""175px"" height=""250px""></img></td>
    <td width=300 height=300><img src=""static/images/cards/back_of_black_moons.svg"" width=""175px"" height=""250px""></img></td>
  </tr>
  <tr height=200>
    <td width=300><img src=""static/images/keys/z.svg"" width=""35%"" height=""75%""></img></td>
    <td width=300><img src=""static/images/keys/m.svg"" width=""35%"" height=""75%""></img></td>
  </tr>
</table>
  ",,,,,,,,,,,,,,,,,,,,,,,,,,,,
125,0,,html-keyboard-response,125,640427,0.0-4.20-3.20,i66c4nch84q,2022-09-16 14:52:04.624,5ac4fbad1667e40001d8615e,2,23,37,15,13,64,Female,,,"<p style=""font-size:50px"">You Lose!
No points this round.</p>",,,,,,,,,,,,,,,,,,,,,,,,,,,,
126,0,,html-keyboard-response,126,640933,0.0-4.20-4.20,i66c4nch84q,2022-09-16 14:52:04.624,5ac4fbad1667e40001d8615e,2,23,37,15,13,64,Female,,,,,,1.0,learning,20.0,C,,black,,moons,,,,C,black,moons,,1.0,0.0,NA,left,2469.7000000477,7.0,1.0,0.0,,,
127,0,,html-keyboard-response,127,642434,0.0-4.21-0.21,i66c4nch84q,2022-09-16 14:52:04.624,5ac4fbad1667e40001d8615e,2,23,37,15,13,64,Female,,,"<img src=""static/images/cards/stack_of_red_moons.svg"" width=""175px"" height=""250px""></img>",,,,,,,,,,,,,,,,,,,,,,,,,,,,
128,0,,html-keyboard-response,128,644016,0.0-4.21-1.21,i66c4nch84q,2022-09-16 14:52:04.624,5ac4fbad1667e40001d8615e,2,23,37,15,13,64,Female,1078.6000001431,,"
  <table>
  <tr height=300>
    <td width=300 height=300><img src=""static/images/cards/back_of_red_moons.svg"" width=""175px"" height=""250px""></img></td>
    <td width=300 height=300><img src=""static/images/cards/back_of_red_moons.svg"" width=""175px"" height=""250px""></img></td>
  </tr>
  <tr height=200>
    <td width=300></td>
    <td width=300><img src=""static/images/keys/m.svg"" width=""35%"" height=""75%""></img></td>
  </tr>
</table>
  ",77.0,1.0,,,,,,,,,,,,,,,,,,,,,,,,,,
129,0,,html-keyboard-response,129,645519,0.0-4.21-2.21,i66c4nch84q,2022-09-16 14:52:04.624,5ac4fbad1667e40001d8615e,2,23,37,15,13,64,Female,,,"
  <table>
  <tr height=300>
    <td width=300 height=300><img src=""static/images/cards/back_of_red_moons.svg"" width=""175px"" height=""250px""></img></td>
    <td width=300 height=300><img src=""static/images/cards/6_of_red_moons.svg"" width=""175px"" height=""250px""></img></td>
  </tr>
  <tr height=200>
    <td width=300></td>
    <td width=300><img src=""static/images/keys/m.svg"" width=""35%"" height=""75%""></img></td>
  </tr>
</table>
  ",,,,,,,,,,,,,,,,,,,,,,,,,,,,
130,0,,html-keyboard-response,130,647021,0.0-4.21-3.21,i66c4nch84q,2022-09-16 14:52:04.624,5ac4fbad1667e40001d8615e,2,23,37,15,13,64,Female,,,"<p style=""font-size:50px"">You win!
+10 points this round!</p>",,,,,,,,,,,,,,,,,,,,,,,,,,,,
131,0,,html-keyboard-response,131,647527,0.0-4.21-4.21,i66c4nch84q,2022-09-16 14:52:04.624,5ac4fbad1667e40001d8615e,2,23,37,15,13,64,Female,,,,,,1.0,learning,21.0,D,,red,,moons,,,,D,red,moons,,0.0,0.0,0,right,1078.6000001431,6.0,1.0,1.0,,,
132,0,,html-keyboard-response,132,649028,0.0-4.22-0.22,i66c4nch84q,2022-09-16 14:52:04.624,5ac4fbad1667e40001d8615e,2,23,37,15,13,64,Female,,,"<img src=""static/images/cards/stack_of_red_bolts.svg"" width=""175px"" height=""250px""></img>",,,,,,,,,,,,,,,,,,,,,,,,,,,,
133,0,,html-keyboard-response,133,650768,0.0-4.22-1.22,i66c4nch84q,2022-09-16 14:52:04.624,5ac4fbad1667e40001d8615e,2,23,37,15,13,64,Female,1236.5,,"
  <table>
  <tr height=300>
    <td width=300 height=300><img src=""static/images/cards/back_of_red_bolts.svg"" width=""175px"" height=""250px""></img></td>
    <td width=300 height=300><img src=""static/images/cards/back_of_red_bolts.svg"" width=""175px"" height=""250px""></img></td>
  </tr>
  <tr height=200>
    <td width=300><img src=""static/images/keys/z.svg"" width=""35%"" height=""75%""></img></td>
    <td width=300><img src=""static/images/keys/m.svg"" width=""35%"" height=""75%""></img></td>
  </tr>
</table>
  ",90.0,1.0,,,,,,,,,,,,,,,,,,,,,,,,,,
134,0,,html-keyboard-response,134,652270,0.0-4.22-2.22,i66c4nch84q,2022-09-16 14:52:04.624,5ac4fbad1667e40001d8615e,2,23,37,15,13,64,Female,,,"
  <table>
  <tr height=300>
    <td width=300 height=300><img src=""static/images/cards/6_of_red_bolts.svg"" width=""175px"" height=""250px""></img></td>
    <td width=300 height=300><img src=""static/images/cards/back_of_red_bolts.svg"" width=""175px"" height=""250px""></img></td>
  </tr>
  <tr height=200>
    <td width=300><img src=""static/images/keys/z.svg"" width=""35%"" height=""75%""></img></td>
    <td width=300><img src=""static/images/keys/m.svg"" width=""35%"" height=""75%""></img></td>
  </tr>
</table>
  ",,,,,,,,,,,,,,,,,,,,,,,,,,,,
135,0,,html-keyboard-response,135,653772,0.0-4.22-3.22,i66c4nch84q,2022-09-16 14:52:04.624,5ac4fbad1667e40001d8615e,2,23,37,15,13,64,Female,,,"<p style=""font-size:50px"">You win!
+10 points this round!</p>",,,,,,,,,,,,,,,,,,,,,,,,,,,,
136,0,,html-keyboard-response,136,654279,0.0-4.22-4.22,i66c4nch84q,2022-09-16 14:52:04.624,5ac4fbad1667e40001d8615e,2,23,37,15,13,64,Female,,,,,,1.0,learning,22.0,Xc,,red,,bolts,,,,Xc,red,bolts,,1.0,0.0,NA,left,1236.5,6.0,1.0,1.0,,,
137,0,,html-keyboard-response,137,655780,0.0-4.23-0.23,i66c4nch84q,2022-09-16 14:52:04.624,5ac4fbad1667e40001d8615e,2,23,37,15,13,64,Female,,,"<img src=""static/images/cards/stack_of_black_bolts.svg"" width=""175px"" height=""250px""></img>",,,,,,,,,,,,,,,,,,,,,,,,,,,,
138,0,,html-keyboard-response,138,657320,0.0-4.23-1.23,i66c4nch84q,2022-09-16 14:52:04.624,5ac4fbad1667e40001d8615e,2,23,37,15,13,64,Female,1037.0,,"
  <table>
  <tr height=300>
    <td width=300 height=300><img src=""static/images/cards/back_of_black_bolts.svg"" width=""175px"" height=""250px""></img></td>
    <td width=300 height=300><img src=""static/images/cards/back_of_black_bolts.svg"" width=""175px"" height=""250px""></img></td>
  </tr>
  <tr height=200>
    <td width=300><img src=""static/images/keys/z.svg"" width=""35%"" height=""75%""></img></td>
    <td width=300></td>
  </tr>
</table>
  ",90.0,1.0,,,,,,,,,,,,,,,,,,,,,,,,,,
139,0,,html-keyboard-response,139,658822,0.0-4.23-2.23,i66c4nch84q,2022-09-16 14:52:04.624,5ac4fbad1667e40001d8615e,2,23,37,15,13,64,Female,,,"
  <table>
  <tr height=300>
    <td width=300 height=300><img src=""static/images/cards/1_of_black_bolts.svg"" width=""175px"" height=""250px""></img></td>
    <td width=300 height=300><img src=""static/images/cards/back_of_black_bolts.svg"" width=""175px"" height=""250px""></img></td>
  </tr>
  <tr height=200>
    <td width=300><img src=""static/images/keys/z.svg"" width=""35%"" height=""75%""></img></td>
    <td width=300></td>
  </tr>
</table>
  ",,,,,,,,,,,,,,,,,,,,,,,,,,,,
140,0,,html-keyboard-response,140,660325,0.0-4.23-3.23,i66c4nch84q,2022-09-16 14:52:04.624,5ac4fbad1667e40001d8615e,2,23,37,15,13,64,Female,,,"<p style=""font-size:50px"">You win!
+10 points this round!</p>",,,,,,,,,,,,,,,,,,,,,,,,,,,,
141,0,,html-keyboard-response,141,660831,0.0-4.23-4.23,i66c4nch84q,2022-09-16 14:52:04.624,5ac4fbad1667e40001d8615e,2,23,37,15,13,64,Female,,,,,,1.0,learning,23.0,Xnc,,black,,bolts,,,,Xnc,black,bolts,,0.0,0.0,1,left,1037.0,1.0,0.0,1.0,,,
142,0,,call-function,142,660844,0.0-5.0,i66c4nch84q,2022-09-16 14:52:04.624,5ac4fbad1667e40001d8615e,2,23,37,15,13,64,Female,,,,,,,,,,,,,,,,,,,,,,,,,,,,,,,
143,0,,image-keyboard-response,143,671284,0.0-6.0-0.0,i66c4nch84q,2022-09-16 14:52:04.624,5ac4fbad1667e40001d8615e,2,23,37,15,13,64,Female,10439.5,,static/images/instructions_CB_2/Slide20.png,39.0,,,,,,,,,,,,,,,,,,,,,,,,,,,
144,0,,image-keyboard-response,144,722816,0.0-6.1-0.1,i66c4nch84q,2022-09-16 14:52:04.624,5ac4fbad1667e40001d8615e,2,23,37,15,13,64,Female,51530.5,,static/images/instructions_CB_2/Slide21.png,37.0,,,,,,,,,,,,,,,,,,,,,,,,,,,
145,0,,image-keyboard-response,145,729167,0.0-6.2-0.2,i66c4nch84q,2022-09-16 14:52:04.624,5ac4fbad1667e40001d8615e,2,23,37,15,13,64,Female,6347.5999999046,,static/images/instructions_CB_2/Slide20.png,39.0,,,,,,,,,,,,,,,,,,,,,,,,,,,
146,0,,image-keyboard-response,146,746837,0.0-6.3-0.3,i66c4nch84q,2022-09-16 14:52:04.624,5ac4fbad1667e40001d8615e,2,23,37,15,13,64,Female,17668.7999999523,,static/images/instructions_CB_2/Slide21.png,37.0,,,,,,,,,,,,,,,,,,,,,,,,,,,
147,0,,image-keyboard-response,147,752215,0.0-6.4-0.4,i66c4nch84q,2022-09-16 14:52:04.624,5ac4fbad1667e40001d8615e,2,23,37,15,13,64,Female,5376.1999998093,,static/images/instructions_CB_2/Slide20.png,39.0,,,,,,,,,,,,,,,,,,,,,,,,,,,
148,0,,image-keyboard-response,148,772857,0.0-6.5-0.5,i66c4nch84q,2022-09-16 14:52:04.624,5ac4fbad1667e40001d8615e,2,23,37,15,13,64,Female,20641.1000001431,,static/images/instructions_CB_2/Slide21.png,39.0,,,,,,,,,,,,,,,,,,,,,,,,,,,
149,0,,image-keyboard-response,149,841505,0.0-6.6-0.6,i66c4nch84q,2022-09-16 14:52:04.624,5ac4fbad1667e40001d8615e,2,23,37,15,13,64,Female,68645.9000000954,,static/images/instructions_CB_2/Slide22.png,39.0,,,,,,,,,,,,,,,,,,,,,,,,,,,
150,0,,image-keyboard-response,150,880498,0.0-6.7-0.7,i66c4nch84q,2022-09-16 14:52:04.624,5ac4fbad1667e40001d8615e,2,23,37,15,13,64,Female,38990.7999999523,,static/images/instructions_CB_2/Slide23.png,39.0,,,,,,,,,,,,,,,,,,,,,,,,,,,
151,0,,image-keyboard-response,151,885375,0.0-6.8-0.8,i66c4nch84q,2022-09-16 14:52:04.624,5ac4fbad1667e40001d8615e,2,23,37,15,13,64,Female,4875.6999998093,,static/images/instructions_CB_2/Slide24.png,39.0,,,,,,,,,,,,,,,,,,,,,,,,,,,
152,0,,html-keyboard-response,152,889848,0.0-7.0-0.0,i66c4nch84q,2022-09-16 14:52:04.624,5ac4fbad1667e40001d8615e,2,23,37,15,13,64,Female,4469.9000000954,,"
  <table>
  <tr height=300>
    <td width=300 height=300><img src=""static/images/cards/stack_of_red_stars.svg"" width=""175px"" height=""250px""></img></td>
    <td width=300 height=300><img src=""static/images/cards/stack_of_red_moons.svg"" width=""175px"" height=""250px""></img></td>
  </tr>
  <tr height=200>
    <td width=300><img src=""static/images/keys/w.svg"" width=""35%"" height=""75%""></img></td>
    <td width=300><img src=""static/images/keys/o.svg"" width=""35%"" height=""75%""></img></td>
  </tr>
</table>
  ",87.0,1.0,,,,,,,,,,,,,,,,,,,,,,,,,,
153,0,,html-keyboard-response,153,893146,0.0-7.0-1.0,i66c4nch84q,2022-09-16 14:52:04.624,5ac4fbad1667e40001d8615e,2,23,37,15,13,64,Female,2795.3999998569,,"
  <table>
  <tr height=300>
    <td width=300 height=300><img src=""static/images/cards/back_of_red_stars.svg"" width=""175px"" height=""250px""></img></td>
    <td width=300 height=300><img src=""static/images/cards/back_of_red_stars.svg"" width=""175px"" height=""250px""></img></td>
  </tr>
  <tr height=200>
    <td width=300><img src=""static/images/keys/z.svg"" width=""35%"" height=""75%""></img></td>
    <td width=300></td>
  </tr>
</table>
  ",90.0,1.0,,,,,,,,,,,,,,,,,,,,,,,,,,
154,0,,html-keyboard-response,154,894649,0.0-7.0-2.0,i66c4nch84q,2022-09-16 14:52:04.624,5ac4fbad1667e40001d8615e,2,23,37,15,13,64,Female,,,"
  <table>
  <tr height=300>
    <td width=300 height=300><img src=""static/images/cards/4_of_red_stars.svg"" width=""175px"" height=""250px""></img></td>
    <td width=300 height=300><img src=""static/images/cards/back_of_red_stars.svg"" width=""175px"" height=""250px""></img></td>
  </tr>
  <tr height=200>
    <td width=300><img src=""static/images/keys/z.svg"" width=""35%"" height=""75%""></img></td>
    <td width=300></td>
  </tr>
</table>
  ",,,,,,,,,,,,,,,,,,,,,,,,,,,,
155,0,,html-keyboard-response,155,896152,0.0-7.0-3.0,i66c4nch84q,2022-09-16 14:52:04.624,5ac4fbad1667e40001d8615e,2,23,37,15,13,64,Female,,,"<p style=""font-size:50px"">You Lose!
No points this round.</p>",,,,,,,,,,,,,,,,,,,,,,,,,,,,
156,0,,html-keyboard-response,156,896658,0.0-7.0-4.0,i66c4nch84q,2022-09-16 14:52:04.624,5ac4fbad1667e40001d8615e,2,23,37,15,13,64,Female,,,,,,1.0,choice,0.0,B,D,red,red,stars,moons,B,D,B,red,stars,4469.9000000954,0.0,1.0,1,left,2795.3999998569,4.0,0.0,0.0,,,
157,0,,html-keyboard-response,157,899413,0.0-7.1-0.1,i66c4nch84q,2022-09-16 14:52:04.624,5ac4fbad1667e40001d8615e,2,23,37,15,13,64,Female,2753.1000001431,,"
  <table>
  <tr height=300>
    <td width=300 height=300><img src=""static/images/cards/stack_of_red_stars.svg"" width=""175px"" height=""250px""></img></td>
    <td width=300 height=300><img src=""static/images/cards/stack_of_red_moons.svg"" width=""175px"" height=""250px""></img></td>
  </tr>
  <tr height=200>
    <td width=300><img src=""static/images/keys/w.svg"" width=""35%"" height=""75%""></img></td>
    <td width=300><img src=""static/images/keys/o.svg"" width=""35%"" height=""75%""></img></td>
  </tr>
</table>
  ",87.0,1.0,,,,,,,,,,,,,,,,,,,,,,,,,,
158,0,,html-keyboard-response,158,902370,0.0-7.1-1.1,i66c4nch84q,2022-09-16 14:52:04.624,5ac4fbad1667e40001d8615e,2,23,37,15,13,64,Female,2453.0999999046,,"
  <table>
  <tr height=300>
    <td width=300 height=300><img src=""static/images/cards/back_of_red_stars.svg"" width=""175px"" height=""250px""></img></td>
    <td width=300 height=300><img src=""static/images/cards/back_of_red_stars.svg"" width=""175px"" height=""250px""></img></td>
  </tr>
  <tr height=200>
    <td width=300></td>
    <td width=300><img src=""static/images/keys/m.svg"" width=""35%"" height=""75%""></img></td>
  </tr>
</table>
  ",77.0,1.0,,,,,,,,,,,,,,,,,,,,,,,,,,
159,0,,html-keyboard-response,159,903871,0.0-7.1-2.1,i66c4nch84q,2022-09-16 14:52:04.624,5ac4fbad1667e40001d8615e,2,23,37,15,13,64,Female,,,"
  <table>
  <tr height=300>
    <td width=300 height=300><img src=""static/images/cards/back_of_red_stars.svg"" width=""175px"" height=""250px""></img></td>
    <td width=300 height=300><img src=""static/images/cards/1_of_red_stars.svg"" width=""175px"" height=""250px""></img></td>
  </tr>
  <tr height=200>
    <td width=300></td>
    <td width=300><img src=""static/images/keys/m.svg"" width=""35%"" height=""75%""></img></td>
  </tr>
</table>
  ",,,,,,,,,,,,,,,,,,,,,,,,,,,,
160,0,,html-keyboard-response,160,905372,0.0-7.1-3.1,i66c4nch84q,2022-09-16 14:52:04.624,5ac4fbad1667e40001d8615e,2,23,37,15,13,64,Female,,,"<p style=""font-size:50px"">You Lose!
No points this round.</p>",,,,,,,,,,,,,,,,,,,,,,,,,,,,
161,0,,html-keyboard-response,161,905879,0.0-7.1-4.1,i66c4nch84q,2022-09-16 14:52:04.624,5ac4fbad1667e40001d8615e,2,23,37,15,13,64,Female,,,,,,1.0,choice,1.0,B,D,red,red,stars,moons,B,D,B,red,stars,2753.1000001431,0.0,1.0,0,right,2453.0999999046,1.0,0.0,0.0,,,
162,0,,html-keyboard-response,162,909654,0.0-7.2-0.2,i66c4nch84q,2022-09-16 14:52:04.624,5ac4fbad1667e40001d8615e,2,23,37,15,13,64,Female,3772.5,,"
  <table>
  <tr height=300>
    <td width=300 height=300><img src=""static/images/cards/stack_of_red_moons.svg"" width=""175px"" height=""250px""></img></td>
    <td width=300 height=300><img src=""static/images/cards/stack_of_black_moons.svg"" width=""175px"" height=""250px""></img></td>
  </tr>
  <tr height=200>
    <td width=300><img src=""static/images/keys/w.svg"" width=""35%"" height=""75%""></img></td>
    <td width=300><img src=""static/images/keys/o.svg"" width=""35%"" height=""75%""></img></td>
  </tr>
</table>
  ",87.0,1.0,,,,,,,,,,,,,,,,,,,,,,,,,,
163,0,,html-keyboard-response,163,912988,0.0-7.2-1.2,i66c4nch84q,2022-09-16 14:52:04.624,5ac4fbad1667e40001d8615e,2,23,37,15,13,64,Female,2831.0,,"
  <table>
  <tr height=300>
    <td width=300 height=300><img src=""static/images/cards/back_of_red_moons.svg"" width=""175px"" height=""250px""></img></td>
    <td width=300 height=300><img src=""static/images/cards/back_of_red_moons.svg"" width=""175px"" height=""250px""></img></td>
  </tr>
  <tr height=200>
    <td width=300><img src=""static/images/keys/z.svg"" width=""35%"" height=""75%""></img></td>
    <td width=300></td>
  </tr>
</table>
  ",90.0,1.0,,,,,,,,,,,,,,,,,,,,,,,,,,
164,0,,html-keyboard-response,164,914490,0.0-7.2-2.2,i66c4nch84q,2022-09-16 14:52:04.624,5ac4fbad1667e40001d8615e,2,23,37,15,13,64,Female,,,"
  <table>
  <tr height=300>
    <td width=300 height=300><img src=""static/images/cards/4_of_red_moons.svg"" width=""175px"" height=""250px""></img></td>
    <td width=300 height=300><img src=""static/images/cards/back_of_red_moons.svg"" width=""175px"" height=""250px""></img></td>
  </tr>
  <tr height=200>
    <td width=300><img src=""static/images/keys/z.svg"" width=""35%"" height=""75%""></img></td>
    <td width=300></td>
  </tr>
</table>
  ",,,,,,,,,,,,,,,,,,,,,,,,,,,,
165,0,,html-keyboard-response,165,915992,0.0-7.2-3.2,i66c4nch84q,2022-09-16 14:52:04.624,5ac4fbad1667e40001d8615e,2,23,37,15,13,64,Female,,,"<p style=""font-size:50px"">You win!
+10 points this round!</p>",,,,,,,,,,,,,,,,,,,,,,,,,,,,
166,0,,html-keyboard-response,166,916498,0.0-7.2-4.2,i66c4nch84q,2022-09-16 14:52:04.624,5ac4fbad1667e40001d8615e,2,23,37,15,13,64,Female,,,,,,1.0,choice,2.0,C,D,red,black,moons,moons,D,C,D,red,moons,3772.5,0.0,0.0,1,left,2831.0,4.0,0.0,1.0,,,
167,0,,html-keyboard-response,167,920161,0.0-7.3-0.3,i66c4nch84q,2022-09-16 14:52:04.624,5ac4fbad1667e40001d8615e,2,23,37,15,13,64,Female,3661.2999999523,,"
  <table>
  <tr height=300>
    <td width=300 height=300><img src=""static/images/cards/stack_of_black_stars.svg"" width=""175px"" height=""250px""></img></td>
    <td width=300 height=300><img src=""static/images/cards/stack_of_black_moons.svg"" width=""175px"" height=""250px""></img></td>
  </tr>
  <tr height=200>
    <td width=300><img src=""static/images/keys/w.svg"" width=""35%"" height=""75%""></img></td>
    <td width=300><img src=""static/images/keys/o.svg"" width=""35%"" height=""75%""></img></td>
  </tr>
</table>
  ",87.0,1.0,,,,,,,,,,,,,,,,,,,,,,,,,,
168,0,,html-keyboard-response,168,922597,0.0-7.3-1.3,i66c4nch84q,2022-09-16 14:52:04.624,5ac4fbad1667e40001d8615e,2,23,37,15,13,64,Female,1933.6000001431,,"
  <table>
  <tr height=300>
    <td width=300 height=300><img src=""static/images/cards/back_of_black_stars.svg"" width=""175px"" height=""250px""></img></td>
    <td width=300 height=300><img src=""static/images/cards/back_of_black_stars.svg"" width=""175px"" height=""250px""></img></td>
  </tr>
  <tr height=200>
    <td width=300><img src=""static/images/keys/z.svg"" width=""35%"" height=""75%""></img></td>
    <td width=300><img src=""static/images/keys/m.svg"" width=""35%"" height=""75%""></img></td>
  </tr>
</table>
  ",90.0,1.0,,,,,,,,,,,,,,,,,,,,,,,,,,
169,0,,html-keyboard-response,169,924100,0.0-7.3-2.3,i66c4nch84q,2022-09-16 14:52:04.624,5ac4fbad1667e40001d8615e,2,23,37,15,13,64,Female,,,"
  <table>
  <tr height=300>
    <td width=300 height=300><img src=""static/images/cards/1_of_black_stars.svg"" width=""175px"" height=""250px""></img></td>
    <td width=300 height=300><img src=""static/images/cards/back_of_black_stars.svg"" width=""175px"" height=""250px""></img></td>
  </tr>
  <tr height=200>
    <td width=300><img src=""static/images/keys/z.svg"" width=""35%"" height=""75%""></img></td>
    <td width=300><img src=""static/images/keys/m.svg"" width=""35%"" height=""75%""></img></td>
  </tr>
</table>
  ",,,,,,,,,,,,,,,,,,,,,,,,,,,,
170,0,,html-keyboard-response,170,925602,0.0-7.3-3.3,i66c4nch84q,2022-09-16 14:52:04.624,5ac4fbad1667e40001d8615e,2,23,37,15,13,64,Female,,,"<p style=""font-size:50px"">You Lose!
No points this round.</p>",,,,,,,,,,,,,,,,,,,,,,,,,,,,
171,0,,html-keyboard-response,171,926108,0.0-7.3-4.3,i66c4nch84q,2022-09-16 14:52:04.624,5ac4fbad1667e40001d8615e,2,23,37,15,13,64,Female,,,,,,1.0,choice,3.0,A,C,black,black,stars,moons,A,C,A,black,stars,3661.2999999523,1.0,1.0,NA,left,1933.6000001431,1.0,0.0,0.0,,,
172,0,,html-keyboard-response,172,928733,0.0-7.4-0.4,i66c4nch84q,2022-09-16 14:52:04.624,5ac4fbad1667e40001d8615e,2,23,37,15,13,64,Female,2622.7000000477,,"
  <table>
  <tr height=300>
    <td width=300 height=300><img src=""static/images/cards/stack_of_red_bolts.svg"" width=""175px"" height=""250px""></img></td>
    <td width=300 height=300><img src=""static/images/cards/stack_of_black_stars.svg"" width=""175px"" height=""250px""></img></td>
  </tr>
  <tr height=200>
    <td width=300><img src=""static/images/keys/w.svg"" width=""35%"" height=""75%""></img></td>
    <td width=300><img src=""static/images/keys/o.svg"" width=""35%"" height=""75%""></img></td>
  </tr>
</table>
  ",87.0,1.0,,,,,,,,,,,,,,,,,,,,,,,,,,
173,0,,html-keyboard-response,173,931784,0.0-7.4-1.4,i66c4nch84q,2022-09-16 14:52:04.624,5ac4fbad1667e40001d8615e,2,23,37,15,13,64,Female,2548.0,,"
  <table>
  <tr height=300>
    <td width=300 height=300><img src=""static/images/cards/back_of_red_bolts.svg"" width=""175px"" height=""250px""></img></td>
    <td width=300 height=300><img src=""static/images/cards/back_of_red_bolts.svg"" width=""175px"" height=""250px""></img></td>
  </tr>
  <tr height=200>
    <td width=300><img src=""static/images/keys/z.svg"" width=""35%"" height=""75%""></img></td>
    <td width=300><img src=""static/images/keys/m.svg"" width=""35%"" height=""75%""></img></td>
  </tr>
</table>
  ",90.0,1.0,,,,,,,,,,,,,,,,,,,,,,,,,,
174,0,,html-keyboard-response,174,933287,0.0-7.4-2.4,i66c4nch84q,2022-09-16 14:52:04.624,5ac4fbad1667e40001d8615e,2,23,37,15,13,64,Female,,,"
  <table>
  <tr height=300>
    <td width=300 height=300><img src=""static/images/cards/3_of_red_bolts.svg"" width=""175px"" height=""250px""></img></td>
    <td width=300 height=300><img src=""static/images/cards/back_of_red_bolts.svg"" width=""175px"" height=""250px""></img></td>
  </tr>
  <tr height=200>
    <td width=300><img src=""static/images/keys/z.svg"" width=""35%"" height=""75%""></img></td>
    <td width=300><img src=""static/images/keys/m.svg"" width=""35%"" height=""75%""></img></td>
  </tr>
</table>
  ",,,,,,,,,,,,,,,,,,,,,,,,,,,,
175,0,,html-keyboard-response,175,934790,0.0-7.4-3.4,i66c4nch84q,2022-09-16 14:52:04.624,5ac4fbad1667e40001d8615e,2,23,37,15,13,64,Female,,,"<p style=""font-size:50px"">You win!
+10 points this round!</p>",,,,,,,,,,,,,,,,,,,,,,,,,,,,
176,0,,html-keyboard-response,176,935297,0.0-7.4-4.4,i66c4nch84q,2022-09-16 14:52:04.624,5ac4fbad1667e40001d8615e,2,23,37,15,13,64,Female,,,,,,1.0,choice,4.0,A,Xc,red,black,bolts,stars,Xc,A,Xc,red,bolts,2622.7000000477,1.0,0.0,NA,left,2548.0,3.0,0.0,1.0,,,
177,0,,html-keyboard-response,177,938064,0.0-7.5-0.5,i66c4nch84q,2022-09-16 14:52:04.624,5ac4fbad1667e40001d8615e,2,23,37,15,13,64,Female,2763.9000000954,,"
  <table>
  <tr height=300>
    <td width=300 height=300><img src=""static/images/cards/stack_of_red_stars.svg"" width=""175px"" height=""250px""></img></td>
    <td width=300 height=300><img src=""static/images/cards/stack_of_black_stars.svg"" width=""175px"" height=""250px""></img></td>
  </tr>
  <tr height=200>
    <td width=300><img src=""static/images/keys/w.svg"" width=""35%"" height=""75%""></img></td>
    <td width=300><img src=""static/images/keys/o.svg"" width=""35%"" height=""75%""></img></td>
  </tr>
</table>
  ",87.0,1.0,,,,,,,,,,,,,,,,,,,,,,,,,,
178,0,,html-keyboard-response,178,940537,0.0-7.5-1.5,i66c4nch84q,2022-09-16 14:52:04.624,5ac4fbad1667e40001d8615e,2,23,37,15,13,64,Female,1969.5,,"
  <table>
  <tr height=300>
    <td width=300 height=300><img src=""static/images/cards/back_of_red_stars.svg"" width=""175px"" height=""250px""></img></td>
    <td width=300 height=300><img src=""static/images/cards/back_of_red_stars.svg"" width=""175px"" height=""250px""></img></td>
  </tr>
  <tr height=200>
    <td width=300></td>
    <td width=300><img src=""static/images/keys/m.svg"" width=""35%"" height=""75%""></img></td>
  </tr>
</table>
  ",77.0,1.0,,,,,,,,,,,,,,,,,,,,,,,,,,
179,0,,html-keyboard-response,179,942039,0.0-7.5-2.5,i66c4nch84q,2022-09-16 14:52:04.624,5ac4fbad1667e40001d8615e,2,23,37,15,13,64,Female,,,"
  <table>
  <tr height=300>
    <td width=300 height=300><img src=""static/images/cards/back_of_red_stars.svg"" width=""175px"" height=""250px""></img></td>
    <td width=300 height=300><img src=""static/images/cards/9_of_red_stars.svg"" width=""175px"" height=""250px""></img></td>
  </tr>
  <tr height=200>
    <td width=300></td>
    <td width=300><img src=""static/images/keys/m.svg"" width=""35%"" height=""75%""></img></td>
  </tr>
</table>
  ",,,,,,,,,,,,,,,,,,,,,,,,,,,,
180,0,,html-keyboard-response,180,943541,0.0-7.5-3.5,i66c4nch84q,2022-09-16 14:52:04.624,5ac4fbad1667e40001d8615e,2,23,37,15,13,64,Female,,,"<p style=""font-size:50px"">You win!
+10 points this round!</p>",,,,,,,,,,,,,,,,,,,,,,,,,,,,
181,0,,html-keyboard-response,181,944047,0.0-7.5-4.5,i66c4nch84q,2022-09-16 14:52:04.624,5ac4fbad1667e40001d8615e,2,23,37,15,13,64,Female,,,,,,1.0,choice,5.0,A,B,red,black,stars,stars,B,A,B,red,stars,2763.9000000954,0.0,1.0,0,right,1969.5,9.0,1.0,1.0,,,
182,0,,html-keyboard-response,182,946782,0.0-7.6-0.6,i66c4nch84q,2022-09-16 14:52:04.624,5ac4fbad1667e40001d8615e,2,23,37,15,13,64,Female,2733.4000000954,,"
  <table>
  <tr height=300>
    <td width=300 height=300><img src=""static/images/cards/stack_of_red_stars.svg"" width=""175px"" height=""250px""></img></td>
    <td width=300 height=300><img src=""static/images/cards/stack_of_black_moons.svg"" width=""175px"" height=""250px""></img></td>
  </tr>
  <tr height=200>
    <td width=300><img src=""static/images/keys/w.svg"" width=""35%"" height=""75%""></img></td>
    <td width=300><img src=""static/images/keys/o.svg"" width=""35%"" height=""75%""></img></td>
  </tr>
</table>
  ",87.0,1.0,,,,,,,,,,,,,,,,,,,,,,,,,,
183,0,,html-keyboard-response,183,949190,0.0-7.6-1.6,i66c4nch84q,2022-09-16 14:52:04.624,5ac4fbad1667e40001d8615e,2,23,37,15,13,64,Female,1905.3999998569,,"
  <table>
  <tr height=300>
    <td width=300 height=300><img src=""static/images/cards/back_of_red_stars.svg"" width=""175px"" height=""250px""></img></td>
    <td width=300 height=300><img src=""static/images/cards/back_of_red_stars.svg"" width=""175px"" height=""250px""></img></td>
  </tr>
  <tr height=200>
    <td width=300><img src=""static/images/keys/z.svg"" width=""35%"" height=""75%""></img></td>
    <td width=300></td>
  </tr>
</table>
  ",90.0,1.0,,,,,,,,,,,,,,,,,,,,,,,,,,
184,0,,html-keyboard-response,184,950692,0.0-7.6-2.6,i66c4nch84q,2022-09-16 14:52:04.624,5ac4fbad1667e40001d8615e,2,23,37,15,13,64,Female,,,"
  <table>
  <tr height=300>
    <td width=300 height=300><img src=""static/images/cards/6_of_red_stars.svg"" width=""175px"" height=""250px""></img></td>
    <td width=300 height=300><img src=""static/images/cards/back_of_red_stars.svg"" width=""175px"" height=""250px""></img></td>
  </tr>
  <tr height=200>
    <td width=300><img src=""static/images/keys/z.svg"" width=""35%"" height=""75%""></img></td>
    <td width=300></td>
  </tr>
</table>
  ",,,,,,,,,,,,,,,,,,,,,,,,,,,,
185,0,,html-keyboard-response,185,952194,0.0-7.6-3.6,i66c4nch84q,2022-09-16 14:52:04.624,5ac4fbad1667e40001d8615e,2,23,37,15,13,64,Female,,,"<p style=""font-size:50px"">You win!
+10 points this round!</p>",,,,,,,,,,,,,,,,,,,,,,,,,,,,
186,0,,html-keyboard-response,186,952700,0.0-7.6-4.6,i66c4nch84q,2022-09-16 14:52:04.624,5ac4fbad1667e40001d8615e,2,23,37,15,13,64,Female,,,,,,1.0,choice,6.0,B,C,red,black,stars,moons,B,C,B,red,stars,2733.4000000954,0.0,1.0,1,left,1905.3999998569,6.0,1.0,1.0,,,
187,0,,html-keyboard-response,187,954911,0.0-7.7-0.7,i66c4nch84q,2022-09-16 14:52:04.624,5ac4fbad1667e40001d8615e,2,23,37,15,13,64,Female,2208.9000000954,,"
  <table>
  <tr height=300>
    <td width=300 height=300><img src=""static/images/cards/stack_of_black_bolts.svg"" width=""175px"" height=""250px""></img></td>
    <td width=300 height=300><img src=""static/images/cards/stack_of_black_stars.svg"" width=""175px"" height=""250px""></img></td>
  </tr>
  <tr height=200>
    <td width=300><img src=""static/images/keys/w.svg"" width=""35%"" height=""75%""></img></td>
    <td width=300><img src=""static/images/keys/o.svg"" width=""35%"" height=""75%""></img></td>
  </tr>
</table>
  ",87.0,1.0,,,,,,,,,,,,,,,,,,,,,,,,,,
188,0,,html-keyboard-response,188,957473,0.0-7.7-1.7,i66c4nch84q,2022-09-16 14:52:04.624,5ac4fbad1667e40001d8615e,2,23,37,15,13,64,Female,2059.7999999523,,"
  <table>
  <tr height=300>
    <td width=300 height=300><img src=""static/images/cards/back_of_black_bolts.svg"" width=""175px"" height=""250px""></img></td>
    <td width=300 height=300><img src=""static/images/cards/back_of_black_bolts.svg"" width=""175px"" height=""250px""></img></td>
  </tr>
  <tr height=200>
    <td width=300></td>
    <td width=300><img src=""static/images/keys/m.svg"" width=""35%"" height=""75%""></img></td>
  </tr>
</table>
  ",77.0,1.0,,,,,,,,,,,,,,,,,,,,,,,,,,
189,0,,html-keyboard-response,189,958975,0.0-7.7-2.7,i66c4nch84q,2022-09-16 14:52:04.624,5ac4fbad1667e40001d8615e,2,23,37,15,13,64,Female,,,"
  <table>
  <tr height=300>
    <td width=300 height=300><img src=""static/images/cards/back_of_black_bolts.svg"" width=""175px"" height=""250px""></img></td>
    <td width=300 height=300><img src=""static/images/cards/4_of_black_bolts.svg"" width=""175px"" height=""250px""></img></td>
  </tr>
  <tr height=200>
    <td width=300></td>
    <td width=300><img src=""static/images/keys/m.svg"" width=""35%"" height=""75%""></img></td>
  </tr>
</table>
  ",,,,,,,,,,,,,,,,,,,,,,,,,,,,
190,0,,html-keyboard-response,190,960478,0.0-7.7-3.7,i66c4nch84q,2022-09-16 14:52:04.624,5ac4fbad1667e40001d8615e,2,23,37,15,13,64,Female,,,"<p style=""font-size:50px"">You win!
+10 points this round!</p>",,,,,,,,,,,,,,,,,,,,,,,,,,,,
191,0,,html-keyboard-response,191,960984,0.0-7.7-4.7,i66c4nch84q,2022-09-16 14:52:04.624,5ac4fbad1667e40001d8615e,2,23,37,15,13,64,Female,,,,,,1.0,choice,7.0,A,Xnc,black,black,bolts,stars,Xnc,A,Xnc,black,bolts,2208.9000000954,0.0,0.0,0,right,2059.7999999523,4.0,0.0,1.0,,,
192,0,,html-keyboard-response,192,963077,0.0-7.8-0.8,i66c4nch84q,2022-09-16 14:52:04.624,5ac4fbad1667e40001d8615e,2,23,37,15,13,64,Female,2091.0999999046,,"
  <table>
  <tr height=300>
    <td width=300 height=300><img src=""static/images/cards/stack_of_red_stars.svg"" width=""175px"" height=""250px""></img></td>
    <td width=300 height=300><img src=""static/images/cards/stack_of_black_moons.svg"" width=""175px"" height=""250px""></img></td>
  </tr>
  <tr height=200>
    <td width=300><img src=""static/images/keys/w.svg"" width=""35%"" height=""75%""></img></td>
    <td width=300><img src=""static/images/keys/o.svg"" width=""35%"" height=""75%""></img></td>
  </tr>
</table>
  ",87.0,1.0,,,,,,,,,,,,,,,,,,,,,,,,,,
193,0,,html-keyboard-response,193,965695,0.0-7.8-1.8,i66c4nch84q,2022-09-16 14:52:04.624,5ac4fbad1667e40001d8615e,2,23,37,15,13,64,Female,2114.5,,"
  <table>
  <tr height=300>
    <td width=300 height=300><img src=""static/images/cards/back_of_red_stars.svg"" width=""175px"" height=""250px""></img></td>
    <td width=300 height=300><img src=""static/images/cards/back_of_red_stars.svg"" width=""175px"" height=""250px""></img></td>
  </tr>
  <tr height=200>
    <td width=300><img src=""static/images/keys/z.svg"" width=""35%"" height=""75%""></img></td>
    <td width=300></td>
  </tr>
</table>
  ",90.0,1.0,,,,,,,,,,,,,,,,,,,,,,,,,,
194,0,,html-keyboard-response,194,967197,0.0-7.8-2.8,i66c4nch84q,2022-09-16 14:52:04.624,5ac4fbad1667e40001d8615e,2,23,37,15,13,64,Female,,,"
  <table>
  <tr height=300>
    <td width=300 height=300><img src=""static/images/cards/9_of_red_stars.svg"" width=""175px"" height=""250px""></img></td>
    <td width=300 height=300><img src=""static/images/cards/back_of_red_stars.svg"" width=""175px"" height=""250px""></img></td>
  </tr>
  <tr height=200>
    <td width=300><img src=""static/images/keys/z.svg"" width=""35%"" height=""75%""></img></td>
    <td width=300></td>
  </tr>
</table>
  ",,,,,,,,,,,,,,,,,,,,,,,,,,,,
195,0,,html-keyboard-response,195,968699,0.0-7.8-3.8,i66c4nch84q,2022-09-16 14:52:04.624,5ac4fbad1667e40001d8615e,2,23,37,15,13,64,Female,,,"<p style=""font-size:50px"">You win!
+10 points this round!</p>",,,,,,,,,,,,,,,,,,,,,,,,,,,,
196,0,,html-keyboard-response,196,969206,0.0-7.8-4.8,i66c4nch84q,2022-09-16 14:52:04.624,5ac4fbad1667e40001d8615e,2,23,37,15,13,64,Female,,,,,,1.0,choice,8.0,B,C,red,black,stars,moons,B,C,B,red,stars,2091.0999999046,0.0,1.0,1,left,2114.5,9.0,1.0,1.0,,,
197,0,,html-keyboard-response,197,972132,0.0-7.9-0.9,i66c4nch84q,2022-09-16 14:52:04.624,5ac4fbad1667e40001d8615e,2,23,37,15,13,64,Female,2923.7000000477,,"
  <table>
  <tr height=300>
    <td width=300 height=300><img src=""static/images/cards/stack_of_black_stars.svg"" width=""175px"" height=""250px""></img></td>
    <td width=300 height=300><img src=""static/images/cards/stack_of_red_moons.svg"" width=""175px"" height=""250px""></img></td>
  </tr>
  <tr height=200>
    <td width=300><img src=""static/images/keys/w.svg"" width=""35%"" height=""75%""></img></td>
    <td width=300><img src=""static/images/keys/o.svg"" width=""35%"" height=""75%""></img></td>
  </tr>
</table>
  ",87.0,1.0,,,,,,,,,,,,,,,,,,,,,,,,,,
198,0,,html-keyboard-response,198,975634,0.0-7.9-1.9,i66c4nch84q,2022-09-16 14:52:04.624,5ac4fbad1667e40001d8615e,2,23,37,15,13,64,Female,,,"
  <table>
  <tr height=300>
    <td width=300 height=300><img src=""static/images/cards/back_of_black_stars.svg"" width=""175px"" height=""250px""></img></td>
    <td width=300 height=300><img src=""static/images/cards/back_of_black_stars.svg"" width=""175px"" height=""250px""></img></td>
  </tr>
  <tr height=200>
    <td width=300><img src=""static/images/keys/z.svg"" width=""35%"" height=""75%""></img></td>
    <td width=300><img src=""static/images/keys/m.svg"" width=""35%"" height=""75%""></img></td>
  </tr>
</table>
  ",,,,,,,,,,,,,,,,,,,,,,,,,,,,
199,0,,html-keyboard-response,199,975635,0.0-7.9-2.9,i66c4nch84q,2022-09-16 14:52:04.624,5ac4fbad1667e40001d8615e,2,23,37,15,13,64,Female,,,,,,,,,,,,,,,,,,,,,,,,,,,,,,,
200,0,,html-keyboard-response,200,977138,0.0-7.9-3.9,i66c4nch84q,2022-09-16 14:52:04.624,5ac4fbad1667e40001d8615e,2,23,37,15,13,64,Female,,,"<p style=""font-size:50px"">Too slow!</p>",,,,,,,,,,,,,,,,,,,,,,,,,,,,
201,0,,html-keyboard-response,201,977644,0.0-7.9-4.9,i66c4nch84q,2022-09-16 14:52:04.624,5ac4fbad1667e40001d8615e,2,23,37,15,13,64,Female,,,,,,1.0,choice,9.0,A,D,black,red,stars,moons,A,D,A,black,stars,2923.7000000477,1.0,1.0,NA,,,9.0,1.0,1.0,,,
202,0,,html-keyboard-response,202,980670,0.0-7.10-0.10,i66c4nch84q,2022-09-16 14:52:04.624,5ac4fbad1667e40001d8615e,2,23,37,15,13,64,Female,3024.0,,"
  <table>
  <tr height=300>
    <td width=300 height=300><img src=""static/images/cards/stack_of_red_moons.svg"" width=""175px"" height=""250px""></img></td>
    <td width=300 height=300><img src=""static/images/cards/stack_of_black_moons.svg"" width=""175px"" height=""250px""></img></td>
  </tr>
  <tr height=200>
    <td width=300><img src=""static/images/keys/w.svg"" width=""35%"" height=""75%""></img></td>
    <td width=300><img src=""static/images/keys/o.svg"" width=""35%"" height=""75%""></img></td>
  </tr>
</table>
  ",87.0,1.0,,,,,,,,,,,,,,,,,,,,,,,,,,
203,0,,html-keyboard-response,203,982403,0.0-7.10-1.10,i66c4nch84q,2022-09-16 14:52:04.624,5ac4fbad1667e40001d8615e,2,23,37,15,13,64,Female,1230.7000000477,,"
  <table>
  <tr height=300>
    <td width=300 height=300><img src=""static/images/cards/back_of_red_moons.svg"" width=""175px"" height=""250px""></img></td>
    <td width=300 height=300><img src=""static/images/cards/back_of_red_moons.svg"" width=""175px"" height=""250px""></img></td>
  </tr>
  <tr height=200>
    <td width=300><img src=""static/images/keys/z.svg"" width=""35%"" height=""75%""></img></td>
    <td width=300></td>
  </tr>
</table>
  ",90.0,1.0,,,,,,,,,,,,,,,,,,,,,,,,,,
204,0,,html-keyboard-response,204,983906,0.0-7.10-2.10,i66c4nch84q,2022-09-16 14:52:04.624,5ac4fbad1667e40001d8615e,2,23,37,15,13,64,Female,,,"
  <table>
  <tr height=300>
    <td width=300 height=300><img src=""static/images/cards/2_of_red_moons.svg"" width=""175px"" height=""250px""></img></td>
    <td width=300 height=300><img src=""static/images/cards/back_of_red_moons.svg"" width=""175px"" height=""250px""></img></td>
  </tr>
  <tr height=200>
    <td width=300><img src=""static/images/keys/z.svg"" width=""35%"" height=""75%""></img></td>
    <td width=300></td>
  </tr>
</table>
  ",,,,,,,,,,,,,,,,,,,,,,,,,,,,
205,0,,html-keyboard-response,205,985407,0.0-7.10-3.10,i66c4nch84q,2022-09-16 14:52:04.624,5ac4fbad1667e40001d8615e,2,23,37,15,13,64,Female,,,"<p style=""font-size:50px"">You Lose!
No points this round.</p>",,,,,,,,,,,,,,,,,,,,,,,,,,,,
206,0,,html-keyboard-response,206,985914,0.0-7.10-4.10,i66c4nch84q,2022-09-16 14:52:04.624,5ac4fbad1667e40001d8615e,2,23,37,15,13,64,Female,,,,,,1.0,choice,10.0,C,D,red,black,moons,moons,D,C,D,red,moons,3024.0,0.0,0.0,1,left,1230.7000000477,2.0,0.0,0.0,,,
207,0,,html-keyboard-response,207,988200,0.0-7.11-0.11,i66c4nch84q,2022-09-16 14:52:04.624,5ac4fbad1667e40001d8615e,2,23,37,15,13,64,Female,2283.9000000954,,"
  <table>
  <tr height=300>
    <td width=300 height=300><img src=""static/images/cards/stack_of_black_moons.svg"" width=""175px"" height=""250px""></img></td>
    <td width=300 height=300><img src=""static/images/cards/stack_of_red_stars.svg"" width=""175px"" height=""250px""></img></td>
  </tr>
  <tr height=200>
    <td width=300><img src=""static/images/keys/w.svg"" width=""35%"" height=""75%""></img></td>
    <td width=300><img src=""static/images/keys/o.svg"" width=""35%"" height=""75%""></img></td>
  </tr>
</table>
  ",79.0,1.0,,,,,,,,,,,,,,,,,,,,,,,,,,
208,0,,html-keyboard-response,208,990394,0.0-7.11-1.11,i66c4nch84q,2022-09-16 14:52:04.624,5ac4fbad1667e40001d8615e,2,23,37,15,13,64,Female,1691.6000001431,,"
  <table>
  <tr height=300>
    <td width=300 height=300><img src=""static/images/cards/back_of_red_stars.svg"" width=""175px"" height=""250px""></img></td>
    <td width=300 height=300><img src=""static/images/cards/back_of_red_stars.svg"" width=""175px"" height=""250px""></img></td>
  </tr>
  <tr height=200>
    <td width=300><img src=""static/images/keys/z.svg"" width=""35%"" height=""75%""></img></td>
    <td width=300></td>
  </tr>
</table>
  ",90.0,1.0,,,,,,,,,,,,,,,,,,,,,,,,,,
209,0,,html-keyboard-response,209,991896,0.0-7.11-2.11,i66c4nch84q,2022-09-16 14:52:04.624,5ac4fbad1667e40001d8615e,2,23,37,15,13,64,Female,,,"
  <table>
  <tr height=300>
    <td width=300 height=300><img src=""static/images/cards/9_of_red_stars.svg"" width=""175px"" height=""250px""></img></td>
    <td width=300 height=300><img src=""static/images/cards/back_of_red_stars.svg"" width=""175px"" height=""250px""></img></td>
  </tr>
  <tr height=200>
    <td width=300><img src=""static/images/keys/z.svg"" width=""35%"" height=""75%""></img></td>
    <td width=300></td>
  </tr>
</table>
  ",,,,,,,,,,,,,,,,,,,,,,,,,,,,
210,0,,html-keyboard-response,210,993398,0.0-7.11-3.11,i66c4nch84q,2022-09-16 14:52:04.624,5ac4fbad1667e40001d8615e,2,23,37,15,13,64,Female,,,"<p style=""font-size:50px"">You win!
+10 points this round!</p>",,,,,,,,,,,,,,,,,,,,,,,,,,,,
211,0,,html-keyboard-response,211,993905,0.0-7.11-4.11,i66c4nch84q,2022-09-16 14:52:04.624,5ac4fbad1667e40001d8615e,2,23,37,15,13,64,Female,,,,,,1.0,choice,11.0,B,C,black,red,moons,stars,C,B,B,red,stars,2283.9000000954,0.0,1.0,1,left,1691.6000001431,9.0,1.0,1.0,,,
212,0,,html-keyboard-response,212,996871,0.0-7.12-0.12,i66c4nch84q,2022-09-16 14:52:04.624,5ac4fbad1667e40001d8615e,2,23,37,15,13,64,Female,2964.5999999046,,"
  <table>
  <tr height=300>
    <td width=300 height=300><img src=""static/images/cards/stack_of_black_stars.svg"" width=""175px"" height=""250px""></img></td>
    <td width=300 height=300><img src=""static/images/cards/stack_of_red_moons.svg"" width=""175px"" height=""250px""></img></td>
  </tr>
  <tr height=200>
    <td width=300><img src=""static/images/keys/w.svg"" width=""35%"" height=""75%""></img></td>
    <td width=300><img src=""static/images/keys/o.svg"" width=""35%"" height=""75%""></img></td>
  </tr>
</table>
  ",87.0,1.0,,,,,,,,,,,,,,,,,,,,,,,,,,
213,0,,html-keyboard-response,213,999436,0.0-7.12-1.12,i66c4nch84q,2022-09-16 14:52:04.624,5ac4fbad1667e40001d8615e,2,23,37,15,13,64,Female,2061.8000001907,,"
  <table>
  <tr height=300>
    <td width=300 height=300><img src=""static/images/cards/back_of_black_stars.svg"" width=""175px"" height=""250px""></img></td>
    <td width=300 height=300><img src=""static/images/cards/back_of_black_stars.svg"" width=""175px"" height=""250px""></img></td>
  </tr>
  <tr height=200>
    <td width=300><img src=""static/images/keys/z.svg"" width=""35%"" height=""75%""></img></td>
    <td width=300><img src=""static/images/keys/m.svg"" width=""35%"" height=""75%""></img></td>
  </tr>
</table>
  ",90.0,1.0,,,,,,,,,,,,,,,,,,,,,,,,,,
214,0,,html-keyboard-response,214,1000938,0.0-7.12-2.12,i66c4nch84q,2022-09-16 14:52:04.624,5ac4fbad1667e40001d8615e,2,23,37,15,13,64,Female,,,"
  <table>
  <tr height=300>
    <td width=300 height=300><img src=""static/images/cards/2_of_black_stars.svg"" width=""175px"" height=""250px""></img></td>
    <td width=300 height=300><img src=""static/images/cards/back_of_black_stars.svg"" width=""175px"" height=""250px""></img></td>
  </tr>
  <tr height=200>
    <td width=300><img src=""static/images/keys/z.svg"" width=""35%"" height=""75%""></img></td>
    <td width=300><img src=""static/images/keys/m.svg"" width=""35%"" height=""75%""></img></td>
  </tr>
</table>
  ",,,,,,,,,,,,,,,,,,,,,,,,,,,,
215,0,,html-keyboard-response,215,1002440,0.0-7.12-3.12,i66c4nch84q,2022-09-16 14:52:04.624,5ac4fbad1667e40001d8615e,2,23,37,15,13,64,Female,,,"<p style=""font-size:50px"">You Lose!
No points this round.</p>",,,,,,,,,,,,,,,,,,,,,,,,,,,,
216,0,,html-keyboard-response,216,1002947,0.0-7.12-4.12,i66c4nch84q,2022-09-16 14:52:04.624,5ac4fbad1667e40001d8615e,2,23,37,15,13,64,Female,,,,,,1.0,choice,12.0,A,D,black,red,stars,moons,A,D,A,black,stars,2964.5999999046,1.0,1.0,NA,left,2061.8000001907,2.0,0.0,0.0,,,
217,0,,html-keyboard-response,217,1004938,0.0-7.13-0.13,i66c4nch84q,2022-09-16 14:52:04.624,5ac4fbad1667e40001d8615e,2,23,37,15,13,64,Female,1989.4000000954,,"
  <table>
  <tr height=300>
    <td width=300 height=300><img src=""static/images/cards/stack_of_red_stars.svg"" width=""175px"" height=""250px""></img></td>
    <td width=300 height=300><img src=""static/images/cards/stack_of_black_moons.svg"" width=""175px"" height=""250px""></img></td>
  </tr>
  <tr height=200>
    <td width=300><img src=""static/images/keys/w.svg"" width=""35%"" height=""75%""></img></td>
    <td width=300><img src=""static/images/keys/o.svg"" width=""35%"" height=""75%""></img></td>
  </tr>
</table>
  ",87.0,1.0,,,,,,,,,,,,,,,,,,,,,,,,,,
218,0,,html-keyboard-response,218,1007019,0.0-7.13-1.13,i66c4nch84q,2022-09-16 14:52:04.624,5ac4fbad1667e40001d8615e,2,23,37,15,13,64,Female,1577.5,,"
  <table>
  <tr height=300>
    <td width=300 height=300><img src=""static/images/cards/back_of_red_stars.svg"" width=""175px"" height=""250px""></img></td>
    <td width=300 height=300><img src=""static/images/cards/back_of_red_stars.svg"" width=""175px"" height=""250px""></img></td>
  </tr>
  <tr height=200>
    <td width=300><img src=""static/images/keys/z.svg"" width=""35%"" height=""75%""></img></td>
    <td width=300></td>
  </tr>
</table>
  ",90.0,1.0,,,,,,,,,,,,,,,,,,,,,,,,,,
219,0,,html-keyboard-response,219,1008521,0.0-7.13-2.13,i66c4nch84q,2022-09-16 14:52:04.624,5ac4fbad1667e40001d8615e,2,23,37,15,13,64,Female,,,"
  <table>
  <tr height=300>
    <td width=300 height=300><img src=""static/images/cards/2_of_red_stars.svg"" width=""175px"" height=""250px""></img></td>
    <td width=300 height=300><img src=""static/images/cards/back_of_red_stars.svg"" width=""175px"" height=""250px""></img></td>
  </tr>
  <tr height=200>
    <td width=300><img src=""static/images/keys/z.svg"" width=""35%"" height=""75%""></img></td>
    <td width=300></td>
  </tr>
</table>
  ",,,,,,,,,,,,,,,,,,,,,,,,,,,,
220,0,,html-keyboard-response,220,1010023,0.0-7.13-3.13,i66c4nch84q,2022-09-16 14:52:04.624,5ac4fbad1667e40001d8615e,2,23,37,15,13,64,Female,,,"<p style=""font-size:50px"">You Lose!
No points this round.</p>",,,,,,,,,,,,,,,,,,,,,,,,,,,,
221,0,,html-keyboard-response,221,1010530,0.0-7.13-4.13,i66c4nch84q,2022-09-16 14:52:04.624,5ac4fbad1667e40001d8615e,2,23,37,15,13,64,Female,,,,,,1.0,choice,13.0,B,C,red,black,stars,moons,B,C,B,red,stars,1989.4000000954,0.0,1.0,1,left,1577.5,2.0,0.0,0.0,,,
222,0,,html-keyboard-response,222,1012083,0.0-7.14-0.14,i66c4nch84q,2022-09-16 14:52:04.624,5ac4fbad1667e40001d8615e,2,23,37,15,13,64,Female,1550.0,,"
  <table>
  <tr height=300>
    <td width=300 height=300><img src=""static/images/cards/stack_of_red_stars.svg"" width=""175px"" height=""250px""></img></td>
    <td width=300 height=300><img src=""static/images/cards/stack_of_red_moons.svg"" width=""175px"" height=""250px""></img></td>
  </tr>
  <tr height=200>
    <td width=300><img src=""static/images/keys/w.svg"" width=""35%"" height=""75%""></img></td>
    <td width=300><img src=""static/images/keys/o.svg"" width=""35%"" height=""75%""></img></td>
  </tr>
</table>
  ",87.0,1.0,,,,,,,,,,,,,,,,,,,,,,,,,,
223,0,,html-keyboard-response,223,1015080,0.0-7.14-1.14,i66c4nch84q,2022-09-16 14:52:04.624,5ac4fbad1667e40001d8615e,2,23,37,15,13,64,Female,2494.7000000477,,"
  <table>
  <tr height=300>
    <td width=300 height=300><img src=""static/images/cards/back_of_red_stars.svg"" width=""175px"" height=""250px""></img></td>
    <td width=300 height=300><img src=""static/images/cards/back_of_red_stars.svg"" width=""175px"" height=""250px""></img></td>
  </tr>
  <tr height=200>
    <td width=300><img src=""static/images/keys/z.svg"" width=""35%"" height=""75%""></img></td>
    <td width=300></td>
  </tr>
</table>
  ",90.0,1.0,,,,,,,,,,,,,,,,,,,,,,,,,,
224,0,,html-keyboard-response,224,1016582,0.0-7.14-2.14,i66c4nch84q,2022-09-16 14:52:04.624,5ac4fbad1667e40001d8615e,2,23,37,15,13,64,Female,,,"
  <table>
  <tr height=300>
    <td width=300 height=300><img src=""static/images/cards/4_of_red_stars.svg"" width=""175px"" height=""250px""></img></td>
    <td width=300 height=300><img src=""static/images/cards/back_of_red_stars.svg"" width=""175px"" height=""250px""></img></td>
  </tr>
  <tr height=200>
    <td width=300><img src=""static/images/keys/z.svg"" width=""35%"" height=""75%""></img></td>
    <td width=300></td>
  </tr>
</table>
  ",,,,,,,,,,,,,,,,,,,,,,,,,,,,
225,0,,html-keyboard-response,225,1018084,0.0-7.14-3.14,i66c4nch84q,2022-09-16 14:52:04.624,5ac4fbad1667e40001d8615e,2,23,37,15,13,64,Female,,,"<p style=""font-size:50px"">You Lose!
No points this round.</p>",,,,,,,,,,,,,,,,,,,,,,,,,,,,
226,0,,html-keyboard-response,226,1018590,0.0-7.14-4.14,i66c4nch84q,2022-09-16 14:52:04.624,5ac4fbad1667e40001d8615e,2,23,37,15,13,64,Female,,,,,,1.0,choice,14.0,B,D,red,red,stars,moons,B,D,B,red,stars,1550.0,0.0,1.0,1,left,2494.7000000477,4.0,0.0,0.0,,,
227,0,,html-keyboard-response,227,1021071,0.0-7.15-0.15,i66c4nch84q,2022-09-16 14:52:04.624,5ac4fbad1667e40001d8615e,2,23,37,15,13,64,Female,2479.3999998569,,"
  <table>
  <tr height=300>
    <td width=300 height=300><img src=""static/images/cards/stack_of_black_moons.svg"" width=""175px"" height=""250px""></img></td>
    <td width=300 height=300><img src=""static/images/cards/stack_of_red_moons.svg"" width=""175px"" height=""250px""></img></td>
  </tr>
  <tr height=200>
    <td width=300><img src=""static/images/keys/w.svg"" width=""35%"" height=""75%""></img></td>
    <td width=300><img src=""static/images/keys/o.svg"" width=""35%"" height=""75%""></img></td>
  </tr>
</table>
  ",79.0,1.0,,,,,,,,,,,,,,,,,,,,,,,,,,
228,0,,html-keyboard-response,228,1023088,0.0-7.15-1.15,i66c4nch84q,2022-09-16 14:52:04.624,5ac4fbad1667e40001d8615e,2,23,37,15,13,64,Female,1513.5999999046,,"
  <table>
  <tr height=300>
    <td width=300 height=300><img src=""static/images/cards/back_of_red_moons.svg"" width=""175px"" height=""250px""></img></td>
    <td width=300 height=300><img src=""static/images/cards/back_of_red_moons.svg"" width=""175px"" height=""250px""></img></td>
  </tr>
  <tr height=200>
    <td width=300></td>
    <td width=300><img src=""static/images/keys/m.svg"" width=""35%"" height=""75%""></img></td>
  </tr>
</table>
  ",77.0,1.0,,,,,,,,,,,,,,,,,,,,,,,,,,
229,0,,html-keyboard-response,229,1024590,0.0-7.15-2.15,i66c4nch84q,2022-09-16 14:52:04.624,5ac4fbad1667e40001d8615e,2,23,37,15,13,64,Female,,,"
  <table>
  <tr height=300>
    <td width=300 height=300><img src=""static/images/cards/back_of_red_moons.svg"" width=""175px"" height=""250px""></img></td>
    <td width=300 height=300><img src=""static/images/cards/7_of_red_moons.svg"" width=""175px"" height=""250px""></img></td>
  </tr>
  <tr height=200>
    <td width=300></td>
    <td width=300><img src=""static/images/keys/m.svg"" width=""35%"" height=""75%""></img></td>
  </tr>
</table>
  ",,,,,,,,,,,,,,,,,,,,,,,,,,,,
230,0,,html-keyboard-response,230,1026094,0.0-7.15-3.15,i66c4nch84q,2022-09-16 14:52:04.624,5ac4fbad1667e40001d8615e,2,23,37,15,13,64,Female,,,"<p style=""font-size:50px"">You Lose!
No points this round.</p>",,,,,,,,,,,,,,,,,,,,,,,,,,,,
231,0,,html-keyboard-response,231,1026601,0.0-7.15-4.15,i66c4nch84q,2022-09-16 14:52:04.624,5ac4fbad1667e40001d8615e,2,23,37,15,13,64,Female,,,,,,1.0,choice,15.0,C,D,black,red,moons,moons,C,D,D,red,moons,2479.3999998569,0.0,0.0,0,right,1513.5999999046,7.0,1.0,0.0,,,
232,0,,html-keyboard-response,232,1028770,0.0-7.16-0.16,i66c4nch84q,2022-09-16 14:52:04.624,5ac4fbad1667e40001d8615e,2,23,37,15,13,64,Female,2167.2000000477,,"
  <table>
  <tr height=300>
    <td width=300 height=300><img src=""static/images/cards/stack_of_black_stars.svg"" width=""175px"" height=""250px""></img></td>
    <td width=300 height=300><img src=""static/images/cards/stack_of_red_stars.svg"" width=""175px"" height=""250px""></img></td>
  </tr>
  <tr height=200>
    <td width=300><img src=""static/images/keys/w.svg"" width=""35%"" height=""75%""></img></td>
    <td width=300><img src=""static/images/keys/o.svg"" width=""35%"" height=""75%""></img></td>
  </tr>
</table>
  ",87.0,1.0,,,,,,,,,,,,,,,,,,,,,,,,,,
233,0,,html-keyboard-response,233,1031075,0.0-7.16-1.16,i66c4nch84q,2022-09-16 14:52:04.624,5ac4fbad1667e40001d8615e,2,23,37,15,13,64,Female,1802.8000001907,,"
  <table>
  <tr height=300>
    <td width=300 height=300><img src=""static/images/cards/back_of_black_stars.svg"" width=""175px"" height=""250px""></img></td>
    <td width=300 height=300><img src=""static/images/cards/back_of_black_stars.svg"" width=""175px"" height=""250px""></img></td>
  </tr>
  <tr height=200>
    <td width=300><img src=""static/images/keys/z.svg"" width=""35%"" height=""75%""></img></td>
    <td width=300><img src=""static/images/keys/m.svg"" width=""35%"" height=""75%""></img></td>
  </tr>
</table>
  ",77.0,1.0,,,,,,,,,,,,,,,,,,,,,,,,,,
234,0,,html-keyboard-response,234,1032578,0.0-7.16-2.16,i66c4nch84q,2022-09-16 14:52:04.624,5ac4fbad1667e40001d8615e,2,23,37,15,13,64,Female,,,"
  <table>
  <tr height=300>
    <td width=300 height=300><img src=""static/images/cards/back_of_black_stars.svg"" width=""175px"" height=""250px""></img></td>
    <td width=300 height=300><img src=""static/images/cards/10_of_black_stars.svg"" width=""175px"" height=""250px""></img></td>
  </tr>
  <tr height=200>
    <td width=300><img src=""static/images/keys/z.svg"" width=""35%"" height=""75%""></img></td>
    <td width=300><img src=""static/images/keys/m.svg"" width=""35%"" height=""75%""></img></td>
  </tr>
</table>
  ",,,,,,,,,,,,,,,,,,,,,,,,,,,,
235,0,,html-keyboard-response,235,1034080,0.0-7.16-3.16,i66c4nch84q,2022-09-16 14:52:04.624,5ac4fbad1667e40001d8615e,2,23,37,15,13,64,Female,,,"<p style=""font-size:50px"">You win!
+10 points this round!</p>",,,,,,,,,,,,,,,,,,,,,,,,,,,,
236,0,,html-keyboard-response,236,1034586,0.0-7.16-4.16,i66c4nch84q,2022-09-16 14:52:04.624,5ac4fbad1667e40001d8615e,2,23,37,15,13,64,Female,,,,,,1.0,choice,16.0,A,B,black,red,stars,stars,A,B,A,black,stars,2167.2000000477,1.0,1.0,NA,right,1802.8000001907,10.0,1.0,1.0,,,
237,0,,html-keyboard-response,237,1036232,0.0-7.17-0.17,i66c4nch84q,2022-09-16 14:52:04.624,5ac4fbad1667e40001d8615e,2,23,37,15,13,64,Female,1643.6000001431,,"
  <table>
