,index,success,trial_type,trial_index,time_elapsed,internal_node_id,subject,date,prol_id,ctbl,sense_of_control_A,sense_of_control_B,sense_of_control_C,sense_of_control_D,age,gender,rt,url,stimulus,key_press,npress,is_data_trial,phase,trial,deck1,deck2,col1,col2,sym1,sym2,deck_l,deck_r,chosen_deck,chosen_col,chosen_sym,deck_rt,choose_choice,mutual_info,hidden_key,chosen_card,card_rt,player_num,win_card,outcome,mock_rating,response,responses
0,0,1.0,fullscreen,0,2827,0.0-0.0,0wd2blh3vnh,2022-09-19 16:25:47.137,59c6305e6a287600011c388d,2,41,33,26,21,29,M,,,,,,,,,,,,,,,,,,,,,,,,,,,,,,,
1,0,,external-html,1,9600,0.0-1.0,0wd2blh3vnh,2022-09-19 16:25:47.137,59c6305e6a287600011c388d,2,41,33,26,21,29,M,6713.3999996185,static/js/sub/consent.html,,,,,,,,,,,,,,,,,,,,,,,,,,,,,
2,0,,call-function,2,9601,0.0-2.0,0wd2blh3vnh,2022-09-19 16:25:47.137,59c6305e6a287600011c388d,2,41,33,26,21,29,M,,,,,,,,,,,,,,,,,,,,,,,,,,,,,,,
3,0,,image-keyboard-response,3,15910,0.0-3.0-0.0,0wd2blh3vnh,2022-09-19 16:25:47.137,59c6305e6a287600011c388d,2,41,33,26,21,29,M,6307.8000001907,,static/images/instructions_CB_2/Slide1.png,39.0,,,,,,,,,,,,,,,,,,,,,,,,,,,
4,0,,image-keyboard-response,4,34395,0.0-3.1-0.1,0wd2blh3vnh,2022-09-19 16:25:47.137,59c6305e6a287600011c388d,2,41,33,26,21,29,M,18484.2999997139,,static/images/instructions_CB_2/Slide2.png,39.0,,,,,,,,,,,,,,,,,,,,,,,,,,,
5,0,,image-keyboard-response,5,36248,0.0-3.2-0.2,0wd2blh3vnh,2022-09-19 16:25:47.137,59c6305e6a287600011c388d,2,41,33,26,21,29,M,1852.0,,static/images/instructions_CB_2/Slide3.png,39.0,,,,,,,,,,,,,,,,,,,,,,,,,,,
6,0,,image-keyboard-response,6,37647,0.0-3.3-0.3,0wd2blh3vnh,2022-09-19 16:25:47.137,59c6305e6a287600011c388d,2,41,33,26,21,29,M,1398.9000000954,,static/images/instructions_CB_2/Slide4.png,39.0,,,,,,,,,,,,,,,,,,,,,,,,,,,
7,0,,image-keyboard-response,7,39273,0.0-3.4-0.4,0wd2blh3vnh,2022-09-19 16:25:47.137,59c6305e6a287600011c388d,2,41,33,26,21,29,M,1624.7000002861,,static/images/instructions_CB_2/Slide5.png,39.0,,,,,,,,,,,,,,,,,,,,,,,,,,,
8,0,,image-keyboard-response,8,40654,0.0-3.5-0.5,0wd2blh3vnh,2022-09-19 16:25:47.137,59c6305e6a287600011c388d,2,41,33,26,21,29,M,1380.3000001907,,static/images/instructions_CB_2/Slide6.png,39.0,,,,,,,,,,,,,,,,,,,,,,,,,,,
9,0,,image-keyboard-response,9,42348,0.0-3.6-0.6,0wd2blh3vnh,2022-09-19 16:25:47.137,59c6305e6a287600011c388d,2,41,33,26,21,29,M,1693.6999998093,,static/images/instructions_CB_2/Slide7.png,39.0,,,,,,,,,,,,,,,,,,,,,,,,,,,
10,0,,image-keyboard-response,10,48558,0.0-3.7-0.7,0wd2blh3vnh,2022-09-19 16:25:47.137,59c6305e6a287600011c388d,2,41,33,26,21,29,M,6209.2999997139,,static/images/instructions_CB_2/Slide8.png,39.0,,,,,,,,,,,,,,,,,,,,,,,,,,,
11,0,,image-keyboard-response,11,53887,0.0-3.8-0.8,0wd2blh3vnh,2022-09-19 16:25:47.137,59c6305e6a287600011c388d,2,41,33,26,21,29,M,5328.5999999046,,static/images/instructions_CB_2/Slide9.png,39.0,,,,,,,,,,,,,,,,,,,,,,,,,,,
12,0,,image-keyboard-response,12,60299,0.0-3.9-0.9,0wd2blh3vnh,2022-09-19 16:25:47.137,59c6305e6a287600011c388d,2,41,33,26,21,29,M,6410.4000000954,,static/images/instructions_CB_2/Slide10.png,39.0,,,,,,,,,,,,,,,,,,,,,,,,,,,
13,0,,image-keyboard-response,13,62342,0.0-3.10-0.10,0wd2blh3vnh,2022-09-19 16:25:47.137,59c6305e6a287600011c388d,2,41,33,26,21,29,M,2042.2000002861,,static/images/instructions_CB_2/Slide11.png,39.0,,,,,,,,,,,,,,,,,,,,,,,,,,,
14,0,,image-keyboard-response,14,67347,0.0-3.11-0.11,0wd2blh3vnh,2022-09-19 16:25:47.137,59c6305e6a287600011c388d,2,41,33,26,21,29,M,5004.9000000954,,static/images/instructions_CB_2/Slide12.png,39.0,,,,,,,,,,,,,,,,,,,,,,,,,,,
15,0,,image-keyboard-response,15,77543,0.0-3.12-0.12,0wd2blh3vnh,2022-09-19 16:25:47.137,59c6305e6a287600011c388d,2,41,33,26,21,29,M,10194.8000001907,,static/images/instructions_CB_2/Slide13.png,39.0,,,,,,,,,,,,,,,,,,,,,,,,,,,
16,0,,image-keyboard-response,16,80964,0.0-3.13-0.13,0wd2blh3vnh,2022-09-19 16:25:47.137,59c6305e6a287600011c388d,2,41,33,26,21,29,M,3420.5,,static/images/instructions_CB_2/Slide14.png,39.0,,,,,,,,,,,,,,,,,,,,,,,,,,,
17,0,,image-keyboard-response,17,84642,0.0-3.14-0.14,0wd2blh3vnh,2022-09-19 16:25:47.137,59c6305e6a287600011c388d,2,41,33,26,21,29,M,3677.3000001907,,static/images/instructions_CB_2/Slide15.png,39.0,,,,,,,,,,,,,,,,,,,,,,,,,,,
18,0,,image-keyboard-response,18,86450,0.0-3.15-0.15,0wd2blh3vnh,2022-09-19 16:25:47.137,59c6305e6a287600011c388d,2,41,33,26,21,29,M,1807.4000000954,,static/images/instructions_CB_2/Slide16.png,39.0,,,,,,,,,,,,,,,,,,,,,,,,,,,
19,0,,image-keyboard-response,19,88863,0.0-3.16-0.16,0wd2blh3vnh,2022-09-19 16:25:47.137,59c6305e6a287600011c388d,2,41,33,26,21,29,M,2412.4000000954,,static/images/instructions_CB_2/Slide17.png,39.0,,,,,,,,,,,,,,,,,,,,,,,,,,,
20,0,,image-keyboard-response,20,95310,0.0-3.17-0.17,0wd2blh3vnh,2022-09-19 16:25:47.137,59c6305e6a287600011c388d,2,41,33,26,21,29,M,6447.0,,static/images/instructions_CB_2/Slide18.png,39.0,,,,,,,,,,,,,,,,,,,,,,,,,,,
21,0,,image-keyboard-response,21,97367,0.0-3.18-0.18,0wd2blh3vnh,2022-09-19 16:25:47.137,59c6305e6a287600011c388d,2,41,33,26,21,29,M,2056.0,,static/images/instructions_CB_2/Slide19.png,39.0,,,,,,,,,,,,,,,,,,,,,,,,,,,
22,0,,html-keyboard-response,22,98868,0.0-4.0-0.0,0wd2blh3vnh,2022-09-19 16:25:47.137,59c6305e6a287600011c388d,2,41,33,26,21,29,M,,,"<img src=""static/images/cards/stack_of_black_stars.svg"" width=""175px"" height=""250px""></img>",,,,,,,,,,,,,,,,,,,,,,,,,,,,
23,0,,html-keyboard-response,23,101188,0.0-4.0-1.0,0wd2blh3vnh,2022-09-19 16:25:47.137,59c6305e6a287600011c388d,2,41,33,26,21,29,M,1817.5999999046,,"
  <table>
  <tr height=300>
    <td width=300 height=300><img src=""static/images/cards/back_of_black_stars.svg"" width=""175px"" height=""250px""></img></td>
    <td width=300 height=300><img src=""static/images/cards/back_of_black_stars.svg"" width=""175px"" height=""250px""></img></td>
  </tr>
  <tr height=200>
    <td width=300><img src=""static/images/keys/z.svg"" width=""35%"" height=""75%""></img></td>
    <td width=300><img src=""static/images/keys/m.svg"" width=""35%"" height=""75%""></img></td>
  </tr>
</table>
  ",77.0,1.0,,,,,,,,,,,,,,,,,,,,,,,,,,
24,0,,html-keyboard-response,24,102690,0.0-4.0-2.0,0wd2blh3vnh,2022-09-19 16:25:47.137,59c6305e6a287600011c388d,2,41,33,26,21,29,M,,,"
  <table>
  <tr height=300>
    <td width=300 height=300><img src=""static/images/cards/back_of_black_stars.svg"" width=""175px"" height=""250px""></img></td>
    <td width=300 height=300><img src=""static/images/cards/6_of_black_stars.svg"" width=""175px"" height=""250px""></img></td>
  </tr>
  <tr height=200>
    <td width=300><img src=""static/images/keys/z.svg"" width=""35%"" height=""75%""></img></td>
    <td width=300><img src=""static/images/keys/m.svg"" width=""35%"" height=""75%""></img></td>
  </tr>
</table>
  ",,,,,,,,,,,,,,,,,,,,,,,,,,,,
25,0,,html-keyboard-response,25,104191,0.0-4.0-3.0,0wd2blh3vnh,2022-09-19 16:25:47.137,59c6305e6a287600011c388d,2,41,33,26,21,29,M,,,"<p style=""font-size:50px"">You win!
+10 points this round!</p>",,,,,,,,,,,,,,,,,,,,,,,,,,,,
26,0,,html-keyboard-response,26,104698,0.0-4.0-4.0,0wd2blh3vnh,2022-09-19 16:25:47.137,59c6305e6a287600011c388d,2,41,33,26,21,29,M,,,,,,1.0,learning,0.0,A,,black,,stars,,,,A,black,stars,,1.0,1.0,NA,right,1817.5999999046,6.0,1.0,1.0,,,
27,0,,html-keyboard-response,27,106200,0.0-4.1-0.1,0wd2blh3vnh,2022-09-19 16:25:47.137,59c6305e6a287600011c388d,2,41,33,26,21,29,M,,,"<img src=""static/images/cards/stack_of_red_stars.svg"" width=""175px"" height=""250px""></img>",,,,,,,,,,,,,,,,,,,,,,,,,,,,
28,0,,html-keyboard-response,28,107506,0.0-4.1-1.1,0wd2blh3vnh,2022-09-19 16:25:47.137,59c6305e6a287600011c388d,2,41,33,26,21,29,M,804.0999999046,,"
  <table>
  <tr height=300>
    <td width=300 height=300><img src=""static/images/cards/back_of_red_stars.svg"" width=""175px"" height=""250px""></img></td>
    <td width=300 height=300><img src=""static/images/cards/back_of_red_stars.svg"" width=""175px"" height=""250px""></img></td>
  </tr>
  <tr height=200>
    <td width=300></td>
    <td width=300><img src=""static/images/keys/m.svg"" width=""35%"" height=""75%""></img></td>
  </tr>
</table>
  ",77.0,1.0,,,,,,,,,,,,,,,,,,,,,,,,,,
29,0,,html-keyboard-response,29,109008,0.0-4.1-2.1,0wd2blh3vnh,2022-09-19 16:25:47.137,59c6305e6a287600011c388d,2,41,33,26,21,29,M,,,"
  <table>
  <tr height=300>
    <td width=300 height=300><img src=""static/images/cards/back_of_red_stars.svg"" width=""175px"" height=""250px""></img></td>
    <td width=300 height=300><img src=""static/images/cards/4_of_red_stars.svg"" width=""175px"" height=""250px""></img></td>
  </tr>
  <tr height=200>
    <td width=300></td>
    <td width=300><img src=""static/images/keys/m.svg"" width=""35%"" height=""75%""></img></td>
  </tr>
</table>
  ",,,,,,,,,,,,,,,,,,,,,,,,,,,,
30,0,,html-keyboard-response,30,110510,0.0-4.1-3.1,0wd2blh3vnh,2022-09-19 16:25:47.137,59c6305e6a287600011c388d,2,41,33,26,21,29,M,,,"<p style=""font-size:50px"">You Lose!
No points this round.</p>",,,,,,,,,,,,,,,,,,,,,,,,,,,,
31,0,,html-keyboard-response,31,111017,0.0-4.1-4.1,0wd2blh3vnh,2022-09-19 16:25:47.137,59c6305e6a287600011c388d,2,41,33,26,21,29,M,,,,,,1.0,learning,1.0,B,,red,,stars,,,,B,red,stars,,0.0,1.0,0,right,804.0999999046,4.0,0.0,0.0,,,
32,0,,html-keyboard-response,32,112519,0.0-4.2-0.2,0wd2blh3vnh,2022-09-19 16:25:47.137,59c6305e6a287600011c388d,2,41,33,26,21,29,M,,,"<img src=""static/images/cards/stack_of_black_moons.svg"" width=""175px"" height=""250px""></img>",,,,,,,,,,,,,,,,,,,,,,,,,,,,
33,0,,html-keyboard-response,33,114072,0.0-4.2-1.2,0wd2blh3vnh,2022-09-19 16:25:47.137,59c6305e6a287600011c388d,2,41,33,26,21,29,M,1050.5,,"
  <table>
  <tr height=300>
    <td width=300 height=300><img src=""static/images/cards/back_of_black_moons.svg"" width=""175px"" height=""250px""></img></td>
    <td width=300 height=300><img src=""static/images/cards/back_of_black_moons.svg"" width=""175px"" height=""250px""></img></td>
  </tr>
  <tr height=200>
    <td width=300><img src=""static/images/keys/z.svg"" width=""35%"" height=""75%""></img></td>
    <td width=300><img src=""static/images/keys/m.svg"" width=""35%"" height=""75%""></img></td>
  </tr>
</table>
  ",77.0,1.0,,,,,,,,,,,,,,,,,,,,,,,,,,
34,0,,html-keyboard-response,34,115573,0.0-4.2-2.2,0wd2blh3vnh,2022-09-19 16:25:47.137,59c6305e6a287600011c388d,2,41,33,26,21,29,M,,,"
  <table>
  <tr height=300>
    <td width=300 height=300><img src=""static/images/cards/back_of_black_moons.svg"" width=""175px"" height=""250px""></img></td>
    <td width=300 height=300><img src=""static/images/cards/8_of_black_moons.svg"" width=""175px"" height=""250px""></img></td>
  </tr>
  <tr height=200>
    <td width=300><img src=""static/images/keys/z.svg"" width=""35%"" height=""75%""></img></td>
    <td width=300><img src=""static/images/keys/m.svg"" width=""35%"" height=""75%""></img></td>
  </tr>
</table>
  ",,,,,,,,,,,,,,,,,,,,,,,,,,,,
35,0,,html-keyboard-response,35,117077,0.0-4.2-3.2,0wd2blh3vnh,2022-09-19 16:25:47.137,59c6305e6a287600011c388d,2,41,33,26,21,29,M,,,"<p style=""font-size:50px"">You Lose!
No points this round.</p>",,,,,,,,,,,,,,,,,,,,,,,,,,,,
36,0,,html-keyboard-response,36,117583,0.0-4.2-4.2,0wd2blh3vnh,2022-09-19 16:25:47.137,59c6305e6a287600011c388d,2,41,33,26,21,29,M,,,,,,1.0,learning,2.0,C,,black,,moons,,,,C,black,moons,,1.0,0.0,NA,right,1050.5,8.0,1.0,0.0,,,
37,0,,html-keyboard-response,37,119084,0.0-4.3-0.3,0wd2blh3vnh,2022-09-19 16:25:47.137,59c6305e6a287600011c388d,2,41,33,26,21,29,M,,,"<img src=""static/images/cards/stack_of_red_moons.svg"" width=""175px"" height=""250px""></img>",,,,,,,,,,,,,,,,,,,,,,,,,,,,
38,0,,html-keyboard-response,38,120315,0.0-4.3-1.3,0wd2blh3vnh,2022-09-19 16:25:47.137,59c6305e6a287600011c388d,2,41,33,26,21,29,M,730.0999999046,,"
  <table>
  <tr height=300>
    <td width=300 height=300><img src=""static/images/cards/back_of_red_moons.svg"" width=""175px"" height=""250px""></img></td>
    <td width=300 height=300><img src=""static/images/cards/back_of_red_moons.svg"" width=""175px"" height=""250px""></img></td>
  </tr>
  <tr height=200>
    <td width=300></td>
    <td width=300><img src=""static/images/keys/m.svg"" width=""35%"" height=""75%""></img></td>
  </tr>
</table>
  ",77.0,1.0,,,,,,,,,,,,,,,,,,,,,,,,,,
39,0,,html-keyboard-response,39,121817,0.0-4.3-2.3,0wd2blh3vnh,2022-09-19 16:25:47.137,59c6305e6a287600011c388d,2,41,33,26,21,29,M,,,"
  <table>
  <tr height=300>
    <td width=300 height=300><img src=""static/images/cards/back_of_red_moons.svg"" width=""175px"" height=""250px""></img></td>
    <td width=300 height=300><img src=""static/images/cards/3_of_red_moons.svg"" width=""175px"" height=""250px""></img></td>
  </tr>
  <tr height=200>
    <td width=300></td>
    <td width=300><img src=""static/images/keys/m.svg"" width=""35%"" height=""75%""></img></td>
  </tr>
</table>
  ",,,,,,,,,,,,,,,,,,,,,,,,,,,,
40,0,,html-keyboard-response,40,123320,0.0-4.3-3.3,0wd2blh3vnh,2022-09-19 16:25:47.137,59c6305e6a287600011c388d,2,41,33,26,21,29,M,,,"<p style=""font-size:50px"">You win!
+10 points this round!</p>",,,,,,,,,,,,,,,,,,,,,,,,,,,,
41,0,,html-keyboard-response,41,123828,0.0-4.3-4.3,0wd2blh3vnh,2022-09-19 16:25:47.137,59c6305e6a287600011c388d,2,41,33,26,21,29,M,,,,,,1.0,learning,3.0,D,,red,,moons,,,,D,red,moons,,0.0,0.0,0,right,730.0999999046,3.0,0.0,1.0,,,
42,0,,html-keyboard-response,42,125329,0.0-4.4-0.4,0wd2blh3vnh,2022-09-19 16:25:47.137,59c6305e6a287600011c388d,2,41,33,26,21,29,M,,,"<img src=""static/images/cards/stack_of_red_bolts.svg"" width=""175px"" height=""250px""></img>",,,,,,,,,,,,,,,,,,,,,,,,,,,,
43,0,,html-keyboard-response,43,126585,0.0-4.4-1.4,0wd2blh3vnh,2022-09-19 16:25:47.137,59c6305e6a287600011c388d,2,41,33,26,21,29,M,754.3999996185,,"
  <table>
  <tr height=300>
    <td width=300 height=300><img src=""static/images/cards/back_of_red_bolts.svg"" width=""175px"" height=""250px""></img></td>
    <td width=300 height=300><img src=""static/images/cards/back_of_red_bolts.svg"" width=""175px"" height=""250px""></img></td>
  </tr>
  <tr height=200>
    <td width=300><img src=""static/images/keys/z.svg"" width=""35%"" height=""75%""></img></td>
    <td width=300><img src=""static/images/keys/m.svg"" width=""35%"" height=""75%""></img></td>
  </tr>
</table>
  ",77.0,1.0,,,,,,,,,,,,,,,,,,,,,,,,,,
44,0,,html-keyboard-response,44,128087,0.0-4.4-2.4,0wd2blh3vnh,2022-09-19 16:25:47.137,59c6305e6a287600011c388d,2,41,33,26,21,29,M,,,"
  <table>
  <tr height=300>
    <td width=300 height=300><img src=""static/images/cards/back_of_red_bolts.svg"" width=""175px"" height=""250px""></img></td>
    <td width=300 height=300><img src=""static/images/cards/10_of_red_bolts.svg"" width=""175px"" height=""250px""></img></td>
  </tr>
  <tr height=200>
    <td width=300><img src=""static/images/keys/z.svg"" width=""35%"" height=""75%""></img></td>
    <td width=300><img src=""static/images/keys/m.svg"" width=""35%"" height=""75%""></img></td>
  </tr>
</table>
  ",,,,,,,,,,,,,,,,,,,,,,,,,,,,
45,0,,html-keyboard-response,45,129588,0.0-4.4-3.4,0wd2blh3vnh,2022-09-19 16:25:47.137,59c6305e6a287600011c388d,2,41,33,26,21,29,M,,,"<p style=""font-size:50px"">You win!
+10 points this round!</p>",,,,,,,,,,,,,,,,,,,,,,,,,,,,
46,0,,html-keyboard-response,46,130093,0.0-4.4-4.4,0wd2blh3vnh,2022-09-19 16:25:47.137,59c6305e6a287600011c388d,2,41,33,26,21,29,M,,,,,,1.0,learning,4.0,Xc,,red,,bolts,,,,Xc,red,bolts,,1.0,0.0,NA,right,754.3999996185,10.0,1.0,1.0,,,
47,0,,html-keyboard-response,47,131594,0.0-4.5-0.5,0wd2blh3vnh,2022-09-19 16:25:47.137,59c6305e6a287600011c388d,2,41,33,26,21,29,M,,,"<img src=""static/images/cards/stack_of_black_bolts.svg"" width=""175px"" height=""250px""></img>",,,,,,,,,,,,,,,,,,,,,,,,,,,,
48,0,,html-keyboard-response,48,132851,0.0-4.5-1.5,0wd2blh3vnh,2022-09-19 16:25:47.137,59c6305e6a287600011c388d,2,41,33,26,21,29,M,754.8000001907,,"
  <table>
  <tr height=300>
    <td width=300 height=300><img src=""static/images/cards/back_of_black_bolts.svg"" width=""175px"" height=""250px""></img></td>
    <td width=300 height=300><img src=""static/images/cards/back_of_black_bolts.svg"" width=""175px"" height=""250px""></img></td>
  </tr>
  <tr height=200>
    <td width=300><img src=""static/images/keys/z.svg"" width=""35%"" height=""75%""></img></td>
    <td width=300></td>
  </tr>
</table>
  ",90.0,1.0,,,,,,,,,,,,,,,,,,,,,,,,,,
49,0,,html-keyboard-response,49,134353,0.0-4.5-2.5,0wd2blh3vnh,2022-09-19 16:25:47.137,59c6305e6a287600011c388d,2,41,33,26,21,29,M,,,"
  <table>
  <tr height=300>
    <td width=300 height=300><img src=""static/images/cards/9_of_black_bolts.svg"" width=""175px"" height=""250px""></img></td>
    <td width=300 height=300><img src=""static/images/cards/back_of_black_bolts.svg"" width=""175px"" height=""250px""></img></td>
  </tr>
  <tr height=200>
    <td width=300><img src=""static/images/keys/z.svg"" width=""35%"" height=""75%""></img></td>
    <td width=300></td>
  </tr>
</table>
  ",,,,,,,,,,,,,,,,,,,,,,,,,,,,
50,0,,html-keyboard-response,50,135854,0.0-4.5-3.5,0wd2blh3vnh,2022-09-19 16:25:47.137,59c6305e6a287600011c388d,2,41,33,26,21,29,M,,,"<p style=""font-size:50px"">You win!
+10 points this round!</p>",,,,,,,,,,,,,,,,,,,,,,,,,,,,
51,0,,html-keyboard-response,51,136361,0.0-4.5-4.5,0wd2blh3vnh,2022-09-19 16:25:47.137,59c6305e6a287600011c388d,2,41,33,26,21,29,M,,,,,,1.0,learning,5.0,Xnc,,black,,bolts,,,,Xnc,black,bolts,,0.0,0.0,1,left,754.8000001907,9.0,1.0,1.0,,,
52,0,,html-keyboard-response,52,137863,0.0-4.6-0.6,0wd2blh3vnh,2022-09-19 16:25:47.137,59c6305e6a287600011c388d,2,41,33,26,21,29,M,,,"<img src=""static/images/cards/stack_of_black_stars.svg"" width=""175px"" height=""250px""></img>",,,,,,,,,,,,,,,,,,,,,,,,,,,,
53,0,,html-keyboard-response,53,139234,0.0-4.6-1.6,0wd2blh3vnh,2022-09-19 16:25:47.137,59c6305e6a287600011c388d,2,41,33,26,21,29,M,868.5999999046,,"
  <table>
  <tr height=300>
    <td width=300 height=300><img src=""static/images/cards/back_of_black_stars.svg"" width=""175px"" height=""250px""></img></td>
    <td width=300 height=300><img src=""static/images/cards/back_of_black_stars.svg"" width=""175px"" height=""250px""></img></td>
  </tr>
  <tr height=200>
    <td width=300><img src=""static/images/keys/z.svg"" width=""35%"" height=""75%""></img></td>
    <td width=300><img src=""static/images/keys/m.svg"" width=""35%"" height=""75%""></img></td>
  </tr>
</table>
  ",77.0,1.0,,,,,,,,,,,,,,,,,,,,,,,,,,
54,0,,html-keyboard-response,54,140736,0.0-4.6-2.6,0wd2blh3vnh,2022-09-19 16:25:47.137,59c6305e6a287600011c388d,2,41,33,26,21,29,M,,,"
  <table>
  <tr height=300>
    <td width=300 height=300><img src=""static/images/cards/back_of_black_stars.svg"" width=""175px"" height=""250px""></img></td>
    <td width=300 height=300><img src=""static/images/cards/9_of_black_stars.svg"" width=""175px"" height=""250px""></img></td>
  </tr>
  <tr height=200>
    <td width=300><img src=""static/images/keys/z.svg"" width=""35%"" height=""75%""></img></td>
    <td width=300><img src=""static/images/keys/m.svg"" width=""35%"" height=""75%""></img></td>
  </tr>
</table>
  ",,,,,,,,,,,,,,,,,,,,,,,,,,,,
55,0,,html-keyboard-response,55,142238,0.0-4.6-3.6,0wd2blh3vnh,2022-09-19 16:25:47.137,59c6305e6a287600011c388d,2,41,33,26,21,29,M,,,"<p style=""font-size:50px"">You win!
+10 points this round!</p>",,,,,,,,,,,,,,,,,,,,,,,,,,,,
56,0,,html-keyboard-response,56,142745,0.0-4.6-4.6,0wd2blh3vnh,2022-09-19 16:25:47.137,59c6305e6a287600011c388d,2,41,33,26,21,29,M,,,,,,1.0,learning,6.0,A,,black,,stars,,,,A,black,stars,,1.0,1.0,NA,right,868.5999999046,9.0,1.0,1.0,,,
57,0,,html-keyboard-response,57,144246,0.0-4.7-0.7,0wd2blh3vnh,2022-09-19 16:25:47.137,59c6305e6a287600011c388d,2,41,33,26,21,29,M,,,"<img src=""static/images/cards/stack_of_red_stars.svg"" width=""175px"" height=""250px""></img>",,,,,,,,,,,,,,,,,,,,,,,,,,,,
58,0,,html-keyboard-response,58,145495,0.0-4.7-1.7,0wd2blh3vnh,2022-09-19 16:25:47.137,59c6305e6a287600011c388d,2,41,33,26,21,29,M,747.5,,"
  <table>
  <tr height=300>
    <td width=300 height=300><img src=""static/images/cards/back_of_red_stars.svg"" width=""175px"" height=""250px""></img></td>
    <td width=300 height=300><img src=""static/images/cards/back_of_red_stars.svg"" width=""175px"" height=""250px""></img></td>
  </tr>
  <tr height=200>
    <td width=300><img src=""static/images/keys/z.svg"" width=""35%"" height=""75%""></img></td>
    <td width=300></td>
  </tr>
</table>
  ",90.0,1.0,,,,,,,,,,,,,,,,,,,,,,,,,,
59,0,,html-keyboard-response,59,146997,0.0-4.7-2.7,0wd2blh3vnh,2022-09-19 16:25:47.137,59c6305e6a287600011c388d,2,41,33,26,21,29,M,,,"
  <table>
  <tr height=300>
    <td width=300 height=300><img src=""static/images/cards/10_of_red_stars.svg"" width=""175px"" height=""250px""></img></td>
    <td width=300 height=300><img src=""static/images/cards/back_of_red_stars.svg"" width=""175px"" height=""250px""></img></td>
  </tr>
  <tr height=200>
    <td width=300><img src=""static/images/keys/z.svg"" width=""35%"" height=""75%""></img></td>
    <td width=300></td>
  </tr>
</table>
  ",,,,,,,,,,,,,,,,,,,,,,,,,,,,
60,0,,html-keyboard-response,60,148499,0.0-4.7-3.7,0wd2blh3vnh,2022-09-19 16:25:47.137,59c6305e6a287600011c388d,2,41,33,26,21,29,M,,,"<p style=""font-size:50px"">You win!
+10 points this round!</p>",,,,,,,,,,,,,,,,,,,,,,,,,,,,
61,0,,html-keyboard-response,61,149006,0.0-4.7-4.7,0wd2blh3vnh,2022-09-19 16:25:47.137,59c6305e6a287600011c388d,2,41,33,26,21,29,M,,,,,,1.0,learning,7.0,B,,red,,stars,,,,B,red,stars,,0.0,1.0,1,left,747.5,10.0,1.0,1.0,,,
62,0,,html-keyboard-response,62,150506,0.0-4.8-0.8,0wd2blh3vnh,2022-09-19 16:25:47.137,59c6305e6a287600011c388d,2,41,33,26,21,29,M,,,"<img src=""static/images/cards/stack_of_black_moons.svg"" width=""175px"" height=""250px""></img>",,,,,,,,,,,,,,,,,,,,,,,,,,,,
63,0,,html-keyboard-response,63,151549,0.0-4.8-1.8,0wd2blh3vnh,2022-09-19 16:25:47.137,59c6305e6a287600011c388d,2,41,33,26,21,29,M,540.0,,"
  <table>
  <tr height=300>
    <td width=300 height=300><img src=""static/images/cards/back_of_black_moons.svg"" width=""175px"" height=""250px""></img></td>
    <td width=300 height=300><img src=""static/images/cards/back_of_black_moons.svg"" width=""175px"" height=""250px""></img></td>
  </tr>
  <tr height=200>
    <td width=300><img src=""static/images/keys/z.svg"" width=""35%"" height=""75%""></img></td>
    <td width=300><img src=""static/images/keys/m.svg"" width=""35%"" height=""75%""></img></td>
  </tr>
</table>
  ",77.0,1.0,,,,,,,,,,,,,,,,,,,,,,,,,,
64,0,,html-keyboard-response,64,153050,0.0-4.8-2.8,0wd2blh3vnh,2022-09-19 16:25:47.137,59c6305e6a287600011c388d,2,41,33,26,21,29,M,,,"
  <table>
  <tr height=300>
    <td width=300 height=300><img src=""static/images/cards/back_of_black_moons.svg"" width=""175px"" height=""250px""></img></td>
    <td width=300 height=300><img src=""static/images/cards/4_of_black_moons.svg"" width=""175px"" height=""250px""></img></td>
  </tr>
  <tr height=200>
    <td width=300><img src=""static/images/keys/z.svg"" width=""35%"" height=""75%""></img></td>
    <td width=300><img src=""static/images/keys/m.svg"" width=""35%"" height=""75%""></img></td>
  </tr>
</table>
  ",,,,,,,,,,,,,,,,,,,,,,,,,,,,
65,0,,html-keyboard-response,65,154552,0.0-4.8-3.8,0wd2blh3vnh,2022-09-19 16:25:47.137,59c6305e6a287600011c388d,2,41,33,26,21,29,M,,,"<p style=""font-size:50px"">You Lose!
No points this round.</p>",,,,,,,,,,,,,,,,,,,,,,,,,,,,
66,0,,html-keyboard-response,66,155059,0.0-4.8-4.8,0wd2blh3vnh,2022-09-19 16:25:47.137,59c6305e6a287600011c388d,2,41,33,26,21,29,M,,,,,,1.0,learning,8.0,C,,black,,moons,,,,C,black,moons,,1.0,0.0,NA,right,540.0,4.0,0.0,0.0,,,
67,0,,html-keyboard-response,67,156560,0.0-4.9-0.9,0wd2blh3vnh,2022-09-19 16:25:47.137,59c6305e6a287600011c388d,2,41,33,26,21,29,M,,,"<img src=""static/images/cards/stack_of_red_moons.svg"" width=""175px"" height=""250px""></img>",,,,,,,,,,,,,,,,,,,,,,,,,,,,
68,0,,html-keyboard-response,68,157795,0.0-4.9-1.9,0wd2blh3vnh,2022-09-19 16:25:47.137,59c6305e6a287600011c388d,2,41,33,26,21,29,M,733.6999998093,,"
  <table>
  <tr height=300>
    <td width=300 height=300><img src=""static/images/cards/back_of_red_moons.svg"" width=""175px"" height=""250px""></img></td>
    <td width=300 height=300><img src=""static/images/cards/back_of_red_moons.svg"" width=""175px"" height=""250px""></img></td>
  </tr>
  <tr height=200>
    <td width=300><img src=""static/images/keys/z.svg"" width=""35%"" height=""75%""></img></td>
    <td width=300></td>
  </tr>
</table>
  ",90.0,1.0,,,,,,,,,,,,,,,,,,,,,,,,,,
69,0,,html-keyboard-response,69,159296,0.0-4.9-2.9,0wd2blh3vnh,2022-09-19 16:25:47.137,59c6305e6a287600011c388d,2,41,33,26,21,29,M,,,"
  <table>
  <tr height=300>
    <td width=300 height=300><img src=""static/images/cards/7_of_red_moons.svg"" width=""175px"" height=""250px""></img></td>
    <td width=300 height=300><img src=""static/images/cards/back_of_red_moons.svg"" width=""175px"" height=""250px""></img></td>
  </tr>
  <tr height=200>
    <td width=300><img src=""static/images/keys/z.svg"" width=""35%"" height=""75%""></img></td>
    <td width=300></td>
  </tr>
</table>
  ",,,,,,,,,,,,,,,,,,,,,,,,,,,,
70,0,,html-keyboard-response,70,160798,0.0-4.9-3.9,0wd2blh3vnh,2022-09-19 16:25:47.137,59c6305e6a287600011c388d,2,41,33,26,21,29,M,,,"<p style=""font-size:50px"">You win!
+10 points this round!</p>",,,,,,,,,,,,,,,,,,,,,,,,,,,,
71,0,,html-keyboard-response,71,161304,0.0-4.9-4.9,0wd2blh3vnh,2022-09-19 16:25:47.137,59c6305e6a287600011c388d,2,41,33,26,21,29,M,,,,,,1.0,learning,9.0,D,,red,,moons,,,,D,red,moons,,0.0,0.0,1,left,733.6999998093,7.0,1.0,1.0,,,
72,0,,html-keyboard-response,72,162806,0.0-4.10-0.10,0wd2blh3vnh,2022-09-19 16:25:47.137,59c6305e6a287600011c388d,2,41,33,26,21,29,M,,,"<img src=""static/images/cards/stack_of_red_bolts.svg"" width=""175px"" height=""250px""></img>",,,,,,,,,,,,,,,,,,,,,,,,,,,,
73,0,,html-keyboard-response,73,164305,0.0-4.10-1.10,0wd2blh3vnh,2022-09-19 16:25:47.137,59c6305e6a287600011c388d,2,41,33,26,21,29,M,998.5,,"
  <table>
  <tr height=300>
    <td width=300 height=300><img src=""static/images/cards/back_of_red_bolts.svg"" width=""175px"" height=""250px""></img></td>
    <td width=300 height=300><img src=""static/images/cards/back_of_red_bolts.svg"" width=""175px"" height=""250px""></img></td>
  </tr>
  <tr height=200>
    <td width=300><img src=""static/images/keys/z.svg"" width=""35%"" height=""75%""></img></td>
    <td width=300><img src=""static/images/keys/m.svg"" width=""35%"" height=""75%""></img></td>
  </tr>
</table>
  ",77.0,1.0,,,,,,,,,,,,,,,,,,,,,,,,,,
74,0,,html-keyboard-response,74,165807,0.0-4.10-2.10,0wd2blh3vnh,2022-09-19 16:25:47.137,59c6305e6a287600011c388d,2,41,33,26,21,29,M,,,"
  <table>
  <tr height=300>
    <td width=300 height=300><img src=""static/images/cards/back_of_red_bolts.svg"" width=""175px"" height=""250px""></img></td>
    <td width=300 height=300><img src=""static/images/cards/1_of_red_bolts.svg"" width=""175px"" height=""250px""></img></td>
  </tr>
  <tr height=200>
    <td width=300><img src=""static/images/keys/z.svg"" width=""35%"" height=""75%""></img></td>
    <td width=300><img src=""static/images/keys/m.svg"" width=""35%"" height=""75%""></img></td>
  </tr>
</table>
  ",,,,,,,,,,,,,,,,,,,,,,,,,,,,
75,0,,html-keyboard-response,75,167309,0.0-4.10-3.10,0wd2blh3vnh,2022-09-19 16:25:47.137,59c6305e6a287600011c388d,2,41,33,26,21,29,M,,,"<p style=""font-size:50px"">You win!
+10 points this round!</p>",,,,,,,,,,,,,,,,,,,,,,,,,,,,
76,0,,html-keyboard-response,76,167816,0.0-4.10-4.10,0wd2blh3vnh,2022-09-19 16:25:47.137,59c6305e6a287600011c388d,2,41,33,26,21,29,M,,,,,,1.0,learning,10.0,Xc,,red,,bolts,,,,Xc,red,bolts,,1.0,0.0,NA,right,998.5,1.0,0.0,1.0,,,
77,0,,html-keyboard-response,77,169318,0.0-4.11-0.11,0wd2blh3vnh,2022-09-19 16:25:47.137,59c6305e6a287600011c388d,2,41,33,26,21,29,M,,,"<img src=""static/images/cards/stack_of_black_bolts.svg"" width=""175px"" height=""250px""></img>",,,,,,,,,,,,,,,,,,,,,,,,,,,,
78,0,,html-keyboard-response,78,170619,0.0-4.11-1.11,0wd2blh3vnh,2022-09-19 16:25:47.137,59c6305e6a287600011c388d,2,41,33,26,21,29,M,799.7000002861,,"
  <table>
  <tr height=300>
    <td width=300 height=300><img src=""static/images/cards/back_of_black_bolts.svg"" width=""175px"" height=""250px""></img></td>
    <td width=300 height=300><img src=""static/images/cards/back_of_black_bolts.svg"" width=""175px"" height=""250px""></img></td>
  </tr>
  <tr height=200>
    <td width=300></td>
    <td width=300><img src=""static/images/keys/m.svg"" width=""35%"" height=""75%""></img></td>
  </tr>
</table>
  ",77.0,1.0,,,,,,,,,,,,,,,,,,,,,,,,,,
79,0,,html-keyboard-response,79,172121,0.0-4.11-2.11,0wd2blh3vnh,2022-09-19 16:25:47.137,59c6305e6a287600011c388d,2,41,33,26,21,29,M,,,"
  <table>
  <tr height=300>
    <td width=300 height=300><img src=""static/images/cards/back_of_black_bolts.svg"" width=""175px"" height=""250px""></img></td>
    <td width=300 height=300><img src=""static/images/cards/4_of_black_bolts.svg"" width=""175px"" height=""250px""></img></td>
  </tr>
  <tr height=200>
    <td width=300></td>
    <td width=300><img src=""static/images/keys/m.svg"" width=""35%"" height=""75%""></img></td>
  </tr>
</table>
  ",,,,,,,,,,,,,,,,,,,,,,,,,,,,
80,0,,html-keyboard-response,80,173624,0.0-4.11-3.11,0wd2blh3vnh,2022-09-19 16:25:47.137,59c6305e6a287600011c388d,2,41,33,26,21,29,M,,,"<p style=""font-size:50px"">You win!
+10 points this round!</p>",,,,,,,,,,,,,,,,,,,,,,,,,,,,
81,0,,html-keyboard-response,81,174131,0.0-4.11-4.11,0wd2blh3vnh,2022-09-19 16:25:47.137,59c6305e6a287600011c388d,2,41,33,26,21,29,M,,,,,,1.0,learning,11.0,Xnc,,black,,bolts,,,,Xnc,black,bolts,,0.0,0.0,0,right,799.7000002861,4.0,0.0,1.0,,,
82,0,,html-keyboard-response,82,175632,0.0-4.12-0.12,0wd2blh3vnh,2022-09-19 16:25:47.137,59c6305e6a287600011c388d,2,41,33,26,21,29,M,,,"<img src=""static/images/cards/stack_of_black_stars.svg"" width=""175px"" height=""250px""></img>",,,,,,,,,,,,,,,,,,,,,,,,,,,,
83,0,,html-keyboard-response,83,176635,0.0-4.12-1.12,0wd2blh3vnh,2022-09-19 16:25:47.137,59c6305e6a287600011c388d,2,41,33,26,21,29,M,500.8000001907,,"
  <table>
  <tr height=300>
    <td width=300 height=300><img src=""static/images/cards/back_of_black_stars.svg"" width=""175px"" height=""250px""></img></td>
    <td width=300 height=300><img src=""static/images/cards/back_of_black_stars.svg"" width=""175px"" height=""250px""></img></td>
  </tr>
  <tr height=200>
    <td width=300><img src=""static/images/keys/z.svg"" width=""35%"" height=""75%""></img></td>
    <td width=300><img src=""static/images/keys/m.svg"" width=""35%"" height=""75%""></img></td>
  </tr>
</table>
  ",77.0,1.0,,,,,,,,,,,,,,,,,,,,,,,,,,
84,0,,html-keyboard-response,84,178136,0.0-4.12-2.12,0wd2blh3vnh,2022-09-19 16:25:47.137,59c6305e6a287600011c388d,2,41,33,26,21,29,M,,,"
  <table>
  <tr height=300>
    <td width=300 height=300><img src=""static/images/cards/back_of_black_stars.svg"" width=""175px"" height=""250px""></img></td>
    <td width=300 height=300><img src=""static/images/cards/1_of_black_stars.svg"" width=""175px"" height=""250px""></img></td>
  </tr>
  <tr height=200>
    <td width=300><img src=""static/images/keys/z.svg"" width=""35%"" height=""75%""></img></td>
    <td width=300><img src=""static/images/keys/m.svg"" width=""35%"" height=""75%""></img></td>
  </tr>
</table>
  ",,,,,,,,,,,,,,,,,,,,,,,,,,,,
85,0,,html-keyboard-response,85,179638,0.0-4.12-3.12,0wd2blh3vnh,2022-09-19 16:25:47.137,59c6305e6a287600011c388d,2,41,33,26,21,29,M,,,"<p style=""font-size:50px"">You Lose!
No points this round.</p>",,,,,,,,,,,,,,,,,,,,,,,,,,,,
86,0,,html-keyboard-response,86,180144,0.0-4.12-4.12,0wd2blh3vnh,2022-09-19 16:25:47.137,59c6305e6a287600011c388d,2,41,33,26,21,29,M,,,,,,1.0,learning,12.0,A,,black,,stars,,,,A,black,stars,,1.0,1.0,NA,right,500.8000001907,1.0,0.0,0.0,,,
87,0,,html-keyboard-response,87,181646,0.0-4.13-0.13,0wd2blh3vnh,2022-09-19 16:25:47.137,59c6305e6a287600011c388d,2,41,33,26,21,29,M,,,"<img src=""static/images/cards/stack_of_red_stars.svg"" width=""175px"" height=""250px""></img>",,,,,,,,,,,,,,,,,,,,,,,,,,,,
88,0,,html-keyboard-response,88,183064,0.0-4.13-1.13,0wd2blh3vnh,2022-09-19 16:25:47.137,59c6305e6a287600011c388d,2,41,33,26,21,29,M,917.0999999046,,"
  <table>
  <tr height=300>
    <td width=300 height=300><img src=""static/images/cards/back_of_red_stars.svg"" width=""175px"" height=""250px""></img></td>
    <td width=300 height=300><img src=""static/images/cards/back_of_red_stars.svg"" width=""175px"" height=""250px""></img></td>
  </tr>
  <tr height=200>
    <td width=300><img src=""static/images/keys/z.svg"" width=""35%"" height=""75%""></img></td>
    <td width=300></td>
  </tr>
</table>
  ",90.0,1.0,,,,,,,,,,,,,,,,,,,,,,,,,,
89,0,,html-keyboard-response,89,184565,0.0-4.13-2.13,0wd2blh3vnh,2022-09-19 16:25:47.137,59c6305e6a287600011c388d,2,41,33,26,21,29,M,,,"
  <table>
  <tr height=300>
    <td width=300 height=300><img src=""static/images/cards/9_of_red_stars.svg"" width=""175px"" height=""250px""></img></td>
    <td width=300 height=300><img src=""static/images/cards/back_of_red_stars.svg"" width=""175px"" height=""250px""></img></td>
  </tr>
  <tr height=200>
    <td width=300><img src=""static/images/keys/z.svg"" width=""35%"" height=""75%""></img></td>
    <td width=300></td>
  </tr>
</table>
  ",,,,,,,,,,,,,,,,,,,,,,,,,,,,
90,0,,html-keyboard-response,90,186068,0.0-4.13-3.13,0wd2blh3vnh,2022-09-19 16:25:47.137,59c6305e6a287600011c388d,2,41,33,26,21,29,M,,,"<p style=""font-size:50px"">You win!
+10 points this round!</p>",,,,,,,,,,,,,,,,,,,,,,,,,,,,
91,0,,html-keyboard-response,91,186574,0.0-4.13-4.13,0wd2blh3vnh,2022-09-19 16:25:47.137,59c6305e6a287600011c388d,2,41,33,26,21,29,M,,,,,,1.0,learning,13.0,B,,red,,stars,,,,B,red,stars,,0.0,1.0,1,left,917.0999999046,9.0,1.0,1.0,,,
92,0,,html-keyboard-response,92,188075,0.0-4.14-0.14,0wd2blh3vnh,2022-09-19 16:25:47.137,59c6305e6a287600011c388d,2,41,33,26,21,29,M,,,"<img src=""static/images/cards/stack_of_black_moons.svg"" width=""175px"" height=""250px""></img>",,,,,,,,,,,,,,,,,,,,,,,,,,,,
93,0,,html-keyboard-response,93,189503,0.0-4.14-1.14,0wd2blh3vnh,2022-09-19 16:25:47.137,59c6305e6a287600011c388d,2,41,33,26,21,29,M,925.6999998093,,"
  <table>
  <tr height=300>
    <td width=300 height=300><img src=""static/images/cards/back_of_black_moons.svg"" width=""175px"" height=""250px""></img></td>
    <td width=300 height=300><img src=""static/images/cards/back_of_black_moons.svg"" width=""175px"" height=""250px""></img></td>
  </tr>
  <tr height=200>
    <td width=300><img src=""static/images/keys/z.svg"" width=""35%"" height=""75%""></img></td>
    <td width=300><img src=""static/images/keys/m.svg"" width=""35%"" height=""75%""></img></td>
  </tr>
</table>
  ",77.0,1.0,,,,,,,,,,,,,,,,,,,,,,,,,,
94,0,,html-keyboard-response,94,191006,0.0-4.14-2.14,0wd2blh3vnh,2022-09-19 16:25:47.137,59c6305e6a287600011c388d,2,41,33,26,21,29,M,,,"
  <table>
  <tr height=300>
    <td width=300 height=300><img src=""static/images/cards/back_of_black_moons.svg"" width=""175px"" height=""250px""></img></td>
    <td width=300 height=300><img src=""static/images/cards/9_of_black_moons.svg"" width=""175px"" height=""250px""></img></td>
  </tr>
  <tr height=200>
    <td width=300><img src=""static/images/keys/z.svg"" width=""35%"" height=""75%""></img></td>
    <td width=300><img src=""static/images/keys/m.svg"" width=""35%"" height=""75%""></img></td>
  </tr>
</table>
  ",,,,,,,,,,,,,,,,,,,,,,,,,,,,
95,0,,html-keyboard-response,95,192507,0.0-4.14-3.14,0wd2blh3vnh,2022-09-19 16:25:47.137,59c6305e6a287600011c388d,2,41,33,26,21,29,M,,,"<p style=""font-size:50px"">You Lose!
No points this round.</p>",,,,,,,,,,,,,,,,,,,,,,,,,,,,
96,0,,html-keyboard-response,96,193014,0.0-4.14-4.14,0wd2blh3vnh,2022-09-19 16:25:47.137,59c6305e6a287600011c388d,2,41,33,26,21,29,M,,,,,,1.0,learning,14.0,C,,black,,moons,,,,C,black,moons,,1.0,0.0,NA,right,925.6999998093,9.0,1.0,0.0,,,
97,0,,html-keyboard-response,97,194516,0.0-4.15-0.15,0wd2blh3vnh,2022-09-19 16:25:47.137,59c6305e6a287600011c388d,2,41,33,26,21,29,M,,,"<img src=""static/images/cards/stack_of_red_moons.svg"" width=""175px"" height=""250px""></img>",,,,,,,,,,,,,,,,,,,,,,,,,,,,
98,0,,html-keyboard-response,98,195379,0.0-4.15-1.15,0wd2blh3vnh,2022-09-19 16:25:47.137,59c6305e6a287600011c388d,2,41,33,26,21,29,M,361.3000001907,,"
  <table>
  <tr height=300>
    <td width=300 height=300><img src=""static/images/cards/back_of_red_moons.svg"" width=""175px"" height=""250px""></img></td>
    <td width=300 height=300><img src=""static/images/cards/back_of_red_moons.svg"" width=""175px"" height=""250px""></img></td>
  </tr>
  <tr height=200>
    <td width=300></td>
    <td width=300><img src=""static/images/keys/m.svg"" width=""35%"" height=""75%""></img></td>
  </tr>
</table>
  ",77.0,1.0,,,,,,,,,,,,,,,,,,,,,,,,,,
99,0,,html-keyboard-response,99,196881,0.0-4.15-2.15,0wd2blh3vnh,2022-09-19 16:25:47.137,59c6305e6a287600011c388d,2,41,33,26,21,29,M,,,"
  <table>
  <tr height=300>
    <td width=300 height=300><img src=""static/images/cards/back_of_red_moons.svg"" width=""175px"" height=""250px""></img></td>
    <td width=300 height=300><img src=""static/images/cards/4_of_red_moons.svg"" width=""175px"" height=""250px""></img></td>
  </tr>
  <tr height=200>
    <td width=300></td>
    <td width=300><img src=""static/images/keys/m.svg"" width=""35%"" height=""75%""></img></td>
  </tr>
</table>
  ",,,,,,,,,,,,,,,,,,,,,,,,,,,,
100,0,,html-keyboard-response,100,198384,0.0-4.15-3.15,0wd2blh3vnh,2022-09-19 16:25:47.137,59c6305e6a287600011c388d,2,41,33,26,21,29,M,,,"<p style=""font-size:50px"">You Lose!
No points this round.</p>",,,,,,,,,,,,,,,,,,,,,,,,,,,,
101,0,,html-keyboard-response,101,198892,0.0-4.15-4.15,0wd2blh3vnh,2022-09-19 16:25:47.137,59c6305e6a287600011c388d,2,41,33,26,21,29,M,,,,,,1.0,learning,15.0,D,,red,,moons,,,,D,red,moons,,0.0,0.0,0,right,361.3000001907,4.0,0.0,0.0,,,
102,0,,html-keyboard-response,102,200393,0.0-4.16-0.16,0wd2blh3vnh,2022-09-19 16:25:47.137,59c6305e6a287600011c388d,2,41,33,26,21,29,M,,,"<img src=""static/images/cards/stack_of_red_bolts.svg"" width=""175px"" height=""250px""></img>",,,,,,,,,,,,,,,,,,,,,,,,,,,,
103,0,,html-keyboard-response,103,201805,0.0-4.16-1.16,0wd2blh3vnh,2022-09-19 16:25:47.137,59c6305e6a287600011c388d,2,41,33,26,21,29,M,909.0999999046,,"
  <table>
  <tr height=300>
    <td width=300 height=300><img src=""static/images/cards/back_of_red_bolts.svg"" width=""175px"" height=""250px""></img></td>
    <td width=300 height=300><img src=""static/images/cards/back_of_red_bolts.svg"" width=""175px"" height=""250px""></img></td>
  </tr>
  <tr height=200>
    <td width=300><img src=""static/images/keys/z.svg"" width=""35%"" height=""75%""></img></td>
    <td width=300><img src=""static/images/keys/m.svg"" width=""35%"" height=""75%""></img></td>
  </tr>
</table>
  ",90.0,1.0,,,,,,,,,,,,,,,,,,,,,,,,,,
104,0,,html-keyboard-response,104,203307,0.0-4.16-2.16,0wd2blh3vnh,2022-09-19 16:25:47.137,59c6305e6a287600011c388d,2,41,33,26,21,29,M,,,"
  <table>
  <tr height=300>
    <td width=300 height=300><img src=""static/images/cards/8_of_red_bolts.svg"" width=""175px"" height=""250px""></img></td>
    <td width=300 height=300><img src=""static/images/cards/back_of_red_bolts.svg"" width=""175px"" height=""250px""></img></td>
  </tr>
  <tr height=200>
    <td width=300><img src=""static/images/keys/z.svg"" width=""35%"" height=""75%""></img></td>
    <td width=300><img src=""static/images/keys/m.svg"" width=""35%"" height=""75%""></img></td>
  </tr>
</table>
  ",,,,,,,,,,,,,,,,,,,,,,,,,,,,
105,0,,html-keyboard-response,105,204810,0.0-4.16-3.16,0wd2blh3vnh,2022-09-19 16:25:47.137,59c6305e6a287600011c388d,2,41,33,26,21,29,M,,,"<p style=""font-size:50px"">You win!
+10 points this round!</p>",,,,,,,,,,,,,,,,,,,,,,,,,,,,
106,0,,html-keyboard-response,106,205317,0.0-4.16-4.16,0wd2blh3vnh,2022-09-19 16:25:47.137,59c6305e6a287600011c388d,2,41,33,26,21,29,M,,,,,,1.0,learning,16.0,Xc,,red,,bolts,,,,Xc,red,bolts,,1.0,0.0,NA,left,909.0999999046,8.0,1.0,1.0,,,
107,0,,html-keyboard-response,107,206819,0.0-4.17-0.17,0wd2blh3vnh,2022-09-19 16:25:47.137,59c6305e6a287600011c388d,2,41,33,26,21,29,M,,,"<img src=""static/images/cards/stack_of_black_bolts.svg"" width=""175px"" height=""250px""></img>",,,,,,,,,,,,,,,,,,,,,,,,,,,,
108,0,,html-keyboard-response,108,207944,0.0-4.17-1.17,0wd2blh3vnh,2022-09-19 16:25:47.137,59c6305e6a287600011c388d,2,41,33,26,21,29,M,623.8000001907,,"
  <table>
  <tr height=300>
    <td width=300 height=300><img src=""static/images/cards/back_of_black_bolts.svg"" width=""175px"" height=""250px""></img></td>
    <td width=300 height=300><img src=""static/images/cards/back_of_black_bolts.svg"" width=""175px"" height=""250px""></img></td>
  </tr>
  <tr height=200>
    <td width=300><img src=""static/images/keys/z.svg"" width=""35%"" height=""75%""></img></td>
    <td width=300></td>
  </tr>
</table>
  ",90.0,1.0,,,,,,,,,,,,,,,,,,,,,,,,,,
109,0,,html-keyboard-response,109,209446,0.0-4.17-2.17,0wd2blh3vnh,2022-09-19 16:25:47.137,59c6305e6a287600011c388d,2,41,33,26,21,29,M,,,"
  <table>
  <tr height=300>
    <td width=300 height=300><img src=""static/images/cards/9_of_black_bolts.svg"" width=""175px"" height=""250px""></img></td>
    <td width=300 height=300><img src=""static/images/cards/back_of_black_bolts.svg"" width=""175px"" height=""250px""></img></td>
  </tr>
  <tr height=200>
    <td width=300><img src=""static/images/keys/z.svg"" width=""35%"" height=""75%""></img></td>
    <td width=300></td>
  </tr>
</table>
  ",,,,,,,,,,,,,,,,,,,,,,,,,,,,
110,0,,html-keyboard-response,110,210948,0.0-4.17-3.17,0wd2blh3vnh,2022-09-19 16:25:47.137,59c6305e6a287600011c388d,2,41,33,26,21,29,M,,,"<p style=""font-size:50px"">You win!
+10 points this round!</p>",,,,,,,,,,,,,,,,,,,,,,,,,,,,
111,0,,html-keyboard-response,111,211454,0.0-4.17-4.17,0wd2blh3vnh,2022-09-19 16:25:47.137,59c6305e6a287600011c388d,2,41,33,26,21,29,M,,,,,,1.0,learning,17.0,Xnc,,black,,bolts,,,,Xnc,black,bolts,,0.0,0.0,1,left,623.8000001907,9.0,1.0,1.0,,,
112,0,,html-keyboard-response,112,212956,0.0-4.18-0.18,0wd2blh3vnh,2022-09-19 16:25:47.137,59c6305e6a287600011c388d,2,41,33,26,21,29,M,,,"<img src=""static/images/cards/stack_of_black_stars.svg"" width=""175px"" height=""250px""></img>",,,,,,,,,,,,,,,,,,,,,,,,,,,,
113,0,,html-keyboard-response,113,214101,0.0-4.18-1.18,0wd2blh3vnh,2022-09-19 16:25:47.137,59c6305e6a287600011c388d,2,41,33,26,21,29,M,643.1999998093,,"
  <table>
  <tr height=300>
    <td width=300 height=300><img src=""static/images/cards/back_of_black_stars.svg"" width=""175px"" height=""250px""></img></td>
    <td width=300 height=300><img src=""static/images/cards/back_of_black_stars.svg"" width=""175px"" height=""250px""></img></td>
  </tr>
  <tr height=200>
    <td width=300><img src=""static/images/keys/z.svg"" width=""35%"" height=""75%""></img></td>
    <td width=300><img src=""static/images/keys/m.svg"" width=""35%"" height=""75%""></img></td>
  </tr>
</table>
  ",77.0,1.0,,,,,,,,,,,,,,,,,,,,,,,,,,
114,0,,html-keyboard-response,114,215603,0.0-4.18-2.18,0wd2blh3vnh,2022-09-19 16:25:47.137,59c6305e6a287600011c388d,2,41,33,26,21,29,M,,,"
  <table>
  <tr height=300>
    <td width=300 height=300><img src=""static/images/cards/back_of_black_stars.svg"" width=""175px"" height=""250px""></img></td>
    <td width=300 height=300><img src=""static/images/cards/3_of_black_stars.svg"" width=""175px"" height=""250px""></img></td>
  </tr>
  <tr height=200>
    <td width=300><img src=""static/images/keys/z.svg"" width=""35%"" height=""75%""></img></td>
    <td width=300><img src=""static/images/keys/m.svg"" width=""35%"" height=""75%""></img></td>
  </tr>
</table>
  ",,,,,,,,,,,,,,,,,,,,,,,,,,,,
115,0,,html-keyboard-response,115,217105,0.0-4.18-3.18,0wd2blh3vnh,2022-09-19 16:25:47.137,59c6305e6a287600011c388d,2,41,33,26,21,29,M,,,"<p style=""font-size:50px"">You Lose!
No points this round.</p>",,,,,,,,,,,,,,,,,,,,,,,,,,,,
116,0,,html-keyboard-response,116,217611,0.0-4.18-4.18,0wd2blh3vnh,2022-09-19 16:25:47.137,59c6305e6a287600011c388d,2,41,33,26,21,29,M,,,,,,1.0,learning,18.0,A,,black,,stars,,,,A,black,stars,,1.0,1.0,NA,right,643.1999998093,3.0,0.0,0.0,,,
117,0,,html-keyboard-response,117,219113,0.0-4.19-0.19,0wd2blh3vnh,2022-09-19 16:25:47.137,59c6305e6a287600011c388d,2,41,33,26,21,29,M,,,"<img src=""static/images/cards/stack_of_red_stars.svg"" width=""175px"" height=""250px""></img>",,,,,,,,,,,,,,,,,,,,,,,,,,,,
118,0,,html-keyboard-response,118,220886,0.0-4.19-1.19,0wd2blh3vnh,2022-09-19 16:25:47.137,59c6305e6a287600011c388d,2,41,33,26,21,29,M,1271.1999998093,,"
  <table>
  <tr height=300>
    <td width=300 height=300><img src=""static/images/cards/back_of_red_stars.svg"" width=""175px"" height=""250px""></img></td>
    <td width=300 height=300><img src=""static/images/cards/back_of_red_stars.svg"" width=""175px"" height=""250px""></img></td>
  </tr>
  <tr height=200>
    <td width=300><img src=""static/images/keys/z.svg"" width=""35%"" height=""75%""></img></td>
    <td width=300></td>
  </tr>
</table>
  ",90.0,1.0,,,,,,,,,,,,,,,,,,,,,,,,,,
119,0,,html-keyboard-response,119,222388,0.0-4.19-2.19,0wd2blh3vnh,2022-09-19 16:25:47.137,59c6305e6a287600011c388d,2,41,33,26,21,29,M,,,"
  <table>
  <tr height=300>
    <td width=300 height=300><img src=""static/images/cards/3_of_red_stars.svg"" width=""175px"" height=""250px""></img></td>
    <td width=300 height=300><img src=""static/images/cards/back_of_red_stars.svg"" width=""175px"" height=""250px""></img></td>
  </tr>
  <tr height=200>
    <td width=300><img src=""static/images/keys/z.svg"" width=""35%"" height=""75%""></img></td>
    <td width=300></td>
  </tr>
</table>
  ",,,,,,,,,,,,,,,,,,,,,,,,,,,,
120,0,,html-keyboard-response,120,223890,0.0-4.19-3.19,0wd2blh3vnh,2022-09-19 16:25:47.137,59c6305e6a287600011c388d,2,41,33,26,21,29,M,,,"<p style=""font-size:50px"">You Lose!
No points this round.</p>",,,,,,,,,,,,,,,,,,,,,,,,,,,,
121,0,,html-keyboard-response,121,224396,0.0-4.19-4.19,0wd2blh3vnh,2022-09-19 16:25:47.137,59c6305e6a287600011c388d,2,41,33,26,21,29,M,,,,,,1.0,learning,19.0,B,,red,,stars,,,,B,red,stars,,0.0,1.0,1,left,1271.1999998093,3.0,0.0,0.0,,,
122,0,,html-keyboard-response,122,225898,0.0-4.20-0.20,0wd2blh3vnh,2022-09-19 16:25:47.137,59c6305e6a287600011c388d,2,41,33,26,21,29,M,,,"<img src=""static/images/cards/stack_of_black_moons.svg"" width=""175px"" height=""250px""></img>",,,,,,,,,,,,,,,,,,,,,,,,,,,,
123,0,,html-keyboard-response,123,226958,0.0-4.20-1.20,0wd2blh3vnh,2022-09-19 16:25:47.137,59c6305e6a287600011c388d,2,41,33,26,21,29,M,557.6000003815,,"
  <table>
  <tr height=300>
    <td width=300 height=300><img src=""static/images/cards/back_of_black_moons.svg"" width=""175px"" height=""250px""></img></td>
    <td width=300 height=300><img src=""static/images/cards/back_of_black_moons.svg"" width=""175px"" height=""250px""></img></td>
  </tr>
  <tr height=200>
    <td width=300><img src=""static/images/keys/z.svg"" width=""35%"" height=""75%""></img></td>
    <td width=300><img src=""static/images/keys/m.svg"" width=""35%"" height=""75%""></img></td>
  </tr>
</table>
  ",77.0,1.0,,,,,,,,,,,,,,,,,,,,,,,,,,
124,0,,html-keyboard-response,124,228460,0.0-4.20-2.20,0wd2blh3vnh,2022-09-19 16:25:47.137,59c6305e6a287600011c388d,2,41,33,26,21,29,M,,,"
  <table>
  <tr height=300>
    <td width=300 height=300><img src=""static/images/cards/back_of_black_moons.svg"" width=""175px"" height=""250px""></img></td>
    <td width=300 height=300><img src=""static/images/cards/3_of_black_moons.svg"" width=""175px"" height=""250px""></img></td>
  </tr>
  <tr height=200>
    <td width=300><img src=""static/images/keys/z.svg"" width=""35%"" height=""75%""></img></td>
    <td width=300><img src=""static/images/keys/m.svg"" width=""35%"" height=""75%""></img></td>
  </tr>
</table>
  ",,,,,,,,,,,,,,,,,,,,,,,,,,,,
125,0,,html-keyboard-response,125,229962,0.0-4.20-3.20,0wd2blh3vnh,2022-09-19 16:25:47.137,59c6305e6a287600011c388d,2,41,33,26,21,29,M,,,"<p style=""font-size:50px"">You Lose!
No points this round.</p>",,,,,,,,,,,,,,,,,,,,,,,,,,,,
126,0,,html-keyboard-response,126,230467,0.0-4.20-4.20,0wd2blh3vnh,2022-09-19 16:25:47.137,59c6305e6a287600011c388d,2,41,33,26,21,29,M,,,,,,1.0,learning,20.0,C,,black,,moons,,,,C,black,moons,,1.0,0.0,NA,right,557.6000003815,3.0,0.0,0.0,,,
127,0,,html-keyboard-response,127,231968,0.0-4.21-0.21,0wd2blh3vnh,2022-09-19 16:25:47.137,59c6305e6a287600011c388d,2,41,33,26,21,29,M,,,"<img src=""static/images/cards/stack_of_red_moons.svg"" width=""175px"" height=""250px""></img>",,,,,,,,,,,,,,,,,,,,,,,,,,,,
128,0,,html-keyboard-response,128,233008,0.0-4.21-1.21,0wd2blh3vnh,2022-09-19 16:25:47.137,59c6305e6a287600011c388d,2,41,33,26,21,29,M,538.0,,"
  <table>
  <tr height=300>
    <td width=300 height=300><img src=""static/images/cards/back_of_red_moons.svg"" width=""175px"" height=""250px""></img></td>
    <td width=300 height=300><img src=""static/images/cards/back_of_red_moons.svg"" width=""175px"" height=""250px""></img></td>
  </tr>
  <tr height=200>
    <td width=300><img src=""static/images/keys/z.svg"" width=""35%"" height=""75%""></img></td>
    <td width=300></td>
  </tr>
</table>
  ",90.0,1.0,,,,,,,,,,,,,,,,,,,,,,,,,,
129,0,,html-keyboard-response,129,234509,0.0-4.21-2.21,0wd2blh3vnh,2022-09-19 16:25:47.137,59c6305e6a287600011c388d,2,41,33,26,21,29,M,,,"
  <table>
  <tr height=300>
    <td width=300 height=300><img src=""static/images/cards/9_of_red_moons.svg"" width=""175px"" height=""250px""></img></td>
    <td width=300 height=300><img src=""static/images/cards/back_of_red_moons.svg"" width=""175px"" height=""250px""></img></td>
  </tr>
  <tr height=200>
    <td width=300><img src=""static/images/keys/z.svg"" width=""35%"" height=""75%""></img></td>
    <td width=300></td>
  </tr>
</table>
  ",,,,,,,,,,,,,,,,,,,,,,,,,,,,
130,0,,html-keyboard-response,130,236012,0.0-4.21-3.21,0wd2blh3vnh,2022-09-19 16:25:47.137,59c6305e6a287600011c388d,2,41,33,26,21,29,M,,,"<p style=""font-size:50px"">You Lose!
No points this round.</p>",,,,,,,,,,,,,,,,,,,,,,,,,,,,
131,0,,html-keyboard-response,131,236518,0.0-4.21-4.21,0wd2blh3vnh,2022-09-19 16:25:47.137,59c6305e6a287600011c388d,2,41,33,26,21,29,M,,,,,,1.0,learning,21.0,D,,red,,moons,,,,D,red,moons,,0.0,0.0,1,left,538.0,9.0,1.0,0.0,,,
132,0,,html-keyboard-response,132,238019,0.0-4.22-0.22,0wd2blh3vnh,2022-09-19 16:25:47.137,59c6305e6a287600011c388d,2,41,33,26,21,29,M,,,"<img src=""static/images/cards/stack_of_red_bolts.svg"" width=""175px"" height=""250px""></img>",,,,,,,,,,,,,,,,,,,,,,,,,,,,
133,0,,html-keyboard-response,133,239041,0.0-4.22-1.22,0wd2blh3vnh,2022-09-19 16:25:47.137,59c6305e6a287600011c388d,2,41,33,26,21,29,M,520.3000001907,,"
  <table>
  <tr height=300>
    <td width=300 height=300><img src=""static/images/cards/back_of_red_bolts.svg"" width=""175px"" height=""250px""></img></td>
    <td width=300 height=300><img src=""static/images/cards/back_of_red_bolts.svg"" width=""175px"" height=""250px""></img></td>
  </tr>
  <tr height=200>
    <td width=300><img src=""static/images/keys/z.svg"" width=""35%"" height=""75%""></img></td>
    <td width=300><img src=""static/images/keys/m.svg"" width=""35%"" height=""75%""></img></td>
  </tr>
</table>
  ",77.0,1.0,,,,,,,,,,,,,,,,,,,,,,,,,,
134,0,,html-keyboard-response,134,240543,0.0-4.22-2.22,0wd2blh3vnh,2022-09-19 16:25:47.137,59c6305e6a287600011c388d,2,41,33,26,21,29,M,,,"
  <table>
  <tr height=300>
    <td width=300 height=300><img src=""static/images/cards/back_of_red_bolts.svg"" width=""175px"" height=""250px""></img></td>
    <td width=300 height=300><img src=""static/images/cards/4_of_red_bolts.svg"" width=""175px"" height=""250px""></img></td>
  </tr>
  <tr height=200>
    <td width=300><img src=""static/images/keys/z.svg"" width=""35%"" height=""75%""></img></td>
    <td width=300><img src=""static/images/keys/m.svg"" width=""35%"" height=""75%""></img></td>
  </tr>
</table>
  ",,,,,,,,,,,,,,,,,,,,,,,,,,,,
135,0,,html-keyboard-response,135,242045,0.0-4.22-3.22,0wd2blh3vnh,2022-09-19 16:25:47.137,59c6305e6a287600011c388d,2,41,33,26,21,29,M,,,"<p style=""font-size:50px"">You win!
+10 points this round!</p>",,,,,,,,,,,,,,,,,,,,,,,,,,,,
136,0,,html-keyboard-response,136,242552,0.0-4.22-4.22,0wd2blh3vnh,2022-09-19 16:25:47.137,59c6305e6a287600011c388d,2,41,33,26,21,29,M,,,,,,1.0,learning,22.0,Xc,,red,,bolts,,,,Xc,red,bolts,,1.0,0.0,NA,right,520.3000001907,4.0,0.0,1.0,,,
137,0,,html-keyboard-response,137,244052,0.0-4.23-0.23,0wd2blh3vnh,2022-09-19 16:25:47.137,59c6305e6a287600011c388d,2,41,33,26,21,29,M,,,"<img src=""static/images/cards/stack_of_black_bolts.svg"" width=""175px"" height=""250px""></img>",,,,,,,,,,,,,,,,,,,,,,,,,,,,
138,0,,html-keyboard-response,138,245126,0.0-4.23-1.23,0wd2blh3vnh,2022-09-19 16:25:47.137,59c6305e6a287600011c388d,2,41,33,26,21,29,M,571.9000000954,,"
  <table>
  <tr height=300>
    <td width=300 height=300><img src=""static/images/cards/back_of_black_bolts.svg"" width=""175px"" height=""250px""></img></td>
    <td width=300 height=300><img src=""static/images/cards/back_of_black_bolts.svg"" width=""175px"" height=""250px""></img></td>
  </tr>
  <tr height=200>
    <td width=300><img src=""static/images/keys/z.svg"" width=""35%"" height=""75%""></img></td>
    <td width=300></td>
  </tr>
</table>
  ",90.0,1.0,,,,,,,,,,,,,,,,,,,,,,,,,,
139,0,,html-keyboard-response,139,246628,0.0-4.23-2.23,0wd2blh3vnh,2022-09-19 16:25:47.137,59c6305e6a287600011c388d,2,41,33,26,21,29,M,,,"
  <table>
  <tr height=300>
    <td width=300 height=300><img src=""static/images/cards/3_of_black_bolts.svg"" width=""175px"" height=""250px""></img></td>
    <td width=300 height=300><img src=""static/images/cards/back_of_black_bolts.svg"" width=""175px"" height=""250px""></img></td>
  </tr>
  <tr height=200>
    <td width=300><img src=""static/images/keys/z.svg"" width=""35%"" height=""75%""></img></td>
    <td width=300></td>
  </tr>
</table>
  ",,,,,,,,,,,,,,,,,,,,,,,,,,,,
140,0,,html-keyboard-response,140,248130,0.0-4.23-3.23,0wd2blh3vnh,2022-09-19 16:25:47.137,59c6305e6a287600011c388d,2,41,33,26,21,29,M,,,"<p style=""font-size:50px"">You win!
+10 points this round!</p>",,,,,,,,,,,,,,,,,,,,,,,,,,,,
141,0,,html-keyboard-response,141,248637,0.0-4.23-4.23,0wd2blh3vnh,2022-09-19 16:25:47.137,59c6305e6a287600011c388d,2,41,33,26,21,29,M,,,,,,1.0,learning,23.0,Xnc,,black,,bolts,,,,Xnc,black,bolts,,0.0,0.0,1,left,571.9000000954,3.0,0.0,1.0,,,
142,0,,call-function,142,248640,0.0-5.0,0wd2blh3vnh,2022-09-19 16:25:47.137,59c6305e6a287600011c388d,2,41,33,26,21,29,M,,,,,,,,,,,,,,,,,,,,,,,,,,,,,,,
143,0,,image-keyboard-response,143,250993,0.0-6.0-0.0,0wd2blh3vnh,2022-09-19 16:25:47.137,59c6305e6a287600011c388d,2,41,33,26,21,29,M,2352.6999998093,,static/images/instructions_CB_2/Slide20.png,39.0,,,,,,,,,,,,,,,,,,,,,,,,,,,
144,0,,image-keyboard-response,144,254966,0.0-6.1-0.1,0wd2blh3vnh,2022-09-19 16:25:47.137,59c6305e6a287600011c388d,2,41,33,26,21,29,M,3972.3999996185,,static/images/instructions_CB_2/Slide21.png,39.0,,,,,,,,,,,,,,,,,,,,,,,,,,,
145,0,,image-keyboard-response,145,257345,0.0-6.2-0.2,0wd2blh3vnh,2022-09-19 16:25:47.137,59c6305e6a287600011c388d,2,41,33,26,21,29,M,2378.2999997139,,static/images/instructions_CB_2/Slide22.png,39.0,,,,,,,,,,,,,,,,,,,,,,,,,,,
146,0,,image-keyboard-response,146,258840,0.0-6.3-0.3,0wd2blh3vnh,2022-09-19 16:25:47.137,59c6305e6a287600011c388d,2,41,33,26,21,29,M,1494.4000000954,,static/images/instructions_CB_2/Slide23.png,39.0,,,,,,,,,,,,,,,,,,,,,,,,,,,
147,0,,image-keyboard-response,147,259930,0.0-6.4-0.4,0wd2blh3vnh,2022-09-19 16:25:47.137,59c6305e6a287600011c388d,2,41,33,26,21,29,M,1089.7000002861,,static/images/instructions_CB_2/Slide24.png,39.0,,,,,,,,,,,,,,,,,,,,,,,,,,,
148,0,,html-keyboard-response,148,261742,0.0-7.0-0.0,0wd2blh3vnh,2022-09-19 16:25:47.137,59c6305e6a287600011c388d,2,41,33,26,21,29,M,1810.8000001907,,"
  <table>
  <tr height=300>
    <td width=300 height=300><img src=""static/images/cards/stack_of_black_moons.svg"" width=""175px"" height=""250px""></img></td>
    <td width=300 height=300><img src=""static/images/cards/stack_of_red_moons.svg"" width=""175px"" height=""250px""></img></td>
  </tr>
  <tr height=200>
    <td width=300><img src=""static/images/keys/w.svg"" width=""35%"" height=""75%""></img></td>
    <td width=300><img src=""static/images/keys/o.svg"" width=""35%"" height=""75%""></img></td>
  </tr>
</table>
  ",87.0,1.0,,,,,,,,,,,,,,,,,,,,,,,,,,
149,0,,html-keyboard-response,149,263640,0.0-7.0-1.0,0wd2blh3vnh,2022-09-19 16:25:47.137,59c6305e6a287600011c388d,2,41,33,26,21,29,M,1396.0,,"
  <table>
  <tr height=300>
    <td width=300 height=300><img src=""static/images/cards/back_of_black_moons.svg"" width=""175px"" height=""250px""></img></td>
    <td width=300 height=300><img src=""static/images/cards/back_of_black_moons.svg"" width=""175px"" height=""250px""></img></td>
  </tr>
  <tr height=200>
    <td width=300><img src=""static/images/keys/z.svg"" width=""35%"" height=""75%""></img></td>
    <td width=300><img src=""static/images/keys/m.svg"" width=""35%"" height=""75%""></img></td>
  </tr>
</table>
  ",90.0,1.0,,,,,,,,,,,,,,,,,,,,,,,,,,
150,0,,html-keyboard-response,150,265141,0.0-7.0-2.0,0wd2blh3vnh,2022-09-19 16:25:47.137,59c6305e6a287600011c388d,2,41,33,26,21,29,M,,,"
  <table>
  <tr height=300>
    <td width=300 height=300><img src=""static/images/cards/7_of_black_moons.svg"" width=""175px"" height=""250px""></img></td>
    <td width=300 height=300><img src=""static/images/cards/back_of_black_moons.svg"" width=""175px"" height=""250px""></img></td>
  </tr>
  <tr height=200>
    <td width=300><img src=""static/images/keys/z.svg"" width=""35%"" height=""75%""></img></td>
    <td width=300><img src=""static/images/keys/m.svg"" width=""35%"" height=""75%""></img></td>
  </tr>
</table>
  ",,,,,,,,,,,,,,,,,,,,,,,,,,,,
151,0,,html-keyboard-response,151,266643,0.0-7.0-3.0,0wd2blh3vnh,2022-09-19 16:25:47.137,59c6305e6a287600011c388d,2,41,33,26,21,29,M,,,"<p style=""font-size:50px"">You Lose!
No points this round.</p>",,,,,,,,,,,,,,,,,,,,,,,,,,,,
152,0,,html-keyboard-response,152,267149,0.0-7.0-4.0,0wd2blh3vnh,2022-09-19 16:25:47.137,59c6305e6a287600011c388d,2,41,33,26,21,29,M,,,,,,1.0,choice,0.0,C,D,black,red,moons,moons,C,D,C,black,moons,1810.8000001907,1.0,0.0,NA,left,1396.0,7.0,1.0,0.0,,,
153,0,,html-keyboard-response,153,268166,0.0-7.1-0.1,0wd2blh3vnh,2022-09-19 16:25:47.137,59c6305e6a287600011c388d,2,41,33,26,21,29,M,1016.2999997139,,"
  <table>
  <tr height=300>
    <td width=300 height=300><img src=""static/images/cards/stack_of_red_stars.svg"" width=""175px"" height=""250px""></img></td>
    <td width=300 height=300><img src=""static/images/cards/stack_of_black_moons.svg"" width=""175px"" height=""250px""></img></td>
  </tr>
  <tr height=200>
    <td width=300><img src=""static/images/keys/w.svg"" width=""35%"" height=""75%""></img></td>
    <td width=300><img src=""static/images/keys/o.svg"" width=""35%"" height=""75%""></img></td>
  </tr>
</table>
  ",87.0,1.0,,,,,,,,,,,,,,,,,,,,,,,,,,
154,0,,html-keyboard-response,154,269725,0.0-7.1-1.1,0wd2blh3vnh,2022-09-19 16:25:47.137,59c6305e6a287600011c388d,2,41,33,26,21,29,M,1058.0,,"
  <table>
  <tr height=300>
    <td width=300 height=300><img src=""static/images/cards/back_of_red_stars.svg"" width=""175px"" height=""250px""></img></td>
    <td width=300 height=300><img src=""static/images/cards/back_of_red_stars.svg"" width=""175px"" height=""250px""></img></td>
  </tr>
  <tr height=200>
    <td width=300></td>
    <td width=300><img src=""static/images/keys/m.svg"" width=""35%"" height=""75%""></img></td>
  </tr>
</table>
  ",77.0,1.0,,,,,,,,,,,,,,,,,,,,,,,,,,
155,0,,html-keyboard-response,155,271227,0.0-7.1-2.1,0wd2blh3vnh,2022-09-19 16:25:47.137,59c6305e6a287600011c388d,2,41,33,26,21,29,M,,,"
  <table>
  <tr height=300>
    <td width=300 height=300><img src=""static/images/cards/back_of_red_stars.svg"" width=""175px"" height=""250px""></img></td>
    <td width=300 height=300><img src=""static/images/cards/10_of_red_stars.svg"" width=""175px"" height=""250px""></img></td>
  </tr>
  <tr height=200>
    <td width=300></td>
    <td width=300><img src=""static/images/keys/m.svg"" width=""35%"" height=""75%""></img></td>
  </tr>
</table>
  ",,,,,,,,,,,,,,,,,,,,,,,,,,,,
156,0,,html-keyboard-response,156,272729,0.0-7.1-3.1,0wd2blh3vnh,2022-09-19 16:25:47.137,59c6305e6a287600011c388d,2,41,33,26,21,29,M,,,"<p style=""font-size:50px"">You win!
+10 points this round!</p>",,,,,,,,,,,,,,,,,,,,,,,,,,,,
157,0,,html-keyboard-response,157,273235,0.0-7.1-4.1,0wd2blh3vnh,2022-09-19 16:25:47.137,59c6305e6a287600011c388d,2,41,33,26,21,29,M,,,,,,1.0,choice,1.0,B,C,red,black,stars,moons,B,C,B,red,stars,1016.2999997139,0.0,1.0,0,right,1058.0,10.0,1.0,1.0,,,
158,0,,html-keyboard-response,158,274235,0.0-7.2-0.2,0wd2blh3vnh,2022-09-19 16:25:47.137,59c6305e6a287600011c388d,2,41,33,26,21,29,M,999.1999998093,,"
  <table>
  <tr height=300>
    <td width=300 height=300><img src=""static/images/cards/stack_of_black_moons.svg"" width=""175px"" height=""250px""></img></td>
    <td width=300 height=300><img src=""static/images/cards/stack_of_red_moons.svg"" width=""175px"" height=""250px""></img></td>
  </tr>
  <tr height=200>
    <td width=300><img src=""static/images/keys/w.svg"" width=""35%"" height=""75%""></img></td>
    <td width=300><img src=""static/images/keys/o.svg"" width=""35%"" height=""75%""></img></td>
  </tr>
</table>
  ",87.0,1.0,,,,,,,,,,,,,,,,,,,,,,,,,,
159,0,,html-keyboard-response,159,275956,0.0-7.2-1.2,0wd2blh3vnh,2022-09-19 16:25:47.137,59c6305e6a287600011c388d,2,41,33,26,21,29,M,1220.0,,"
  <table>
  <tr height=300>
    <td width=300 height=300><img src=""static/images/cards/back_of_black_moons.svg"" width=""175px"" height=""250px""></img></td>
    <td width=300 height=300><img src=""static/images/cards/back_of_black_moons.svg"" width=""175px"" height=""250px""></img></td>
  </tr>
  <tr height=200>
    <td width=300><img src=""static/images/keys/z.svg"" width=""35%"" height=""75%""></img></td>
    <td width=300><img src=""static/images/keys/m.svg"" width=""35%"" height=""75%""></img></td>
  </tr>
</table>
  ",90.0,2.0,,,,,,,,,,,,,,,,,,,,,,,,,,
160,0,,html-keyboard-response,160,277458,0.0-7.2-2.2,0wd2blh3vnh,2022-09-19 16:25:47.137,59c6305e6a287600011c388d,2,41,33,26,21,29,M,,,"
  <table>
  <tr height=300>
    <td width=300 height=300><img src=""static/images/cards/8_of_black_moons.svg"" width=""175px"" height=""250px""></img></td>
    <td width=300 height=300><img src=""static/images/cards/back_of_black_moons.svg"" width=""175px"" height=""250px""></img></td>
  </tr>
  <tr height=200>
    <td width=300><img src=""static/images/keys/z.svg"" width=""35%"" height=""75%""></img></td>
    <td width=300><img src=""static/images/keys/m.svg"" width=""35%"" height=""75%""></img></td>
  </tr>
</table>
  ",,,,,,,,,,,,,,,,,,,,,,,,,,,,
161,0,,html-keyboard-response,161,278960,0.0-7.2-3.2,0wd2blh3vnh,2022-09-19 16:25:47.137,59c6305e6a287600011c388d,2,41,33,26,21,29,M,,,"<p style=""font-size:50px"">You win!
+10 points this round!</p>",,,,,,,,,,,,,,,,,,,,,,,,,,,,
162,0,,html-keyboard-response,162,279465,0.0-7.2-4.2,0wd2blh3vnh,2022-09-19 16:25:47.137,59c6305e6a287600011c388d,2,41,33,26,21,29,M,,,,,,1.0,choice,2.0,C,D,black,red,moons,moons,C,D,C,black,moons,999.1999998093,1.0,0.0,NA,left,1220.0,8.0,1.0,1.0,,,
163,0,,html-keyboard-response,163,281545,0.0-7.3-0.3,0wd2blh3vnh,2022-09-19 16:25:47.137,59c6305e6a287600011c388d,2,41,33,26,21,29,M,2078.6999998093,,"
  <table>
  <tr height=300>
    <td width=300 height=300><img src=""static/images/cards/stack_of_red_bolts.svg"" width=""175px"" height=""250px""></img></td>
    <td width=300 height=300><img src=""static/images/cards/stack_of_red_stars.svg"" width=""175px"" height=""250px""></img></td>
  </tr>
  <tr height=200>
    <td width=300><img src=""static/images/keys/w.svg"" width=""35%"" height=""75%""></img></td>
    <td width=300><img src=""static/images/keys/o.svg"" width=""35%"" height=""75%""></img></td>
  </tr>
</table>
  ",79.0,1.0,,,,,,,,,,,,,,,,,,,,,,,,,,
164,0,,html-keyboard-response,164,282991,0.0-7.3-1.3,0wd2blh3vnh,2022-09-19 16:25:47.137,59c6305e6a287600011c388d,2,41,33,26,21,29,M,942.8000001907,,"
  <table>
  <tr height=300>
    <td width=300 height=300><img src=""static/images/cards/back_of_red_stars.svg"" width=""175px"" height=""250px""></img></td>
    <td width=300 height=300><img src=""static/images/cards/back_of_red_stars.svg"" width=""175px"" height=""250px""></img></td>
  </tr>
  <tr height=200>
    <td width=300><img src=""static/images/keys/z.svg"" width=""35%"" height=""75%""></img></td>
    <td width=300></td>
  </tr>
</table>
  ",90.0,1.0,,,,,,,,,,,,,,,,,,,,,,,,,,
165,0,,html-keyboard-response,165,284492,0.0-7.3-2.3,0wd2blh3vnh,2022-09-19 16:25:47.137,59c6305e6a287600011c388d,2,41,33,26,21,29,M,,,"
  <table>
  <tr height=300>
    <td width=300 height=300><img src=""static/images/cards/2_of_red_stars.svg"" width=""175px"" height=""250px""></img></td>
    <td width=300 height=300><img src=""static/images/cards/back_of_red_stars.svg"" width=""175px"" height=""250px""></img></td>
  </tr>
  <tr height=200>
    <td width=300><img src=""static/images/keys/z.svg"" width=""35%"" height=""75%""></img></td>
    <td width=300></td>
  </tr>
</table>
  ",,,,,,,,,,,,,,,,,,,,,,,,,,,,
166,0,,html-keyboard-response,166,285993,0.0-7.3-3.3,0wd2blh3vnh,2022-09-19 16:25:47.137,59c6305e6a287600011c388d,2,41,33,26,21,29,M,,,"<p style=""font-size:50px"">You Lose!
No points this round.</p>",,,,,,,,,,,,,,,,,,,,,,,,,,,,
167,0,,html-keyboard-response,167,286499,0.0-7.3-4.3,0wd2blh3vnh,2022-09-19 16:25:47.137,59c6305e6a287600011c388d,2,41,33,26,21,29,M,,,,,,1.0,choice,3.0,B,Xc,red,red,bolts,stars,Xc,B,B,red,stars,2078.6999998093,0.0,1.0,1,left,942.8000001907,2.0,0.0,0.0,,,
168,0,,html-keyboard-response,168,287550,0.0-7.4-0.4,0wd2blh3vnh,2022-09-19 16:25:47.137,59c6305e6a287600011c388d,2,41,33,26,21,29,M,1050.3000001907,,"
  <table>
  <tr height=300>
    <td width=300 height=300><img src=""static/images/cards/stack_of_black_stars.svg"" width=""175px"" height=""250px""></img></td>
    <td width=300 height=300><img src=""static/images/cards/stack_of_red_moons.svg"" width=""175px"" height=""250px""></img></td>
  </tr>
  <tr height=200>
    <td width=300><img src=""static/images/keys/w.svg"" width=""35%"" height=""75%""></img></td>
    <td width=300><img src=""static/images/keys/o.svg"" width=""35%"" height=""75%""></img></td>
  </tr>
</table>
  ",87.0,1.0,,,,,,,,,,,,,,,,,,,,,,,,,,
169,0,,html-keyboard-response,169,289047,0.0-7.4-1.4,0wd2blh3vnh,2022-09-19 16:25:47.137,59c6305e6a287600011c388d,2,41,33,26,21,29,M,994.4000000954,,"
  <table>
  <tr height=300>
    <td width=300 height=300><img src=""static/images/cards/back_of_black_stars.svg"" width=""175px"" height=""250px""></img></td>
    <td width=300 height=300><img src=""static/images/cards/back_of_black_stars.svg"" width=""175px"" height=""250px""></img></td>
  </tr>
  <tr height=200>
    <td width=300><img src=""static/images/keys/z.svg"" width=""35%"" height=""75%""></img></td>
    <td width=300><img src=""static/images/keys/m.svg"" width=""35%"" height=""75%""></img></td>
  </tr>
</table>
  ",90.0,1.0,,,,,,,,,,,,,,,,,,,,,,,,,,
170,0,,html-keyboard-response,170,290548,0.0-7.4-2.4,0wd2blh3vnh,2022-09-19 16:25:47.137,59c6305e6a287600011c388d,2,41,33,26,21,29,M,,,"
  <table>
  <tr height=300>
    <td width=300 height=300><img src=""static/images/cards/8_of_black_stars.svg"" width=""175px"" height=""250px""></img></td>
    <td width=300 height=300><img src=""static/images/cards/back_of_black_stars.svg"" width=""175px"" height=""250px""></img></td>
  </tr>
  <tr height=200>
    <td width=300><img src=""static/images/keys/z.svg"" width=""35%"" height=""75%""></img></td>
    <td width=300><img src=""static/images/keys/m.svg"" width=""35%"" height=""75%""></img></td>
  </tr>
</table>
  ",,,,,,,,,,,,,,,,,,,,,,,,,,,,
171,0,,html-keyboard-response,171,292050,0.0-7.4-3.4,0wd2blh3vnh,2022-09-19 16:25:47.137,59c6305e6a287600011c388d,2,41,33,26,21,29,M,,,"<p style=""font-size:50px"">You win!
+10 points this round!</p>",,,,,,,,,,,,,,,,,,,,,,,,,,,,
172,0,,html-keyboard-response,172,292556,0.0-7.4-4.4,0wd2blh3vnh,2022-09-19 16:25:47.137,59c6305e6a287600011c388d,2,41,33,26,21,29,M,,,,,,1.0,choice,4.0,A,D,black,red,stars,moons,A,D,A,black,stars,1050.3000001907,1.0,1.0,NA,left,994.4000000954,8.0,1.0,1.0,,,
173,0,,html-keyboard-response,173,293795,0.0-7.5-0.5,0wd2blh3vnh,2022-09-19 16:25:47.137,59c6305e6a287600011c388d,2,41,33,26,21,29,M,1237.8999996185,,"
  <table>
  <tr height=300>
    <td width=300 height=300><img src=""static/images/cards/stack_of_black_stars.svg"" width=""175px"" height=""250px""></img></td>
    <td width=300 height=300><img src=""static/images/cards/stack_of_red_moons.svg"" width=""175px"" height=""250px""></img></td>
  </tr>
  <tr height=200>
    <td width=300><img src=""static/images/keys/w.svg"" width=""35%"" height=""75%""></img></td>
    <td width=300><img src=""static/images/keys/o.svg"" width=""35%"" height=""75%""></img></td>
  </tr>
</table>
  ",79.0,1.0,,,,,,,,,,,,,,,,,,,,,,,,,,
174,0,,html-keyboard-response,174,295136,0.0-7.5-1.5,0wd2blh3vnh,2022-09-19 16:25:47.137,59c6305e6a287600011c388d,2,41,33,26,21,29,M,839.2000002861,,"
  <table>
  <tr height=300>
    <td width=300 height=300><img src=""static/images/cards/back_of_red_moons.svg"" width=""175px"" height=""250px""></img></td>
    <td width=300 height=300><img src=""static/images/cards/back_of_red_moons.svg"" width=""175px"" height=""250px""></img></td>
  </tr>
  <tr height=200>
    <td width=300><img src=""static/images/keys/z.svg"" width=""35%"" height=""75%""></img></td>
    <td width=300></td>
  </tr>
</table>
  ",90.0,1.0,,,,,,,,,,,,,,,,,,,,,,,,,,
175,0,,html-keyboard-response,175,296638,0.0-7.5-2.5,0wd2blh3vnh,2022-09-19 16:25:47.137,59c6305e6a287600011c388d,2,41,33,26,21,29,M,,,"
  <table>
  <tr height=300>
    <td width=300 height=300><img src=""static/images/cards/8_of_red_moons.svg"" width=""175px"" height=""250px""></img></td>
    <td width=300 height=300><img src=""static/images/cards/back_of_red_moons.svg"" width=""175px"" height=""250px""></img></td>
  </tr>
  <tr height=200>
    <td width=300><img src=""static/images/keys/z.svg"" width=""35%"" height=""75%""></img></td>
    <td width=300></td>
  </tr>
</table>
  ",,,,,,,,,,,,,,,,,,,,,,,,,,,,
176,0,,html-keyboard-response,176,298140,0.0-7.5-3.5,0wd2blh3vnh,2022-09-19 16:25:47.137,59c6305e6a287600011c388d,2,41,33,26,21,29,M,,,"<p style=""font-size:50px"">You Lose!
No points this round.</p>",,,,,,,,,,,,,,,,,,,,,,,,,,,,
177,0,,html-keyboard-response,177,298647,0.0-7.5-4.5,0wd2blh3vnh,2022-09-19 16:25:47.137,59c6305e6a287600011c388d,2,41,33,26,21,29,M,,,,,,1.0,choice,5.0,A,D,black,red,stars,moons,A,D,D,red,moons,1237.8999996185,0.0,0.0,1,left,839.2000002861,8.0,1.0,0.0,,,
178,0,,html-keyboard-response,178,299542,0.0-7.6-0.6,0wd2blh3vnh,2022-09-19 16:25:47.137,59c6305e6a287600011c388d,2,41,33,26,21,29,M,894.5,,"
  <table>
  <tr height=300>
    <td width=300 height=300><img src=""static/images/cards/stack_of_red_moons.svg"" width=""175px"" height=""250px""></img></td>
    <td width=300 height=300><img src=""static/images/cards/stack_of_red_stars.svg"" width=""175px"" height=""250px""></img></td>
  </tr>
  <tr height=200>
    <td width=300><img src=""static/images/keys/w.svg"" width=""35%"" height=""75%""></img></td>
    <td width=300><img src=""static/images/keys/o.svg"" width=""35%"" height=""75%""></img></td>
  </tr>
</table>
  ",87.0,1.0,,,,,,,,,,,,,,,,,,,,,,,,,,
179,0,,html-keyboard-response,179,301134,0.0-7.6-1.6,0wd2blh3vnh,2022-09-19 16:25:47.137,59c6305e6a287600011c388d,2,41,33,26,21,29,M,1090.5999999046,,"
  <table>
  <tr height=300>
    <td width=300 height=300><img src=""static/images/cards/back_of_red_moons.svg"" width=""175px"" height=""250px""></img></td>
    <td width=300 height=300><img src=""static/images/cards/back_of_red_moons.svg"" width=""175px"" height=""250px""></img></td>
  </tr>
  <tr height=200>
    <td width=300></td>
    <td width=300><img src=""static/images/keys/m.svg"" width=""35%"" height=""75%""></img></td>
  </tr>
</table>
  ",77.0,2.0,,,,,,,,,,,,,,,,,,,,,,,,,,
180,0,,html-keyboard-response,180,302636,0.0-7.6-2.6,0wd2blh3vnh,2022-09-19 16:25:47.137,59c6305e6a287600011c388d,2,41,33,26,21,29,M,,,"
  <table>
  <tr height=300>
    <td width=300 height=300><img src=""static/images/cards/back_of_red_moons.svg"" width=""175px"" height=""250px""></img></td>
    <td width=300 height=300><img src=""static/images/cards/2_of_red_moons.svg"" width=""175px"" height=""250px""></img></td>
  </tr>
  <tr height=200>
    <td width=300></td>
    <td width=300><img src=""static/images/keys/m.svg"" width=""35%"" height=""75%""></img></td>
  </tr>
</table>
  ",,,,,,,,,,,,,,,,,,,,,,,,,,,,
181,0,,html-keyboard-response,181,304139,0.0-7.6-3.6,0wd2blh3vnh,2022-09-19 16:25:47.137,59c6305e6a287600011c388d,2,41,33,26,21,29,M,,,"<p style=""font-size:50px"">You Lose!
No points this round.</p>",,,,,,,,,,,,,,,,,,,,,,,,,,,,
182,0,,html-keyboard-response,182,304645,0.0-7.6-4.6,0wd2blh3vnh,2022-09-19 16:25:47.137,59c6305e6a287600011c388d,2,41,33,26,21,29,M,,,,,,1.0,choice,6.0,B,D,red,red,moons,stars,D,B,D,red,moons,894.5,0.0,0.0,0,right,1090.5999999046,2.0,0.0,0.0,,,
183,0,,html-keyboard-response,183,305587,0.0-7.7-0.7,0wd2blh3vnh,2022-09-19 16:25:47.137,59c6305e6a287600011c388d,2,41,33,26,21,29,M,940.5999999046,,"
  <table>
  <tr height=300>
    <td width=300 height=300><img src=""static/images/cards/stack_of_red_moons.svg"" width=""175px"" height=""250px""></img></td>
    <td width=300 height=300><img src=""static/images/cards/stack_of_red_stars.svg"" width=""175px"" height=""250px""></img></td>
  </tr>
  <tr height=200>
    <td width=300><img src=""static/images/keys/w.svg"" width=""35%"" height=""75%""></img></td>
    <td width=300><img src=""static/images/keys/o.svg"" width=""35%"" height=""75%""></img></td>
  </tr>
</table>
  ",87.0,1.0,,,,,,,,,,,,,,,,,,,,,,,,,,
184,0,,html-keyboard-response,184,306830,0.0-7.7-1.7,0wd2blh3vnh,2022-09-19 16:25:47.137,59c6305e6a287600011c388d,2,41,33,26,21,29,M,741.3000001907,,"
  <table>
  <tr height=300>
    <td width=300 height=300><img src=""static/images/cards/back_of_red_moons.svg"" width=""175px"" height=""250px""></img></td>
    <td width=300 height=300><img src=""static/images/cards/back_of_red_moons.svg"" width=""175px"" height=""250px""></img></td>
  </tr>
  <tr height=200>
    <td width=300></td>
    <td width=300><img src=""static/images/keys/m.svg"" width=""35%"" height=""75%""></img></td>
  </tr>
</table>
  ",77.0,1.0,,,,,,,,,,,,,,,,,,,,,,,,,,
185,0,,html-keyboard-response,185,308331,0.0-7.7-2.7,0wd2blh3vnh,2022-09-19 16:25:47.137,59c6305e6a287600011c388d,2,41,33,26,21,29,M,,,"
  <table>
  <tr height=300>
    <td width=300 height=300><img src=""static/images/cards/back_of_red_moons.svg"" width=""175px"" height=""250px""></img></td>
    <td width=300 height=300><img src=""static/images/cards/3_of_red_moons.svg"" width=""175px"" height=""250px""></img></td>
  </tr>
  <tr height=200>
    <td width=300></td>
    <td width=300><img src=""static/images/keys/m.svg"" width=""35%"" height=""75%""></img></td>
  </tr>
</table>
  ",,,,,,,,,,,,,,,,,,,,,,,,,,,,
186,0,,html-keyboard-response,186,309835,0.0-7.7-3.7,0wd2blh3vnh,2022-09-19 16:25:47.137,59c6305e6a287600011c388d,2,41,33,26,21,29,M,,,"<p style=""font-size:50px"">You Lose!
No points this round.</p>",,,,,,,,,,,,,,,,,,,,,,,,,,,,
187,0,,html-keyboard-response,187,310342,0.0-7.7-4.7,0wd2blh3vnh,2022-09-19 16:25:47.137,59c6305e6a287600011c388d,2,41,33,26,21,29,M,,,,,,1.0,choice,7.0,B,D,red,red,moons,stars,D,B,D,red,moons,940.5999999046,0.0,0.0,0,right,741.3000001907,3.0,0.0,0.0,,,
188,0,,html-keyboard-response,188,311086,0.0-7.8-0.8,0wd2blh3vnh,2022-09-19 16:25:47.137,59c6305e6a287600011c388d,2,41,33,26,21,29,M,742.7999997139,,"
  <table>
  <tr height=300>
    <td width=300 height=300><img src=""static/images/cards/stack_of_red_moons.svg"" width=""175px"" height=""250px""></img></td>
    <td width=300 height=300><img src=""static/images/cards/stack_of_black_moons.svg"" width=""175px"" height=""250px""></img></td>
  </tr>
  <tr height=200>
    <td width=300><img src=""static/images/keys/w.svg"" width=""35%"" height=""75%""></img></td>
    <td width=300><img src=""static/images/keys/o.svg"" width=""35%"" height=""75%""></img></td>
  </tr>
</table>
  ",87.0,1.0,,,,,,,,,,,,,,,,,,,,,,,,,,
189,0,,html-keyboard-response,189,312400,0.0-7.8-1.8,0wd2blh3vnh,2022-09-19 16:25:47.137,59c6305e6a287600011c388d,2,41,33,26,21,29,M,813.3000001907,,"
  <table>
  <tr height=300>
    <td width=300 height=300><img src=""static/images/cards/back_of_red_moons.svg"" width=""175px"" height=""250px""></img></td>
    <td width=300 height=300><img src=""static/images/cards/back_of_red_moons.svg"" width=""175px"" height=""250px""></img></td>
  </tr>
  <tr height=200>
    <td width=300></td>
    <td width=300><img src=""static/images/keys/m.svg"" width=""35%"" height=""75%""></img></td>
  </tr>
</table>
  ",77.0,1.0,,,,,,,,,,,,,,,,,,,,,,,,,,
190,0,,html-keyboard-response,190,313902,0.0-7.8-2.8,0wd2blh3vnh,2022-09-19 16:25:47.137,59c6305e6a287600011c388d,2,41,33,26,21,29,M,,,"
  <table>
  <tr height=300>
    <td width=300 height=300><img src=""static/images/cards/back_of_red_moons.svg"" width=""175px"" height=""250px""></img></td>
    <td width=300 height=300><img src=""static/images/cards/3_of_red_moons.svg"" width=""175px"" height=""250px""></img></td>
  </tr>
  <tr height=200>
    <td width=300></td>
    <td width=300><img src=""static/images/keys/m.svg"" width=""35%"" height=""75%""></img></td>
  </tr>
</table>
  ",,,,,,,,,,,,,,,,,,,,,,,,,,,,
191,0,,html-keyboard-response,191,315405,0.0-7.8-3.8,0wd2blh3vnh,2022-09-19 16:25:47.137,59c6305e6a287600011c388d,2,41,33,26,21,29,M,,,"<p style=""font-size:50px"">You Lose!
No points this round.</p>",,,,,,,,,,,,,,,,,,,,,,,,,,,,
192,0,,html-keyboard-response,192,315912,0.0-7.8-4.8,0wd2blh3vnh,2022-09-19 16:25:47.137,59c6305e6a287600011c388d,2,41,33,26,21,29,M,,,,,,1.0,choice,8.0,C,D,red,black,moons,moons,D,C,D,red,moons,742.7999997139,0.0,0.0,0,right,813.3000001907,3.0,0.0,0.0,,,
193,0,,html-keyboard-response,193,317029,0.0-7.9-0.9,0wd2blh3vnh,2022-09-19 16:25:47.137,59c6305e6a287600011c388d,2,41,33,26,21,29,M,1116.2000002861,,"
  <table>
  <tr height=300>
    <td width=300 height=300><img src=""static/images/cards/stack_of_red_moons.svg"" width=""175px"" height=""250px""></img></td>
    <td width=300 height=300><img src=""static/images/cards/stack_of_black_moons.svg"" width=""175px"" height=""250px""></img></td>
  </tr>
  <tr height=200>
    <td width=300><img src=""static/images/keys/w.svg"" width=""35%"" height=""75%""></img></td>
    <td width=300><img src=""static/images/keys/o.svg"" width=""35%"" height=""75%""></img></td>
  </tr>
</table>
  ",79.0,1.0,,,,,,,,,,,,,,,,,,,,,,,,,,
194,0,,html-keyboard-response,194,319326,0.0-7.9-1.9,0wd2blh3vnh,2022-09-19 16:25:47.137,59c6305e6a287600011c388d,2,41,33,26,21,29,M,1794.5,,"
  <table>
  <tr height=300>
    <td width=300 height=300><img src=""static/images/cards/back_of_black_moons.svg"" width=""175px"" height=""250px""></img></td>
    <td width=300 height=300><img src=""static/images/cards/back_of_black_moons.svg"" width=""175px"" height=""250px""></img></td>
  </tr>
  <tr height=200>
    <td width=300><img src=""static/images/keys/z.svg"" width=""35%"" height=""75%""></img></td>
    <td width=300><img src=""static/images/keys/m.svg"" width=""35%"" height=""75%""></img></td>
  </tr>
</table>
  ",77.0,1.0,,,,,,,,,,,,,,,,,,,,,,,,,,
195,0,,html-keyboard-response,195,320827,0.0-7.9-2.9,0wd2blh3vnh,2022-09-19 16:25:47.137,59c6305e6a287600011c388d,2,41,33,26,21,29,M,,,"
  <table>
  <tr height=300>
    <td width=300 height=300><img src=""static/images/cards/back_of_black_moons.svg"" width=""175px"" height=""250px""></img></td>
    <td width=300 height=300><img src=""static/images/cards/2_of_black_moons.svg"" width=""175px"" height=""250px""></img></td>
  </tr>
  <tr height=200>
    <td width=300><img src=""static/images/keys/z.svg"" width=""35%"" height=""75%""></img></td>
    <td width=300><img src=""static/images/keys/m.svg"" width=""35%"" height=""75%""></img></td>
  </tr>
</table>
  ",,,,,,,,,,,,,,,,,,,,,,,,,,,,
196,0,,html-keyboard-response,196,322329,0.0-7.9-3.9,0wd2blh3vnh,2022-09-19 16:25:47.137,59c6305e6a287600011c388d,2,41,33,26,21,29,M,,,"<p style=""font-size:50px"">You Lose!
No points this round.</p>",,,,,,,,,,,,,,,,,,,,,,,,,,,,
197,0,,html-keyboard-response,197,322836,0.0-7.9-4.9,0wd2blh3vnh,2022-09-19 16:25:47.137,59c6305e6a287600011c388d,2,41,33,26,21,29,M,,,,,,1.0,choice,9.0,C,D,red,black,moons,moons,D,C,C,black,moons,1116.2000002861,1.0,0.0,NA,right,1794.5,2.0,0.0,0.0,,,
198,0,,html-keyboard-response,198,323621,0.0-7.10-0.10,0wd2blh3vnh,2022-09-19 16:25:47.137,59c6305e6a287600011c388d,2,41,33,26,21,29,M,784.1999998093,,"
  <table>
  <tr height=300>
    <td width=300 height=300><img src=""static/images/cards/stack_of_black_bolts.svg"" width=""175px"" height=""250px""></img></td>
    <td width=300 height=300><img src=""static/images/cards/stack_of_red_stars.svg"" width=""175px"" height=""250px""></img></td>
  </tr>
  <tr height=200>
    <td width=300><img src=""static/images/keys/w.svg"" width=""35%"" height=""75%""></img></td>
    <td width=300><img src=""static/images/keys/o.svg"" width=""35%"" height=""75%""></img></td>
  </tr>
</table>
  ",87.0,1.0,,,,,,,,,,,,,,,,,,,,,,,,,,
199,0,,html-keyboard-response,199,324839,0.0-7.10-1.10,0wd2blh3vnh,2022-09-19 16:25:47.137,59c6305e6a287600011c388d,2,41,33,26,21,29,M,717.0,,"
  <table>
  <tr height=300>
    <td width=300 height=300><img src=""static/images/cards/back_of_black_bolts.svg"" width=""175px"" height=""250px""></img></td>
    <td width=300 height=300><img src=""static/images/cards/back_of_black_bolts.svg"" width=""175px"" height=""250px""></img></td>
  </tr>
  <tr height=200>
    <td width=300></td>
    <td width=300><img src=""static/images/keys/m.svg"" width=""35%"" height=""75%""></img></td>
  </tr>
</table>
  ",77.0,1.0,,,,,,,,,,,,,,,,,,,,,,,,,,
200,0,,html-keyboard-response,200,326341,0.0-7.10-2.10,0wd2blh3vnh,2022-09-19 16:25:47.137,59c6305e6a287600011c388d,2,41,33,26,21,29,M,,,"
  <table>
  <tr height=300>
    <td width=300 height=300><img src=""static/images/cards/back_of_black_bolts.svg"" width=""175px"" height=""250px""></img></td>
    <td width=300 height=300><img src=""static/images/cards/8_of_black_bolts.svg"" width=""175px"" height=""250px""></img></td>
  </tr>
  <tr height=200>
    <td width=300></td>
    <td width=300><img src=""static/images/keys/m.svg"" width=""35%"" height=""75%""></img></td>
  </tr>
</table>
  ",,,,,,,,,,,,,,,,,,,,,,,,,,,,
201,0,,html-keyboard-response,201,327844,0.0-7.10-3.10,0wd2blh3vnh,2022-09-19 16:25:47.137,59c6305e6a287600011c388d,2,41,33,26,21,29,M,,,"<p style=""font-size:50px"">You win!
+10 points this round!</p>",,,,,,,,,,,,,,,,,,,,,,,,,,,,
202,0,,html-keyboard-response,202,328350,0.0-7.10-4.10,0wd2blh3vnh,2022-09-19 16:25:47.137,59c6305e6a287600011c388d,2,41,33,26,21,29,M,,,,,,1.0,choice,10.0,B,Xnc,black,red,bolts,stars,Xnc,B,Xnc,black,bolts,784.1999998093,0.0,0.0,0,right,717.0,8.0,1.0,1.0,,,
203,0,,html-keyboard-response,203,329879,0.0-7.11-0.11,0wd2blh3vnh,2022-09-19 16:25:47.137,59c6305e6a287600011c388d,2,41,33,26,21,29,M,1527.8999996185,,"
  <table>
  <tr height=300>
    <td width=300 height=300><img src=""static/images/cards/stack_of_red_bolts.svg"" width=""175px"" height=""250px""></img></td>
    <td width=300 height=300><img src=""static/images/cards/stack_of_black_stars.svg"" width=""175px"" height=""250px""></img></td>
  </tr>
  <tr height=200>
    <td width=300><img src=""static/images/keys/w.svg"" width=""35%"" height=""75%""></img></td>
    <td width=300><img src=""static/images/keys/o.svg"" width=""35%"" height=""75%""></img></td>
  </tr>
</table>
  ",87.0,1.0,,,,,,,,,,,,,,,,,,,,,,,,,,
204,0,,html-keyboard-response,204,331088,0.0-7.11-1.11,0wd2blh3vnh,2022-09-19 16:25:47.137,59c6305e6a287600011c388d,2,41,33,26,21,29,M,708.3000001907,,"
  <table>
  <tr height=300>
    <td width=300 height=300><img src=""static/images/cards/back_of_red_bolts.svg"" width=""175px"" height=""250px""></img></td>
    <td width=300 height=300><img src=""static/images/cards/back_of_red_bolts.svg"" width=""175px"" height=""250px""></img></td>
  </tr>
  <tr height=200>
    <td width=300><img src=""static/images/keys/z.svg"" width=""35%"" height=""75%""></img></td>
    <td width=300><img src=""static/images/keys/m.svg"" width=""35%"" height=""75%""></img></td>
  </tr>
</table>
  ",77.0,1.0,,,,,,,,,,,,,,,,,,,,,,,,,,
205,0,,html-keyboard-response,205,332589,0.0-7.11-2.11,0wd2blh3vnh,2022-09-19 16:25:47.137,59c6305e6a287600011c388d,2,41,33,26,21,29,M,,,"
  <table>
  <tr height=300>
    <td width=300 height=300><img src=""static/images/cards/back_of_red_bolts.svg"" width=""175px"" height=""250px""></img></td>
    <td width=300 height=300><img src=""static/images/cards/4_of_red_bolts.svg"" width=""175px"" height=""250px""></img></td>
  </tr>
  <tr height=200>
    <td width=300><img src=""static/images/keys/z.svg"" width=""35%"" height=""75%""></img></td>
    <td width=300><img src=""static/images/keys/m.svg"" width=""35%"" height=""75%""></img></td>
  </tr>
</table>
  ",,,,,,,,,,,,,,,,,,,,,,,,,,,,
206,0,,html-keyboard-response,206,334092,0.0-7.11-3.11,0wd2blh3vnh,2022-09-19 16:25:47.137,59c6305e6a287600011c388d,2,41,33,26,21,29,M,,,"<p style=""font-size:50px"">You win!
+10 points this round!</p>",,,,,,,,,,,,,,,,,,,,,,,,,,,,
207,0,,html-keyboard-response,207,334598,0.0-7.11-4.11,0wd2blh3vnh,2022-09-19 16:25:47.137,59c6305e6a287600011c388d,2,41,33,26,21,29,M,,,,,,1.0,choice,11.0,A,Xc,red,black,bolts,stars,Xc,A,Xc,red,bolts,1527.8999996185,1.0,0.0,NA,right,708.3000001907,4.0,0.0,1.0,,,
208,0,,html-keyboard-response,208,335870,0.0-7.12-0.12,0wd2blh3vnh,2022-09-19 16:25:47.137,59c6305e6a287600011c388d,2,41,33,26,21,29,M,1271.1000003815,,"
  <table>
  <tr height=300>
    <td width=300 height=300><img src=""static/images/cards/stack_of_black_moons.svg"" width=""175px"" height=""250px""></img></td>
    <td width=300 height=300><img src=""static/images/cards/stack_of_red_moons.svg"" width=""175px"" height=""250px""></img></td>
  </tr>
  <tr height=200>
    <td width=300><img src=""static/images/keys/w.svg"" width=""35%"" height=""75%""></img></td>
    <td width=300><img src=""static/images/keys/o.svg"" width=""35%"" height=""75%""></img></td>
  </tr>
</table>
  ",87.0,1.0,,,,,,,,,,,,,,,,,,,,,,,,,,
209,0,,html-keyboard-response,209,337263,0.0-7.12-1.12,0wd2blh3vnh,2022-09-19 16:25:47.137,59c6305e6a287600011c388d,2,41,33,26,21,29,M,889.5999999046,,"
  <table>
  <tr height=300>
    <td width=300 height=300><img src=""static/images/cards/back_of_black_moons.svg"" width=""175px"" height=""250px""></img></td>
    <td width=300 height=300><img src=""static/images/cards/back_of_black_moons.svg"" width=""175px"" height=""250px""></img></td>
  </tr>
  <tr height=200>
    <td width=300><img src=""static/images/keys/z.svg"" width=""35%"" height=""75%""></img></td>
    <td width=300><img src=""static/images/keys/m.svg"" width=""35%"" height=""75%""></img></td>
  </tr>
</table>
  ",77.0,1.0,,,,,,,,,,,,,,,,,,,,,,,,,,
210,0,,html-keyboard-response,210,338765,0.0-7.12-2.12,0wd2blh3vnh,2022-09-19 16:25:47.137,59c6305e6a287600011c388d,2,41,33,26,21,29,M,,,"
  <table>
  <tr height=300>
    <td width=300 height=300><img src=""static/images/cards/back_of_black_moons.svg"" width=""175px"" height=""250px""></img></td>
    <td width=300 height=300><img src=""static/images/cards/7_of_black_moons.svg"" width=""175px"" height=""250px""></img></td>
  </tr>
  <tr height=200>
    <td width=300><img src=""static/images/keys/z.svg"" width=""35%"" height=""75%""></img></td>
    <td width=300><img src=""static/images/keys/m.svg"" width=""35%"" height=""75%""></img></td>
  </tr>
</table>
  ",,,,,,,,,,,,,,,,,,,,,,,,,,,,
211,0,,html-keyboard-response,211,340267,0.0-7.12-3.12,0wd2blh3vnh,2022-09-19 16:25:47.137,59c6305e6a287600011c388d,2,41,33,26,21,29,M,,,"<p style=""font-size:50px"">You Lose!
No points this round.</p>",,,,,,,,,,,,,,,,,,,,,,,,,,,,
212,0,,html-keyboard-response,212,340774,0.0-7.12-4.12,0wd2blh3vnh,2022-09-19 16:25:47.137,59c6305e6a287600011c388d,2,41,33,26,21,29,M,,,,,,1.0,choice,12.0,C,D,black,red,moons,moons,C,D,C,black,moons,1271.1000003815,1.0,0.0,NA,right,889.5999999046,7.0,1.0,0.0,,,
213,0,,html-keyboard-response,213,342612,0.0-7.13-0.13,0wd2blh3vnh,2022-09-19 16:25:47.137,59c6305e6a287600011c388d,2,41,33,26,21,29,M,1837.0,,"
  <table>
  <tr height=300>
    <td width=300 height=300><img src=""static/images/cards/stack_of_black_moons.svg"" width=""175px"" height=""250px""></img></td>
    <td width=300 height=300><img src=""static/images/cards/stack_of_black_stars.svg"" width=""175px"" height=""250px""></img></td>
  </tr>
  <tr height=200>
    <td width=300><img src=""static/images/keys/w.svg"" width=""35%"" height=""75%""></img></td>
    <td width=300><img src=""static/images/keys/o.svg"" width=""35%"" height=""75%""></img></td>
  </tr>
</table>
  ",79.0,1.0,,,,,,,,,,,,,,,,,,,,,,,,,,
214,0,,html-keyboard-response,214,344514,0.0-7.13-1.13,0wd2blh3vnh,2022-09-19 16:25:47.137,59c6305e6a287600011c388d,2,41,33,26,21,29,M,1400.0,,"
  <table>
  <tr height=300>
    <td width=300 height=300><img src=""static/images/cards/back_of_black_stars.svg"" width=""175px"" height=""250px""></img></td>
    <td width=300 height=300><img src=""static/images/cards/back_of_black_stars.svg"" width=""175px"" height=""250px""></img></td>
  </tr>
  <tr height=200>
    <td width=300><img src=""static/images/keys/z.svg"" width=""35%"" height=""75%""></img></td>
    <td width=300><img src=""static/images/keys/m.svg"" width=""35%"" height=""75%""></img></td>
  </tr>
</table>
  ",77.0,1.0,,,,,,,,,,,,,,,,,,,,,,,,,,
215,0,,html-keyboard-response,215,346016,0.0-7.13-2.13,0wd2blh3vnh,2022-09-19 16:25:47.137,59c6305e6a287600011c388d,2,41,33,26,21,29,M,,,"
  <table>
  <tr height=300>
    <td width=300 height=300><img src=""static/images/cards/back_of_black_stars.svg"" width=""175px"" height=""250px""></img></td>
    <td width=300 height=300><img src=""static/images/cards/9_of_black_stars.svg"" width=""175px"" height=""250px""></img></td>
  </tr>
  <tr height=200>
    <td width=300><img src=""static/images/keys/z.svg"" width=""35%"" height=""75%""></img></td>
    <td width=300><img src=""static/images/keys/m.svg"" width=""35%"" height=""75%""></img></td>
  </tr>
</table>
  ",,,,,,,,,,,,,,,,,,,,,,,,,,,,
216,0,,html-keyboard-response,216,347519,0.0-7.13-3.13,0wd2blh3vnh,2022-09-19 16:25:47.137,59c6305e6a287600011c388d,2,41,33,26,21,29,M,,,"<p style=""font-size:50px"">You win!
+10 points this round!</p>",,,,,,,,,,,,,,,,,,,,,,,,,,,,
217,0,,html-keyboard-response,217,348026,0.0-7.13-4.13,0wd2blh3vnh,2022-09-19 16:25:47.137,59c6305e6a287600011c388d,2,41,33,26,21,29,M,,,,,,1.0,choice,13.0,A,C,black,black,moons,stars,C,A,A,black,stars,1837.0,1.0,1.0,NA,right,1400.0,9.0,1.0,1.0,,,
218,0,,html-keyboard-response,218,349709,0.0-7.14-0.14,0wd2blh3vnh,2022-09-19 16:25:47.137,59c6305e6a287600011c388d,2,41,33,26,21,29,M,1681.5999999046,,"
  <table>
  <tr height=300>
    <td width=300 height=300><img src=""static/images/cards/stack_of_black_stars.svg"" width=""175px"" height=""250px""></img></td>
    <td width=300 height=300><img src=""static/images/cards/stack_of_red_stars.svg"" width=""175px"" height=""250px""></img></td>
  </tr>
  <tr height=200>
    <td width=300><img src=""static/images/keys/w.svg"" width=""35%"" height=""75%""></img></td>
    <td width=300><img src=""static/images/keys/o.svg"" width=""35%"" height=""75%""></img></td>
  </tr>
</table>
  ",87.0,1.0,,,,,,,,,,,,,,,,,,,,,,,,,,
219,0,,html-keyboard-response,219,350674,0.0-7.14-1.14,0wd2blh3vnh,2022-09-19 16:25:47.137,59c6305e6a287600011c388d,2,41,33,26,21,29,M,463.9000000954,,"
  <table>
  <tr height=300>
    <td width=300 height=300><img src=""static/images/cards/back_of_black_stars.svg"" width=""175px"" height=""250px""></img></td>
    <td width=300 height=300><img src=""static/images/cards/back_of_black_stars.svg"" width=""175px"" height=""250px""></img></td>
  </tr>
  <tr height=200>
    <td width=300><img src=""static/images/keys/z.svg"" width=""35%"" height=""75%""></img></td>
    <td width=300><img src=""static/images/keys/m.svg"" width=""35%"" height=""75%""></img></td>
  </tr>
</table>
  ",77.0,1.0,,,,,,,,,,,,,,,,,,,,,,,,,,
220,0,,html-keyboard-response,220,352176,0.0-7.14-2.14,0wd2blh3vnh,2022-09-19 16:25:47.137,59c6305e6a287600011c388d,2,41,33,26,21,29,M,,,"
  <table>
  <tr height=300>
    <td width=300 height=300><img src=""static/images/cards/back_of_black_stars.svg"" width=""175px"" height=""250px""></img></td>
    <td width=300 height=300><img src=""static/images/cards/4_of_black_stars.svg"" width=""175px"" height=""250px""></img></td>
  </tr>
  <tr height=200>
    <td width=300><img src=""static/images/keys/z.svg"" width=""35%"" height=""75%""></img></td>
    <td width=300><img src=""static/images/keys/m.svg"" width=""35%"" height=""75%""></img></td>
  </tr>
</table>
  ",,,,,,,,,,,,,,,,,,,,,,,,,,,,
221,0,,html-keyboard-response,221,353678,0.0-7.14-3.14,0wd2blh3vnh,2022-09-19 16:25:47.137,59c6305e6a287600011c388d,2,41,33,26,21,29,M,,,"<p style=""font-size:50px"">You Lose!
No points this round.</p>",,,,,,,,,,,,,,,,,,,,,,,,,,,,
222,0,,html-keyboard-response,222,354183,0.0-7.14-4.14,0wd2blh3vnh,2022-09-19 16:25:47.137,59c6305e6a287600011c388d,2,41,33,26,21,29,M,,,,,,1.0,choice,14.0,A,B,black,red,stars,stars,A,B,A,black,stars,1681.5999999046,1.0,1.0,NA,right,463.9000000954,4.0,0.0,0.0,,,
223,0,,html-keyboard-response,223,355549,0.0-7.15-0.15,0wd2blh3vnh,2022-09-19 16:25:47.137,59c6305e6a287600011c388d,2,41,33,26,21,29,M,1365.0,,"
  <table>
  <tr height=300>
    <td width=300 height=300><img src=""static/images/cards/stack_of_red_moons.svg"" width=""175px"" height=""250px""></img></td>
    <td width=300 height=300><img src=""static/images/cards/stack_of_black_moons.svg"" width=""175px"" height=""250px""></img></td>
  </tr>
  <tr height=200>
    <td width=300><img src=""static/images/keys/w.svg"" width=""35%"" height=""75%""></img></td>
    <td width=300><img src=""static/images/keys/o.svg"" width=""35%"" height=""75%""></img></td>
  </tr>
</table>
  ",87.0,1.0,,,,,,,,,,,,,,,,,,,,,,,,,,
224,0,,html-keyboard-response,224,357174,0.0-7.15-1.15,0wd2blh3vnh,2022-09-19 16:25:47.137,59c6305e6a287600011c388d,2,41,33,26,21,29,M,1123.8999996185,,"
  <table>
  <tr height=300>
    <td width=300 height=300><img src=""static/images/cards/back_of_red_moons.svg"" width=""175px"" height=""250px""></img></td>
    <td width=300 height=300><img src=""static/images/cards/back_of_red_moons.svg"" width=""175px"" height=""250px""></img></td>
  </tr>
  <tr height=200>
    <td width=300><img src=""static/images/keys/z.svg"" width=""35%"" height=""75%""></img></td>
    <td width=300></td>
  </tr>
</table>
  ",90.0,2.0,,,,,,,,,,,,,,,,,,,,,,,,,,
225,0,,html-keyboard-response,225,358676,0.0-7.15-2.15,0wd2blh3vnh,2022-09-19 16:25:47.137,59c6305e6a287600011c388d,2,41,33,26,21,29,M,,,"
  <table>
  <tr height=300>
    <td width=300 height=300><img src=""static/images/cards/8_of_red_moons.svg"" width=""175px"" height=""250px""></img></td>
    <td width=300 height=300><img src=""static/images/cards/back_of_red_moons.svg"" width=""175px"" height=""250px""></img></td>
  </tr>
  <tr height=200>
    <td width=300><img src=""static/images/keys/z.svg"" width=""35%"" height=""75%""></img></td>
    <td width=300></td>
  </tr>
</table>
  ",,,,,,,,,,,,,,,,,,,,,,,,,,,,
226,0,,html-keyboard-response,226,360177,0.0-7.15-3.15,0wd2blh3vnh,2022-09-19 16:25:47.137,59c6305e6a287600011c388d,2,41,33,26,21,29,M,,,"<p style=""font-size:50px"">You win!
+10 points this round!</p>",,,,,,,,,,,,,,,,,,,,,,,,,,,,
227,0,,html-keyboard-response,227,360684,0.0-7.15-4.15,0wd2blh3vnh,2022-09-19 16:25:47.137,59c6305e6a287600011c388d,2,41,33,26,21,29,M,,,,,,1.0,choice,15.0,C,D,red,black,moons,moons,D,C,D,red,moons,1365.0,0.0,0.0,1,left,1123.8999996185,8.0,1.0,1.0,,,
228,0,,html-keyboard-response,228,362483,0.0-7.16-0.16,0wd2blh3vnh,2022-09-19 16:25:47.137,59c6305e6a287600011c388d,2,41,33,26,21,29,M,1799.0,,"
  <table>
  <tr height=300>
    <td width=300 height=300><img src=""static/images/cards/stack_of_red_stars.svg"" width=""175px"" height=""250px""></img></td>
    <td width=300 height=300><img src=""static/images/cards/stack_of_black_moons.svg"" width=""175px"" height=""250px""></img></td>
  </tr>
  <tr height=200>
    <td width=300><img src=""static/images/keys/w.svg"" width=""35%"" height=""75%""></img></td>
    <td width=300><img src=""static/images/keys/o.svg"" width=""35%"" height=""75%""></img></td>
  </tr>
</table>
  ",87.0,1.0,,,,,,,,,,,,,,,,,,,,,,,,,,
229,0,,html-keyboard-response,229,363687,0.0-7.16-1.16,0wd2blh3vnh,2022-09-19 16:25:47.137,59c6305e6a287600011c388d,2,41,33,26,21,29,M,703.9000000954,,"
  <table>
  <tr height=300>
    <td width=300 height=300><img src=""static/images/cards/back_of_red_stars.svg"" width=""175px"" height=""250px""></img></td>
    <td width=300 height=300><img src=""static/images/cards/back_of_red_stars.svg"" width=""175px"" height=""250px""></img></td>
  </tr>
  <tr height=200>
    <td width=300></td>
    <td width=300><img src=""static/images/keys/m.svg"" width=""35%"" height=""75%""></img></td>
  </tr>
</table>
  ",77.0,1.0,,,,,,,,,,,,,,,,,,,,,,,,,,
230,0,,html-keyboard-response,230,365190,0.0-7.16-2.16,0wd2blh3vnh,2022-09-19 16:25:47.137,59c6305e6a287600011c388d,2,41,33,26,21,29,M,,,"
  <table>
  <tr height=300>
    <td width=300 height=300><img src=""static/images/cards/back_of_red_stars.svg"" width=""175px"" height=""250px""></img></td>
    <td width=300 height=300><img src=""static/images/cards/8_of_red_stars.svg"" width=""175px"" height=""250px""></img></td>
  </tr>
  <tr height=200>
    <td width=300></td>
    <td width=300><img src=""static/images/keys/m.svg"" width=""35%"" height=""75%""></img></td>
  </tr>
</table>
  ",,,,,,,,,,,,,,,,,,,,,,,,,,,,
231,0,,html-keyboard-response,231,366692,0.0-7.16-3.16,0wd2blh3vnh,2022-09-19 16:25:47.137,59c6305e6a287600011c388d,2,41,33,26,21,29,M,,,"<p style=""font-size:50px"">You win!
+10 points this round!</p>",,,,,,,,,,,,,,,,,,,,,,,,,,,,
232,0,,html-keyboard-response,232,367199,0.0-7.16-4.16,0wd2blh3vnh,2022-09-19 16:25:47.137,59c6305e6a287600011c388d,2,41,33,26,21,29,M,,,,,,1.0,choice,16.0,B,C,red,black,stars,moons,B,C,B,red,stars,1799.0,0.0,1.0,0,right,703.9000000954,8.0,1.0,1.0,,,
233,0,,html-keyboard-response,233,368309,0.0-7.17-0.17,0wd2blh3vnh,2022-09-19 16:25:47.137,59c6305e6a287600011c388d,2,41,33,26,21,29,M,1109.7000002861,,"
  <table>
  <tr height=300>
    <td width=300 height=300><img src=""static/images/cards/stack_of_red_stars.svg"" width=""175px"" height=""250px""></img></td>
    <td width=300 height=300><img src=""static/images/cards/stack_of_black_stars.svg"" width=""175px"" height=""250px""></img></td>
  </tr>
  <tr height=200>
    <td width=300><img src=""static/images/keys/w.svg"" width=""35%"" height=""75%""></img></td>
    <td width=300><img src=""static/images/keys/o.svg"" width=""35%"" height=""75%""></img></td>
  </tr>
</table>
  ",87.0,1.0,,,,,,,,,,,,,,,,,,,,,,,,,,
234,0,,html-keyboard-response,234,369418,0.0-7.17-1.17,0wd2blh3vnh,2022-09-19 16:25:47.137,59c6305e6a287600011c388d,2,41,33,26,21,29,M,607.0999999046,,"
  <table>
  <tr height=300>
    <td width=300 height=300><img src=""static/images/cards/back_of_red_stars.svg"" width=""175px"" height=""250px""></img></td>
    <td width=300 height=300><img src=""static/images/cards/back_of_red_stars.svg"" width=""175px"" height=""250px""></img></td>
  </tr>
  <tr height=200>
    <td width=300></td>
