,index,success,trial_type,trial_index,time_elapsed,internal_node_id,subject,date,prol_id,ctbl,sense_of_control_A,sense_of_control_B,sense_of_control_C,sense_of_control_D,rt,url,stimulus,key_press,npress,is_data_trial,phase,trial,deck1,deck2,col1,col2,sym1,sym2,deck_l,deck_r,chosen_deck,chosen_col,chosen_sym,deck_rt,choose_choice,mutual_info,hidden_key,chosen_card,card_rt,player_num,win_card,outcome,mock_rating,response
0,0,1.0,fullscreen,0,9103,0.0-0.0,gnvo53gxw5,2022-09-19 15:58:54.688,5dd3d566e05cad3b130de19a,3,56,55,25,37,,,,,,,,,,,,,,,,,,,,,,,,,,,,,,
1,0,,external-html,1,68775,0.0-1.0,gnvo53gxw5,2022-09-19 15:58:54.688,5dd3d566e05cad3b130de19a,3,56,55,25,37,59593.2000000179,static/js/sub/consent.html,,,,,,,,,,,,,,,,,,,,,,,,,,,,
2,0,,call-function,2,68776,0.0-2.0,gnvo53gxw5,2022-09-19 15:58:54.688,5dd3d566e05cad3b130de19a,3,56,55,25,37,,,,,,,,,,,,,,,,,,,,,,,,,,,,,,
3,0,,image-keyboard-response,3,74120,0.0-3.0-0.0,gnvo53gxw5,2022-09-19 15:58:54.688,5dd3d566e05cad3b130de19a,3,56,55,25,37,5343.099999994,,static/images/instructions_CB_3/Slide1.png,39.0,,,,,,,,,,,,,,,,,,,,,,,,,,
4,0,,image-keyboard-response,4,85392,0.0-3.1-0.1,gnvo53gxw5,2022-09-19 15:58:54.688,5dd3d566e05cad3b130de19a,3,56,55,25,37,11271.3000000119,,static/images/instructions_CB_3/Slide2.png,39.0,,,,,,,,,,,,,,,,,,,,,,,,,,
5,0,,image-keyboard-response,5,110791,0.0-3.2-0.2,gnvo53gxw5,2022-09-19 15:58:54.688,5dd3d566e05cad3b130de19a,3,56,55,25,37,25398.8000000119,,static/images/instructions_CB_3/Slide3.png,39.0,,,,,,,,,,,,,,,,,,,,,,,,,,
6,0,,image-keyboard-response,6,122128,0.0-3.3-0.3,gnvo53gxw5,2022-09-19 15:58:54.688,5dd3d566e05cad3b130de19a,3,56,55,25,37,11335.5,,static/images/instructions_CB_3/Slide4.png,39.0,,,,,,,,,,,,,,,,,,,,,,,,,,
7,0,,image-keyboard-response,7,127320,0.0-3.4-0.4,gnvo53gxw5,2022-09-19 15:58:54.688,5dd3d566e05cad3b130de19a,3,56,55,25,37,5191.599999994,,static/images/instructions_CB_3/Slide5.png,39.0,,,,,,,,,,,,,,,,,,,,,,,,,,
8,0,,image-keyboard-response,8,131343,0.0-3.5-0.5,gnvo53gxw5,2022-09-19 15:58:54.688,5dd3d566e05cad3b130de19a,3,56,55,25,37,4022.7000000179,,static/images/instructions_CB_3/Slide6.png,39.0,,,,,,,,,,,,,,,,,,,,,,,,,,
9,0,,image-keyboard-response,9,140224,0.0-3.6-0.6,gnvo53gxw5,2022-09-19 15:58:54.688,5dd3d566e05cad3b130de19a,3,56,55,25,37,8880.0,,static/images/instructions_CB_3/Slide7.png,39.0,,,,,,,,,,,,,,,,,,,,,,,,,,
10,0,,image-keyboard-response,10,157823,0.0-3.7-0.7,gnvo53gxw5,2022-09-19 15:58:54.688,5dd3d566e05cad3b130de19a,3,56,55,25,37,17599.400000006,,static/images/instructions_CB_3/Slide8.png,39.0,,,,,,,,,,,,,,,,,,,,,,,,,,
11,0,,image-keyboard-response,11,169696,0.0-3.8-0.8,gnvo53gxw5,2022-09-19 15:58:54.688,5dd3d566e05cad3b130de19a,3,56,55,25,37,11871.6999999881,,static/images/instructions_CB_3/Slide9.png,39.0,,,,,,,,,,,,,,,,,,,,,,,,,,
12,0,,image-keyboard-response,12,185967,0.0-3.9-0.9,gnvo53gxw5,2022-09-19 15:58:54.688,5dd3d566e05cad3b130de19a,3,56,55,25,37,16271.2000000179,,static/images/instructions_CB_3/Slide10.png,39.0,,,,,,,,,,,,,,,,,,,,,,,,,,
13,0,,image-keyboard-response,13,320968,0.0-3.10-0.10,gnvo53gxw5,2022-09-19 15:58:54.688,5dd3d566e05cad3b130de19a,3,56,55,25,37,134999.900000006,,static/images/instructions_CB_3/Slide11.png,39.0,,,,,,,,,,,,,,,,,,,,,,,,,,
14,0,,image-keyboard-response,14,343472,0.0-3.11-0.11,gnvo53gxw5,2022-09-19 15:58:54.688,5dd3d566e05cad3b130de19a,3,56,55,25,37,22503.1999999881,,static/images/instructions_CB_3/Slide12.png,39.0,,,,,,,,,,,,,,,,,,,,,,,,,,
15,0,,image-keyboard-response,15,363440,0.0-3.12-0.12,gnvo53gxw5,2022-09-19 15:58:54.688,5dd3d566e05cad3b130de19a,3,56,55,25,37,19967.3000000119,,static/images/instructions_CB_3/Slide13.png,39.0,,,,,,,,,,,,,,,,,,,,,,,,,,
16,0,,image-keyboard-response,16,373303,0.0-3.13-0.13,gnvo53gxw5,2022-09-19 15:58:54.688,5dd3d566e05cad3b130de19a,3,56,55,25,37,9863.1999999881,,static/images/instructions_CB_3/Slide14.png,39.0,,,,,,,,,,,,,,,,,,,,,,,,,,
17,0,,image-keyboard-response,17,383672,0.0-3.14-0.14,gnvo53gxw5,2022-09-19 15:58:54.688,5dd3d566e05cad3b130de19a,3,56,55,25,37,10367.8999999762,,static/images/instructions_CB_3/Slide15.png,39.0,,,,,,,,,,,,,,,,,,,,,,,,,,
18,0,,image-keyboard-response,18,393183,0.0-3.15-0.15,gnvo53gxw5,2022-09-19 15:58:54.688,5dd3d566e05cad3b130de19a,3,56,55,25,37,9511.099999994,,static/images/instructions_CB_3/Slide16.png,39.0,,,,,,,,,,,,,,,,,,,,,,,,,,
19,0,,image-keyboard-response,19,406031,0.0-3.16-0.16,gnvo53gxw5,2022-09-19 15:58:54.688,5dd3d566e05cad3b130de19a,3,56,55,25,37,12847.400000006,,static/images/instructions_CB_3/Slide17.png,39.0,,,,,,,,,,,,,,,,,,,,,,,,,,
20,0,,image-keyboard-response,20,425168,0.0-3.17-0.17,gnvo53gxw5,2022-09-19 15:58:54.688,5dd3d566e05cad3b130de19a,3,56,55,25,37,19136.0,,static/images/instructions_CB_3/Slide18.png,39.0,,,,,,,,,,,,,,,,,,,,,,,,,,
21,0,,image-keyboard-response,21,433080,0.0-3.18-0.18,gnvo53gxw5,2022-09-19 15:58:54.688,5dd3d566e05cad3b130de19a,3,56,55,25,37,7911.5,,static/images/instructions_CB_3/Slide19.png,39.0,,,,,,,,,,,,,,,,,,,,,,,,,,
22,0,,html-keyboard-response,22,434583,0.0-4.0-0.0,gnvo53gxw5,2022-09-19 15:58:54.688,5dd3d566e05cad3b130de19a,3,56,55,25,37,,,"<img src=""static/images/cards/stack_of_black_moons.svg"" width=""175px"" height=""250px""></img>",,,,,,,,,,,,,,,,,,,,,,,,,,,
23,0,,html-keyboard-response,23,437056,0.0-4.0-1.0,gnvo53gxw5,2022-09-19 15:58:54.688,5dd3d566e05cad3b130de19a,3,56,55,25,37,1970.1999999881,,"
  <table>
  <tr height=300>
    <td width=300 height=300><img src=""static/images/cards/back_of_black_moons.svg"" width=""175px"" height=""250px""></img></td>
    <td width=300 height=300><img src=""static/images/cards/back_of_black_moons.svg"" width=""175px"" height=""250px""></img></td>
  </tr>
  <tr height=200>
    <td width=300><img src=""static/images/keys/z.svg"" width=""35%"" height=""75%""></img></td>
    <td width=300><img src=""static/images/keys/m.svg"" width=""35%"" height=""75%""></img></td>
  </tr>
</table>
  ",90.0,1.0,,,,,,,,,,,,,,,,,,,,,,,,,
24,0,,html-keyboard-response,24,438569,0.0-4.0-2.0,gnvo53gxw5,2022-09-19 15:58:54.688,5dd3d566e05cad3b130de19a,3,56,55,25,37,,,"
  <table>
  <tr height=300>
    <td width=300 height=300><img src=""static/images/cards/6_of_black_moons.svg"" width=""175px"" height=""250px""></img></td>
    <td width=300 height=300><img src=""static/images/cards/back_of_black_moons.svg"" width=""175px"" height=""250px""></img></td>
  </tr>
  <tr height=200>
    <td width=300><img src=""static/images/keys/z.svg"" width=""35%"" height=""75%""></img></td>
    <td width=300><img src=""static/images/keys/m.svg"" width=""35%"" height=""75%""></img></td>
  </tr>
</table>
  ",,,,,,,,,,,,,,,,,,,,,,,,,,,
25,0,,html-keyboard-response,25,440089,0.0-4.0-3.0,gnvo53gxw5,2022-09-19 15:58:54.688,5dd3d566e05cad3b130de19a,3,56,55,25,37,,,"<p style=""font-size:50px"">You win!
+10 points this round!</p>",,,,,,,,,,,,,,,,,,,,,,,,,,,
26,0,,html-keyboard-response,26,440605,0.0-4.0-4.0,gnvo53gxw5,2022-09-19 15:58:54.688,5dd3d566e05cad3b130de19a,3,56,55,25,37,,,,,,1.0,learning,0.0,A,,black,,moons,,,,A,black,moons,,1.0,1.0,NA,left,1970.1999999881,6.0,1.0,1.0,,
27,0,,html-keyboard-response,27,442108,0.0-4.1-0.1,gnvo53gxw5,2022-09-19 15:58:54.688,5dd3d566e05cad3b130de19a,3,56,55,25,37,,,"<img src=""static/images/cards/stack_of_red_moons.svg"" width=""175px"" height=""250px""></img>",,,,,,,,,,,,,,,,,,,,,,,,,,,
28,0,,html-keyboard-response,28,443400,0.0-4.1-1.1,gnvo53gxw5,2022-09-19 15:58:54.688,5dd3d566e05cad3b130de19a,3,56,55,25,37,782.0,,"
  <table>
  <tr height=300>
    <td width=300 height=300><img src=""static/images/cards/back_of_red_moons.svg"" width=""175px"" height=""250px""></img></td>
    <td width=300 height=300><img src=""static/images/cards/back_of_red_moons.svg"" width=""175px"" height=""250px""></img></td>
  </tr>
  <tr height=200>
    <td width=300><img src=""static/images/keys/z.svg"" width=""35%"" height=""75%""></img></td>
    <td width=300></td>
  </tr>
</table>
  ",90.0,1.0,,,,,,,,,,,,,,,,,,,,,,,,,
29,0,,html-keyboard-response,29,444905,0.0-4.1-2.1,gnvo53gxw5,2022-09-19 15:58:54.688,5dd3d566e05cad3b130de19a,3,56,55,25,37,,,"
  <table>
  <tr height=300>
    <td width=300 height=300><img src=""static/images/cards/7_of_red_moons.svg"" width=""175px"" height=""250px""></img></td>
    <td width=300 height=300><img src=""static/images/cards/back_of_red_moons.svg"" width=""175px"" height=""250px""></img></td>
  </tr>
  <tr height=200>
    <td width=300><img src=""static/images/keys/z.svg"" width=""35%"" height=""75%""></img></td>
    <td width=300></td>
  </tr>
</table>
  ",,,,,,,,,,,,,,,,,,,,,,,,,,,
30,0,,html-keyboard-response,30,446413,0.0-4.1-3.1,gnvo53gxw5,2022-09-19 15:58:54.688,5dd3d566e05cad3b130de19a,3,56,55,25,37,,,"<p style=""font-size:50px"">You win!
+10 points this round!</p>",,,,,,,,,,,,,,,,,,,,,,,,,,,
31,0,,html-keyboard-response,31,446933,0.0-4.1-4.1,gnvo53gxw5,2022-09-19 15:58:54.688,5dd3d566e05cad3b130de19a,3,56,55,25,37,,,,,,1.0,learning,1.0,B,,red,,moons,,,,B,red,moons,,0.0,1.0,1,left,782.0,7.0,1.0,1.0,,
32,0,,html-keyboard-response,32,448443,0.0-4.2-0.2,gnvo53gxw5,2022-09-19 15:58:54.688,5dd3d566e05cad3b130de19a,3,56,55,25,37,,,"<img src=""static/images/cards/stack_of_black_stars.svg"" width=""175px"" height=""250px""></img>",,,,,,,,,,,,,,,,,,,,,,,,,,,
33,0,,html-keyboard-response,33,450528,0.0-4.2-1.2,gnvo53gxw5,2022-09-19 15:58:54.688,5dd3d566e05cad3b130de19a,3,56,55,25,37,1579.1999999881,,"
  <table>
  <tr height=300>
    <td width=300 height=300><img src=""static/images/cards/back_of_black_stars.svg"" width=""175px"" height=""250px""></img></td>
    <td width=300 height=300><img src=""static/images/cards/back_of_black_stars.svg"" width=""175px"" height=""250px""></img></td>
  </tr>
  <tr height=200>
    <td width=300><img src=""static/images/keys/z.svg"" width=""35%"" height=""75%""></img></td>
    <td width=300><img src=""static/images/keys/m.svg"" width=""35%"" height=""75%""></img></td>
  </tr>
</table>
  ",77.0,1.0,,,,,,,,,,,,,,,,,,,,,,,,,
34,0,,html-keyboard-response,34,452033,0.0-4.2-2.2,gnvo53gxw5,2022-09-19 15:58:54.688,5dd3d566e05cad3b130de19a,3,56,55,25,37,,,"
  <table>
  <tr height=300>
    <td width=300 height=300><img src=""static/images/cards/back_of_black_stars.svg"" width=""175px"" height=""250px""></img></td>
    <td width=300 height=300><img src=""static/images/cards/7_of_black_stars.svg"" width=""175px"" height=""250px""></img></td>
  </tr>
  <tr height=200>
    <td width=300><img src=""static/images/keys/z.svg"" width=""35%"" height=""75%""></img></td>
    <td width=300><img src=""static/images/keys/m.svg"" width=""35%"" height=""75%""></img></td>
  </tr>
</table>
  ",,,,,,,,,,,,,,,,,,,,,,,,,,,
35,0,,html-keyboard-response,35,453549,0.0-4.2-3.2,gnvo53gxw5,2022-09-19 15:58:54.688,5dd3d566e05cad3b130de19a,3,56,55,25,37,,,"<p style=""font-size:50px"">You win!
+10 points this round!</p>",,,,,,,,,,,,,,,,,,,,,,,,,,,
36,0,,html-keyboard-response,36,454055,0.0-4.2-4.2,gnvo53gxw5,2022-09-19 15:58:54.688,5dd3d566e05cad3b130de19a,3,56,55,25,37,,,,,,1.0,learning,2.0,C,,black,,stars,,,,C,black,stars,,1.0,0.0,NA,right,1579.1999999881,7.0,1.0,1.0,,
37,0,,html-keyboard-response,37,455568,0.0-4.3-0.3,gnvo53gxw5,2022-09-19 15:58:54.688,5dd3d566e05cad3b130de19a,3,56,55,25,37,,,"<img src=""static/images/cards/stack_of_red_stars.svg"" width=""175px"" height=""250px""></img>",,,,,,,,,,,,,,,,,,,,,,,,,,,
38,0,,html-keyboard-response,38,456951,0.0-4.3-1.3,gnvo53gxw5,2022-09-19 15:58:54.688,5dd3d566e05cad3b130de19a,3,56,55,25,37,877.6000000238,,"
  <table>
  <tr height=300>
    <td width=300 height=300><img src=""static/images/cards/back_of_red_stars.svg"" width=""175px"" height=""250px""></img></td>
    <td width=300 height=300><img src=""static/images/cards/back_of_red_stars.svg"" width=""175px"" height=""250px""></img></td>
  </tr>
  <tr height=200>
    <td width=300><img src=""static/images/keys/z.svg"" width=""35%"" height=""75%""></img></td>
    <td width=300></td>
  </tr>
</table>
  ",90.0,1.0,,,,,,,,,,,,,,,,,,,,,,,,,
39,0,,html-keyboard-response,39,458456,0.0-4.3-2.3,gnvo53gxw5,2022-09-19 15:58:54.688,5dd3d566e05cad3b130de19a,3,56,55,25,37,,,"
  <table>
  <tr height=300>
    <td width=300 height=300><img src=""static/images/cards/6_of_red_stars.svg"" width=""175px"" height=""250px""></img></td>
    <td width=300 height=300><img src=""static/images/cards/back_of_red_stars.svg"" width=""175px"" height=""250px""></img></td>
  </tr>
  <tr height=200>
    <td width=300><img src=""static/images/keys/z.svg"" width=""35%"" height=""75%""></img></td>
    <td width=300></td>
  </tr>
</table>
  ",,,,,,,,,,,,,,,,,,,,,,,,,,,
40,0,,html-keyboard-response,40,459969,0.0-4.3-3.3,gnvo53gxw5,2022-09-19 15:58:54.688,5dd3d566e05cad3b130de19a,3,56,55,25,37,,,"<p style=""font-size:50px"">You win!
+10 points this round!</p>",,,,,,,,,,,,,,,,,,,,,,,,,,,
41,0,,html-keyboard-response,41,460487,0.0-4.3-4.3,gnvo53gxw5,2022-09-19 15:58:54.688,5dd3d566e05cad3b130de19a,3,56,55,25,37,,,,,,1.0,learning,3.0,D,,red,,stars,,,,D,red,stars,,0.0,0.0,1,left,877.6000000238,6.0,1.0,1.0,,
42,0,,html-keyboard-response,42,461997,0.0-4.4-0.4,gnvo53gxw5,2022-09-19 15:58:54.688,5dd3d566e05cad3b130de19a,3,56,55,25,37,,,"<img src=""static/images/cards/stack_of_red_bolts.svg"" width=""175px"" height=""250px""></img>",,,,,,,,,,,,,,,,,,,,,,,,,,,
43,0,,html-keyboard-response,43,462880,0.0-4.4-1.4,gnvo53gxw5,2022-09-19 15:58:54.688,5dd3d566e05cad3b130de19a,3,56,55,25,37,372.3000000119,,"
  <table>
  <tr height=300>
    <td width=300 height=300><img src=""static/images/cards/back_of_red_bolts.svg"" width=""175px"" height=""250px""></img></td>
    <td width=300 height=300><img src=""static/images/cards/back_of_red_bolts.svg"" width=""175px"" height=""250px""></img></td>
  </tr>
  <tr height=200>
    <td width=300><img src=""static/images/keys/z.svg"" width=""35%"" height=""75%""></img></td>
    <td width=300><img src=""static/images/keys/m.svg"" width=""35%"" height=""75%""></img></td>
  </tr>
</table>
  ",77.0,1.0,,,,,,,,,,,,,,,,,,,,,,,,,
44,0,,html-keyboard-response,44,464382,0.0-4.4-2.4,gnvo53gxw5,2022-09-19 15:58:54.688,5dd3d566e05cad3b130de19a,3,56,55,25,37,,,"
  <table>
  <tr height=300>
    <td width=300 height=300><img src=""static/images/cards/back_of_red_bolts.svg"" width=""175px"" height=""250px""></img></td>
    <td width=300 height=300><img src=""static/images/cards/3_of_red_bolts.svg"" width=""175px"" height=""250px""></img></td>
  </tr>
  <tr height=200>
    <td width=300><img src=""static/images/keys/z.svg"" width=""35%"" height=""75%""></img></td>
    <td width=300><img src=""static/images/keys/m.svg"" width=""35%"" height=""75%""></img></td>
  </tr>
</table>
  ",,,,,,,,,,,,,,,,,,,,,,,,,,,
45,0,,html-keyboard-response,45,465906,0.0-4.4-3.4,gnvo53gxw5,2022-09-19 15:58:54.688,5dd3d566e05cad3b130de19a,3,56,55,25,37,,,"<p style=""font-size:50px"">You win!
+10 points this round!</p>",,,,,,,,,,,,,,,,,,,,,,,,,,,
46,0,,html-keyboard-response,46,466422,0.0-4.4-4.4,gnvo53gxw5,2022-09-19 15:58:54.688,5dd3d566e05cad3b130de19a,3,56,55,25,37,,,,,,1.0,learning,4.0,Xc,,red,,bolts,,,,Xc,red,bolts,,1.0,0.0,NA,right,372.3000000119,3.0,0.0,1.0,,
47,0,,html-keyboard-response,47,467933,0.0-4.5-0.5,gnvo53gxw5,2022-09-19 15:58:54.688,5dd3d566e05cad3b130de19a,3,56,55,25,37,,,"<img src=""static/images/cards/stack_of_black_bolts.svg"" width=""175px"" height=""250px""></img>",,,,,,,,,,,,,,,,,,,,,,,,,,,
48,0,,html-keyboard-response,48,469327,0.0-4.5-1.5,gnvo53gxw5,2022-09-19 15:58:54.688,5dd3d566e05cad3b130de19a,3,56,55,25,37,883.5,,"
  <table>
  <tr height=300>
    <td width=300 height=300><img src=""static/images/cards/back_of_black_bolts.svg"" width=""175px"" height=""250px""></img></td>
    <td width=300 height=300><img src=""static/images/cards/back_of_black_bolts.svg"" width=""175px"" height=""250px""></img></td>
  </tr>
  <tr height=200>
    <td width=300></td>
    <td width=300><img src=""static/images/keys/m.svg"" width=""35%"" height=""75%""></img></td>
  </tr>
</table>
  ",77.0,2.0,,,,,,,,,,,,,,,,,,,,,,,,,
49,0,,html-keyboard-response,49,470839,0.0-4.5-2.5,gnvo53gxw5,2022-09-19 15:58:54.688,5dd3d566e05cad3b130de19a,3,56,55,25,37,,,"
  <table>
  <tr height=300>
    <td width=300 height=300><img src=""static/images/cards/back_of_black_bolts.svg"" width=""175px"" height=""250px""></img></td>
    <td width=300 height=300><img src=""static/images/cards/7_of_black_bolts.svg"" width=""175px"" height=""250px""></img></td>
  </tr>
  <tr height=200>
    <td width=300></td>
    <td width=300><img src=""static/images/keys/m.svg"" width=""35%"" height=""75%""></img></td>
  </tr>
</table>
  ",,,,,,,,,,,,,,,,,,,,,,,,,,,
50,0,,html-keyboard-response,50,472353,0.0-4.5-3.5,gnvo53gxw5,2022-09-19 15:58:54.688,5dd3d566e05cad3b130de19a,3,56,55,25,37,,,"<p style=""font-size:50px"">You win!
+10 points this round!</p>",,,,,,,,,,,,,,,,,,,,,,,,,,,
51,0,,html-keyboard-response,51,472868,0.0-4.5-4.5,gnvo53gxw5,2022-09-19 15:58:54.688,5dd3d566e05cad3b130de19a,3,56,55,25,37,,,,,,1.0,learning,5.0,Xnc,,black,,bolts,,,,Xnc,black,bolts,,0.0,0.0,0,right,883.5,7.0,1.0,1.0,,
52,0,,html-keyboard-response,52,474373,0.0-4.6-0.6,gnvo53gxw5,2022-09-19 15:58:54.688,5dd3d566e05cad3b130de19a,3,56,55,25,37,,,"<img src=""static/images/cards/stack_of_black_moons.svg"" width=""175px"" height=""250px""></img>",,,,,,,,,,,,,,,,,,,,,,,,,,,
53,0,,html-keyboard-response,53,476351,0.0-4.6-1.6,gnvo53gxw5,2022-09-19 15:58:54.688,5dd3d566e05cad3b130de19a,3,56,55,25,37,1466.5,,"
  <table>
  <tr height=300>
    <td width=300 height=300><img src=""static/images/cards/back_of_black_moons.svg"" width=""175px"" height=""250px""></img></td>
    <td width=300 height=300><img src=""static/images/cards/back_of_black_moons.svg"" width=""175px"" height=""250px""></img></td>
  </tr>
  <tr height=200>
    <td width=300><img src=""static/images/keys/z.svg"" width=""35%"" height=""75%""></img></td>
    <td width=300><img src=""static/images/keys/m.svg"" width=""35%"" height=""75%""></img></td>
  </tr>
</table>
  ",77.0,1.0,,,,,,,,,,,,,,,,,,,,,,,,,
54,0,,html-keyboard-response,54,477863,0.0-4.6-2.6,gnvo53gxw5,2022-09-19 15:58:54.688,5dd3d566e05cad3b130de19a,3,56,55,25,37,,,"
  <table>
  <tr height=300>
    <td width=300 height=300><img src=""static/images/cards/back_of_black_moons.svg"" width=""175px"" height=""250px""></img></td>
    <td width=300 height=300><img src=""static/images/cards/2_of_black_moons.svg"" width=""175px"" height=""250px""></img></td>
  </tr>
  <tr height=200>
    <td width=300><img src=""static/images/keys/z.svg"" width=""35%"" height=""75%""></img></td>
    <td width=300><img src=""static/images/keys/m.svg"" width=""35%"" height=""75%""></img></td>
  </tr>
</table>
  ",,,,,,,,,,,,,,,,,,,,,,,,,,,
55,0,,html-keyboard-response,55,479376,0.0-4.6-3.6,gnvo53gxw5,2022-09-19 15:58:54.688,5dd3d566e05cad3b130de19a,3,56,55,25,37,,,"<p style=""font-size:50px"">You Lose!
No points this round.</p>",,,,,,,,,,,,,,,,,,,,,,,,,,,
56,0,,html-keyboard-response,56,479891,0.0-4.6-4.6,gnvo53gxw5,2022-09-19 15:58:54.688,5dd3d566e05cad3b130de19a,3,56,55,25,37,,,,,,1.0,learning,6.0,A,,black,,moons,,,,A,black,moons,,1.0,1.0,NA,right,1466.5,2.0,0.0,0.0,,
57,0,,html-keyboard-response,57,481394,0.0-4.7-0.7,gnvo53gxw5,2022-09-19 15:58:54.688,5dd3d566e05cad3b130de19a,3,56,55,25,37,,,"<img src=""static/images/cards/stack_of_red_moons.svg"" width=""175px"" height=""250px""></img>",,,,,,,,,,,,,,,,,,,,,,,,,,,
58,0,,html-keyboard-response,58,483479,0.0-4.7-1.7,gnvo53gxw5,2022-09-19 15:58:54.688,5dd3d566e05cad3b130de19a,3,56,55,25,37,1583.1000000238,,"
  <table>
  <tr height=300>
    <td width=300 height=300><img src=""static/images/cards/back_of_red_moons.svg"" width=""175px"" height=""250px""></img></td>
    <td width=300 height=300><img src=""static/images/cards/back_of_red_moons.svg"" width=""175px"" height=""250px""></img></td>
  </tr>
  <tr height=200>
    <td width=300><img src=""static/images/keys/z.svg"" width=""35%"" height=""75%""></img></td>
    <td width=300></td>
  </tr>
</table>
  ",90.0,1.0,,,,,,,,,,,,,,,,,,,,,,,,,
59,0,,html-keyboard-response,59,484989,0.0-4.7-2.7,gnvo53gxw5,2022-09-19 15:58:54.688,5dd3d566e05cad3b130de19a,3,56,55,25,37,,,"
  <table>
  <tr height=300>
    <td width=300 height=300><img src=""static/images/cards/4_of_red_moons.svg"" width=""175px"" height=""250px""></img></td>
    <td width=300 height=300><img src=""static/images/cards/back_of_red_moons.svg"" width=""175px"" height=""250px""></img></td>
  </tr>
  <tr height=200>
    <td width=300><img src=""static/images/keys/z.svg"" width=""35%"" height=""75%""></img></td>
    <td width=300></td>
  </tr>
</table>
  ",,,,,,,,,,,,,,,,,,,,,,,,,,,
60,0,,html-keyboard-response,60,486504,0.0-4.7-3.7,gnvo53gxw5,2022-09-19 15:58:54.688,5dd3d566e05cad3b130de19a,3,56,55,25,37,,,"<p style=""font-size:50px"">You Lose!
No points this round.</p>",,,,,,,,,,,,,,,,,,,,,,,,,,,
61,0,,html-keyboard-response,61,487018,0.0-4.7-4.7,gnvo53gxw5,2022-09-19 15:58:54.688,5dd3d566e05cad3b130de19a,3,56,55,25,37,,,,,,1.0,learning,7.0,B,,red,,moons,,,,B,red,moons,,0.0,1.0,1,left,1583.1000000238,4.0,0.0,0.0,,
62,0,,html-keyboard-response,62,488531,0.0-4.8-0.8,gnvo53gxw5,2022-09-19 15:58:54.688,5dd3d566e05cad3b130de19a,3,56,55,25,37,,,"<img src=""static/images/cards/stack_of_black_stars.svg"" width=""175px"" height=""250px""></img>",,,,,,,,,,,,,,,,,,,,,,,,,,,
63,0,,html-keyboard-response,63,489768,0.0-4.8-1.8,gnvo53gxw5,2022-09-19 15:58:54.688,5dd3d566e05cad3b130de19a,3,56,55,25,37,727.599999994,,"
  <table>
  <tr height=300>
    <td width=300 height=300><img src=""static/images/cards/back_of_black_stars.svg"" width=""175px"" height=""250px""></img></td>
    <td width=300 height=300><img src=""static/images/cards/back_of_black_stars.svg"" width=""175px"" height=""250px""></img></td>
  </tr>
  <tr height=200>
    <td width=300><img src=""static/images/keys/z.svg"" width=""35%"" height=""75%""></img></td>
    <td width=300><img src=""static/images/keys/m.svg"" width=""35%"" height=""75%""></img></td>
  </tr>
</table>
  ",77.0,1.0,,,,,,,,,,,,,,,,,,,,,,,,,
64,0,,html-keyboard-response,64,491279,0.0-4.8-2.8,gnvo53gxw5,2022-09-19 15:58:54.688,5dd3d566e05cad3b130de19a,3,56,55,25,37,,,"
  <table>
  <tr height=300>
    <td width=300 height=300><img src=""static/images/cards/back_of_black_stars.svg"" width=""175px"" height=""250px""></img></td>
    <td width=300 height=300><img src=""static/images/cards/1_of_black_stars.svg"" width=""175px"" height=""250px""></img></td>
  </tr>
  <tr height=200>
    <td width=300><img src=""static/images/keys/z.svg"" width=""35%"" height=""75%""></img></td>
    <td width=300><img src=""static/images/keys/m.svg"" width=""35%"" height=""75%""></img></td>
  </tr>
</table>
  ",,,,,,,,,,,,,,,,,,,,,,,,,,,
65,0,,html-keyboard-response,65,492793,0.0-4.8-3.8,gnvo53gxw5,2022-09-19 15:58:54.688,5dd3d566e05cad3b130de19a,3,56,55,25,37,,,"<p style=""font-size:50px"">You Lose!
No points this round.</p>",,,,,,,,,,,,,,,,,,,,,,,,,,,
66,0,,html-keyboard-response,66,493311,0.0-4.8-4.8,gnvo53gxw5,2022-09-19 15:58:54.688,5dd3d566e05cad3b130de19a,3,56,55,25,37,,,,,,1.0,learning,8.0,C,,black,,stars,,,,C,black,stars,,1.0,0.0,NA,right,727.599999994,1.0,0.0,0.0,,
67,0,,html-keyboard-response,67,494813,0.0-4.9-0.9,gnvo53gxw5,2022-09-19 15:58:54.688,5dd3d566e05cad3b130de19a,3,56,55,25,37,,,"<img src=""static/images/cards/stack_of_red_stars.svg"" width=""175px"" height=""250px""></img>",,,,,,,,,,,,,,,,,,,,,,,,,,,
68,0,,html-keyboard-response,68,495951,0.0-4.9-1.9,gnvo53gxw5,2022-09-19 15:58:54.688,5dd3d566e05cad3b130de19a,3,56,55,25,37,632.900000006,,"
  <table>
  <tr height=300>
    <td width=300 height=300><img src=""static/images/cards/back_of_red_stars.svg"" width=""175px"" height=""250px""></img></td>
    <td width=300 height=300><img src=""static/images/cards/back_of_red_stars.svg"" width=""175px"" height=""250px""></img></td>
  </tr>
  <tr height=200>
    <td width=300></td>
    <td width=300><img src=""static/images/keys/m.svg"" width=""35%"" height=""75%""></img></td>
  </tr>
</table>
  ",77.0,1.0,,,,,,,,,,,,,,,,,,,,,,,,,
69,0,,html-keyboard-response,69,497463,0.0-4.9-2.9,gnvo53gxw5,2022-09-19 15:58:54.688,5dd3d566e05cad3b130de19a,3,56,55,25,37,,,"
  <table>
  <tr height=300>
    <td width=300 height=300><img src=""static/images/cards/back_of_red_stars.svg"" width=""175px"" height=""250px""></img></td>
    <td width=300 height=300><img src=""static/images/cards/8_of_red_stars.svg"" width=""175px"" height=""250px""></img></td>
  </tr>
  <tr height=200>
    <td width=300></td>
    <td width=300><img src=""static/images/keys/m.svg"" width=""35%"" height=""75%""></img></td>
  </tr>
</table>
  ",,,,,,,,,,,,,,,,,,,,,,,,,,,
70,0,,html-keyboard-response,70,498976,0.0-4.9-3.9,gnvo53gxw5,2022-09-19 15:58:54.688,5dd3d566e05cad3b130de19a,3,56,55,25,37,,,"<p style=""font-size:50px"">You Lose!
No points this round.</p>",,,,,,,,,,,,,,,,,,,,,,,,,,,
71,0,,html-keyboard-response,71,499483,0.0-4.9-4.9,gnvo53gxw5,2022-09-19 15:58:54.688,5dd3d566e05cad3b130de19a,3,56,55,25,37,,,,,,1.0,learning,9.0,D,,red,,stars,,,,D,red,stars,,0.0,0.0,0,right,632.900000006,8.0,1.0,0.0,,
72,0,,html-keyboard-response,72,500999,0.0-4.10-0.10,gnvo53gxw5,2022-09-19 15:58:54.688,5dd3d566e05cad3b130de19a,3,56,55,25,37,,,"<img src=""static/images/cards/stack_of_red_bolts.svg"" width=""175px"" height=""250px""></img>",,,,,,,,,,,,,,,,,,,,,,,,,,,
73,0,,html-keyboard-response,73,501919,0.0-4.10-1.10,gnvo53gxw5,2022-09-19 15:58:54.688,5dd3d566e05cad3b130de19a,3,56,55,25,37,406.599999994,,"
  <table>
  <tr height=300>
    <td width=300 height=300><img src=""static/images/cards/back_of_red_bolts.svg"" width=""175px"" height=""250px""></img></td>
    <td width=300 height=300><img src=""static/images/cards/back_of_red_bolts.svg"" width=""175px"" height=""250px""></img></td>
  </tr>
  <tr height=200>
    <td width=300><img src=""static/images/keys/z.svg"" width=""35%"" height=""75%""></img></td>
    <td width=300><img src=""static/images/keys/m.svg"" width=""35%"" height=""75%""></img></td>
  </tr>
</table>
  ",90.0,1.0,,,,,,,,,,,,,,,,,,,,,,,,,
74,0,,html-keyboard-response,74,503429,0.0-4.10-2.10,gnvo53gxw5,2022-09-19 15:58:54.688,5dd3d566e05cad3b130de19a,3,56,55,25,37,,,"
  <table>
  <tr height=300>
    <td width=300 height=300><img src=""static/images/cards/3_of_red_bolts.svg"" width=""175px"" height=""250px""></img></td>
    <td width=300 height=300><img src=""static/images/cards/back_of_red_bolts.svg"" width=""175px"" height=""250px""></img></td>
  </tr>
  <tr height=200>
    <td width=300><img src=""static/images/keys/z.svg"" width=""35%"" height=""75%""></img></td>
    <td width=300><img src=""static/images/keys/m.svg"" width=""35%"" height=""75%""></img></td>
  </tr>
</table>
  ",,,,,,,,,,,,,,,,,,,,,,,,,,,
75,0,,html-keyboard-response,75,504941,0.0-4.10-3.10,gnvo53gxw5,2022-09-19 15:58:54.688,5dd3d566e05cad3b130de19a,3,56,55,25,37,,,"<p style=""font-size:50px"">You win!
+10 points this round!</p>",,,,,,,,,,,,,,,,,,,,,,,,,,,
76,0,,html-keyboard-response,76,505447,0.0-4.10-4.10,gnvo53gxw5,2022-09-19 15:58:54.688,5dd3d566e05cad3b130de19a,3,56,55,25,37,,,,,,1.0,learning,10.0,Xc,,red,,bolts,,,,Xc,red,bolts,,1.0,0.0,NA,left,406.599999994,3.0,0.0,1.0,,
77,0,,html-keyboard-response,77,506956,0.0-4.11-0.11,gnvo53gxw5,2022-09-19 15:58:54.688,5dd3d566e05cad3b130de19a,3,56,55,25,37,,,"<img src=""static/images/cards/stack_of_black_bolts.svg"" width=""175px"" height=""250px""></img>",,,,,,,,,,,,,,,,,,,,,,,,,,,
78,0,,html-keyboard-response,78,508095,0.0-4.11-1.11,gnvo53gxw5,2022-09-19 15:58:54.688,5dd3d566e05cad3b130de19a,3,56,55,25,37,631.1000000238,,"
  <table>
  <tr height=300>
    <td width=300 height=300><img src=""static/images/cards/back_of_black_bolts.svg"" width=""175px"" height=""250px""></img></td>
    <td width=300 height=300><img src=""static/images/cards/back_of_black_bolts.svg"" width=""175px"" height=""250px""></img></td>
  </tr>
  <tr height=200>
    <td width=300></td>
    <td width=300><img src=""static/images/keys/m.svg"" width=""35%"" height=""75%""></img></td>
  </tr>
</table>
  ",77.0,1.0,,,,,,,,,,,,,,,,,,,,,,,,,
79,0,,html-keyboard-response,79,509598,0.0-4.11-2.11,gnvo53gxw5,2022-09-19 15:58:54.688,5dd3d566e05cad3b130de19a,3,56,55,25,37,,,"
  <table>
  <tr height=300>
    <td width=300 height=300><img src=""static/images/cards/back_of_black_bolts.svg"" width=""175px"" height=""250px""></img></td>
    <td width=300 height=300><img src=""static/images/cards/8_of_black_bolts.svg"" width=""175px"" height=""250px""></img></td>
  </tr>
  <tr height=200>
    <td width=300></td>
    <td width=300><img src=""static/images/keys/m.svg"" width=""35%"" height=""75%""></img></td>
  </tr>
</table>
  ",,,,,,,,,,,,,,,,,,,,,,,,,,,
80,0,,html-keyboard-response,80,511118,0.0-4.11-3.11,gnvo53gxw5,2022-09-19 15:58:54.688,5dd3d566e05cad3b130de19a,3,56,55,25,37,,,"<p style=""font-size:50px"">You win!
+10 points this round!</p>",,,,,,,,,,,,,,,,,,,,,,,,,,,
81,0,,html-keyboard-response,81,511633,0.0-4.11-4.11,gnvo53gxw5,2022-09-19 15:58:54.688,5dd3d566e05cad3b130de19a,3,56,55,25,37,,,,,,1.0,learning,11.0,Xnc,,black,,bolts,,,,Xnc,black,bolts,,0.0,0.0,0,right,631.1000000238,8.0,1.0,1.0,,
82,0,,html-keyboard-response,82,513145,0.0-4.12-0.12,gnvo53gxw5,2022-09-19 15:58:54.688,5dd3d566e05cad3b130de19a,3,56,55,25,37,,,"<img src=""static/images/cards/stack_of_black_moons.svg"" width=""175px"" height=""250px""></img>",,,,,,,,,,,,,,,,,,,,,,,,,,,
83,0,,html-keyboard-response,83,514799,0.0-4.12-1.12,gnvo53gxw5,2022-09-19 15:58:54.688,5dd3d566e05cad3b130de19a,3,56,55,25,37,1150.400000006,,"
  <table>
  <tr height=300>
    <td width=300 height=300><img src=""static/images/cards/back_of_black_moons.svg"" width=""175px"" height=""250px""></img></td>
    <td width=300 height=300><img src=""static/images/cards/back_of_black_moons.svg"" width=""175px"" height=""250px""></img></td>
  </tr>
  <tr height=200>
    <td width=300><img src=""static/images/keys/z.svg"" width=""35%"" height=""75%""></img></td>
    <td width=300><img src=""static/images/keys/m.svg"" width=""35%"" height=""75%""></img></td>
  </tr>
</table>
  ",77.0,1.0,,,,,,,,,,,,,,,,,,,,,,,,,
84,0,,html-keyboard-response,84,516311,0.0-4.12-2.12,gnvo53gxw5,2022-09-19 15:58:54.688,5dd3d566e05cad3b130de19a,3,56,55,25,37,,,"
  <table>
  <tr height=300>
    <td width=300 height=300><img src=""static/images/cards/back_of_black_moons.svg"" width=""175px"" height=""250px""></img></td>
    <td width=300 height=300><img src=""static/images/cards/6_of_black_moons.svg"" width=""175px"" height=""250px""></img></td>
  </tr>
  <tr height=200>
    <td width=300><img src=""static/images/keys/z.svg"" width=""35%"" height=""75%""></img></td>
    <td width=300><img src=""static/images/keys/m.svg"" width=""35%"" height=""75%""></img></td>
  </tr>
</table>
  ",,,,,,,,,,,,,,,,,,,,,,,,,,,
85,0,,html-keyboard-response,85,517824,0.0-4.12-3.12,gnvo53gxw5,2022-09-19 15:58:54.688,5dd3d566e05cad3b130de19a,3,56,55,25,37,,,"<p style=""font-size:50px"">You win!
+10 points this round!</p>",,,,,,,,,,,,,,,,,,,,,,,,,,,
86,0,,html-keyboard-response,86,518338,0.0-4.12-4.12,gnvo53gxw5,2022-09-19 15:58:54.688,5dd3d566e05cad3b130de19a,3,56,55,25,37,,,,,,1.0,learning,12.0,A,,black,,moons,,,,A,black,moons,,1.0,1.0,NA,right,1150.400000006,6.0,1.0,1.0,,
87,0,,html-keyboard-response,87,519843,0.0-4.13-0.13,gnvo53gxw5,2022-09-19 15:58:54.688,5dd3d566e05cad3b130de19a,3,56,55,25,37,,,"<img src=""static/images/cards/stack_of_red_moons.svg"" width=""175px"" height=""250px""></img>",,,,,,,,,,,,,,,,,,,,,,,,,,,
88,0,,html-keyboard-response,88,520999,0.0-4.13-1.13,gnvo53gxw5,2022-09-19 15:58:54.688,5dd3d566e05cad3b130de19a,3,56,55,25,37,649.3000000119,,"
  <table>
  <tr height=300>
    <td width=300 height=300><img src=""static/images/cards/back_of_red_moons.svg"" width=""175px"" height=""250px""></img></td>
    <td width=300 height=300><img src=""static/images/cards/back_of_red_moons.svg"" width=""175px"" height=""250px""></img></td>
  </tr>
  <tr height=200>
    <td width=300><img src=""static/images/keys/z.svg"" width=""35%"" height=""75%""></img></td>
    <td width=300></td>
  </tr>
</table>
  ",90.0,1.0,,,,,,,,,,,,,,,,,,,,,,,,,
89,0,,html-keyboard-response,89,522509,0.0-4.13-2.13,gnvo53gxw5,2022-09-19 15:58:54.688,5dd3d566e05cad3b130de19a,3,56,55,25,37,,,"
  <table>
  <tr height=300>
    <td width=300 height=300><img src=""static/images/cards/7_of_red_moons.svg"" width=""175px"" height=""250px""></img></td>
    <td width=300 height=300><img src=""static/images/cards/back_of_red_moons.svg"" width=""175px"" height=""250px""></img></td>
  </tr>
  <tr height=200>
    <td width=300><img src=""static/images/keys/z.svg"" width=""35%"" height=""75%""></img></td>
    <td width=300></td>
  </tr>
</table>
  ",,,,,,,,,,,,,,,,,,,,,,,,,,,
90,0,,html-keyboard-response,90,524025,0.0-4.13-3.13,gnvo53gxw5,2022-09-19 15:58:54.688,5dd3d566e05cad3b130de19a,3,56,55,25,37,,,"<p style=""font-size:50px"">You win!
+10 points this round!</p>",,,,,,,,,,,,,,,,,,,,,,,,,,,
91,0,,html-keyboard-response,91,524533,0.0-4.13-4.13,gnvo53gxw5,2022-09-19 15:58:54.688,5dd3d566e05cad3b130de19a,3,56,55,25,37,,,,,,1.0,learning,13.0,B,,red,,moons,,,,B,red,moons,,0.0,1.0,1,left,649.3000000119,7.0,1.0,1.0,,
92,0,,html-keyboard-response,92,526043,0.0-4.14-0.14,gnvo53gxw5,2022-09-19 15:58:54.688,5dd3d566e05cad3b130de19a,3,56,55,25,37,,,"<img src=""static/images/cards/stack_of_black_stars.svg"" width=""175px"" height=""250px""></img>",,,,,,,,,,,,,,,,,,,,,,,,,,,
93,0,,html-keyboard-response,93,527447,0.0-4.14-1.14,gnvo53gxw5,2022-09-19 15:58:54.688,5dd3d566e05cad3b130de19a,3,56,55,25,37,888.1000000238,,"
  <table>
  <tr height=300>
    <td width=300 height=300><img src=""static/images/cards/back_of_black_stars.svg"" width=""175px"" height=""250px""></img></td>
    <td width=300 height=300><img src=""static/images/cards/back_of_black_stars.svg"" width=""175px"" height=""250px""></img></td>
  </tr>
  <tr height=200>
    <td width=300><img src=""static/images/keys/z.svg"" width=""35%"" height=""75%""></img></td>
    <td width=300><img src=""static/images/keys/m.svg"" width=""35%"" height=""75%""></img></td>
  </tr>
</table>
  ",77.0,1.0,,,,,,,,,,,,,,,,,,,,,,,,,
94,0,,html-keyboard-response,94,528958,0.0-4.14-2.14,gnvo53gxw5,2022-09-19 15:58:54.688,5dd3d566e05cad3b130de19a,3,56,55,25,37,,,"
  <table>
  <tr height=300>
    <td width=300 height=300><img src=""static/images/cards/back_of_black_stars.svg"" width=""175px"" height=""250px""></img></td>
    <td width=300 height=300><img src=""static/images/cards/3_of_black_stars.svg"" width=""175px"" height=""250px""></img></td>
  </tr>
  <tr height=200>
    <td width=300><img src=""static/images/keys/z.svg"" width=""35%"" height=""75%""></img></td>
    <td width=300><img src=""static/images/keys/m.svg"" width=""35%"" height=""75%""></img></td>
  </tr>
</table>
  ",,,,,,,,,,,,,,,,,,,,,,,,,,,
95,0,,html-keyboard-response,95,530483,0.0-4.14-3.14,gnvo53gxw5,2022-09-19 15:58:54.688,5dd3d566e05cad3b130de19a,3,56,55,25,37,,,"<p style=""font-size:50px"">You win!
+10 points this round!</p>",,,,,,,,,,,,,,,,,,,,,,,,,,,
96,0,,html-keyboard-response,96,530999,0.0-4.14-4.14,gnvo53gxw5,2022-09-19 15:58:54.688,5dd3d566e05cad3b130de19a,3,56,55,25,37,,,,,,1.0,learning,14.0,C,,black,,stars,,,,C,black,stars,,1.0,0.0,NA,right,888.1000000238,3.0,0.0,1.0,,
97,0,,html-keyboard-response,97,532501,0.0-4.15-0.15,gnvo53gxw5,2022-09-19 15:58:54.688,5dd3d566e05cad3b130de19a,3,56,55,25,37,,,"<img src=""static/images/cards/stack_of_red_stars.svg"" width=""175px"" height=""250px""></img>",,,,,,,,,,,,,,,,,,,,,,,,,,,
98,0,,html-keyboard-response,98,533639,0.0-4.15-1.15,gnvo53gxw5,2022-09-19 15:58:54.688,5dd3d566e05cad3b130de19a,3,56,55,25,37,625.7000000179,,"
  <table>
  <tr height=300>
    <td width=300 height=300><img src=""static/images/cards/back_of_red_stars.svg"" width=""175px"" height=""250px""></img></td>
    <td width=300 height=300><img src=""static/images/cards/back_of_red_stars.svg"" width=""175px"" height=""250px""></img></td>
  </tr>
  <tr height=200>
    <td width=300><img src=""static/images/keys/z.svg"" width=""35%"" height=""75%""></img></td>
    <td width=300></td>
  </tr>
</table>
  ",90.0,1.0,,,,,,,,,,,,,,,,,,,,,,,,,
99,0,,html-keyboard-response,99,535151,0.0-4.15-2.15,gnvo53gxw5,2022-09-19 15:58:54.688,5dd3d566e05cad3b130de19a,3,56,55,25,37,,,"
  <table>
  <tr height=300>
    <td width=300 height=300><img src=""static/images/cards/4_of_red_stars.svg"" width=""175px"" height=""250px""></img></td>
    <td width=300 height=300><img src=""static/images/cards/back_of_red_stars.svg"" width=""175px"" height=""250px""></img></td>
  </tr>
  <tr height=200>
    <td width=300><img src=""static/images/keys/z.svg"" width=""35%"" height=""75%""></img></td>
    <td width=300></td>
  </tr>
</table>
  ",,,,,,,,,,,,,,,,,,,,,,,,,,,
100,0,,html-keyboard-response,100,536668,0.0-4.15-3.15,gnvo53gxw5,2022-09-19 15:58:54.688,5dd3d566e05cad3b130de19a,3,56,55,25,37,,,"<p style=""font-size:50px"">You win!
+10 points this round!</p>",,,,,,,,,,,,,,,,,,,,,,,,,,,
101,0,,html-keyboard-response,101,537184,0.0-4.15-4.15,gnvo53gxw5,2022-09-19 15:58:54.688,5dd3d566e05cad3b130de19a,3,56,55,25,37,,,,,,1.0,learning,15.0,D,,red,,stars,,,,D,red,stars,,0.0,0.0,1,left,625.7000000179,4.0,0.0,1.0,,
102,0,,html-keyboard-response,102,538690,0.0-4.16-0.16,gnvo53gxw5,2022-09-19 15:58:54.688,5dd3d566e05cad3b130de19a,3,56,55,25,37,,,"<img src=""static/images/cards/stack_of_red_bolts.svg"" width=""175px"" height=""250px""></img>",,,,,,,,,,,,,,,,,,,,,,,,,,,
103,0,,html-keyboard-response,103,540135,0.0-4.16-1.16,gnvo53gxw5,2022-09-19 15:58:54.688,5dd3d566e05cad3b130de19a,3,56,55,25,37,935.3000000119,,"
  <table>
  <tr height=300>
    <td width=300 height=300><img src=""static/images/cards/back_of_red_bolts.svg"" width=""175px"" height=""250px""></img></td>
    <td width=300 height=300><img src=""static/images/cards/back_of_red_bolts.svg"" width=""175px"" height=""250px""></img></td>
  </tr>
  <tr height=200>
    <td width=300><img src=""static/images/keys/z.svg"" width=""35%"" height=""75%""></img></td>
    <td width=300><img src=""static/images/keys/m.svg"" width=""35%"" height=""75%""></img></td>
  </tr>
</table>
  ",77.0,1.0,,,,,,,,,,,,,,,,,,,,,,,,,
104,0,,html-keyboard-response,104,541644,0.0-4.16-2.16,gnvo53gxw5,2022-09-19 15:58:54.688,5dd3d566e05cad3b130de19a,3,56,55,25,37,,,"
  <table>
  <tr height=300>
    <td width=300 height=300><img src=""static/images/cards/back_of_red_bolts.svg"" width=""175px"" height=""250px""></img></td>
    <td width=300 height=300><img src=""static/images/cards/8_of_red_bolts.svg"" width=""175px"" height=""250px""></img></td>
  </tr>
  <tr height=200>
    <td width=300><img src=""static/images/keys/z.svg"" width=""35%"" height=""75%""></img></td>
    <td width=300><img src=""static/images/keys/m.svg"" width=""35%"" height=""75%""></img></td>
  </tr>
</table>
  ",,,,,,,,,,,,,,,,,,,,,,,,,,,
105,0,,html-keyboard-response,105,543163,0.0-4.16-3.16,gnvo53gxw5,2022-09-19 15:58:54.688,5dd3d566e05cad3b130de19a,3,56,55,25,37,,,"<p style=""font-size:50px"">You win!
+10 points this round!</p>",,,,,,,,,,,,,,,,,,,,,,,,,,,
106,0,,html-keyboard-response,106,543679,0.0-4.16-4.16,gnvo53gxw5,2022-09-19 15:58:54.688,5dd3d566e05cad3b130de19a,3,56,55,25,37,,,,,,1.0,learning,16.0,Xc,,red,,bolts,,,,Xc,red,bolts,,1.0,0.0,NA,right,935.3000000119,8.0,1.0,1.0,,
107,0,,html-keyboard-response,107,545190,0.0-4.17-0.17,gnvo53gxw5,2022-09-19 15:58:54.688,5dd3d566e05cad3b130de19a,3,56,55,25,37,,,"<img src=""static/images/cards/stack_of_black_bolts.svg"" width=""175px"" height=""250px""></img>",,,,,,,,,,,,,,,,,,,,,,,,,,,
108,0,,html-keyboard-response,108,545984,0.0-4.17-1.17,gnvo53gxw5,2022-09-19 15:58:54.688,5dd3d566e05cad3b130de19a,3,56,55,25,37,281.6999999881,,"
  <table>
  <tr height=300>
    <td width=300 height=300><img src=""static/images/cards/back_of_black_bolts.svg"" width=""175px"" height=""250px""></img></td>
    <td width=300 height=300><img src=""static/images/cards/back_of_black_bolts.svg"" width=""175px"" height=""250px""></img></td>
  </tr>
  <tr height=200>
    <td width=300><img src=""static/images/keys/z.svg"" width=""35%"" height=""75%""></img></td>
    <td width=300></td>
  </tr>
</table>
  ",90.0,1.0,,,,,,,,,,,,,,,,,,,,,,,,,
109,0,,html-keyboard-response,109,547490,0.0-4.17-2.17,gnvo53gxw5,2022-09-19 15:58:54.688,5dd3d566e05cad3b130de19a,3,56,55,25,37,,,"
  <table>
  <tr height=300>
    <td width=300 height=300><img src=""static/images/cards/4_of_black_bolts.svg"" width=""175px"" height=""250px""></img></td>
    <td width=300 height=300><img src=""static/images/cards/back_of_black_bolts.svg"" width=""175px"" height=""250px""></img></td>
  </tr>
  <tr height=200>
    <td width=300><img src=""static/images/keys/z.svg"" width=""35%"" height=""75%""></img></td>
    <td width=300></td>
  </tr>
</table>
  ",,,,,,,,,,,,,,,,,,,,,,,,,,,
110,0,,html-keyboard-response,110,549007,0.0-4.17-3.17,gnvo53gxw5,2022-09-19 15:58:54.688,5dd3d566e05cad3b130de19a,3,56,55,25,37,,,"<p style=""font-size:50px"">You win!
+10 points this round!</p>",,,,,,,,,,,,,,,,,,,,,,,,,,,
111,0,,html-keyboard-response,111,549516,0.0-4.17-4.17,gnvo53gxw5,2022-09-19 15:58:54.688,5dd3d566e05cad3b130de19a,3,56,55,25,37,,,,,,1.0,learning,17.0,Xnc,,black,,bolts,,,,Xnc,black,bolts,,0.0,0.0,1,left,281.6999999881,4.0,0.0,1.0,,
112,0,,html-keyboard-response,112,551019,0.0-4.18-0.18,gnvo53gxw5,2022-09-19 15:58:54.688,5dd3d566e05cad3b130de19a,3,56,55,25,37,,,"<img src=""static/images/cards/stack_of_black_moons.svg"" width=""175px"" height=""250px""></img>",,,,,,,,,,,,,,,,,,,,,,,,,,,
113,0,,html-keyboard-response,113,552560,0.0-4.18-1.18,gnvo53gxw5,2022-09-19 15:58:54.688,5dd3d566e05cad3b130de19a,3,56,55,25,37,1037.1999999881,,"
  <table>
  <tr height=300>
    <td width=300 height=300><img src=""static/images/cards/back_of_black_moons.svg"" width=""175px"" height=""250px""></img></td>
    <td width=300 height=300><img src=""static/images/cards/back_of_black_moons.svg"" width=""175px"" height=""250px""></img></td>
  </tr>
  <tr height=200>
    <td width=300><img src=""static/images/keys/z.svg"" width=""35%"" height=""75%""></img></td>
    <td width=300><img src=""static/images/keys/m.svg"" width=""35%"" height=""75%""></img></td>
  </tr>
</table>
  ",90.0,1.0,,,,,,,,,,,,,,,,,,,,,,,,,
114,0,,html-keyboard-response,114,554061,0.0-4.18-2.18,gnvo53gxw5,2022-09-19 15:58:54.688,5dd3d566e05cad3b130de19a,3,56,55,25,37,,,"
  <table>
  <tr height=300>
    <td width=300 height=300><img src=""static/images/cards/2_of_black_moons.svg"" width=""175px"" height=""250px""></img></td>
    <td width=300 height=300><img src=""static/images/cards/back_of_black_moons.svg"" width=""175px"" height=""250px""></img></td>
  </tr>
  <tr height=200>
    <td width=300><img src=""static/images/keys/z.svg"" width=""35%"" height=""75%""></img></td>
    <td width=300><img src=""static/images/keys/m.svg"" width=""35%"" height=""75%""></img></td>
  </tr>
</table>
  ",,,,,,,,,,,,,,,,,,,,,,,,,,,
115,0,,html-keyboard-response,115,555569,0.0-4.18-3.18,gnvo53gxw5,2022-09-19 15:58:54.688,5dd3d566e05cad3b130de19a,3,56,55,25,37,,,"<p style=""font-size:50px"">You Lose!
No points this round.</p>",,,,,,,,,,,,,,,,,,,,,,,,,,,
116,0,,html-keyboard-response,116,556082,0.0-4.18-4.18,gnvo53gxw5,2022-09-19 15:58:54.688,5dd3d566e05cad3b130de19a,3,56,55,25,37,,,,,,1.0,learning,18.0,A,,black,,moons,,,,A,black,moons,,1.0,1.0,NA,left,1037.1999999881,2.0,0.0,0.0,,
117,0,,html-keyboard-response,117,557590,0.0-4.19-0.19,gnvo53gxw5,2022-09-19 15:58:54.688,5dd3d566e05cad3b130de19a,3,56,55,25,37,,,"<img src=""static/images/cards/stack_of_red_moons.svg"" width=""175px"" height=""250px""></img>",,,,,,,,,,,,,,,,,,,,,,,,,,,
118,0,,html-keyboard-response,118,558871,0.0-4.19-1.19,gnvo53gxw5,2022-09-19 15:58:54.688,5dd3d566e05cad3b130de19a,3,56,55,25,37,769.5,,"
  <table>
  <tr height=300>
    <td width=300 height=300><img src=""static/images/cards/back_of_red_moons.svg"" width=""175px"" height=""250px""></img></td>
    <td width=300 height=300><img src=""static/images/cards/back_of_red_moons.svg"" width=""175px"" height=""250px""></img></td>
  </tr>
  <tr height=200>
    <td width=300><img src=""static/images/keys/z.svg"" width=""35%"" height=""75%""></img></td>
    <td width=300></td>
  </tr>
</table>
  ",90.0,1.0,,,,,,,,,,,,,,,,,,,,,,,,,
119,0,,html-keyboard-response,119,560380,0.0-4.19-2.19,gnvo53gxw5,2022-09-19 15:58:54.688,5dd3d566e05cad3b130de19a,3,56,55,25,37,,,"
  <table>
  <tr height=300>
    <td width=300 height=300><img src=""static/images/cards/1_of_red_moons.svg"" width=""175px"" height=""250px""></img></td>
    <td width=300 height=300><img src=""static/images/cards/back_of_red_moons.svg"" width=""175px"" height=""250px""></img></td>
  </tr>
  <tr height=200>
    <td width=300><img src=""static/images/keys/z.svg"" width=""35%"" height=""75%""></img></td>
    <td width=300></td>
  </tr>
</table>
  ",,,,,,,,,,,,,,,,,,,,,,,,,,,
120,0,,html-keyboard-response,120,561895,0.0-4.19-3.19,gnvo53gxw5,2022-09-19 15:58:54.688,5dd3d566e05cad3b130de19a,3,56,55,25,37,,,"<p style=""font-size:50px"">You Lose!
No points this round.</p>",,,,,,,,,,,,,,,,,,,,,,,,,,,
121,0,,html-keyboard-response,121,562412,0.0-4.19-4.19,gnvo53gxw5,2022-09-19 15:58:54.688,5dd3d566e05cad3b130de19a,3,56,55,25,37,,,,,,1.0,learning,19.0,B,,red,,moons,,,,B,red,moons,,0.0,1.0,1,left,769.5,1.0,0.0,0.0,,
122,0,,html-keyboard-response,122,563919,0.0-4.20-0.20,gnvo53gxw5,2022-09-19 15:58:54.688,5dd3d566e05cad3b130de19a,3,56,55,25,37,,,"<img src=""static/images/cards/stack_of_black_stars.svg"" width=""175px"" height=""250px""></img>",,,,,,,,,,,,,,,,,,,,,,,,,,,
123,0,,html-keyboard-response,123,566200,0.0-4.20-1.20,gnvo53gxw5,2022-09-19 15:58:54.688,5dd3d566e05cad3b130de19a,3,56,55,25,37,1771.900000006,,"
  <table>
  <tr height=300>
    <td width=300 height=300><img src=""static/images/cards/back_of_black_stars.svg"" width=""175px"" height=""250px""></img></td>
    <td width=300 height=300><img src=""static/images/cards/back_of_black_stars.svg"" width=""175px"" height=""250px""></img></td>
  </tr>
  <tr height=200>
    <td width=300><img src=""static/images/keys/z.svg"" width=""35%"" height=""75%""></img></td>
    <td width=300><img src=""static/images/keys/m.svg"" width=""35%"" height=""75%""></img></td>
  </tr>
</table>
  ",77.0,1.0,,,,,,,,,,,,,,,,,,,,,,,,,
124,0,,html-keyboard-response,124,567714,0.0-4.20-2.20,gnvo53gxw5,2022-09-19 15:58:54.688,5dd3d566e05cad3b130de19a,3,56,55,25,37,,,"
  <table>
  <tr height=300>
    <td width=300 height=300><img src=""static/images/cards/back_of_black_stars.svg"" width=""175px"" height=""250px""></img></td>
    <td width=300 height=300><img src=""static/images/cards/9_of_black_stars.svg"" width=""175px"" height=""250px""></img></td>
  </tr>
  <tr height=200>
    <td width=300><img src=""static/images/keys/z.svg"" width=""35%"" height=""75%""></img></td>
    <td width=300><img src=""static/images/keys/m.svg"" width=""35%"" height=""75%""></img></td>
  </tr>
</table>
  ",,,,,,,,,,,,,,,,,,,,,,,,,,,
125,0,,html-keyboard-response,125,569224,0.0-4.20-3.20,gnvo53gxw5,2022-09-19 15:58:54.688,5dd3d566e05cad3b130de19a,3,56,55,25,37,,,"<p style=""font-size:50px"">You Lose!
No points this round.</p>",,,,,,,,,,,,,,,,,,,,,,,,,,,
126,0,,html-keyboard-response,126,569739,0.0-4.20-4.20,gnvo53gxw5,2022-09-19 15:58:54.688,5dd3d566e05cad3b130de19a,3,56,55,25,37,,,,,,1.0,learning,20.0,C,,black,,stars,,,,C,black,stars,,1.0,0.0,NA,right,1771.900000006,9.0,1.0,0.0,,
127,0,,html-keyboard-response,127,571241,0.0-4.21-0.21,gnvo53gxw5,2022-09-19 15:58:54.688,5dd3d566e05cad3b130de19a,3,56,55,25,37,,,"<img src=""static/images/cards/stack_of_red_stars.svg"" width=""175px"" height=""250px""></img>",,,,,,,,,,,,,,,,,,,,,,,,,,,
128,0,,html-keyboard-response,128,572911,0.0-4.21-1.21,gnvo53gxw5,2022-09-19 15:58:54.688,5dd3d566e05cad3b130de19a,3,56,55,25,37,1159.6000000238,,"
  <table>
  <tr height=300>
    <td width=300 height=300><img src=""static/images/cards/back_of_red_stars.svg"" width=""175px"" height=""250px""></img></td>
    <td width=300 height=300><img src=""static/images/cards/back_of_red_stars.svg"" width=""175px"" height=""250px""></img></td>
  </tr>
  <tr height=200>
    <td width=300></td>
    <td width=300><img src=""static/images/keys/m.svg"" width=""35%"" height=""75%""></img></td>
  </tr>
</table>
  ",77.0,1.0,,,,,,,,,,,,,,,,,,,,,,,,,
129,0,,html-keyboard-response,129,574424,0.0-4.21-2.21,gnvo53gxw5,2022-09-19 15:58:54.688,5dd3d566e05cad3b130de19a,3,56,55,25,37,,,"
  <table>
  <tr height=300>
    <td width=300 height=300><img src=""static/images/cards/back_of_red_stars.svg"" width=""175px"" height=""250px""></img></td>
    <td width=300 height=300><img src=""static/images/cards/1_of_red_stars.svg"" width=""175px"" height=""250px""></img></td>
  </tr>
  <tr height=200>
    <td width=300></td>
    <td width=300><img src=""static/images/keys/m.svg"" width=""35%"" height=""75%""></img></td>
  </tr>
</table>
  ",,,,,,,,,,,,,,,,,,,,,,,,,,,
130,0,,html-keyboard-response,130,575944,0.0-4.21-3.21,gnvo53gxw5,2022-09-19 15:58:54.688,5dd3d566e05cad3b130de19a,3,56,55,25,37,,,"<p style=""font-size:50px"">You Lose!
No points this round.</p>",,,,,,,,,,,,,,,,,,,,,,,,,,,
131,0,,html-keyboard-response,131,576461,0.0-4.21-4.21,gnvo53gxw5,2022-09-19 15:58:54.688,5dd3d566e05cad3b130de19a,3,56,55,25,37,,,,,,1.0,learning,21.0,D,,red,,stars,,,,D,red,stars,,0.0,0.0,0,right,1159.6000000238,1.0,0.0,0.0,,
132,0,,html-keyboard-response,132,577968,0.0-4.22-0.22,gnvo53gxw5,2022-09-19 15:58:54.688,5dd3d566e05cad3b130de19a,3,56,55,25,37,,,"<img src=""static/images/cards/stack_of_red_bolts.svg"" width=""175px"" height=""250px""></img>",,,,,,,,,,,,,,,,,,,,,,,,,,,
133,0,,html-keyboard-response,133,578864,0.0-4.22-1.22,gnvo53gxw5,2022-09-19 15:58:54.688,5dd3d566e05cad3b130de19a,3,56,55,25,37,383.1999999881,,"
  <table>
  <tr height=300>
    <td width=300 height=300><img src=""static/images/cards/back_of_red_bolts.svg"" width=""175px"" height=""250px""></img></td>
    <td width=300 height=300><img src=""static/images/cards/back_of_red_bolts.svg"" width=""175px"" height=""250px""></img></td>
  </tr>
  <tr height=200>
    <td width=300><img src=""static/images/keys/z.svg"" width=""35%"" height=""75%""></img></td>
    <td width=300><img src=""static/images/keys/m.svg"" width=""35%"" height=""75%""></img></td>
  </tr>
</table>
  ",90.0,1.0,,,,,,,,,,,,,,,,,,,,,,,,,
134,0,,html-keyboard-response,134,580366,0.0-4.22-2.22,gnvo53gxw5,2022-09-19 15:58:54.688,5dd3d566e05cad3b130de19a,3,56,55,25,37,,,"
  <table>
  <tr height=300>
    <td width=300 height=300><img src=""static/images/cards/6_of_red_bolts.svg"" width=""175px"" height=""250px""></img></td>
    <td width=300 height=300><img src=""static/images/cards/back_of_red_bolts.svg"" width=""175px"" height=""250px""></img></td>
  </tr>
  <tr height=200>
    <td width=300><img src=""static/images/keys/z.svg"" width=""35%"" height=""75%""></img></td>
    <td width=300><img src=""static/images/keys/m.svg"" width=""35%"" height=""75%""></img></td>
  </tr>
</table>
  ",,,,,,,,,,,,,,,,,,,,,,,,,,,
135,0,,html-keyboard-response,135,581890,0.0-4.22-3.22,gnvo53gxw5,2022-09-19 15:58:54.688,5dd3d566e05cad3b130de19a,3,56,55,25,37,,,"<p style=""font-size:50px"">You win!
+10 points this round!</p>",,,,,,,,,,,,,,,,,,,,,,,,,,,
136,0,,html-keyboard-response,136,582399,0.0-4.22-4.22,gnvo53gxw5,2022-09-19 15:58:54.688,5dd3d566e05cad3b130de19a,3,56,55,25,37,,,,,,1.0,learning,22.0,Xc,,red,,bolts,,,,Xc,red,bolts,,1.0,0.0,NA,left,383.1999999881,6.0,1.0,1.0,,
137,0,,html-keyboard-response,137,583907,0.0-4.23-0.23,gnvo53gxw5,2022-09-19 15:58:54.688,5dd3d566e05cad3b130de19a,3,56,55,25,37,,,"<img src=""static/images/cards/stack_of_black_bolts.svg"" width=""175px"" height=""250px""></img>",,,,,,,,,,,,,,,,,,,,,,,,,,,
138,0,,html-keyboard-response,138,585023,0.0-4.23-1.23,gnvo53gxw5,2022-09-19 15:58:54.688,5dd3d566e05cad3b130de19a,3,56,55,25,37,608.5,,"
  <table>
  <tr height=300>
    <td width=300 height=300><img src=""static/images/cards/back_of_black_bolts.svg"" width=""175px"" height=""250px""></img></td>
    <td width=300 height=300><img src=""static/images/cards/back_of_black_bolts.svg"" width=""175px"" height=""250px""></img></td>
  </tr>
  <tr height=200>
    <td width=300><img src=""static/images/keys/z.svg"" width=""35%"" height=""75%""></img></td>
    <td width=300></td>
  </tr>
</table>
  ",90.0,1.0,,,,,,,,,,,,,,,,,,,,,,,,,
139,0,,html-keyboard-response,139,586530,0.0-4.23-2.23,gnvo53gxw5,2022-09-19 15:58:54.688,5dd3d566e05cad3b130de19a,3,56,55,25,37,,,"
  <table>
  <tr height=300>
    <td width=300 height=300><img src=""static/images/cards/1_of_black_bolts.svg"" width=""175px"" height=""250px""></img></td>
    <td width=300 height=300><img src=""static/images/cards/back_of_black_bolts.svg"" width=""175px"" height=""250px""></img></td>
  </tr>
  <tr height=200>
    <td width=300><img src=""static/images/keys/z.svg"" width=""35%"" height=""75%""></img></td>
    <td width=300></td>
  </tr>
</table>
  ",,,,,,,,,,,,,,,,,,,,,,,,,,,
140,0,,html-keyboard-response,140,588034,0.0-4.23-3.23,gnvo53gxw5,2022-09-19 15:58:54.688,5dd3d566e05cad3b130de19a,3,56,55,25,37,,,"<p style=""font-size:50px"">You win!
+10 points this round!</p>",,,,,,,,,,,,,,,,,,,,,,,,,,,
141,0,,html-keyboard-response,141,588546,0.0-4.23-4.23,gnvo53gxw5,2022-09-19 15:58:54.688,5dd3d566e05cad3b130de19a,3,56,55,25,37,,,,,,1.0,learning,23.0,Xnc,,black,,bolts,,,,Xnc,black,bolts,,0.0,0.0,1,left,608.5,1.0,0.0,1.0,,
142,0,,call-function,142,588549,0.0-5.0,gnvo53gxw5,2022-09-19 15:58:54.688,5dd3d566e05cad3b130de19a,3,56,55,25,37,,,,,,,,,,,,,,,,,,,,,,,,,,,,,,
143,0,,image-keyboard-response,143,598120,0.0-6.0-0.0,gnvo53gxw5,2022-09-19 15:58:54.688,5dd3d566e05cad3b130de19a,3,56,55,25,37,9570.099999994,,static/images/instructions_CB_3/Slide20.png,39.0,,,,,,,,,,,,,,,,,,,,,,,,,,
144,0,,image-keyboard-response,144,668728,0.0-6.1-0.1,gnvo53gxw5,2022-09-19 15:58:54.688,5dd3d566e05cad3b130de19a,3,56,55,25,37,70607.6000000238,,static/images/instructions_CB_3/Slide21.png,37.0,,,,,,,,,,,,,,,,,,,,,,,,,,
145,0,,image-keyboard-response,145,677136,0.0-6.2-0.2,gnvo53gxw5,2022-09-19 15:58:54.688,5dd3d566e05cad3b130de19a,3,56,55,25,37,8407.1999999881,,static/images/instructions_CB_3/Slide20.png,39.0,,,,,,,,,,,,,,,,,,,,,,,,,,
146,0,,image-keyboard-response,146,681656,0.0-6.3-0.3,gnvo53gxw5,2022-09-19 15:58:54.688,5dd3d566e05cad3b130de19a,3,56,55,25,37,4520.0,,static/images/instructions_CB_3/Slide21.png,37.0,,,,,,,,,,,,,,,,,,,,,,,,,,
147,0,,image-keyboard-response,147,684200,0.0-6.4-0.4,gnvo53gxw5,2022-09-19 15:58:54.688,5dd3d566e05cad3b130de19a,3,56,55,25,37,2543.0,,static/images/instructions_CB_3/Slide20.png,39.0,,,,,,,,,,,,,,,,,,,,,,,,,,
148,0,,image-keyboard-response,148,688592,0.0-6.5-0.5,gnvo53gxw5,2022-09-19 15:58:54.688,5dd3d566e05cad3b130de19a,3,56,55,25,37,4391.6999999881,,static/images/instructions_CB_3/Slide21.png,37.0,,,,,,,,,,,,,,,,,,,,,,,,,,
149,0,,image-keyboard-response,149,690400,0.0-6.6-0.6,gnvo53gxw5,2022-09-19 15:58:54.688,5dd3d566e05cad3b130de19a,3,56,55,25,37,1807.3000000119,,static/images/instructions_CB_3/Slide20.png,39.0,,,,,,,,,,,,,,,,,,,,,,,,,,
150,0,,image-keyboard-response,150,696896,0.0-6.7-0.7,gnvo53gxw5,2022-09-19 15:58:54.688,5dd3d566e05cad3b130de19a,3,56,55,25,37,6495.599999994,,static/images/instructions_CB_3/Slide21.png,39.0,,,,,,,,,,,,,,,,,,,,,,,,,,
151,0,,image-keyboard-response,151,713112,0.0-6.8-0.8,gnvo53gxw5,2022-09-19 15:58:54.688,5dd3d566e05cad3b130de19a,3,56,55,25,37,16215.2999999821,,static/images/instructions_CB_3/Slide22.png,39.0,,,,,,,,,,,,,,,,,,,,,,,,,,
152,0,,image-keyboard-response,152,790008,0.0-6.9-0.9,gnvo53gxw5,2022-09-19 15:58:54.688,5dd3d566e05cad3b130de19a,3,56,55,25,37,76895.599999994,,static/images/instructions_CB_3/Slide23.png,39.0,,,,,,,,,,,,,,,,,,,,,,,,,,
153,0,,image-keyboard-response,153,793247,0.0-6.10-0.10,gnvo53gxw5,2022-09-19 15:58:54.688,5dd3d566e05cad3b130de19a,3,56,55,25,37,3239.1999999881,,static/images/instructions_CB_3/Slide24.png,39.0,,,,,,,,,,,,,,,,,,,,,,,,,,
154,0,,html-keyboard-response,154,796000,0.0-7.0-0.0,gnvo53gxw5,2022-09-19 15:58:54.688,5dd3d566e05cad3b130de19a,3,56,55,25,37,2751.3000000119,,"
  <table>
  <tr height=300>
    <td width=300 height=300><img src=""static/images/cards/stack_of_black_moons.svg"" width=""175px"" height=""250px""></img></td>
    <td width=300 height=300><img src=""static/images/cards/stack_of_red_stars.svg"" width=""175px"" height=""250px""></img></td>
  </tr>
  <tr height=200>
    <td width=300><img src=""static/images/keys/w.svg"" width=""35%"" height=""75%""></img></td>
    <td width=300><img src=""static/images/keys/o.svg"" width=""35%"" height=""75%""></img></td>
  </tr>
</table>
  ",87.0,1.0,,,,,,,,,,,,,,,,,,,,,,,,,
155,0,,html-keyboard-response,155,798287,0.0-7.0-1.0,gnvo53gxw5,2022-09-19 15:58:54.688,5dd3d566e05cad3b130de19a,3,56,55,25,37,1775.3000000119,,"
  <table>
  <tr height=300>
    <td width=300 height=300><img src=""static/images/cards/back_of_black_moons.svg"" width=""175px"" height=""250px""></img></td>
    <td width=300 height=300><img src=""static/images/cards/back_of_black_moons.svg"" width=""175px"" height=""250px""></img></td>
  </tr>
  <tr height=200>
    <td width=300><img src=""static/images/keys/z.svg"" width=""35%"" height=""75%""></img></td>
    <td width=300><img src=""static/images/keys/m.svg"" width=""35%"" height=""75%""></img></td>
  </tr>
</table>
  ",90.0,1.0,,,,,,,,,,,,,,,,,,,,,,,,,
156,0,,html-keyboard-response,156,799791,0.0-7.0-2.0,gnvo53gxw5,2022-09-19 15:58:54.688,5dd3d566e05cad3b130de19a,3,56,55,25,37,,,"
  <table>
  <tr height=300>
    <td width=300 height=300><img src=""static/images/cards/3_of_black_moons.svg"" width=""175px"" height=""250px""></img></td>
    <td width=300 height=300><img src=""static/images/cards/back_of_black_moons.svg"" width=""175px"" height=""250px""></img></td>
  </tr>
  <tr height=200>
    <td width=300><img src=""static/images/keys/z.svg"" width=""35%"" height=""75%""></img></td>
    <td width=300><img src=""static/images/keys/m.svg"" width=""35%"" height=""75%""></img></td>
  </tr>
</table>
  ",,,,,,,,,,,,,,,,,,,,,,,,,,,
157,0,,html-keyboard-response,157,801307,0.0-7.0-3.0,gnvo53gxw5,2022-09-19 15:58:54.688,5dd3d566e05cad3b130de19a,3,56,55,25,37,,,"<p style=""font-size:50px"">You Lose!
No points this round.</p>",,,,,,,,,,,,,,,,,,,,,,,,,,,
158,0,,html-keyboard-response,158,801816,0.0-7.0-4.0,gnvo53gxw5,2022-09-19 15:58:54.688,5dd3d566e05cad3b130de19a,3,56,55,25,37,,,,,,1.0,choice,0.0,A,D,black,red,moons,stars,A,D,A,black,moons,2751.3000000119,1.0,1.0,NA,left,1775.3000000119,3.0,0.0,0.0,,
159,0,,html-keyboard-response,159,804191,0.0-7.1-0.1,gnvo53gxw5,2022-09-19 15:58:54.688,5dd3d566e05cad3b130de19a,3,56,55,25,37,2374.2999999821,,"
  <table>
  <tr height=300>
    <td width=300 height=300><img src=""static/images/cards/stack_of_red_stars.svg"" width=""175px"" height=""250px""></img></td>
    <td width=300 height=300><img src=""static/images/cards/stack_of_black_stars.svg"" width=""175px"" height=""250px""></img></td>
  </tr>
  <tr height=200>
    <td width=300><img src=""static/images/keys/w.svg"" width=""35%"" height=""75%""></img></td>
    <td width=300><img src=""static/images/keys/o.svg"" width=""35%"" height=""75%""></img></td>
  </tr>
</table>
  ",79.0,1.0,,,,,,,,,,,,,,,,,,,,,,,,,
160,0,,html-keyboard-response,160,807707,0.0-7.1-1.1,gnvo53gxw5,2022-09-19 15:58:54.688,5dd3d566e05cad3b130de19a,3,56,55,25,37,,,"
  <table>
  <tr height=300>
    <td width=300 height=300><img src=""static/images/cards/back_of_black_stars.svg"" width=""175px"" height=""250px""></img></td>
    <td width=300 height=300><img src=""static/images/cards/back_of_black_stars.svg"" width=""175px"" height=""250px""></img></td>
  </tr>
  <tr height=200>
    <td width=300><img src=""static/images/keys/z.svg"" width=""35%"" height=""75%""></img></td>
    <td width=300><img src=""static/images/keys/m.svg"" width=""35%"" height=""75%""></img></td>
  </tr>
</table>
  ",,,,,,,,,,,,,,,,,,,,,,,,,,,
161,0,,html-keyboard-response,161,807708,0.0-7.1-2.1,gnvo53gxw5,2022-09-19 15:58:54.688,5dd3d566e05cad3b130de19a,3,56,55,25,37,,,,,,,,,,,,,,,,,,,,,,,,,,,,,,
162,0,,html-keyboard-response,162,809229,0.0-7.1-3.1,gnvo53gxw5,2022-09-19 15:58:54.688,5dd3d566e05cad3b130de19a,3,56,55,25,37,,,"<p style=""font-size:50px"">Too slow!</p>",,,,,,,,,,,,,,,,,,,,,,,,,,,
163,0,,html-keyboard-response,163,809741,0.0-7.1-4.1,gnvo53gxw5,2022-09-19 15:58:54.688,5dd3d566e05cad3b130de19a,3,56,55,25,37,,,,,,1.0,choice,1.0,C,D,red,black,stars,stars,D,C,C,black,stars,2374.2999999821,1.0,0.0,NA,,,3.0,0.0,0.0,,
164,0,,html-keyboard-response,164,812935,0.0-7.2-0.2,gnvo53gxw5,2022-09-19 15:58:54.688,5dd3d566e05cad3b130de19a,3,56,55,25,37,3193.3000000119,,"
  <table>
  <tr height=300>
    <td width=300 height=300><img src=""static/images/cards/stack_of_red_moons.svg"" width=""175px"" height=""250px""></img></td>
    <td width=300 height=300><img src=""static/images/cards/stack_of_black_stars.svg"" width=""175px"" height=""250px""></img></td>
  </tr>
  <tr height=200>
    <td width=300><img src=""static/images/keys/w.svg"" width=""35%"" height=""75%""></img></td>
    <td width=300><img src=""static/images/keys/o.svg"" width=""35%"" height=""75%""></img></td>
  </tr>
</table>
  ",87.0,1.0,,,,,,,,,,,,,,,,,,,,,,,,,
165,0,,html-keyboard-response,165,814408,0.0-7.2-1.2,gnvo53gxw5,2022-09-19 15:58:54.688,5dd3d566e05cad3b130de19a,3,56,55,25,37,961.0,,"
  <table>
  <tr height=300>
    <td width=300 height=300><img src=""static/images/cards/back_of_red_moons.svg"" width=""175px"" height=""250px""></img></td>
    <td width=300 height=300><img src=""static/images/cards/back_of_red_moons.svg"" width=""175px"" height=""250px""></img></td>
  </tr>
  <tr height=200>
    <td width=300></td>
    <td width=300><img src=""static/images/keys/m.svg"" width=""35%"" height=""75%""></img></td>
  </tr>
</table>
  ",77.0,1.0,,,,,,,,,,,,,,,,,,,,,,,,,
166,0,,html-keyboard-response,166,815918,0.0-7.2-2.2,gnvo53gxw5,2022-09-19 15:58:54.688,5dd3d566e05cad3b130de19a,3,56,55,25,37,,,"
  <table>
  <tr height=300>
    <td width=300 height=300><img src=""static/images/cards/back_of_red_moons.svg"" width=""175px"" height=""250px""></img></td>
    <td width=300 height=300><img src=""static/images/cards/2_of_red_moons.svg"" width=""175px"" height=""250px""></img></td>
  </tr>
  <tr height=200>
    <td width=300></td>
    <td width=300><img src=""static/images/keys/m.svg"" width=""35%"" height=""75%""></img></td>
  </tr>
</table>
  ",,,,,,,,,,,,,,,,,,,,,,,,,,,
167,0,,html-keyboard-response,167,817447,0.0-7.2-3.2,gnvo53gxw5,2022-09-19 15:58:54.688,5dd3d566e05cad3b130de19a,3,56,55,25,37,,,"<p style=""font-size:50px"">You Lose!
No points this round.</p>",,,,,,,,,,,,,,,,,,,,,,,,,,,
168,0,,html-keyboard-response,168,817964,0.0-7.2-4.2,gnvo53gxw5,2022-09-19 15:58:54.688,5dd3d566e05cad3b130de19a,3,56,55,25,37,,,,,,1.0,choice,2.0,B,C,red,black,moons,stars,B,C,B,red,moons,3193.3000000119,0.0,1.0,0,right,961.0,2.0,0.0,0.0,,
169,0,,html-keyboard-response,169,819895,0.0-7.3-0.3,gnvo53gxw5,2022-09-19 15:58:54.688,5dd3d566e05cad3b130de19a,3,56,55,25,37,1930.3000000119,,"
  <table>
  <tr height=300>
    <td width=300 height=300><img src=""static/images/cards/stack_of_black_moons.svg"" width=""175px"" height=""250px""></img></td>
    <td width=300 height=300><img src=""static/images/cards/stack_of_red_stars.svg"" width=""175px"" height=""250px""></img></td>
  </tr>
  <tr height=200>
    <td width=300><img src=""static/images/keys/w.svg"" width=""35%"" height=""75%""></img></td>
    <td width=300><img src=""static/images/keys/o.svg"" width=""35%"" height=""75%""></img></td>
  </tr>
</table>
  ",87.0,1.0,,,,,,,,,,,,,,,,,,,,,,,,,
170,0,,html-keyboard-response,170,822167,0.0-7.3-1.3,gnvo53gxw5,2022-09-19 15:58:54.688,5dd3d566e05cad3b130de19a,3,56,55,25,37,1759.099999994,,"
  <table>
  <tr height=300>
    <td width=300 height=300><img src=""static/images/cards/back_of_black_moons.svg"" width=""175px"" height=""250px""></img></td>
    <td width=300 height=300><img src=""static/images/cards/back_of_black_moons.svg"" width=""175px"" height=""250px""></img></td>
  </tr>
  <tr height=200>
    <td width=300><img src=""static/images/keys/z.svg"" width=""35%"" height=""75%""></img></td>
    <td width=300><img src=""static/images/keys/m.svg"" width=""35%"" height=""75%""></img></td>
  </tr>
</table>
  ",77.0,1.0,,,,,,,,,,,,,,,,,,,,,,,,,
171,0,,html-keyboard-response,171,823669,0.0-7.3-2.3,gnvo53gxw5,2022-09-19 15:58:54.688,5dd3d566e05cad3b130de19a,3,56,55,25,37,,,"
  <table>
  <tr height=300>
    <td width=300 height=300><img src=""static/images/cards/back_of_black_moons.svg"" width=""175px"" height=""250px""></img></td>
    <td width=300 height=300><img src=""static/images/cards/7_of_black_moons.svg"" width=""175px"" height=""250px""></img></td>
  </tr>
  <tr height=200>
    <td width=300><img src=""static/images/keys/z.svg"" width=""35%"" height=""75%""></img></td>
    <td width=300><img src=""static/images/keys/m.svg"" width=""35%"" height=""75%""></img></td>
  </tr>
</table>
  ",,,,,,,,,,,,,,,,,,,,,,,,,,,
172,0,,html-keyboard-response,172,825173,0.0-7.3-3.3,gnvo53gxw5,2022-09-19 15:58:54.688,5dd3d566e05cad3b130de19a,3,56,55,25,37,,,"<p style=""font-size:50px"">You win!
+10 points this round!</p>",,,,,,,,,,,,,,,,,,,,,,,,,,,
173,0,,html-keyboard-response,173,825692,0.0-7.3-4.3,gnvo53gxw5,2022-09-19 15:58:54.688,5dd3d566e05cad3b130de19a,3,56,55,25,37,,,,,,1.0,choice,3.0,A,D,black,red,moons,stars,A,D,A,black,moons,1930.3000000119,1.0,1.0,NA,right,1759.099999994,7.0,1.0,1.0,,
174,0,,html-keyboard-response,174,828448,0.0-7.4-0.4,gnvo53gxw5,2022-09-19 15:58:54.688,5dd3d566e05cad3b130de19a,3,56,55,25,37,2755.0,,"
  <table>
  <tr height=300>
    <td width=300 height=300><img src=""static/images/cards/stack_of_red_moons.svg"" width=""175px"" height=""250px""></img></td>
    <td width=300 height=300><img src=""static/images/cards/stack_of_black_stars.svg"" width=""175px"" height=""250px""></img></td>
  </tr>
  <tr height=200>
    <td width=300><img src=""static/images/keys/w.svg"" width=""35%"" height=""75%""></img></td>
    <td width=300><img src=""static/images/keys/o.svg"" width=""35%"" height=""75%""></img></td>
  </tr>
</table>
  ",87.0,1.0,,,,,,,,,,,,,,,,,,,,,,,,,
175,0,,html-keyboard-response,175,830032,0.0-7.4-1.4,gnvo53gxw5,2022-09-19 15:58:54.688,5dd3d566e05cad3b130de19a,3,56,55,25,37,1082.400000006,,"
  <table>
  <tr height=300>
    <td width=300 height=300><img src=""static/images/cards/back_of_red_moons.svg"" width=""175px"" height=""250px""></img></td>
    <td width=300 height=300><img src=""static/images/cards/back_of_red_moons.svg"" width=""175px"" height=""250px""></img></td>
  </tr>
  <tr height=200>
    <td width=300></td>
    <td width=300><img src=""static/images/keys/m.svg"" width=""35%"" height=""75%""></img></td>
  </tr>
</table>
  ",77.0,1.0,,,,,,,,,,,,,,,,,,,,,,,,,
176,0,,html-keyboard-response,176,831546,0.0-7.4-2.4,gnvo53gxw5,2022-09-19 15:58:54.688,5dd3d566e05cad3b130de19a,3,56,55,25,37,,,"
  <table>
  <tr height=300>
    <td width=300 height=300><img src=""static/images/cards/back_of_red_moons.svg"" width=""175px"" height=""250px""></img></td>
    <td width=300 height=300><img src=""static/images/cards/4_of_red_moons.svg"" width=""175px"" height=""250px""></img></td>
  </tr>
  <tr height=200>
    <td width=300></td>
    <td width=300><img src=""static/images/keys/m.svg"" width=""35%"" height=""75%""></img></td>
  </tr>
</table>
  ",,,,,,,,,,,,,,,,,,,,,,,,,,,
177,0,,html-keyboard-response,177,833062,0.0-7.4-3.4,gnvo53gxw5,2022-09-19 15:58:54.688,5dd3d566e05cad3b130de19a,3,56,55,25,37,,,"<p style=""font-size:50px"">You Lose!
No points this round.</p>",,,,,,,,,,,,,,,,,,,,,,,,,,,
178,0,,html-keyboard-response,178,833581,0.0-7.4-4.4,gnvo53gxw5,2022-09-19 15:58:54.688,5dd3d566e05cad3b130de19a,3,56,55,25,37,,,,,,1.0,choice,4.0,B,C,red,black,moons,stars,B,C,B,red,moons,2755.0,0.0,1.0,0,right,1082.400000006,4.0,0.0,0.0,,
179,0,,html-keyboard-response,179,836416,0.0-7.5-0.5,gnvo53gxw5,2022-09-19 15:58:54.688,5dd3d566e05cad3b130de19a,3,56,55,25,37,2833.900000006,,"
  <table>
  <tr height=300>
    <td width=300 height=300><img src=""static/images/cards/stack_of_red_stars.svg"" width=""175px"" height=""250px""></img></td>
    <td width=300 height=300><img src=""static/images/cards/stack_of_black_moons.svg"" width=""175px"" height=""250px""></img></td>
  </tr>
  <tr height=200>
    <td width=300><img src=""static/images/keys/w.svg"" width=""35%"" height=""75%""></img></td>
    <td width=300><img src=""static/images/keys/o.svg"" width=""35%"" height=""75%""></img></td>
  </tr>
</table>
  ",79.0,1.0,,,,,,,,,,,,,,,,,,,,,,,,,
180,0,,html-keyboard-response,180,838200,0.0-7.5-1.5,gnvo53gxw5,2022-09-19 15:58:54.688,5dd3d566e05cad3b130de19a,3,56,55,25,37,1271.5,,"
  <table>
  <tr height=300>
    <td width=300 height=300><img src=""static/images/cards/back_of_black_moons.svg"" width=""175px"" height=""250px""></img></td>
    <td width=300 height=300><img src=""static/images/cards/back_of_black_moons.svg"" width=""175px"" height=""250px""></img></td>
  </tr>
  <tr height=200>
    <td width=300><img src=""static/images/keys/z.svg"" width=""35%"" height=""75%""></img></td>
    <td width=300><img src=""static/images/keys/m.svg"" width=""35%"" height=""75%""></img></td>
  </tr>
</table>
  ",90.0,1.0,,,,,,,,,,,,,,,,,,,,,,,,,
181,0,,html-keyboard-response,181,839709,0.0-7.5-2.5,gnvo53gxw5,2022-09-19 15:58:54.688,5dd3d566e05cad3b130de19a,3,56,55,25,37,,,"
  <table>
  <tr height=300>
    <td width=300 height=300><img src=""static/images/cards/1_of_black_moons.svg"" width=""175px"" height=""250px""></img></td>
    <td width=300 height=300><img src=""static/images/cards/back_of_black_moons.svg"" width=""175px"" height=""250px""></img></td>
  </tr>
  <tr height=200>
    <td width=300><img src=""static/images/keys/z.svg"" width=""35%"" height=""75%""></img></td>
    <td width=300><img src=""static/images/keys/m.svg"" width=""35%"" height=""75%""></img></td>
  </tr>
</table>
  ",,,,,,,,,,,,,,,,,,,,,,,,,,,
182,0,,html-keyboard-response,182,841219,0.0-7.5-3.5,gnvo53gxw5,2022-09-19 15:58:54.688,5dd3d566e05cad3b130de19a,3,56,55,25,37,,,"<p style=""font-size:50px"">You Lose!
No points this round.</p>",,,,,,,,,,,,,,,,,,,,,,,,,,,
183,0,,html-keyboard-response,183,841733,0.0-7.5-4.5,gnvo53gxw5,2022-09-19 15:58:54.688,5dd3d566e05cad3b130de19a,3,56,55,25,37,,,,,,1.0,choice,5.0,A,D,red,black,stars,moons,D,A,A,black,moons,2833.900000006,1.0,1.0,NA,left,1271.5,1.0,0.0,0.0,,
184,0,,html-keyboard-response,184,844287,0.0-7.6-0.6,gnvo53gxw5,2022-09-19 15:58:54.688,5dd3d566e05cad3b130de19a,3,56,55,25,37,2553.7999999821,,"
  <table>
  <tr height=300>
    <td width=300 height=300><img src=""static/images/cards/stack_of_red_moons.svg"" width=""175px"" height=""250px""></img></td>
    <td width=300 height=300><img src=""static/images/cards/stack_of_black_moons.svg"" width=""175px"" height=""250px""></img></td>
  </tr>
  <tr height=200>
    <td width=300><img src=""static/images/keys/w.svg"" width=""35%"" height=""75%""></img></td>
    <td width=300><img src=""static/images/keys/o.svg"" width=""35%"" height=""75%""></img></td>
  </tr>
</table>
  ",79.0,1.0,,,,,,,,,,,,,,,,,,,,,,,,,
185,0,,html-keyboard-response,185,845999,0.0-7.6-1.6,gnvo53gxw5,2022-09-19 15:58:54.688,5dd3d566e05cad3b130de19a,3,56,55,25,37,1202.3000000119,,"
  <table>
  <tr height=300>
    <td width=300 height=300><img src=""static/images/cards/back_of_black_moons.svg"" width=""175px"" height=""250px""></img></td>
    <td width=300 height=300><img src=""static/images/cards/back_of_black_moons.svg"" width=""175px"" height=""250px""></img></td>
  </tr>
  <tr height=200>
    <td width=300><img src=""static/images/keys/z.svg"" width=""35%"" height=""75%""></img></td>
    <td width=300><img src=""static/images/keys/m.svg"" width=""35%"" height=""75%""></img></td>
  </tr>
</table>
  ",77.0,1.0,,,,,,,,,,,,,,,,,,,,,,,,,
186,0,,html-keyboard-response,186,847509,0.0-7.6-2.6,gnvo53gxw5,2022-09-19 15:58:54.688,5dd3d566e05cad3b130de19a,3,56,55,25,37,,,"
  <table>
  <tr height=300>
    <td width=300 height=300><img src=""static/images/cards/back_of_black_moons.svg"" width=""175px"" height=""250px""></img></td>
    <td width=300 height=300><img src=""static/images/cards/3_of_black_moons.svg"" width=""175px"" height=""250px""></img></td>
  </tr>
  <tr height=200>
    <td width=300><img src=""static/images/keys/z.svg"" width=""35%"" height=""75%""></img></td>
    <td width=300><img src=""static/images/keys/m.svg"" width=""35%"" height=""75%""></img></td>
  </tr>
</table>
  ",,,,,,,,,,,,,,,,,,,,,,,,,,,
187,0,,html-keyboard-response,187,849016,0.0-7.6-3.6,gnvo53gxw5,2022-09-19 15:58:54.688,5dd3d566e05cad3b130de19a,3,56,55,25,37,,,"<p style=""font-size:50px"">You Lose!
No points this round.</p>",,,,,,,,,,,,,,,,,,,,,,,,,,,
188,0,,html-keyboard-response,188,849527,0.0-7.6-4.6,gnvo53gxw5,2022-09-19 15:58:54.688,5dd3d566e05cad3b130de19a,3,56,55,25,37,,,,,,1.0,choice,6.0,A,B,red,black,moons,moons,B,A,A,black,moons,2553.7999999821,1.0,1.0,NA,right,1202.3000000119,3.0,0.0,0.0,,
189,0,,html-keyboard-response,189,851159,0.0-7.7-0.7,gnvo53gxw5,2022-09-19 15:58:54.688,5dd3d566e05cad3b130de19a,3,56,55,25,37,1631.5,,"
  <table>
  <tr height=300>
    <td width=300 height=300><img src=""static/images/cards/stack_of_black_moons.svg"" width=""175px"" height=""250px""></img></td>
    <td width=300 height=300><img src=""static/images/cards/stack_of_red_stars.svg"" width=""175px"" height=""250px""></img></td>
  </tr>
  <tr height=200>
    <td width=300><img src=""static/images/keys/w.svg"" width=""35%"" height=""75%""></img></td>
    <td width=300><img src=""static/images/keys/o.svg"" width=""35%"" height=""75%""></img></td>
  </tr>
</table>
  ",87.0,1.0,,,,,,,,,,,,,,,,,,,,,,,,,
190,0,,html-keyboard-response,190,853503,0.0-7.7-1.7,gnvo53gxw5,2022-09-19 15:58:54.688,5dd3d566e05cad3b130de19a,3,56,55,25,37,1830.400000006,,"
  <table>
  <tr height=300>
    <td width=300 height=300><img src=""static/images/cards/back_of_black_moons.svg"" width=""175px"" height=""250px""></img></td>
    <td width=300 height=300><img src=""static/images/cards/back_of_black_moons.svg"" width=""175px"" height=""250px""></img></td>
  </tr>
  <tr height=200>
    <td width=300><img src=""static/images/keys/z.svg"" width=""35%"" height=""75%""></img></td>
    <td width=300><img src=""static/images/keys/m.svg"" width=""35%"" height=""75%""></img></td>
  </tr>
</table>
  ",77.0,1.0,,,,,,,,,,,,,,,,,,,,,,,,,
191,0,,html-keyboard-response,191,855005,0.0-7.7-2.7,gnvo53gxw5,2022-09-19 15:58:54.688,5dd3d566e05cad3b130de19a,3,56,55,25,37,,,"
  <table>
  <tr height=300>
    <td width=300 height=300><img src=""static/images/cards/back_of_black_moons.svg"" width=""175px"" height=""250px""></img></td>
    <td width=300 height=300><img src=""static/images/cards/3_of_black_moons.svg"" width=""175px"" height=""250px""></img></td>
  </tr>
  <tr height=200>
    <td width=300><img src=""static/images/keys/z.svg"" width=""35%"" height=""75%""></img></td>
    <td width=300><img src=""static/images/keys/m.svg"" width=""35%"" height=""75%""></img></td>
  </tr>
</table>
  ",,,,,,,,,,,,,,,,,,,,,,,,,,,
192,0,,html-keyboard-response,192,856514,0.0-7.7-3.7,gnvo53gxw5,2022-09-19 15:58:54.688,5dd3d566e05cad3b130de19a,3,56,55,25,37,,,"<p style=""font-size:50px"">You Lose!
No points this round.</p>",,,,,,,,,,,,,,,,,,,,,,,,,,,
193,0,,html-keyboard-response,193,857031,0.0-7.7-4.7,gnvo53gxw5,2022-09-19 15:58:54.688,5dd3d566e05cad3b130de19a,3,56,55,25,37,,,,,,1.0,choice,7.0,A,D,black,red,moons,stars,A,D,A,black,moons,1631.5,1.0,1.0,NA,right,1830.400000006,3.0,0.0,0.0,,
194,0,,html-keyboard-response,194,858519,0.0-7.8-0.8,gnvo53gxw5,2022-09-19 15:58:54.688,5dd3d566e05cad3b130de19a,3,56,55,25,37,1487.3999999762,,"
  <table>
  <tr height=300>
    <td width=300 height=300><img src=""static/images/cards/stack_of_black_moons.svg"" width=""175px"" height=""250px""></img></td>
    <td width=300 height=300><img src=""static/images/cards/stack_of_red_moons.svg"" width=""175px"" height=""250px""></img></td>
  </tr>
  <tr height=200>
    <td width=300><img src=""static/images/keys/w.svg"" width=""35%"" height=""75%""></img></td>
    <td width=300><img src=""static/images/keys/o.svg"" width=""35%"" height=""75%""></img></td>
  </tr>
</table>
  ",87.0,1.0,,,,,,,,,,,,,,,,,,,,,,,,,
195,0,,html-keyboard-response,195,859111,0.0-7.8-1.8,gnvo53gxw5,2022-09-19 15:58:54.688,5dd3d566e05cad3b130de19a,3,56,55,25,37,79.1999999881,,"
  <table>
  <tr height=300>
    <td width=300 height=300><img src=""static/images/cards/back_of_black_moons.svg"" width=""175px"" height=""250px""></img></td>
    <td width=300 height=300><img src=""static/images/cards/back_of_black_moons.svg"" width=""175px"" height=""250px""></img></td>
  </tr>
  <tr height=200>
    <td width=300><img src=""static/images/keys/z.svg"" width=""35%"" height=""75%""></img></td>
    <td width=300><img src=""static/images/keys/m.svg"" width=""35%"" height=""75%""></img></td>
  </tr>
</table>
  ",90.0,1.0,,,,,,,,,,,,,,,,,,,,,,,,,
196,0,,html-keyboard-response,196,860615,0.0-7.8-2.8,gnvo53gxw5,2022-09-19 15:58:54.688,5dd3d566e05cad3b130de19a,3,56,55,25,37,,,"
  <table>
  <tr height=300>
    <td width=300 height=300><img src=""static/images/cards/3_of_black_moons.svg"" width=""175px"" height=""250px""></img></td>
    <td width=300 height=300><img src=""static/images/cards/back_of_black_moons.svg"" width=""175px"" height=""250px""></img></td>
  </tr>
  <tr height=200>
    <td width=300><img src=""static/images/keys/z.svg"" width=""35%"" height=""75%""></img></td>
    <td width=300><img src=""static/images/keys/m.svg"" width=""35%"" height=""75%""></img></td>
  </tr>
</table>
  ",,,,,,,,,,,,,,,,,,,,,,,,,,,
197,0,,html-keyboard-response,197,862118,0.0-7.8-3.8,gnvo53gxw5,2022-09-19 15:58:54.688,5dd3d566e05cad3b130de19a,3,56,55,25,37,,,"<p style=""font-size:50px"">You Lose!
No points this round.</p>",,,,,,,,,,,,,,,,,,,,,,,,,,,
198,0,,html-keyboard-response,198,862626,0.0-7.8-4.8,gnvo53gxw5,2022-09-19 15:58:54.688,5dd3d566e05cad3b130de19a,3,56,55,25,37,,,,,,1.0,choice,8.0,A,B,black,red,moons,moons,A,B,A,black,moons,1487.3999999762,1.0,1.0,NA,left,79.1999999881,3.0,0.0,0.0,,
199,0,,html-keyboard-response,199,864967,0.0-7.9-0.9,gnvo53gxw5,2022-09-19 15:58:54.688,5dd3d566e05cad3b130de19a,3,56,55,25,37,2340.0,,"
  <table>
  <tr height=300>
    <td width=300 height=300><img src=""static/images/cards/stack_of_black_stars.svg"" width=""175px"" height=""250px""></img></td>
    <td width=300 height=300><img src=""static/images/cards/stack_of_red_stars.svg"" width=""175px"" height=""250px""></img></td>
  </tr>
  <tr height=200>
    <td width=300><img src=""static/images/keys/w.svg"" width=""35%"" height=""75%""></img></td>
    <td width=300><img src=""static/images/keys/o.svg"" width=""35%"" height=""75%""></img></td>
  </tr>
</table>
  ",87.0,1.0,,,,,,,,,,,,,,,,,,,,,,,,,
200,0,,html-keyboard-response,200,866664,0.0-7.9-1.9,gnvo53gxw5,2022-09-19 15:58:54.688,5dd3d566e05cad3b130de19a,3,56,55,25,37,1190.7999999821,,"
  <table>
  <tr height=300>
    <td width=300 height=300><img src=""static/images/cards/back_of_black_stars.svg"" width=""175px"" height=""250px""></img></td>
    <td width=300 height=300><img src=""static/images/cards/back_of_black_stars.svg"" width=""175px"" height=""250px""></img></td>
  </tr>
  <tr height=200>
    <td width=300><img src=""static/images/keys/z.svg"" width=""35%"" height=""75%""></img></td>
    <td width=300><img src=""static/images/keys/m.svg"" width=""35%"" height=""75%""></img></td>
  </tr>
</table>
  ",77.0,1.0,,,,,,,,,,,,,,,,,,,,,,,,,
201,0,,html-keyboard-response,201,868173,0.0-7.9-2.9,gnvo53gxw5,2022-09-19 15:58:54.688,5dd3d566e05cad3b130de19a,3,56,55,25,37,,,"
  <table>
  <tr height=300>
    <td width=300 height=300><img src=""static/images/cards/back_of_black_stars.svg"" width=""175px"" height=""250px""></img></td>
    <td width=300 height=300><img src=""static/images/cards/9_of_black_stars.svg"" width=""175px"" height=""250px""></img></td>
  </tr>
  <tr height=200>
    <td width=300><img src=""static/images/keys/z.svg"" width=""35%"" height=""75%""></img></td>
    <td width=300><img src=""static/images/keys/m.svg"" width=""35%"" height=""75%""></img></td>
  </tr>
</table>
  ",,,,,,,,,,,,,,,,,,,,,,,,,,,
202,0,,html-keyboard-response,202,869685,0.0-7.9-3.9,gnvo53gxw5,2022-09-19 15:58:54.688,5dd3d566e05cad3b130de19a,3,56,55,25,37,,,"<p style=""font-size:50px"">You win!
+10 points this round!</p>",,,,,,,,,,,,,,,,,,,,,,,,,,,
203,0,,html-keyboard-response,203,870201,0.0-7.9-4.9,gnvo53gxw5,2022-09-19 15:58:54.688,5dd3d566e05cad3b130de19a,3,56,55,25,37,,,,,,1.0,choice,9.0,C,D,black,red,stars,stars,C,D,C,black,stars,2340.0,1.0,0.0,NA,right,1190.7999999821,9.0,1.0,1.0,,
204,0,,html-keyboard-response,204,871655,0.0-7.10-0.10,gnvo53gxw5,2022-09-19 15:58:54.688,5dd3d566e05cad3b130de19a,3,56,55,25,37,1453.7999999821,,"
  <table>
  <tr height=300>
    <td width=300 height=300><img src=""static/images/cards/stack_of_red_moons.svg"" width=""175px"" height=""250px""></img></td>
    <td width=300 height=300><img src=""static/images/cards/stack_of_red_bolts.svg"" width=""175px"" height=""250px""></img></td>
  </tr>
  <tr height=200>
    <td width=300><img src=""static/images/keys/w.svg"" width=""35%"" height=""75%""></img></td>
    <td width=300><img src=""static/images/keys/o.svg"" width=""35%"" height=""75%""></img></td>
  </tr>
</table>
  ",79.0,1.0,,,,,,,,,,,,,,,,,,,,,,,,,
205,0,,html-keyboard-response,205,872639,0.0-7.10-1.10,gnvo53gxw5,2022-09-19 15:58:54.688,5dd3d566e05cad3b130de19a,3,56,55,25,37,476.6999999881,,"
  <table>
  <tr height=300>
    <td width=300 height=300><img src=""static/images/cards/back_of_red_bolts.svg"" width=""175px"" height=""250px""></img></td>
    <td width=300 height=300><img src=""static/images/cards/back_of_red_bolts.svg"" width=""175px"" height=""250px""></img></td>
  </tr>
  <tr height=200>
    <td width=300><img src=""static/images/keys/z.svg"" width=""35%"" height=""75%""></img></td>
    <td width=300><img src=""static/images/keys/m.svg"" width=""35%"" height=""75%""></img></td>
  </tr>
</table>
  ",77.0,1.0,,,,,,,,,,,,,,,,,,,,,,,,,
206,0,,html-keyboard-response,206,874151,0.0-7.10-2.10,gnvo53gxw5,2022-09-19 15:58:54.688,5dd3d566e05cad3b130de19a,3,56,55,25,37,,,"
  <table>
  <tr height=300>
    <td width=300 height=300><img src=""static/images/cards/back_of_red_bolts.svg"" width=""175px"" height=""250px""></img></td>
    <td width=300 height=300><img src=""static/images/cards/2_of_red_bolts.svg"" width=""175px"" height=""250px""></img></td>
  </tr>
  <tr height=200>
    <td width=300><img src=""static/images/keys/z.svg"" width=""35%"" height=""75%""></img></td>
    <td width=300><img src=""static/images/keys/m.svg"" width=""35%"" height=""75%""></img></td>
  </tr>
</table>
  ",,,,,,,,,,,,,,,,,,,,,,,,,,,
207,0,,html-keyboard-response,207,875657,0.0-7.10-3.10,gnvo53gxw5,2022-09-19 15:58:54.688,5dd3d566e05cad3b130de19a,3,56,55,25,37,,,"<p style=""font-size:50px"">You win!
+10 points this round!</p>",,,,,,,,,,,,,,,,,,,,,,,,,,,
208,0,,html-keyboard-response,208,876177,0.0-7.10-4.10,gnvo53gxw5,2022-09-19 15:58:54.688,5dd3d566e05cad3b130de19a,3,56,55,25,37,,,,,,1.0,choice,10.0,B,Xc,red,red,moons,bolts,B,Xc,Xc,red,bolts,1453.7999999821,1.0,0.0,NA,right,476.6999999881,2.0,0.0,1.0,,
209,0,,html-keyboard-response,209,877383,0.0-7.11-0.11,gnvo53gxw5,2022-09-19 15:58:54.688,5dd3d566e05cad3b130de19a,3,56,55,25,37,1205.5,,"
  <table>
  <tr height=300>
    <td width=300 height=300><img src=""static/images/cards/stack_of_black_stars.svg"" width=""175px"" height=""250px""></img></td>
    <td width=300 height=300><img src=""static/images/cards/stack_of_red_stars.svg"" width=""175px"" height=""250px""></img></td>
  </tr>
  <tr height=200>
    <td width=300><img src=""static/images/keys/w.svg"" width=""35%"" height=""75%""></img></td>
    <td width=300><img src=""static/images/keys/o.svg"" width=""35%"" height=""75%""></img></td>
  </tr>
</table>
  ",79.0,1.0,,,,,,,,,,,,,,,,,,,,,,,,,
210,0,,html-keyboard-response,210,879287,0.0-7.11-1.11,gnvo53gxw5,2022-09-19 15:58:54.688,5dd3d566e05cad3b130de19a,3,56,55,25,37,1402.0,,"
  <table>
  <tr height=300>
    <td width=300 height=300><img src=""static/images/cards/back_of_red_stars.svg"" width=""175px"" height=""250px""></img></td>
    <td width=300 height=300><img src=""static/images/cards/back_of_red_stars.svg"" width=""175px"" height=""250px""></img></td>
  </tr>
  <tr height=200>
    <td width=300><img src=""static/images/keys/z.svg"" width=""35%"" height=""75%""></img></td>
    <td width=300></td>
  </tr>
</table>
  ",90.0,1.0,,,,,,,,,,,,,,,,,,,,,,,,,
211,0,,html-keyboard-response,211,880797,0.0-7.11-2.11,gnvo53gxw5,2022-09-19 15:58:54.688,5dd3d566e05cad3b130de19a,3,56,55,25,37,,,"
  <table>
  <tr height=300>
    <td width=300 height=300><img src=""static/images/cards/7_of_red_stars.svg"" width=""175px"" height=""250px""></img></td>
    <td width=300 height=300><img src=""static/images/cards/back_of_red_stars.svg"" width=""175px"" height=""250px""></img></td>
  </tr>
  <tr height=200>
    <td width=300><img src=""static/images/keys/z.svg"" width=""35%"" height=""75%""></img></td>
    <td width=300></td>
  </tr>
</table>
  ",,,,,,,,,,,,,,,,,,,,,,,,,,,
212,0,,html-keyboard-response,212,882311,0.0-7.11-3.11,gnvo53gxw5,2022-09-19 15:58:54.688,5dd3d566e05cad3b130de19a,3,56,55,25,37,,,"<p style=""font-size:50px"">You win!
+10 points this round!</p>",,,,,,,,,,,,,,,,,,,,,,,,,,,
213,0,,html-keyboard-response,213,882817,0.0-7.11-4.11,gnvo53gxw5,2022-09-19 15:58:54.688,5dd3d566e05cad3b130de19a,3,56,55,25,37,,,,,,1.0,choice,11.0,C,D,black,red,stars,stars,C,D,D,red,stars,1205.5,0.0,0.0,1,left,1402.0,7.0,1.0,1.0,,
214,0,,html-keyboard-response,214,884271,0.0-7.12-0.12,gnvo53gxw5,2022-09-19 15:58:54.688,5dd3d566e05cad3b130de19a,3,56,55,25,37,1453.7999999821,,"
  <table>
  <tr height=300>
    <td width=300 height=300><img src=""static/images/cards/stack_of_black_moons.svg"" width=""175px"" height=""250px""></img></td>
    <td width=300 height=300><img src=""static/images/cards/stack_of_black_stars.svg"" width=""175px"" height=""250px""></img></td>
  </tr>
  <tr height=200>
    <td width=300><img src=""static/images/keys/w.svg"" width=""35%"" height=""75%""></img></td>
    <td width=300><img src=""static/images/keys/o.svg"" width=""35%"" height=""75%""></img></td>
  </tr>
</table>
  ",79.0,1.0,,,,,,,,,,,,,,,,,,,,,,,,,
215,0,,html-keyboard-response,215,886623,0.0-7.12-1.12,gnvo53gxw5,2022-09-19 15:58:54.688,5dd3d566e05cad3b130de19a,3,56,55,25,37,1842.3999999762,,"
  <table>
  <tr height=300>
    <td width=300 height=300><img src=""static/images/cards/back_of_black_stars.svg"" width=""175px"" height=""250px""></img></td>
    <td width=300 height=300><img src=""static/images/cards/back_of_black_stars.svg"" width=""175px"" height=""250px""></img></td>
  </tr>
  <tr height=200>
    <td width=300><img src=""static/images/keys/z.svg"" width=""35%"" height=""75%""></img></td>
    <td width=300><img src=""static/images/keys/m.svg"" width=""35%"" height=""75%""></img></td>
  </tr>
</table>
  ",90.0,1.0,,,,,,,,,,,,,,,,,,,,,,,,,
216,0,,html-keyboard-response,216,888134,0.0-7.12-2.12,gnvo53gxw5,2022-09-19 15:58:54.688,5dd3d566e05cad3b130de19a,3,56,55,25,37,,,"
  <table>
  <tr height=300>
    <td width=300 height=300><img src=""static/images/cards/8_of_black_stars.svg"" width=""175px"" height=""250px""></img></td>
    <td width=300 height=300><img src=""static/images/cards/back_of_black_stars.svg"" width=""175px"" height=""250px""></img></td>
  </tr>
  <tr height=200>
    <td width=300><img src=""static/images/keys/z.svg"" width=""35%"" height=""75%""></img></td>
    <td width=300><img src=""static/images/keys/m.svg"" width=""35%"" height=""75%""></img></td>
  </tr>
</table>
  ",,,,,,,,,,,,,,,,,,,,,,,,,,,
217,0,,html-keyboard-response,217,889642,0.0-7.12-3.12,gnvo53gxw5,2022-09-19 15:58:54.688,5dd3d566e05cad3b130de19a,3,56,55,25,37,,,"<p style=""font-size:50px"">You win!
+10 points this round!</p>",,,,,,,,,,,,,,,,,,,,,,,,,,,
218,0,,html-keyboard-response,218,890158,0.0-7.12-4.12,gnvo53gxw5,2022-09-19 15:58:54.688,5dd3d566e05cad3b130de19a,3,56,55,25,37,,,,,,1.0,choice,12.0,A,C,black,black,moons,stars,A,C,C,black,stars,1453.7999999821,1.0,0.0,NA,left,1842.3999999762,8.0,1.0,1.0,,
219,0,,html-keyboard-response,219,892271,0.0-7.13-0.13,gnvo53gxw5,2022-09-19 15:58:54.688,5dd3d566e05cad3b130de19a,3,56,55,25,37,2112.5,,"
  <table>
  <tr height=300>
    <td width=300 height=300><img src=""static/images/cards/stack_of_red_bolts.svg"" width=""175px"" height=""250px""></img></td>
    <td width=300 height=300><img src=""static/images/cards/stack_of_red_stars.svg"" width=""175px"" height=""250px""></img></td>
  </tr>
  <tr height=200>
    <td width=300><img src=""static/images/keys/w.svg"" width=""35%"" height=""75%""></img></td>
    <td width=300><img src=""static/images/keys/o.svg"" width=""35%"" height=""75%""></img></td>
  </tr>
</table>
  ",87.0,2.0,,,,,,,,,,,,,,,,,,,,,,,,,
220,0,,html-keyboard-response,220,893583,0.0-7.13-1.13,gnvo53gxw5,2022-09-19 15:58:54.688,5dd3d566e05cad3b130de19a,3,56,55,25,37,810.1999999881,,"
  <table>
  <tr height=300>
    <td width=300 height=300><img src=""static/images/cards/back_of_red_bolts.svg"" width=""175px"" height=""250px""></img></td>
    <td width=300 height=300><img src=""static/images/cards/back_of_red_bolts.svg"" width=""175px"" height=""250px""></img></td>
  </tr>
  <tr height=200>
    <td width=300><img src=""static/images/keys/z.svg"" width=""35%"" height=""75%""></img></td>
    <td width=300><img src=""static/images/keys/m.svg"" width=""35%"" height=""75%""></img></td>
  </tr>
</table>
  ",90.0,1.0,,,,,,,,,,,,,,,,,,,,,,,,,
221,0,,html-keyboard-response,221,895085,0.0-7.13-2.13,gnvo53gxw5,2022-09-19 15:58:54.688,5dd3d566e05cad3b130de19a,3,56,55,25,37,,,"
  <table>
  <tr height=300>
    <td width=300 height=300><img src=""static/images/cards/3_of_red_bolts.svg"" width=""175px"" height=""250px""></img></td>
    <td width=300 height=300><img src=""static/images/cards/back_of_red_bolts.svg"" width=""175px"" height=""250px""></img></td>
  </tr>
  <tr height=200>
    <td width=300><img src=""static/images/keys/z.svg"" width=""35%"" height=""75%""></img></td>
    <td width=300><img src=""static/images/keys/m.svg"" width=""35%"" height=""75%""></img></td>
  </tr>
</table>
  ",,,,,,,,,,,,,,,,,,,,,,,,,,,
222,0,,html-keyboard-response,222,896602,0.0-7.13-3.13,gnvo53gxw5,2022-09-19 15:58:54.688,5dd3d566e05cad3b130de19a,3,56,55,25,37,,,"<p style=""font-size:50px"">You win!
+10 points this round!</p>",,,,,,,,,,,,,,,,,,,,,,,,,,,
223,0,,html-keyboard-response,223,897122,0.0-7.13-4.13,gnvo53gxw5,2022-09-19 15:58:54.688,5dd3d566e05cad3b130de19a,3,56,55,25,37,,,,,,1.0,choice,13.0,D,Xc,red,red,bolts,stars,Xc,D,Xc,red,bolts,2112.5,1.0,0.0,NA,left,810.1999999881,3.0,0.0,1.0,,
224,0,,html-keyboard-response,224,898799,0.0-7.14-0.14,gnvo53gxw5,2022-09-19 15:58:54.688,5dd3d566e05cad3b130de19a,3,56,55,25,37,1676.900000006,,"
  <table>
  <tr height=300>
    <td width=300 height=300><img src=""static/images/cards/stack_of_red_moons.svg"" width=""175px"" height=""250px""></img></td>
    <td width=300 height=300><img src=""static/images/cards/stack_of_black_moons.svg"" width=""175px"" height=""250px""></img></td>
  </tr>
  <tr height=200>
    <td width=300><img src=""static/images/keys/w.svg"" width=""35%"" height=""75%""></img></td>
    <td width=300><img src=""static/images/keys/o.svg"" width=""35%"" height=""75%""></img></td>
  </tr>
</table>
  ",79.0,1.0,,,,,,,,,,,,,,,,,,,,,,,,,
225,0,,html-keyboard-response,225,899943,0.0-7.14-1.14,gnvo53gxw5,2022-09-19 15:58:54.688,5dd3d566e05cad3b130de19a,3,56,55,25,37,630.2000000179,,"
  <table>
  <tr height=300>
    <td width=300 height=300><img src=""static/images/cards/back_of_black_moons.svg"" width=""175px"" height=""250px""></img></td>
    <td width=300 height=300><img src=""static/images/cards/back_of_black_moons.svg"" width=""175px"" height=""250px""></img></td>
  </tr>
  <tr height=200>
    <td width=300><img src=""static/images/keys/z.svg"" width=""35%"" height=""75%""></img></td>
    <td width=300><img src=""static/images/keys/m.svg"" width=""35%"" height=""75%""></img></td>
  </tr>
</table>
  ",90.0,1.0,,,,,,,,,,,,,,,,,,,,,,,,,
226,0,,html-keyboard-response,226,901448,0.0-7.14-2.14,gnvo53gxw5,2022-09-19 15:58:54.688,5dd3d566e05cad3b130de19a,3,56,55,25,37,,,"
  <table>
  <tr height=300>
    <td width=300 height=300><img src=""static/images/cards/10_of_black_moons.svg"" width=""175px"" height=""250px""></img></td>
    <td width=300 height=300><img src=""static/images/cards/back_of_black_moons.svg"" width=""175px"" height=""250px""></img></td>
  </tr>
  <tr height=200>
    <td width=300><img src=""static/images/keys/z.svg"" width=""35%"" height=""75%""></img></td>
    <td width=300><img src=""static/images/keys/m.svg"" width=""35%"" height=""75%""></img></td>
  </tr>
</table>
  ",,,,,,,,,,,,,,,,,,,,,,,,,,,
227,0,,html-keyboard-response,227,902972,0.0-7.14-3.14,gnvo53gxw5,2022-09-19 15:58:54.688,5dd3d566e05cad3b130de19a,3,56,55,25,37,,,"<p style=""font-size:50px"">You win!
+10 points this round!</p>",,,,,,,,,,,,,,,,,,,,,,,,,,,
228,0,,html-keyboard-response,228,903487,0.0-7.14-4.14,gnvo53gxw5,2022-09-19 15:58:54.688,5dd3d566e05cad3b130de19a,3,56,55,25,37,,,,,,1.0,choice,14.0,A,B,red,black,moons,moons,B,A,A,black,moons,1676.900000006,1.0,1.0,NA,left,630.2000000179,10.0,1.0,1.0,,
229,0,,html-keyboard-response,229,905528,0.0-7.15-0.15,gnvo53gxw5,2022-09-19 15:58:54.688,5dd3d566e05cad3b130de19a,3,56,55,25,37,2039.900000006,,"
  <table>
  <tr height=300>
    <td width=300 height=300><img src=""static/images/cards/stack_of_black_stars.svg"" width=""175px"" height=""250px""></img></td>
    <td width=300 height=300><img src=""static/images/cards/stack_of_red_moons.svg"" width=""175px"" height=""250px""></img></td>
  </tr>
  <tr height=200>
    <td width=300><img src=""static/images/keys/w.svg"" width=""35%"" height=""75%""></img></td>
    <td width=300><img src=""static/images/keys/o.svg"" width=""35%"" height=""75%""></img></td>
  </tr>
</table>
  ",79.0,1.0,,,,,,,,,,,,,,,,,,,,,,,,,
230,0,,html-keyboard-response,230,906880,0.0-7.15-1.15,gnvo53gxw5,2022-09-19 15:58:54.688,5dd3d566e05cad3b130de19a,3,56,55,25,37,844.3999999762,,"
  <table>
  <tr height=300>
    <td width=300 height=300><img src=""static/images/cards/back_of_red_moons.svg"" width=""175px"" height=""250px""></img></td>
    <td width=300 height=300><img src=""static/images/cards/back_of_red_moons.svg"" width=""175px"" height=""250px""></img></td>
  </tr>
  <tr height=200>
    <td width=300><img src=""static/images/keys/z.svg"" width=""35%"" height=""75%""></img></td>
    <td width=300></td>
  </tr>
</table>
  ",90.0,1.0,,,,,,,,,,,,,,,,,,,,,,,,,
231,0,,html-keyboard-response,231,908392,0.0-7.15-2.15,gnvo53gxw5,2022-09-19 15:58:54.688,5dd3d566e05cad3b130de19a,3,56,55,25,37,,,"
  <table>
  <tr height=300>
    <td width=300 height=300><img src=""static/images/cards/9_of_red_moons.svg"" width=""175px"" height=""250px""></img></td>
    <td width=300 height=300><img src=""static/images/cards/back_of_red_moons.svg"" width=""175px"" height=""250px""></img></td>
  </tr>
  <tr height=200>
    <td width=300><img src=""static/images/keys/z.svg"" width=""35%"" height=""75%""></img></td>
    <td width=300></td>
  </tr>
</table>
  ",,,,,,,,,,,,,,,,,,,,,,,,,,,
232,0,,html-keyboard-response,232,909907,0.0-7.15-3.15,gnvo53gxw5,2022-09-19 15:58:54.688,5dd3d566e05cad3b130de19a,3,56,55,25,37,,,"<p style=""font-size:50px"">You win!
+10 points this round!</p>",,,,,,,,,,,,,,,,,,,,,,,,,,,
233,0,,html-keyboard-response,233,910423,0.0-7.15-4.15,gnvo53gxw5,2022-09-19 15:58:54.688,5dd3d566e05cad3b130de19a,3,56,55,25,37,,,,,,1.0,choice,15.0,B,C,black,red,stars,moons,C,B,B,red,moons,2039.900000006,0.0,1.0,1,left,844.3999999762,9.0,1.0,1.0,,
234,0,,html-keyboard-response,234,913056,0.0-7.16-0.16,gnvo53gxw5,2022-09-19 15:58:54.688,5dd3d566e05cad3b130de19a,3,56,55,25,37,2631.8000000119,,"
  <table>
  <tr height=300>
    <td width=300 height=300><img src=""static/images/cards/stack_of_red_moons.svg"" width=""175px"" height=""250px""></img></td>
    <td width=300 height=300><img src=""static/images/cards/stack_of_black_moons.svg"" width=""175px"" height=""250px""></img></td>
  </tr>
  <tr height=200>
    <td width=300><img src=""static/images/keys/w.svg"" width=""35%"" height=""75%""></img></td>
    <td width=300><img src=""static/images/keys/o.svg"" width=""35%"" height=""75%""></img></td>
  </tr>
</table>
  ",87.0,1.0,,,,,,,,,,,,,,,,,,,,,,,,,
235,0,,html-keyboard-response,235,914663,0.0-7.16-1.16,gnvo53gxw5,2022-09-19 15:58:54.688,5dd3d566e05cad3b130de19a,3,56,55,25,37,1099.5,,"
  <table>
  <tr height=300>
    <td width=300 height=300><img src=""static/images/cards/back_of_red_moons.svg"" width=""175px"" height=""250px""></img></td>
    <td width=300 height=300><img src=""static/images/cards/back_of_red_moons.svg"" width=""175px"" height=""250px""></img></td>
  </tr>
  <tr height=200>
    <td width=300></td>
    <td width=300><img src=""static/images/keys/m.svg"" width=""35%"" height=""75%""></img></td>
  </tr>
</table>
  ",77.0,1.0,,,,,,,,,,,,,,,,,,,,,,,,,
236,0,,html-keyboard-response,236,916173,0.0-7.16-2.16,gnvo53gxw5,2022-09-19 15:58:54.688,5dd3d566e05cad3b130de19a,3,56,55,25,37,,,"
  <table>
  <tr height=300>
    <td width=300 height=300><img src=""static/images/cards/back_of_red_moons.svg"" width=""175px"" height=""250px""></img></td>
    <td width=300 height=300><img src=""static/images/cards/9_of_red_moons.svg"" width=""175px"" height=""250px""></img></td>
  </tr>
  <tr height=200>
    <td width=300></td>
    <td width=300><img src=""static/images/keys/m.svg"" width=""35%"" height=""75%""></img></td>
  </tr>
</table>
  ",,,,,,,,,,,,,,,,,,,,,,,,,,,
237,0,,html-keyboard-response,237,917697,0.0-7.16-3.16,gnvo53gxw5,2022-09-19 15:58:54.688,5dd3d566e05cad3b130de19a,3,56,55,25,37,,,"<p style=""font-size:50px"">You win!
+10 points this round!</p>",,,,,,,,,,,,,,,,,,,,,,,,,,,
238,0,,html-keyboard-response,238,918210,0.0-7.16-4.16,gnvo53gxw5,2022-09-19 15:58:54.688,5dd3d566e05cad3b130de19a,3,56,55,25,37,,,,,,1.0,choice,16.0,A,B,red,black,moons,moons,B,A,B,red,moons,2631.8000000119,0.0,1.0,0,right,1099.5,9.0,1.0,1.0,,
239,0,,html-keyboard-response,239,919576,0.0-7.17-0.17,gnvo53gxw5,2022-09-19 15:58:54.688,5dd3d566e05cad3b130de19a,3,56,55,25,37,1365.5,,"
  <table>
  <tr height=300>
    <td width=300 height=300><img src=""static/images/cards/stack_of_red_moons.svg"" width=""175px"" height=""250px""></img></td>
    <td width=300 height=300><img src=""static/images/cards/stack_of_black_moons.svg"" width=""175px"" height=""250px""></img></td>
  </tr>
  <tr height=200>
    <td width=300><img src=""static/images/keys/w.svg"" width=""35%"" height=""75%""></img></td>
    <td width=300><img src=""static/images/keys/o.svg"" width=""35%"" height=""75%""></img></td>
  </tr>
</table>
  ",87.0,1.0,,,,,,,,,,,,,,,,,,,,,,,,,
240,0,,html-keyboard-response,240,920760,0.0-7.17-1.17,gnvo53gxw5,2022-09-19 15:58:54.688,5dd3d566e05cad3b130de19a,3,56,55,25,37,681.6999999881,,"
  <table>
  <tr height=300>
    <td width=300 height=300><img src=""static/images/cards/back_of_red_moons.svg"" width=""175px"" height=""250px""></img></td>
    <td width=300 height=300><img src=""static/images/cards/back_of_red_moons.svg"" width=""175px"" height=""250px""></img></td>
  </tr>
  <tr height=200>
    <td width=300></td>
    <td width=300><img src=""static/images/keys/m.svg"" width=""35%"" height=""75%""></img></td>
  </tr>
</table>
  ",77.0,1.0,,,,,,,,,,,,,,,,,,,,,,,,,
241,0,,html-keyboard-response,241,922268,0.0-7.17-2.17,gnvo53gxw5,2022-09-19 15:58:54.688,5dd3d566e05cad3b130de19a,3,56,55,25,37,,,"
  <table>
  <tr height=300>
