,index,success,trial_type,trial_index,time_elapsed,internal_node_id,subject,date,prol_id,ctbl,sense_of_control_A,sense_of_control_B,sense_of_control_C,sense_of_control_D,age,gender,rt,url,stimulus,key_press,npress,is_data_trial,phase,trial,deck1,deck2,col1,col2,sym1,sym2,deck_l,deck_r,chosen_deck,chosen_col,chosen_sym,deck_rt,choose_choice,mutual_info,hidden_key,chosen_card,card_rt,player_num,win_card,outcome,mock_rating,response,responses
0,0,1.0,fullscreen,0,2003,0.0-0.0,na6pe9dth3h,2022-09-19 13:45:42.734,5a6600bd35f26b000149402e,0,100,51,51,25,27,Female,,,,,,,,,,,,,,,,,,,,,,,,,,,,,,,
1,0,,external-html,1,6283,0.0-1.0,na6pe9dth3h,2022-09-19 13:45:42.734,5a6600bd35f26b000149402e,0,100,51,51,25,27,Female,4164.5,static/js/sub/consent.html,,,,,,,,,,,,,,,,,,,,,,,,,,,,,
2,0,,call-function,2,6284,0.0-2.0,na6pe9dth3h,2022-09-19 13:45:42.734,5a6600bd35f26b000149402e,0,100,51,51,25,27,Female,,,,,,,,,,,,,,,,,,,,,,,,,,,,,,,
3,0,,image-keyboard-response,3,10525,0.0-3.0-0.0,na6pe9dth3h,2022-09-19 13:45:42.734,5a6600bd35f26b000149402e,0,100,51,51,25,27,Female,4240.2999999523,,static/images/instructions_CB_0/Slide1.png,39.0,,,,,,,,,,,,,,,,,,,,,,,,,,,
4,0,,image-keyboard-response,4,16203,0.0-3.1-0.1,na6pe9dth3h,2022-09-19 13:45:42.734,5a6600bd35f26b000149402e,0,100,51,51,25,27,Female,5677.6000001431,,static/images/instructions_CB_0/Slide2.png,39.0,,,,,,,,,,,,,,,,,,,,,,,,,,,
5,0,,image-keyboard-response,5,19019,0.0-3.2-0.2,na6pe9dth3h,2022-09-19 13:45:42.734,5a6600bd35f26b000149402e,0,100,51,51,25,27,Female,2815.1999998093,,static/images/instructions_CB_0/Slide3.png,39.0,,,,,,,,,,,,,,,,,,,,,,,,,,,
6,0,,image-keyboard-response,6,22596,0.0-3.3-0.3,na6pe9dth3h,2022-09-19 13:45:42.734,5a6600bd35f26b000149402e,0,100,51,51,25,27,Female,3575.9000000954,,static/images/instructions_CB_0/Slide4.png,39.0,,,,,,,,,,,,,,,,,,,,,,,,,,,
7,0,,image-keyboard-response,7,27348,0.0-3.4-0.4,na6pe9dth3h,2022-09-19 13:45:42.734,5a6600bd35f26b000149402e,0,100,51,51,25,27,Female,4751.2999999523,,static/images/instructions_CB_0/Slide5.png,39.0,,,,,,,,,,,,,,,,,,,,,,,,,,,
8,0,,image-keyboard-response,8,28940,0.0-3.5-0.5,na6pe9dth3h,2022-09-19 13:45:42.734,5a6600bd35f26b000149402e,0,100,51,51,25,27,Female,1591.0999999046,,static/images/instructions_CB_0/Slide6.png,39.0,,,,,,,,,,,,,,,,,,,,,,,,,,,
9,0,,image-keyboard-response,9,31460,0.0-3.6-0.6,na6pe9dth3h,2022-09-19 13:45:42.734,5a6600bd35f26b000149402e,0,100,51,51,25,27,Female,2519.5999999046,,static/images/instructions_CB_0/Slide7.png,39.0,,,,,,,,,,,,,,,,,,,,,,,,,,,
10,0,,image-keyboard-response,10,38860,0.0-3.7-0.7,na6pe9dth3h,2022-09-19 13:45:42.734,5a6600bd35f26b000149402e,0,100,51,51,25,27,Female,7399.5,,static/images/instructions_CB_0/Slide8.png,39.0,,,,,,,,,,,,,,,,,,,,,,,,,,,
11,0,,image-keyboard-response,11,42771,0.0-3.8-0.8,na6pe9dth3h,2022-09-19 13:45:42.734,5a6600bd35f26b000149402e,0,100,51,51,25,27,Female,3910.5,,static/images/instructions_CB_0/Slide9.png,39.0,,,,,,,,,,,,,,,,,,,,,,,,,,,
12,0,,image-keyboard-response,12,49636,0.0-3.9-0.9,na6pe9dth3h,2022-09-19 13:45:42.734,5a6600bd35f26b000149402e,0,100,51,51,25,27,Female,6864.0999999046,,static/images/instructions_CB_0/Slide10.png,39.0,,,,,,,,,,,,,,,,,,,,,,,,,,,
13,0,,image-keyboard-response,13,53308,0.0-3.10-0.10,na6pe9dth3h,2022-09-19 13:45:42.734,5a6600bd35f26b000149402e,0,100,51,51,25,27,Female,3671.5,,static/images/instructions_CB_0/Slide11.png,39.0,,,,,,,,,,,,,,,,,,,,,,,,,,,
14,0,,image-keyboard-response,14,63220,0.0-3.11-0.11,na6pe9dth3h,2022-09-19 13:45:42.734,5a6600bd35f26b000149402e,0,100,51,51,25,27,Female,9911.6000001431,,static/images/instructions_CB_0/Slide12.png,39.0,,,,,,,,,,,,,,,,,,,,,,,,,,,
15,0,,image-keyboard-response,15,74756,0.0-3.12-0.12,na6pe9dth3h,2022-09-19 13:45:42.734,5a6600bd35f26b000149402e,0,100,51,51,25,27,Female,11535.1999998093,,static/images/instructions_CB_0/Slide13.png,39.0,,,,,,,,,,,,,,,,,,,,,,,,,,,
16,0,,image-keyboard-response,16,79676,0.0-3.13-0.13,na6pe9dth3h,2022-09-19 13:45:42.734,5a6600bd35f26b000149402e,0,100,51,51,25,27,Female,4919.3999998569,,static/images/instructions_CB_0/Slide14.png,39.0,,,,,,,,,,,,,,,,,,,,,,,,,,,
17,0,,image-keyboard-response,17,83892,0.0-3.14-0.14,na6pe9dth3h,2022-09-19 13:45:42.734,5a6600bd35f26b000149402e,0,100,51,51,25,27,Female,4215.5,,static/images/instructions_CB_0/Slide15.png,39.0,,,,,,,,,,,,,,,,,,,,,,,,,,,
18,0,,image-keyboard-response,18,89156,0.0-3.15-0.15,na6pe9dth3h,2022-09-19 13:45:42.734,5a6600bd35f26b000149402e,0,100,51,51,25,27,Female,5263.2000000477,,static/images/instructions_CB_0/Slide16.png,39.0,,,,,,,,,,,,,,,,,,,,,,,,,,,
19,0,,image-keyboard-response,19,95708,0.0-3.16-0.16,na6pe9dth3h,2022-09-19 13:45:42.734,5a6600bd35f26b000149402e,0,100,51,51,25,27,Female,6551.5,,static/images/instructions_CB_0/Slide17.png,39.0,,,,,,,,,,,,,,,,,,,,,,,,,,,
20,0,,image-keyboard-response,20,104932,0.0-3.17-0.17,na6pe9dth3h,2022-09-19 13:45:42.734,5a6600bd35f26b000149402e,0,100,51,51,25,27,Female,9223.4000000954,,static/images/instructions_CB_0/Slide18.png,39.0,,,,,,,,,,,,,,,,,,,,,,,,,,,
21,0,,image-keyboard-response,21,111324,0.0-3.18-0.18,na6pe9dth3h,2022-09-19 13:45:42.734,5a6600bd35f26b000149402e,0,100,51,51,25,27,Female,6391.2999999523,,static/images/instructions_CB_0/Slide19.png,39.0,,,,,,,,,,,,,,,,,,,,,,,,,,,
22,0,,html-keyboard-response,22,112832,0.0-4.0-0.0,na6pe9dth3h,2022-09-19 13:45:42.734,5a6600bd35f26b000149402e,0,100,51,51,25,27,Female,,,"<img src=""static/images/cards/stack_of_red_stars.svg"" width=""175px"" height=""250px""></img>",,,,,,,,,,,,,,,,,,,,,,,,,,,,
23,0,,html-keyboard-response,23,114411,0.0-4.0-1.0,na6pe9dth3h,2022-09-19 13:45:42.734,5a6600bd35f26b000149402e,0,100,51,51,25,27,Female,1064.7999999523,,"
  <table>
  <tr height=300>
    <td width=300 height=300><img src=""static/images/cards/back_of_red_stars.svg"" width=""175px"" height=""250px""></img></td>
    <td width=300 height=300><img src=""static/images/cards/back_of_red_stars.svg"" width=""175px"" height=""250px""></img></td>
  </tr>
  <tr height=200>
    <td width=300><img src=""static/images/keys/z.svg"" width=""35%"" height=""75%""></img></td>
    <td width=300><img src=""static/images/keys/m.svg"" width=""35%"" height=""75%""></img></td>
  </tr>
</table>
  ",77.0,1.0,,,,,,,,,,,,,,,,,,,,,,,,,,
24,0,,html-keyboard-response,24,115926,0.0-4.0-2.0,na6pe9dth3h,2022-09-19 13:45:42.734,5a6600bd35f26b000149402e,0,100,51,51,25,27,Female,,,"
  <table>
  <tr height=300>
    <td width=300 height=300><img src=""static/images/cards/back_of_red_stars.svg"" width=""175px"" height=""250px""></img></td>
    <td width=300 height=300><img src=""static/images/cards/2_of_red_stars.svg"" width=""175px"" height=""250px""></img></td>
  </tr>
  <tr height=200>
    <td width=300><img src=""static/images/keys/z.svg"" width=""35%"" height=""75%""></img></td>
    <td width=300><img src=""static/images/keys/m.svg"" width=""35%"" height=""75%""></img></td>
  </tr>
</table>
  ",,,,,,,,,,,,,,,,,,,,,,,,,,,,
25,0,,html-keyboard-response,25,117441,0.0-4.0-3.0,na6pe9dth3h,2022-09-19 13:45:42.734,5a6600bd35f26b000149402e,0,100,51,51,25,27,Female,,,"<p style=""font-size:50px"">You Lose!
No points this round.</p>",,,,,,,,,,,,,,,,,,,,,,,,,,,,
26,0,,html-keyboard-response,26,117958,0.0-4.0-4.0,na6pe9dth3h,2022-09-19 13:45:42.734,5a6600bd35f26b000149402e,0,100,51,51,25,27,Female,,,,,,1.0,learning,0.0,A,,red,,stars,,,,A,red,stars,,1.0,1.0,NA,right,1064.7999999523,2.0,0.0,0.0,,,
27,0,,html-keyboard-response,27,119460,0.0-4.1-0.1,na6pe9dth3h,2022-09-19 13:45:42.734,5a6600bd35f26b000149402e,0,100,51,51,25,27,Female,,,"<img src=""static/images/cards/stack_of_black_stars.svg"" width=""175px"" height=""250px""></img>",,,,,,,,,,,,,,,,,,,,,,,,,,,,
28,0,,html-keyboard-response,28,120467,0.0-4.1-1.1,na6pe9dth3h,2022-09-19 13:45:42.734,5a6600bd35f26b000149402e,0,100,51,51,25,27,Female,494.7000000477,,"
  <table>
  <tr height=300>
    <td width=300 height=300><img src=""static/images/cards/back_of_black_stars.svg"" width=""175px"" height=""250px""></img></td>
    <td width=300 height=300><img src=""static/images/cards/back_of_black_stars.svg"" width=""175px"" height=""250px""></img></td>
  </tr>
  <tr height=200>
    <td width=300><img src=""static/images/keys/z.svg"" width=""35%"" height=""75%""></img></td>
    <td width=300></td>
  </tr>
</table>
  ",90.0,1.0,,,,,,,,,,,,,,,,,,,,,,,,,,
29,0,,html-keyboard-response,29,121973,0.0-4.1-2.1,na6pe9dth3h,2022-09-19 13:45:42.734,5a6600bd35f26b000149402e,0,100,51,51,25,27,Female,,,"
  <table>
  <tr height=300>
    <td width=300 height=300><img src=""static/images/cards/2_of_black_stars.svg"" width=""175px"" height=""250px""></img></td>
    <td width=300 height=300><img src=""static/images/cards/back_of_black_stars.svg"" width=""175px"" height=""250px""></img></td>
  </tr>
  <tr height=200>
    <td width=300><img src=""static/images/keys/z.svg"" width=""35%"" height=""75%""></img></td>
    <td width=300></td>
  </tr>
</table>
  ",,,,,,,,,,,,,,,,,,,,,,,,,,,,
30,0,,html-keyboard-response,30,123497,0.0-4.1-3.1,na6pe9dth3h,2022-09-19 13:45:42.734,5a6600bd35f26b000149402e,0,100,51,51,25,27,Female,,,"<p style=""font-size:50px"">You Lose!
No points this round.</p>",,,,,,,,,,,,,,,,,,,,,,,,,,,,
31,0,,html-keyboard-response,31,124015,0.0-4.1-4.1,na6pe9dth3h,2022-09-19 13:45:42.734,5a6600bd35f26b000149402e,0,100,51,51,25,27,Female,,,,,,1.0,learning,1.0,B,,black,,stars,,,,B,black,stars,,0.0,1.0,1,left,494.7000000477,2.0,0.0,0.0,,,
32,0,,html-keyboard-response,32,125519,0.0-4.2-0.2,na6pe9dth3h,2022-09-19 13:45:42.734,5a6600bd35f26b000149402e,0,100,51,51,25,27,Female,,,"<img src=""static/images/cards/stack_of_red_moons.svg"" width=""175px"" height=""250px""></img>",,,,,,,,,,,,,,,,,,,,,,,,,,,,
33,0,,html-keyboard-response,33,126396,0.0-4.2-1.2,na6pe9dth3h,2022-09-19 13:45:42.734,5a6600bd35f26b000149402e,0,100,51,51,25,27,Female,362.7999999523,,"
  <table>
  <tr height=300>
    <td width=300 height=300><img src=""static/images/cards/back_of_red_moons.svg"" width=""175px"" height=""250px""></img></td>
    <td width=300 height=300><img src=""static/images/cards/back_of_red_moons.svg"" width=""175px"" height=""250px""></img></td>
  </tr>
  <tr height=200>
    <td width=300><img src=""static/images/keys/z.svg"" width=""35%"" height=""75%""></img></td>
    <td width=300><img src=""static/images/keys/m.svg"" width=""35%"" height=""75%""></img></td>
  </tr>
</table>
  ",90.0,1.0,,,,,,,,,,,,,,,,,,,,,,,,,,
34,0,,html-keyboard-response,34,127909,0.0-4.2-2.2,na6pe9dth3h,2022-09-19 13:45:42.734,5a6600bd35f26b000149402e,0,100,51,51,25,27,Female,,,"
  <table>
  <tr height=300>
    <td width=300 height=300><img src=""static/images/cards/9_of_red_moons.svg"" width=""175px"" height=""250px""></img></td>
    <td width=300 height=300><img src=""static/images/cards/back_of_red_moons.svg"" width=""175px"" height=""250px""></img></td>
  </tr>
  <tr height=200>
    <td width=300><img src=""static/images/keys/z.svg"" width=""35%"" height=""75%""></img></td>
    <td width=300><img src=""static/images/keys/m.svg"" width=""35%"" height=""75%""></img></td>
  </tr>
</table>
  ",,,,,,,,,,,,,,,,,,,,,,,,,,,,
35,0,,html-keyboard-response,35,129427,0.0-4.2-3.2,na6pe9dth3h,2022-09-19 13:45:42.734,5a6600bd35f26b000149402e,0,100,51,51,25,27,Female,,,"<p style=""font-size:50px"">You win!
+10 points this round!</p>",,,,,,,,,,,,,,,,,,,,,,,,,,,,
36,0,,html-keyboard-response,36,129945,0.0-4.2-4.2,na6pe9dth3h,2022-09-19 13:45:42.734,5a6600bd35f26b000149402e,0,100,51,51,25,27,Female,,,,,,1.0,learning,2.0,C,,red,,moons,,,,C,red,moons,,1.0,0.0,NA,left,362.7999999523,9.0,1.0,1.0,,,
37,0,,html-keyboard-response,37,131462,0.0-4.3-0.3,na6pe9dth3h,2022-09-19 13:45:42.734,5a6600bd35f26b000149402e,0,100,51,51,25,27,Female,,,"<img src=""static/images/cards/stack_of_black_moons.svg"" width=""175px"" height=""250px""></img>",,,,,,,,,,,,,,,,,,,,,,,,,,,,
38,0,,html-keyboard-response,38,132484,0.0-4.3-1.3,na6pe9dth3h,2022-09-19 13:45:42.734,5a6600bd35f26b000149402e,0,100,51,51,25,27,Female,506.9000000954,,"
  <table>
  <tr height=300>
    <td width=300 height=300><img src=""static/images/cards/back_of_black_moons.svg"" width=""175px"" height=""250px""></img></td>
    <td width=300 height=300><img src=""static/images/cards/back_of_black_moons.svg"" width=""175px"" height=""250px""></img></td>
  </tr>
  <tr height=200>
    <td width=300><img src=""static/images/keys/z.svg"" width=""35%"" height=""75%""></img></td>
    <td width=300></td>
  </tr>
</table>
  ",90.0,1.0,,,,,,,,,,,,,,,,,,,,,,,,,,
39,0,,html-keyboard-response,39,133999,0.0-4.3-2.3,na6pe9dth3h,2022-09-19 13:45:42.734,5a6600bd35f26b000149402e,0,100,51,51,25,27,Female,,,"
  <table>
  <tr height=300>
    <td width=300 height=300><img src=""static/images/cards/4_of_black_moons.svg"" width=""175px"" height=""250px""></img></td>
    <td width=300 height=300><img src=""static/images/cards/back_of_black_moons.svg"" width=""175px"" height=""250px""></img></td>
  </tr>
  <tr height=200>
    <td width=300><img src=""static/images/keys/z.svg"" width=""35%"" height=""75%""></img></td>
    <td width=300></td>
  </tr>
</table>
  ",,,,,,,,,,,,,,,,,,,,,,,,,,,,
40,0,,html-keyboard-response,40,135520,0.0-4.3-3.3,na6pe9dth3h,2022-09-19 13:45:42.734,5a6600bd35f26b000149402e,0,100,51,51,25,27,Female,,,"<p style=""font-size:50px"">You win!
+10 points this round!</p>",,,,,,,,,,,,,,,,,,,,,,,,,,,,
41,0,,html-keyboard-response,41,136032,0.0-4.3-4.3,na6pe9dth3h,2022-09-19 13:45:42.734,5a6600bd35f26b000149402e,0,100,51,51,25,27,Female,,,,,,1.0,learning,3.0,D,,black,,moons,,,,D,black,moons,,0.0,0.0,1,left,506.9000000954,4.0,0.0,1.0,,,
42,0,,html-keyboard-response,42,137534,0.0-4.4-0.4,na6pe9dth3h,2022-09-19 13:45:42.734,5a6600bd35f26b000149402e,0,100,51,51,25,27,Female,,,"<img src=""static/images/cards/stack_of_red_bolts.svg"" width=""175px"" height=""250px""></img>",,,,,,,,,,,,,,,,,,,,,,,,,,,,
43,0,,html-keyboard-response,43,139403,0.0-4.4-1.4,na6pe9dth3h,2022-09-19 13:45:42.734,5a6600bd35f26b000149402e,0,100,51,51,25,27,Female,1355.7999999523,,"
  <table>
  <tr height=300>
    <td width=300 height=300><img src=""static/images/cards/back_of_red_bolts.svg"" width=""175px"" height=""250px""></img></td>
    <td width=300 height=300><img src=""static/images/cards/back_of_red_bolts.svg"" width=""175px"" height=""250px""></img></td>
  </tr>
  <tr height=200>
    <td width=300><img src=""static/images/keys/z.svg"" width=""35%"" height=""75%""></img></td>
    <td width=300><img src=""static/images/keys/m.svg"" width=""35%"" height=""75%""></img></td>
  </tr>
</table>
  ",77.0,1.0,,,,,,,,,,,,,,,,,,,,,,,,,,
44,0,,html-keyboard-response,44,140908,0.0-4.4-2.4,na6pe9dth3h,2022-09-19 13:45:42.734,5a6600bd35f26b000149402e,0,100,51,51,25,27,Female,,,"
  <table>
  <tr height=300>
    <td width=300 height=300><img src=""static/images/cards/back_of_red_bolts.svg"" width=""175px"" height=""250px""></img></td>
    <td width=300 height=300><img src=""static/images/cards/10_of_red_bolts.svg"" width=""175px"" height=""250px""></img></td>
  </tr>
  <tr height=200>
    <td width=300><img src=""static/images/keys/z.svg"" width=""35%"" height=""75%""></img></td>
    <td width=300><img src=""static/images/keys/m.svg"" width=""35%"" height=""75%""></img></td>
  </tr>
</table>
  ",,,,,,,,,,,,,,,,,,,,,,,,,,,,
45,0,,html-keyboard-response,45,142431,0.0-4.4-3.4,na6pe9dth3h,2022-09-19 13:45:42.734,5a6600bd35f26b000149402e,0,100,51,51,25,27,Female,,,"<p style=""font-size:50px"">You win!
+10 points this round!</p>",,,,,,,,,,,,,,,,,,,,,,,,,,,,
46,0,,html-keyboard-response,46,142948,0.0-4.4-4.4,na6pe9dth3h,2022-09-19 13:45:42.734,5a6600bd35f26b000149402e,0,100,51,51,25,27,Female,,,,,,1.0,learning,4.0,Xc,,red,,bolts,,,,Xc,red,bolts,,1.0,0.0,NA,right,1355.7999999523,10.0,1.0,1.0,,,
47,0,,html-keyboard-response,47,144451,0.0-4.5-0.5,na6pe9dth3h,2022-09-19 13:45:42.734,5a6600bd35f26b000149402e,0,100,51,51,25,27,Female,,,"<img src=""static/images/cards/stack_of_black_bolts.svg"" width=""175px"" height=""250px""></img>",,,,,,,,,,,,,,,,,,,,,,,,,,,,
48,0,,html-keyboard-response,48,145428,0.0-4.5-1.5,na6pe9dth3h,2022-09-19 13:45:42.734,5a6600bd35f26b000149402e,0,100,51,51,25,27,Female,460.1000001431,,"
  <table>
  <tr height=300>
    <td width=300 height=300><img src=""static/images/cards/back_of_black_bolts.svg"" width=""175px"" height=""250px""></img></td>
    <td width=300 height=300><img src=""static/images/cards/back_of_black_bolts.svg"" width=""175px"" height=""250px""></img></td>
  </tr>
  <tr height=200>
    <td width=300></td>
    <td width=300><img src=""static/images/keys/m.svg"" width=""35%"" height=""75%""></img></td>
  </tr>
</table>
  ",77.0,1.0,,,,,,,,,,,,,,,,,,,,,,,,,,
49,0,,html-keyboard-response,49,146941,0.0-4.5-2.5,na6pe9dth3h,2022-09-19 13:45:42.734,5a6600bd35f26b000149402e,0,100,51,51,25,27,Female,,,"
  <table>
  <tr height=300>
    <td width=300 height=300><img src=""static/images/cards/back_of_black_bolts.svg"" width=""175px"" height=""250px""></img></td>
    <td width=300 height=300><img src=""static/images/cards/1_of_black_bolts.svg"" width=""175px"" height=""250px""></img></td>
  </tr>
  <tr height=200>
    <td width=300></td>
    <td width=300><img src=""static/images/keys/m.svg"" width=""35%"" height=""75%""></img></td>
  </tr>
</table>
  ",,,,,,,,,,,,,,,,,,,,,,,,,,,,
50,0,,html-keyboard-response,50,148467,0.0-4.5-3.5,na6pe9dth3h,2022-09-19 13:45:42.734,5a6600bd35f26b000149402e,0,100,51,51,25,27,Female,,,"<p style=""font-size:50px"">You win!
+10 points this round!</p>",,,,,,,,,,,,,,,,,,,,,,,,,,,,
51,0,,html-keyboard-response,51,148973,0.0-4.5-4.5,na6pe9dth3h,2022-09-19 13:45:42.734,5a6600bd35f26b000149402e,0,100,51,51,25,27,Female,,,,,,1.0,learning,5.0,Xnc,,black,,bolts,,,,Xnc,black,bolts,,0.0,0.0,0,right,460.1000001431,1.0,0.0,1.0,,,
52,0,,html-keyboard-response,52,150475,0.0-4.6-0.6,na6pe9dth3h,2022-09-19 13:45:42.734,5a6600bd35f26b000149402e,0,100,51,51,25,27,Female,,,"<img src=""static/images/cards/stack_of_red_stars.svg"" width=""175px"" height=""250px""></img>",,,,,,,,,,,,,,,,,,,,,,,,,,,,
53,0,,html-keyboard-response,53,151892,0.0-4.6-1.6,na6pe9dth3h,2022-09-19 13:45:42.734,5a6600bd35f26b000149402e,0,100,51,51,25,27,Female,905.3000001907,,"
  <table>
  <tr height=300>
    <td width=300 height=300><img src=""static/images/cards/back_of_red_stars.svg"" width=""175px"" height=""250px""></img></td>
    <td width=300 height=300><img src=""static/images/cards/back_of_red_stars.svg"" width=""175px"" height=""250px""></img></td>
  </tr>
  <tr height=200>
    <td width=300><img src=""static/images/keys/z.svg"" width=""35%"" height=""75%""></img></td>
    <td width=300><img src=""static/images/keys/m.svg"" width=""35%"" height=""75%""></img></td>
  </tr>
</table>
  ",90.0,1.0,,,,,,,,,,,,,,,,,,,,,,,,,,
54,0,,html-keyboard-response,54,153395,0.0-4.6-2.6,na6pe9dth3h,2022-09-19 13:45:42.734,5a6600bd35f26b000149402e,0,100,51,51,25,27,Female,,,"
  <table>
  <tr height=300>
    <td width=300 height=300><img src=""static/images/cards/2_of_red_stars.svg"" width=""175px"" height=""250px""></img></td>
    <td width=300 height=300><img src=""static/images/cards/back_of_red_stars.svg"" width=""175px"" height=""250px""></img></td>
  </tr>
  <tr height=200>
    <td width=300><img src=""static/images/keys/z.svg"" width=""35%"" height=""75%""></img></td>
    <td width=300><img src=""static/images/keys/m.svg"" width=""35%"" height=""75%""></img></td>
  </tr>
</table>
  ",,,,,,,,,,,,,,,,,,,,,,,,,,,,
55,0,,html-keyboard-response,55,154918,0.0-4.6-3.6,na6pe9dth3h,2022-09-19 13:45:42.734,5a6600bd35f26b000149402e,0,100,51,51,25,27,Female,,,"<p style=""font-size:50px"">You Lose!
No points this round.</p>",,,,,,,,,,,,,,,,,,,,,,,,,,,,
56,0,,html-keyboard-response,56,155437,0.0-4.6-4.6,na6pe9dth3h,2022-09-19 13:45:42.734,5a6600bd35f26b000149402e,0,100,51,51,25,27,Female,,,,,,1.0,learning,6.0,A,,red,,stars,,,,A,red,stars,,1.0,1.0,NA,left,905.3000001907,2.0,0.0,0.0,,,
57,0,,html-keyboard-response,57,156940,0.0-4.7-0.7,na6pe9dth3h,2022-09-19 13:45:42.734,5a6600bd35f26b000149402e,0,100,51,51,25,27,Female,,,"<img src=""static/images/cards/stack_of_black_stars.svg"" width=""175px"" height=""250px""></img>",,,,,,,,,,,,,,,,,,,,,,,,,,,,
58,0,,html-keyboard-response,58,157868,0.0-4.7-1.7,na6pe9dth3h,2022-09-19 13:45:42.734,5a6600bd35f26b000149402e,0,100,51,51,25,27,Female,416.0999999046,,"
  <table>
  <tr height=300>
    <td width=300 height=300><img src=""static/images/cards/back_of_black_stars.svg"" width=""175px"" height=""250px""></img></td>
    <td width=300 height=300><img src=""static/images/cards/back_of_black_stars.svg"" width=""175px"" height=""250px""></img></td>
  </tr>
  <tr height=200>
    <td width=300></td>
    <td width=300><img src=""static/images/keys/m.svg"" width=""35%"" height=""75%""></img></td>
  </tr>
</table>
  ",77.0,1.0,,,,,,,,,,,,,,,,,,,,,,,,,,
59,0,,html-keyboard-response,59,159377,0.0-4.7-2.7,na6pe9dth3h,2022-09-19 13:45:42.734,5a6600bd35f26b000149402e,0,100,51,51,25,27,Female,,,"
  <table>
  <tr height=300>
    <td width=300 height=300><img src=""static/images/cards/back_of_black_stars.svg"" width=""175px"" height=""250px""></img></td>
    <td width=300 height=300><img src=""static/images/cards/3_of_black_stars.svg"" width=""175px"" height=""250px""></img></td>
  </tr>
  <tr height=200>
    <td width=300></td>
    <td width=300><img src=""static/images/keys/m.svg"" width=""35%"" height=""75%""></img></td>
  </tr>
</table>
  ",,,,,,,,,,,,,,,,,,,,,,,,,,,,
60,0,,html-keyboard-response,60,160899,0.0-4.7-3.7,na6pe9dth3h,2022-09-19 13:45:42.734,5a6600bd35f26b000149402e,0,100,51,51,25,27,Female,,,"<p style=""font-size:50px"">You Lose!
No points this round.</p>",,,,,,,,,,,,,,,,,,,,,,,,,,,,
61,0,,html-keyboard-response,61,161416,0.0-4.7-4.7,na6pe9dth3h,2022-09-19 13:45:42.734,5a6600bd35f26b000149402e,0,100,51,51,25,27,Female,,,,,,1.0,learning,7.0,B,,black,,stars,,,,B,black,stars,,0.0,1.0,0,right,416.0999999046,3.0,0.0,0.0,,,
62,0,,html-keyboard-response,62,162919,0.0-4.8-0.8,na6pe9dth3h,2022-09-19 13:45:42.734,5a6600bd35f26b000149402e,0,100,51,51,25,27,Female,,,"<img src=""static/images/cards/stack_of_red_moons.svg"" width=""175px"" height=""250px""></img>",,,,,,,,,,,,,,,,,,,,,,,,,,,,
63,0,,html-keyboard-response,63,163908,0.0-4.8-1.8,na6pe9dth3h,2022-09-19 13:45:42.734,5a6600bd35f26b000149402e,0,100,51,51,25,27,Female,473.5,,"
  <table>
  <tr height=300>
    <td width=300 height=300><img src=""static/images/cards/back_of_red_moons.svg"" width=""175px"" height=""250px""></img></td>
    <td width=300 height=300><img src=""static/images/cards/back_of_red_moons.svg"" width=""175px"" height=""250px""></img></td>
  </tr>
  <tr height=200>
    <td width=300><img src=""static/images/keys/z.svg"" width=""35%"" height=""75%""></img></td>
    <td width=300><img src=""static/images/keys/m.svg"" width=""35%"" height=""75%""></img></td>
  </tr>
</table>
  ",77.0,1.0,,,,,,,,,,,,,,,,,,,,,,,,,,
64,0,,html-keyboard-response,64,165421,0.0-4.8-2.8,na6pe9dth3h,2022-09-19 13:45:42.734,5a6600bd35f26b000149402e,0,100,51,51,25,27,Female,,,"
  <table>
  <tr height=300>
    <td width=300 height=300><img src=""static/images/cards/back_of_red_moons.svg"" width=""175px"" height=""250px""></img></td>
    <td width=300 height=300><img src=""static/images/cards/9_of_red_moons.svg"" width=""175px"" height=""250px""></img></td>
  </tr>
  <tr height=200>
    <td width=300><img src=""static/images/keys/z.svg"" width=""35%"" height=""75%""></img></td>
    <td width=300><img src=""static/images/keys/m.svg"" width=""35%"" height=""75%""></img></td>
  </tr>
</table>
  ",,,,,,,,,,,,,,,,,,,,,,,,,,,,
65,0,,html-keyboard-response,65,166944,0.0-4.8-3.8,na6pe9dth3h,2022-09-19 13:45:42.734,5a6600bd35f26b000149402e,0,100,51,51,25,27,Female,,,"<p style=""font-size:50px"">You win!
+10 points this round!</p>",,,,,,,,,,,,,,,,,,,,,,,,,,,,
66,0,,html-keyboard-response,66,167465,0.0-4.8-4.8,na6pe9dth3h,2022-09-19 13:45:42.734,5a6600bd35f26b000149402e,0,100,51,51,25,27,Female,,,,,,1.0,learning,8.0,C,,red,,moons,,,,C,red,moons,,1.0,0.0,NA,right,473.5,9.0,1.0,1.0,,,
67,0,,html-keyboard-response,67,168966,0.0-4.9-0.9,na6pe9dth3h,2022-09-19 13:45:42.734,5a6600bd35f26b000149402e,0,100,51,51,25,27,Female,,,"<img src=""static/images/cards/stack_of_black_moons.svg"" width=""175px"" height=""250px""></img>",,,,,,,,,,,,,,,,,,,,,,,,,,,,
68,0,,html-keyboard-response,68,170068,0.0-4.9-1.9,na6pe9dth3h,2022-09-19 13:45:42.734,5a6600bd35f26b000149402e,0,100,51,51,25,27,Female,587.8000001907,,"
  <table>
  <tr height=300>
    <td width=300 height=300><img src=""static/images/cards/back_of_black_moons.svg"" width=""175px"" height=""250px""></img></td>
    <td width=300 height=300><img src=""static/images/cards/back_of_black_moons.svg"" width=""175px"" height=""250px""></img></td>
  </tr>
  <tr height=200>
    <td width=300></td>
    <td width=300><img src=""static/images/keys/m.svg"" width=""35%"" height=""75%""></img></td>
  </tr>
</table>
  ",77.0,1.0,,,,,,,,,,,,,,,,,,,,,,,,,,
69,0,,html-keyboard-response,69,171580,0.0-4.9-2.9,na6pe9dth3h,2022-09-19 13:45:42.734,5a6600bd35f26b000149402e,0,100,51,51,25,27,Female,,,"
  <table>
  <tr height=300>
    <td width=300 height=300><img src=""static/images/cards/back_of_black_moons.svg"" width=""175px"" height=""250px""></img></td>
    <td width=300 height=300><img src=""static/images/cards/10_of_black_moons.svg"" width=""175px"" height=""250px""></img></td>
  </tr>
  <tr height=200>
    <td width=300></td>
    <td width=300><img src=""static/images/keys/m.svg"" width=""35%"" height=""75%""></img></td>
  </tr>
</table>
  ",,,,,,,,,,,,,,,,,,,,,,,,,,,,
70,0,,html-keyboard-response,70,173111,0.0-4.9-3.9,na6pe9dth3h,2022-09-19 13:45:42.734,5a6600bd35f26b000149402e,0,100,51,51,25,27,Female,,,"<p style=""font-size:50px"">You win!
+10 points this round!</p>",,,,,,,,,,,,,,,,,,,,,,,,,,,,
71,0,,html-keyboard-response,71,173627,0.0-4.9-4.9,na6pe9dth3h,2022-09-19 13:45:42.734,5a6600bd35f26b000149402e,0,100,51,51,25,27,Female,,,,,,1.0,learning,9.0,D,,black,,moons,,,,D,black,moons,,0.0,0.0,0,right,587.8000001907,10.0,1.0,1.0,,,
72,0,,html-keyboard-response,72,175141,0.0-4.10-0.10,na6pe9dth3h,2022-09-19 13:45:42.734,5a6600bd35f26b000149402e,0,100,51,51,25,27,Female,,,"<img src=""static/images/cards/stack_of_red_bolts.svg"" width=""175px"" height=""250px""></img>",,,,,,,,,,,,,,,,,,,,,,,,,,,,
73,0,,html-keyboard-response,73,175916,0.0-4.10-1.10,na6pe9dth3h,2022-09-19 13:45:42.734,5a6600bd35f26b000149402e,0,100,51,51,25,27,Female,259.0,,"
  <table>
  <tr height=300>
    <td width=300 height=300><img src=""static/images/cards/back_of_red_bolts.svg"" width=""175px"" height=""250px""></img></td>
    <td width=300 height=300><img src=""static/images/cards/back_of_red_bolts.svg"" width=""175px"" height=""250px""></img></td>
  </tr>
  <tr height=200>
    <td width=300><img src=""static/images/keys/z.svg"" width=""35%"" height=""75%""></img></td>
    <td width=300><img src=""static/images/keys/m.svg"" width=""35%"" height=""75%""></img></td>
  </tr>
</table>
  ",90.0,1.0,,,,,,,,,,,,,,,,,,,,,,,,,,
74,0,,html-keyboard-response,74,177422,0.0-4.10-2.10,na6pe9dth3h,2022-09-19 13:45:42.734,5a6600bd35f26b000149402e,0,100,51,51,25,27,Female,,,"
  <table>
  <tr height=300>
    <td width=300 height=300><img src=""static/images/cards/3_of_red_bolts.svg"" width=""175px"" height=""250px""></img></td>
    <td width=300 height=300><img src=""static/images/cards/back_of_red_bolts.svg"" width=""175px"" height=""250px""></img></td>
  </tr>
  <tr height=200>
    <td width=300><img src=""static/images/keys/z.svg"" width=""35%"" height=""75%""></img></td>
    <td width=300><img src=""static/images/keys/m.svg"" width=""35%"" height=""75%""></img></td>
  </tr>
</table>
  ",,,,,,,,,,,,,,,,,,,,,,,,,,,,
75,0,,html-keyboard-response,75,178948,0.0-4.10-3.10,na6pe9dth3h,2022-09-19 13:45:42.734,5a6600bd35f26b000149402e,0,100,51,51,25,27,Female,,,"<p style=""font-size:50px"">You win!
+10 points this round!</p>",,,,,,,,,,,,,,,,,,,,,,,,,,,,
76,0,,html-keyboard-response,76,179465,0.0-4.10-4.10,na6pe9dth3h,2022-09-19 13:45:42.734,5a6600bd35f26b000149402e,0,100,51,51,25,27,Female,,,,,,1.0,learning,10.0,Xc,,red,,bolts,,,,Xc,red,bolts,,1.0,0.0,NA,left,259.0,3.0,0.0,1.0,,,
77,0,,html-keyboard-response,77,180967,0.0-4.11-0.11,na6pe9dth3h,2022-09-19 13:45:42.734,5a6600bd35f26b000149402e,0,100,51,51,25,27,Female,,,"<img src=""static/images/cards/stack_of_black_bolts.svg"" width=""175px"" height=""250px""></img>",,,,,,,,,,,,,,,,,,,,,,,,,,,,
78,0,,html-keyboard-response,78,181876,0.0-4.11-1.11,na6pe9dth3h,2022-09-19 13:45:42.734,5a6600bd35f26b000149402e,0,100,51,51,25,27,Female,395.3999998569,,"
  <table>
  <tr height=300>
    <td width=300 height=300><img src=""static/images/cards/back_of_black_bolts.svg"" width=""175px"" height=""250px""></img></td>
    <td width=300 height=300><img src=""static/images/cards/back_of_black_bolts.svg"" width=""175px"" height=""250px""></img></td>
  </tr>
  <tr height=200>
    <td width=300><img src=""static/images/keys/z.svg"" width=""35%"" height=""75%""></img></td>
    <td width=300></td>
  </tr>
</table>
  ",90.0,1.0,,,,,,,,,,,,,,,,,,,,,,,,,,
79,0,,html-keyboard-response,79,183378,0.0-4.11-2.11,na6pe9dth3h,2022-09-19 13:45:42.734,5a6600bd35f26b000149402e,0,100,51,51,25,27,Female,,,"
  <table>
  <tr height=300>
    <td width=300 height=300><img src=""static/images/cards/8_of_black_bolts.svg"" width=""175px"" height=""250px""></img></td>
    <td width=300 height=300><img src=""static/images/cards/back_of_black_bolts.svg"" width=""175px"" height=""250px""></img></td>
  </tr>
  <tr height=200>
    <td width=300><img src=""static/images/keys/z.svg"" width=""35%"" height=""75%""></img></td>
    <td width=300></td>
  </tr>
</table>
  ",,,,,,,,,,,,,,,,,,,,,,,,,,,,
80,0,,html-keyboard-response,80,184903,0.0-4.11-3.11,na6pe9dth3h,2022-09-19 13:45:42.734,5a6600bd35f26b000149402e,0,100,51,51,25,27,Female,,,"<p style=""font-size:50px"">You win!
+10 points this round!</p>",,,,,,,,,,,,,,,,,,,,,,,,,,,,
81,0,,html-keyboard-response,81,185423,0.0-4.11-4.11,na6pe9dth3h,2022-09-19 13:45:42.734,5a6600bd35f26b000149402e,0,100,51,51,25,27,Female,,,,,,1.0,learning,11.0,Xnc,,black,,bolts,,,,Xnc,black,bolts,,0.0,0.0,1,left,395.3999998569,8.0,1.0,1.0,,,
82,0,,html-keyboard-response,82,186925,0.0-4.12-0.12,na6pe9dth3h,2022-09-19 13:45:42.734,5a6600bd35f26b000149402e,0,100,51,51,25,27,Female,,,"<img src=""static/images/cards/stack_of_red_stars.svg"" width=""175px"" height=""250px""></img>",,,,,,,,,,,,,,,,,,,,,,,,,,,,
83,0,,html-keyboard-response,83,187996,0.0-4.12-1.12,na6pe9dth3h,2022-09-19 13:45:42.734,5a6600bd35f26b000149402e,0,100,51,51,25,27,Female,558.6999998093,,"
  <table>
  <tr height=300>
    <td width=300 height=300><img src=""static/images/cards/back_of_red_stars.svg"" width=""175px"" height=""250px""></img></td>
    <td width=300 height=300><img src=""static/images/cards/back_of_red_stars.svg"" width=""175px"" height=""250px""></img></td>
  </tr>
  <tr height=200>
    <td width=300><img src=""static/images/keys/z.svg"" width=""35%"" height=""75%""></img></td>
    <td width=300><img src=""static/images/keys/m.svg"" width=""35%"" height=""75%""></img></td>
  </tr>
</table>
  ",77.0,1.0,,,,,,,,,,,,,,,,,,,,,,,,,,
84,0,,html-keyboard-response,84,189508,0.0-4.12-2.12,na6pe9dth3h,2022-09-19 13:45:42.734,5a6600bd35f26b000149402e,0,100,51,51,25,27,Female,,,"
  <table>
  <tr height=300>
    <td width=300 height=300><img src=""static/images/cards/back_of_red_stars.svg"" width=""175px"" height=""250px""></img></td>
    <td width=300 height=300><img src=""static/images/cards/8_of_red_stars.svg"" width=""175px"" height=""250px""></img></td>
  </tr>
  <tr height=200>
    <td width=300><img src=""static/images/keys/z.svg"" width=""35%"" height=""75%""></img></td>
    <td width=300><img src=""static/images/keys/m.svg"" width=""35%"" height=""75%""></img></td>
  </tr>
</table>
  ",,,,,,,,,,,,,,,,,,,,,,,,,,,,
85,0,,html-keyboard-response,85,191025,0.0-4.12-3.12,na6pe9dth3h,2022-09-19 13:45:42.734,5a6600bd35f26b000149402e,0,100,51,51,25,27,Female,,,"<p style=""font-size:50px"">You win!
+10 points this round!</p>",,,,,,,,,,,,,,,,,,,,,,,,,,,,
86,0,,html-keyboard-response,86,191543,0.0-4.12-4.12,na6pe9dth3h,2022-09-19 13:45:42.734,5a6600bd35f26b000149402e,0,100,51,51,25,27,Female,,,,,,1.0,learning,12.0,A,,red,,stars,,,,A,red,stars,,1.0,1.0,NA,right,558.6999998093,8.0,1.0,1.0,,,
87,0,,html-keyboard-response,87,193047,0.0-4.13-0.13,na6pe9dth3h,2022-09-19 13:45:42.734,5a6600bd35f26b000149402e,0,100,51,51,25,27,Female,,,"<img src=""static/images/cards/stack_of_black_stars.svg"" width=""175px"" height=""250px""></img>",,,,,,,,,,,,,,,,,,,,,,,,,,,,
88,0,,html-keyboard-response,88,193924,0.0-4.13-1.13,na6pe9dth3h,2022-09-19 13:45:42.734,5a6600bd35f26b000149402e,0,100,51,51,25,27,Female,362.2000000477,,"
  <table>
  <tr height=300>
    <td width=300 height=300><img src=""static/images/cards/back_of_black_stars.svg"" width=""175px"" height=""250px""></img></td>
    <td width=300 height=300><img src=""static/images/cards/back_of_black_stars.svg"" width=""175px"" height=""250px""></img></td>
  </tr>
  <tr height=200>
    <td width=300><img src=""static/images/keys/z.svg"" width=""35%"" height=""75%""></img></td>
    <td width=300></td>
  </tr>
</table>
  ",90.0,1.0,,,,,,,,,,,,,,,,,,,,,,,,,,
89,0,,html-keyboard-response,89,195441,0.0-4.13-2.13,na6pe9dth3h,2022-09-19 13:45:42.734,5a6600bd35f26b000149402e,0,100,51,51,25,27,Female,,,"
  <table>
  <tr height=300>
    <td width=300 height=300><img src=""static/images/cards/10_of_black_stars.svg"" width=""175px"" height=""250px""></img></td>
    <td width=300 height=300><img src=""static/images/cards/back_of_black_stars.svg"" width=""175px"" height=""250px""></img></td>
  </tr>
  <tr height=200>
    <td width=300><img src=""static/images/keys/z.svg"" width=""35%"" height=""75%""></img></td>
    <td width=300></td>
  </tr>
</table>
  ",,,,,,,,,,,,,,,,,,,,,,,,,,,,
90,0,,html-keyboard-response,90,196964,0.0-4.13-3.13,na6pe9dth3h,2022-09-19 13:45:42.734,5a6600bd35f26b000149402e,0,100,51,51,25,27,Female,,,"<p style=""font-size:50px"">You win!
+10 points this round!</p>",,,,,,,,,,,,,,,,,,,,,,,,,,,,
91,0,,html-keyboard-response,91,197483,0.0-4.13-4.13,na6pe9dth3h,2022-09-19 13:45:42.734,5a6600bd35f26b000149402e,0,100,51,51,25,27,Female,,,,,,1.0,learning,13.0,B,,black,,stars,,,,B,black,stars,,0.0,1.0,1,left,362.2000000477,10.0,1.0,1.0,,,
92,0,,html-keyboard-response,92,198989,0.0-4.14-0.14,na6pe9dth3h,2022-09-19 13:45:42.734,5a6600bd35f26b000149402e,0,100,51,51,25,27,Female,,,"<img src=""static/images/cards/stack_of_red_moons.svg"" width=""175px"" height=""250px""></img>",,,,,,,,,,,,,,,,,,,,,,,,,,,,
93,0,,html-keyboard-response,93,199972,0.0-4.14-1.14,na6pe9dth3h,2022-09-19 13:45:42.734,5a6600bd35f26b000149402e,0,100,51,51,25,27,Female,468.2000000477,,"
  <table>
  <tr height=300>
    <td width=300 height=300><img src=""static/images/cards/back_of_red_moons.svg"" width=""175px"" height=""250px""></img></td>
    <td width=300 height=300><img src=""static/images/cards/back_of_red_moons.svg"" width=""175px"" height=""250px""></img></td>
  </tr>
  <tr height=200>
    <td width=300><img src=""static/images/keys/z.svg"" width=""35%"" height=""75%""></img></td>
    <td width=300><img src=""static/images/keys/m.svg"" width=""35%"" height=""75%""></img></td>
  </tr>
</table>
  ",77.0,1.0,,,,,,,,,,,,,,,,,,,,,,,,,,
94,0,,html-keyboard-response,94,201482,0.0-4.14-2.14,na6pe9dth3h,2022-09-19 13:45:42.734,5a6600bd35f26b000149402e,0,100,51,51,25,27,Female,,,"
  <table>
  <tr height=300>
    <td width=300 height=300><img src=""static/images/cards/back_of_red_moons.svg"" width=""175px"" height=""250px""></img></td>
    <td width=300 height=300><img src=""static/images/cards/3_of_red_moons.svg"" width=""175px"" height=""250px""></img></td>
  </tr>
  <tr height=200>
    <td width=300><img src=""static/images/keys/z.svg"" width=""35%"" height=""75%""></img></td>
    <td width=300><img src=""static/images/keys/m.svg"" width=""35%"" height=""75%""></img></td>
  </tr>
</table>
  ",,,,,,,,,,,,,,,,,,,,,,,,,,,,
95,0,,html-keyboard-response,95,203004,0.0-4.14-3.14,na6pe9dth3h,2022-09-19 13:45:42.734,5a6600bd35f26b000149402e,0,100,51,51,25,27,Female,,,"<p style=""font-size:50px"">You win!
+10 points this round!</p>",,,,,,,,,,,,,,,,,,,,,,,,,,,,
96,0,,html-keyboard-response,96,203521,0.0-4.14-4.14,na6pe9dth3h,2022-09-19 13:45:42.734,5a6600bd35f26b000149402e,0,100,51,51,25,27,Female,,,,,,1.0,learning,14.0,C,,red,,moons,,,,C,red,moons,,1.0,0.0,NA,right,468.2000000477,3.0,0.0,1.0,,,
97,0,,html-keyboard-response,97,205035,0.0-4.15-0.15,na6pe9dth3h,2022-09-19 13:45:42.734,5a6600bd35f26b000149402e,0,100,51,51,25,27,Female,,,"<img src=""static/images/cards/stack_of_black_moons.svg"" width=""175px"" height=""250px""></img>",,,,,,,,,,,,,,,,,,,,,,,,,,,,
98,0,,html-keyboard-response,98,206028,0.0-4.15-1.15,na6pe9dth3h,2022-09-19 13:45:42.734,5a6600bd35f26b000149402e,0,100,51,51,25,27,Female,478.5,,"
  <table>
  <tr height=300>
    <td width=300 height=300><img src=""static/images/cards/back_of_black_moons.svg"" width=""175px"" height=""250px""></img></td>
    <td width=300 height=300><img src=""static/images/cards/back_of_black_moons.svg"" width=""175px"" height=""250px""></img></td>
  </tr>
  <tr height=200>
    <td width=300></td>
    <td width=300><img src=""static/images/keys/m.svg"" width=""35%"" height=""75%""></img></td>
  </tr>
</table>
  ",77.0,1.0,,,,,,,,,,,,,,,,,,,,,,,,,,
99,0,,html-keyboard-response,99,207535,0.0-4.15-2.15,na6pe9dth3h,2022-09-19 13:45:42.734,5a6600bd35f26b000149402e,0,100,51,51,25,27,Female,,,"
  <table>
  <tr height=300>
    <td width=300 height=300><img src=""static/images/cards/back_of_black_moons.svg"" width=""175px"" height=""250px""></img></td>
    <td width=300 height=300><img src=""static/images/cards/10_of_black_moons.svg"" width=""175px"" height=""250px""></img></td>
  </tr>
  <tr height=200>
    <td width=300></td>
    <td width=300><img src=""static/images/keys/m.svg"" width=""35%"" height=""75%""></img></td>
  </tr>
</table>
  ",,,,,,,,,,,,,,,,,,,,,,,,,,,,
100,0,,html-keyboard-response,100,209051,0.0-4.15-3.15,na6pe9dth3h,2022-09-19 13:45:42.734,5a6600bd35f26b000149402e,0,100,51,51,25,27,Female,,,"<p style=""font-size:50px"">You win!
+10 points this round!</p>",,,,,,,,,,,,,,,,,,,,,,,,,,,,
101,0,,html-keyboard-response,101,209570,0.0-4.15-4.15,na6pe9dth3h,2022-09-19 13:45:42.734,5a6600bd35f26b000149402e,0,100,51,51,25,27,Female,,,,,,1.0,learning,15.0,D,,black,,moons,,,,D,black,moons,,0.0,0.0,0,right,478.5,10.0,1.0,1.0,,,
102,0,,html-keyboard-response,102,211074,0.0-4.16-0.16,na6pe9dth3h,2022-09-19 13:45:42.734,5a6600bd35f26b000149402e,0,100,51,51,25,27,Female,,,"<img src=""static/images/cards/stack_of_red_bolts.svg"" width=""175px"" height=""250px""></img>",,,,,,,,,,,,,,,,,,,,,,,,,,,,
103,0,,html-keyboard-response,103,211868,0.0-4.16-1.16,na6pe9dth3h,2022-09-19 13:45:42.734,5a6600bd35f26b000149402e,0,100,51,51,25,27,Female,280.5,,"
  <table>
  <tr height=300>
    <td width=300 height=300><img src=""static/images/cards/back_of_red_bolts.svg"" width=""175px"" height=""250px""></img></td>
    <td width=300 height=300><img src=""static/images/cards/back_of_red_bolts.svg"" width=""175px"" height=""250px""></img></td>
  </tr>
  <tr height=200>
    <td width=300><img src=""static/images/keys/z.svg"" width=""35%"" height=""75%""></img></td>
    <td width=300><img src=""static/images/keys/m.svg"" width=""35%"" height=""75%""></img></td>
  </tr>
</table>
  ",90.0,1.0,,,,,,,,,,,,,,,,,,,,,,,,,,
104,0,,html-keyboard-response,104,213377,0.0-4.16-2.16,na6pe9dth3h,2022-09-19 13:45:42.734,5a6600bd35f26b000149402e,0,100,51,51,25,27,Female,,,"
  <table>
  <tr height=300>
    <td width=300 height=300><img src=""static/images/cards/9_of_red_bolts.svg"" width=""175px"" height=""250px""></img></td>
    <td width=300 height=300><img src=""static/images/cards/back_of_red_bolts.svg"" width=""175px"" height=""250px""></img></td>
  </tr>
  <tr height=200>
    <td width=300><img src=""static/images/keys/z.svg"" width=""35%"" height=""75%""></img></td>
    <td width=300><img src=""static/images/keys/m.svg"" width=""35%"" height=""75%""></img></td>
  </tr>
</table>
  ",,,,,,,,,,,,,,,,,,,,,,,,,,,,
105,0,,html-keyboard-response,105,214896,0.0-4.16-3.16,na6pe9dth3h,2022-09-19 13:45:42.734,5a6600bd35f26b000149402e,0,100,51,51,25,27,Female,,,"<p style=""font-size:50px"">You win!
+10 points this round!</p>",,,,,,,,,,,,,,,,,,,,,,,,,,,,
106,0,,html-keyboard-response,106,215402,0.0-4.16-4.16,na6pe9dth3h,2022-09-19 13:45:42.734,5a6600bd35f26b000149402e,0,100,51,51,25,27,Female,,,,,,1.0,learning,16.0,Xc,,red,,bolts,,,,Xc,red,bolts,,1.0,0.0,NA,left,280.5,9.0,1.0,1.0,,,
107,0,,html-keyboard-response,107,216904,0.0-4.17-0.17,na6pe9dth3h,2022-09-19 13:45:42.734,5a6600bd35f26b000149402e,0,100,51,51,25,27,Female,,,"<img src=""static/images/cards/stack_of_black_bolts.svg"" width=""175px"" height=""250px""></img>",,,,,,,,,,,,,,,,,,,,,,,,,,,,
108,0,,html-keyboard-response,108,217804,0.0-4.17-1.17,na6pe9dth3h,2022-09-19 13:45:42.734,5a6600bd35f26b000149402e,0,100,51,51,25,27,Female,389.3999998569,,"
  <table>
  <tr height=300>
    <td width=300 height=300><img src=""static/images/cards/back_of_black_bolts.svg"" width=""175px"" height=""250px""></img></td>
    <td width=300 height=300><img src=""static/images/cards/back_of_black_bolts.svg"" width=""175px"" height=""250px""></img></td>
  </tr>
  <tr height=200>
    <td width=300><img src=""static/images/keys/z.svg"" width=""35%"" height=""75%""></img></td>
    <td width=300></td>
  </tr>
</table>
  ",90.0,1.0,,,,,,,,,,,,,,,,,,,,,,,,,,
109,0,,html-keyboard-response,109,219314,0.0-4.17-2.17,na6pe9dth3h,2022-09-19 13:45:42.734,5a6600bd35f26b000149402e,0,100,51,51,25,27,Female,,,"
  <table>
  <tr height=300>
    <td width=300 height=300><img src=""static/images/cards/4_of_black_bolts.svg"" width=""175px"" height=""250px""></img></td>
    <td width=300 height=300><img src=""static/images/cards/back_of_black_bolts.svg"" width=""175px"" height=""250px""></img></td>
  </tr>
  <tr height=200>
    <td width=300><img src=""static/images/keys/z.svg"" width=""35%"" height=""75%""></img></td>
    <td width=300></td>
  </tr>
</table>
  ",,,,,,,,,,,,,,,,,,,,,,,,,,,,
110,0,,html-keyboard-response,110,220835,0.0-4.17-3.17,na6pe9dth3h,2022-09-19 13:45:42.734,5a6600bd35f26b000149402e,0,100,51,51,25,27,Female,,,"<p style=""font-size:50px"">You win!
+10 points this round!</p>",,,,,,,,,,,,,,,,,,,,,,,,,,,,
111,0,,html-keyboard-response,111,221353,0.0-4.17-4.17,na6pe9dth3h,2022-09-19 13:45:42.734,5a6600bd35f26b000149402e,0,100,51,51,25,27,Female,,,,,,1.0,learning,17.0,Xnc,,black,,bolts,,,,Xnc,black,bolts,,0.0,0.0,1,left,389.3999998569,4.0,0.0,1.0,,,
112,0,,html-keyboard-response,112,222857,0.0-4.18-0.18,na6pe9dth3h,2022-09-19 13:45:42.734,5a6600bd35f26b000149402e,0,100,51,51,25,27,Female,,,"<img src=""static/images/cards/stack_of_red_stars.svg"" width=""175px"" height=""250px""></img>",,,,,,,,,,,,,,,,,,,,,,,,,,,,
113,0,,html-keyboard-response,113,224084,0.0-4.18-1.18,na6pe9dth3h,2022-09-19 13:45:42.734,5a6600bd35f26b000149402e,0,100,51,51,25,27,Female,713.2999999523,,"
  <table>
  <tr height=300>
    <td width=300 height=300><img src=""static/images/cards/back_of_red_stars.svg"" width=""175px"" height=""250px""></img></td>
    <td width=300 height=300><img src=""static/images/cards/back_of_red_stars.svg"" width=""175px"" height=""250px""></img></td>
  </tr>
  <tr height=200>
    <td width=300><img src=""static/images/keys/z.svg"" width=""35%"" height=""75%""></img></td>
    <td width=300><img src=""static/images/keys/m.svg"" width=""35%"" height=""75%""></img></td>
  </tr>
</table>
  ",90.0,1.0,,,,,,,,,,,,,,,,,,,,,,,,,,
114,0,,html-keyboard-response,114,225595,0.0-4.18-2.18,na6pe9dth3h,2022-09-19 13:45:42.734,5a6600bd35f26b000149402e,0,100,51,51,25,27,Female,,,"
  <table>
  <tr height=300>
    <td width=300 height=300><img src=""static/images/cards/6_of_red_stars.svg"" width=""175px"" height=""250px""></img></td>
    <td width=300 height=300><img src=""static/images/cards/back_of_red_stars.svg"" width=""175px"" height=""250px""></img></td>
  </tr>
  <tr height=200>
    <td width=300><img src=""static/images/keys/z.svg"" width=""35%"" height=""75%""></img></td>
    <td width=300><img src=""static/images/keys/m.svg"" width=""35%"" height=""75%""></img></td>
  </tr>
</table>
  ",,,,,,,,,,,,,,,,,,,,,,,,,,,,
115,0,,html-keyboard-response,115,227120,0.0-4.18-3.18,na6pe9dth3h,2022-09-19 13:45:42.734,5a6600bd35f26b000149402e,0,100,51,51,25,27,Female,,,"<p style=""font-size:50px"">You win!
+10 points this round!</p>",,,,,,,,,,,,,,,,,,,,,,,,,,,,
116,0,,html-keyboard-response,116,227640,0.0-4.18-4.18,na6pe9dth3h,2022-09-19 13:45:42.734,5a6600bd35f26b000149402e,0,100,51,51,25,27,Female,,,,,,1.0,learning,18.0,A,,red,,stars,,,,A,red,stars,,1.0,1.0,NA,left,713.2999999523,6.0,1.0,1.0,,,
117,0,,html-keyboard-response,117,229146,0.0-4.19-0.19,na6pe9dth3h,2022-09-19 13:45:42.734,5a6600bd35f26b000149402e,0,100,51,51,25,27,Female,,,"<img src=""static/images/cards/stack_of_black_stars.svg"" width=""175px"" height=""250px""></img>",,,,,,,,,,,,,,,,,,,,,,,,,,,,
118,0,,html-keyboard-response,118,232516,0.0-4.19-1.19,na6pe9dth3h,2022-09-19 13:45:42.734,5a6600bd35f26b000149402e,0,100,51,51,25,27,Female,2859.5999999046,,"
  <table>
  <tr height=300>
    <td width=300 height=300><img src=""static/images/cards/back_of_black_stars.svg"" width=""175px"" height=""250px""></img></td>
    <td width=300 height=300><img src=""static/images/cards/back_of_black_stars.svg"" width=""175px"" height=""250px""></img></td>
  </tr>
  <tr height=200>
    <td width=300><img src=""static/images/keys/z.svg"" width=""35%"" height=""75%""></img></td>
    <td width=300></td>
  </tr>
</table>
  ",90.0,1.0,,,,,,,,,,,,,,,,,,,,,,,,,,
119,0,,html-keyboard-response,119,234019,0.0-4.19-2.19,na6pe9dth3h,2022-09-19 13:45:42.734,5a6600bd35f26b000149402e,0,100,51,51,25,27,Female,,,"
  <table>
  <tr height=300>
    <td width=300 height=300><img src=""static/images/cards/9_of_black_stars.svg"" width=""175px"" height=""250px""></img></td>
    <td width=300 height=300><img src=""static/images/cards/back_of_black_stars.svg"" width=""175px"" height=""250px""></img></td>
  </tr>
  <tr height=200>
    <td width=300><img src=""static/images/keys/z.svg"" width=""35%"" height=""75%""></img></td>
    <td width=300></td>
  </tr>
</table>
  ",,,,,,,,,,,,,,,,,,,,,,,,,,,,
120,0,,html-keyboard-response,120,235542,0.0-4.19-3.19,na6pe9dth3h,2022-09-19 13:45:42.734,5a6600bd35f26b000149402e,0,100,51,51,25,27,Female,,,"<p style=""font-size:50px"">You win!
+10 points this round!</p>",,,,,,,,,,,,,,,,,,,,,,,,,,,,
121,0,,html-keyboard-response,121,236058,0.0-4.19-4.19,na6pe9dth3h,2022-09-19 13:45:42.734,5a6600bd35f26b000149402e,0,100,51,51,25,27,Female,,,,,,1.0,learning,19.0,B,,black,,stars,,,,B,black,stars,,0.0,1.0,1,left,2859.5999999046,9.0,1.0,1.0,,,
122,0,,html-keyboard-response,122,237574,0.0-4.20-0.20,na6pe9dth3h,2022-09-19 13:45:42.734,5a6600bd35f26b000149402e,0,100,51,51,25,27,Female,,,"<img src=""static/images/cards/stack_of_red_moons.svg"" width=""175px"" height=""250px""></img>",,,,,,,,,,,,,,,,,,,,,,,,,,,,
123,0,,html-keyboard-response,123,238572,0.0-4.20-1.20,na6pe9dth3h,2022-09-19 13:45:42.734,5a6600bd35f26b000149402e,0,100,51,51,25,27,Female,484.7999999523,,"
  <table>
  <tr height=300>
    <td width=300 height=300><img src=""static/images/cards/back_of_red_moons.svg"" width=""175px"" height=""250px""></img></td>
    <td width=300 height=300><img src=""static/images/cards/back_of_red_moons.svg"" width=""175px"" height=""250px""></img></td>
  </tr>
  <tr height=200>
    <td width=300><img src=""static/images/keys/z.svg"" width=""35%"" height=""75%""></img></td>
    <td width=300><img src=""static/images/keys/m.svg"" width=""35%"" height=""75%""></img></td>
  </tr>
</table>
  ",77.0,1.0,,,,,,,,,,,,,,,,,,,,,,,,,,
124,0,,html-keyboard-response,124,240079,0.0-4.20-2.20,na6pe9dth3h,2022-09-19 13:45:42.734,5a6600bd35f26b000149402e,0,100,51,51,25,27,Female,,,"
  <table>
  <tr height=300>
    <td width=300 height=300><img src=""static/images/cards/back_of_red_moons.svg"" width=""175px"" height=""250px""></img></td>
    <td width=300 height=300><img src=""static/images/cards/3_of_red_moons.svg"" width=""175px"" height=""250px""></img></td>
  </tr>
  <tr height=200>
    <td width=300><img src=""static/images/keys/z.svg"" width=""35%"" height=""75%""></img></td>
    <td width=300><img src=""static/images/keys/m.svg"" width=""35%"" height=""75%""></img></td>
  </tr>
</table>
  ",,,,,,,,,,,,,,,,,,,,,,,,,,,,
125,0,,html-keyboard-response,125,241606,0.0-4.20-3.20,na6pe9dth3h,2022-09-19 13:45:42.734,5a6600bd35f26b000149402e,0,100,51,51,25,27,Female,,,"<p style=""font-size:50px"">You win!
+10 points this round!</p>",,,,,,,,,,,,,,,,,,,,,,,,,,,,
126,0,,html-keyboard-response,126,242124,0.0-4.20-4.20,na6pe9dth3h,2022-09-19 13:45:42.734,5a6600bd35f26b000149402e,0,100,51,51,25,27,Female,,,,,,1.0,learning,20.0,C,,red,,moons,,,,C,red,moons,,1.0,0.0,NA,right,484.7999999523,3.0,0.0,1.0,,,
127,0,,html-keyboard-response,127,243625,0.0-4.21-0.21,na6pe9dth3h,2022-09-19 13:45:42.734,5a6600bd35f26b000149402e,0,100,51,51,25,27,Female,,,"<img src=""static/images/cards/stack_of_black_moons.svg"" width=""175px"" height=""250px""></img>",,,,,,,,,,,,,,,,,,,,,,,,,,,,
128,0,,html-keyboard-response,128,244613,0.0-4.21-1.21,na6pe9dth3h,2022-09-19 13:45:42.734,5a6600bd35f26b000149402e,0,100,51,51,25,27,Female,474.4000000954,,"
  <table>
  <tr height=300>
    <td width=300 height=300><img src=""static/images/cards/back_of_black_moons.svg"" width=""175px"" height=""250px""></img></td>
    <td width=300 height=300><img src=""static/images/cards/back_of_black_moons.svg"" width=""175px"" height=""250px""></img></td>
  </tr>
  <tr height=200>
    <td width=300><img src=""static/images/keys/z.svg"" width=""35%"" height=""75%""></img></td>
    <td width=300></td>
  </tr>
</table>
  ",90.0,1.0,,,,,,,,,,,,,,,,,,,,,,,,,,
129,0,,html-keyboard-response,129,246116,0.0-4.21-2.21,na6pe9dth3h,2022-09-19 13:45:42.734,5a6600bd35f26b000149402e,0,100,51,51,25,27,Female,,,"
  <table>
  <tr height=300>
    <td width=300 height=300><img src=""static/images/cards/3_of_black_moons.svg"" width=""175px"" height=""250px""></img></td>
    <td width=300 height=300><img src=""static/images/cards/back_of_black_moons.svg"" width=""175px"" height=""250px""></img></td>
  </tr>
  <tr height=200>
    <td width=300><img src=""static/images/keys/z.svg"" width=""35%"" height=""75%""></img></td>
    <td width=300></td>
  </tr>
</table>
  ",,,,,,,,,,,,,,,,,,,,,,,,,,,,
130,0,,html-keyboard-response,130,247641,0.0-4.21-3.21,na6pe9dth3h,2022-09-19 13:45:42.734,5a6600bd35f26b000149402e,0,100,51,51,25,27,Female,,,"<p style=""font-size:50px"">You win!
+10 points this round!</p>",,,,,,,,,,,,,,,,,,,,,,,,,,,,
131,0,,html-keyboard-response,131,248162,0.0-4.21-4.21,na6pe9dth3h,2022-09-19 13:45:42.734,5a6600bd35f26b000149402e,0,100,51,51,25,27,Female,,,,,,1.0,learning,21.0,D,,black,,moons,,,,D,black,moons,,0.0,0.0,1,left,474.4000000954,3.0,0.0,1.0,,,
132,0,,html-keyboard-response,132,249666,0.0-4.22-0.22,na6pe9dth3h,2022-09-19 13:45:42.734,5a6600bd35f26b000149402e,0,100,51,51,25,27,Female,,,"<img src=""static/images/cards/stack_of_red_bolts.svg"" width=""175px"" height=""250px""></img>",,,,,,,,,,,,,,,,,,,,,,,,,,,,
133,0,,html-keyboard-response,133,250781,0.0-4.22-1.22,na6pe9dth3h,2022-09-19 13:45:42.734,5a6600bd35f26b000149402e,0,100,51,51,25,27,Female,601.9000000954,,"
  <table>
  <tr height=300>
    <td width=300 height=300><img src=""static/images/cards/back_of_red_bolts.svg"" width=""175px"" height=""250px""></img></td>
    <td width=300 height=300><img src=""static/images/cards/back_of_red_bolts.svg"" width=""175px"" height=""250px""></img></td>
  </tr>
  <tr height=200>
    <td width=300><img src=""static/images/keys/z.svg"" width=""35%"" height=""75%""></img></td>
    <td width=300><img src=""static/images/keys/m.svg"" width=""35%"" height=""75%""></img></td>
  </tr>
</table>
  ",90.0,1.0,,,,,,,,,,,,,,,,,,,,,,,,,,
134,0,,html-keyboard-response,134,252295,0.0-4.22-2.22,na6pe9dth3h,2022-09-19 13:45:42.734,5a6600bd35f26b000149402e,0,100,51,51,25,27,Female,,,"
  <table>
  <tr height=300>
    <td width=300 height=300><img src=""static/images/cards/3_of_red_bolts.svg"" width=""175px"" height=""250px""></img></td>
    <td width=300 height=300><img src=""static/images/cards/back_of_red_bolts.svg"" width=""175px"" height=""250px""></img></td>
  </tr>
  <tr height=200>
    <td width=300><img src=""static/images/keys/z.svg"" width=""35%"" height=""75%""></img></td>
    <td width=300><img src=""static/images/keys/m.svg"" width=""35%"" height=""75%""></img></td>
  </tr>
</table>
  ",,,,,,,,,,,,,,,,,,,,,,,,,,,,
135,0,,html-keyboard-response,135,253821,0.0-4.22-3.22,na6pe9dth3h,2022-09-19 13:45:42.734,5a6600bd35f26b000149402e,0,100,51,51,25,27,Female,,,"<p style=""font-size:50px"">You win!
+10 points this round!</p>",,,,,,,,,,,,,,,,,,,,,,,,,,,,
136,0,,html-keyboard-response,136,254341,0.0-4.22-4.22,na6pe9dth3h,2022-09-19 13:45:42.734,5a6600bd35f26b000149402e,0,100,51,51,25,27,Female,,,,,,1.0,learning,22.0,Xc,,red,,bolts,,,,Xc,red,bolts,,1.0,0.0,NA,left,601.9000000954,3.0,0.0,1.0,,,
137,0,,html-keyboard-response,137,255844,0.0-4.23-0.23,na6pe9dth3h,2022-09-19 13:45:42.734,5a6600bd35f26b000149402e,0,100,51,51,25,27,Female,,,"<img src=""static/images/cards/stack_of_black_bolts.svg"" width=""175px"" height=""250px""></img>",,,,,,,,,,,,,,,,,,,,,,,,,,,,
138,0,,html-keyboard-response,138,256733,0.0-4.23-1.23,na6pe9dth3h,2022-09-19 13:45:42.734,5a6600bd35f26b000149402e,0,100,51,51,25,27,Female,376.7000000477,,"
  <table>
  <tr height=300>
    <td width=300 height=300><img src=""static/images/cards/back_of_black_bolts.svg"" width=""175px"" height=""250px""></img></td>
    <td width=300 height=300><img src=""static/images/cards/back_of_black_bolts.svg"" width=""175px"" height=""250px""></img></td>
  </tr>
  <tr height=200>
    <td width=300></td>
    <td width=300><img src=""static/images/keys/m.svg"" width=""35%"" height=""75%""></img></td>
  </tr>
</table>
  ",77.0,1.0,,,,,,,,,,,,,,,,,,,,,,,,,,
139,0,,html-keyboard-response,139,258237,0.0-4.23-2.23,na6pe9dth3h,2022-09-19 13:45:42.734,5a6600bd35f26b000149402e,0,100,51,51,25,27,Female,,,"
  <table>
  <tr height=300>
    <td width=300 height=300><img src=""static/images/cards/back_of_black_bolts.svg"" width=""175px"" height=""250px""></img></td>
    <td width=300 height=300><img src=""static/images/cards/7_of_black_bolts.svg"" width=""175px"" height=""250px""></img></td>
  </tr>
  <tr height=200>
    <td width=300></td>
    <td width=300><img src=""static/images/keys/m.svg"" width=""35%"" height=""75%""></img></td>
  </tr>
</table>
  ",,,,,,,,,,,,,,,,,,,,,,,,,,,,
140,0,,html-keyboard-response,140,259760,0.0-4.23-3.23,na6pe9dth3h,2022-09-19 13:45:42.734,5a6600bd35f26b000149402e,0,100,51,51,25,27,Female,,,"<p style=""font-size:50px"">You win!
+10 points this round!</p>",,,,,,,,,,,,,,,,,,,,,,,,,,,,
141,0,,html-keyboard-response,141,260277,0.0-4.23-4.23,na6pe9dth3h,2022-09-19 13:45:42.734,5a6600bd35f26b000149402e,0,100,51,51,25,27,Female,,,,,,1.0,learning,23.0,Xnc,,black,,bolts,,,,Xnc,black,bolts,,0.0,0.0,0,right,376.7000000477,7.0,1.0,1.0,,,
142,0,,call-function,142,260280,0.0-5.0,na6pe9dth3h,2022-09-19 13:45:42.734,5a6600bd35f26b000149402e,0,100,51,51,25,27,Female,,,,,,,,,,,,,,,,,,,,,,,,,,,,,,,
143,0,,image-keyboard-response,143,266156,0.0-6.0-0.0,na6pe9dth3h,2022-09-19 13:45:42.734,5a6600bd35f26b000149402e,0,100,51,51,25,27,Female,5876.1000001431,,static/images/instructions_CB_0/Slide20.png,39.0,,,,,,,,,,,,,,,,,,,,,,,,,,,
144,0,,image-keyboard-response,144,276069,0.0-6.1-0.1,na6pe9dth3h,2022-09-19 13:45:42.734,5a6600bd35f26b000149402e,0,100,51,51,25,27,Female,9911.7000000477,,static/images/instructions_CB_0/Slide21.png,39.0,,,,,,,,,,,,,,,,,,,,,,,,,,,
145,0,,image-keyboard-response,145,286829,0.0-6.2-0.2,na6pe9dth3h,2022-09-19 13:45:42.734,5a6600bd35f26b000149402e,0,100,51,51,25,27,Female,10759.5,,static/images/instructions_CB_0/Slide22.png,39.0,,,,,,,,,,,,,,,,,,,,,,,,,,,
146,0,,image-keyboard-response,146,293828,0.0-6.3-0.3,na6pe9dth3h,2022-09-19 13:45:42.734,5a6600bd35f26b000149402e,0,100,51,51,25,27,Female,6999.0,,static/images/instructions_CB_0/Slide23.png,39.0,,,,,,,,,,,,,,,,,,,,,,,,,,,
147,0,,image-keyboard-response,147,296205,0.0-6.4-0.4,na6pe9dth3h,2022-09-19 13:45:42.734,5a6600bd35f26b000149402e,0,100,51,51,25,27,Female,2375.3999998569,,static/images/instructions_CB_0/Slide24.png,37.0,,,,,,,,,,,,,,,,,,,,,,,,,,,
148,0,,image-keyboard-response,148,304565,0.0-6.5-0.5,na6pe9dth3h,2022-09-19 13:45:42.734,5a6600bd35f26b000149402e,0,100,51,51,25,27,Female,8359.7000000477,,static/images/instructions_CB_0/Slide23.png,39.0,,,,,,,,,,,,,,,,,,,,,,,,,,,
149,0,,image-keyboard-response,149,307933,0.0-6.6-0.6,na6pe9dth3h,2022-09-19 13:45:42.734,5a6600bd35f26b000149402e,0,100,51,51,25,27,Female,3367.4000000954,,static/images/instructions_CB_0/Slide24.png,39.0,,,,,,,,,,,,,,,,,,,,,,,,,,,
150,0,,html-keyboard-response,150,311580,0.0-7.0-0.0,na6pe9dth3h,2022-09-19 13:45:42.734,5a6600bd35f26b000149402e,0,100,51,51,25,27,Female,3646.5999999046,,"
  <table>
  <tr height=300>
    <td width=300 height=300><img src=""static/images/cards/stack_of_black_stars.svg"" width=""175px"" height=""250px""></img></td>
    <td width=300 height=300><img src=""static/images/cards/stack_of_red_stars.svg"" width=""175px"" height=""250px""></img></td>
  </tr>
  <tr height=200>
    <td width=300><img src=""static/images/keys/w.svg"" width=""35%"" height=""75%""></img></td>
    <td width=300><img src=""static/images/keys/o.svg"" width=""35%"" height=""75%""></img></td>
  </tr>
</table>
  ",79.0,1.0,,,,,,,,,,,,,,,,,,,,,,,,,,
151,0,,html-keyboard-response,151,313628,0.0-7.0-1.0,na6pe9dth3h,2022-09-19 13:45:42.734,5a6600bd35f26b000149402e,0,100,51,51,25,27,Female,1538.2999999523,,"
  <table>
  <tr height=300>
    <td width=300 height=300><img src=""static/images/cards/back_of_red_stars.svg"" width=""175px"" height=""250px""></img></td>
    <td width=300 height=300><img src=""static/images/cards/back_of_red_stars.svg"" width=""175px"" height=""250px""></img></td>
  </tr>
  <tr height=200>
    <td width=300><img src=""static/images/keys/z.svg"" width=""35%"" height=""75%""></img></td>
    <td width=300><img src=""static/images/keys/m.svg"" width=""35%"" height=""75%""></img></td>
  </tr>
</table>
  ",77.0,1.0,,,,,,,,,,,,,,,,,,,,,,,,,,
152,0,,html-keyboard-response,152,315132,0.0-7.0-2.0,na6pe9dth3h,2022-09-19 13:45:42.734,5a6600bd35f26b000149402e,0,100,51,51,25,27,Female,,,"
  <table>
  <tr height=300>
    <td width=300 height=300><img src=""static/images/cards/back_of_red_stars.svg"" width=""175px"" height=""250px""></img></td>
    <td width=300 height=300><img src=""static/images/cards/10_of_red_stars.svg"" width=""175px"" height=""250px""></img></td>
  </tr>
  <tr height=200>
    <td width=300><img src=""static/images/keys/z.svg"" width=""35%"" height=""75%""></img></td>
    <td width=300><img src=""static/images/keys/m.svg"" width=""35%"" height=""75%""></img></td>
  </tr>
</table>
  ",,,,,,,,,,,,,,,,,,,,,,,,,,,,
153,0,,html-keyboard-response,153,316655,0.0-7.0-3.0,na6pe9dth3h,2022-09-19 13:45:42.734,5a6600bd35f26b000149402e,0,100,51,51,25,27,Female,,,"<p style=""font-size:50px"">You win!
+10 points this round!</p>",,,,,,,,,,,,,,,,,,,,,,,,,,,,
154,0,,html-keyboard-response,154,317171,0.0-7.0-4.0,na6pe9dth3h,2022-09-19 13:45:42.734,5a6600bd35f26b000149402e,0,100,51,51,25,27,Female,,,,,,1.0,choice,0.0,A,B,black,red,stars,stars,B,A,A,red,stars,3646.5999999046,1.0,1.0,NA,right,1538.2999999523,10.0,1.0,1.0,,,
155,0,,html-keyboard-response,155,318389,0.0-7.1-0.1,na6pe9dth3h,2022-09-19 13:45:42.734,5a6600bd35f26b000149402e,0,100,51,51,25,27,Female,1217.2000000477,,"
  <table>
  <tr height=300>
    <td width=300 height=300><img src=""static/images/cards/stack_of_black_moons.svg"" width=""175px"" height=""250px""></img></td>
    <td width=300 height=300><img src=""static/images/cards/stack_of_red_stars.svg"" width=""175px"" height=""250px""></img></td>
  </tr>
  <tr height=200>
    <td width=300><img src=""static/images/keys/w.svg"" width=""35%"" height=""75%""></img></td>
    <td width=300><img src=""static/images/keys/o.svg"" width=""35%"" height=""75%""></img></td>
  </tr>
</table>
  ",79.0,1.0,,,,,,,,,,,,,,,,,,,,,,,,,,
156,0,,html-keyboard-response,156,319637,0.0-7.1-1.1,na6pe9dth3h,2022-09-19 13:45:42.734,5a6600bd35f26b000149402e,0,100,51,51,25,27,Female,745.2999999523,,"
  <table>
  <tr height=300>
    <td width=300 height=300><img src=""static/images/cards/back_of_red_stars.svg"" width=""175px"" height=""250px""></img></td>
    <td width=300 height=300><img src=""static/images/cards/back_of_red_stars.svg"" width=""175px"" height=""250px""></img></td>
  </tr>
  <tr height=200>
    <td width=300><img src=""static/images/keys/z.svg"" width=""35%"" height=""75%""></img></td>
    <td width=300><img src=""static/images/keys/m.svg"" width=""35%"" height=""75%""></img></td>
  </tr>
</table>
  ",90.0,1.0,,,,,,,,,,,,,,,,,,,,,,,,,,
157,0,,html-keyboard-response,157,321144,0.0-7.1-2.1,na6pe9dth3h,2022-09-19 13:45:42.734,5a6600bd35f26b000149402e,0,100,51,51,25,27,Female,,,"
  <table>
  <tr height=300>
    <td width=300 height=300><img src=""static/images/cards/4_of_red_stars.svg"" width=""175px"" height=""250px""></img></td>
    <td width=300 height=300><img src=""static/images/cards/back_of_red_stars.svg"" width=""175px"" height=""250px""></img></td>
  </tr>
  <tr height=200>
    <td width=300><img src=""static/images/keys/z.svg"" width=""35%"" height=""75%""></img></td>
    <td width=300><img src=""static/images/keys/m.svg"" width=""35%"" height=""75%""></img></td>
  </tr>
</table>
  ",,,,,,,,,,,,,,,,,,,,,,,,,,,,
158,0,,html-keyboard-response,158,322658,0.0-7.1-3.1,na6pe9dth3h,2022-09-19 13:45:42.734,5a6600bd35f26b000149402e,0,100,51,51,25,27,Female,,,"<p style=""font-size:50px"">You Lose!
No points this round.</p>",,,,,,,,,,,,,,,,,,,,,,,,,,,,
159,0,,html-keyboard-response,159,323175,0.0-7.1-4.1,na6pe9dth3h,2022-09-19 13:45:42.734,5a6600bd35f26b000149402e,0,100,51,51,25,27,Female,,,,,,1.0,choice,1.0,A,D,black,red,moons,stars,D,A,A,red,stars,1217.2000000477,1.0,1.0,NA,left,745.2999999523,4.0,0.0,0.0,,,
160,0,,html-keyboard-response,160,324221,0.0-7.2-0.2,na6pe9dth3h,2022-09-19 13:45:42.734,5a6600bd35f26b000149402e,0,100,51,51,25,27,Female,1044.6000001431,,"
  <table>
  <tr height=300>
    <td width=300 height=300><img src=""static/images/cards/stack_of_black_stars.svg"" width=""175px"" height=""250px""></img></td>
    <td width=300 height=300><img src=""static/images/cards/stack_of_red_bolts.svg"" width=""175px"" height=""250px""></img></td>
  </tr>
  <tr height=200>
    <td width=300><img src=""static/images/keys/w.svg"" width=""35%"" height=""75%""></img></td>
    <td width=300><img src=""static/images/keys/o.svg"" width=""35%"" height=""75%""></img></td>
  </tr>
</table>
  ",79.0,1.0,,,,,,,,,,,,,,,,,,,,,,,,,,
161,0,,html-keyboard-response,161,325349,0.0-7.2-1.2,na6pe9dth3h,2022-09-19 13:45:42.734,5a6600bd35f26b000149402e,0,100,51,51,25,27,Female,612.5,,"
  <table>
  <tr height=300>
    <td width=300 height=300><img src=""static/images/cards/back_of_red_bolts.svg"" width=""175px"" height=""250px""></img></td>
    <td width=300 height=300><img src=""static/images/cards/back_of_red_bolts.svg"" width=""175px"" height=""250px""></img></td>
  </tr>
  <tr height=200>
    <td width=300><img src=""static/images/keys/z.svg"" width=""35%"" height=""75%""></img></td>
    <td width=300><img src=""static/images/keys/m.svg"" width=""35%"" height=""75%""></img></td>
  </tr>
</table>
  ",77.0,1.0,,,,,,,,,,,,,,,,,,,,,,,,,,
162,0,,html-keyboard-response,162,326862,0.0-7.2-2.2,na6pe9dth3h,2022-09-19 13:45:42.734,5a6600bd35f26b000149402e,0,100,51,51,25,27,Female,,,"
  <table>
  <tr height=300>
    <td width=300 height=300><img src=""static/images/cards/back_of_red_bolts.svg"" width=""175px"" height=""250px""></img></td>
    <td width=300 height=300><img src=""static/images/cards/7_of_red_bolts.svg"" width=""175px"" height=""250px""></img></td>
  </tr>
  <tr height=200>
    <td width=300><img src=""static/images/keys/z.svg"" width=""35%"" height=""75%""></img></td>
    <td width=300><img src=""static/images/keys/m.svg"" width=""35%"" height=""75%""></img></td>
  </tr>
</table>
  ",,,,,,,,,,,,,,,,,,,,,,,,,,,,
163,0,,html-keyboard-response,163,328384,0.0-7.2-3.2,na6pe9dth3h,2022-09-19 13:45:42.734,5a6600bd35f26b000149402e,0,100,51,51,25,27,Female,,,"<p style=""font-size:50px"">You win!
+10 points this round!</p>",,,,,,,,,,,,,,,,,,,,,,,,,,,,
164,0,,html-keyboard-response,164,328901,0.0-7.2-4.2,na6pe9dth3h,2022-09-19 13:45:42.734,5a6600bd35f26b000149402e,0,100,51,51,25,27,Female,,,,,,1.0,choice,2.0,B,Xc,black,red,stars,bolts,B,Xc,Xc,red,bolts,1044.6000001431,1.0,0.0,NA,right,612.5,7.0,1.0,1.0,,,
165,0,,html-keyboard-response,165,330365,0.0-7.3-0.3,na6pe9dth3h,2022-09-19 13:45:42.734,5a6600bd35f26b000149402e,0,100,51,51,25,27,Female,1462.5,,"
  <table>
  <tr height=300>
    <td width=300 height=300><img src=""static/images/cards/stack_of_black_stars.svg"" width=""175px"" height=""250px""></img></td>
    <td width=300 height=300><img src=""static/images/cards/stack_of_black_moons.svg"" width=""175px"" height=""250px""></img></td>
  </tr>
  <tr height=200>
    <td width=300><img src=""static/images/keys/w.svg"" width=""35%"" height=""75%""></img></td>
    <td width=300><img src=""static/images/keys/o.svg"" width=""35%"" height=""75%""></img></td>
  </tr>
</table>
  ",87.0,1.0,,,,,,,,,,,,,,,,,,,,,,,,,,
166,0,,html-keyboard-response,166,333348,0.0-7.3-1.3,na6pe9dth3h,2022-09-19 13:45:42.734,5a6600bd35f26b000149402e,0,100,51,51,25,27,Female,2476.3999998569,,"
  <table>
  <tr height=300>
    <td width=300 height=300><img src=""static/images/cards/back_of_black_stars.svg"" width=""175px"" height=""250px""></img></td>
    <td width=300 height=300><img src=""static/images/cards/back_of_black_stars.svg"" width=""175px"" height=""250px""></img></td>
  </tr>
  <tr height=200>
    <td width=300><img src=""static/images/keys/z.svg"" width=""35%"" height=""75%""></img></td>
    <td width=300></td>
  </tr>
</table>
  ",90.0,2.0,,,,,,,,,,,,,,,,,,,,,,,,,,
167,0,,html-keyboard-response,167,334858,0.0-7.3-2.3,na6pe9dth3h,2022-09-19 13:45:42.734,5a6600bd35f26b000149402e,0,100,51,51,25,27,Female,,,"
  <table>
  <tr height=300>
    <td width=300 height=300><img src=""static/images/cards/7_of_black_stars.svg"" width=""175px"" height=""250px""></img></td>
    <td width=300 height=300><img src=""static/images/cards/back_of_black_stars.svg"" width=""175px"" height=""250px""></img></td>
  </tr>
  <tr height=200>
    <td width=300><img src=""static/images/keys/z.svg"" width=""35%"" height=""75%""></img></td>
    <td width=300></td>
  </tr>
</table>
  ",,,,,,,,,,,,,,,,,,,,,,,,,,,,
168,0,,html-keyboard-response,168,336378,0.0-7.3-3.3,na6pe9dth3h,2022-09-19 13:45:42.734,5a6600bd35f26b000149402e,0,100,51,51,25,27,Female,,,"<p style=""font-size:50px"">You win!
+10 points this round!</p>",,,,,,,,,,,,,,,,,,,,,,,,,,,,
169,0,,html-keyboard-response,169,336896,0.0-7.3-4.3,na6pe9dth3h,2022-09-19 13:45:42.734,5a6600bd35f26b000149402e,0,100,51,51,25,27,Female,,,,,,1.0,choice,3.0,B,D,black,black,stars,moons,B,D,B,black,stars,1462.5,0.0,1.0,1,left,2476.3999998569,7.0,1.0,1.0,,,
170,0,,html-keyboard-response,170,338604,0.0-7.4-0.4,na6pe9dth3h,2022-09-19 13:45:42.734,5a6600bd35f26b000149402e,0,100,51,51,25,27,Female,1707.4000000954,,"
  <table>
  <tr height=300>
    <td width=300 height=300><img src=""static/images/cards/stack_of_red_bolts.svg"" width=""175px"" height=""250px""></img></td>
    <td width=300 height=300><img src=""static/images/cards/stack_of_red_moons.svg"" width=""175px"" height=""250px""></img></td>
  </tr>
  <tr height=200>
    <td width=300><img src=""static/images/keys/w.svg"" width=""35%"" height=""75%""></img></td>
    <td width=300><img src=""static/images/keys/o.svg"" width=""35%"" height=""75%""></img></td>
  </tr>
</table>
  ",87.0,1.0,,,,,,,,,,,,,,,,,,,,,,,,,,
171,0,,html-keyboard-response,171,339733,0.0-7.4-1.4,na6pe9dth3h,2022-09-19 13:45:42.734,5a6600bd35f26b000149402e,0,100,51,51,25,27,Female,616.4000000954,,"
  <table>
  <tr height=300>
    <td width=300 height=300><img src=""static/images/cards/back_of_red_bolts.svg"" width=""175px"" height=""250px""></img></td>
    <td width=300 height=300><img src=""static/images/cards/back_of_red_bolts.svg"" width=""175px"" height=""250px""></img></td>
  </tr>
  <tr height=200>
    <td width=300><img src=""static/images/keys/z.svg"" width=""35%"" height=""75%""></img></td>
    <td width=300><img src=""static/images/keys/m.svg"" width=""35%"" height=""75%""></img></td>
  </tr>
</table>
  ",77.0,1.0,,,,,,,,,,,,,,,,,,,,,,,,,,
172,0,,html-keyboard-response,172,341242,0.0-7.4-2.4,na6pe9dth3h,2022-09-19 13:45:42.734,5a6600bd35f26b000149402e,0,100,51,51,25,27,Female,,,"
  <table>
  <tr height=300>
    <td width=300 height=300><img src=""static/images/cards/back_of_red_bolts.svg"" width=""175px"" height=""250px""></img></td>
    <td width=300 height=300><img src=""static/images/cards/9_of_red_bolts.svg"" width=""175px"" height=""250px""></img></td>
  </tr>
  <tr height=200>
    <td width=300><img src=""static/images/keys/z.svg"" width=""35%"" height=""75%""></img></td>
    <td width=300><img src=""static/images/keys/m.svg"" width=""35%"" height=""75%""></img></td>
  </tr>
</table>
  ",,,,,,,,,,,,,,,,,,,,,,,,,,,,
173,0,,html-keyboard-response,173,342764,0.0-7.4-3.4,na6pe9dth3h,2022-09-19 13:45:42.734,5a6600bd35f26b000149402e,0,100,51,51,25,27,Female,,,"<p style=""font-size:50px"">You win!
+10 points this round!</p>",,,,,,,,,,,,,,,,,,,,,,,,,,,,
174,0,,html-keyboard-response,174,343279,0.0-7.4-4.4,na6pe9dth3h,2022-09-19 13:45:42.734,5a6600bd35f26b000149402e,0,100,51,51,25,27,Female,,,,,,1.0,choice,4.0,C,Xc,red,red,bolts,moons,Xc,C,Xc,red,bolts,1707.4000000954,1.0,0.0,NA,right,616.4000000954,9.0,1.0,1.0,,,
175,0,,html-keyboard-response,175,344909,0.0-7.5-0.5,na6pe9dth3h,2022-09-19 13:45:42.734,5a6600bd35f26b000149402e,0,100,51,51,25,27,Female,1628.7999999523,,"
  <table>
  <tr height=300>
    <td width=300 height=300><img src=""static/images/cards/stack_of_black_stars.svg"" width=""175px"" height=""250px""></img></td>
    <td width=300 height=300><img src=""static/images/cards/stack_of_red_stars.svg"" width=""175px"" height=""250px""></img></td>
  </tr>
  <tr height=200>
    <td width=300><img src=""static/images/keys/w.svg"" width=""35%"" height=""75%""></img></td>
    <td width=300><img src=""static/images/keys/o.svg"" width=""35%"" height=""75%""></img></td>
  </tr>
</table>
  ",79.0,1.0,,,,,,,,,,,,,,,,,,,,,,,,,,
176,0,,html-keyboard-response,176,346165,0.0-7.5-1.5,na6pe9dth3h,2022-09-19 13:45:42.734,5a6600bd35f26b000149402e,0,100,51,51,25,27,Female,748.7999999523,,"
  <table>
  <tr height=300>
    <td width=300 height=300><img src=""static/images/cards/back_of_red_stars.svg"" width=""175px"" height=""250px""></img></td>
    <td width=300 height=300><img src=""static/images/cards/back_of_red_stars.svg"" width=""175px"" height=""250px""></img></td>
  </tr>
  <tr height=200>
    <td width=300><img src=""static/images/keys/z.svg"" width=""35%"" height=""75%""></img></td>
    <td width=300><img src=""static/images/keys/m.svg"" width=""35%"" height=""75%""></img></td>
  </tr>
</table>
  ",77.0,1.0,,,,,,,,,,,,,,,,,,,,,,,,,,
177,0,,html-keyboard-response,177,347674,0.0-7.5-2.5,na6pe9dth3h,2022-09-19 13:45:42.734,5a6600bd35f26b000149402e,0,100,51,51,25,27,Female,,,"
  <table>
  <tr height=300>
    <td width=300 height=300><img src=""static/images/cards/back_of_red_stars.svg"" width=""175px"" height=""250px""></img></td>
    <td width=300 height=300><img src=""static/images/cards/4_of_red_stars.svg"" width=""175px"" height=""250px""></img></td>
  </tr>
  <tr height=200>
    <td width=300><img src=""static/images/keys/z.svg"" width=""35%"" height=""75%""></img></td>
    <td width=300><img src=""static/images/keys/m.svg"" width=""35%"" height=""75%""></img></td>
  </tr>
</table>
  ",,,,,,,,,,,,,,,,,,,,,,,,,,,,
178,0,,html-keyboard-response,178,349198,0.0-7.5-3.5,na6pe9dth3h,2022-09-19 13:45:42.734,5a6600bd35f26b000149402e,0,100,51,51,25,27,Female,,,"<p style=""font-size:50px"">You Lose!
No points this round.</p>",,,,,,,,,,,,,,,,,,,,,,,,,,,,
179,0,,html-keyboard-response,179,349713,0.0-7.5-4.5,na6pe9dth3h,2022-09-19 13:45:42.734,5a6600bd35f26b000149402e,0,100,51,51,25,27,Female,,,,,,1.0,choice,5.0,A,B,black,red,stars,stars,B,A,A,red,stars,1628.7999999523,1.0,1.0,NA,right,748.7999999523,4.0,0.0,0.0,,,
180,0,,html-keyboard-response,180,351173,0.0-7.6-0.6,na6pe9dth3h,2022-09-19 13:45:42.734,5a6600bd35f26b000149402e,0,100,51,51,25,27,Female,1459.0999999046,,"
  <table>
  <tr height=300>
    <td width=300 height=300><img src=""static/images/cards/stack_of_black_stars.svg"" width=""175px"" height=""250px""></img></td>
    <td width=300 height=300><img src=""static/images/cards/stack_of_black_moons.svg"" width=""175px"" height=""250px""></img></td>
  </tr>
  <tr height=200>
    <td width=300><img src=""static/images/keys/w.svg"" width=""35%"" height=""75%""></img></td>
    <td width=300><img src=""static/images/keys/o.svg"" width=""35%"" height=""75%""></img></td>
  </tr>
</table>
  ",87.0,1.0,,,,,,,,,,,,,,,,,,,,,,,,,,
181,0,,html-keyboard-response,181,352229,0.0-7.6-1.6,na6pe9dth3h,2022-09-19 13:45:42.734,5a6600bd35f26b000149402e,0,100,51,51,25,27,Female,541.9000000954,,"
  <table>
  <tr height=300>
    <td width=300 height=300><img src=""static/images/cards/back_of_black_stars.svg"" width=""175px"" height=""250px""></img></td>
    <td width=300 height=300><img src=""static/images/cards/back_of_black_stars.svg"" width=""175px"" height=""250px""></img></td>
  </tr>
  <tr height=200>
    <td width=300></td>
    <td width=300><img src=""static/images/keys/m.svg"" width=""35%"" height=""75%""></img></td>
  </tr>
</table>
  ",77.0,1.0,,,,,,,,,,,,,,,,,,,,,,,,,,
182,0,,html-keyboard-response,182,353734,0.0-7.6-2.6,na6pe9dth3h,2022-09-19 13:45:42.734,5a6600bd35f26b000149402e,0,100,51,51,25,27,Female,,,"
  <table>
  <tr height=300>
    <td width=300 height=300><img src=""static/images/cards/back_of_black_stars.svg"" width=""175px"" height=""250px""></img></td>
    <td width=300 height=300><img src=""static/images/cards/6_of_black_stars.svg"" width=""175px"" height=""250px""></img></td>
  </tr>
  <tr height=200>
    <td width=300></td>
    <td width=300><img src=""static/images/keys/m.svg"" width=""35%"" height=""75%""></img></td>
  </tr>
</table>
  ",,,,,,,,,,,,,,,,,,,,,,,,,,,,
183,0,,html-keyboard-response,183,355249,0.0-7.6-3.6,na6pe9dth3h,2022-09-19 13:45:42.734,5a6600bd35f26b000149402e,0,100,51,51,25,27,Female,,,"<p style=""font-size:50px"">You win!
+10 points this round!</p>",,,,,,,,,,,,,,,,,,,,,,,,,,,,
184,0,,html-keyboard-response,184,355768,0.0-7.6-4.6,na6pe9dth3h,2022-09-19 13:45:42.734,5a6600bd35f26b000149402e,0,100,51,51,25,27,Female,,,,,,1.0,choice,6.0,B,D,black,black,stars,moons,B,D,B,black,stars,1459.0999999046,0.0,1.0,0,right,541.9000000954,6.0,1.0,1.0,,,
185,0,,html-keyboard-response,185,358772,0.0-7.7-0.7,na6pe9dth3h,2022-09-19 13:45:42.734,5a6600bd35f26b000149402e,0,100,51,51,25,27,Female,3003.9000000954,,"
  <table>
  <tr height=300>
    <td width=300 height=300><img src=""static/images/cards/stack_of_red_moons.svg"" width=""175px"" height=""250px""></img></td>
    <td width=300 height=300><img src=""static/images/cards/stack_of_black_moons.svg"" width=""175px"" height=""250px""></img></td>
  </tr>
  <tr height=200>
    <td width=300><img src=""static/images/keys/w.svg"" width=""35%"" height=""75%""></img></td>
    <td width=300><img src=""static/images/keys/o.svg"" width=""35%"" height=""75%""></img></td>
  </tr>
</table>
  ",87.0,1.0,,,,,,,,,,,,,,,,,,,,,,,,,,
186,0,,html-keyboard-response,186,360581,0.0-7.7-1.7,na6pe9dth3h,2022-09-19 13:45:42.734,5a6600bd35f26b000149402e,0,100,51,51,25,27,Female,1302.9000000954,,"
  <table>
  <tr height=300>
    <td width=300 height=300><img src=""static/images/cards/back_of_red_moons.svg"" width=""175px"" height=""250px""></img></td>
    <td width=300 height=300><img src=""static/images/cards/back_of_red_moons.svg"" width=""175px"" height=""250px""></img></td>
  </tr>
  <tr height=200>
    <td width=300><img src=""static/images/keys/z.svg"" width=""35%"" height=""75%""></img></td>
    <td width=300><img src=""static/images/keys/m.svg"" width=""35%"" height=""75%""></img></td>
  </tr>
</table>
  ",77.0,1.0,,,,,,,,,,,,,,,,,,,,,,,,,,
187,0,,html-keyboard-response,187,362089,0.0-7.7-2.7,na6pe9dth3h,2022-09-19 13:45:42.734,5a6600bd35f26b000149402e,0,100,51,51,25,27,Female,,,"
  <table>
  <tr height=300>
    <td width=300 height=300><img src=""static/images/cards/back_of_red_moons.svg"" width=""175px"" height=""250px""></img></td>
    <td width=300 height=300><img src=""static/images/cards/8_of_red_moons.svg"" width=""175px"" height=""250px""></img></td>
  </tr>
  <tr height=200>
    <td width=300><img src=""static/images/keys/z.svg"" width=""35%"" height=""75%""></img></td>
    <td width=300><img src=""static/images/keys/m.svg"" width=""35%"" height=""75%""></img></td>
  </tr>
</table>
  ",,,,,,,,,,,,,,,,,,,,,,,,,,,,
188,0,,html-keyboard-response,188,363615,0.0-7.7-3.7,na6pe9dth3h,2022-09-19 13:45:42.734,5a6600bd35f26b000149402e,0,100,51,51,25,27,Female,,,"<p style=""font-size:50px"">You win!
+10 points this round!</p>",,,,,,,,,,,,,,,,,,,,,,,,,,,,
189,0,,html-keyboard-response,189,364133,0.0-7.7-4.7,na6pe9dth3h,2022-09-19 13:45:42.734,5a6600bd35f26b000149402e,0,100,51,51,25,27,Female,,,,,,1.0,choice,7.0,C,D,red,black,moons,moons,C,D,C,red,moons,3003.9000000954,1.0,0.0,NA,right,1302.9000000954,8.0,1.0,1.0,,,
190,0,,html-keyboard-response,190,365453,0.0-7.8-0.8,na6pe9dth3h,2022-09-19 13:45:42.734,5a6600bd35f26b000149402e,0,100,51,51,25,27,Female,1319.2000000477,,"
  <table>
  <tr height=300>
    <td width=300 height=300><img src=""static/images/cards/stack_of_red_stars.svg"" width=""175px"" height=""250px""></img></td>
    <td width=300 height=300><img src=""static/images/cards/stack_of_black_moons.svg"" width=""175px"" height=""250px""></img></td>
  </tr>
  <tr height=200>
    <td width=300><img src=""static/images/keys/w.svg"" width=""35%"" height=""75%""></img></td>
    <td width=300><img src=""static/images/keys/o.svg"" width=""35%"" height=""75%""></img></td>
  </tr>
</table>
  ",87.0,1.0,,,,,,,,,,,,,,,,,,,,,,,,,,
191,0,,html-keyboard-response,191,367084,0.0-7.8-1.8,na6pe9dth3h,2022-09-19 13:45:42.734,5a6600bd35f26b000149402e,0,100,51,51,25,27,Female,1120.2999999523,,"
  <table>
  <tr height=300>
    <td width=300 height=300><img src=""static/images/cards/back_of_red_stars.svg"" width=""175px"" height=""250px""></img></td>
    <td width=300 height=300><img src=""static/images/cards/back_of_red_stars.svg"" width=""175px"" height=""250px""></img></td>
  </tr>
  <tr height=200>
    <td width=300><img src=""static/images/keys/z.svg"" width=""35%"" height=""75%""></img></td>
    <td width=300><img src=""static/images/keys/m.svg"" width=""35%"" height=""75%""></img></td>
  </tr>
</table>
  ",77.0,1.0,,,,,,,,,,,,,,,,,,,,,,,,,,
192,0,,html-keyboard-response,192,368600,0.0-7.8-2.8,na6pe9dth3h,2022-09-19 13:45:42.734,5a6600bd35f26b000149402e,0,100,51,51,25,27,Female,,,"
  <table>
  <tr height=300>
    <td width=300 height=300><img src=""static/images/cards/back_of_red_stars.svg"" width=""175px"" height=""250px""></img></td>
    <td width=300 height=300><img src=""static/images/cards/1_of_red_stars.svg"" width=""175px"" height=""250px""></img></td>
  </tr>
  <tr height=200>
    <td width=300><img src=""static/images/keys/z.svg"" width=""35%"" height=""75%""></img></td>
    <td width=300><img src=""static/images/keys/m.svg"" width=""35%"" height=""75%""></img></td>
  </tr>
</table>
  ",,,,,,,,,,,,,,,,,,,,,,,,,,,,
193,0,,html-keyboard-response,193,370123,0.0-7.8-3.8,na6pe9dth3h,2022-09-19 13:45:42.734,5a6600bd35f26b000149402e,0,100,51,51,25,27,Female,,,"<p style=""font-size:50px"">You Lose!
No points this round.</p>",,,,,,,,,,,,,,,,,,,,,,,,,,,,
194,0,,html-keyboard-response,194,370642,0.0-7.8-4.8,na6pe9dth3h,2022-09-19 13:45:42.734,5a6600bd35f26b000149402e,0,100,51,51,25,27,Female,,,,,,1.0,choice,8.0,A,D,red,black,stars,moons,A,D,A,red,stars,1319.2000000477,1.0,1.0,NA,right,1120.2999999523,1.0,0.0,0.0,,,
195,0,,html-keyboard-response,195,371637,0.0-7.9-0.9,na6pe9dth3h,2022-09-19 13:45:42.734,5a6600bd35f26b000149402e,0,100,51,51,25,27,Female,994.2000000477,,"
  <table>
  <tr height=300>
    <td width=300 height=300><img src=""static/images/cards/stack_of_red_stars.svg"" width=""175px"" height=""250px""></img></td>
    <td width=300 height=300><img src=""static/images/cards/stack_of_black_moons.svg"" width=""175px"" height=""250px""></img></td>
  </tr>
  <tr height=200>
    <td width=300><img src=""static/images/keys/w.svg"" width=""35%"" height=""75%""></img></td>
    <td width=300><img src=""static/images/keys/o.svg"" width=""35%"" height=""75%""></img></td>
  </tr>
</table>
  ",87.0,1.0,,,,,,,,,,,,,,,,,,,,,,,,,,
196,0,,html-keyboard-response,196,373037,0.0-7.9-1.9,na6pe9dth3h,2022-09-19 13:45:42.734,5a6600bd35f26b000149402e,0,100,51,51,25,27,Female,888.2999999523,,"
  <table>
  <tr height=300>
    <td width=300 height=300><img src=""static/images/cards/back_of_red_stars.svg"" width=""175px"" height=""250px""></img></td>
    <td width=300 height=300><img src=""static/images/cards/back_of_red_stars.svg"" width=""175px"" height=""250px""></img></td>
  </tr>
  <tr height=200>
    <td width=300><img src=""static/images/keys/z.svg"" width=""35%"" height=""75%""></img></td>
    <td width=300><img src=""static/images/keys/m.svg"" width=""35%"" height=""75%""></img></td>
  </tr>
</table>
  ",77.0,1.0,,,,,,,,,,,,,,,,,,,,,,,,,,
197,0,,html-keyboard-response,197,374542,0.0-7.9-2.9,na6pe9dth3h,2022-09-19 13:45:42.734,5a6600bd35f26b000149402e,0,100,51,51,25,27,Female,,,"
  <table>
  <tr height=300>
    <td width=300 height=300><img src=""static/images/cards/back_of_red_stars.svg"" width=""175px"" height=""250px""></img></td>
    <td width=300 height=300><img src=""static/images/cards/9_of_red_stars.svg"" width=""175px"" height=""250px""></img></td>
  </tr>
  <tr height=200>
    <td width=300><img src=""static/images/keys/z.svg"" width=""35%"" height=""75%""></img></td>
    <td width=300><img src=""static/images/keys/m.svg"" width=""35%"" height=""75%""></img></td>
  </tr>
</table>
  ",,,,,,,,,,,,,,,,,,,,,,,,,,,,
198,0,,html-keyboard-response,198,376067,0.0-7.9-3.9,na6pe9dth3h,2022-09-19 13:45:42.734,5a6600bd35f26b000149402e,0,100,51,51,25,27,Female,,,"<p style=""font-size:50px"">You win!
+10 points this round!</p>",,,,,,,,,,,,,,,,,,,,,,,,,,,,
199,0,,html-keyboard-response,199,376586,0.0-7.9-4.9,na6pe9dth3h,2022-09-19 13:45:42.734,5a6600bd35f26b000149402e,0,100,51,51,25,27,Female,,,,,,1.0,choice,9.0,A,D,red,black,stars,moons,A,D,A,red,stars,994.2000000477,1.0,1.0,NA,right,888.2999999523,9.0,1.0,1.0,,,
200,0,,html-keyboard-response,200,377733,0.0-7.10-0.10,na6pe9dth3h,2022-09-19 13:45:42.734,5a6600bd35f26b000149402e,0,100,51,51,25,27,Female,1146.2000000477,,"
  <table>
  <tr height=300>
    <td width=300 height=300><img src=""static/images/cards/stack_of_red_stars.svg"" width=""175px"" height=""250px""></img></td>
    <td width=300 height=300><img src=""static/images/cards/stack_of_red_moons.svg"" width=""175px"" height=""250px""></img></td>
  </tr>
  <tr height=200>
    <td width=300><img src=""static/images/keys/w.svg"" width=""35%"" height=""75%""></img></td>
    <td width=300><img src=""static/images/keys/o.svg"" width=""35%"" height=""75%""></img></td>
  </tr>
</table>
  ",87.0,1.0,,,,,,,,,,,,,,,,,,,,,,,,,,
201,0,,html-keyboard-response,201,379773,0.0-7.10-1.10,na6pe9dth3h,2022-09-19 13:45:42.734,5a6600bd35f26b000149402e,0,100,51,51,25,27,Female,1526.0999999046,,"
  <table>
  <tr height=300>
    <td width=300 height=300><img src=""static/images/cards/back_of_red_stars.svg"" width=""175px"" height=""250px""></img></td>
    <td width=300 height=300><img src=""static/images/cards/back_of_red_stars.svg"" width=""175px"" height=""250px""></img></td>
  </tr>
  <tr height=200>
    <td width=300><img src=""static/images/keys/z.svg"" width=""35%"" height=""75%""></img></td>
    <td width=300><img src=""static/images/keys/m.svg"" width=""35%"" height=""75%""></img></td>
  </tr>
</table>
  ",77.0,1.0,,,,,,,,,,,,,,,,,,,,,,,,,,
202,0,,html-keyboard-response,202,381280,0.0-7.10-2.10,na6pe9dth3h,2022-09-19 13:45:42.734,5a6600bd35f26b000149402e,0,100,51,51,25,27,Female,,,"
  <table>
  <tr height=300>
    <td width=300 height=300><img src=""static/images/cards/back_of_red_stars.svg"" width=""175px"" height=""250px""></img></td>
    <td width=300 height=300><img src=""static/images/cards/9_of_red_stars.svg"" width=""175px"" height=""250px""></img></td>
  </tr>
  <tr height=200>
    <td width=300><img src=""static/images/keys/z.svg"" width=""35%"" height=""75%""></img></td>
    <td width=300><img src=""static/images/keys/m.svg"" width=""35%"" height=""75%""></img></td>
  </tr>
</table>
  ",,,,,,,,,,,,,,,,,,,,,,,,,,,,
203,0,,html-keyboard-response,203,382803,0.0-7.10-3.10,na6pe9dth3h,2022-09-19 13:45:42.734,5a6600bd35f26b000149402e,0,100,51,51,25,27,Female,,,"<p style=""font-size:50px"">You win!
+10 points this round!</p>",,,,,,,,,,,,,,,,,,,,,,,,,,,,
204,0,,html-keyboard-response,204,383319,0.0-7.10-4.10,na6pe9dth3h,2022-09-19 13:45:42.734,5a6600bd35f26b000149402e,0,100,51,51,25,27,Female,,,,,,1.0,choice,10.0,A,C,red,red,stars,moons,A,C,A,red,stars,1146.2000000477,1.0,1.0,NA,right,1526.0999999046,9.0,1.0,1.0,,,
205,0,,html-keyboard-response,205,384732,0.0-7.11-0.11,na6pe9dth3h,2022-09-19 13:45:42.734,5a6600bd35f26b000149402e,0,100,51,51,25,27,Female,1412.6000001431,,"
  <table>
  <tr height=300>
    <td width=300 height=300><img src=""static/images/cards/stack_of_red_moons.svg"" width=""175px"" height=""250px""></img></td>
    <td width=300 height=300><img src=""static/images/cards/stack_of_red_stars.svg"" width=""175px"" height=""250px""></img></td>
  </tr>
  <tr height=200>
    <td width=300><img src=""static/images/keys/w.svg"" width=""35%"" height=""75%""></img></td>
    <td width=300><img src=""static/images/keys/o.svg"" width=""35%"" height=""75%""></img></td>
  </tr>
</table>
  ",79.0,1.0,,,,,,,,,,,,,,,,,,,,,,,,,,
206,0,,html-keyboard-response,206,385756,0.0-7.11-1.11,na6pe9dth3h,2022-09-19 13:45:42.734,5a6600bd35f26b000149402e,0,100,51,51,25,27,Female,514.2000000477,,"
  <table>
  <tr height=300>
    <td width=300 height=300><img src=""static/images/cards/back_of_red_stars.svg"" width=""175px"" height=""250px""></img></td>
    <td width=300 height=300><img src=""static/images/cards/back_of_red_stars.svg"" width=""175px"" height=""250px""></img></td>
  </tr>
  <tr height=200>
    <td width=300><img src=""static/images/keys/z.svg"" width=""35%"" height=""75%""></img></td>
    <td width=300><img src=""static/images/keys/m.svg"" width=""35%"" height=""75%""></img></td>
  </tr>
</table>
  ",90.0,1.0,,,,,,,,,,,,,,,,,,,,,,,,,,
207,0,,html-keyboard-response,207,387270,0.0-7.11-2.11,na6pe9dth3h,2022-09-19 13:45:42.734,5a6600bd35f26b000149402e,0,100,51,51,25,27,Female,,,"
  <table>
  <tr height=300>
    <td width=300 height=300><img src=""static/images/cards/9_of_red_stars.svg"" width=""175px"" height=""250px""></img></td>
    <td width=300 height=300><img src=""static/images/cards/back_of_red_stars.svg"" width=""175px"" height=""250px""></img></td>
  </tr>
  <tr height=200>
    <td width=300><img src=""static/images/keys/z.svg"" width=""35%"" height=""75%""></img></td>
    <td width=300><img src=""static/images/keys/m.svg"" width=""35%"" height=""75%""></img></td>
  </tr>
</table>
  ",,,,,,,,,,,,,,,,,,,,,,,,,,,,
208,0,,html-keyboard-response,208,388796,0.0-7.11-3.11,na6pe9dth3h,2022-09-19 13:45:42.734,5a6600bd35f26b000149402e,0,100,51,51,25,27,Female,,,"<p style=""font-size:50px"">You win!
+10 points this round!</p>",,,,,,,,,,,,,,,,,,,,,,,,,,,,
209,0,,html-keyboard-response,209,389313,0.0-7.11-4.11,na6pe9dth3h,2022-09-19 13:45:42.734,5a6600bd35f26b000149402e,0,100,51,51,25,27,Female,,,,,,1.0,choice,11.0,A,C,red,red,moons,stars,C,A,A,red,stars,1412.6000001431,1.0,1.0,NA,left,514.2000000477,9.0,1.0,1.0,,,
210,0,,html-keyboard-response,210,391069,0.0-7.12-0.12,na6pe9dth3h,2022-09-19 13:45:42.734,5a6600bd35f26b000149402e,0,100,51,51,25,27,Female,1755.2000000477,,"
  <table>
  <tr height=300>
    <td width=300 height=300><img src=""static/images/cards/stack_of_red_moons.svg"" width=""175px"" height=""250px""></img></td>
    <td width=300 height=300><img src=""static/images/cards/stack_of_red_stars.svg"" width=""175px"" height=""250px""></img></td>
  </tr>
  <tr height=200>
    <td width=300><img src=""static/images/keys/w.svg"" width=""35%"" height=""75%""></img></td>
    <td width=300><img src=""static/images/keys/o.svg"" width=""35%"" height=""75%""></img></td>
  </tr>
</table>
  ",79.0,1.0,,,,,,,,,,,,,,,,,,,,,,,,,,
211,0,,html-keyboard-response,211,393253,0.0-7.12-1.12,na6pe9dth3h,2022-09-19 13:45:42.734,5a6600bd35f26b000149402e,0,100,51,51,25,27,Female,1676.4000000954,,"
  <table>
  <tr height=300>
    <td width=300 height=300><img src=""static/images/cards/back_of_red_stars.svg"" width=""175px"" height=""250px""></img></td>
    <td width=300 height=300><img src=""static/images/cards/back_of_red_stars.svg"" width=""175px"" height=""250px""></img></td>
  </tr>
  <tr height=200>
    <td width=300><img src=""static/images/keys/z.svg"" width=""35%"" height=""75%""></img></td>
    <td width=300><img src=""static/images/keys/m.svg"" width=""35%"" height=""75%""></img></td>
  </tr>
</table>
  ",77.0,1.0,,,,,,,,,,,,,,,,,,,,,,,,,,
212,0,,html-keyboard-response,212,394760,0.0-7.12-2.12,na6pe9dth3h,2022-09-19 13:45:42.734,5a6600bd35f26b000149402e,0,100,51,51,25,27,Female,,,"
  <table>
  <tr height=300>
    <td width=300 height=300><img src=""static/images/cards/back_of_red_stars.svg"" width=""175px"" height=""250px""></img></td>
    <td width=300 height=300><img src=""static/images/cards/6_of_red_stars.svg"" width=""175px"" height=""250px""></img></td>
  </tr>
  <tr height=200>
    <td width=300><img src=""static/images/keys/z.svg"" width=""35%"" height=""75%""></img></td>
    <td width=300><img src=""static/images/keys/m.svg"" width=""35%"" height=""75%""></img></td>
  </tr>
</table>
  ",,,,,,,,,,,,,,,,,,,,,,,,,,,,
213,0,,html-keyboard-response,213,396281,0.0-7.12-3.12,na6pe9dth3h,2022-09-19 13:45:42.734,5a6600bd35f26b000149402e,0,100,51,51,25,27,Female,,,"<p style=""font-size:50px"">You win!
+10 points this round!</p>",,,,,,,,,,,,,,,,,,,,,,,,,,,,
214,0,,html-keyboard-response,214,396787,0.0-7.12-4.12,na6pe9dth3h,2022-09-19 13:45:42.734,5a6600bd35f26b000149402e,0,100,51,51,25,27,Female,,,,,,1.0,choice,12.0,A,C,red,red,moons,stars,C,A,A,red,stars,1755.2000000477,1.0,1.0,NA,right,1676.4000000954,6.0,1.0,1.0,,,
215,0,,html-keyboard-response,215,399005,0.0-7.13-0.13,na6pe9dth3h,2022-09-19 13:45:42.734,5a6600bd35f26b000149402e,0,100,51,51,25,27,Female,2217.1000001431,,"
  <table>
  <tr height=300>
    <td width=300 height=300><img src=""static/images/cards/stack_of_red_moons.svg"" width=""175px"" height=""250px""></img></td>
    <td width=300 height=300><img src=""static/images/cards/stack_of_black_stars.svg"" width=""175px"" height=""250px""></img></td>
  </tr>
  <tr height=200>
    <td width=300><img src=""static/images/keys/w.svg"" width=""35%"" height=""75%""></img></td>
    <td width=300><img src=""static/images/keys/o.svg"" width=""35%"" height=""75%""></img></td>
  </tr>
</table>
  ",79.0,1.0,,,,,,,,,,,,,,,,,,,,,,,,,,
216,0,,html-keyboard-response,216,399925,0.0-7.13-1.13,na6pe9dth3h,2022-09-19 13:45:42.734,5a6600bd35f26b000149402e,0,100,51,51,25,27,Female,412.2999999523,,"
  <table>
  <tr height=300>
    <td width=300 height=300><img src=""static/images/cards/back_of_black_stars.svg"" width=""175px"" height=""250px""></img></td>
    <td width=300 height=300><img src=""static/images/cards/back_of_black_stars.svg"" width=""175px"" height=""250px""></img></td>
  </tr>
  <tr height=200>
    <td width=300><img src=""static/images/keys/z.svg"" width=""35%"" height=""75%""></img></td>
    <td width=300></td>
  </tr>
</table>
  ",90.0,1.0,,,,,,,,,,,,,,,,,,,,,,,,,,
217,0,,html-keyboard-response,217,401440,0.0-7.13-2.13,na6pe9dth3h,2022-09-19 13:45:42.734,5a6600bd35f26b000149402e,0,100,51,51,25,27,Female,,,"
  <table>
  <tr height=300>
    <td width=300 height=300><img src=""static/images/cards/3_of_black_stars.svg"" width=""175px"" height=""250px""></img></td>
    <td width=300 height=300><img src=""static/images/cards/back_of_black_stars.svg"" width=""175px"" height=""250px""></img></td>
  </tr>
  <tr height=200>
    <td width=300><img src=""static/images/keys/z.svg"" width=""35%"" height=""75%""></img></td>
    <td width=300></td>
  </tr>
</table>
  ",,,,,,,,,,,,,,,,,,,,,,,,,,,,
218,0,,html-keyboard-response,218,402968,0.0-7.13-3.13,na6pe9dth3h,2022-09-19 13:45:42.734,5a6600bd35f26b000149402e,0,100,51,51,25,27,Female,,,"<p style=""font-size:50px"">You Lose!
No points this round.</p>",,,,,,,,,,,,,,,,,,,,,,,,,,,,
219,0,,html-keyboard-response,219,403486,0.0-7.13-4.13,na6pe9dth3h,2022-09-19 13:45:42.734,5a6600bd35f26b000149402e,0,100,51,51,25,27,Female,,,,,,1.0,choice,13.0,B,C,red,black,moons,stars,C,B,B,black,stars,2217.1000001431,0.0,1.0,1,left,412.2999999523,3.0,0.0,0.0,,,
220,0,,html-keyboard-response,220,405324,0.0-7.14-0.14,na6pe9dth3h,2022-09-19 13:45:42.734,5a6600bd35f26b000149402e,0,100,51,51,25,27,Female,1837.2999999523,,"
  <table>
  <tr height=300>
    <td width=300 height=300><img src=""static/images/cards/stack_of_black_stars.svg"" width=""175px"" height=""250px""></img></td>
    <td width=300 height=300><img src=""static/images/cards/stack_of_black_moons.svg"" width=""175px"" height=""250px""></img></td>
  </tr>
  <tr height=200>
    <td width=300><img src=""static/images/keys/w.svg"" width=""35%"" height=""75%""></img></td>
    <td width=300><img src=""static/images/keys/o.svg"" width=""35%"" height=""75%""></img></td>
  </tr>
</table>
  ",87.0,1.0,,,,,,,,,,,,,,,,,,,,,,,,,,
221,0,,html-keyboard-response,221,406221,0.0-7.14-1.14,na6pe9dth3h,2022-09-19 13:45:42.734,5a6600bd35f26b000149402e,0,100,51,51,25,27,Female,392.9000000954,,"
  <table>
  <tr height=300>
    <td width=300 height=300><img src=""static/images/cards/back_of_black_stars.svg"" width=""175px"" height=""250px""></img></td>
    <td width=300 height=300><img src=""static/images/cards/back_of_black_stars.svg"" width=""175px"" height=""250px""></img></td>
  </tr>
  <tr height=200>
    <td width=300><img src=""static/images/keys/z.svg"" width=""35%"" height=""75%""></img></td>
    <td width=300></td>
  </tr>
</table>
  ",90.0,1.0,,,,,,,,,,,,,,,,,,,,,,,,,,
222,0,,html-keyboard-response,222,407732,0.0-7.14-2.14,na6pe9dth3h,2022-09-19 13:45:42.734,5a6600bd35f26b000149402e,0,100,51,51,25,27,Female,,,"
  <table>
  <tr height=300>
    <td width=300 height=300><img src=""static/images/cards/3_of_black_stars.svg"" width=""175px"" height=""250px""></img></td>
    <td width=300 height=300><img src=""static/images/cards/back_of_black_stars.svg"" width=""175px"" height=""250px""></img></td>
  </tr>
  <tr height=200>
    <td width=300><img src=""static/images/keys/z.svg"" width=""35%"" height=""75%""></img></td>
    <td width=300></td>
  </tr>
</table>
  ",,,,,,,,,,,,,,,,,,,,,,,,,,,,
223,0,,html-keyboard-response,223,409257,0.0-7.14-3.14,na6pe9dth3h,2022-09-19 13:45:42.734,5a6600bd35f26b000149402e,0,100,51,51,25,27,Female,,,"<p style=""font-size:50px"">You Lose!
No points this round.</p>",,,,,,,,,,,,,,,,,,,,,,,,,,,,
224,0,,html-keyboard-response,224,409775,0.0-7.14-4.14,na6pe9dth3h,2022-09-19 13:45:42.734,5a6600bd35f26b000149402e,0,100,51,51,25,27,Female,,,,,,1.0,choice,14.0,B,D,black,black,stars,moons,B,D,B,black,stars,1837.2999999523,0.0,1.0,1,left,392.9000000954,3.0,0.0,0.0,,,
225,0,,html-keyboard-response,225,410933,0.0-7.15-0.15,na6pe9dth3h,2022-09-19 13:45:42.734,5a6600bd35f26b000149402e,0,100,51,51,25,27,Female,1157.0,,"
  <table>
  <tr height=300>
    <td width=300 height=300><img src=""static/images/cards/stack_of_red_stars.svg"" width=""175px"" height=""250px""></img></td>
    <td width=300 height=300><img src=""static/images/cards/stack_of_red_moons.svg"" width=""175px"" height=""250px""></img></td>
  </tr>
  <tr height=200>
    <td width=300><img src=""static/images/keys/w.svg"" width=""35%"" height=""75%""></img></td>
    <td width=300><img src=""static/images/keys/o.svg"" width=""35%"" height=""75%""></img></td>
  </tr>
</table>
  ",87.0,1.0,,,,,,,,,,,,,,,,,,,,,,,,,,
226,0,,html-keyboard-response,226,412196,0.0-7.15-1.15,na6pe9dth3h,2022-09-19 13:45:42.734,5a6600bd35f26b000149402e,0,100,51,51,25,27,Female,750.6000001431,,"
  <table>
  <tr height=300>
    <td width=300 height=300><img src=""static/images/cards/back_of_red_stars.svg"" width=""175px"" height=""250px""></img></td>
    <td width=300 height=300><img src=""static/images/cards/back_of_red_stars.svg"" width=""175px"" height=""250px""></img></td>
  </tr>
  <tr height=200>
    <td width=300><img src=""static/images/keys/z.svg"" width=""35%"" height=""75%""></img></td>
    <td width=300><img src=""static/images/keys/m.svg"" width=""35%"" height=""75%""></img></td>
  </tr>
</table>
  ",77.0,1.0,,,,,,,,,,,,,,,,,,,,,,,,,,
227,0,,html-keyboard-response,227,413698,0.0-7.15-2.15,na6pe9dth3h,2022-09-19 13:45:42.734,5a6600bd35f26b000149402e,0,100,51,51,25,27,Female,,,"
  <table>
  <tr height=300>
    <td width=300 height=300><img src=""static/images/cards/back_of_red_stars.svg"" width=""175px"" height=""250px""></img></td>
    <td width=300 height=300><img src=""static/images/cards/9_of_red_stars.svg"" width=""175px"" height=""250px""></img></td>
  </tr>
  <tr height=200>
    <td width=300><img src=""static/images/keys/z.svg"" width=""35%"" height=""75%""></img></td>
    <td width=300><img src=""static/images/keys/m.svg"" width=""35%"" height=""75%""></img></td>
  </tr>
</table>
  ",,,,,,,,,,,,,,,,,,,,,,,,,,,,
228,0,,html-keyboard-response,228,415221,0.0-7.15-3.15,na6pe9dth3h,2022-09-19 13:45:42.734,5a6600bd35f26b000149402e,0,100,51,51,25,27,Female,,,"<p style=""font-size:50px"">You win!
+10 points this round!</p>",,,,,,,,,,,,,,,,,,,,,,,,,,,,
229,0,,html-keyboard-response,229,415740,0.0-7.15-4.15,na6pe9dth3h,2022-09-19 13:45:42.734,5a6600bd35f26b000149402e,0,100,51,51,25,27,Female,,,,,,1.0,choice,15.0,A,C,red,red,stars,moons,A,C,A,red,stars,1157.0,1.0,1.0,NA,right,750.6000001431,9.0,1.0,1.0,,,
230,0,,html-keyboard-response,230,418509,0.0-7.16-0.16,na6pe9dth3h,2022-09-19 13:45:42.734,5a6600bd35f26b000149402e,0,100,51,51,25,27,Female,2767.7999999523,,"
  <table>
  <tr height=300>
    <td width=300 height=300><img src=""static/images/cards/stack_of_black_moons.svg"" width=""175px"" height=""250px""></img></td>
    <td width=300 height=300><img src=""static/images/cards/stack_of_red_moons.svg"" width=""175px"" height=""250px""></img></td>
  </tr>
  <tr height=200>
    <td width=300><img src=""static/images/keys/w.svg"" width=""35%"" height=""75%""></img></td>
    <td width=300><img src=""static/images/keys/o.svg"" width=""35%"" height=""75%""></img></td>
  </tr>
</table>
  ",79.0,1.0,,,,,,,,,,,,,,,,,,,,,,,,,,
231,0,,html-keyboard-response,231,420196,0.0-7.16-1.16,na6pe9dth3h,2022-09-19 13:45:42.734,5a6600bd35f26b000149402e,0,100,51,51,25,27,Female,1183.6000001431,,"
  <table>
  <tr height=300>
    <td width=300 height=300><img src=""static/images/cards/back_of_red_moons.svg"" width=""175px"" height=""250px""></img></td>
    <td width=300 height=300><img src=""static/images/cards/back_of_red_moons.svg"" width=""175px"" height=""250px""></img></td>
  </tr>
  <tr height=200>
