,index,success,trial_type,trial_index,time_elapsed,internal_node_id,subject,date,prol_id,ctbl,sense_of_control_A,sense_of_control_B,sense_of_control_C,sense_of_control_D,age,gender,rt,url,stimulus,key_press,npress,is_data_trial,phase,trial,deck1,deck2,col1,col2,sym1,sym2,deck_l,deck_r,chosen_deck,chosen_col,chosen_sym,deck_rt,choose_choice,mutual_info,hidden_key,chosen_card,card_rt,player_num,win_card,outcome,mock_rating,response,responses
0,0,1.0,fullscreen,0,2706,0.0-0.0,j1xgei5q8tr,2022-09-19 16:45:01.701,6012ed349807110d8eb941a6,0,61,45,47,25,36,Female,,,,,,,,,,,,,,,,,,,,,,,,,,,,,,,
1,0,,external-html,1,4491,0.0-1.0,j1xgei5q8tr,2022-09-19 16:45:01.701,6012ed349807110d8eb941a6,0,61,45,47,25,36,Female,1705.5,static/js/sub/consent.html,,,,,,,,,,,,,,,,,,,,,,,,,,,,,
2,0,,call-function,2,4491,0.0-2.0,j1xgei5q8tr,2022-09-19 16:45:01.701,6012ed349807110d8eb941a6,0,61,45,47,25,36,Female,,,,,,,,,,,,,,,,,,,,,,,,,,,,,,,
3,0,,image-keyboard-response,3,8433,0.0-3.0-0.0,j1xgei5q8tr,2022-09-19 16:45:01.701,6012ed349807110d8eb941a6,0,61,45,47,25,36,Female,3940.1000000238,,static/images/instructions_CB_0/Slide1.png,39.0,,,,,,,,,,,,,,,,,,,,,,,,,,,
4,0,,image-keyboard-response,4,15613,0.0-3.1-0.1,j1xgei5q8tr,2022-09-19 16:45:01.701,6012ed349807110d8eb941a6,0,61,45,47,25,36,Female,7177.0,,static/images/instructions_CB_0/Slide2.png,39.0,,,,,,,,,,,,,,,,,,,,,,,,,,,
5,0,,image-keyboard-response,5,23585,0.0-3.2-0.2,j1xgei5q8tr,2022-09-19 16:45:01.701,6012ed349807110d8eb941a6,0,61,45,47,25,36,Female,7970.9000000358,,static/images/instructions_CB_0/Slide3.png,39.0,,,,,,,,,,,,,,,,,,,,,,,,,,,
6,0,,image-keyboard-response,6,28183,0.0-3.3-0.3,j1xgei5q8tr,2022-09-19 16:45:01.701,6012ed349807110d8eb941a6,0,61,45,47,25,36,Female,4596.2999999523,,static/images/instructions_CB_0/Slide4.png,39.0,,,,,,,,,,,,,,,,,,,,,,,,,,,
7,0,,image-keyboard-response,7,32105,0.0-3.4-0.4,j1xgei5q8tr,2022-09-19 16:45:01.701,6012ed349807110d8eb941a6,0,61,45,47,25,36,Female,3920.0,,static/images/instructions_CB_0/Slide5.png,39.0,,,,,,,,,,,,,,,,,,,,,,,,,,,
8,0,,image-keyboard-response,8,33899,0.0-3.5-0.5,j1xgei5q8tr,2022-09-19 16:45:01.701,6012ed349807110d8eb941a6,0,61,45,47,25,36,Female,1792.6999999881,,static/images/instructions_CB_0/Slide6.png,39.0,,,,,,,,,,,,,,,,,,,,,,,,,,,
9,0,,image-keyboard-response,9,37044,0.0-3.6-0.6,j1xgei5q8tr,2022-09-19 16:45:01.701,6012ed349807110d8eb941a6,0,61,45,47,25,36,Female,3143.3999999762,,static/images/instructions_CB_0/Slide7.png,39.0,,,,,,,,,,,,,,,,,,,,,,,,,,,
10,0,,image-keyboard-response,10,49401,0.0-3.7-0.7,j1xgei5q8tr,2022-09-19 16:45:01.701,6012ed349807110d8eb941a6,0,61,45,47,25,36,Female,12354.3999999762,,static/images/instructions_CB_0/Slide8.png,39.0,,,,,,,,,,,,,,,,,,,,,,,,,,,
11,0,,image-keyboard-response,11,53968,0.0-3.8-0.8,j1xgei5q8tr,2022-09-19 16:45:01.701,6012ed349807110d8eb941a6,0,61,45,47,25,36,Female,4565.7999999523,,static/images/instructions_CB_0/Slide9.png,39.0,,,,,,,,,,,,,,,,,,,,,,,,,,,
12,0,,image-keyboard-response,12,63995,0.0-3.9-0.9,j1xgei5q8tr,2022-09-19 16:45:01.701,6012ed349807110d8eb941a6,0,61,45,47,25,36,Female,10024.8999999762,,static/images/instructions_CB_0/Slide10.png,39.0,,,,,,,,,,,,,,,,,,,,,,,,,,,
13,0,,image-keyboard-response,13,70682,0.0-3.10-0.10,j1xgei5q8tr,2022-09-19 16:45:01.701,6012ed349807110d8eb941a6,0,61,45,47,25,36,Female,6685.7000000477,,static/images/instructions_CB_0/Slide11.png,39.0,,,,,,,,,,,,,,,,,,,,,,,,,,,
14,0,,image-keyboard-response,14,92745,0.0-3.11-0.11,j1xgei5q8tr,2022-09-19 16:45:01.701,6012ed349807110d8eb941a6,0,61,45,47,25,36,Female,22060.5,,static/images/instructions_CB_0/Slide12.png,39.0,,,,,,,,,,,,,,,,,,,,,,,,,,,
15,0,,image-keyboard-response,15,99603,0.0-3.12-0.12,j1xgei5q8tr,2022-09-19 16:45:01.701,6012ed349807110d8eb941a6,0,61,45,47,25,36,Female,6856.8000000119,,static/images/instructions_CB_0/Slide13.png,39.0,,,,,,,,,,,,,,,,,,,,,,,,,,,
16,0,,image-keyboard-response,16,102916,0.0-3.13-0.13,j1xgei5q8tr,2022-09-19 16:45:01.701,6012ed349807110d8eb941a6,0,61,45,47,25,36,Female,3311.8000000119,,static/images/instructions_CB_0/Slide14.png,37.0,,,,,,,,,,,,,,,,,,,,,,,,,,,
17,0,,image-keyboard-response,17,112664,0.0-3.14-0.14,j1xgei5q8tr,2022-09-19 16:45:01.701,6012ed349807110d8eb941a6,0,61,45,47,25,36,Female,9746.8000000119,,static/images/instructions_CB_0/Slide13.png,39.0,,,,,,,,,,,,,,,,,,,,,,,,,,,
18,0,,image-keyboard-response,18,125124,0.0-3.15-0.15,j1xgei5q8tr,2022-09-19 16:45:01.701,6012ed349807110d8eb941a6,0,61,45,47,25,36,Female,12458.2000000477,,static/images/instructions_CB_0/Slide14.png,39.0,,,,,,,,,,,,,,,,,,,,,,,,,,,
19,0,,image-keyboard-response,19,130324,0.0-3.16-0.16,j1xgei5q8tr,2022-09-19 16:45:01.701,6012ed349807110d8eb941a6,0,61,45,47,25,36,Female,5197.6000000238,,static/images/instructions_CB_0/Slide15.png,39.0,,,,,,,,,,,,,,,,,,,,,,,,,,,
20,0,,image-keyboard-response,20,135416,0.0-3.17-0.17,j1xgei5q8tr,2022-09-19 16:45:01.701,6012ed349807110d8eb941a6,0,61,45,47,25,36,Female,5090.9000000358,,static/images/instructions_CB_0/Slide16.png,39.0,,,,,,,,,,,,,,,,,,,,,,,,,,,
21,0,,image-keyboard-response,21,145563,0.0-3.18-0.18,j1xgei5q8tr,2022-09-19 16:45:01.701,6012ed349807110d8eb941a6,0,61,45,47,25,36,Female,10145.4000000358,,static/images/instructions_CB_0/Slide17.png,39.0,,,,,,,,,,,,,,,,,,,,,,,,,,,
22,0,,image-keyboard-response,22,149368,0.0-3.19-0.19,j1xgei5q8tr,2022-09-19 16:45:01.701,6012ed349807110d8eb941a6,0,61,45,47,25,36,Female,3803.1999999881,,static/images/instructions_CB_0/Slide18.png,39.0,,,,,,,,,,,,,,,,,,,,,,,,,,,
23,0,,image-keyboard-response,23,158467,0.0-3.20-0.20,j1xgei5q8tr,2022-09-19 16:45:01.701,6012ed349807110d8eb941a6,0,61,45,47,25,36,Female,9097.4000000358,,static/images/instructions_CB_0/Slide19.png,39.0,,,,,,,,,,,,,,,,,,,,,,,,,,,
24,0,,html-keyboard-response,24,159981,0.0-4.0-0.0,j1xgei5q8tr,2022-09-19 16:45:01.701,6012ed349807110d8eb941a6,0,61,45,47,25,36,Female,,,"<img src=""static/images/cards/stack_of_red_stars.svg"" width=""175px"" height=""250px""></img>",,,,,,,,,,,,,,,,,,,,,,,,,,,,
25,0,,html-keyboard-response,25,162376,0.0-4.0-1.0,j1xgei5q8tr,2022-09-19 16:45:01.701,6012ed349807110d8eb941a6,0,61,45,47,25,36,Female,1886.2000000477,,"
  <table>
  <tr height=300>
    <td width=300 height=300><img src=""static/images/cards/back_of_red_stars.svg"" width=""175px"" height=""250px""></img></td>
    <td width=300 height=300><img src=""static/images/cards/back_of_red_stars.svg"" width=""175px"" height=""250px""></img></td>
  </tr>
  <tr height=200>
    <td width=300><img src=""static/images/keys/z.svg"" width=""35%"" height=""75%""></img></td>
    <td width=300><img src=""static/images/keys/m.svg"" width=""35%"" height=""75%""></img></td>
  </tr>
</table>
  ",90.0,1.0,,,,,,,,,,,,,,,,,,,,,,,,,,
26,0,,html-keyboard-response,26,163891,0.0-4.0-2.0,j1xgei5q8tr,2022-09-19 16:45:01.701,6012ed349807110d8eb941a6,0,61,45,47,25,36,Female,,,"
  <table>
  <tr height=300>
    <td width=300 height=300><img src=""static/images/cards/2_of_red_stars.svg"" width=""175px"" height=""250px""></img></td>
    <td width=300 height=300><img src=""static/images/cards/back_of_red_stars.svg"" width=""175px"" height=""250px""></img></td>
  </tr>
  <tr height=200>
    <td width=300><img src=""static/images/keys/z.svg"" width=""35%"" height=""75%""></img></td>
    <td width=300><img src=""static/images/keys/m.svg"" width=""35%"" height=""75%""></img></td>
  </tr>
</table>
  ",,,,,,,,,,,,,,,,,,,,,,,,,,,,
27,0,,html-keyboard-response,27,165409,0.0-4.0-3.0,j1xgei5q8tr,2022-09-19 16:45:01.701,6012ed349807110d8eb941a6,0,61,45,47,25,36,Female,,,"<p style=""font-size:50px"">You Lose!
No points this round.</p>",,,,,,,,,,,,,,,,,,,,,,,,,,,,
28,0,,html-keyboard-response,28,165920,0.0-4.0-4.0,j1xgei5q8tr,2022-09-19 16:45:01.701,6012ed349807110d8eb941a6,0,61,45,47,25,36,Female,,,,,,1.0,learning,0.0,A,,red,,stars,,,,A,red,stars,,1.0,1.0,NA,left,1886.2000000477,2.0,0.0,0.0,,,
29,0,,html-keyboard-response,29,167430,0.0-4.1-0.1,j1xgei5q8tr,2022-09-19 16:45:01.701,6012ed349807110d8eb941a6,0,61,45,47,25,36,Female,,,"<img src=""static/images/cards/stack_of_black_stars.svg"" width=""175px"" height=""250px""></img>",,,,,,,,,,,,,,,,,,,,,,,,,,,,
30,0,,html-keyboard-response,30,169734,0.0-4.1-1.1,j1xgei5q8tr,2022-09-19 16:45:01.701,6012ed349807110d8eb941a6,0,61,45,47,25,36,Female,1794.2000000477,,"
  <table>
  <tr height=300>
    <td width=300 height=300><img src=""static/images/cards/back_of_black_stars.svg"" width=""175px"" height=""250px""></img></td>
    <td width=300 height=300><img src=""static/images/cards/back_of_black_stars.svg"" width=""175px"" height=""250px""></img></td>
  </tr>
  <tr height=200>
    <td width=300><img src=""static/images/keys/z.svg"" width=""35%"" height=""75%""></img></td>
    <td width=300></td>
  </tr>
</table>
  ",90.0,1.0,,,,,,,,,,,,,,,,,,,,,,,,,,
31,0,,html-keyboard-response,31,171252,0.0-4.1-2.1,j1xgei5q8tr,2022-09-19 16:45:01.701,6012ed349807110d8eb941a6,0,61,45,47,25,36,Female,,,"
  <table>
  <tr height=300>
    <td width=300 height=300><img src=""static/images/cards/10_of_black_stars.svg"" width=""175px"" height=""250px""></img></td>
    <td width=300 height=300><img src=""static/images/cards/back_of_black_stars.svg"" width=""175px"" height=""250px""></img></td>
  </tr>
  <tr height=200>
    <td width=300><img src=""static/images/keys/z.svg"" width=""35%"" height=""75%""></img></td>
    <td width=300></td>
  </tr>
</table>
  ",,,,,,,,,,,,,,,,,,,,,,,,,,,,
32,0,,html-keyboard-response,32,172771,0.0-4.1-3.1,j1xgei5q8tr,2022-09-19 16:45:01.701,6012ed349807110d8eb941a6,0,61,45,47,25,36,Female,,,"<p style=""font-size:50px"">You win!
+10 points this round!</p>",,,,,,,,,,,,,,,,,,,,,,,,,,,,
33,0,,html-keyboard-response,33,173280,0.0-4.1-4.1,j1xgei5q8tr,2022-09-19 16:45:01.701,6012ed349807110d8eb941a6,0,61,45,47,25,36,Female,,,,,,1.0,learning,1.0,B,,black,,stars,,,,B,black,stars,,0.0,1.0,1,left,1794.2000000477,10.0,1.0,1.0,,,
34,0,,html-keyboard-response,34,174793,0.0-4.2-0.2,j1xgei5q8tr,2022-09-19 16:45:01.701,6012ed349807110d8eb941a6,0,61,45,47,25,36,Female,,,"<img src=""static/images/cards/stack_of_red_moons.svg"" width=""175px"" height=""250px""></img>",,,,,,,,,,,,,,,,,,,,,,,,,,,,
35,0,,html-keyboard-response,35,176712,0.0-4.2-1.2,j1xgei5q8tr,2022-09-19 16:45:01.701,6012ed349807110d8eb941a6,0,61,45,47,25,36,Female,1411.7999999523,,"
  <table>
  <tr height=300>
    <td width=300 height=300><img src=""static/images/cards/back_of_red_moons.svg"" width=""175px"" height=""250px""></img></td>
    <td width=300 height=300><img src=""static/images/cards/back_of_red_moons.svg"" width=""175px"" height=""250px""></img></td>
  </tr>
  <tr height=200>
    <td width=300><img src=""static/images/keys/z.svg"" width=""35%"" height=""75%""></img></td>
    <td width=300><img src=""static/images/keys/m.svg"" width=""35%"" height=""75%""></img></td>
  </tr>
</table>
  ",90.0,1.0,,,,,,,,,,,,,,,,,,,,,,,,,,
36,0,,html-keyboard-response,36,178227,0.0-4.2-2.2,j1xgei5q8tr,2022-09-19 16:45:01.701,6012ed349807110d8eb941a6,0,61,45,47,25,36,Female,,,"
  <table>
  <tr height=300>
    <td width=300 height=300><img src=""static/images/cards/3_of_red_moons.svg"" width=""175px"" height=""250px""></img></td>
    <td width=300 height=300><img src=""static/images/cards/back_of_red_moons.svg"" width=""175px"" height=""250px""></img></td>
  </tr>
  <tr height=200>
    <td width=300><img src=""static/images/keys/z.svg"" width=""35%"" height=""75%""></img></td>
    <td width=300><img src=""static/images/keys/m.svg"" width=""35%"" height=""75%""></img></td>
  </tr>
</table>
  ",,,,,,,,,,,,,,,,,,,,,,,,,,,,
37,0,,html-keyboard-response,37,179746,0.0-4.2-3.2,j1xgei5q8tr,2022-09-19 16:45:01.701,6012ed349807110d8eb941a6,0,61,45,47,25,36,Female,,,"<p style=""font-size:50px"">You win!
+10 points this round!</p>",,,,,,,,,,,,,,,,,,,,,,,,,,,,
38,0,,html-keyboard-response,38,180258,0.0-4.2-4.2,j1xgei5q8tr,2022-09-19 16:45:01.701,6012ed349807110d8eb941a6,0,61,45,47,25,36,Female,,,,,,1.0,learning,2.0,C,,red,,moons,,,,C,red,moons,,1.0,0.0,NA,left,1411.7999999523,3.0,0.0,1.0,,,
39,0,,html-keyboard-response,39,181771,0.0-4.3-0.3,j1xgei5q8tr,2022-09-19 16:45:01.701,6012ed349807110d8eb941a6,0,61,45,47,25,36,Female,,,"<img src=""static/images/cards/stack_of_black_moons.svg"" width=""175px"" height=""250px""></img>",,,,,,,,,,,,,,,,,,,,,,,,,,,,
40,0,,html-keyboard-response,40,183308,0.0-4.3-1.3,j1xgei5q8tr,2022-09-19 16:45:01.701,6012ed349807110d8eb941a6,0,61,45,47,25,36,Female,1029.5999999642,,"
  <table>
  <tr height=300>
    <td width=300 height=300><img src=""static/images/cards/back_of_black_moons.svg"" width=""175px"" height=""250px""></img></td>
    <td width=300 height=300><img src=""static/images/cards/back_of_black_moons.svg"" width=""175px"" height=""250px""></img></td>
  </tr>
  <tr height=200>
    <td width=300><img src=""static/images/keys/z.svg"" width=""35%"" height=""75%""></img></td>
    <td width=300></td>
  </tr>
</table>
  ",90.0,1.0,,,,,,,,,,,,,,,,,,,,,,,,,,
41,0,,html-keyboard-response,41,184823,0.0-4.3-2.3,j1xgei5q8tr,2022-09-19 16:45:01.701,6012ed349807110d8eb941a6,0,61,45,47,25,36,Female,,,"
  <table>
  <tr height=300>
    <td width=300 height=300><img src=""static/images/cards/7_of_black_moons.svg"" width=""175px"" height=""250px""></img></td>
    <td width=300 height=300><img src=""static/images/cards/back_of_black_moons.svg"" width=""175px"" height=""250px""></img></td>
  </tr>
  <tr height=200>
    <td width=300><img src=""static/images/keys/z.svg"" width=""35%"" height=""75%""></img></td>
    <td width=300></td>
  </tr>
</table>
  ",,,,,,,,,,,,,,,,,,,,,,,,,,,,
42,0,,html-keyboard-response,42,186342,0.0-4.3-3.3,j1xgei5q8tr,2022-09-19 16:45:01.701,6012ed349807110d8eb941a6,0,61,45,47,25,36,Female,,,"<p style=""font-size:50px"">You Lose!
No points this round.</p>",,,,,,,,,,,,,,,,,,,,,,,,,,,,
43,0,,html-keyboard-response,43,186852,0.0-4.3-4.3,j1xgei5q8tr,2022-09-19 16:45:01.701,6012ed349807110d8eb941a6,0,61,45,47,25,36,Female,,,,,,1.0,learning,3.0,D,,black,,moons,,,,D,black,moons,,0.0,0.0,1,left,1029.5999999642,7.0,1.0,0.0,,,
44,0,,html-keyboard-response,44,188368,0.0-4.4-0.4,j1xgei5q8tr,2022-09-19 16:45:01.701,6012ed349807110d8eb941a6,0,61,45,47,25,36,Female,,,"<img src=""static/images/cards/stack_of_red_bolts.svg"" width=""175px"" height=""250px""></img>",,,,,,,,,,,,,,,,,,,,,,,,,,,,
45,0,,html-keyboard-response,45,189673,0.0-4.4-1.4,j1xgei5q8tr,2022-09-19 16:45:01.701,6012ed349807110d8eb941a6,0,61,45,47,25,36,Female,796.6999999881,,"
  <table>
  <tr height=300>
    <td width=300 height=300><img src=""static/images/cards/back_of_red_bolts.svg"" width=""175px"" height=""250px""></img></td>
    <td width=300 height=300><img src=""static/images/cards/back_of_red_bolts.svg"" width=""175px"" height=""250px""></img></td>
  </tr>
  <tr height=200>
    <td width=300><img src=""static/images/keys/z.svg"" width=""35%"" height=""75%""></img></td>
    <td width=300><img src=""static/images/keys/m.svg"" width=""35%"" height=""75%""></img></td>
  </tr>
</table>
  ",77.0,1.0,,,,,,,,,,,,,,,,,,,,,,,,,,
46,0,,html-keyboard-response,46,191188,0.0-4.4-2.4,j1xgei5q8tr,2022-09-19 16:45:01.701,6012ed349807110d8eb941a6,0,61,45,47,25,36,Female,,,"
  <table>
  <tr height=300>
    <td width=300 height=300><img src=""static/images/cards/back_of_red_bolts.svg"" width=""175px"" height=""250px""></img></td>
    <td width=300 height=300><img src=""static/images/cards/7_of_red_bolts.svg"" width=""175px"" height=""250px""></img></td>
  </tr>
  <tr height=200>
    <td width=300><img src=""static/images/keys/z.svg"" width=""35%"" height=""75%""></img></td>
    <td width=300><img src=""static/images/keys/m.svg"" width=""35%"" height=""75%""></img></td>
  </tr>
</table>
  ",,,,,,,,,,,,,,,,,,,,,,,,,,,,
47,0,,html-keyboard-response,47,192705,0.0-4.4-3.4,j1xgei5q8tr,2022-09-19 16:45:01.701,6012ed349807110d8eb941a6,0,61,45,47,25,36,Female,,,"<p style=""font-size:50px"">You win!
+10 points this round!</p>",,,,,,,,,,,,,,,,,,,,,,,,,,,,
48,0,,html-keyboard-response,48,193215,0.0-4.4-4.4,j1xgei5q8tr,2022-09-19 16:45:01.701,6012ed349807110d8eb941a6,0,61,45,47,25,36,Female,,,,,,1.0,learning,4.0,Xc,,red,,bolts,,,,Xc,red,bolts,,1.0,0.0,NA,right,796.6999999881,7.0,1.0,1.0,,,
49,0,,html-keyboard-response,49,194729,0.0-4.5-0.5,j1xgei5q8tr,2022-09-19 16:45:01.701,6012ed349807110d8eb941a6,0,61,45,47,25,36,Female,,,"<img src=""static/images/cards/stack_of_black_bolts.svg"" width=""175px"" height=""250px""></img>",,,,,,,,,,,,,,,,,,,,,,,,,,,,
50,0,,html-keyboard-response,50,196159,0.0-4.5-1.5,j1xgei5q8tr,2022-09-19 16:45:01.701,6012ed349807110d8eb941a6,0,61,45,47,25,36,Female,920.5999999642,,"
  <table>
  <tr height=300>
    <td width=300 height=300><img src=""static/images/cards/back_of_black_bolts.svg"" width=""175px"" height=""250px""></img></td>
    <td width=300 height=300><img src=""static/images/cards/back_of_black_bolts.svg"" width=""175px"" height=""250px""></img></td>
  </tr>
  <tr height=200>
    <td width=300><img src=""static/images/keys/z.svg"" width=""35%"" height=""75%""></img></td>
    <td width=300></td>
  </tr>
</table>
  ",90.0,1.0,,,,,,,,,,,,,,,,,,,,,,,,,,
51,0,,html-keyboard-response,51,197674,0.0-4.5-2.5,j1xgei5q8tr,2022-09-19 16:45:01.701,6012ed349807110d8eb941a6,0,61,45,47,25,36,Female,,,"
  <table>
  <tr height=300>
    <td width=300 height=300><img src=""static/images/cards/7_of_black_bolts.svg"" width=""175px"" height=""250px""></img></td>
    <td width=300 height=300><img src=""static/images/cards/back_of_black_bolts.svg"" width=""175px"" height=""250px""></img></td>
  </tr>
  <tr height=200>
    <td width=300><img src=""static/images/keys/z.svg"" width=""35%"" height=""75%""></img></td>
    <td width=300></td>
  </tr>
</table>
  ",,,,,,,,,,,,,,,,,,,,,,,,,,,,
52,0,,html-keyboard-response,52,199192,0.0-4.5-3.5,j1xgei5q8tr,2022-09-19 16:45:01.701,6012ed349807110d8eb941a6,0,61,45,47,25,36,Female,,,"<p style=""font-size:50px"">You win!
+10 points this round!</p>",,,,,,,,,,,,,,,,,,,,,,,,,,,,
53,0,,html-keyboard-response,53,199703,0.0-4.5-4.5,j1xgei5q8tr,2022-09-19 16:45:01.701,6012ed349807110d8eb941a6,0,61,45,47,25,36,Female,,,,,,1.0,learning,5.0,Xnc,,black,,bolts,,,,Xnc,black,bolts,,0.0,0.0,1,left,920.5999999642,7.0,1.0,1.0,,,
54,0,,html-keyboard-response,54,201205,0.0-4.6-0.6,j1xgei5q8tr,2022-09-19 16:45:01.701,6012ed349807110d8eb941a6,0,61,45,47,25,36,Female,,,"<img src=""static/images/cards/stack_of_red_stars.svg"" width=""175px"" height=""250px""></img>",,,,,,,,,,,,,,,,,,,,,,,,,,,,
55,0,,html-keyboard-response,55,202548,0.0-4.6-1.6,j1xgei5q8tr,2022-09-19 16:45:01.701,6012ed349807110d8eb941a6,0,61,45,47,25,36,Female,825.8999999762,,"
  <table>
  <tr height=300>
    <td width=300 height=300><img src=""static/images/cards/back_of_red_stars.svg"" width=""175px"" height=""250px""></img></td>
    <td width=300 height=300><img src=""static/images/cards/back_of_red_stars.svg"" width=""175px"" height=""250px""></img></td>
  </tr>
  <tr height=200>
    <td width=300><img src=""static/images/keys/z.svg"" width=""35%"" height=""75%""></img></td>
    <td width=300><img src=""static/images/keys/m.svg"" width=""35%"" height=""75%""></img></td>
  </tr>
</table>
  ",77.0,1.0,,,,,,,,,,,,,,,,,,,,,,,,,,
56,0,,html-keyboard-response,56,204051,0.0-4.6-2.6,j1xgei5q8tr,2022-09-19 16:45:01.701,6012ed349807110d8eb941a6,0,61,45,47,25,36,Female,,,"
  <table>
  <tr height=300>
    <td width=300 height=300><img src=""static/images/cards/back_of_red_stars.svg"" width=""175px"" height=""250px""></img></td>
    <td width=300 height=300><img src=""static/images/cards/6_of_red_stars.svg"" width=""175px"" height=""250px""></img></td>
  </tr>
  <tr height=200>
    <td width=300><img src=""static/images/keys/z.svg"" width=""35%"" height=""75%""></img></td>
    <td width=300><img src=""static/images/keys/m.svg"" width=""35%"" height=""75%""></img></td>
  </tr>
</table>
  ",,,,,,,,,,,,,,,,,,,,,,,,,,,,
57,0,,html-keyboard-response,57,205572,0.0-4.6-3.6,j1xgei5q8tr,2022-09-19 16:45:01.701,6012ed349807110d8eb941a6,0,61,45,47,25,36,Female,,,"<p style=""font-size:50px"">You win!
+10 points this round!</p>",,,,,,,,,,,,,,,,,,,,,,,,,,,,
58,0,,html-keyboard-response,58,206082,0.0-4.6-4.6,j1xgei5q8tr,2022-09-19 16:45:01.701,6012ed349807110d8eb941a6,0,61,45,47,25,36,Female,,,,,,1.0,learning,6.0,A,,red,,stars,,,,A,red,stars,,1.0,1.0,NA,right,825.8999999762,6.0,1.0,1.0,,,
59,0,,html-keyboard-response,59,207593,0.0-4.7-0.7,j1xgei5q8tr,2022-09-19 16:45:01.701,6012ed349807110d8eb941a6,0,61,45,47,25,36,Female,,,"<img src=""static/images/cards/stack_of_black_stars.svg"" width=""175px"" height=""250px""></img>",,,,,,,,,,,,,,,,,,,,,,,,,,,,
60,0,,html-keyboard-response,60,209083,0.0-4.7-1.7,j1xgei5q8tr,2022-09-19 16:45:01.701,6012ed349807110d8eb941a6,0,61,45,47,25,36,Female,981.8000000119,,"
  <table>
  <tr height=300>
    <td width=300 height=300><img src=""static/images/cards/back_of_black_stars.svg"" width=""175px"" height=""250px""></img></td>
    <td width=300 height=300><img src=""static/images/cards/back_of_black_stars.svg"" width=""175px"" height=""250px""></img></td>
  </tr>
  <tr height=200>
    <td width=300></td>
    <td width=300><img src=""static/images/keys/m.svg"" width=""35%"" height=""75%""></img></td>
  </tr>
</table>
  ",77.0,1.0,,,,,,,,,,,,,,,,,,,,,,,,,,
61,0,,html-keyboard-response,61,210597,0.0-4.7-2.7,j1xgei5q8tr,2022-09-19 16:45:01.701,6012ed349807110d8eb941a6,0,61,45,47,25,36,Female,,,"
  <table>
  <tr height=300>
    <td width=300 height=300><img src=""static/images/cards/back_of_black_stars.svg"" width=""175px"" height=""250px""></img></td>
    <td width=300 height=300><img src=""static/images/cards/1_of_black_stars.svg"" width=""175px"" height=""250px""></img></td>
  </tr>
  <tr height=200>
    <td width=300></td>
    <td width=300><img src=""static/images/keys/m.svg"" width=""35%"" height=""75%""></img></td>
  </tr>
</table>
  ",,,,,,,,,,,,,,,,,,,,,,,,,,,,
62,0,,html-keyboard-response,62,212115,0.0-4.7-3.7,j1xgei5q8tr,2022-09-19 16:45:01.701,6012ed349807110d8eb941a6,0,61,45,47,25,36,Female,,,"<p style=""font-size:50px"">You Lose!
No points this round.</p>",,,,,,,,,,,,,,,,,,,,,,,,,,,,
63,0,,html-keyboard-response,63,212626,0.0-4.7-4.7,j1xgei5q8tr,2022-09-19 16:45:01.701,6012ed349807110d8eb941a6,0,61,45,47,25,36,Female,,,,,,1.0,learning,7.0,B,,black,,stars,,,,B,black,stars,,0.0,1.0,0,right,981.8000000119,1.0,0.0,0.0,,,
64,0,,html-keyboard-response,64,214139,0.0-4.8-0.8,j1xgei5q8tr,2022-09-19 16:45:01.701,6012ed349807110d8eb941a6,0,61,45,47,25,36,Female,,,"<img src=""static/images/cards/stack_of_red_moons.svg"" width=""175px"" height=""250px""></img>",,,,,,,,,,,,,,,,,,,,,,,,,,,,
65,0,,html-keyboard-response,65,215981,0.0-4.8-1.8,j1xgei5q8tr,2022-09-19 16:45:01.701,6012ed349807110d8eb941a6,0,61,45,47,25,36,Female,1334.4000000358,,"
  <table>
  <tr height=300>
    <td width=300 height=300><img src=""static/images/cards/back_of_red_moons.svg"" width=""175px"" height=""250px""></img></td>
    <td width=300 height=300><img src=""static/images/cards/back_of_red_moons.svg"" width=""175px"" height=""250px""></img></td>
  </tr>
  <tr height=200>
    <td width=300><img src=""static/images/keys/z.svg"" width=""35%"" height=""75%""></img></td>
    <td width=300><img src=""static/images/keys/m.svg"" width=""35%"" height=""75%""></img></td>
  </tr>
</table>
  ",77.0,1.0,,,,,,,,,,,,,,,,,,,,,,,,,,
66,0,,html-keyboard-response,66,217497,0.0-4.8-2.8,j1xgei5q8tr,2022-09-19 16:45:01.701,6012ed349807110d8eb941a6,0,61,45,47,25,36,Female,,,"
  <table>
  <tr height=300>
    <td width=300 height=300><img src=""static/images/cards/back_of_red_moons.svg"" width=""175px"" height=""250px""></img></td>
    <td width=300 height=300><img src=""static/images/cards/10_of_red_moons.svg"" width=""175px"" height=""250px""></img></td>
  </tr>
  <tr height=200>
    <td width=300><img src=""static/images/keys/z.svg"" width=""35%"" height=""75%""></img></td>
    <td width=300><img src=""static/images/keys/m.svg"" width=""35%"" height=""75%""></img></td>
  </tr>
</table>
  ",,,,,,,,,,,,,,,,,,,,,,,,,,,,
67,0,,html-keyboard-response,67,219019,0.0-4.8-3.8,j1xgei5q8tr,2022-09-19 16:45:01.701,6012ed349807110d8eb941a6,0,61,45,47,25,36,Female,,,"<p style=""font-size:50px"">You win!
+10 points this round!</p>",,,,,,,,,,,,,,,,,,,,,,,,,,,,
68,0,,html-keyboard-response,68,219529,0.0-4.8-4.8,j1xgei5q8tr,2022-09-19 16:45:01.701,6012ed349807110d8eb941a6,0,61,45,47,25,36,Female,,,,,,1.0,learning,8.0,C,,red,,moons,,,,C,red,moons,,1.0,0.0,NA,right,1334.4000000358,10.0,1.0,1.0,,,
69,0,,html-keyboard-response,69,221042,0.0-4.9-0.9,j1xgei5q8tr,2022-09-19 16:45:01.701,6012ed349807110d8eb941a6,0,61,45,47,25,36,Female,,,"<img src=""static/images/cards/stack_of_black_moons.svg"" width=""175px"" height=""250px""></img>",,,,,,,,,,,,,,,,,,,,,,,,,,,,
70,0,,html-keyboard-response,70,222379,0.0-4.9-1.9,j1xgei5q8tr,2022-09-19 16:45:01.701,6012ed349807110d8eb941a6,0,61,45,47,25,36,Female,828.0,,"
  <table>
  <tr height=300>
    <td width=300 height=300><img src=""static/images/cards/back_of_black_moons.svg"" width=""175px"" height=""250px""></img></td>
    <td width=300 height=300><img src=""static/images/cards/back_of_black_moons.svg"" width=""175px"" height=""250px""></img></td>
  </tr>
  <tr height=200>
    <td width=300></td>
    <td width=300><img src=""static/images/keys/m.svg"" width=""35%"" height=""75%""></img></td>
  </tr>
</table>
  ",77.0,1.0,,,,,,,,,,,,,,,,,,,,,,,,,,
71,0,,html-keyboard-response,71,223894,0.0-4.9-2.9,j1xgei5q8tr,2022-09-19 16:45:01.701,6012ed349807110d8eb941a6,0,61,45,47,25,36,Female,,,"
  <table>
  <tr height=300>
    <td width=300 height=300><img src=""static/images/cards/back_of_black_moons.svg"" width=""175px"" height=""250px""></img></td>
    <td width=300 height=300><img src=""static/images/cards/8_of_black_moons.svg"" width=""175px"" height=""250px""></img></td>
  </tr>
  <tr height=200>
    <td width=300></td>
    <td width=300><img src=""static/images/keys/m.svg"" width=""35%"" height=""75%""></img></td>
  </tr>
</table>
  ",,,,,,,,,,,,,,,,,,,,,,,,,,,,
72,0,,html-keyboard-response,72,225415,0.0-4.9-3.9,j1xgei5q8tr,2022-09-19 16:45:01.701,6012ed349807110d8eb941a6,0,61,45,47,25,36,Female,,,"<p style=""font-size:50px"">You win!
+10 points this round!</p>",,,,,,,,,,,,,,,,,,,,,,,,,,,,
73,0,,html-keyboard-response,73,225926,0.0-4.9-4.9,j1xgei5q8tr,2022-09-19 16:45:01.701,6012ed349807110d8eb941a6,0,61,45,47,25,36,Female,,,,,,1.0,learning,9.0,D,,black,,moons,,,,D,black,moons,,0.0,0.0,0,right,828.0,8.0,1.0,1.0,,,
74,0,,html-keyboard-response,74,227439,0.0-4.10-0.10,j1xgei5q8tr,2022-09-19 16:45:01.701,6012ed349807110d8eb941a6,0,61,45,47,25,36,Female,,,"<img src=""static/images/cards/stack_of_red_bolts.svg"" width=""175px"" height=""250px""></img>",,,,,,,,,,,,,,,,,,,,,,,,,,,,
75,0,,html-keyboard-response,75,229080,0.0-4.10-1.10,j1xgei5q8tr,2022-09-19 16:45:01.701,6012ed349807110d8eb941a6,0,61,45,47,25,36,Female,1133.1000000238,,"
  <table>
  <tr height=300>
    <td width=300 height=300><img src=""static/images/cards/back_of_red_bolts.svg"" width=""175px"" height=""250px""></img></td>
    <td width=300 height=300><img src=""static/images/cards/back_of_red_bolts.svg"" width=""175px"" height=""250px""></img></td>
  </tr>
  <tr height=200>
    <td width=300><img src=""static/images/keys/z.svg"" width=""35%"" height=""75%""></img></td>
    <td width=300><img src=""static/images/keys/m.svg"" width=""35%"" height=""75%""></img></td>
  </tr>
</table>
  ",77.0,1.0,,,,,,,,,,,,,,,,,,,,,,,,,,
76,0,,html-keyboard-response,76,230595,0.0-4.10-2.10,j1xgei5q8tr,2022-09-19 16:45:01.701,6012ed349807110d8eb941a6,0,61,45,47,25,36,Female,,,"
  <table>
  <tr height=300>
    <td width=300 height=300><img src=""static/images/cards/back_of_red_bolts.svg"" width=""175px"" height=""250px""></img></td>
    <td width=300 height=300><img src=""static/images/cards/4_of_red_bolts.svg"" width=""175px"" height=""250px""></img></td>
  </tr>
  <tr height=200>
    <td width=300><img src=""static/images/keys/z.svg"" width=""35%"" height=""75%""></img></td>
    <td width=300><img src=""static/images/keys/m.svg"" width=""35%"" height=""75%""></img></td>
  </tr>
</table>
  ",,,,,,,,,,,,,,,,,,,,,,,,,,,,
77,0,,html-keyboard-response,77,232111,0.0-4.10-3.10,j1xgei5q8tr,2022-09-19 16:45:01.701,6012ed349807110d8eb941a6,0,61,45,47,25,36,Female,,,"<p style=""font-size:50px"">You win!
+10 points this round!</p>",,,,,,,,,,,,,,,,,,,,,,,,,,,,
78,0,,html-keyboard-response,78,232622,0.0-4.10-4.10,j1xgei5q8tr,2022-09-19 16:45:01.701,6012ed349807110d8eb941a6,0,61,45,47,25,36,Female,,,,,,1.0,learning,10.0,Xc,,red,,bolts,,,,Xc,red,bolts,,1.0,0.0,NA,right,1133.1000000238,4.0,0.0,1.0,,,
79,0,,html-keyboard-response,79,234134,0.0-4.11-0.11,j1xgei5q8tr,2022-09-19 16:45:01.701,6012ed349807110d8eb941a6,0,61,45,47,25,36,Female,,,"<img src=""static/images/cards/stack_of_black_bolts.svg"" width=""175px"" height=""250px""></img>",,,,,,,,,,,,,,,,,,,,,,,,,,,,
80,0,,html-keyboard-response,80,235593,0.0-4.11-1.11,j1xgei5q8tr,2022-09-19 16:45:01.701,6012ed349807110d8eb941a6,0,61,45,47,25,36,Female,951.6999999881,,"
  <table>
  <tr height=300>
    <td width=300 height=300><img src=""static/images/cards/back_of_black_bolts.svg"" width=""175px"" height=""250px""></img></td>
    <td width=300 height=300><img src=""static/images/cards/back_of_black_bolts.svg"" width=""175px"" height=""250px""></img></td>
  </tr>
  <tr height=200>
    <td width=300><img src=""static/images/keys/z.svg"" width=""35%"" height=""75%""></img></td>
    <td width=300></td>
  </tr>
</table>
  ",90.0,1.0,,,,,,,,,,,,,,,,,,,,,,,,,,
81,0,,html-keyboard-response,81,237110,0.0-4.11-2.11,j1xgei5q8tr,2022-09-19 16:45:01.701,6012ed349807110d8eb941a6,0,61,45,47,25,36,Female,,,"
  <table>
  <tr height=300>
    <td width=300 height=300><img src=""static/images/cards/8_of_black_bolts.svg"" width=""175px"" height=""250px""></img></td>
    <td width=300 height=300><img src=""static/images/cards/back_of_black_bolts.svg"" width=""175px"" height=""250px""></img></td>
  </tr>
  <tr height=200>
    <td width=300><img src=""static/images/keys/z.svg"" width=""35%"" height=""75%""></img></td>
    <td width=300></td>
  </tr>
</table>
  ",,,,,,,,,,,,,,,,,,,,,,,,,,,,
82,0,,html-keyboard-response,82,238628,0.0-4.11-3.11,j1xgei5q8tr,2022-09-19 16:45:01.701,6012ed349807110d8eb941a6,0,61,45,47,25,36,Female,,,"<p style=""font-size:50px"">You win!
+10 points this round!</p>",,,,,,,,,,,,,,,,,,,,,,,,,,,,
83,0,,html-keyboard-response,83,239139,0.0-4.11-4.11,j1xgei5q8tr,2022-09-19 16:45:01.701,6012ed349807110d8eb941a6,0,61,45,47,25,36,Female,,,,,,1.0,learning,11.0,Xnc,,black,,bolts,,,,Xnc,black,bolts,,0.0,0.0,1,left,951.6999999881,8.0,1.0,1.0,,,
84,0,,html-keyboard-response,84,240653,0.0-4.12-0.12,j1xgei5q8tr,2022-09-19 16:45:01.701,6012ed349807110d8eb941a6,0,61,45,47,25,36,Female,,,"<img src=""static/images/cards/stack_of_red_stars.svg"" width=""175px"" height=""250px""></img>",,,,,,,,,,,,,,,,,,,,,,,,,,,,
85,0,,html-keyboard-response,85,242524,0.0-4.12-1.12,j1xgei5q8tr,2022-09-19 16:45:01.701,6012ed349807110d8eb941a6,0,61,45,47,25,36,Female,1364.5,,"
  <table>
  <tr height=300>
    <td width=300 height=300><img src=""static/images/cards/back_of_red_stars.svg"" width=""175px"" height=""250px""></img></td>
    <td width=300 height=300><img src=""static/images/cards/back_of_red_stars.svg"" width=""175px"" height=""250px""></img></td>
  </tr>
  <tr height=200>
    <td width=300><img src=""static/images/keys/z.svg"" width=""35%"" height=""75%""></img></td>
    <td width=300><img src=""static/images/keys/m.svg"" width=""35%"" height=""75%""></img></td>
  </tr>
</table>
  ",77.0,1.0,,,,,,,,,,,,,,,,,,,,,,,,,,
86,0,,html-keyboard-response,86,244038,0.0-4.12-2.12,j1xgei5q8tr,2022-09-19 16:45:01.701,6012ed349807110d8eb941a6,0,61,45,47,25,36,Female,,,"
  <table>
  <tr height=300>
    <td width=300 height=300><img src=""static/images/cards/back_of_red_stars.svg"" width=""175px"" height=""250px""></img></td>
    <td width=300 height=300><img src=""static/images/cards/7_of_red_stars.svg"" width=""175px"" height=""250px""></img></td>
  </tr>
  <tr height=200>
    <td width=300><img src=""static/images/keys/z.svg"" width=""35%"" height=""75%""></img></td>
    <td width=300><img src=""static/images/keys/m.svg"" width=""35%"" height=""75%""></img></td>
  </tr>
</table>
  ",,,,,,,,,,,,,,,,,,,,,,,,,,,,
87,0,,html-keyboard-response,87,245552,0.0-4.12-3.12,j1xgei5q8tr,2022-09-19 16:45:01.701,6012ed349807110d8eb941a6,0,61,45,47,25,36,Female,,,"<p style=""font-size:50px"">You win!
+10 points this round!</p>",,,,,,,,,,,,,,,,,,,,,,,,,,,,
88,0,,html-keyboard-response,88,246062,0.0-4.12-4.12,j1xgei5q8tr,2022-09-19 16:45:01.701,6012ed349807110d8eb941a6,0,61,45,47,25,36,Female,,,,,,1.0,learning,12.0,A,,red,,stars,,,,A,red,stars,,1.0,1.0,NA,right,1364.5,7.0,1.0,1.0,,,
89,0,,html-keyboard-response,89,247575,0.0-4.13-0.13,j1xgei5q8tr,2022-09-19 16:45:01.701,6012ed349807110d8eb941a6,0,61,45,47,25,36,Female,,,"<img src=""static/images/cards/stack_of_black_stars.svg"" width=""175px"" height=""250px""></img>",,,,,,,,,,,,,,,,,,,,,,,,,,,,
90,0,,html-keyboard-response,90,248810,0.0-4.13-1.13,j1xgei5q8tr,2022-09-19 16:45:01.701,6012ed349807110d8eb941a6,0,61,45,47,25,36,Female,726.3000000119,,"
  <table>
  <tr height=300>
    <td width=300 height=300><img src=""static/images/cards/back_of_black_stars.svg"" width=""175px"" height=""250px""></img></td>
    <td width=300 height=300><img src=""static/images/cards/back_of_black_stars.svg"" width=""175px"" height=""250px""></img></td>
  </tr>
  <tr height=200>
    <td width=300></td>
    <td width=300><img src=""static/images/keys/m.svg"" width=""35%"" height=""75%""></img></td>
  </tr>
</table>
  ",77.0,1.0,,,,,,,,,,,,,,,,,,,,,,,,,,
91,0,,html-keyboard-response,91,250324,0.0-4.13-2.13,j1xgei5q8tr,2022-09-19 16:45:01.701,6012ed349807110d8eb941a6,0,61,45,47,25,36,Female,,,"
  <table>
  <tr height=300>
    <td width=300 height=300><img src=""static/images/cards/back_of_black_stars.svg"" width=""175px"" height=""250px""></img></td>
    <td width=300 height=300><img src=""static/images/cards/4_of_black_stars.svg"" width=""175px"" height=""250px""></img></td>
  </tr>
  <tr height=200>
    <td width=300></td>
    <td width=300><img src=""static/images/keys/m.svg"" width=""35%"" height=""75%""></img></td>
  </tr>
</table>
  ",,,,,,,,,,,,,,,,,,,,,,,,,,,,
92,0,,html-keyboard-response,92,251841,0.0-4.13-3.13,j1xgei5q8tr,2022-09-19 16:45:01.701,6012ed349807110d8eb941a6,0,61,45,47,25,36,Female,,,"<p style=""font-size:50px"">You Lose!
No points this round.</p>",,,,,,,,,,,,,,,,,,,,,,,,,,,,
93,0,,html-keyboard-response,93,252352,0.0-4.13-4.13,j1xgei5q8tr,2022-09-19 16:45:01.701,6012ed349807110d8eb941a6,0,61,45,47,25,36,Female,,,,,,1.0,learning,13.0,B,,black,,stars,,,,B,black,stars,,0.0,1.0,0,right,726.3000000119,4.0,0.0,0.0,,,
94,0,,html-keyboard-response,94,253866,0.0-4.14-0.14,j1xgei5q8tr,2022-09-19 16:45:01.701,6012ed349807110d8eb941a6,0,61,45,47,25,36,Female,,,"<img src=""static/images/cards/stack_of_red_moons.svg"" width=""175px"" height=""250px""></img>",,,,,,,,,,,,,,,,,,,,,,,,,,,,
95,0,,html-keyboard-response,95,255645,0.0-4.14-1.14,j1xgei5q8tr,2022-09-19 16:45:01.701,6012ed349807110d8eb941a6,0,61,45,47,25,36,Female,1272.3999999762,,"
  <table>
  <tr height=300>
    <td width=300 height=300><img src=""static/images/cards/back_of_red_moons.svg"" width=""175px"" height=""250px""></img></td>
    <td width=300 height=300><img src=""static/images/cards/back_of_red_moons.svg"" width=""175px"" height=""250px""></img></td>
  </tr>
  <tr height=200>
    <td width=300><img src=""static/images/keys/z.svg"" width=""35%"" height=""75%""></img></td>
    <td width=300><img src=""static/images/keys/m.svg"" width=""35%"" height=""75%""></img></td>
  </tr>
</table>
  ",90.0,1.0,,,,,,,,,,,,,,,,,,,,,,,,,,
96,0,,html-keyboard-response,96,257147,0.0-4.14-2.14,j1xgei5q8tr,2022-09-19 16:45:01.701,6012ed349807110d8eb941a6,0,61,45,47,25,36,Female,,,"
  <table>
  <tr height=300>
    <td width=300 height=300><img src=""static/images/cards/6_of_red_moons.svg"" width=""175px"" height=""250px""></img></td>
    <td width=300 height=300><img src=""static/images/cards/back_of_red_moons.svg"" width=""175px"" height=""250px""></img></td>
  </tr>
  <tr height=200>
    <td width=300><img src=""static/images/keys/z.svg"" width=""35%"" height=""75%""></img></td>
    <td width=300><img src=""static/images/keys/m.svg"" width=""35%"" height=""75%""></img></td>
  </tr>
</table>
  ",,,,,,,,,,,,,,,,,,,,,,,,,,,,
97,0,,html-keyboard-response,97,258664,0.0-4.14-3.14,j1xgei5q8tr,2022-09-19 16:45:01.701,6012ed349807110d8eb941a6,0,61,45,47,25,36,Female,,,"<p style=""font-size:50px"">You win!
+10 points this round!</p>",,,,,,,,,,,,,,,,,,,,,,,,,,,,
98,0,,html-keyboard-response,98,259177,0.0-4.14-4.14,j1xgei5q8tr,2022-09-19 16:45:01.701,6012ed349807110d8eb941a6,0,61,45,47,25,36,Female,,,,,,1.0,learning,14.0,C,,red,,moons,,,,C,red,moons,,1.0,0.0,NA,left,1272.3999999762,6.0,1.0,1.0,,,
99,0,,html-keyboard-response,99,260688,0.0-4.15-0.15,j1xgei5q8tr,2022-09-19 16:45:01.701,6012ed349807110d8eb941a6,0,61,45,47,25,36,Female,,,"<img src=""static/images/cards/stack_of_black_moons.svg"" width=""175px"" height=""250px""></img>",,,,,,,,,,,,,,,,,,,,,,,,,,,,
100,0,,html-keyboard-response,100,262128,0.0-4.15-1.15,j1xgei5q8tr,2022-09-19 16:45:01.701,6012ed349807110d8eb941a6,0,61,45,47,25,36,Female,933.8999999762,,"
  <table>
  <tr height=300>
    <td width=300 height=300><img src=""static/images/cards/back_of_black_moons.svg"" width=""175px"" height=""250px""></img></td>
    <td width=300 height=300><img src=""static/images/cards/back_of_black_moons.svg"" width=""175px"" height=""250px""></img></td>
  </tr>
  <tr height=200>
    <td width=300><img src=""static/images/keys/z.svg"" width=""35%"" height=""75%""></img></td>
    <td width=300></td>
  </tr>
</table>
  ",90.0,1.0,,,,,,,,,,,,,,,,,,,,,,,,,,
101,0,,html-keyboard-response,101,263644,0.0-4.15-2.15,j1xgei5q8tr,2022-09-19 16:45:01.701,6012ed349807110d8eb941a6,0,61,45,47,25,36,Female,,,"
  <table>
  <tr height=300>
    <td width=300 height=300><img src=""static/images/cards/3_of_black_moons.svg"" width=""175px"" height=""250px""></img></td>
    <td width=300 height=300><img src=""static/images/cards/back_of_black_moons.svg"" width=""175px"" height=""250px""></img></td>
  </tr>
  <tr height=200>
    <td width=300><img src=""static/images/keys/z.svg"" width=""35%"" height=""75%""></img></td>
    <td width=300></td>
  </tr>
</table>
  ",,,,,,,,,,,,,,,,,,,,,,,,,,,,
102,0,,html-keyboard-response,102,265161,0.0-4.15-3.15,j1xgei5q8tr,2022-09-19 16:45:01.701,6012ed349807110d8eb941a6,0,61,45,47,25,36,Female,,,"<p style=""font-size:50px"">You Lose!
No points this round.</p>",,,,,,,,,,,,,,,,,,,,,,,,,,,,
103,0,,html-keyboard-response,103,265674,0.0-4.15-4.15,j1xgei5q8tr,2022-09-19 16:45:01.701,6012ed349807110d8eb941a6,0,61,45,47,25,36,Female,,,,,,1.0,learning,15.0,D,,black,,moons,,,,D,black,moons,,0.0,0.0,1,left,933.8999999762,3.0,0.0,0.0,,,
104,0,,html-keyboard-response,104,267183,0.0-4.16-0.16,j1xgei5q8tr,2022-09-19 16:45:01.701,6012ed349807110d8eb941a6,0,61,45,47,25,36,Female,,,"<img src=""static/images/cards/stack_of_red_bolts.svg"" width=""175px"" height=""250px""></img>",,,,,,,,,,,,,,,,,,,,,,,,,,,,
105,0,,html-keyboard-response,105,268580,0.0-4.16-1.16,j1xgei5q8tr,2022-09-19 16:45:01.701,6012ed349807110d8eb941a6,0,61,45,47,25,36,Female,890.2999999523,,"
  <table>
  <tr height=300>
    <td width=300 height=300><img src=""static/images/cards/back_of_red_bolts.svg"" width=""175px"" height=""250px""></img></td>
    <td width=300 height=300><img src=""static/images/cards/back_of_red_bolts.svg"" width=""175px"" height=""250px""></img></td>
  </tr>
  <tr height=200>
    <td width=300><img src=""static/images/keys/z.svg"" width=""35%"" height=""75%""></img></td>
    <td width=300><img src=""static/images/keys/m.svg"" width=""35%"" height=""75%""></img></td>
  </tr>
</table>
  ",90.0,1.0,,,,,,,,,,,,,,,,,,,,,,,,,,
106,0,,html-keyboard-response,106,270096,0.0-4.16-2.16,j1xgei5q8tr,2022-09-19 16:45:01.701,6012ed349807110d8eb941a6,0,61,45,47,25,36,Female,,,"
  <table>
  <tr height=300>
    <td width=300 height=300><img src=""static/images/cards/2_of_red_bolts.svg"" width=""175px"" height=""250px""></img></td>
    <td width=300 height=300><img src=""static/images/cards/back_of_red_bolts.svg"" width=""175px"" height=""250px""></img></td>
  </tr>
  <tr height=200>
    <td width=300><img src=""static/images/keys/z.svg"" width=""35%"" height=""75%""></img></td>
    <td width=300><img src=""static/images/keys/m.svg"" width=""35%"" height=""75%""></img></td>
  </tr>
</table>
  ",,,,,,,,,,,,,,,,,,,,,,,,,,,,
107,0,,html-keyboard-response,107,271614,0.0-4.16-3.16,j1xgei5q8tr,2022-09-19 16:45:01.701,6012ed349807110d8eb941a6,0,61,45,47,25,36,Female,,,"<p style=""font-size:50px"">You win!
+10 points this round!</p>",,,,,,,,,,,,,,,,,,,,,,,,,,,,
108,0,,html-keyboard-response,108,272129,0.0-4.16-4.16,j1xgei5q8tr,2022-09-19 16:45:01.701,6012ed349807110d8eb941a6,0,61,45,47,25,36,Female,,,,,,1.0,learning,16.0,Xc,,red,,bolts,,,,Xc,red,bolts,,1.0,0.0,NA,left,890.2999999523,2.0,0.0,1.0,,,
109,0,,html-keyboard-response,109,273640,0.0-4.17-0.17,j1xgei5q8tr,2022-09-19 16:45:01.701,6012ed349807110d8eb941a6,0,61,45,47,25,36,Female,,,"<img src=""static/images/cards/stack_of_black_bolts.svg"" width=""175px"" height=""250px""></img>",,,,,,,,,,,,,,,,,,,,,,,,,,,,
110,0,,html-keyboard-response,110,274928,0.0-4.17-1.17,j1xgei5q8tr,2022-09-19 16:45:01.701,6012ed349807110d8eb941a6,0,61,45,47,25,36,Female,778.5,,"
  <table>
  <tr height=300>
    <td width=300 height=300><img src=""static/images/cards/back_of_black_bolts.svg"" width=""175px"" height=""250px""></img></td>
    <td width=300 height=300><img src=""static/images/cards/back_of_black_bolts.svg"" width=""175px"" height=""250px""></img></td>
  </tr>
  <tr height=200>
    <td width=300></td>
    <td width=300><img src=""static/images/keys/m.svg"" width=""35%"" height=""75%""></img></td>
  </tr>
</table>
  ",77.0,1.0,,,,,,,,,,,,,,,,,,,,,,,,,,
111,0,,html-keyboard-response,111,276442,0.0-4.17-2.17,j1xgei5q8tr,2022-09-19 16:45:01.701,6012ed349807110d8eb941a6,0,61,45,47,25,36,Female,,,"
  <table>
  <tr height=300>
    <td width=300 height=300><img src=""static/images/cards/back_of_black_bolts.svg"" width=""175px"" height=""250px""></img></td>
    <td width=300 height=300><img src=""static/images/cards/1_of_black_bolts.svg"" width=""175px"" height=""250px""></img></td>
  </tr>
  <tr height=200>
    <td width=300></td>
    <td width=300><img src=""static/images/keys/m.svg"" width=""35%"" height=""75%""></img></td>
  </tr>
</table>
  ",,,,,,,,,,,,,,,,,,,,,,,,,,,,
112,0,,html-keyboard-response,112,277958,0.0-4.17-3.17,j1xgei5q8tr,2022-09-19 16:45:01.701,6012ed349807110d8eb941a6,0,61,45,47,25,36,Female,,,"<p style=""font-size:50px"">You win!
+10 points this round!</p>",,,,,,,,,,,,,,,,,,,,,,,,,,,,
113,0,,html-keyboard-response,113,278472,0.0-4.17-4.17,j1xgei5q8tr,2022-09-19 16:45:01.701,6012ed349807110d8eb941a6,0,61,45,47,25,36,Female,,,,,,1.0,learning,17.0,Xnc,,black,,bolts,,,,Xnc,black,bolts,,0.0,0.0,0,right,778.5,1.0,0.0,1.0,,,
114,0,,html-keyboard-response,114,279987,0.0-4.18-0.18,j1xgei5q8tr,2022-09-19 16:45:01.701,6012ed349807110d8eb941a6,0,61,45,47,25,36,Female,,,"<img src=""static/images/cards/stack_of_red_stars.svg"" width=""175px"" height=""250px""></img>",,,,,,,,,,,,,,,,,,,,,,,,,,,,
115,0,,html-keyboard-response,115,280894,0.0-4.18-1.18,j1xgei5q8tr,2022-09-19 16:45:01.701,6012ed349807110d8eb941a6,0,61,45,47,25,36,Female,398.7999999523,,"
  <table>
  <tr height=300>
    <td width=300 height=300><img src=""static/images/cards/back_of_red_stars.svg"" width=""175px"" height=""250px""></img></td>
    <td width=300 height=300><img src=""static/images/cards/back_of_red_stars.svg"" width=""175px"" height=""250px""></img></td>
  </tr>
  <tr height=200>
    <td width=300><img src=""static/images/keys/z.svg"" width=""35%"" height=""75%""></img></td>
    <td width=300><img src=""static/images/keys/m.svg"" width=""35%"" height=""75%""></img></td>
  </tr>
</table>
  ",90.0,1.0,,,,,,,,,,,,,,,,,,,,,,,,,,
116,0,,html-keyboard-response,116,282411,0.0-4.18-2.18,j1xgei5q8tr,2022-09-19 16:45:01.701,6012ed349807110d8eb941a6,0,61,45,47,25,36,Female,,,"
  <table>
  <tr height=300>
    <td width=300 height=300><img src=""static/images/cards/4_of_red_stars.svg"" width=""175px"" height=""250px""></img></td>
    <td width=300 height=300><img src=""static/images/cards/back_of_red_stars.svg"" width=""175px"" height=""250px""></img></td>
  </tr>
  <tr height=200>
    <td width=300><img src=""static/images/keys/z.svg"" width=""35%"" height=""75%""></img></td>
    <td width=300><img src=""static/images/keys/m.svg"" width=""35%"" height=""75%""></img></td>
  </tr>
</table>
  ",,,,,,,,,,,,,,,,,,,,,,,,,,,,
117,0,,html-keyboard-response,117,283927,0.0-4.18-3.18,j1xgei5q8tr,2022-09-19 16:45:01.701,6012ed349807110d8eb941a6,0,61,45,47,25,36,Female,,,"<p style=""font-size:50px"">You Lose!
No points this round.</p>",,,,,,,,,,,,,,,,,,,,,,,,,,,,
118,0,,html-keyboard-response,118,284439,0.0-4.18-4.18,j1xgei5q8tr,2022-09-19 16:45:01.701,6012ed349807110d8eb941a6,0,61,45,47,25,36,Female,,,,,,1.0,learning,18.0,A,,red,,stars,,,,A,red,stars,,1.0,1.0,NA,left,398.7999999523,4.0,0.0,0.0,,,
119,0,,html-keyboard-response,119,285952,0.0-4.19-0.19,j1xgei5q8tr,2022-09-19 16:45:01.701,6012ed349807110d8eb941a6,0,61,45,47,25,36,Female,,,"<img src=""static/images/cards/stack_of_black_stars.svg"" width=""175px"" height=""250px""></img>",,,,,,,,,,,,,,,,,,,,,,,,,,,,
120,0,,html-keyboard-response,120,286967,0.0-4.19-1.19,j1xgei5q8tr,2022-09-19 16:45:01.701,6012ed349807110d8eb941a6,0,61,45,47,25,36,Female,506.5,,"
  <table>
  <tr height=300>
    <td width=300 height=300><img src=""static/images/cards/back_of_black_stars.svg"" width=""175px"" height=""250px""></img></td>
    <td width=300 height=300><img src=""static/images/cards/back_of_black_stars.svg"" width=""175px"" height=""250px""></img></td>
  </tr>
  <tr height=200>
    <td width=300></td>
    <td width=300><img src=""static/images/keys/m.svg"" width=""35%"" height=""75%""></img></td>
  </tr>
</table>
  ",77.0,1.0,,,,,,,,,,,,,,,,,,,,,,,,,,
121,0,,html-keyboard-response,121,288484,0.0-4.19-2.19,j1xgei5q8tr,2022-09-19 16:45:01.701,6012ed349807110d8eb941a6,0,61,45,47,25,36,Female,,,"
  <table>
  <tr height=300>
    <td width=300 height=300><img src=""static/images/cards/back_of_black_stars.svg"" width=""175px"" height=""250px""></img></td>
    <td width=300 height=300><img src=""static/images/cards/7_of_black_stars.svg"" width=""175px"" height=""250px""></img></td>
  </tr>
  <tr height=200>
    <td width=300></td>
    <td width=300><img src=""static/images/keys/m.svg"" width=""35%"" height=""75%""></img></td>
  </tr>
</table>
  ",,,,,,,,,,,,,,,,,,,,,,,,,,,,
122,0,,html-keyboard-response,122,290002,0.0-4.19-3.19,j1xgei5q8tr,2022-09-19 16:45:01.701,6012ed349807110d8eb941a6,0,61,45,47,25,36,Female,,,"<p style=""font-size:50px"">You win!
+10 points this round!</p>",,,,,,,,,,,,,,,,,,,,,,,,,,,,
123,0,,html-keyboard-response,123,290514,0.0-4.19-4.19,j1xgei5q8tr,2022-09-19 16:45:01.701,6012ed349807110d8eb941a6,0,61,45,47,25,36,Female,,,,,,1.0,learning,19.0,B,,black,,stars,,,,B,black,stars,,0.0,1.0,0,right,506.5,7.0,1.0,1.0,,,
124,0,,html-keyboard-response,124,292025,0.0-4.20-0.20,j1xgei5q8tr,2022-09-19 16:45:01.701,6012ed349807110d8eb941a6,0,61,45,47,25,36,Female,,,"<img src=""static/images/cards/stack_of_red_moons.svg"" width=""175px"" height=""250px""></img>",,,,,,,,,,,,,,,,,,,,,,,,,,,,
125,0,,html-keyboard-response,125,293007,0.0-4.20-1.20,j1xgei5q8tr,2022-09-19 16:45:01.701,6012ed349807110d8eb941a6,0,61,45,47,25,36,Female,473.9000000358,,"
  <table>
  <tr height=300>
    <td width=300 height=300><img src=""static/images/cards/back_of_red_moons.svg"" width=""175px"" height=""250px""></img></td>
    <td width=300 height=300><img src=""static/images/cards/back_of_red_moons.svg"" width=""175px"" height=""250px""></img></td>
  </tr>
  <tr height=200>
    <td width=300><img src=""static/images/keys/z.svg"" width=""35%"" height=""75%""></img></td>
    <td width=300><img src=""static/images/keys/m.svg"" width=""35%"" height=""75%""></img></td>
  </tr>
</table>
  ",90.0,1.0,,,,,,,,,,,,,,,,,,,,,,,,,,
126,0,,html-keyboard-response,126,294522,0.0-4.20-2.20,j1xgei5q8tr,2022-09-19 16:45:01.701,6012ed349807110d8eb941a6,0,61,45,47,25,36,Female,,,"
  <table>
  <tr height=300>
    <td width=300 height=300><img src=""static/images/cards/2_of_red_moons.svg"" width=""175px"" height=""250px""></img></td>
    <td width=300 height=300><img src=""static/images/cards/back_of_red_moons.svg"" width=""175px"" height=""250px""></img></td>
  </tr>
  <tr height=200>
    <td width=300><img src=""static/images/keys/z.svg"" width=""35%"" height=""75%""></img></td>
    <td width=300><img src=""static/images/keys/m.svg"" width=""35%"" height=""75%""></img></td>
  </tr>
</table>
  ",,,,,,,,,,,,,,,,,,,,,,,,,,,,
127,0,,html-keyboard-response,127,296038,0.0-4.20-3.20,j1xgei5q8tr,2022-09-19 16:45:01.701,6012ed349807110d8eb941a6,0,61,45,47,25,36,Female,,,"<p style=""font-size:50px"">You win!
+10 points this round!</p>",,,,,,,,,,,,,,,,,,,,,,,,,,,,
128,0,,html-keyboard-response,128,296548,0.0-4.20-4.20,j1xgei5q8tr,2022-09-19 16:45:01.701,6012ed349807110d8eb941a6,0,61,45,47,25,36,Female,,,,,,1.0,learning,20.0,C,,red,,moons,,,,C,red,moons,,1.0,0.0,NA,left,473.9000000358,2.0,0.0,1.0,,,
129,0,,html-keyboard-response,129,298050,0.0-4.21-0.21,j1xgei5q8tr,2022-09-19 16:45:01.701,6012ed349807110d8eb941a6,0,61,45,47,25,36,Female,,,"<img src=""static/images/cards/stack_of_black_moons.svg"" width=""175px"" height=""250px""></img>",,,,,,,,,,,,,,,,,,,,,,,,,,,,
130,0,,html-keyboard-response,130,299128,0.0-4.21-1.21,j1xgei5q8tr,2022-09-19 16:45:01.701,6012ed349807110d8eb941a6,0,61,45,47,25,36,Female,568.8999999762,,"
  <table>
  <tr height=300>
    <td width=300 height=300><img src=""static/images/cards/back_of_black_moons.svg"" width=""175px"" height=""250px""></img></td>
    <td width=300 height=300><img src=""static/images/cards/back_of_black_moons.svg"" width=""175px"" height=""250px""></img></td>
  </tr>
  <tr height=200>
    <td width=300><img src=""static/images/keys/z.svg"" width=""35%"" height=""75%""></img></td>
    <td width=300></td>
  </tr>
</table>
  ",90.0,1.0,,,,,,,,,,,,,,,,,,,,,,,,,,
131,0,,html-keyboard-response,131,300644,0.0-4.21-2.21,j1xgei5q8tr,2022-09-19 16:45:01.701,6012ed349807110d8eb941a6,0,61,45,47,25,36,Female,,,"
  <table>
  <tr height=300>
    <td width=300 height=300><img src=""static/images/cards/2_of_black_moons.svg"" width=""175px"" height=""250px""></img></td>
    <td width=300 height=300><img src=""static/images/cards/back_of_black_moons.svg"" width=""175px"" height=""250px""></img></td>
  </tr>
  <tr height=200>
    <td width=300><img src=""static/images/keys/z.svg"" width=""35%"" height=""75%""></img></td>
    <td width=300></td>
  </tr>
</table>
  ",,,,,,,,,,,,,,,,,,,,,,,,,,,,
132,0,,html-keyboard-response,132,302157,0.0-4.21-3.21,j1xgei5q8tr,2022-09-19 16:45:01.701,6012ed349807110d8eb941a6,0,61,45,47,25,36,Female,,,"<p style=""font-size:50px"">You win!
+10 points this round!</p>",,,,,,,,,,,,,,,,,,,,,,,,,,,,
133,0,,html-keyboard-response,133,302666,0.0-4.21-4.21,j1xgei5q8tr,2022-09-19 16:45:01.701,6012ed349807110d8eb941a6,0,61,45,47,25,36,Female,,,,,,1.0,learning,21.0,D,,black,,moons,,,,D,black,moons,,0.0,0.0,1,left,568.8999999762,2.0,0.0,1.0,,,
134,0,,html-keyboard-response,134,304181,0.0-4.22-0.22,j1xgei5q8tr,2022-09-19 16:45:01.701,6012ed349807110d8eb941a6,0,61,45,47,25,36,Female,,,"<img src=""static/images/cards/stack_of_red_bolts.svg"" width=""175px"" height=""250px""></img>",,,,,,,,,,,,,,,,,,,,,,,,,,,,
135,0,,html-keyboard-response,135,305118,0.0-4.22-1.22,j1xgei5q8tr,2022-09-19 16:45:01.701,6012ed349807110d8eb941a6,0,61,45,47,25,36,Female,429.3999999762,,"
  <table>
  <tr height=300>
    <td width=300 height=300><img src=""static/images/cards/back_of_red_bolts.svg"" width=""175px"" height=""250px""></img></td>
    <td width=300 height=300><img src=""static/images/cards/back_of_red_bolts.svg"" width=""175px"" height=""250px""></img></td>
  </tr>
  <tr height=200>
    <td width=300><img src=""static/images/keys/z.svg"" width=""35%"" height=""75%""></img></td>
    <td width=300><img src=""static/images/keys/m.svg"" width=""35%"" height=""75%""></img></td>
  </tr>
</table>
  ",90.0,1.0,,,,,,,,,,,,,,,,,,,,,,,,,,
136,0,,html-keyboard-response,136,306634,0.0-4.22-2.22,j1xgei5q8tr,2022-09-19 16:45:01.701,6012ed349807110d8eb941a6,0,61,45,47,25,36,Female,,,"
  <table>
  <tr height=300>
    <td width=300 height=300><img src=""static/images/cards/9_of_red_bolts.svg"" width=""175px"" height=""250px""></img></td>
    <td width=300 height=300><img src=""static/images/cards/back_of_red_bolts.svg"" width=""175px"" height=""250px""></img></td>
  </tr>
  <tr height=200>
    <td width=300><img src=""static/images/keys/z.svg"" width=""35%"" height=""75%""></img></td>
    <td width=300><img src=""static/images/keys/m.svg"" width=""35%"" height=""75%""></img></td>
  </tr>
</table>
  ",,,,,,,,,,,,,,,,,,,,,,,,,,,,
137,0,,html-keyboard-response,137,308150,0.0-4.22-3.22,j1xgei5q8tr,2022-09-19 16:45:01.701,6012ed349807110d8eb941a6,0,61,45,47,25,36,Female,,,"<p style=""font-size:50px"">You win!
+10 points this round!</p>",,,,,,,,,,,,,,,,,,,,,,,,,,,,
138,0,,html-keyboard-response,138,308662,0.0-4.22-4.22,j1xgei5q8tr,2022-09-19 16:45:01.701,6012ed349807110d8eb941a6,0,61,45,47,25,36,Female,,,,,,1.0,learning,22.0,Xc,,red,,bolts,,,,Xc,red,bolts,,1.0,0.0,NA,left,429.3999999762,9.0,1.0,1.0,,,
139,0,,html-keyboard-response,139,310165,0.0-4.23-0.23,j1xgei5q8tr,2022-09-19 16:45:01.701,6012ed349807110d8eb941a6,0,61,45,47,25,36,Female,,,"<img src=""static/images/cards/stack_of_black_bolts.svg"" width=""175px"" height=""250px""></img>",,,,,,,,,,,,,,,,,,,,,,,,,,,,
140,0,,html-keyboard-response,140,311239,0.0-4.23-1.23,j1xgei5q8tr,2022-09-19 16:45:01.701,6012ed349807110d8eb941a6,0,61,45,47,25,36,Female,567.5,,"
  <table>
  <tr height=300>
    <td width=300 height=300><img src=""static/images/cards/back_of_black_bolts.svg"" width=""175px"" height=""250px""></img></td>
    <td width=300 height=300><img src=""static/images/cards/back_of_black_bolts.svg"" width=""175px"" height=""250px""></img></td>
  </tr>
  <tr height=200>
    <td width=300><img src=""static/images/keys/z.svg"" width=""35%"" height=""75%""></img></td>
    <td width=300></td>
  </tr>
</table>
  ",90.0,1.0,,,,,,,,,,,,,,,,,,,,,,,,,,
141,0,,html-keyboard-response,141,312753,0.0-4.23-2.23,j1xgei5q8tr,2022-09-19 16:45:01.701,6012ed349807110d8eb941a6,0,61,45,47,25,36,Female,,,"
  <table>
  <tr height=300>
    <td width=300 height=300><img src=""static/images/cards/1_of_black_bolts.svg"" width=""175px"" height=""250px""></img></td>
    <td width=300 height=300><img src=""static/images/cards/back_of_black_bolts.svg"" width=""175px"" height=""250px""></img></td>
  </tr>
  <tr height=200>
    <td width=300><img src=""static/images/keys/z.svg"" width=""35%"" height=""75%""></img></td>
    <td width=300></td>
  </tr>
</table>
  ",,,,,,,,,,,,,,,,,,,,,,,,,,,,
142,0,,html-keyboard-response,142,314270,0.0-4.23-3.23,j1xgei5q8tr,2022-09-19 16:45:01.701,6012ed349807110d8eb941a6,0,61,45,47,25,36,Female,,,"<p style=""font-size:50px"">You win!
+10 points this round!</p>",,,,,,,,,,,,,,,,,,,,,,,,,,,,
143,0,,html-keyboard-response,143,314781,0.0-4.23-4.23,j1xgei5q8tr,2022-09-19 16:45:01.701,6012ed349807110d8eb941a6,0,61,45,47,25,36,Female,,,,,,1.0,learning,23.0,Xnc,,black,,bolts,,,,Xnc,black,bolts,,0.0,0.0,1,left,567.5,1.0,0.0,1.0,,,
144,0,,call-function,144,314794,0.0-5.0,j1xgei5q8tr,2022-09-19 16:45:01.701,6012ed349807110d8eb941a6,0,61,45,47,25,36,Female,,,,,,,,,,,,,,,,,,,,,,,,,,,,,,,
145,0,,image-keyboard-response,145,318360,0.0-6.0-0.0,j1xgei5q8tr,2022-09-19 16:45:01.701,6012ed349807110d8eb941a6,0,61,45,47,25,36,Female,3565.0999999642,,static/images/instructions_CB_0/Slide20.png,39.0,,,,,,,,,,,,,,,,,,,,,,,,,,,
146,0,,image-keyboard-response,146,325669,0.0-6.1-0.1,j1xgei5q8tr,2022-09-19 16:45:01.701,6012ed349807110d8eb941a6,0,61,45,47,25,36,Female,7307.6999999881,,static/images/instructions_CB_0/Slide21.png,39.0,,,,,,,,,,,,,,,,,,,,,,,,,,,
147,0,,image-keyboard-response,147,331385,0.0-6.2-0.2,j1xgei5q8tr,2022-09-19 16:45:01.701,6012ed349807110d8eb941a6,0,61,45,47,25,36,Female,5714.1000000238,,static/images/instructions_CB_0/Slide22.png,39.0,,,,,,,,,,,,,,,,,,,,,,,,,,,
148,0,,image-keyboard-response,148,343192,0.0-6.3-0.3,j1xgei5q8tr,2022-09-19 16:45:01.701,6012ed349807110d8eb941a6,0,61,45,47,25,36,Female,11804.1999999881,,static/images/instructions_CB_0/Slide23.png,39.0,,,,,,,,,,,,,,,,,,,,,,,,,,,
149,0,,image-keyboard-response,149,346982,0.0-6.4-0.4,j1xgei5q8tr,2022-09-19 16:45:01.701,6012ed349807110d8eb941a6,0,61,45,47,25,36,Female,3789.0999999642,,static/images/instructions_CB_0/Slide24.png,39.0,,,,,,,,,,,,,,,,,,,,,,,,,,,
150,0,,html-keyboard-response,150,350659,0.0-7.0-0.0,j1xgei5q8tr,2022-09-19 16:45:01.701,6012ed349807110d8eb941a6,0,61,45,47,25,36,Female,3674.6999999881,,"
  <table>
  <tr height=300>
    <td width=300 height=300><img src=""static/images/cards/stack_of_red_moons.svg"" width=""175px"" height=""250px""></img></td>
    <td width=300 height=300><img src=""static/images/cards/stack_of_red_stars.svg"" width=""175px"" height=""250px""></img></td>
  </tr>
  <tr height=200>
    <td width=300><img src=""static/images/keys/w.svg"" width=""35%"" height=""75%""></img></td>
    <td width=300><img src=""static/images/keys/o.svg"" width=""35%"" height=""75%""></img></td>
  </tr>
</table>
  ",79.0,1.0,,,,,,,,,,,,,,,,,,,,,,,,,,
151,0,,html-keyboard-response,151,353999,0.0-7.0-1.0,j1xgei5q8tr,2022-09-19 16:45:01.701,6012ed349807110d8eb941a6,0,61,45,47,25,36,Female,2834.1000000238,,"
  <table>
  <tr height=300>
    <td width=300 height=300><img src=""static/images/cards/back_of_red_stars.svg"" width=""175px"" height=""250px""></img></td>
    <td width=300 height=300><img src=""static/images/cards/back_of_red_stars.svg"" width=""175px"" height=""250px""></img></td>
  </tr>
  <tr height=200>
    <td width=300><img src=""static/images/keys/z.svg"" width=""35%"" height=""75%""></img></td>
    <td width=300><img src=""static/images/keys/m.svg"" width=""35%"" height=""75%""></img></td>
  </tr>
</table>
  ",77.0,1.0,,,,,,,,,,,,,,,,,,,,,,,,,,
152,0,,html-keyboard-response,152,355515,0.0-7.0-2.0,j1xgei5q8tr,2022-09-19 16:45:01.701,6012ed349807110d8eb941a6,0,61,45,47,25,36,Female,,,"
  <table>
  <tr height=300>
    <td width=300 height=300><img src=""static/images/cards/back_of_red_stars.svg"" width=""175px"" height=""250px""></img></td>
    <td width=300 height=300><img src=""static/images/cards/7_of_red_stars.svg"" width=""175px"" height=""250px""></img></td>
  </tr>
  <tr height=200>
    <td width=300><img src=""static/images/keys/z.svg"" width=""35%"" height=""75%""></img></td>
    <td width=300><img src=""static/images/keys/m.svg"" width=""35%"" height=""75%""></img></td>
  </tr>
</table>
  ",,,,,,,,,,,,,,,,,,,,,,,,,,,,
153,0,,html-keyboard-response,153,357033,0.0-7.0-3.0,j1xgei5q8tr,2022-09-19 16:45:01.701,6012ed349807110d8eb941a6,0,61,45,47,25,36,Female,,,"<p style=""font-size:50px"">You win!
+10 points this round!</p>",,,,,,,,,,,,,,,,,,,,,,,,,,,,
154,0,,html-keyboard-response,154,357544,0.0-7.0-4.0,j1xgei5q8tr,2022-09-19 16:45:01.701,6012ed349807110d8eb941a6,0,61,45,47,25,36,Female,,,,,,1.0,choice,0.0,A,C,red,red,moons,stars,C,A,A,red,stars,3674.6999999881,1.0,1.0,NA,right,2834.1000000238,7.0,1.0,1.0,,,
155,0,,html-keyboard-response,155,362548,0.0-7.1-0.1,j1xgei5q8tr,2022-09-19 16:45:01.701,6012ed349807110d8eb941a6,0,61,45,47,25,36,Female,,,"
  <table>
  <tr height=300>
    <td width=300 height=300><img src=""static/images/cards/stack_of_red_stars.svg"" width=""175px"" height=""250px""></img></td>
    <td width=300 height=300><img src=""static/images/cards/stack_of_red_moons.svg"" width=""175px"" height=""250px""></img></td>
  </tr>
  <tr height=200>
    <td width=300><img src=""static/images/keys/w.svg"" width=""35%"" height=""75%""></img></td>
    <td width=300><img src=""static/images/keys/o.svg"" width=""35%"" height=""75%""></img></td>
  </tr>
</table>
  ",,,,,,,,,,,,,,,,,,,,,,,,,,,,
156,0,,html-keyboard-response,156,363060,0.0-7.1-1.1,j1xgei5q8tr,2022-09-19 16:45:01.701,6012ed349807110d8eb941a6,0,61,45,47,25,36,Female,,,,,,,,,,,,,,,,,,,,,,,,,,,,,,,
157,0,,html-keyboard-response,157,363065,0.0-7.1-2.1,j1xgei5q8tr,2022-09-19 16:45:01.701,6012ed349807110d8eb941a6,0,61,45,47,25,36,Female,,,,,,,,,,,,,,,,,,,,,,,,,,,,,,,
158,0,,html-keyboard-response,158,364589,0.0-7.1-3.1,j1xgei5q8tr,2022-09-19 16:45:01.701,6012ed349807110d8eb941a6,0,61,45,47,25,36,Female,,,"<p style=""font-size:50px"">Too slow!</p>",,,,,,,,,,,,,,,,,,,,,,,,,,,,
159,0,,html-keyboard-response,159,365101,0.0-7.1-4.1,j1xgei5q8tr,2022-09-19 16:45:01.701,6012ed349807110d8eb941a6,0,61,45,47,25,36,Female,,,,,,1.0,choice,1.0,A,C,red,red,stars,moons,A,C,,,,,1.0,1.0,NA,,,7.0,1.0,1.0,,,
160,0,,html-keyboard-response,160,366983,0.0-7.2-0.2,j1xgei5q8tr,2022-09-19 16:45:01.701,6012ed349807110d8eb941a6,0,61,45,47,25,36,Female,1880.1999999881,,"
  <table>
  <tr height=300>
    <td width=300 height=300><img src=""static/images/cards/stack_of_red_bolts.svg"" width=""175px"" height=""250px""></img></td>
    <td width=300 height=300><img src=""static/images/cards/stack_of_black_moons.svg"" width=""175px"" height=""250px""></img></td>
  </tr>
  <tr height=200>
    <td width=300><img src=""static/images/keys/w.svg"" width=""35%"" height=""75%""></img></td>
    <td width=300><img src=""static/images/keys/o.svg"" width=""35%"" height=""75%""></img></td>
  </tr>
</table>
  ",87.0,1.0,,,,,,,,,,,,,,,,,,,,,,,,,,
161,0,,html-keyboard-response,161,369340,0.0-7.2-1.2,j1xgei5q8tr,2022-09-19 16:45:01.701,6012ed349807110d8eb941a6,0,61,45,47,25,36,Female,1851.0,,"
  <table>
  <tr height=300>
    <td width=300 height=300><img src=""static/images/cards/back_of_red_bolts.svg"" width=""175px"" height=""250px""></img></td>
    <td width=300 height=300><img src=""static/images/cards/back_of_red_bolts.svg"" width=""175px"" height=""250px""></img></td>
  </tr>
  <tr height=200>
    <td width=300><img src=""static/images/keys/z.svg"" width=""35%"" height=""75%""></img></td>
    <td width=300><img src=""static/images/keys/m.svg"" width=""35%"" height=""75%""></img></td>
  </tr>
</table>
  ",90.0,1.0,,,,,,,,,,,,,,,,,,,,,,,,,,
162,0,,html-keyboard-response,162,370845,0.0-7.2-2.2,j1xgei5q8tr,2022-09-19 16:45:01.701,6012ed349807110d8eb941a6,0,61,45,47,25,36,Female,,,"
  <table>
  <tr height=300>
    <td width=300 height=300><img src=""static/images/cards/10_of_red_bolts.svg"" width=""175px"" height=""250px""></img></td>
    <td width=300 height=300><img src=""static/images/cards/back_of_red_bolts.svg"" width=""175px"" height=""250px""></img></td>
  </tr>
  <tr height=200>
    <td width=300><img src=""static/images/keys/z.svg"" width=""35%"" height=""75%""></img></td>
    <td width=300><img src=""static/images/keys/m.svg"" width=""35%"" height=""75%""></img></td>
  </tr>
</table>
  ",,,,,,,,,,,,,,,,,,,,,,,,,,,,
163,0,,html-keyboard-response,163,372360,0.0-7.2-3.2,j1xgei5q8tr,2022-09-19 16:45:01.701,6012ed349807110d8eb941a6,0,61,45,47,25,36,Female,,,"<p style=""font-size:50px"">You win!
+10 points this round!</p>",,,,,,,,,,,,,,,,,,,,,,,,,,,,
164,0,,html-keyboard-response,164,372871,0.0-7.2-4.2,j1xgei5q8tr,2022-09-19 16:45:01.701,6012ed349807110d8eb941a6,0,61,45,47,25,36,Female,,,,,,1.0,choice,2.0,D,Xc,red,black,bolts,moons,Xc,D,Xc,red,bolts,1880.1999999881,1.0,0.0,NA,left,1851.0,10.0,1.0,1.0,,,
165,0,,html-keyboard-response,165,374812,0.0-7.3-0.3,j1xgei5q8tr,2022-09-19 16:45:01.701,6012ed349807110d8eb941a6,0,61,45,47,25,36,Female,1939.0,,"
  <table>
  <tr height=300>
    <td width=300 height=300><img src=""static/images/cards/stack_of_red_stars.svg"" width=""175px"" height=""250px""></img></td>
    <td width=300 height=300><img src=""static/images/cards/stack_of_black_stars.svg"" width=""175px"" height=""250px""></img></td>
  </tr>
  <tr height=200>
    <td width=300><img src=""static/images/keys/w.svg"" width=""35%"" height=""75%""></img></td>
    <td width=300><img src=""static/images/keys/o.svg"" width=""35%"" height=""75%""></img></td>
  </tr>
</table>
  ",87.0,1.0,,,,,,,,,,,,,,,,,,,,,,,,,,
166,0,,html-keyboard-response,166,376985,0.0-7.3-1.3,j1xgei5q8tr,2022-09-19 16:45:01.701,6012ed349807110d8eb941a6,0,61,45,47,25,36,Female,1668.7000000477,,"
  <table>
  <tr height=300>
    <td width=300 height=300><img src=""static/images/cards/back_of_red_stars.svg"" width=""175px"" height=""250px""></img></td>
    <td width=300 height=300><img src=""static/images/cards/back_of_red_stars.svg"" width=""175px"" height=""250px""></img></td>
  </tr>
  <tr height=200>
    <td width=300><img src=""static/images/keys/z.svg"" width=""35%"" height=""75%""></img></td>
    <td width=300><img src=""static/images/keys/m.svg"" width=""35%"" height=""75%""></img></td>
  </tr>
</table>
  ",77.0,1.0,,,,,,,,,,,,,,,,,,,,,,,,,,
167,0,,html-keyboard-response,167,378501,0.0-7.3-2.3,j1xgei5q8tr,2022-09-19 16:45:01.701,6012ed349807110d8eb941a6,0,61,45,47,25,36,Female,,,"
  <table>
  <tr height=300>
    <td width=300 height=300><img src=""static/images/cards/back_of_red_stars.svg"" width=""175px"" height=""250px""></img></td>
    <td width=300 height=300><img src=""static/images/cards/1_of_red_stars.svg"" width=""175px"" height=""250px""></img></td>
  </tr>
  <tr height=200>
    <td width=300><img src=""static/images/keys/z.svg"" width=""35%"" height=""75%""></img></td>
    <td width=300><img src=""static/images/keys/m.svg"" width=""35%"" height=""75%""></img></td>
  </tr>
</table>
  ",,,,,,,,,,,,,,,,,,,,,,,,,,,,
168,0,,html-keyboard-response,168,380019,0.0-7.3-3.3,j1xgei5q8tr,2022-09-19 16:45:01.701,6012ed349807110d8eb941a6,0,61,45,47,25,36,Female,,,"<p style=""font-size:50px"">You Lose!
No points this round.</p>",,,,,,,,,,,,,,,,,,,,,,,,,,,,
169,0,,html-keyboard-response,169,380530,0.0-7.3-4.3,j1xgei5q8tr,2022-09-19 16:45:01.701,6012ed349807110d8eb941a6,0,61,45,47,25,36,Female,,,,,,1.0,choice,3.0,A,B,red,black,stars,stars,A,B,A,red,stars,1939.0,1.0,1.0,NA,right,1668.7000000477,1.0,0.0,0.0,,,
170,0,,html-keyboard-response,170,382765,0.0-7.4-0.4,j1xgei5q8tr,2022-09-19 16:45:01.701,6012ed349807110d8eb941a6,0,61,45,47,25,36,Female,2233.0999999642,,"
  <table>
  <tr height=300>
    <td width=300 height=300><img src=""static/images/cards/stack_of_black_moons.svg"" width=""175px"" height=""250px""></img></td>
    <td width=300 height=300><img src=""static/images/cards/stack_of_red_moons.svg"" width=""175px"" height=""250px""></img></td>
  </tr>
  <tr height=200>
    <td width=300><img src=""static/images/keys/w.svg"" width=""35%"" height=""75%""></img></td>
    <td width=300><img src=""static/images/keys/o.svg"" width=""35%"" height=""75%""></img></td>
  </tr>
</table>
  ",87.0,1.0,,,,,,,,,,,,,,,,,,,,,,,,,,
171,0,,html-keyboard-response,171,384651,0.0-7.4-1.4,j1xgei5q8tr,2022-09-19 16:45:01.701,6012ed349807110d8eb941a6,0,61,45,47,25,36,Female,1379.8999999762,,"
  <table>
  <tr height=300>
    <td width=300 height=300><img src=""static/images/cards/back_of_black_moons.svg"" width=""175px"" height=""250px""></img></td>
    <td width=300 height=300><img src=""static/images/cards/back_of_black_moons.svg"" width=""175px"" height=""250px""></img></td>
  </tr>
  <tr height=200>
    <td width=300><img src=""static/images/keys/z.svg"" width=""35%"" height=""75%""></img></td>
    <td width=300></td>
  </tr>
</table>
  ",90.0,1.0,,,,,,,,,,,,,,,,,,,,,,,,,,
172,0,,html-keyboard-response,172,386168,0.0-7.4-2.4,j1xgei5q8tr,2022-09-19 16:45:01.701,6012ed349807110d8eb941a6,0,61,45,47,25,36,Female,,,"
  <table>
  <tr height=300>
    <td width=300 height=300><img src=""static/images/cards/7_of_black_moons.svg"" width=""175px"" height=""250px""></img></td>
    <td width=300 height=300><img src=""static/images/cards/back_of_black_moons.svg"" width=""175px"" height=""250px""></img></td>
  </tr>
  <tr height=200>
    <td width=300><img src=""static/images/keys/z.svg"" width=""35%"" height=""75%""></img></td>
    <td width=300></td>
  </tr>
</table>
  ",,,,,,,,,,,,,,,,,,,,,,,,,,,,
173,0,,html-keyboard-response,173,387685,0.0-7.4-3.4,j1xgei5q8tr,2022-09-19 16:45:01.701,6012ed349807110d8eb941a6,0,61,45,47,25,36,Female,,,"<p style=""font-size:50px"">You Lose!
No points this round.</p>",,,,,,,,,,,,,,,,,,,,,,,,,,,,
174,0,,html-keyboard-response,174,388197,0.0-7.4-4.4,j1xgei5q8tr,2022-09-19 16:45:01.701,6012ed349807110d8eb941a6,0,61,45,47,25,36,Female,,,,,,1.0,choice,4.0,C,D,black,red,moons,moons,D,C,D,black,moons,2233.0999999642,0.0,0.0,1,left,1379.8999999762,7.0,1.0,0.0,,,
175,0,,html-keyboard-response,175,390494,0.0-7.5-0.5,j1xgei5q8tr,2022-09-19 16:45:01.701,6012ed349807110d8eb941a6,0,61,45,47,25,36,Female,2292.8000000119,,"
  <table>
  <tr height=300>
    <td width=300 height=300><img src=""static/images/cards/stack_of_black_stars.svg"" width=""175px"" height=""250px""></img></td>
    <td width=300 height=300><img src=""static/images/cards/stack_of_red_moons.svg"" width=""175px"" height=""250px""></img></td>
  </tr>
  <tr height=200>
    <td width=300><img src=""static/images/keys/w.svg"" width=""35%"" height=""75%""></img></td>
    <td width=300><img src=""static/images/keys/o.svg"" width=""35%"" height=""75%""></img></td>
  </tr>
</table>
  ",87.0,1.0,,,,,,,,,,,,,,,,,,,,,,,,,,
176,0,,html-keyboard-response,176,392056,0.0-7.5-1.5,j1xgei5q8tr,2022-09-19 16:45:01.701,6012ed349807110d8eb941a6,0,61,45,47,25,36,Female,1058.3000000119,,"
  <table>
  <tr height=300>
    <td width=300 height=300><img src=""static/images/cards/back_of_black_stars.svg"" width=""175px"" height=""250px""></img></td>
    <td width=300 height=300><img src=""static/images/cards/back_of_black_stars.svg"" width=""175px"" height=""250px""></img></td>
  </tr>
  <tr height=200>
    <td width=300><img src=""static/images/keys/z.svg"" width=""35%"" height=""75%""></img></td>
    <td width=300></td>
  </tr>
</table>
  ",90.0,1.0,,,,,,,,,,,,,,,,,,,,,,,,,,
177,0,,html-keyboard-response,177,393560,0.0-7.5-2.5,j1xgei5q8tr,2022-09-19 16:45:01.701,6012ed349807110d8eb941a6,0,61,45,47,25,36,Female,,,"
  <table>
  <tr height=300>
    <td width=300 height=300><img src=""static/images/cards/4_of_black_stars.svg"" width=""175px"" height=""250px""></img></td>
    <td width=300 height=300><img src=""static/images/cards/back_of_black_stars.svg"" width=""175px"" height=""250px""></img></td>
  </tr>
  <tr height=200>
    <td width=300><img src=""static/images/keys/z.svg"" width=""35%"" height=""75%""></img></td>
    <td width=300></td>
  </tr>
</table>
  ",,,,,,,,,,,,,,,,,,,,,,,,,,,,
178,0,,html-keyboard-response,178,395075,0.0-7.5-3.5,j1xgei5q8tr,2022-09-19 16:45:01.701,6012ed349807110d8eb941a6,0,61,45,47,25,36,Female,,,"<p style=""font-size:50px"">You Lose!
No points this round.</p>",,,,,,,,,,,,,,,,,,,,,,,,,,,,
179,0,,html-keyboard-response,179,395585,0.0-7.5-4.5,j1xgei5q8tr,2022-09-19 16:45:01.701,6012ed349807110d8eb941a6,0,61,45,47,25,36,Female,,,,,,1.0,choice,5.0,B,C,black,red,stars,moons,B,C,B,black,stars,2292.8000000119,0.0,1.0,1,left,1058.3000000119,4.0,0.0,0.0,,,
180,0,,html-keyboard-response,180,397484,0.0-7.6-0.6,j1xgei5q8tr,2022-09-19 16:45:01.701,6012ed349807110d8eb941a6,0,61,45,47,25,36,Female,1896.6999999881,,"
  <table>
  <tr height=300>
    <td width=300 height=300><img src=""static/images/cards/stack_of_black_bolts.svg"" width=""175px"" height=""250px""></img></td>
    <td width=300 height=300><img src=""static/images/cards/stack_of_red_moons.svg"" width=""175px"" height=""250px""></img></td>
  </tr>
  <tr height=200>
    <td width=300><img src=""static/images/keys/w.svg"" width=""35%"" height=""75%""></img></td>
    <td width=300><img src=""static/images/keys/o.svg"" width=""35%"" height=""75%""></img></td>
  </tr>
</table>
  ",87.0,1.0,,,,,,,,,,,,,,,,,,,,,,,,,,
181,0,,html-keyboard-response,181,399442,0.0-7.6-1.6,j1xgei5q8tr,2022-09-19 16:45:01.701,6012ed349807110d8eb941a6,0,61,45,47,25,36,Female,1454.5,,"
  <table>
  <tr height=300>
    <td width=300 height=300><img src=""static/images/cards/back_of_black_bolts.svg"" width=""175px"" height=""250px""></img></td>
    <td width=300 height=300><img src=""static/images/cards/back_of_black_bolts.svg"" width=""175px"" height=""250px""></img></td>
  </tr>
  <tr height=200>
    <td width=300><img src=""static/images/keys/z.svg"" width=""35%"" height=""75%""></img></td>
    <td width=300></td>
  </tr>
</table>
  ",90.0,1.0,,,,,,,,,,,,,,,,,,,,,,,,,,
182,0,,html-keyboard-response,182,400946,0.0-7.6-2.6,j1xgei5q8tr,2022-09-19 16:45:01.701,6012ed349807110d8eb941a6,0,61,45,47,25,36,Female,,,"
  <table>
  <tr height=300>
    <td width=300 height=300><img src=""static/images/cards/4_of_black_bolts.svg"" width=""175px"" height=""250px""></img></td>
    <td width=300 height=300><img src=""static/images/cards/back_of_black_bolts.svg"" width=""175px"" height=""250px""></img></td>
  </tr>
  <tr height=200>
    <td width=300><img src=""static/images/keys/z.svg"" width=""35%"" height=""75%""></img></td>
    <td width=300></td>
  </tr>
</table>
  ",,,,,,,,,,,,,,,,,,,,,,,,,,,,
183,0,,html-keyboard-response,183,402462,0.0-7.6-3.6,j1xgei5q8tr,2022-09-19 16:45:01.701,6012ed349807110d8eb941a6,0,61,45,47,25,36,Female,,,"<p style=""font-size:50px"">You win!
+10 points this round!</p>",,,,,,,,,,,,,,,,,,,,,,,,,,,,
184,0,,html-keyboard-response,184,402972,0.0-7.6-4.6,j1xgei5q8tr,2022-09-19 16:45:01.701,6012ed349807110d8eb941a6,0,61,45,47,25,36,Female,,,,,,1.0,choice,6.0,C,Xnc,black,red,bolts,moons,Xnc,C,Xnc,black,bolts,1896.6999999881,0.0,0.0,1,left,1454.5,4.0,0.0,1.0,,,
185,0,,html-keyboard-response,185,405787,0.0-7.7-0.7,j1xgei5q8tr,2022-09-19 16:45:01.701,6012ed349807110d8eb941a6,0,61,45,47,25,36,Female,2813.5,,"
  <table>
  <tr height=300>
    <td width=300 height=300><img src=""static/images/cards/stack_of_red_moons.svg"" width=""175px"" height=""250px""></img></td>
    <td width=300 height=300><img src=""static/images/cards/stack_of_black_moons.svg"" width=""175px"" height=""250px""></img></td>
  </tr>
  <tr height=200>
    <td width=300><img src=""static/images/keys/w.svg"" width=""35%"" height=""75%""></img></td>
    <td width=300><img src=""static/images/keys/o.svg"" width=""35%"" height=""75%""></img></td>
  </tr>
</table>
  ",79.0,1.0,,,,,,,,,,,,,,,,,,,,,,,,,,
186,0,,html-keyboard-response,186,407720,0.0-7.7-1.7,j1xgei5q8tr,2022-09-19 16:45:01.701,6012ed349807110d8eb941a6,0,61,45,47,25,36,Female,1426.3999999762,,"
  <table>
  <tr height=300>
    <td width=300 height=300><img src=""static/images/cards/back_of_black_moons.svg"" width=""175px"" height=""250px""></img></td>
    <td width=300 height=300><img src=""static/images/cards/back_of_black_moons.svg"" width=""175px"" height=""250px""></img></td>
  </tr>
  <tr height=200>
    <td width=300></td>
    <td width=300><img src=""static/images/keys/m.svg"" width=""35%"" height=""75%""></img></td>
  </tr>
</table>
  ",77.0,1.0,,,,,,,,,,,,,,,,,,,,,,,,,,
187,0,,html-keyboard-response,187,409236,0.0-7.7-2.7,j1xgei5q8tr,2022-09-19 16:45:01.701,6012ed349807110d8eb941a6,0,61,45,47,25,36,Female,,,"
  <table>
  <tr height=300>
    <td width=300 height=300><img src=""static/images/cards/back_of_black_moons.svg"" width=""175px"" height=""250px""></img></td>
    <td width=300 height=300><img src=""static/images/cards/4_of_black_moons.svg"" width=""175px"" height=""250px""></img></td>
  </tr>
  <tr height=200>
    <td width=300></td>
    <td width=300><img src=""static/images/keys/m.svg"" width=""35%"" height=""75%""></img></td>
  </tr>
</table>
  ",,,,,,,,,,,,,,,,,,,,,,,,,,,,
188,0,,html-keyboard-response,188,410751,0.0-7.7-3.7,j1xgei5q8tr,2022-09-19 16:45:01.701,6012ed349807110d8eb941a6,0,61,45,47,25,36,Female,,,"<p style=""font-size:50px"">You win!
+10 points this round!</p>",,,,,,,,,,,,,,,,,,,,,,,,,,,,
189,0,,html-keyboard-response,189,411261,0.0-7.7-4.7,j1xgei5q8tr,2022-09-19 16:45:01.701,6012ed349807110d8eb941a6,0,61,45,47,25,36,Female,,,,,,1.0,choice,7.0,C,D,red,black,moons,moons,C,D,D,black,moons,2813.5,0.0,0.0,0,right,1426.3999999762,4.0,0.0,1.0,,,
190,0,,html-keyboard-response,190,413372,0.0-7.8-0.8,j1xgei5q8tr,2022-09-19 16:45:01.701,6012ed349807110d8eb941a6,0,61,45,47,25,36,Female,2108.8999999762,,"
  <table>
  <tr height=300>
    <td width=300 height=300><img src=""static/images/cards/stack_of_red_moons.svg"" width=""175px"" height=""250px""></img></td>
    <td width=300 height=300><img src=""static/images/cards/stack_of_black_stars.svg"" width=""175px"" height=""250px""></img></td>
  </tr>
  <tr height=200>
    <td width=300><img src=""static/images/keys/w.svg"" width=""35%"" height=""75%""></img></td>
    <td width=300><img src=""static/images/keys/o.svg"" width=""35%"" height=""75%""></img></td>
  </tr>
</table>
  ",79.0,1.0,,,,,,,,,,,,,,,,,,,,,,,,,,
191,0,,html-keyboard-response,191,415073,0.0-7.8-1.8,j1xgei5q8tr,2022-09-19 16:45:01.701,6012ed349807110d8eb941a6,0,61,45,47,25,36,Female,1196.0999999642,,"
  <table>
  <tr height=300>
    <td width=300 height=300><img src=""static/images/cards/back_of_black_stars.svg"" width=""175px"" height=""250px""></img></td>
    <td width=300 height=300><img src=""static/images/cards/back_of_black_stars.svg"" width=""175px"" height=""250px""></img></td>
  </tr>
  <tr height=200>
    <td width=300><img src=""static/images/keys/z.svg"" width=""35%"" height=""75%""></img></td>
    <td width=300></td>
  </tr>
</table>
  ",90.0,1.0,,,,,,,,,,,,,,,,,,,,,,,,,,
192,0,,html-keyboard-response,192,416587,0.0-7.8-2.8,j1xgei5q8tr,2022-09-19 16:45:01.701,6012ed349807110d8eb941a6,0,61,45,47,25,36,Female,,,"
  <table>
  <tr height=300>
    <td width=300 height=300><img src=""static/images/cards/4_of_black_stars.svg"" width=""175px"" height=""250px""></img></td>
    <td width=300 height=300><img src=""static/images/cards/back_of_black_stars.svg"" width=""175px"" height=""250px""></img></td>
  </tr>
  <tr height=200>
    <td width=300><img src=""static/images/keys/z.svg"" width=""35%"" height=""75%""></img></td>
    <td width=300></td>
  </tr>
</table>
  ",,,,,,,,,,,,,,,,,,,,,,,,,,,,
193,0,,html-keyboard-response,193,418103,0.0-7.8-3.8,j1xgei5q8tr,2022-09-19 16:45:01.701,6012ed349807110d8eb941a6,0,61,45,47,25,36,Female,,,"<p style=""font-size:50px"">You Lose!
No points this round.</p>",,,,,,,,,,,,,,,,,,,,,,,,,,,,
194,0,,html-keyboard-response,194,418615,0.0-7.8-4.8,j1xgei5q8tr,2022-09-19 16:45:01.701,6012ed349807110d8eb941a6,0,61,45,47,25,36,Female,,,,,,1.0,choice,8.0,B,C,red,black,moons,stars,C,B,B,black,stars,2108.8999999762,0.0,1.0,1,left,1196.0999999642,4.0,0.0,0.0,,,
195,0,,html-keyboard-response,195,420466,0.0-7.9-0.9,j1xgei5q8tr,2022-09-19 16:45:01.701,6012ed349807110d8eb941a6,0,61,45,47,25,36,Female,1848.2000000477,,"
  <table>
  <tr height=300>
    <td width=300 height=300><img src=""static/images/cards/stack_of_red_moons.svg"" width=""175px"" height=""250px""></img></td>
    <td width=300 height=300><img src=""static/images/cards/stack_of_black_moons.svg"" width=""175px"" height=""250px""></img></td>
  </tr>
  <tr height=200>
    <td width=300><img src=""static/images/keys/w.svg"" width=""35%"" height=""75%""></img></td>
    <td width=300><img src=""static/images/keys/o.svg"" width=""35%"" height=""75%""></img></td>
  </tr>
</table>
  ",79.0,1.0,,,,,,,,,,,,,,,,,,,,,,,,,,
196,0,,html-keyboard-response,196,422079,0.0-7.9-1.9,j1xgei5q8tr,2022-09-19 16:45:01.701,6012ed349807110d8eb941a6,0,61,45,47,25,36,Female,1106.5,,"
  <table>
  <tr height=300>
    <td width=300 height=300><img src=""static/images/cards/back_of_black_moons.svg"" width=""175px"" height=""250px""></img></td>
    <td width=300 height=300><img src=""static/images/cards/back_of_black_moons.svg"" width=""175px"" height=""250px""></img></td>
  </tr>
  <tr height=200>
    <td width=300></td>
    <td width=300><img src=""static/images/keys/m.svg"" width=""35%"" height=""75%""></img></td>
  </tr>
</table>
  ",77.0,1.0,,,,,,,,,,,,,,,,,,,,,,,,,,
197,0,,html-keyboard-response,197,423595,0.0-7.9-2.9,j1xgei5q8tr,2022-09-19 16:45:01.701,6012ed349807110d8eb941a6,0,61,45,47,25,36,Female,,,"
  <table>
  <tr height=300>
    <td width=300 height=300><img src=""static/images/cards/back_of_black_moons.svg"" width=""175px"" height=""250px""></img></td>
    <td width=300 height=300><img src=""static/images/cards/1_of_black_moons.svg"" width=""175px"" height=""250px""></img></td>
  </tr>
  <tr height=200>
    <td width=300></td>
    <td width=300><img src=""static/images/keys/m.svg"" width=""35%"" height=""75%""></img></td>
  </tr>
</table>
  ",,,,,,,,,,,,,,,,,,,,,,,,,,,,
198,0,,html-keyboard-response,198,425112,0.0-7.9-3.9,j1xgei5q8tr,2022-09-19 16:45:01.701,6012ed349807110d8eb941a6,0,61,45,47,25,36,Female,,,"<p style=""font-size:50px"">You win!
+10 points this round!</p>",,,,,,,,,,,,,,,,,,,,,,,,,,,,
199,0,,html-keyboard-response,199,425621,0.0-7.9-4.9,j1xgei5q8tr,2022-09-19 16:45:01.701,6012ed349807110d8eb941a6,0,61,45,47,25,36,Female,,,,,,1.0,choice,9.0,C,D,red,black,moons,moons,C,D,D,black,moons,1848.2000000477,0.0,0.0,0,right,1106.5,1.0,0.0,1.0,,,
200,0,,html-keyboard-response,200,427137,0.0-7.10-0.10,j1xgei5q8tr,2022-09-19 16:45:01.701,6012ed349807110d8eb941a6,0,61,45,47,25,36,Female,1513.6999999881,,"
  <table>
  <tr height=300>
    <td width=300 height=300><img src=""static/images/cards/stack_of_red_bolts.svg"" width=""175px"" height=""250px""></img></td>
    <td width=300 height=300><img src=""static/images/cards/stack_of_black_stars.svg"" width=""175px"" height=""250px""></img></td>
  </tr>
  <tr height=200>
    <td width=300><img src=""static/images/keys/w.svg"" width=""35%"" height=""75%""></img></td>
    <td width=300><img src=""static/images/keys/o.svg"" width=""35%"" height=""75%""></img></td>
  </tr>
</table>
  ",87.0,1.0,,,,,,,,,,,,,,,,,,,,,,,,,,
201,0,,html-keyboard-response,201,428687,0.0-7.10-1.10,j1xgei5q8tr,2022-09-19 16:45:01.701,6012ed349807110d8eb941a6,0,61,45,47,25,36,Female,1045.1999999881,,"
  <table>
  <tr height=300>
    <td width=300 height=300><img src=""static/images/cards/back_of_red_bolts.svg"" width=""175px"" height=""250px""></img></td>
    <td width=300 height=300><img src=""static/images/cards/back_of_red_bolts.svg"" width=""175px"" height=""250px""></img></td>
  </tr>
  <tr height=200>
    <td width=300><img src=""static/images/keys/z.svg"" width=""35%"" height=""75%""></img></td>
    <td width=300><img src=""static/images/keys/m.svg"" width=""35%"" height=""75%""></img></td>
  </tr>
</table>
  ",90.0,1.0,,,,,,,,,,,,,,,,,,,,,,,,,,
202,0,,html-keyboard-response,202,430201,0.0-7.10-2.10,j1xgei5q8tr,2022-09-19 16:45:01.701,6012ed349807110d8eb941a6,0,61,45,47,25,36,Female,,,"
  <table>
  <tr height=300>
    <td width=300 height=300><img src=""static/images/cards/2_of_red_bolts.svg"" width=""175px"" height=""250px""></img></td>
    <td width=300 height=300><img src=""static/images/cards/back_of_red_bolts.svg"" width=""175px"" height=""250px""></img></td>
  </tr>
  <tr height=200>
    <td width=300><img src=""static/images/keys/z.svg"" width=""35%"" height=""75%""></img></td>
    <td width=300><img src=""static/images/keys/m.svg"" width=""35%"" height=""75%""></img></td>
  </tr>
</table>
  ",,,,,,,,,,,,,,,,,,,,,,,,,,,,
203,0,,html-keyboard-response,203,431721,0.0-7.10-3.10,j1xgei5q8tr,2022-09-19 16:45:01.701,6012ed349807110d8eb941a6,0,61,45,47,25,36,Female,,,"<p style=""font-size:50px"">You win!
+10 points this round!</p>",,,,,,,,,,,,,,,,,,,,,,,,,,,,
204,0,,html-keyboard-response,204,432232,0.0-7.10-4.10,j1xgei5q8tr,2022-09-19 16:45:01.701,6012ed349807110d8eb941a6,0,61,45,47,25,36,Female,,,,,,1.0,choice,10.0,B,Xc,red,black,bolts,stars,Xc,B,Xc,red,bolts,1513.6999999881,1.0,0.0,NA,left,1045.1999999881,2.0,0.0,1.0,,,
205,0,,html-keyboard-response,205,433730,0.0-7.11-0.11,j1xgei5q8tr,2022-09-19 16:45:01.701,6012ed349807110d8eb941a6,0,61,45,47,25,36,Female,1495.6000000238,,"
  <table>
  <tr height=300>
    <td width=300 height=300><img src=""static/images/cards/stack_of_red_stars.svg"" width=""175px"" height=""250px""></img></td>
    <td width=300 height=300><img src=""static/images/cards/stack_of_red_moons.svg"" width=""175px"" height=""250px""></img></td>
  </tr>
  <tr height=200>
    <td width=300><img src=""static/images/keys/w.svg"" width=""35%"" height=""75%""></img></td>
    <td width=300><img src=""static/images/keys/o.svg"" width=""35%"" height=""75%""></img></td>
  </tr>
</table>
  ",87.0,1.0,,,,,,,,,,,,,,,,,,,,,,,,,,
206,0,,html-keyboard-response,206,434989,0.0-7.11-1.11,j1xgei5q8tr,2022-09-19 16:45:01.701,6012ed349807110d8eb941a6,0,61,45,47,25,36,Female,753.7000000477,,"
  <table>
  <tr height=300>
    <td width=300 height=300><img src=""static/images/cards/back_of_red_stars.svg"" width=""175px"" height=""250px""></img></td>
    <td width=300 height=300><img src=""static/images/cards/back_of_red_stars.svg"" width=""175px"" height=""250px""></img></td>
  </tr>
  <tr height=200>
    <td width=300><img src=""static/images/keys/z.svg"" width=""35%"" height=""75%""></img></td>
    <td width=300><img src=""static/images/keys/m.svg"" width=""35%"" height=""75%""></img></td>
  </tr>
</table>
  ",77.0,1.0,,,,,,,,,,,,,,,,,,,,,,,,,,
207,0,,html-keyboard-response,207,436503,0.0-7.11-2.11,j1xgei5q8tr,2022-09-19 16:45:01.701,6012ed349807110d8eb941a6,0,61,45,47,25,36,Female,,,"
  <table>
  <tr height=300>
    <td width=300 height=300><img src=""static/images/cards/back_of_red_stars.svg"" width=""175px"" height=""250px""></img></td>
    <td width=300 height=300><img src=""static/images/cards/2_of_red_stars.svg"" width=""175px"" height=""250px""></img></td>
  </tr>
  <tr height=200>
    <td width=300><img src=""static/images/keys/z.svg"" width=""35%"" height=""75%""></img></td>
    <td width=300><img src=""static/images/keys/m.svg"" width=""35%"" height=""75%""></img></td>
  </tr>
</table>
  ",,,,,,,,,,,,,,,,,,,,,,,,,,,,
208,0,,html-keyboard-response,208,438022,0.0-7.11-3.11,j1xgei5q8tr,2022-09-19 16:45:01.701,6012ed349807110d8eb941a6,0,61,45,47,25,36,Female,,,"<p style=""font-size:50px"">You Lose!
No points this round.</p>",,,,,,,,,,,,,,,,,,,,,,,,,,,,
209,0,,html-keyboard-response,209,438531,0.0-7.11-4.11,j1xgei5q8tr,2022-09-19 16:45:01.701,6012ed349807110d8eb941a6,0,61,45,47,25,36,Female,,,,,,1.0,choice,11.0,A,C,red,red,stars,moons,A,C,A,red,stars,1495.6000000238,1.0,1.0,NA,right,753.7000000477,2.0,0.0,0.0,,,
210,0,,html-keyboard-response,210,440339,0.0-7.12-0.12,j1xgei5q8tr,2022-09-19 16:45:01.701,6012ed349807110d8eb941a6,0,61,45,47,25,36,Female,1805.3999999762,,"
  <table>
  <tr height=300>
    <td width=300 height=300><img src=""static/images/cards/stack_of_black_moons.svg"" width=""175px"" height=""250px""></img></td>
    <td width=300 height=300><img src=""static/images/cards/stack_of_red_moons.svg"" width=""175px"" height=""250px""></img></td>
  </tr>
  <tr height=200>
    <td width=300><img src=""static/images/keys/w.svg"" width=""35%"" height=""75%""></img></td>
    <td width=300><img src=""static/images/keys/o.svg"" width=""35%"" height=""75%""></img></td>
  </tr>
</table>
  ",79.0,1.0,,,,,,,,,,,,,,,,,,,,,,,,,,
211,0,,html-keyboard-response,211,441978,0.0-7.12-1.12,j1xgei5q8tr,2022-09-19 16:45:01.701,6012ed349807110d8eb941a6,0,61,45,47,25,36,Female,1133.9000000358,,"
  <table>
  <tr height=300>
    <td width=300 height=300><img src=""static/images/cards/back_of_red_moons.svg"" width=""175px"" height=""250px""></img></td>
    <td width=300 height=300><img src=""static/images/cards/back_of_red_moons.svg"" width=""175px"" height=""250px""></img></td>
  </tr>
  <tr height=200>
    <td width=300><img src=""static/images/keys/z.svg"" width=""35%"" height=""75%""></img></td>
    <td width=300><img src=""static/images/keys/m.svg"" width=""35%"" height=""75%""></img></td>
  </tr>
</table>
  ",90.0,1.0,,,,,,,,,,,,,,,,,,,,,,,,,,
212,0,,html-keyboard-response,212,443490,0.0-7.12-2.12,j1xgei5q8tr,2022-09-19 16:45:01.701,6012ed349807110d8eb941a6,0,61,45,47,25,36,Female,,,"
  <table>
  <tr height=300>
    <td width=300 height=300><img src=""static/images/cards/7_of_red_moons.svg"" width=""175px"" height=""250px""></img></td>
    <td width=300 height=300><img src=""static/images/cards/back_of_red_moons.svg"" width=""175px"" height=""250px""></img></td>
  </tr>
  <tr height=200>
    <td width=300><img src=""static/images/keys/z.svg"" width=""35%"" height=""75%""></img></td>
    <td width=300><img src=""static/images/keys/m.svg"" width=""35%"" height=""75%""></img></td>
  </tr>
</table>
  ",,,,,,,,,,,,,,,,,,,,,,,,,,,,
213,0,,html-keyboard-response,213,445008,0.0-7.12-3.12,j1xgei5q8tr,2022-09-19 16:45:01.701,6012ed349807110d8eb941a6,0,61,45,47,25,36,Female,,,"<p style=""font-size:50px"">You win!
+10 points this round!</p>",,,,,,,,,,,,,,,,,,,,,,,,,,,,
214,0,,html-keyboard-response,214,445517,0.0-7.12-4.12,j1xgei5q8tr,2022-09-19 16:45:01.701,6012ed349807110d8eb941a6,0,61,45,47,25,36,Female,,,,,,1.0,choice,12.0,C,D,black,red,moons,moons,D,C,C,red,moons,1805.3999999762,1.0,0.0,NA,left,1133.9000000358,7.0,1.0,1.0,,,
215,0,,html-keyboard-response,215,448045,0.0-7.13-0.13,j1xgei5q8tr,2022-09-19 16:45:01.701,6012ed349807110d8eb941a6,0,61,45,47,25,36,Female,2525.4000000358,,"
  <table>
  <tr height=300>
    <td width=300 height=300><img src=""static/images/cards/stack_of_black_moons.svg"" width=""175px"" height=""250px""></img></td>
    <td width=300 height=300><img src=""static/images/cards/stack_of_black_stars.svg"" width=""175px"" height=""250px""></img></td>
  </tr>
  <tr height=200>
    <td width=300><img src=""static/images/keys/w.svg"" width=""35%"" height=""75%""></img></td>
    <td width=300><img src=""static/images/keys/o.svg"" width=""35%"" height=""75%""></img></td>
  </tr>
</table>
  ",87.0,1.0,,,,,,,,,,,,,,,,,,,,,,,,,,
216,0,,html-keyboard-response,216,449484,0.0-7.13-1.13,j1xgei5q8tr,2022-09-19 16:45:01.701,6012ed349807110d8eb941a6,0,61,45,47,25,36,Female,934.8999999762,,"
  <table>
  <tr height=300>
    <td width=300 height=300><img src=""static/images/cards/back_of_black_moons.svg"" width=""175px"" height=""250px""></img></td>
    <td width=300 height=300><img src=""static/images/cards/back_of_black_moons.svg"" width=""175px"" height=""250px""></img></td>
  </tr>
  <tr height=200>
    <td width=300><img src=""static/images/keys/z.svg"" width=""35%"" height=""75%""></img></td>
    <td width=300></td>
  </tr>
</table>
  ",90.0,1.0,,,,,,,,,,,,,,,,,,,,,,,,,,
217,0,,html-keyboard-response,217,450999,0.0-7.13-2.13,j1xgei5q8tr,2022-09-19 16:45:01.701,6012ed349807110d8eb941a6,0,61,45,47,25,36,Female,,,"
  <table>
  <tr height=300>
    <td width=300 height=300><img src=""static/images/cards/9_of_black_moons.svg"" width=""175px"" height=""250px""></img></td>
    <td width=300 height=300><img src=""static/images/cards/back_of_black_moons.svg"" width=""175px"" height=""250px""></img></td>
  </tr>
  <tr height=200>
    <td width=300><img src=""static/images/keys/z.svg"" width=""35%"" height=""75%""></img></td>
    <td width=300></td>
  </tr>
</table>
  ",,,,,,,,,,,,,,,,,,,,,,,,,,,,
218,0,,html-keyboard-response,218,452512,0.0-7.13-3.13,j1xgei5q8tr,2022-09-19 16:45:01.701,6012ed349807110d8eb941a6,0,61,45,47,25,36,Female,,,"<p style=""font-size:50px"">You Lose!
No points this round.</p>",,,,,,,,,,,,,,,,,,,,,,,,,,,,
219,0,,html-keyboard-response,219,453023,0.0-7.13-4.13,j1xgei5q8tr,2022-09-19 16:45:01.701,6012ed349807110d8eb941a6,0,61,45,47,25,36,Female,,,,,,1.0,choice,13.0,B,D,black,black,moons,stars,D,B,D,black,moons,2525.4000000358,0.0,0.0,1,left,934.8999999762,9.0,1.0,0.0,,,
220,0,,html-keyboard-response,220,454615,0.0-7.14-0.14,j1xgei5q8tr,2022-09-19 16:45:01.701,6012ed349807110d8eb941a6,0,61,45,47,25,36,Female,1589.8000000119,,"
  <table>
  <tr height=300>
    <td width=300 height=300><img src=""static/images/cards/stack_of_black_moons.svg"" width=""175px"" height=""250px""></img></td>
    <td width=300 height=300><img src=""static/images/cards/stack_of_red_stars.svg"" width=""175px"" height=""250px""></img></td>
  </tr>
  <tr height=200>
    <td width=300><img src=""static/images/keys/w.svg"" width=""35%"" height=""75%""></img></td>
    <td width=300><img src=""static/images/keys/o.svg"" width=""35%"" height=""75%""></img></td>
  </tr>
</table>
  ",87.0,1.0,,,,,,,,,,,,,,,,,,,,,,,,,,
221,0,,html-keyboard-response,221,456223,0.0-7.14-1.14,j1xgei5q8tr,2022-09-19 16:45:01.701,6012ed349807110d8eb941a6,0,61,45,47,25,36,Female,1101.8999999762,,"
  <table>
  <tr height=300>
    <td width=300 height=300><img src=""static/images/cards/back_of_black_moons.svg"" width=""175px"" height=""250px""></img></td>
    <td width=300 height=300><img src=""static/images/cards/back_of_black_moons.svg"" width=""175px"" height=""250px""></img></td>
  </tr>
  <tr height=200>
    <td width=300></td>
    <td width=300><img src=""static/images/keys/m.svg"" width=""35%"" height=""75%""></img></td>
  </tr>
</table>
  ",77.0,1.0,,,,,,,,,,,,,,,,,,,,,,,,,,
222,0,,html-keyboard-response,222,457739,0.0-7.14-2.14,j1xgei5q8tr,2022-09-19 16:45:01.701,6012ed349807110d8eb941a6,0,61,45,47,25,36,Female,,,"
  <table>
  <tr height=300>
    <td width=300 height=300><img src=""static/images/cards/back_of_black_moons.svg"" width=""175px"" height=""250px""></img></td>
    <td width=300 height=300><img src=""static/images/cards/3_of_black_moons.svg"" width=""175px"" height=""250px""></img></td>
  </tr>
  <tr height=200>
    <td width=300></td>
    <td width=300><img src=""static/images/keys/m.svg"" width=""35%"" height=""75%""></img></td>
  </tr>
</table>
  ",,,,,,,,,,,,,,,,,,,,,,,,,,,,
223,0,,html-keyboard-response,223,459255,0.0-7.14-3.14,j1xgei5q8tr,2022-09-19 16:45:01.701,6012ed349807110d8eb941a6,0,61,45,47,25,36,Female,,,"<p style=""font-size:50px"">You win!
+10 points this round!</p>",,,,,,,,,,,,,,,,,,,,,,,,,,,,
224,0,,html-keyboard-response,224,459766,0.0-7.14-4.14,j1xgei5q8tr,2022-09-19 16:45:01.701,6012ed349807110d8eb941a6,0,61,45,47,25,36,Female,,,,,,1.0,choice,14.0,A,D,black,red,moons,stars,D,A,D,black,moons,1589.8000000119,0.0,0.0,0,right,1101.8999999762,3.0,0.0,1.0,,,
225,0,,html-keyboard-response,225,460807,0.0-7.15-0.15,j1xgei5q8tr,2022-09-19 16:45:01.701,6012ed349807110d8eb941a6,0,61,45,47,25,36,Female,1040.6000000238,,"
  <table>
  <tr height=300>
    <td width=300 height=300><img src=""static/images/cards/stack_of_red_stars.svg"" width=""175px"" height=""250px""></img></td>
    <td width=300 height=300><img src=""static/images/cards/stack_of_black_moons.svg"" width=""175px"" height=""250px""></img></td>
  </tr>
  <tr height=200>
    <td width=300><img src=""static/images/keys/w.svg"" width=""35%"" height=""75%""></img></td>
    <td width=300><img src=""static/images/keys/o.svg"" width=""35%"" height=""75%""></img></td>
  </tr>
</table>
  ",87.0,1.0,,,,,,,,,,,,,,,,,,,,,,,,,,
226,0,,html-keyboard-response,226,462400,0.0-7.15-1.15,j1xgei5q8tr,2022-09-19 16:45:01.701,6012ed349807110d8eb941a6,0,61,45,47,25,36,Female,1085.3000000119,,"
  <table>
  <tr height=300>
    <td width=300 height=300><img src=""static/images/cards/back_of_red_stars.svg"" width=""175px"" height=""250px""></img></td>
    <td width=300 height=300><img src=""static/images/cards/back_of_red_stars.svg"" width=""175px"" height=""250px""></img></td>
  </tr>
  <tr height=200>
    <td width=300><img src=""static/images/keys/z.svg"" width=""35%"" height=""75%""></img></td>
    <td width=300><img src=""static/images/keys/m.svg"" width=""35%"" height=""75%""></img></td>
  </tr>
</table>
  ",90.0,1.0,,,,,,,,,,,,,,,,,,,,,,,,,,
227,0,,html-keyboard-response,227,463914,0.0-7.15-2.15,j1xgei5q8tr,2022-09-19 16:45:01.701,6012ed349807110d8eb941a6,0,61,45,47,25,36,Female,,,"
  <table>
  <tr height=300>
    <td width=300 height=300><img src=""static/images/cards/10_of_red_stars.svg"" width=""175px"" height=""250px""></img></td>
    <td width=300 height=300><img src=""static/images/cards/back_of_red_stars.svg"" width=""175px"" height=""250px""></img></td>
  </tr>
  <tr height=200>
    <td width=300><img src=""static/images/keys/z.svg"" width=""35%"" height=""75%""></img></td>
    <td width=300><img src=""static/images/keys/m.svg"" width=""35%"" height=""75%""></img></td>
  </tr>
</table>
  ",,,,,,,,,,,,,,,,,,,,,,,,,,,,
228,0,,html-keyboard-response,228,465431,0.0-7.15-3.15,j1xgei5q8tr,2022-09-19 16:45:01.701,6012ed349807110d8eb941a6,0,61,45,47,25,36,Female,,,"<p style=""font-size:50px"">You win!
+10 points this round!</p>",,,,,,,,,,,,,,,,,,,,,,,,,,,,
229,0,,html-keyboard-response,229,465941,0.0-7.15-4.15,j1xgei5q8tr,2022-09-19 16:45:01.701,6012ed349807110d8eb941a6,0,61,45,47,25,36,Female,,,,,,1.0,choice,15.0,A,D,red,black,stars,moons,A,D,A,red,stars,1040.6000000238,1.0,1.0,NA,left,1085.3000000119,10.0,1.0,1.0,,,
230,0,,html-keyboard-response,230,467622,0.0-7.16-0.16,j1xgei5q8tr,2022-09-19 16:45:01.701,6012ed349807110d8eb941a6,0,61,45,47,25,36,Female,1678.1999999881,,"
  <table>
  <tr height=300>
    <td width=300 height=300><img src=""static/images/cards/stack_of_red_stars.svg"" width=""175px"" height=""250px""></img></td>
    <td width=300 height=300><img src=""static/images/cards/stack_of_black_moons.svg"" width=""175px"" height=""250px""></img></td>
  </tr>
  <tr height=200>
    <td width=300><img src=""static/images/keys/w.svg"" width=""35%"" height=""75%""></img></td>
    <td width=300><img src=""static/images/keys/o.svg"" width=""35%"" height=""75%""></img></td>
  </tr>
</table>
  ",87.0,1.0,,,,,,,,,,,,,,,,,,,,,,,,,,
231,0,,html-keyboard-response,231,469263,0.0-7.16-1.16,j1xgei5q8tr,2022-09-19 16:45:01.701,6012ed349807110d8eb941a6,0,61,45,47,25,36,Female,1136.5999999642,,"
  <table>
  <tr height=300>
    <td width=300 height=300><img src=""static/images/cards/back_of_red_stars.svg"" width=""175px"" height=""250px""></img></td>
    <td width=300 height=300><img src=""static/images/cards/back_of_red_stars.svg"" width=""175px"" height=""250px""></img></td>
  </tr>
  <tr height=200>
    <td width=300><img src=""static/images/keys/z.svg"" width=""35%"" height=""75%""></img></td>
    <td width=300><img src=""static/images/keys/m.svg"" width=""35%"" height=""75%""></img></td>
  </tr>
</table>
  ",90.0,1.0,,,,,,,,,,,,,,,,,,,,,,,,,,
232,0,,html-keyboard-response,232,470779,0.0-7.16-2.16,j1xgei5q8tr,2022-09-19 16:45:01.701,6012ed349807110d8eb941a6,0,61,45,47,25,36,Female,,,"
  <table>
  <tr height=300>
    <td width=300 height=300><img src=""static/images/cards/7_of_red_stars.svg"" width=""175px"" height=""250px""></img></td>
    <td width=300 height=300><img src=""static/images/cards/back_of_red_stars.svg"" width=""175px"" height=""250px""></img></td>
  </tr>
  <tr height=200>
    <td width=300><img src=""static/images/keys/z.svg"" width=""35%"" height=""75%""></img></td>
    <td width=300><img src=""static/images/keys/m.svg"" width=""35%"" height=""75%""></img></td>
  </tr>
</table>
  ",,,,,,,,,,,,,,,,,,,,,,,,,,,,
233,0,,html-keyboard-response,233,472296,0.0-7.16-3.16,j1xgei5q8tr,2022-09-19 16:45:01.701,6012ed349807110d8eb941a6,0,61,45,47,25,36,Female,,,"<p style=""font-size:50px"">You win!
+10 points this round!</p>",,,,,,,,,,,,,,,,,,,,,,,,,,,,
234,0,,html-keyboard-response,234,472811,0.0-7.16-4.16,j1xgei5q8tr,2022-09-19 16:45:01.701,6012ed349807110d8eb941a6,0,61,45,47,25,36,Female,,,,,,1.0,choice,16.0,A,D,red,black,stars,moons,A,D,A,red,stars,1678.1999999881,1.0,1.0,NA,left,1136.5999999642,7.0,1.0,1.0,,,
235,0,,html-keyboard-response,235,474739,0.0-7.17-0.17,j1xgei5q8tr,2022-09-19 16:45:01.701,6012ed349807110d8eb941a6,0,61,45,47,25,36,Female,1926.8000000119,,"
  <table>
  <tr height=300>
    <td width=300 height=300><img src=""static/images/cards/stack_of_red_moons.svg"" width=""175px"" height=""250px""></img></td>
    <td width=300 height=300><img src=""static/images/cards/stack_of_red_stars.svg"" width=""175px"" height=""250px""></img></td>
  </tr>
  <tr height=200>
