,index,success,trial_type,trial_index,time_elapsed,internal_node_id,subject,date,prol_id,ctbl,sense_of_control_A,sense_of_control_B,sense_of_control_C,sense_of_control_D,age,gender,rt,url,stimulus,key_press,npress,is_data_trial,phase,trial,deck1,deck2,col1,col2,sym1,sym2,deck_l,deck_r,chosen_deck,chosen_col,chosen_sym,deck_rt,choose_choice,mutual_info,hidden_key,chosen_card,card_rt,player_num,win_card,outcome,mock_rating,response,responses
0,0,1.0,fullscreen,0,5683,0.0-0.0,jattk47hp3,2022-09-16 18:28:55.753,63112d166c18ea59f6b05400,1,65,60,68,69,38,male,,,,,,,,,,,,,,,,,,,,,,,,,,,,,,,
1,0,,external-html,1,8328,0.0-1.0,jattk47hp3,2022-09-16 18:28:55.753,63112d166c18ea59f6b05400,1,65,60,68,69,38,male,2510.8000000119,static/js/sub/consent.html,,,,,,,,,,,,,,,,,,,,,,,,,,,,,
2,0,,call-function,2,8333,0.0-2.0,jattk47hp3,2022-09-16 18:28:55.753,63112d166c18ea59f6b05400,1,65,60,68,69,38,male,,,,,,,,,,,,,,,,,,,,,,,,,,,,,,,
3,0,,image-keyboard-response,3,12035,0.0-3.0-0.0,jattk47hp3,2022-09-16 18:28:55.753,63112d166c18ea59f6b05400,1,65,60,68,69,38,male,3700.2999999523,,static/images/instructions_CB_1/Slide1.png,39.0,,,,,,,,,,,,,,,,,,,,,,,,,,,
4,0,,image-keyboard-response,4,20139,0.0-3.1-0.1,jattk47hp3,2022-09-16 18:28:55.753,63112d166c18ea59f6b05400,1,65,60,68,69,38,male,8102.5,,static/images/instructions_CB_1/Slide2.png,39.0,,,,,,,,,,,,,,,,,,,,,,,,,,,
5,0,,image-keyboard-response,5,24217,0.0-3.2-0.2,jattk47hp3,2022-09-16 18:28:55.753,63112d166c18ea59f6b05400,1,65,60,68,69,38,male,4076.0,,static/images/instructions_CB_1/Slide3.png,39.0,,,,,,,,,,,,,,,,,,,,,,,,,,,
6,0,,image-keyboard-response,6,26543,0.0-3.3-0.3,jattk47hp3,2022-09-16 18:28:55.753,63112d166c18ea59f6b05400,1,65,60,68,69,38,male,2324.3999999762,,static/images/instructions_CB_1/Slide4.png,39.0,,,,,,,,,,,,,,,,,,,,,,,,,,,
7,0,,image-keyboard-response,7,30528,0.0-3.4-0.4,jattk47hp3,2022-09-16 18:28:55.753,63112d166c18ea59f6b05400,1,65,60,68,69,38,male,3983.5999999642,,static/images/instructions_CB_1/Slide5.png,39.0,,,,,,,,,,,,,,,,,,,,,,,,,,,
8,0,,image-keyboard-response,8,32513,0.0-3.5-0.5,jattk47hp3,2022-09-16 18:28:55.753,63112d166c18ea59f6b05400,1,65,60,68,69,38,male,1984.3000000119,,static/images/instructions_CB_1/Slide6.png,39.0,,,,,,,,,,,,,,,,,,,,,,,,,,,
9,0,,image-keyboard-response,9,35336,0.0-3.6-0.6,jattk47hp3,2022-09-16 18:28:55.753,63112d166c18ea59f6b05400,1,65,60,68,69,38,male,2821.5,,static/images/instructions_CB_1/Slide7.png,39.0,,,,,,,,,,,,,,,,,,,,,,,,,,,
10,0,,image-keyboard-response,10,42671,0.0-3.7-0.7,jattk47hp3,2022-09-16 18:28:55.753,63112d166c18ea59f6b05400,1,65,60,68,69,38,male,7334.6000000238,,static/images/instructions_CB_1/Slide8.png,39.0,,,,,,,,,,,,,,,,,,,,,,,,,,,
11,0,,image-keyboard-response,11,48192,0.0-3.8-0.8,jattk47hp3,2022-09-16 18:28:55.753,63112d166c18ea59f6b05400,1,65,60,68,69,38,male,5519.7000000477,,static/images/instructions_CB_1/Slide9.png,39.0,,,,,,,,,,,,,,,,,,,,,,,,,,,
12,0,,image-keyboard-response,12,55664,0.0-3.9-0.9,jattk47hp3,2022-09-16 18:28:55.753,63112d166c18ea59f6b05400,1,65,60,68,69,38,male,7471.0,,static/images/instructions_CB_1/Slide10.png,39.0,,,,,,,,,,,,,,,,,,,,,,,,,,,
13,0,,image-keyboard-response,13,63648,0.0-3.10-0.10,jattk47hp3,2022-09-16 18:28:55.753,63112d166c18ea59f6b05400,1,65,60,68,69,38,male,7983.2999999523,,static/images/instructions_CB_1/Slide11.png,39.0,,,,,,,,,,,,,,,,,,,,,,,,,,,
14,0,,image-keyboard-response,14,75398,0.0-3.11-0.11,jattk47hp3,2022-09-16 18:28:55.753,63112d166c18ea59f6b05400,1,65,60,68,69,38,male,11748.8000000119,,static/images/instructions_CB_1/Slide12.png,39.0,,,,,,,,,,,,,,,,,,,,,,,,,,,
15,0,,image-keyboard-response,15,224833,0.0-3.12-0.12,jattk47hp3,2022-09-16 18:28:55.753,63112d166c18ea59f6b05400,1,65,60,68,69,38,male,149433.3999999762,,static/images/instructions_CB_1/Slide13.png,37.0,,,,,,,,,,,,,,,,,,,,,,,,,,,
16,0,,image-keyboard-response,16,226046,0.0-3.13-0.13,jattk47hp3,2022-09-16 18:28:55.753,63112d166c18ea59f6b05400,1,65,60,68,69,38,male,1210.5,,static/images/instructions_CB_1/Slide12.png,39.0,,,,,,,,,,,,,,,,,,,,,,,,,,,
17,0,,image-keyboard-response,17,226751,0.0-3.14-0.14,jattk47hp3,2022-09-16 18:28:55.753,63112d166c18ea59f6b05400,1,65,60,68,69,38,male,704.1000000238,,static/images/instructions_CB_1/Slide13.png,39.0,,,,,,,,,,,,,,,,,,,,,,,,,,,
18,0,,image-keyboard-response,18,228720,0.0-3.15-0.15,jattk47hp3,2022-09-16 18:28:55.753,63112d166c18ea59f6b05400,1,65,60,68,69,38,male,1968.1000000238,,static/images/instructions_CB_1/Slide14.png,39.0,,,,,,,,,,,,,,,,,,,,,,,,,,,
19,0,,image-keyboard-response,19,229959,0.0-3.16-0.16,jattk47hp3,2022-09-16 18:28:55.753,63112d166c18ea59f6b05400,1,65,60,68,69,38,male,1237.5,,static/images/instructions_CB_1/Slide15.png,39.0,,,,,,,,,,,,,,,,,,,,,,,,,,,
20,0,,image-keyboard-response,20,242446,0.0-3.17-0.17,jattk47hp3,2022-09-16 18:28:55.753,63112d166c18ea59f6b05400,1,65,60,68,69,38,male,12486.3000000119,,static/images/instructions_CB_1/Slide16.png,39.0,,,,,,,,,,,,,,,,,,,,,,,,,,,
21,0,,image-keyboard-response,21,256082,0.0-3.18-0.18,jattk47hp3,2022-09-16 18:28:55.753,63112d166c18ea59f6b05400,1,65,60,68,69,38,male,13635.6000000238,,static/images/instructions_CB_1/Slide17.png,39.0,,,,,,,,,,,,,,,,,,,,,,,,,,,
22,0,,image-keyboard-response,22,264630,0.0-3.19-0.19,jattk47hp3,2022-09-16 18:28:55.753,63112d166c18ea59f6b05400,1,65,60,68,69,38,male,8546.1999999881,,static/images/instructions_CB_1/Slide18.png,39.0,,,,,,,,,,,,,,,,,,,,,,,,,,,
23,0,,image-keyboard-response,23,265375,0.0-3.20-0.20,jattk47hp3,2022-09-16 18:28:55.753,63112d166c18ea59f6b05400,1,65,60,68,69,38,male,744.1999999881,,static/images/instructions_CB_1/Slide19.png,39.0,,,,,,,,,,,,,,,,,,,,,,,,,,,
24,0,,html-keyboard-response,24,266881,0.0-4.0-0.0,jattk47hp3,2022-09-16 18:28:55.753,63112d166c18ea59f6b05400,1,65,60,68,69,38,male,,,"<img src=""static/images/cards/stack_of_red_moons.svg"" width=""175px"" height=""250px""></img>",,,,,,,,,,,,,,,,,,,,,,,,,,,,
25,0,,html-keyboard-response,25,268965,0.0-4.0-1.0,jattk47hp3,2022-09-16 18:28:55.753,63112d166c18ea59f6b05400,1,65,60,68,69,38,male,1576.1999999881,,"
  <table>
  <tr height=300>
    <td width=300 height=300><img src=""static/images/cards/back_of_red_moons.svg"" width=""175px"" height=""250px""></img></td>
    <td width=300 height=300><img src=""static/images/cards/back_of_red_moons.svg"" width=""175px"" height=""250px""></img></td>
  </tr>
  <tr height=200>
    <td width=300><img src=""static/images/keys/z.svg"" width=""35%"" height=""75%""></img></td>
    <td width=300><img src=""static/images/keys/m.svg"" width=""35%"" height=""75%""></img></td>
  </tr>
</table>
  ",90.0,1.0,,,,,,,,,,,,,,,,,,,,,,,,,,
26,0,,html-keyboard-response,26,270471,0.0-4.0-2.0,jattk47hp3,2022-09-16 18:28:55.753,63112d166c18ea59f6b05400,1,65,60,68,69,38,male,,,"
  <table>
  <tr height=300>
    <td width=300 height=300><img src=""static/images/cards/7_of_red_moons.svg"" width=""175px"" height=""250px""></img></td>
    <td width=300 height=300><img src=""static/images/cards/back_of_red_moons.svg"" width=""175px"" height=""250px""></img></td>
  </tr>
  <tr height=200>
    <td width=300><img src=""static/images/keys/z.svg"" width=""35%"" height=""75%""></img></td>
    <td width=300><img src=""static/images/keys/m.svg"" width=""35%"" height=""75%""></img></td>
  </tr>
</table>
  ",,,,,,,,,,,,,,,,,,,,,,,,,,,,
27,0,,html-keyboard-response,27,271973,0.0-4.0-3.0,jattk47hp3,2022-09-16 18:28:55.753,63112d166c18ea59f6b05400,1,65,60,68,69,38,male,,,"<p style=""font-size:50px"">You win!
+10 points this round!</p>",,,,,,,,,,,,,,,,,,,,,,,,,,,,
28,0,,html-keyboard-response,28,272481,0.0-4.0-4.0,jattk47hp3,2022-09-16 18:28:55.753,63112d166c18ea59f6b05400,1,65,60,68,69,38,male,,,,,,1.0,learning,0.0,A,,red,,moons,,,,A,red,moons,,1.0,1.0,NA,left,1576.1999999881,7.0,1.0,1.0,,,
29,0,,html-keyboard-response,29,273988,0.0-4.1-0.1,jattk47hp3,2022-09-16 18:28:55.753,63112d166c18ea59f6b05400,1,65,60,68,69,38,male,,,"<img src=""static/images/cards/stack_of_black_moons.svg"" width=""175px"" height=""250px""></img>",,,,,,,,,,,,,,,,,,,,,,,,,,,,
30,0,,html-keyboard-response,30,275527,0.0-4.1-1.1,jattk47hp3,2022-09-16 18:28:55.753,63112d166c18ea59f6b05400,1,65,60,68,69,38,male,1032.3000000119,,"
  <table>
  <tr height=300>
    <td width=300 height=300><img src=""static/images/cards/back_of_black_moons.svg"" width=""175px"" height=""250px""></img></td>
    <td width=300 height=300><img src=""static/images/cards/back_of_black_moons.svg"" width=""175px"" height=""250px""></img></td>
  </tr>
  <tr height=200>
    <td width=300></td>
    <td width=300><img src=""static/images/keys/m.svg"" width=""35%"" height=""75%""></img></td>
  </tr>
</table>
  ",77.0,1.0,,,,,,,,,,,,,,,,,,,,,,,,,,
31,0,,html-keyboard-response,31,277033,0.0-4.1-2.1,jattk47hp3,2022-09-16 18:28:55.753,63112d166c18ea59f6b05400,1,65,60,68,69,38,male,,,"
  <table>
  <tr height=300>
    <td width=300 height=300><img src=""static/images/cards/back_of_black_moons.svg"" width=""175px"" height=""250px""></img></td>
    <td width=300 height=300><img src=""static/images/cards/3_of_black_moons.svg"" width=""175px"" height=""250px""></img></td>
  </tr>
  <tr height=200>
    <td width=300></td>
    <td width=300><img src=""static/images/keys/m.svg"" width=""35%"" height=""75%""></img></td>
  </tr>
</table>
  ",,,,,,,,,,,,,,,,,,,,,,,,,,,,
32,0,,html-keyboard-response,32,278544,0.0-4.1-3.1,jattk47hp3,2022-09-16 18:28:55.753,63112d166c18ea59f6b05400,1,65,60,68,69,38,male,,,"<p style=""font-size:50px"">You Lose!
No points this round.</p>",,,,,,,,,,,,,,,,,,,,,,,,,,,,
33,0,,html-keyboard-response,33,279051,0.0-4.1-4.1,jattk47hp3,2022-09-16 18:28:55.753,63112d166c18ea59f6b05400,1,65,60,68,69,38,male,,,,,,1.0,learning,1.0,B,,black,,moons,,,,B,black,moons,,0.0,1.0,0,right,1032.3000000119,3.0,0.0,0.0,,,
34,0,,html-keyboard-response,34,280554,0.0-4.2-0.2,jattk47hp3,2022-09-16 18:28:55.753,63112d166c18ea59f6b05400,1,65,60,68,69,38,male,,,"<img src=""static/images/cards/stack_of_red_stars.svg"" width=""175px"" height=""250px""></img>",,,,,,,,,,,,,,,,,,,,,,,,,,,,
35,0,,html-keyboard-response,35,282022,0.0-4.2-1.2,jattk47hp3,2022-09-16 18:28:55.753,63112d166c18ea59f6b05400,1,65,60,68,69,38,male,963.2999999523,,"
  <table>
  <tr height=300>
    <td width=300 height=300><img src=""static/images/cards/back_of_red_stars.svg"" width=""175px"" height=""250px""></img></td>
    <td width=300 height=300><img src=""static/images/cards/back_of_red_stars.svg"" width=""175px"" height=""250px""></img></td>
  </tr>
  <tr height=200>
    <td width=300><img src=""static/images/keys/z.svg"" width=""35%"" height=""75%""></img></td>
    <td width=300><img src=""static/images/keys/m.svg"" width=""35%"" height=""75%""></img></td>
  </tr>
</table>
  ",77.0,1.0,,,,,,,,,,,,,,,,,,,,,,,,,,
36,0,,html-keyboard-response,36,283525,0.0-4.2-2.2,jattk47hp3,2022-09-16 18:28:55.753,63112d166c18ea59f6b05400,1,65,60,68,69,38,male,,,"
  <table>
  <tr height=300>
    <td width=300 height=300><img src=""static/images/cards/back_of_red_stars.svg"" width=""175px"" height=""250px""></img></td>
    <td width=300 height=300><img src=""static/images/cards/7_of_red_stars.svg"" width=""175px"" height=""250px""></img></td>
  </tr>
  <tr height=200>
    <td width=300><img src=""static/images/keys/z.svg"" width=""35%"" height=""75%""></img></td>
    <td width=300><img src=""static/images/keys/m.svg"" width=""35%"" height=""75%""></img></td>
  </tr>
</table>
  ",,,,,,,,,,,,,,,,,,,,,,,,,,,,
37,0,,html-keyboard-response,37,285036,0.0-4.2-3.2,jattk47hp3,2022-09-16 18:28:55.753,63112d166c18ea59f6b05400,1,65,60,68,69,38,male,,,"<p style=""font-size:50px"">You win!
+10 points this round!</p>",,,,,,,,,,,,,,,,,,,,,,,,,,,,
38,0,,html-keyboard-response,38,285542,0.0-4.2-4.2,jattk47hp3,2022-09-16 18:28:55.753,63112d166c18ea59f6b05400,1,65,60,68,69,38,male,,,,,,1.0,learning,2.0,C,,red,,stars,,,,C,red,stars,,1.0,0.0,NA,right,963.2999999523,7.0,1.0,1.0,,,
39,0,,html-keyboard-response,39,287046,0.0-4.3-0.3,jattk47hp3,2022-09-16 18:28:55.753,63112d166c18ea59f6b05400,1,65,60,68,69,38,male,,,"<img src=""static/images/cards/stack_of_black_stars.svg"" width=""175px"" height=""250px""></img>",,,,,,,,,,,,,,,,,,,,,,,,,,,,
40,0,,html-keyboard-response,40,287897,0.0-4.3-1.3,jattk47hp3,2022-09-16 18:28:55.753,63112d166c18ea59f6b05400,1,65,60,68,69,38,male,345.0999999642,,"
  <table>
  <tr height=300>
    <td width=300 height=300><img src=""static/images/cards/back_of_black_stars.svg"" width=""175px"" height=""250px""></img></td>
    <td width=300 height=300><img src=""static/images/cards/back_of_black_stars.svg"" width=""175px"" height=""250px""></img></td>
  </tr>
  <tr height=200>
    <td width=300><img src=""static/images/keys/z.svg"" width=""35%"" height=""75%""></img></td>
    <td width=300></td>
  </tr>
</table>
  ",90.0,1.0,,,,,,,,,,,,,,,,,,,,,,,,,,
41,0,,html-keyboard-response,41,289403,0.0-4.3-2.3,jattk47hp3,2022-09-16 18:28:55.753,63112d166c18ea59f6b05400,1,65,60,68,69,38,male,,,"
  <table>
  <tr height=300>
    <td width=300 height=300><img src=""static/images/cards/2_of_black_stars.svg"" width=""175px"" height=""250px""></img></td>
    <td width=300 height=300><img src=""static/images/cards/back_of_black_stars.svg"" width=""175px"" height=""250px""></img></td>
  </tr>
  <tr height=200>
    <td width=300><img src=""static/images/keys/z.svg"" width=""35%"" height=""75%""></img></td>
    <td width=300></td>
  </tr>
</table>
  ",,,,,,,,,,,,,,,,,,,,,,,,,,,,
42,0,,html-keyboard-response,42,290911,0.0-4.3-3.3,jattk47hp3,2022-09-16 18:28:55.753,63112d166c18ea59f6b05400,1,65,60,68,69,38,male,,,"<p style=""font-size:50px"">You Lose!
No points this round.</p>",,,,,,,,,,,,,,,,,,,,,,,,,,,,
43,0,,html-keyboard-response,43,291422,0.0-4.3-4.3,jattk47hp3,2022-09-16 18:28:55.753,63112d166c18ea59f6b05400,1,65,60,68,69,38,male,,,,,,1.0,learning,3.0,D,,black,,stars,,,,D,black,stars,,0.0,0.0,1,left,345.0999999642,2.0,0.0,0.0,,,
44,0,,html-keyboard-response,44,292928,0.0-4.4-0.4,jattk47hp3,2022-09-16 18:28:55.753,63112d166c18ea59f6b05400,1,65,60,68,69,38,male,,,"<img src=""static/images/cards/stack_of_red_bolts.svg"" width=""175px"" height=""250px""></img>",,,,,,,,,,,,,,,,,,,,,,,,,,,,
45,0,,html-keyboard-response,45,293737,0.0-4.4-1.4,jattk47hp3,2022-09-16 18:28:55.753,63112d166c18ea59f6b05400,1,65,60,68,69,38,male,301.5999999642,,"
  <table>
  <tr height=300>
    <td width=300 height=300><img src=""static/images/cards/back_of_red_bolts.svg"" width=""175px"" height=""250px""></img></td>
    <td width=300 height=300><img src=""static/images/cards/back_of_red_bolts.svg"" width=""175px"" height=""250px""></img></td>
  </tr>
  <tr height=200>
    <td width=300><img src=""static/images/keys/z.svg"" width=""35%"" height=""75%""></img></td>
    <td width=300><img src=""static/images/keys/m.svg"" width=""35%"" height=""75%""></img></td>
  </tr>
</table>
  ",77.0,1.0,,,,,,,,,,,,,,,,,,,,,,,,,,
46,0,,html-keyboard-response,46,295244,0.0-4.4-2.4,jattk47hp3,2022-09-16 18:28:55.753,63112d166c18ea59f6b05400,1,65,60,68,69,38,male,,,"
  <table>
  <tr height=300>
    <td width=300 height=300><img src=""static/images/cards/back_of_red_bolts.svg"" width=""175px"" height=""250px""></img></td>
    <td width=300 height=300><img src=""static/images/cards/7_of_red_bolts.svg"" width=""175px"" height=""250px""></img></td>
  </tr>
  <tr height=200>
    <td width=300><img src=""static/images/keys/z.svg"" width=""35%"" height=""75%""></img></td>
    <td width=300><img src=""static/images/keys/m.svg"" width=""35%"" height=""75%""></img></td>
  </tr>
</table>
  ",,,,,,,,,,,,,,,,,,,,,,,,,,,,
47,0,,html-keyboard-response,47,296751,0.0-4.4-3.4,jattk47hp3,2022-09-16 18:28:55.753,63112d166c18ea59f6b05400,1,65,60,68,69,38,male,,,"<p style=""font-size:50px"">You win!
+10 points this round!</p>",,,,,,,,,,,,,,,,,,,,,,,,,,,,
48,0,,html-keyboard-response,48,297261,0.0-4.4-4.4,jattk47hp3,2022-09-16 18:28:55.753,63112d166c18ea59f6b05400,1,65,60,68,69,38,male,,,,,,1.0,learning,4.0,Xc,,red,,bolts,,,,Xc,red,bolts,,1.0,0.0,NA,right,301.5999999642,7.0,1.0,1.0,,,
49,0,,html-keyboard-response,49,298764,0.0-4.5-0.5,jattk47hp3,2022-09-16 18:28:55.753,63112d166c18ea59f6b05400,1,65,60,68,69,38,male,,,"<img src=""static/images/cards/stack_of_black_bolts.svg"" width=""175px"" height=""250px""></img>",,,,,,,,,,,,,,,,,,,,,,,,,,,,
50,0,,html-keyboard-response,50,299723,0.0-4.5-1.5,jattk47hp3,2022-09-16 18:28:55.753,63112d166c18ea59f6b05400,1,65,60,68,69,38,male,454.3999999762,,"
  <table>
  <tr height=300>
    <td width=300 height=300><img src=""static/images/cards/back_of_black_bolts.svg"" width=""175px"" height=""250px""></img></td>
    <td width=300 height=300><img src=""static/images/cards/back_of_black_bolts.svg"" width=""175px"" height=""250px""></img></td>
  </tr>
  <tr height=200>
    <td width=300></td>
    <td width=300><img src=""static/images/keys/m.svg"" width=""35%"" height=""75%""></img></td>
  </tr>
</table>
  ",77.0,1.0,,,,,,,,,,,,,,,,,,,,,,,,,,
51,0,,html-keyboard-response,51,301229,0.0-4.5-2.5,jattk47hp3,2022-09-16 18:28:55.753,63112d166c18ea59f6b05400,1,65,60,68,69,38,male,,,"
  <table>
  <tr height=300>
    <td width=300 height=300><img src=""static/images/cards/back_of_black_bolts.svg"" width=""175px"" height=""250px""></img></td>
    <td width=300 height=300><img src=""static/images/cards/3_of_black_bolts.svg"" width=""175px"" height=""250px""></img></td>
  </tr>
  <tr height=200>
    <td width=300></td>
    <td width=300><img src=""static/images/keys/m.svg"" width=""35%"" height=""75%""></img></td>
  </tr>
</table>
  ",,,,,,,,,,,,,,,,,,,,,,,,,,,,
52,0,,html-keyboard-response,52,302740,0.0-4.5-3.5,jattk47hp3,2022-09-16 18:28:55.753,63112d166c18ea59f6b05400,1,65,60,68,69,38,male,,,"<p style=""font-size:50px"">You win!
+10 points this round!</p>",,,,,,,,,,,,,,,,,,,,,,,,,,,,
53,0,,html-keyboard-response,53,303251,0.0-4.5-4.5,jattk47hp3,2022-09-16 18:28:55.753,63112d166c18ea59f6b05400,1,65,60,68,69,38,male,,,,,,1.0,learning,5.0,Xnc,,black,,bolts,,,,Xnc,black,bolts,,0.0,0.0,0,right,454.3999999762,3.0,0.0,1.0,,,
54,0,,html-keyboard-response,54,304757,0.0-4.6-0.6,jattk47hp3,2022-09-16 18:28:55.753,63112d166c18ea59f6b05400,1,65,60,68,69,38,male,,,"<img src=""static/images/cards/stack_of_red_moons.svg"" width=""175px"" height=""250px""></img>",,,,,,,,,,,,,,,,,,,,,,,,,,,,
55,0,,html-keyboard-response,55,305787,0.0-4.6-1.6,jattk47hp3,2022-09-16 18:28:55.753,63112d166c18ea59f6b05400,1,65,60,68,69,38,male,522.5,,"
  <table>
  <tr height=300>
    <td width=300 height=300><img src=""static/images/cards/back_of_red_moons.svg"" width=""175px"" height=""250px""></img></td>
    <td width=300 height=300><img src=""static/images/cards/back_of_red_moons.svg"" width=""175px"" height=""250px""></img></td>
  </tr>
  <tr height=200>
    <td width=300><img src=""static/images/keys/z.svg"" width=""35%"" height=""75%""></img></td>
    <td width=300><img src=""static/images/keys/m.svg"" width=""35%"" height=""75%""></img></td>
  </tr>
</table>
  ",90.0,1.0,,,,,,,,,,,,,,,,,,,,,,,,,,
56,0,,html-keyboard-response,56,307288,0.0-4.6-2.6,jattk47hp3,2022-09-16 18:28:55.753,63112d166c18ea59f6b05400,1,65,60,68,69,38,male,,,"
  <table>
  <tr height=300>
    <td width=300 height=300><img src=""static/images/cards/6_of_red_moons.svg"" width=""175px"" height=""250px""></img></td>
    <td width=300 height=300><img src=""static/images/cards/back_of_red_moons.svg"" width=""175px"" height=""250px""></img></td>
  </tr>
  <tr height=200>
    <td width=300><img src=""static/images/keys/z.svg"" width=""35%"" height=""75%""></img></td>
    <td width=300><img src=""static/images/keys/m.svg"" width=""35%"" height=""75%""></img></td>
  </tr>
</table>
  ",,,,,,,,,,,,,,,,,,,,,,,,,,,,
57,0,,html-keyboard-response,57,308797,0.0-4.6-3.6,jattk47hp3,2022-09-16 18:28:55.753,63112d166c18ea59f6b05400,1,65,60,68,69,38,male,,,"<p style=""font-size:50px"">You win!
+10 points this round!</p>",,,,,,,,,,,,,,,,,,,,,,,,,,,,
58,0,,html-keyboard-response,58,309306,0.0-4.6-4.6,jattk47hp3,2022-09-16 18:28:55.753,63112d166c18ea59f6b05400,1,65,60,68,69,38,male,,,,,,1.0,learning,6.0,A,,red,,moons,,,,A,red,moons,,1.0,1.0,NA,left,522.5,6.0,1.0,1.0,,,
59,0,,html-keyboard-response,59,310807,0.0-4.7-0.7,jattk47hp3,2022-09-16 18:28:55.753,63112d166c18ea59f6b05400,1,65,60,68,69,38,male,,,"<img src=""static/images/cards/stack_of_black_moons.svg"" width=""175px"" height=""250px""></img>",,,,,,,,,,,,,,,,,,,,,,,,,,,,
60,0,,html-keyboard-response,60,311633,0.0-4.7-1.7,jattk47hp3,2022-09-16 18:28:55.753,63112d166c18ea59f6b05400,1,65,60,68,69,38,male,324.0,,"
  <table>
  <tr height=300>
    <td width=300 height=300><img src=""static/images/cards/back_of_black_moons.svg"" width=""175px"" height=""250px""></img></td>
    <td width=300 height=300><img src=""static/images/cards/back_of_black_moons.svg"" width=""175px"" height=""250px""></img></td>
  </tr>
  <tr height=200>
    <td width=300></td>
    <td width=300><img src=""static/images/keys/m.svg"" width=""35%"" height=""75%""></img></td>
  </tr>
</table>
  ",77.0,1.0,,,,,,,,,,,,,,,,,,,,,,,,,,
61,0,,html-keyboard-response,61,313136,0.0-4.7-2.7,jattk47hp3,2022-09-16 18:28:55.753,63112d166c18ea59f6b05400,1,65,60,68,69,38,male,,,"
  <table>
  <tr height=300>
    <td width=300 height=300><img src=""static/images/cards/back_of_black_moons.svg"" width=""175px"" height=""250px""></img></td>
    <td width=300 height=300><img src=""static/images/cards/9_of_black_moons.svg"" width=""175px"" height=""250px""></img></td>
  </tr>
  <tr height=200>
    <td width=300></td>
    <td width=300><img src=""static/images/keys/m.svg"" width=""35%"" height=""75%""></img></td>
  </tr>
</table>
  ",,,,,,,,,,,,,,,,,,,,,,,,,,,,
62,0,,html-keyboard-response,62,314646,0.0-4.7-3.7,jattk47hp3,2022-09-16 18:28:55.753,63112d166c18ea59f6b05400,1,65,60,68,69,38,male,,,"<p style=""font-size:50px"">You win!
+10 points this round!</p>",,,,,,,,,,,,,,,,,,,,,,,,,,,,
63,0,,html-keyboard-response,63,315152,0.0-4.7-4.7,jattk47hp3,2022-09-16 18:28:55.753,63112d166c18ea59f6b05400,1,65,60,68,69,38,male,,,,,,1.0,learning,7.0,B,,black,,moons,,,,B,black,moons,,0.0,1.0,0,right,324.0,9.0,1.0,1.0,,,
64,0,,html-keyboard-response,64,316656,0.0-4.8-0.8,jattk47hp3,2022-09-16 18:28:55.753,63112d166c18ea59f6b05400,1,65,60,68,69,38,male,,,"<img src=""static/images/cards/stack_of_red_stars.svg"" width=""175px"" height=""250px""></img>",,,,,,,,,,,,,,,,,,,,,,,,,,,,
65,0,,html-keyboard-response,65,317736,0.0-4.8-1.8,jattk47hp3,2022-09-16 18:28:55.753,63112d166c18ea59f6b05400,1,65,60,68,69,38,male,573.1999999881,,"
  <table>
  <tr height=300>
    <td width=300 height=300><img src=""static/images/cards/back_of_red_stars.svg"" width=""175px"" height=""250px""></img></td>
    <td width=300 height=300><img src=""static/images/cards/back_of_red_stars.svg"" width=""175px"" height=""250px""></img></td>
  </tr>
  <tr height=200>
    <td width=300><img src=""static/images/keys/z.svg"" width=""35%"" height=""75%""></img></td>
    <td width=300><img src=""static/images/keys/m.svg"" width=""35%"" height=""75%""></img></td>
  </tr>
</table>
  ",90.0,1.0,,,,,,,,,,,,,,,,,,,,,,,,,,
66,0,,html-keyboard-response,66,319240,0.0-4.8-2.8,jattk47hp3,2022-09-16 18:28:55.753,63112d166c18ea59f6b05400,1,65,60,68,69,38,male,,,"
  <table>
  <tr height=300>
    <td width=300 height=300><img src=""static/images/cards/6_of_red_stars.svg"" width=""175px"" height=""250px""></img></td>
    <td width=300 height=300><img src=""static/images/cards/back_of_red_stars.svg"" width=""175px"" height=""250px""></img></td>
  </tr>
  <tr height=200>
    <td width=300><img src=""static/images/keys/z.svg"" width=""35%"" height=""75%""></img></td>
    <td width=300><img src=""static/images/keys/m.svg"" width=""35%"" height=""75%""></img></td>
  </tr>
</table>
  ",,,,,,,,,,,,,,,,,,,,,,,,,,,,
67,0,,html-keyboard-response,67,320747,0.0-4.8-3.8,jattk47hp3,2022-09-16 18:28:55.753,63112d166c18ea59f6b05400,1,65,60,68,69,38,male,,,"<p style=""font-size:50px"">You Lose!
No points this round.</p>",,,,,,,,,,,,,,,,,,,,,,,,,,,,
68,0,,html-keyboard-response,68,321256,0.0-4.8-4.8,jattk47hp3,2022-09-16 18:28:55.753,63112d166c18ea59f6b05400,1,65,60,68,69,38,male,,,,,,1.0,learning,8.0,C,,red,,stars,,,,C,red,stars,,1.0,0.0,NA,left,573.1999999881,6.0,1.0,0.0,,,
69,0,,html-keyboard-response,69,322760,0.0-4.9-0.9,jattk47hp3,2022-09-16 18:28:55.753,63112d166c18ea59f6b05400,1,65,60,68,69,38,male,,,"<img src=""static/images/cards/stack_of_black_stars.svg"" width=""175px"" height=""250px""></img>",,,,,,,,,,,,,,,,,,,,,,,,,,,,
70,0,,html-keyboard-response,70,325296,0.0-4.9-1.9,jattk47hp3,2022-09-16 18:28:55.753,63112d166c18ea59f6b05400,1,65,60,68,69,38,male,2033.1000000238,,"
  <table>
  <tr height=300>
    <td width=300 height=300><img src=""static/images/cards/back_of_black_stars.svg"" width=""175px"" height=""250px""></img></td>
    <td width=300 height=300><img src=""static/images/cards/back_of_black_stars.svg"" width=""175px"" height=""250px""></img></td>
  </tr>
  <tr height=200>
    <td width=300><img src=""static/images/keys/z.svg"" width=""35%"" height=""75%""></img></td>
    <td width=300></td>
  </tr>
</table>
  ",90.0,2.0,,,,,,,,,,,,,,,,,,,,,,,,,,
71,0,,html-keyboard-response,71,326802,0.0-4.9-2.9,jattk47hp3,2022-09-16 18:28:55.753,63112d166c18ea59f6b05400,1,65,60,68,69,38,male,,,"
  <table>
  <tr height=300>
    <td width=300 height=300><img src=""static/images/cards/3_of_black_stars.svg"" width=""175px"" height=""250px""></img></td>
    <td width=300 height=300><img src=""static/images/cards/back_of_black_stars.svg"" width=""175px"" height=""250px""></img></td>
  </tr>
  <tr height=200>
    <td width=300><img src=""static/images/keys/z.svg"" width=""35%"" height=""75%""></img></td>
    <td width=300></td>
  </tr>
</table>
  ",,,,,,,,,,,,,,,,,,,,,,,,,,,,
72,0,,html-keyboard-response,72,328312,0.0-4.9-3.9,jattk47hp3,2022-09-16 18:28:55.753,63112d166c18ea59f6b05400,1,65,60,68,69,38,male,,,"<p style=""font-size:50px"">You win!
+10 points this round!</p>",,,,,,,,,,,,,,,,,,,,,,,,,,,,
73,0,,html-keyboard-response,73,328821,0.0-4.9-4.9,jattk47hp3,2022-09-16 18:28:55.753,63112d166c18ea59f6b05400,1,65,60,68,69,38,male,,,,,,1.0,learning,9.0,D,,black,,stars,,,,D,black,stars,,0.0,0.0,1,left,2033.1000000238,3.0,0.0,1.0,,,
74,0,,html-keyboard-response,74,330326,0.0-4.10-0.10,jattk47hp3,2022-09-16 18:28:55.753,63112d166c18ea59f6b05400,1,65,60,68,69,38,male,,,"<img src=""static/images/cards/stack_of_red_bolts.svg"" width=""175px"" height=""250px""></img>",,,,,,,,,,,,,,,,,,,,,,,,,,,,
75,0,,html-keyboard-response,75,331572,0.0-4.10-1.10,jattk47hp3,2022-09-16 18:28:55.753,63112d166c18ea59f6b05400,1,65,60,68,69,38,male,745.3000000119,,"
  <table>
  <tr height=300>
    <td width=300 height=300><img src=""static/images/cards/back_of_red_bolts.svg"" width=""175px"" height=""250px""></img></td>
    <td width=300 height=300><img src=""static/images/cards/back_of_red_bolts.svg"" width=""175px"" height=""250px""></img></td>
  </tr>
  <tr height=200>
    <td width=300><img src=""static/images/keys/z.svg"" width=""35%"" height=""75%""></img></td>
    <td width=300><img src=""static/images/keys/m.svg"" width=""35%"" height=""75%""></img></td>
  </tr>
</table>
  ",77.0,1.0,,,,,,,,,,,,,,,,,,,,,,,,,,
76,0,,html-keyboard-response,76,333079,0.0-4.10-2.10,jattk47hp3,2022-09-16 18:28:55.753,63112d166c18ea59f6b05400,1,65,60,68,69,38,male,,,"
  <table>
  <tr height=300>
    <td width=300 height=300><img src=""static/images/cards/back_of_red_bolts.svg"" width=""175px"" height=""250px""></img></td>
    <td width=300 height=300><img src=""static/images/cards/3_of_red_bolts.svg"" width=""175px"" height=""250px""></img></td>
  </tr>
  <tr height=200>
    <td width=300><img src=""static/images/keys/z.svg"" width=""35%"" height=""75%""></img></td>
    <td width=300><img src=""static/images/keys/m.svg"" width=""35%"" height=""75%""></img></td>
  </tr>
</table>
  ",,,,,,,,,,,,,,,,,,,,,,,,,,,,
77,0,,html-keyboard-response,77,334585,0.0-4.10-3.10,jattk47hp3,2022-09-16 18:28:55.753,63112d166c18ea59f6b05400,1,65,60,68,69,38,male,,,"<p style=""font-size:50px"">You win!
+10 points this round!</p>",,,,,,,,,,,,,,,,,,,,,,,,,,,,
78,0,,html-keyboard-response,78,335096,0.0-4.10-4.10,jattk47hp3,2022-09-16 18:28:55.753,63112d166c18ea59f6b05400,1,65,60,68,69,38,male,,,,,,1.0,learning,10.0,Xc,,red,,bolts,,,,Xc,red,bolts,,1.0,0.0,NA,right,745.3000000119,3.0,0.0,1.0,,,
79,0,,html-keyboard-response,79,336602,0.0-4.11-0.11,jattk47hp3,2022-09-16 18:28:55.753,63112d166c18ea59f6b05400,1,65,60,68,69,38,male,,,"<img src=""static/images/cards/stack_of_black_bolts.svg"" width=""175px"" height=""250px""></img>",,,,,,,,,,,,,,,,,,,,,,,,,,,,
80,0,,html-keyboard-response,80,337661,0.0-4.11-1.11,jattk47hp3,2022-09-16 18:28:55.753,63112d166c18ea59f6b05400,1,65,60,68,69,38,male,554.1999999881,,"
  <table>
  <tr height=300>
    <td width=300 height=300><img src=""static/images/cards/back_of_black_bolts.svg"" width=""175px"" height=""250px""></img></td>
    <td width=300 height=300><img src=""static/images/cards/back_of_black_bolts.svg"" width=""175px"" height=""250px""></img></td>
  </tr>
  <tr height=200>
    <td width=300></td>
    <td width=300><img src=""static/images/keys/m.svg"" width=""35%"" height=""75%""></img></td>
  </tr>
</table>
  ",77.0,1.0,,,,,,,,,,,,,,,,,,,,,,,,,,
81,0,,html-keyboard-response,81,339164,0.0-4.11-2.11,jattk47hp3,2022-09-16 18:28:55.753,63112d166c18ea59f6b05400,1,65,60,68,69,38,male,,,"
  <table>
  <tr height=300>
    <td width=300 height=300><img src=""static/images/cards/back_of_black_bolts.svg"" width=""175px"" height=""250px""></img></td>
    <td width=300 height=300><img src=""static/images/cards/7_of_black_bolts.svg"" width=""175px"" height=""250px""></img></td>
  </tr>
  <tr height=200>
    <td width=300></td>
    <td width=300><img src=""static/images/keys/m.svg"" width=""35%"" height=""75%""></img></td>
  </tr>
</table>
  ",,,,,,,,,,,,,,,,,,,,,,,,,,,,
82,0,,html-keyboard-response,82,340670,0.0-4.11-3.11,jattk47hp3,2022-09-16 18:28:55.753,63112d166c18ea59f6b05400,1,65,60,68,69,38,male,,,"<p style=""font-size:50px"">You win!
+10 points this round!</p>",,,,,,,,,,,,,,,,,,,,,,,,,,,,
83,0,,html-keyboard-response,83,341177,0.0-4.11-4.11,jattk47hp3,2022-09-16 18:28:55.753,63112d166c18ea59f6b05400,1,65,60,68,69,38,male,,,,,,1.0,learning,11.0,Xnc,,black,,bolts,,,,Xnc,black,bolts,,0.0,0.0,0,right,554.1999999881,7.0,1.0,1.0,,,
84,0,,html-keyboard-response,84,342680,0.0-4.12-0.12,jattk47hp3,2022-09-16 18:28:55.753,63112d166c18ea59f6b05400,1,65,60,68,69,38,male,,,"<img src=""static/images/cards/stack_of_red_moons.svg"" width=""175px"" height=""250px""></img>",,,,,,,,,,,,,,,,,,,,,,,,,,,,
85,0,,html-keyboard-response,85,343813,0.0-4.12-1.12,jattk47hp3,2022-09-16 18:28:55.753,63112d166c18ea59f6b05400,1,65,60,68,69,38,male,625.8000000119,,"
  <table>
  <tr height=300>
    <td width=300 height=300><img src=""static/images/cards/back_of_red_moons.svg"" width=""175px"" height=""250px""></img></td>
    <td width=300 height=300><img src=""static/images/cards/back_of_red_moons.svg"" width=""175px"" height=""250px""></img></td>
  </tr>
  <tr height=200>
    <td width=300><img src=""static/images/keys/z.svg"" width=""35%"" height=""75%""></img></td>
    <td width=300><img src=""static/images/keys/m.svg"" width=""35%"" height=""75%""></img></td>
  </tr>
</table>
  ",90.0,1.0,,,,,,,,,,,,,,,,,,,,,,,,,,
86,0,,html-keyboard-response,86,345318,0.0-4.12-2.12,jattk47hp3,2022-09-16 18:28:55.753,63112d166c18ea59f6b05400,1,65,60,68,69,38,male,,,"
  <table>
  <tr height=300>
    <td width=300 height=300><img src=""static/images/cards/2_of_red_moons.svg"" width=""175px"" height=""250px""></img></td>
    <td width=300 height=300><img src=""static/images/cards/back_of_red_moons.svg"" width=""175px"" height=""250px""></img></td>
  </tr>
  <tr height=200>
    <td width=300><img src=""static/images/keys/z.svg"" width=""35%"" height=""75%""></img></td>
    <td width=300><img src=""static/images/keys/m.svg"" width=""35%"" height=""75%""></img></td>
  </tr>
</table>
  ",,,,,,,,,,,,,,,,,,,,,,,,,,,,
87,0,,html-keyboard-response,87,346827,0.0-4.12-3.12,jattk47hp3,2022-09-16 18:28:55.753,63112d166c18ea59f6b05400,1,65,60,68,69,38,male,,,"<p style=""font-size:50px"">You Lose!
No points this round.</p>",,,,,,,,,,,,,,,,,,,,,,,,,,,,
88,0,,html-keyboard-response,88,347337,0.0-4.12-4.12,jattk47hp3,2022-09-16 18:28:55.753,63112d166c18ea59f6b05400,1,65,60,68,69,38,male,,,,,,1.0,learning,12.0,A,,red,,moons,,,,A,red,moons,,1.0,1.0,NA,left,625.8000000119,2.0,0.0,0.0,,,
89,0,,html-keyboard-response,89,348843,0.0-4.13-0.13,jattk47hp3,2022-09-16 18:28:55.753,63112d166c18ea59f6b05400,1,65,60,68,69,38,male,,,"<img src=""static/images/cards/stack_of_black_moons.svg"" width=""175px"" height=""250px""></img>",,,,,,,,,,,,,,,,,,,,,,,,,,,,
90,0,,html-keyboard-response,90,349836,0.0-4.13-1.13,jattk47hp3,2022-09-16 18:28:55.753,63112d166c18ea59f6b05400,1,65,60,68,69,38,male,489.1999999881,,"
  <table>
  <tr height=300>
    <td width=300 height=300><img src=""static/images/cards/back_of_black_moons.svg"" width=""175px"" height=""250px""></img></td>
    <td width=300 height=300><img src=""static/images/cards/back_of_black_moons.svg"" width=""175px"" height=""250px""></img></td>
  </tr>
  <tr height=200>
    <td width=300><img src=""static/images/keys/z.svg"" width=""35%"" height=""75%""></img></td>
    <td width=300></td>
  </tr>
</table>
  ",90.0,1.0,,,,,,,,,,,,,,,,,,,,,,,,,,
91,0,,html-keyboard-response,91,351342,0.0-4.13-2.13,jattk47hp3,2022-09-16 18:28:55.753,63112d166c18ea59f6b05400,1,65,60,68,69,38,male,,,"
  <table>
  <tr height=300>
    <td width=300 height=300><img src=""static/images/cards/1_of_black_moons.svg"" width=""175px"" height=""250px""></img></td>
    <td width=300 height=300><img src=""static/images/cards/back_of_black_moons.svg"" width=""175px"" height=""250px""></img></td>
  </tr>
  <tr height=200>
    <td width=300><img src=""static/images/keys/z.svg"" width=""35%"" height=""75%""></img></td>
    <td width=300></td>
  </tr>
</table>
  ",,,,,,,,,,,,,,,,,,,,,,,,,,,,
92,0,,html-keyboard-response,92,352852,0.0-4.13-3.13,jattk47hp3,2022-09-16 18:28:55.753,63112d166c18ea59f6b05400,1,65,60,68,69,38,male,,,"<p style=""font-size:50px"">You Lose!
No points this round.</p>",,,,,,,,,,,,,,,,,,,,,,,,,,,,
93,0,,html-keyboard-response,93,353363,0.0-4.13-4.13,jattk47hp3,2022-09-16 18:28:55.753,63112d166c18ea59f6b05400,1,65,60,68,69,38,male,,,,,,1.0,learning,13.0,B,,black,,moons,,,,B,black,moons,,0.0,1.0,1,left,489.1999999881,1.0,0.0,0.0,,,
94,0,,html-keyboard-response,94,354866,0.0-4.14-0.14,jattk47hp3,2022-09-16 18:28:55.753,63112d166c18ea59f6b05400,1,65,60,68,69,38,male,,,"<img src=""static/images/cards/stack_of_red_stars.svg"" width=""175px"" height=""250px""></img>",,,,,,,,,,,,,,,,,,,,,,,,,,,,
95,0,,html-keyboard-response,95,355833,0.0-4.14-1.14,jattk47hp3,2022-09-16 18:28:55.753,63112d166c18ea59f6b05400,1,65,60,68,69,38,male,465.3999999762,,"
  <table>
  <tr height=300>
    <td width=300 height=300><img src=""static/images/cards/back_of_red_stars.svg"" width=""175px"" height=""250px""></img></td>
    <td width=300 height=300><img src=""static/images/cards/back_of_red_stars.svg"" width=""175px"" height=""250px""></img></td>
  </tr>
  <tr height=200>
    <td width=300><img src=""static/images/keys/z.svg"" width=""35%"" height=""75%""></img></td>
    <td width=300><img src=""static/images/keys/m.svg"" width=""35%"" height=""75%""></img></td>
  </tr>
</table>
  ",77.0,1.0,,,,,,,,,,,,,,,,,,,,,,,,,,
96,0,,html-keyboard-response,96,357335,0.0-4.14-2.14,jattk47hp3,2022-09-16 18:28:55.753,63112d166c18ea59f6b05400,1,65,60,68,69,38,male,,,"
  <table>
  <tr height=300>
    <td width=300 height=300><img src=""static/images/cards/back_of_red_stars.svg"" width=""175px"" height=""250px""></img></td>
    <td width=300 height=300><img src=""static/images/cards/3_of_red_stars.svg"" width=""175px"" height=""250px""></img></td>
  </tr>
  <tr height=200>
    <td width=300><img src=""static/images/keys/z.svg"" width=""35%"" height=""75%""></img></td>
    <td width=300><img src=""static/images/keys/m.svg"" width=""35%"" height=""75%""></img></td>
  </tr>
</table>
  ",,,,,,,,,,,,,,,,,,,,,,,,,,,,
97,0,,html-keyboard-response,97,358841,0.0-4.14-3.14,jattk47hp3,2022-09-16 18:28:55.753,63112d166c18ea59f6b05400,1,65,60,68,69,38,male,,,"<p style=""font-size:50px"">You win!
+10 points this round!</p>",,,,,,,,,,,,,,,,,,,,,,,,,,,,
98,0,,html-keyboard-response,98,359346,0.0-4.14-4.14,jattk47hp3,2022-09-16 18:28:55.753,63112d166c18ea59f6b05400,1,65,60,68,69,38,male,,,,,,1.0,learning,14.0,C,,red,,stars,,,,C,red,stars,,1.0,0.0,NA,right,465.3999999762,3.0,0.0,1.0,,,
99,0,,html-keyboard-response,99,360848,0.0-4.15-0.15,jattk47hp3,2022-09-16 18:28:55.753,63112d166c18ea59f6b05400,1,65,60,68,69,38,male,,,"<img src=""static/images/cards/stack_of_black_stars.svg"" width=""175px"" height=""250px""></img>",,,,,,,,,,,,,,,,,,,,,,,,,,,,
100,0,,html-keyboard-response,100,361822,0.0-4.15-1.15,jattk47hp3,2022-09-16 18:28:55.753,63112d166c18ea59f6b05400,1,65,60,68,69,38,male,467.1999999881,,"
  <table>
  <tr height=300>
    <td width=300 height=300><img src=""static/images/cards/back_of_black_stars.svg"" width=""175px"" height=""250px""></img></td>
    <td width=300 height=300><img src=""static/images/cards/back_of_black_stars.svg"" width=""175px"" height=""250px""></img></td>
  </tr>
  <tr height=200>
    <td width=300></td>
    <td width=300><img src=""static/images/keys/m.svg"" width=""35%"" height=""75%""></img></td>
  </tr>
</table>
  ",77.0,1.0,,,,,,,,,,,,,,,,,,,,,,,,,,
101,0,,html-keyboard-response,101,363328,0.0-4.15-2.15,jattk47hp3,2022-09-16 18:28:55.753,63112d166c18ea59f6b05400,1,65,60,68,69,38,male,,,"
  <table>
  <tr height=300>
    <td width=300 height=300><img src=""static/images/cards/back_of_black_stars.svg"" width=""175px"" height=""250px""></img></td>
    <td width=300 height=300><img src=""static/images/cards/10_of_black_stars.svg"" width=""175px"" height=""250px""></img></td>
  </tr>
  <tr height=200>
    <td width=300></td>
    <td width=300><img src=""static/images/keys/m.svg"" width=""35%"" height=""75%""></img></td>
  </tr>
</table>
  ",,,,,,,,,,,,,,,,,,,,,,,,,,,,
102,0,,html-keyboard-response,102,364837,0.0-4.15-3.15,jattk47hp3,2022-09-16 18:28:55.753,63112d166c18ea59f6b05400,1,65,60,68,69,38,male,,,"<p style=""font-size:50px"">You Lose!
No points this round.</p>",,,,,,,,,,,,,,,,,,,,,,,,,,,,
103,0,,html-keyboard-response,103,365347,0.0-4.15-4.15,jattk47hp3,2022-09-16 18:28:55.753,63112d166c18ea59f6b05400,1,65,60,68,69,38,male,,,,,,1.0,learning,15.0,D,,black,,stars,,,,D,black,stars,,0.0,0.0,0,right,467.1999999881,10.0,1.0,0.0,,,
104,0,,html-keyboard-response,104,366854,0.0-4.16-0.16,jattk47hp3,2022-09-16 18:28:55.753,63112d166c18ea59f6b05400,1,65,60,68,69,38,male,,,"<img src=""static/images/cards/stack_of_red_bolts.svg"" width=""175px"" height=""250px""></img>",,,,,,,,,,,,,,,,,,,,,,,,,,,,
105,0,,html-keyboard-response,105,368163,0.0-4.16-1.16,jattk47hp3,2022-09-16 18:28:55.753,63112d166c18ea59f6b05400,1,65,60,68,69,38,male,805.0,,"
  <table>
  <tr height=300>
    <td width=300 height=300><img src=""static/images/cards/back_of_red_bolts.svg"" width=""175px"" height=""250px""></img></td>
    <td width=300 height=300><img src=""static/images/cards/back_of_red_bolts.svg"" width=""175px"" height=""250px""></img></td>
  </tr>
  <tr height=200>
    <td width=300><img src=""static/images/keys/z.svg"" width=""35%"" height=""75%""></img></td>
    <td width=300><img src=""static/images/keys/m.svg"" width=""35%"" height=""75%""></img></td>
  </tr>
</table>
  ",90.0,1.0,,,,,,,,,,,,,,,,,,,,,,,,,,
106,0,,html-keyboard-response,106,369665,0.0-4.16-2.16,jattk47hp3,2022-09-16 18:28:55.753,63112d166c18ea59f6b05400,1,65,60,68,69,38,male,,,"
  <table>
  <tr height=300>
    <td width=300 height=300><img src=""static/images/cards/1_of_red_bolts.svg"" width=""175px"" height=""250px""></img></td>
    <td width=300 height=300><img src=""static/images/cards/back_of_red_bolts.svg"" width=""175px"" height=""250px""></img></td>
  </tr>
  <tr height=200>
    <td width=300><img src=""static/images/keys/z.svg"" width=""35%"" height=""75%""></img></td>
    <td width=300><img src=""static/images/keys/m.svg"" width=""35%"" height=""75%""></img></td>
  </tr>
</table>
  ",,,,,,,,,,,,,,,,,,,,,,,,,,,,
107,0,,html-keyboard-response,107,371173,0.0-4.16-3.16,jattk47hp3,2022-09-16 18:28:55.753,63112d166c18ea59f6b05400,1,65,60,68,69,38,male,,,"<p style=""font-size:50px"">You win!
+10 points this round!</p>",,,,,,,,,,,,,,,,,,,,,,,,,,,,
108,0,,html-keyboard-response,108,371679,0.0-4.16-4.16,jattk47hp3,2022-09-16 18:28:55.753,63112d166c18ea59f6b05400,1,65,60,68,69,38,male,,,,,,1.0,learning,16.0,Xc,,red,,bolts,,,,Xc,red,bolts,,1.0,0.0,NA,left,805.0,1.0,0.0,1.0,,,
109,0,,html-keyboard-response,109,373180,0.0-4.17-0.17,jattk47hp3,2022-09-16 18:28:55.753,63112d166c18ea59f6b05400,1,65,60,68,69,38,male,,,"<img src=""static/images/cards/stack_of_black_bolts.svg"" width=""175px"" height=""250px""></img>",,,,,,,,,,,,,,,,,,,,,,,,,,,,
110,0,,html-keyboard-response,110,374368,0.0-4.17-1.17,jattk47hp3,2022-09-16 18:28:55.753,63112d166c18ea59f6b05400,1,65,60,68,69,38,male,686.1000000238,,"
  <table>
  <tr height=300>
    <td width=300 height=300><img src=""static/images/cards/back_of_black_bolts.svg"" width=""175px"" height=""250px""></img></td>
    <td width=300 height=300><img src=""static/images/cards/back_of_black_bolts.svg"" width=""175px"" height=""250px""></img></td>
  </tr>
  <tr height=200>
    <td width=300><img src=""static/images/keys/z.svg"" width=""35%"" height=""75%""></img></td>
    <td width=300></td>
  </tr>
</table>
  ",90.0,1.0,,,,,,,,,,,,,,,,,,,,,,,,,,
111,0,,html-keyboard-response,111,375874,0.0-4.17-2.17,jattk47hp3,2022-09-16 18:28:55.753,63112d166c18ea59f6b05400,1,65,60,68,69,38,male,,,"
  <table>
  <tr height=300>
    <td width=300 height=300><img src=""static/images/cards/2_of_black_bolts.svg"" width=""175px"" height=""250px""></img></td>
    <td width=300 height=300><img src=""static/images/cards/back_of_black_bolts.svg"" width=""175px"" height=""250px""></img></td>
  </tr>
  <tr height=200>
    <td width=300><img src=""static/images/keys/z.svg"" width=""35%"" height=""75%""></img></td>
    <td width=300></td>
  </tr>
</table>
  ",,,,,,,,,,,,,,,,,,,,,,,,,,,,
112,0,,html-keyboard-response,112,377375,0.0-4.17-3.17,jattk47hp3,2022-09-16 18:28:55.753,63112d166c18ea59f6b05400,1,65,60,68,69,38,male,,,"<p style=""font-size:50px"">You win!
+10 points this round!</p>",,,,,,,,,,,,,,,,,,,,,,,,,,,,
113,0,,html-keyboard-response,113,377886,0.0-4.17-4.17,jattk47hp3,2022-09-16 18:28:55.753,63112d166c18ea59f6b05400,1,65,60,68,69,38,male,,,,,,1.0,learning,17.0,Xnc,,black,,bolts,,,,Xnc,black,bolts,,0.0,0.0,1,left,686.1000000238,2.0,0.0,1.0,,,
114,0,,html-keyboard-response,114,379392,0.0-4.18-0.18,jattk47hp3,2022-09-16 18:28:55.753,63112d166c18ea59f6b05400,1,65,60,68,69,38,male,,,"<img src=""static/images/cards/stack_of_red_moons.svg"" width=""175px"" height=""250px""></img>",,,,,,,,,,,,,,,,,,,,,,,,,,,,
115,0,,html-keyboard-response,115,380449,0.0-4.18-1.18,jattk47hp3,2022-09-16 18:28:55.753,63112d166c18ea59f6b05400,1,65,60,68,69,38,male,550.3000000119,,"
  <table>
  <tr height=300>
    <td width=300 height=300><img src=""static/images/cards/back_of_red_moons.svg"" width=""175px"" height=""250px""></img></td>
    <td width=300 height=300><img src=""static/images/cards/back_of_red_moons.svg"" width=""175px"" height=""250px""></img></td>
  </tr>
  <tr height=200>
    <td width=300><img src=""static/images/keys/z.svg"" width=""35%"" height=""75%""></img></td>
    <td width=300><img src=""static/images/keys/m.svg"" width=""35%"" height=""75%""></img></td>
  </tr>
</table>
  ",77.0,1.0,,,,,,,,,,,,,,,,,,,,,,,,,,
116,0,,html-keyboard-response,116,381951,0.0-4.18-2.18,jattk47hp3,2022-09-16 18:28:55.753,63112d166c18ea59f6b05400,1,65,60,68,69,38,male,,,"
  <table>
  <tr height=300>
    <td width=300 height=300><img src=""static/images/cards/back_of_red_moons.svg"" width=""175px"" height=""250px""></img></td>
    <td width=300 height=300><img src=""static/images/cards/4_of_red_moons.svg"" width=""175px"" height=""250px""></img></td>
  </tr>
  <tr height=200>
    <td width=300><img src=""static/images/keys/z.svg"" width=""35%"" height=""75%""></img></td>
    <td width=300><img src=""static/images/keys/m.svg"" width=""35%"" height=""75%""></img></td>
  </tr>
</table>
  ",,,,,,,,,,,,,,,,,,,,,,,,,,,,
117,0,,html-keyboard-response,117,383459,0.0-4.18-3.18,jattk47hp3,2022-09-16 18:28:55.753,63112d166c18ea59f6b05400,1,65,60,68,69,38,male,,,"<p style=""font-size:50px"">You Lose!
No points this round.</p>",,,,,,,,,,,,,,,,,,,,,,,,,,,,
118,0,,html-keyboard-response,118,383969,0.0-4.18-4.18,jattk47hp3,2022-09-16 18:28:55.753,63112d166c18ea59f6b05400,1,65,60,68,69,38,male,,,,,,1.0,learning,18.0,A,,red,,moons,,,,A,red,moons,,1.0,1.0,NA,right,550.3000000119,4.0,0.0,0.0,,,
119,0,,html-keyboard-response,119,385473,0.0-4.19-0.19,jattk47hp3,2022-09-16 18:28:55.753,63112d166c18ea59f6b05400,1,65,60,68,69,38,male,,,"<img src=""static/images/cards/stack_of_black_moons.svg"" width=""175px"" height=""250px""></img>",,,,,,,,,,,,,,,,,,,,,,,,,,,,
120,0,,html-keyboard-response,120,386389,0.0-4.19-1.19,jattk47hp3,2022-09-16 18:28:55.753,63112d166c18ea59f6b05400,1,65,60,68,69,38,male,412.8000000119,,"
  <table>
  <tr height=300>
    <td width=300 height=300><img src=""static/images/cards/back_of_black_moons.svg"" width=""175px"" height=""250px""></img></td>
    <td width=300 height=300><img src=""static/images/cards/back_of_black_moons.svg"" width=""175px"" height=""250px""></img></td>
  </tr>
  <tr height=200>
    <td width=300><img src=""static/images/keys/z.svg"" width=""35%"" height=""75%""></img></td>
    <td width=300></td>
  </tr>
</table>
  ",90.0,1.0,,,,,,,,,,,,,,,,,,,,,,,,,,
121,0,,html-keyboard-response,121,387896,0.0-4.19-2.19,jattk47hp3,2022-09-16 18:28:55.753,63112d166c18ea59f6b05400,1,65,60,68,69,38,male,,,"
  <table>
  <tr height=300>
    <td width=300 height=300><img src=""static/images/cards/6_of_black_moons.svg"" width=""175px"" height=""250px""></img></td>
    <td width=300 height=300><img src=""static/images/cards/back_of_black_moons.svg"" width=""175px"" height=""250px""></img></td>
  </tr>
  <tr height=200>
    <td width=300><img src=""static/images/keys/z.svg"" width=""35%"" height=""75%""></img></td>
    <td width=300></td>
  </tr>
</table>
  ",,,,,,,,,,,,,,,,,,,,,,,,,,,,
122,0,,html-keyboard-response,122,389403,0.0-4.19-3.19,jattk47hp3,2022-09-16 18:28:55.753,63112d166c18ea59f6b05400,1,65,60,68,69,38,male,,,"<p style=""font-size:50px"">You win!
+10 points this round!</p>",,,,,,,,,,,,,,,,,,,,,,,,,,,,
123,0,,html-keyboard-response,123,389913,0.0-4.19-4.19,jattk47hp3,2022-09-16 18:28:55.753,63112d166c18ea59f6b05400,1,65,60,68,69,38,male,,,,,,1.0,learning,19.0,B,,black,,moons,,,,B,black,moons,,0.0,1.0,1,left,412.8000000119,6.0,1.0,1.0,,,
124,0,,html-keyboard-response,124,391419,0.0-4.20-0.20,jattk47hp3,2022-09-16 18:28:55.753,63112d166c18ea59f6b05400,1,65,60,68,69,38,male,,,"<img src=""static/images/cards/stack_of_red_stars.svg"" width=""175px"" height=""250px""></img>",,,,,,,,,,,,,,,,,,,,,,,,,,,,
125,0,,html-keyboard-response,125,392458,0.0-4.20-1.20,jattk47hp3,2022-09-16 18:28:55.753,63112d166c18ea59f6b05400,1,65,60,68,69,38,male,535.6000000238,,"
  <table>
  <tr height=300>
    <td width=300 height=300><img src=""static/images/cards/back_of_red_stars.svg"" width=""175px"" height=""250px""></img></td>
    <td width=300 height=300><img src=""static/images/cards/back_of_red_stars.svg"" width=""175px"" height=""250px""></img></td>
  </tr>
  <tr height=200>
    <td width=300><img src=""static/images/keys/z.svg"" width=""35%"" height=""75%""></img></td>
    <td width=300><img src=""static/images/keys/m.svg"" width=""35%"" height=""75%""></img></td>
  </tr>
</table>
  ",77.0,1.0,,,,,,,,,,,,,,,,,,,,,,,,,,
126,0,,html-keyboard-response,126,393960,0.0-4.20-2.20,jattk47hp3,2022-09-16 18:28:55.753,63112d166c18ea59f6b05400,1,65,60,68,69,38,male,,,"
  <table>
  <tr height=300>
    <td width=300 height=300><img src=""static/images/cards/back_of_red_stars.svg"" width=""175px"" height=""250px""></img></td>
    <td width=300 height=300><img src=""static/images/cards/3_of_red_stars.svg"" width=""175px"" height=""250px""></img></td>
  </tr>
  <tr height=200>
    <td width=300><img src=""static/images/keys/z.svg"" width=""35%"" height=""75%""></img></td>
    <td width=300><img src=""static/images/keys/m.svg"" width=""35%"" height=""75%""></img></td>
  </tr>
</table>
  ",,,,,,,,,,,,,,,,,,,,,,,,,,,,
127,0,,html-keyboard-response,127,395462,0.0-4.20-3.20,jattk47hp3,2022-09-16 18:28:55.753,63112d166c18ea59f6b05400,1,65,60,68,69,38,male,,,"<p style=""font-size:50px"">You Lose!
No points this round.</p>",,,,,,,,,,,,,,,,,,,,,,,,,,,,
128,0,,html-keyboard-response,128,395967,0.0-4.20-4.20,jattk47hp3,2022-09-16 18:28:55.753,63112d166c18ea59f6b05400,1,65,60,68,69,38,male,,,,,,1.0,learning,20.0,C,,red,,stars,,,,C,red,stars,,1.0,0.0,NA,right,535.6000000238,3.0,0.0,0.0,,,
129,0,,html-keyboard-response,129,397468,0.0-4.21-0.21,jattk47hp3,2022-09-16 18:28:55.753,63112d166c18ea59f6b05400,1,65,60,68,69,38,male,,,"<img src=""static/images/cards/stack_of_black_stars.svg"" width=""175px"" height=""250px""></img>",,,,,,,,,,,,,,,,,,,,,,,,,,,,
130,0,,html-keyboard-response,130,398709,0.0-4.21-1.21,jattk47hp3,2022-09-16 18:28:55.753,63112d166c18ea59f6b05400,1,65,60,68,69,38,male,734.5999999642,,"
  <table>
  <tr height=300>
    <td width=300 height=300><img src=""static/images/cards/back_of_black_stars.svg"" width=""175px"" height=""250px""></img></td>
    <td width=300 height=300><img src=""static/images/cards/back_of_black_stars.svg"" width=""175px"" height=""250px""></img></td>
  </tr>
  <tr height=200>
    <td width=300></td>
    <td width=300><img src=""static/images/keys/m.svg"" width=""35%"" height=""75%""></img></td>
  </tr>
</table>
  ",77.0,1.0,,,,,,,,,,,,,,,,,,,,,,,,,,
131,0,,html-keyboard-response,131,400215,0.0-4.21-2.21,jattk47hp3,2022-09-16 18:28:55.753,63112d166c18ea59f6b05400,1,65,60,68,69,38,male,,,"
  <table>
  <tr height=300>
    <td width=300 height=300><img src=""static/images/cards/back_of_black_stars.svg"" width=""175px"" height=""250px""></img></td>
    <td width=300 height=300><img src=""static/images/cards/9_of_black_stars.svg"" width=""175px"" height=""250px""></img></td>
  </tr>
  <tr height=200>
    <td width=300></td>
    <td width=300><img src=""static/images/keys/m.svg"" width=""35%"" height=""75%""></img></td>
  </tr>
</table>
  ",,,,,,,,,,,,,,,,,,,,,,,,,,,,
132,0,,html-keyboard-response,132,401721,0.0-4.21-3.21,jattk47hp3,2022-09-16 18:28:55.753,63112d166c18ea59f6b05400,1,65,60,68,69,38,male,,,"<p style=""font-size:50px"">You win!
+10 points this round!</p>",,,,,,,,,,,,,,,,,,,,,,,,,,,,
133,0,,html-keyboard-response,133,402227,0.0-4.21-4.21,jattk47hp3,2022-09-16 18:28:55.753,63112d166c18ea59f6b05400,1,65,60,68,69,38,male,,,,,,1.0,learning,21.0,D,,black,,stars,,,,D,black,stars,,0.0,0.0,0,right,734.5999999642,9.0,1.0,1.0,,,
134,0,,html-keyboard-response,134,403731,0.0-4.22-0.22,jattk47hp3,2022-09-16 18:28:55.753,63112d166c18ea59f6b05400,1,65,60,68,69,38,male,,,"<img src=""static/images/cards/stack_of_red_bolts.svg"" width=""175px"" height=""250px""></img>",,,,,,,,,,,,,,,,,,,,,,,,,,,,
135,0,,html-keyboard-response,135,404893,0.0-4.22-1.22,jattk47hp3,2022-09-16 18:28:55.753,63112d166c18ea59f6b05400,1,65,60,68,69,38,male,655.7999999523,,"
  <table>
  <tr height=300>
    <td width=300 height=300><img src=""static/images/cards/back_of_red_bolts.svg"" width=""175px"" height=""250px""></img></td>
    <td width=300 height=300><img src=""static/images/cards/back_of_red_bolts.svg"" width=""175px"" height=""250px""></img></td>
  </tr>
  <tr height=200>
    <td width=300><img src=""static/images/keys/z.svg"" width=""35%"" height=""75%""></img></td>
    <td width=300><img src=""static/images/keys/m.svg"" width=""35%"" height=""75%""></img></td>
  </tr>
</table>
  ",90.0,1.0,,,,,,,,,,,,,,,,,,,,,,,,,,
136,0,,html-keyboard-response,136,406396,0.0-4.22-2.22,jattk47hp3,2022-09-16 18:28:55.753,63112d166c18ea59f6b05400,1,65,60,68,69,38,male,,,"
  <table>
  <tr height=300>
    <td width=300 height=300><img src=""static/images/cards/10_of_red_bolts.svg"" width=""175px"" height=""250px""></img></td>
    <td width=300 height=300><img src=""static/images/cards/back_of_red_bolts.svg"" width=""175px"" height=""250px""></img></td>
  </tr>
  <tr height=200>
    <td width=300><img src=""static/images/keys/z.svg"" width=""35%"" height=""75%""></img></td>
    <td width=300><img src=""static/images/keys/m.svg"" width=""35%"" height=""75%""></img></td>
  </tr>
</table>
  ",,,,,,,,,,,,,,,,,,,,,,,,,,,,
137,0,,html-keyboard-response,137,407899,0.0-4.22-3.22,jattk47hp3,2022-09-16 18:28:55.753,63112d166c18ea59f6b05400,1,65,60,68,69,38,male,,,"<p style=""font-size:50px"">You win!
+10 points this round!</p>",,,,,,,,,,,,,,,,,,,,,,,,,,,,
138,0,,html-keyboard-response,138,408409,0.0-4.22-4.22,jattk47hp3,2022-09-16 18:28:55.753,63112d166c18ea59f6b05400,1,65,60,68,69,38,male,,,,,,1.0,learning,22.0,Xc,,red,,bolts,,,,Xc,red,bolts,,1.0,0.0,NA,left,655.7999999523,10.0,1.0,1.0,,,
139,0,,html-keyboard-response,139,409912,0.0-4.23-0.23,jattk47hp3,2022-09-16 18:28:55.753,63112d166c18ea59f6b05400,1,65,60,68,69,38,male,,,"<img src=""static/images/cards/stack_of_black_bolts.svg"" width=""175px"" height=""250px""></img>",,,,,,,,,,,,,,,,,,,,,,,,,,,,
140,0,,html-keyboard-response,140,410929,0.0-4.23-1.23,jattk47hp3,2022-09-16 18:28:55.753,63112d166c18ea59f6b05400,1,65,60,68,69,38,male,514.6999999881,,"
  <table>
  <tr height=300>
    <td width=300 height=300><img src=""static/images/cards/back_of_black_bolts.svg"" width=""175px"" height=""250px""></img></td>
    <td width=300 height=300><img src=""static/images/cards/back_of_black_bolts.svg"" width=""175px"" height=""250px""></img></td>
  </tr>
  <tr height=200>
    <td width=300><img src=""static/images/keys/z.svg"" width=""35%"" height=""75%""></img></td>
    <td width=300></td>
  </tr>
</table>
  ",90.0,1.0,,,,,,,,,,,,,,,,,,,,,,,,,,
141,0,,html-keyboard-response,141,412432,0.0-4.23-2.23,jattk47hp3,2022-09-16 18:28:55.753,63112d166c18ea59f6b05400,1,65,60,68,69,38,male,,,"
  <table>
  <tr height=300>
    <td width=300 height=300><img src=""static/images/cards/10_of_black_bolts.svg"" width=""175px"" height=""250px""></img></td>
    <td width=300 height=300><img src=""static/images/cards/back_of_black_bolts.svg"" width=""175px"" height=""250px""></img></td>
  </tr>
  <tr height=200>
    <td width=300><img src=""static/images/keys/z.svg"" width=""35%"" height=""75%""></img></td>
    <td width=300></td>
  </tr>
</table>
  ",,,,,,,,,,,,,,,,,,,,,,,,,,,,
142,0,,html-keyboard-response,142,413942,0.0-4.23-3.23,jattk47hp3,2022-09-16 18:28:55.753,63112d166c18ea59f6b05400,1,65,60,68,69,38,male,,,"<p style=""font-size:50px"">You win!
+10 points this round!</p>",,,,,,,,,,,,,,,,,,,,,,,,,,,,
143,0,,html-keyboard-response,143,414452,0.0-4.23-4.23,jattk47hp3,2022-09-16 18:28:55.753,63112d166c18ea59f6b05400,1,65,60,68,69,38,male,,,,,,1.0,learning,23.0,Xnc,,black,,bolts,,,,Xnc,black,bolts,,0.0,0.0,1,left,514.6999999881,10.0,1.0,1.0,,,
144,0,,call-function,144,414461,0.0-5.0,jattk47hp3,2022-09-16 18:28:55.753,63112d166c18ea59f6b05400,1,65,60,68,69,38,male,,,,,,,,,,,,,,,,,,,,,,,,,,,,,,,
145,0,,image-keyboard-response,145,427383,0.0-6.0-0.0,jattk47hp3,2022-09-16 18:28:55.753,63112d166c18ea59f6b05400,1,65,60,68,69,38,male,12922.1000000238,,static/images/instructions_CB_1/Slide20.png,39.0,,,,,,,,,,,,,,,,,,,,,,,,,,,
146,0,,image-keyboard-response,146,429500,0.0-6.1-0.1,jattk47hp3,2022-09-16 18:28:55.753,63112d166c18ea59f6b05400,1,65,60,68,69,38,male,2116.1000000238,,static/images/instructions_CB_1/Slide21.png,39.0,,,,,,,,,,,,,,,,,,,,,,,,,,,
147,0,,image-keyboard-response,147,433125,0.0-6.2-0.2,jattk47hp3,2022-09-16 18:28:55.753,63112d166c18ea59f6b05400,1,65,60,68,69,38,male,3624.0,,static/images/instructions_CB_1/Slide22.png,39.0,,,,,,,,,,,,,,,,,,,,,,,,,,,
148,0,,image-keyboard-response,148,434363,0.0-6.3-0.3,jattk47hp3,2022-09-16 18:28:55.753,63112d166c18ea59f6b05400,1,65,60,68,69,38,male,1236.2000000477,,static/images/instructions_CB_1/Slide23.png,39.0,,,,,,,,,,,,,,,,,,,,,,,,,,,
149,0,,image-keyboard-response,149,435568,0.0-6.4-0.4,jattk47hp3,2022-09-16 18:28:55.753,63112d166c18ea59f6b05400,1,65,60,68,69,38,male,1204.0999999642,,static/images/instructions_CB_1/Slide24.png,39.0,,,,,,,,,,,,,,,,,,,,,,,,,,,
150,0,,html-keyboard-response,150,437113,0.0-7.0-0.0,jattk47hp3,2022-09-16 18:28:55.753,63112d166c18ea59f6b05400,1,65,60,68,69,38,male,1542.6999999881,,"
  <table>
  <tr height=300>
    <td width=300 height=300><img src=""static/images/cards/stack_of_black_moons.svg"" width=""175px"" height=""250px""></img></td>
    <td width=300 height=300><img src=""static/images/cards/stack_of_red_stars.svg"" width=""175px"" height=""250px""></img></td>
  </tr>
  <tr height=200>
    <td width=300><img src=""static/images/keys/w.svg"" width=""35%"" height=""75%""></img></td>
    <td width=300><img src=""static/images/keys/o.svg"" width=""35%"" height=""75%""></img></td>
  </tr>
</table>
  ",79.0,1.0,,,,,,,,,,,,,,,,,,,,,,,,,,
151,0,,html-keyboard-response,151,439460,0.0-7.0-1.0,jattk47hp3,2022-09-16 18:28:55.753,63112d166c18ea59f6b05400,1,65,60,68,69,38,male,1846.1999999881,,"
  <table>
  <tr height=300>
    <td width=300 height=300><img src=""static/images/cards/back_of_red_stars.svg"" width=""175px"" height=""250px""></img></td>
    <td width=300 height=300><img src=""static/images/cards/back_of_red_stars.svg"" width=""175px"" height=""250px""></img></td>
  </tr>
  <tr height=200>
    <td width=300><img src=""static/images/keys/z.svg"" width=""35%"" height=""75%""></img></td>
    <td width=300><img src=""static/images/keys/m.svg"" width=""35%"" height=""75%""></img></td>
  </tr>
</table>
  ",77.0,1.0,,,,,,,,,,,,,,,,,,,,,,,,,,
152,0,,html-keyboard-response,152,440967,0.0-7.0-2.0,jattk47hp3,2022-09-16 18:28:55.753,63112d166c18ea59f6b05400,1,65,60,68,69,38,male,,,"
  <table>
  <tr height=300>
    <td width=300 height=300><img src=""static/images/cards/back_of_red_stars.svg"" width=""175px"" height=""250px""></img></td>
    <td width=300 height=300><img src=""static/images/cards/2_of_red_stars.svg"" width=""175px"" height=""250px""></img></td>
  </tr>
  <tr height=200>
    <td width=300><img src=""static/images/keys/z.svg"" width=""35%"" height=""75%""></img></td>
    <td width=300><img src=""static/images/keys/m.svg"" width=""35%"" height=""75%""></img></td>
  </tr>
</table>
  ",,,,,,,,,,,,,,,,,,,,,,,,,,,,
153,0,,html-keyboard-response,153,442476,0.0-7.0-3.0,jattk47hp3,2022-09-16 18:28:55.753,63112d166c18ea59f6b05400,1,65,60,68,69,38,male,,,"<p style=""font-size:50px"">You Lose!
No points this round.</p>",,,,,,,,,,,,,,,,,,,,,,,,,,,,
154,0,,html-keyboard-response,154,442985,0.0-7.0-4.0,jattk47hp3,2022-09-16 18:28:55.753,63112d166c18ea59f6b05400,1,65,60,68,69,38,male,,,,,,1.0,choice,0.0,B,C,black,red,moons,stars,B,C,C,red,stars,1542.6999999881,1.0,0.0,NA,right,1846.1999999881,2.0,0.0,0.0,,,
155,0,,html-keyboard-response,155,444219,0.0-7.1-0.1,jattk47hp3,2022-09-16 18:28:55.753,63112d166c18ea59f6b05400,1,65,60,68,69,38,male,1231.1999999881,,"
  <table>
  <tr height=300>
    <td width=300 height=300><img src=""static/images/cards/stack_of_red_moons.svg"" width=""175px"" height=""250px""></img></td>
    <td width=300 height=300><img src=""static/images/cards/stack_of_black_moons.svg"" width=""175px"" height=""250px""></img></td>
  </tr>
  <tr height=200>
    <td width=300><img src=""static/images/keys/w.svg"" width=""35%"" height=""75%""></img></td>
    <td width=300><img src=""static/images/keys/o.svg"" width=""35%"" height=""75%""></img></td>
  </tr>
</table>
  ",87.0,1.0,,,,,,,,,,,,,,,,,,,,,,,,,,
156,0,,html-keyboard-response,156,447377,0.0-7.1-1.1,jattk47hp3,2022-09-16 18:28:55.753,63112d166c18ea59f6b05400,1,65,60,68,69,38,male,2654.3999999762,,"
  <table>
  <tr height=300>
    <td width=300 height=300><img src=""static/images/cards/back_of_red_moons.svg"" width=""175px"" height=""250px""></img></td>
    <td width=300 height=300><img src=""static/images/cards/back_of_red_moons.svg"" width=""175px"" height=""250px""></img></td>
  </tr>
  <tr height=200>
    <td width=300><img src=""static/images/keys/z.svg"" width=""35%"" height=""75%""></img></td>
    <td width=300><img src=""static/images/keys/m.svg"" width=""35%"" height=""75%""></img></td>
  </tr>
</table>
  ",90.0,2.0,,,,,,,,,,,,,,,,,,,,,,,,,,
157,0,,html-keyboard-response,157,448881,0.0-7.1-2.1,jattk47hp3,2022-09-16 18:28:55.753,63112d166c18ea59f6b05400,1,65,60,68,69,38,male,,,"
  <table>
  <tr height=300>
    <td width=300 height=300><img src=""static/images/cards/6_of_red_moons.svg"" width=""175px"" height=""250px""></img></td>
    <td width=300 height=300><img src=""static/images/cards/back_of_red_moons.svg"" width=""175px"" height=""250px""></img></td>
  </tr>
  <tr height=200>
    <td width=300><img src=""static/images/keys/z.svg"" width=""35%"" height=""75%""></img></td>
    <td width=300><img src=""static/images/keys/m.svg"" width=""35%"" height=""75%""></img></td>
  </tr>
</table>
  ",,,,,,,,,,,,,,,,,,,,,,,,,,,,
158,0,,html-keyboard-response,158,450388,0.0-7.1-3.1,jattk47hp3,2022-09-16 18:28:55.753,63112d166c18ea59f6b05400,1,65,60,68,69,38,male,,,"<p style=""font-size:50px"">You win!
+10 points this round!</p>",,,,,,,,,,,,,,,,,,,,,,,,,,,,
159,0,,html-keyboard-response,159,450895,0.0-7.1-4.1,jattk47hp3,2022-09-16 18:28:55.753,63112d166c18ea59f6b05400,1,65,60,68,69,38,male,,,,,,1.0,choice,1.0,A,B,red,black,moons,moons,A,B,A,red,moons,1231.1999999881,1.0,1.0,NA,left,2654.3999999762,6.0,1.0,1.0,,,
160,0,,html-keyboard-response,160,451616,0.0-7.2-0.2,jattk47hp3,2022-09-16 18:28:55.753,63112d166c18ea59f6b05400,1,65,60,68,69,38,male,718.4000000358,,"
  <table>
  <tr height=300>
    <td width=300 height=300><img src=""static/images/cards/stack_of_black_bolts.svg"" width=""175px"" height=""250px""></img></td>
    <td width=300 height=300><img src=""static/images/cards/stack_of_red_moons.svg"" width=""175px"" height=""250px""></img></td>
  </tr>
  <tr height=200>
    <td width=300><img src=""static/images/keys/w.svg"" width=""35%"" height=""75%""></img></td>
    <td width=300><img src=""static/images/keys/o.svg"" width=""35%"" height=""75%""></img></td>
  </tr>
</table>
  ",79.0,1.0,,,,,,,,,,,,,,,,,,,,,,,,,,
161,0,,html-keyboard-response,161,453161,0.0-7.2-1.2,jattk47hp3,2022-09-16 18:28:55.753,63112d166c18ea59f6b05400,1,65,60,68,69,38,male,1042.8000000119,,"
  <table>
  <tr height=300>
    <td width=300 height=300><img src=""static/images/cards/back_of_red_moons.svg"" width=""175px"" height=""250px""></img></td>
    <td width=300 height=300><img src=""static/images/cards/back_of_red_moons.svg"" width=""175px"" height=""250px""></img></td>
  </tr>
  <tr height=200>
    <td width=300><img src=""static/images/keys/z.svg"" width=""35%"" height=""75%""></img></td>
    <td width=300><img src=""static/images/keys/m.svg"" width=""35%"" height=""75%""></img></td>
  </tr>
</table>
  ",77.0,1.0,,,,,,,,,,,,,,,,,,,,,,,,,,
162,0,,html-keyboard-response,162,454663,0.0-7.2-2.2,jattk47hp3,2022-09-16 18:28:55.753,63112d166c18ea59f6b05400,1,65,60,68,69,38,male,,,"
  <table>
  <tr height=300>
    <td width=300 height=300><img src=""static/images/cards/back_of_red_moons.svg"" width=""175px"" height=""250px""></img></td>
    <td width=300 height=300><img src=""static/images/cards/7_of_red_moons.svg"" width=""175px"" height=""250px""></img></td>
  </tr>
  <tr height=200>
    <td width=300><img src=""static/images/keys/z.svg"" width=""35%"" height=""75%""></img></td>
    <td width=300><img src=""static/images/keys/m.svg"" width=""35%"" height=""75%""></img></td>
  </tr>
</table>
  ",,,,,,,,,,,,,,,,,,,,,,,,,,,,
163,0,,html-keyboard-response,163,456173,0.0-7.2-3.2,jattk47hp3,2022-09-16 18:28:55.753,63112d166c18ea59f6b05400,1,65,60,68,69,38,male,,,"<p style=""font-size:50px"">You win!
+10 points this round!</p>",,,,,,,,,,,,,,,,,,,,,,,,,,,,
164,0,,html-keyboard-response,164,456682,0.0-7.2-4.2,jattk47hp3,2022-09-16 18:28:55.753,63112d166c18ea59f6b05400,1,65,60,68,69,38,male,,,,,,1.0,choice,2.0,A,Xnc,black,red,bolts,moons,Xnc,A,A,red,moons,718.4000000358,1.0,1.0,NA,right,1042.8000000119,7.0,1.0,1.0,,,
165,0,,html-keyboard-response,165,457301,0.0-7.3-0.3,jattk47hp3,2022-09-16 18:28:55.753,63112d166c18ea59f6b05400,1,65,60,68,69,38,male,617.1999999881,,"
  <table>
  <tr height=300>
    <td width=300 height=300><img src=""static/images/cards/stack_of_black_stars.svg"" width=""175px"" height=""250px""></img></td>
    <td width=300 height=300><img src=""static/images/cards/stack_of_red_stars.svg"" width=""175px"" height=""250px""></img></td>
  </tr>
  <tr height=200>
    <td width=300><img src=""static/images/keys/w.svg"" width=""35%"" height=""75%""></img></td>
    <td width=300><img src=""static/images/keys/o.svg"" width=""35%"" height=""75%""></img></td>
  </tr>
</table>
  ",79.0,1.0,,,,,,,,,,,,,,,,,,,,,,,,,,
166,0,,html-keyboard-response,166,458598,0.0-7.3-1.3,jattk47hp3,2022-09-16 18:28:55.753,63112d166c18ea59f6b05400,1,65,60,68,69,38,male,790.1999999881,,"
  <table>
  <tr height=300>
    <td width=300 height=300><img src=""static/images/cards/back_of_red_stars.svg"" width=""175px"" height=""250px""></img></td>
    <td width=300 height=300><img src=""static/images/cards/back_of_red_stars.svg"" width=""175px"" height=""250px""></img></td>
  </tr>
  <tr height=200>
    <td width=300><img src=""static/images/keys/z.svg"" width=""35%"" height=""75%""></img></td>
    <td width=300><img src=""static/images/keys/m.svg"" width=""35%"" height=""75%""></img></td>
  </tr>
</table>
  ",77.0,1.0,,,,,,,,,,,,,,,,,,,,,,,,,,
167,0,,html-keyboard-response,167,460103,0.0-7.3-2.3,jattk47hp3,2022-09-16 18:28:55.753,63112d166c18ea59f6b05400,1,65,60,68,69,38,male,,,"
  <table>
  <tr height=300>
    <td width=300 height=300><img src=""static/images/cards/back_of_red_stars.svg"" width=""175px"" height=""250px""></img></td>
    <td width=300 height=300><img src=""static/images/cards/7_of_red_stars.svg"" width=""175px"" height=""250px""></img></td>
  </tr>
  <tr height=200>
    <td width=300><img src=""static/images/keys/z.svg"" width=""35%"" height=""75%""></img></td>
    <td width=300><img src=""static/images/keys/m.svg"" width=""35%"" height=""75%""></img></td>
  </tr>
</table>
  ",,,,,,,,,,,,,,,,,,,,,,,,,,,,
168,0,,html-keyboard-response,168,461607,0.0-7.3-3.3,jattk47hp3,2022-09-16 18:28:55.753,63112d166c18ea59f6b05400,1,65,60,68,69,38,male,,,"<p style=""font-size:50px"">You win!
+10 points this round!</p>",,,,,,,,,,,,,,,,,,,,,,,,,,,,
169,0,,html-keyboard-response,169,462116,0.0-7.3-4.3,jattk47hp3,2022-09-16 18:28:55.753,63112d166c18ea59f6b05400,1,65,60,68,69,38,male,,,,,,1.0,choice,3.0,C,D,black,red,stars,stars,D,C,C,red,stars,617.1999999881,1.0,0.0,NA,right,790.1999999881,7.0,1.0,1.0,,,
170,0,,html-keyboard-response,170,462837,0.0-7.4-0.4,jattk47hp3,2022-09-16 18:28:55.753,63112d166c18ea59f6b05400,1,65,60,68,69,38,male,719.6000000238,,"
  <table>
  <tr height=300>
    <td width=300 height=300><img src=""static/images/cards/stack_of_black_moons.svg"" width=""175px"" height=""250px""></img></td>
    <td width=300 height=300><img src=""static/images/cards/stack_of_red_stars.svg"" width=""175px"" height=""250px""></img></td>
  </tr>
  <tr height=200>
    <td width=300><img src=""static/images/keys/w.svg"" width=""35%"" height=""75%""></img></td>
    <td width=300><img src=""static/images/keys/o.svg"" width=""35%"" height=""75%""></img></td>
  </tr>
</table>
  ",79.0,1.0,,,,,,,,,,,,,,,,,,,,,,,,,,
171,0,,html-keyboard-response,171,464155,0.0-7.4-1.4,jattk47hp3,2022-09-16 18:28:55.753,63112d166c18ea59f6b05400,1,65,60,68,69,38,male,811.8000000119,,"
  <table>
  <tr height=300>
    <td width=300 height=300><img src=""static/images/cards/back_of_red_stars.svg"" width=""175px"" height=""250px""></img></td>
    <td width=300 height=300><img src=""static/images/cards/back_of_red_stars.svg"" width=""175px"" height=""250px""></img></td>
  </tr>
  <tr height=200>
    <td width=300><img src=""static/images/keys/z.svg"" width=""35%"" height=""75%""></img></td>
    <td width=300><img src=""static/images/keys/m.svg"" width=""35%"" height=""75%""></img></td>
  </tr>
</table>
  ",77.0,1.0,,,,,,,,,,,,,,,,,,,,,,,,,,
172,0,,html-keyboard-response,172,465661,0.0-7.4-2.4,jattk47hp3,2022-09-16 18:28:55.753,63112d166c18ea59f6b05400,1,65,60,68,69,38,male,,,"
  <table>
  <tr height=300>
    <td width=300 height=300><img src=""static/images/cards/back_of_red_stars.svg"" width=""175px"" height=""250px""></img></td>
    <td width=300 height=300><img src=""static/images/cards/10_of_red_stars.svg"" width=""175px"" height=""250px""></img></td>
  </tr>
  <tr height=200>
    <td width=300><img src=""static/images/keys/z.svg"" width=""35%"" height=""75%""></img></td>
    <td width=300><img src=""static/images/keys/m.svg"" width=""35%"" height=""75%""></img></td>
  </tr>
</table>
  ",,,,,,,,,,,,,,,,,,,,,,,,,,,,
173,0,,html-keyboard-response,173,467172,0.0-7.4-3.4,jattk47hp3,2022-09-16 18:28:55.753,63112d166c18ea59f6b05400,1,65,60,68,69,38,male,,,"<p style=""font-size:50px"">You Lose!
No points this round.</p>",,,,,,,,,,,,,,,,,,,,,,,,,,,,
174,0,,html-keyboard-response,174,467681,0.0-7.4-4.4,jattk47hp3,2022-09-16 18:28:55.753,63112d166c18ea59f6b05400,1,65,60,68,69,38,male,,,,,,1.0,choice,4.0,B,C,black,red,moons,stars,B,C,C,red,stars,719.6000000238,1.0,0.0,NA,right,811.8000000119,10.0,1.0,0.0,,,
175,0,,html-keyboard-response,175,468369,0.0-7.5-0.5,jattk47hp3,2022-09-16 18:28:55.753,63112d166c18ea59f6b05400,1,65,60,68,69,38,male,686.5,,"
  <table>
  <tr height=300>
    <td width=300 height=300><img src=""static/images/cards/stack_of_black_bolts.svg"" width=""175px"" height=""250px""></img></td>
    <td width=300 height=300><img src=""static/images/cards/stack_of_black_stars.svg"" width=""175px"" height=""250px""></img></td>
  </tr>
  <tr height=200>
    <td width=300><img src=""static/images/keys/w.svg"" width=""35%"" height=""75%""></img></td>
    <td width=300><img src=""static/images/keys/o.svg"" width=""35%"" height=""75%""></img></td>
  </tr>
</table>
  ",79.0,1.0,,,,,,,,,,,,,,,,,,,,,,,,,,
176,0,,html-keyboard-response,176,469512,0.0-7.5-1.5,jattk47hp3,2022-09-16 18:28:55.753,63112d166c18ea59f6b05400,1,65,60,68,69,38,male,636.6999999881,,"
  <table>
  <tr height=300>
    <td width=300 height=300><img src=""static/images/cards/back_of_black_stars.svg"" width=""175px"" height=""250px""></img></td>
    <td width=300 height=300><img src=""static/images/cards/back_of_black_stars.svg"" width=""175px"" height=""250px""></img></td>
  </tr>
  <tr height=200>
    <td width=300></td>
    <td width=300><img src=""static/images/keys/m.svg"" width=""35%"" height=""75%""></img></td>
  </tr>
</table>
  ",77.0,1.0,,,,,,,,,,,,,,,,,,,,,,,,,,
177,0,,html-keyboard-response,177,471019,0.0-7.5-2.5,jattk47hp3,2022-09-16 18:28:55.753,63112d166c18ea59f6b05400,1,65,60,68,69,38,male,,,"
  <table>
  <tr height=300>
    <td width=300 height=300><img src=""static/images/cards/back_of_black_stars.svg"" width=""175px"" height=""250px""></img></td>
    <td width=300 height=300><img src=""static/images/cards/1_of_black_stars.svg"" width=""175px"" height=""250px""></img></td>
  </tr>
  <tr height=200>
    <td width=300></td>
    <td width=300><img src=""static/images/keys/m.svg"" width=""35%"" height=""75%""></img></td>
  </tr>
</table>
  ",,,,,,,,,,,,,,,,,,,,,,,,,,,,
178,0,,html-keyboard-response,178,472527,0.0-7.5-3.5,jattk47hp3,2022-09-16 18:28:55.753,63112d166c18ea59f6b05400,1,65,60,68,69,38,male,,,"<p style=""font-size:50px"">You Lose!
No points this round.</p>",,,,,,,,,,,,,,,,,,,,,,,,,,,,
179,0,,html-keyboard-response,179,473034,0.0-7.5-4.5,jattk47hp3,2022-09-16 18:28:55.753,63112d166c18ea59f6b05400,1,65,60,68,69,38,male,,,,,,1.0,choice,5.0,D,Xnc,black,black,bolts,stars,Xnc,D,D,black,stars,686.5,0.0,0.0,0,right,636.6999999881,1.0,0.0,0.0,,,
180,0,,html-keyboard-response,180,474227,0.0-7.6-0.6,jattk47hp3,2022-09-16 18:28:55.753,63112d166c18ea59f6b05400,1,65,60,68,69,38,male,1191.1999999881,,"
  <table>
  <tr height=300>
    <td width=300 height=300><img src=""static/images/cards/stack_of_black_moons.svg"" width=""175px"" height=""250px""></img></td>
    <td width=300 height=300><img src=""static/images/cards/stack_of_red_stars.svg"" width=""175px"" height=""250px""></img></td>
  </tr>
  <tr height=200>
    <td width=300><img src=""static/images/keys/w.svg"" width=""35%"" height=""75%""></img></td>
    <td width=300><img src=""static/images/keys/o.svg"" width=""35%"" height=""75%""></img></td>
  </tr>
</table>
  ",87.0,1.0,,,,,,,,,,,,,,,,,,,,,,,,,,
181,0,,html-keyboard-response,181,475338,0.0-7.6-1.6,jattk47hp3,2022-09-16 18:28:55.753,63112d166c18ea59f6b05400,1,65,60,68,69,38,male,609.6000000238,,"
  <table>
  <tr height=300>
    <td width=300 height=300><img src=""static/images/cards/back_of_black_moons.svg"" width=""175px"" height=""250px""></img></td>
    <td width=300 height=300><img src=""static/images/cards/back_of_black_moons.svg"" width=""175px"" height=""250px""></img></td>
  </tr>
  <tr height=200>
    <td width=300></td>
    <td width=300><img src=""static/images/keys/m.svg"" width=""35%"" height=""75%""></img></td>
  </tr>
</table>
  ",77.0,1.0,,,,,,,,,,,,,,,,,,,,,,,,,,
182,0,,html-keyboard-response,182,476844,0.0-7.6-2.6,jattk47hp3,2022-09-16 18:28:55.753,63112d166c18ea59f6b05400,1,65,60,68,69,38,male,,,"
  <table>
  <tr height=300>
    <td width=300 height=300><img src=""static/images/cards/back_of_black_moons.svg"" width=""175px"" height=""250px""></img></td>
    <td width=300 height=300><img src=""static/images/cards/10_of_black_moons.svg"" width=""175px"" height=""250px""></img></td>
  </tr>
  <tr height=200>
    <td width=300></td>
    <td width=300><img src=""static/images/keys/m.svg"" width=""35%"" height=""75%""></img></td>
  </tr>
</table>
  ",,,,,,,,,,,,,,,,,,,,,,,,,,,,
183,0,,html-keyboard-response,183,478353,0.0-7.6-3.6,jattk47hp3,2022-09-16 18:28:55.753,63112d166c18ea59f6b05400,1,65,60,68,69,38,male,,,"<p style=""font-size:50px"">You win!
+10 points this round!</p>",,,,,,,,,,,,,,,,,,,,,,,,,,,,
184,0,,html-keyboard-response,184,478862,0.0-7.6-4.6,jattk47hp3,2022-09-16 18:28:55.753,63112d166c18ea59f6b05400,1,65,60,68,69,38,male,,,,,,1.0,choice,6.0,B,C,black,red,moons,stars,B,C,B,black,moons,1191.1999999881,0.0,1.0,0,right,609.6000000238,10.0,1.0,1.0,,,
185,0,,html-keyboard-response,185,479439,0.0-7.7-0.7,jattk47hp3,2022-09-16 18:28:55.753,63112d166c18ea59f6b05400,1,65,60,68,69,38,male,575.5999999642,,"
  <table>
  <tr height=300>
    <td width=300 height=300><img src=""static/images/cards/stack_of_red_stars.svg"" width=""175px"" height=""250px""></img></td>
    <td width=300 height=300><img src=""static/images/cards/stack_of_red_moons.svg"" width=""175px"" height=""250px""></img></td>
  </tr>
  <tr height=200>
    <td width=300><img src=""static/images/keys/w.svg"" width=""35%"" height=""75%""></img></td>
    <td width=300><img src=""static/images/keys/o.svg"" width=""35%"" height=""75%""></img></td>
  </tr>
</table>
  ",79.0,1.0,,,,,,,,,,,,,,,,,,,,,,,,,,
186,0,,html-keyboard-response,186,480568,0.0-7.7-1.7,jattk47hp3,2022-09-16 18:28:55.753,63112d166c18ea59f6b05400,1,65,60,68,69,38,male,622.2999999523,,"
  <table>
  <tr height=300>
    <td width=300 height=300><img src=""static/images/cards/back_of_red_moons.svg"" width=""175px"" height=""250px""></img></td>
    <td width=300 height=300><img src=""static/images/cards/back_of_red_moons.svg"" width=""175px"" height=""250px""></img></td>
  </tr>
  <tr height=200>
    <td width=300><img src=""static/images/keys/z.svg"" width=""35%"" height=""75%""></img></td>
    <td width=300><img src=""static/images/keys/m.svg"" width=""35%"" height=""75%""></img></td>
  </tr>
</table>
  ",77.0,1.0,,,,,,,,,,,,,,,,,,,,,,,,,,
187,0,,html-keyboard-response,187,482071,0.0-7.7-2.7,jattk47hp3,2022-09-16 18:28:55.753,63112d166c18ea59f6b05400,1,65,60,68,69,38,male,,,"
  <table>
  <tr height=300>
    <td width=300 height=300><img src=""static/images/cards/back_of_red_moons.svg"" width=""175px"" height=""250px""></img></td>
    <td width=300 height=300><img src=""static/images/cards/7_of_red_moons.svg"" width=""175px"" height=""250px""></img></td>
  </tr>
  <tr height=200>
    <td width=300><img src=""static/images/keys/z.svg"" width=""35%"" height=""75%""></img></td>
    <td width=300><img src=""static/images/keys/m.svg"" width=""35%"" height=""75%""></img></td>
  </tr>
</table>
  ",,,,,,,,,,,,,,,,,,,,,,,,,,,,
188,0,,html-keyboard-response,188,483578,0.0-7.7-3.7,jattk47hp3,2022-09-16 18:28:55.753,63112d166c18ea59f6b05400,1,65,60,68,69,38,male,,,"<p style=""font-size:50px"">You win!
+10 points this round!</p>",,,,,,,,,,,,,,,,,,,,,,,,,,,,
189,0,,html-keyboard-response,189,484084,0.0-7.7-4.7,jattk47hp3,2022-09-16 18:28:55.753,63112d166c18ea59f6b05400,1,65,60,68,69,38,male,,,,,,1.0,choice,7.0,A,C,red,red,stars,moons,C,A,A,red,moons,575.5999999642,1.0,1.0,NA,right,622.2999999523,7.0,1.0,1.0,,,
190,0,,html-keyboard-response,190,485063,0.0-7.8-0.8,jattk47hp3,2022-09-16 18:28:55.753,63112d166c18ea59f6b05400,1,65,60,68,69,38,male,977.5,,"
  <table>
  <tr height=300>
    <td width=300 height=300><img src=""static/images/cards/stack_of_black_stars.svg"" width=""175px"" height=""250px""></img></td>
    <td width=300 height=300><img src=""static/images/cards/stack_of_red_stars.svg"" width=""175px"" height=""250px""></img></td>
  </tr>
  <tr height=200>
    <td width=300><img src=""static/images/keys/w.svg"" width=""35%"" height=""75%""></img></td>
    <td width=300><img src=""static/images/keys/o.svg"" width=""35%"" height=""75%""></img></td>
  </tr>
</table>
  ",79.0,1.0,,,,,,,,,,,,,,,,,,,,,,,,,,
191,0,,html-keyboard-response,191,486234,0.0-7.8-1.8,jattk47hp3,2022-09-16 18:28:55.753,63112d166c18ea59f6b05400,1,65,60,68,69,38,male,666.3000000119,,"
  <table>
  <tr height=300>
    <td width=300 height=300><img src=""static/images/cards/back_of_red_stars.svg"" width=""175px"" height=""250px""></img></td>
    <td width=300 height=300><img src=""static/images/cards/back_of_red_stars.svg"" width=""175px"" height=""250px""></img></td>
  </tr>
  <tr height=200>
    <td width=300><img src=""static/images/keys/z.svg"" width=""35%"" height=""75%""></img></td>
    <td width=300><img src=""static/images/keys/m.svg"" width=""35%"" height=""75%""></img></td>
  </tr>
</table>
  ",77.0,1.0,,,,,,,,,,,,,,,,,,,,,,,,,,
192,0,,html-keyboard-response,192,487741,0.0-7.8-2.8,jattk47hp3,2022-09-16 18:28:55.753,63112d166c18ea59f6b05400,1,65,60,68,69,38,male,,,"
  <table>
  <tr height=300>
    <td width=300 height=300><img src=""static/images/cards/back_of_red_stars.svg"" width=""175px"" height=""250px""></img></td>
    <td width=300 height=300><img src=""static/images/cards/1_of_red_stars.svg"" width=""175px"" height=""250px""></img></td>
  </tr>
  <tr height=200>
    <td width=300><img src=""static/images/keys/z.svg"" width=""35%"" height=""75%""></img></td>
    <td width=300><img src=""static/images/keys/m.svg"" width=""35%"" height=""75%""></img></td>
  </tr>
</table>
  ",,,,,,,,,,,,,,,,,,,,,,,,,,,,
193,0,,html-keyboard-response,193,489251,0.0-7.8-3.8,jattk47hp3,2022-09-16 18:28:55.753,63112d166c18ea59f6b05400,1,65,60,68,69,38,male,,,"<p style=""font-size:50px"">You Lose!
No points this round.</p>",,,,,,,,,,,,,,,,,,,,,,,,,,,,
194,0,,html-keyboard-response,194,489759,0.0-7.8-4.8,jattk47hp3,2022-09-16 18:28:55.753,63112d166c18ea59f6b05400,1,65,60,68,69,38,male,,,,,,1.0,choice,8.0,C,D,black,red,stars,stars,D,C,C,red,stars,977.5,1.0,0.0,NA,right,666.3000000119,1.0,0.0,0.0,,,
195,0,,html-keyboard-response,195,490643,0.0-7.9-0.9,jattk47hp3,2022-09-16 18:28:55.753,63112d166c18ea59f6b05400,1,65,60,68,69,38,male,881.6999999881,,"
  <table>
  <tr height=300>
    <td width=300 height=300><img src=""static/images/cards/stack_of_red_moons.svg"" width=""175px"" height=""250px""></img></td>
    <td width=300 height=300><img src=""static/images/cards/stack_of_black_stars.svg"" width=""175px"" height=""250px""></img></td>
  </tr>
  <tr height=200>
    <td width=300><img src=""static/images/keys/w.svg"" width=""35%"" height=""75%""></img></td>
    <td width=300><img src=""static/images/keys/o.svg"" width=""35%"" height=""75%""></img></td>
  </tr>
</table>
  ",87.0,1.0,,,,,,,,,,,,,,,,,,,,,,,,,,
196,0,,html-keyboard-response,196,492000,0.0-7.9-1.9,jattk47hp3,2022-09-16 18:28:55.753,63112d166c18ea59f6b05400,1,65,60,68,69,38,male,854.6999999881,,"
  <table>
  <tr height=300>
    <td width=300 height=300><img src=""static/images/cards/back_of_red_moons.svg"" width=""175px"" height=""250px""></img></td>
    <td width=300 height=300><img src=""static/images/cards/back_of_red_moons.svg"" width=""175px"" height=""250px""></img></td>
  </tr>
  <tr height=200>
    <td width=300><img src=""static/images/keys/z.svg"" width=""35%"" height=""75%""></img></td>
    <td width=300><img src=""static/images/keys/m.svg"" width=""35%"" height=""75%""></img></td>
  </tr>
</table>
  ",77.0,1.0,,,,,,,,,,,,,,,,,,,,,,,,,,
197,0,,html-keyboard-response,197,493502,0.0-7.9-2.9,jattk47hp3,2022-09-16 18:28:55.753,63112d166c18ea59f6b05400,1,65,60,68,69,38,male,,,"
  <table>
  <tr height=300>
    <td width=300 height=300><img src=""static/images/cards/back_of_red_moons.svg"" width=""175px"" height=""250px""></img></td>
    <td width=300 height=300><img src=""static/images/cards/2_of_red_moons.svg"" width=""175px"" height=""250px""></img></td>
  </tr>
  <tr height=200>
    <td width=300><img src=""static/images/keys/z.svg"" width=""35%"" height=""75%""></img></td>
    <td width=300><img src=""static/images/keys/m.svg"" width=""35%"" height=""75%""></img></td>
  </tr>
</table>
  ",,,,,,,,,,,,,,,,,,,,,,,,,,,,
198,0,,html-keyboard-response,198,495008,0.0-7.9-3.9,jattk47hp3,2022-09-16 18:28:55.753,63112d166c18ea59f6b05400,1,65,60,68,69,38,male,,,"<p style=""font-size:50px"">You Lose!
No points this round.</p>",,,,,,,,,,,,,,,,,,,,,,,,,,,,
199,0,,html-keyboard-response,199,495517,0.0-7.9-4.9,jattk47hp3,2022-09-16 18:28:55.753,63112d166c18ea59f6b05400,1,65,60,68,69,38,male,,,,,,1.0,choice,9.0,A,D,red,black,moons,stars,A,D,A,red,moons,881.6999999881,1.0,1.0,NA,right,854.6999999881,2.0,0.0,0.0,,,
200,0,,html-keyboard-response,200,496140,0.0-7.10-0.10,jattk47hp3,2022-09-16 18:28:55.753,63112d166c18ea59f6b05400,1,65,60,68,69,38,male,622.0,,"
  <table>
  <tr height=300>
    <td width=300 height=300><img src=""static/images/cards/stack_of_red_moons.svg"" width=""175px"" height=""250px""></img></td>
    <td width=300 height=300><img src=""static/images/cards/stack_of_black_moons.svg"" width=""175px"" height=""250px""></img></td>
  </tr>
  <tr height=200>
    <td width=300><img src=""static/images/keys/w.svg"" width=""35%"" height=""75%""></img></td>
    <td width=300><img src=""static/images/keys/o.svg"" width=""35%"" height=""75%""></img></td>
  </tr>
</table>
  ",79.0,1.0,,,,,,,,,,,,,,,,,,,,,,,,,,
201,0,,html-keyboard-response,201,497504,0.0-7.10-1.10,jattk47hp3,2022-09-16 18:28:55.753,63112d166c18ea59f6b05400,1,65,60,68,69,38,male,861.6000000238,,"
  <table>
  <tr height=300>
    <td width=300 height=300><img src=""static/images/cards/back_of_black_moons.svg"" width=""175px"" height=""250px""></img></td>
    <td width=300 height=300><img src=""static/images/cards/back_of_black_moons.svg"" width=""175px"" height=""250px""></img></td>
  </tr>
  <tr height=200>
    <td width=300><img src=""static/images/keys/z.svg"" width=""35%"" height=""75%""></img></td>
    <td width=300></td>
  </tr>
</table>
  ",90.0,1.0,,,,,,,,,,,,,,,,,,,,,,,,,,
202,0,,html-keyboard-response,202,499011,0.0-7.10-2.10,jattk47hp3,2022-09-16 18:28:55.753,63112d166c18ea59f6b05400,1,65,60,68,69,38,male,,,"
  <table>
  <tr height=300>
    <td width=300 height=300><img src=""static/images/cards/3_of_black_moons.svg"" width=""175px"" height=""250px""></img></td>
    <td width=300 height=300><img src=""static/images/cards/back_of_black_moons.svg"" width=""175px"" height=""250px""></img></td>
  </tr>
  <tr height=200>
    <td width=300><img src=""static/images/keys/z.svg"" width=""35%"" height=""75%""></img></td>
    <td width=300></td>
  </tr>
</table>
  ",,,,,,,,,,,,,,,,,,,,,,,,,,,,
203,0,,html-keyboard-response,203,500513,0.0-7.10-3.10,jattk47hp3,2022-09-16 18:28:55.753,63112d166c18ea59f6b05400,1,65,60,68,69,38,male,,,"<p style=""font-size:50px"">You Lose!
No points this round.</p>",,,,,,,,,,,,,,,,,,,,,,,,,,,,
204,0,,html-keyboard-response,204,501019,0.0-7.10-4.10,jattk47hp3,2022-09-16 18:28:55.753,63112d166c18ea59f6b05400,1,65,60,68,69,38,male,,,,,,1.0,choice,10.0,A,B,red,black,moons,moons,A,B,B,black,moons,622.0,0.0,1.0,1,left,861.6000000238,3.0,0.0,0.0,,,
205,0,,html-keyboard-response,205,501661,0.0-7.11-0.11,jattk47hp3,2022-09-16 18:28:55.753,63112d166c18ea59f6b05400,1,65,60,68,69,38,male,639.8000000119,,"
  <table>
  <tr height=300>
    <td width=300 height=300><img src=""static/images/cards/stack_of_black_stars.svg"" width=""175px"" height=""250px""></img></td>
    <td width=300 height=300><img src=""static/images/cards/stack_of_red_stars.svg"" width=""175px"" height=""250px""></img></td>
  </tr>
  <tr height=200>
    <td width=300><img src=""static/images/keys/w.svg"" width=""35%"" height=""75%""></img></td>
    <td width=300><img src=""static/images/keys/o.svg"" width=""35%"" height=""75%""></img></td>
  </tr>
</table>
  ",79.0,1.0,,,,,,,,,,,,,,,,,,,,,,,,,,
206,0,,html-keyboard-response,206,502819,0.0-7.11-1.11,jattk47hp3,2022-09-16 18:28:55.753,63112d166c18ea59f6b05400,1,65,60,68,69,38,male,653.0,,"
  <table>
  <tr height=300>
    <td width=300 height=300><img src=""static/images/cards/back_of_red_stars.svg"" width=""175px"" height=""250px""></img></td>
    <td width=300 height=300><img src=""static/images/cards/back_of_red_stars.svg"" width=""175px"" height=""250px""></img></td>
  </tr>
  <tr height=200>
    <td width=300><img src=""static/images/keys/z.svg"" width=""35%"" height=""75%""></img></td>
    <td width=300><img src=""static/images/keys/m.svg"" width=""35%"" height=""75%""></img></td>
  </tr>
</table>
  ",77.0,1.0,,,,,,,,,,,,,,,,,,,,,,,,,,
207,0,,html-keyboard-response,207,504322,0.0-7.11-2.11,jattk47hp3,2022-09-16 18:28:55.753,63112d166c18ea59f6b05400,1,65,60,68,69,38,male,,,"
  <table>
  <tr height=300>
    <td width=300 height=300><img src=""static/images/cards/back_of_red_stars.svg"" width=""175px"" height=""250px""></img></td>
    <td width=300 height=300><img src=""static/images/cards/6_of_red_stars.svg"" width=""175px"" height=""250px""></img></td>
  </tr>
  <tr height=200>
    <td width=300><img src=""static/images/keys/z.svg"" width=""35%"" height=""75%""></img></td>
    <td width=300><img src=""static/images/keys/m.svg"" width=""35%"" height=""75%""></img></td>
  </tr>
</table>
  ",,,,,,,,,,,,,,,,,,,,,,,,,,,,
208,0,,html-keyboard-response,208,505827,0.0-7.11-3.11,jattk47hp3,2022-09-16 18:28:55.753,63112d166c18ea59f6b05400,1,65,60,68,69,38,male,,,"<p style=""font-size:50px"">You win!
+10 points this round!</p>",,,,,,,,,,,,,,,,,,,,,,,,,,,,
209,0,,html-keyboard-response,209,506335,0.0-7.11-4.11,jattk47hp3,2022-09-16 18:28:55.753,63112d166c18ea59f6b05400,1,65,60,68,69,38,male,,,,,,1.0,choice,11.0,C,D,black,red,stars,stars,D,C,C,red,stars,639.8000000119,1.0,0.0,NA,right,653.0,6.0,1.0,1.0,,,
210,0,,html-keyboard-response,210,506947,0.0-7.12-0.12,jattk47hp3,2022-09-16 18:28:55.753,63112d166c18ea59f6b05400,1,65,60,68,69,38,male,609.8999999762,,"
  <table>
  <tr height=300>
    <td width=300 height=300><img src=""static/images/cards/stack_of_black_stars.svg"" width=""175px"" height=""250px""></img></td>
    <td width=300 height=300><img src=""static/images/cards/stack_of_red_moons.svg"" width=""175px"" height=""250px""></img></td>
  </tr>
  <tr height=200>
    <td width=300><img src=""static/images/keys/w.svg"" width=""35%"" height=""75%""></img></td>
    <td width=300><img src=""static/images/keys/o.svg"" width=""35%"" height=""75%""></img></td>
  </tr>
</table>
  ",79.0,1.0,,,,,,,,,,,,,,,,,,,,,,,,,,
211,0,,html-keyboard-response,211,508070,0.0-7.12-1.12,jattk47hp3,2022-09-16 18:28:55.753,63112d166c18ea59f6b05400,1,65,60,68,69,38,male,618.7999999523,,"
  <table>
  <tr height=300>
    <td width=300 height=300><img src=""static/images/cards/back_of_red_moons.svg"" width=""175px"" height=""250px""></img></td>
    <td width=300 height=300><img src=""static/images/cards/back_of_red_moons.svg"" width=""175px"" height=""250px""></img></td>
  </tr>
  <tr height=200>
    <td width=300><img src=""static/images/keys/z.svg"" width=""35%"" height=""75%""></img></td>
    <td width=300><img src=""static/images/keys/m.svg"" width=""35%"" height=""75%""></img></td>
  </tr>
</table>
  ",77.0,1.0,,,,,,,,,,,,,,,,,,,,,,,,,,
212,0,,html-keyboard-response,212,509572,0.0-7.12-2.12,jattk47hp3,2022-09-16 18:28:55.753,63112d166c18ea59f6b05400,1,65,60,68,69,38,male,,,"
  <table>
  <tr height=300>
    <td width=300 height=300><img src=""static/images/cards/back_of_red_moons.svg"" width=""175px"" height=""250px""></img></td>
    <td width=300 height=300><img src=""static/images/cards/4_of_red_moons.svg"" width=""175px"" height=""250px""></img></td>
  </tr>
  <tr height=200>
    <td width=300><img src=""static/images/keys/z.svg"" width=""35%"" height=""75%""></img></td>
    <td width=300><img src=""static/images/keys/m.svg"" width=""35%"" height=""75%""></img></td>
  </tr>
</table>
  ",,,,,,,,,,,,,,,,,,,,,,,,,,,,
213,0,,html-keyboard-response,213,511081,0.0-7.12-3.12,jattk47hp3,2022-09-16 18:28:55.753,63112d166c18ea59f6b05400,1,65,60,68,69,38,male,,,"<p style=""font-size:50px"">You Lose!
No points this round.</p>",,,,,,,,,,,,,,,,,,,,,,,,,,,,
214,0,,html-keyboard-response,214,511592,0.0-7.12-4.12,jattk47hp3,2022-09-16 18:28:55.753,63112d166c18ea59f6b05400,1,65,60,68,69,38,male,,,,,,1.0,choice,12.0,A,D,black,red,stars,moons,D,A,A,red,moons,609.8999999762,1.0,1.0,NA,right,618.7999999523,4.0,0.0,0.0,,,
215,0,,html-keyboard-response,215,512279,0.0-7.13-0.13,jattk47hp3,2022-09-16 18:28:55.753,63112d166c18ea59f6b05400,1,65,60,68,69,38,male,685.0,,"
  <table>
  <tr height=300>
    <td width=300 height=300><img src=""static/images/cards/stack_of_black_moons.svg"" width=""175px"" height=""250px""></img></td>
    <td width=300 height=300><img src=""static/images/cards/stack_of_red_stars.svg"" width=""175px"" height=""250px""></img></td>
  </tr>
  <tr height=200>
    <td width=300><img src=""static/images/keys/w.svg"" width=""35%"" height=""75%""></img></td>
    <td width=300><img src=""static/images/keys/o.svg"" width=""35%"" height=""75%""></img></td>
  </tr>
</table>
  ",87.0,1.0,,,,,,,,,,,,,,,,,,,,,,,,,,
216,0,,html-keyboard-response,216,513742,0.0-7.13-1.13,jattk47hp3,2022-09-16 18:28:55.753,63112d166c18ea59f6b05400,1,65,60,68,69,38,male,957.1999999881,,"
  <table>
  <tr height=300>
    <td width=300 height=300><img src=""static/images/cards/back_of_black_moons.svg"" width=""175px"" height=""250px""></img></td>
    <td width=300 height=300><img src=""static/images/cards/back_of_black_moons.svg"" width=""175px"" height=""250px""></img></td>
  </tr>
  <tr height=200>
    <td width=300></td>
    <td width=300><img src=""static/images/keys/m.svg"" width=""35%"" height=""75%""></img></td>
  </tr>
</table>
  ",77.0,2.0,,,,,,,,,,,,,,,,,,,,,,,,,,
217,0,,html-keyboard-response,217,515243,0.0-7.13-2.13,jattk47hp3,2022-09-16 18:28:55.753,63112d166c18ea59f6b05400,1,65,60,68,69,38,male,,,"
  <table>
  <tr height=300>
    <td width=300 height=300><img src=""static/images/cards/back_of_black_moons.svg"" width=""175px"" height=""250px""></img></td>
    <td width=300 height=300><img src=""static/images/cards/2_of_black_moons.svg"" width=""175px"" height=""250px""></img></td>
  </tr>
  <tr height=200>
    <td width=300></td>
    <td width=300><img src=""static/images/keys/m.svg"" width=""35%"" height=""75%""></img></td>
  </tr>
</table>
  ",,,,,,,,,,,,,,,,,,,,,,,,,,,,
218,0,,html-keyboard-response,218,516751,0.0-7.13-3.13,jattk47hp3,2022-09-16 18:28:55.753,63112d166c18ea59f6b05400,1,65,60,68,69,38,male,,,"<p style=""font-size:50px"">You Lose!
No points this round.</p>",,,,,,,,,,,,,,,,,,,,,,,,,,,,
219,0,,html-keyboard-response,219,517258,0.0-7.13-4.13,jattk47hp3,2022-09-16 18:28:55.753,63112d166c18ea59f6b05400,1,65,60,68,69,38,male,,,,,,1.0,choice,13.0,B,C,black,red,moons,stars,B,C,B,black,moons,685.0,0.0,1.0,0,right,957.1999999881,2.0,0.0,0.0,,,
220,0,,html-keyboard-response,220,517897,0.0-7.14-0.14,jattk47hp3,2022-09-16 18:28:55.753,63112d166c18ea59f6b05400,1,65,60,68,69,38,male,636.8000000119,,"
  <table>
  <tr height=300>
    <td width=300 height=300><img src=""static/images/cards/stack_of_black_moons.svg"" width=""175px"" height=""250px""></img></td>
    <td width=300 height=300><img src=""static/images/cards/stack_of_red_moons.svg"" width=""175px"" height=""250px""></img></td>
  </tr>
  <tr height=200>
    <td width=300><img src=""static/images/keys/w.svg"" width=""35%"" height=""75%""></img></td>
    <td width=300><img src=""static/images/keys/o.svg"" width=""35%"" height=""75%""></img></td>
  </tr>
</table>
  ",79.0,1.0,,,,,,,,,,,,,,,,,,,,,,,,,,
221,0,,html-keyboard-response,221,519116,0.0-7.14-1.14,jattk47hp3,2022-09-16 18:28:55.753,63112d166c18ea59f6b05400,1,65,60,68,69,38,male,717.1000000238,,"
  <table>
  <tr height=300>
    <td width=300 height=300><img src=""static/images/cards/back_of_red_moons.svg"" width=""175px"" height=""250px""></img></td>
    <td width=300 height=300><img src=""static/images/cards/back_of_red_moons.svg"" width=""175px"" height=""250px""></img></td>
  </tr>
  <tr height=200>
    <td width=300><img src=""static/images/keys/z.svg"" width=""35%"" height=""75%""></img></td>
    <td width=300><img src=""static/images/keys/m.svg"" width=""35%"" height=""75%""></img></td>
  </tr>
</table>
  ",77.0,1.0,,,,,,,,,,,,,,,,,,,,,,,,,,
222,0,,html-keyboard-response,222,520619,0.0-7.14-2.14,jattk47hp3,2022-09-16 18:28:55.753,63112d166c18ea59f6b05400,1,65,60,68,69,38,male,,,"
  <table>
  <tr height=300>
    <td width=300 height=300><img src=""static/images/cards/back_of_red_moons.svg"" width=""175px"" height=""250px""></img></td>
    <td width=300 height=300><img src=""static/images/cards/9_of_red_moons.svg"" width=""175px"" height=""250px""></img></td>
  </tr>
  <tr height=200>
    <td width=300><img src=""static/images/keys/z.svg"" width=""35%"" height=""75%""></img></td>
    <td width=300><img src=""static/images/keys/m.svg"" width=""35%"" height=""75%""></img></td>
  </tr>
</table>
  ",,,,,,,,,,,,,,,,,,,,,,,,,,,,
223,0,,html-keyboard-response,223,522126,0.0-7.14-3.14,jattk47hp3,2022-09-16 18:28:55.753,63112d166c18ea59f6b05400,1,65,60,68,69,38,male,,,"<p style=""font-size:50px"">You win!
+10 points this round!</p>",,,,,,,,,,,,,,,,,,,,,,,,,,,,
224,0,,html-keyboard-response,224,522635,0.0-7.14-4.14,jattk47hp3,2022-09-16 18:28:55.753,63112d166c18ea59f6b05400,1,65,60,68,69,38,male,,,,,,1.0,choice,14.0,A,B,black,red,moons,moons,B,A,A,red,moons,636.8000000119,1.0,1.0,NA,right,717.1000000238,9.0,1.0,1.0,,,
225,0,,html-keyboard-response,225,523191,0.0-7.15-0.15,jattk47hp3,2022-09-16 18:28:55.753,63112d166c18ea59f6b05400,1,65,60,68,69,38,male,555.0,,"
  <table>
  <tr height=300>
    <td width=300 height=300><img src=""static/images/cards/stack_of_black_stars.svg"" width=""175px"" height=""250px""></img></td>
    <td width=300 height=300><img src=""static/images/cards/stack_of_red_stars.svg"" width=""175px"" height=""250px""></img></td>
  </tr>
  <tr height=200>
    <td width=300><img src=""static/images/keys/w.svg"" width=""35%"" height=""75%""></img></td>
    <td width=300><img src=""static/images/keys/o.svg"" width=""35%"" height=""75%""></img></td>
  </tr>
</table>
  ",79.0,1.0,,,,,,,,,,,,,,,,,,,,,,,,,,
226,0,,html-keyboard-response,226,524328,0.0-7.15-1.15,jattk47hp3,2022-09-16 18:28:55.753,63112d166c18ea59f6b05400,1,65,60,68,69,38,male,634.9000000358,,"
  <table>
  <tr height=300>
    <td width=300 height=300><img src=""static/images/cards/back_of_red_stars.svg"" width=""175px"" height=""250px""></img></td>
    <td width=300 height=300><img src=""static/images/cards/back_of_red_stars.svg"" width=""175px"" height=""250px""></img></td>
  </tr>
  <tr height=200>
    <td width=300><img src=""static/images/keys/z.svg"" width=""35%"" height=""75%""></img></td>
    <td width=300><img src=""static/images/keys/m.svg"" width=""35%"" height=""75%""></img></td>
  </tr>
</table>
  ",77.0,1.0,,,,,,,,,,,,,,,,,,,,,,,,,,
227,0,,html-keyboard-response,227,525832,0.0-7.15-2.15,jattk47hp3,2022-09-16 18:28:55.753,63112d166c18ea59f6b05400,1,65,60,68,69,38,male,,,"
  <table>
  <tr height=300>
    <td width=300 height=300><img src=""static/images/cards/back_of_red_stars.svg"" width=""175px"" height=""250px""></img></td>
    <td width=300 height=300><img src=""static/images/cards/8_of_red_stars.svg"" width=""175px"" height=""250px""></img></td>
  </tr>
  <tr height=200>
    <td width=300><img src=""static/images/keys/z.svg"" width=""35%"" height=""75%""></img></td>
    <td width=300><img src=""static/images/keys/m.svg"" width=""35%"" height=""75%""></img></td>
  </tr>
</table>
  ",,,,,,,,,,,,,,,,,,,,,,,,,,,,
228,0,,html-keyboard-response,228,527343,0.0-7.15-3.15,jattk47hp3,2022-09-16 18:28:55.753,63112d166c18ea59f6b05400,1,65,60,68,69,38,male,,,"<p style=""font-size:50px"">You win!
+10 points this round!</p>",,,,,,,,,,,,,,,,,,,,,,,,,,,,
229,0,,html-keyboard-response,229,527851,0.0-7.15-4.15,jattk47hp3,2022-09-16 18:28:55.753,63112d166c18ea59f6b05400,1,65,60,68,69,38,male,,,,,,1.0,choice,15.0,C,D,black,red,stars,stars,D,C,C,red,stars,555.0,1.0,0.0,NA,right,634.9000000358,8.0,1.0,1.0,,,
230,0,,html-keyboard-response,230,528477,0.0-7.16-0.16,jattk47hp3,2022-09-16 18:28:55.753,63112d166c18ea59f6b05400,1,65,60,68,69,38,male,623.6999999881,,"
  <table>
  <tr height=300>
    <td width=300 height=300><img src=""static/images/cards/stack_of_black_stars.svg"" width=""175px"" height=""250px""></img></td>
    <td width=300 height=300><img src=""static/images/cards/stack_of_red_stars.svg"" width=""175px"" height=""250px""></img></td>
  </tr>
  <tr height=200>
    <td width=300><img src=""static/images/keys/w.svg"" width=""35%"" height=""75%""></img></td>
    <td width=300><img src=""static/images/keys/o.svg"" width=""35%"" height=""75%""></img></td>
  </tr>
</table>
  ",79.0,1.0,,,,,,,,,,,,,,,,,,,,,,,,,,
231,0,,html-keyboard-response,231,529555,0.0-7.16-1.16,jattk47hp3,2022-09-16 18:28:55.753,63112d166c18ea59f6b05400,1,65,60,68,69,38,male,577.1000000238,,"
  <table>
  <tr height=300>
    <td width=300 height=300><img src=""static/images/cards/back_of_red_stars.svg"" width=""175px"" height=""250px""></img></td>
    <td width=300 height=300><img src=""static/images/cards/back_of_red_stars.svg"" width=""175px"" height=""250px""></img></td>
  </tr>
  <tr height=200>
    <td width=300><img src=""static/images/keys/z.svg"" width=""35%"" height=""75%""></img></td>
    <td width=300><img src=""static/images/keys/m.svg"" width=""35%"" height=""75%""></img></td>
  </tr>
</table>
  ",77.0,1.0,,,,,,,,,,,,,,,,,,,,,,,,,,
232,0,,html-keyboard-response,232,531058,0.0-7.16-2.16,jattk47hp3,2022-09-16 18:28:55.753,63112d166c18ea59f6b05400,1,65,60,68,69,38,male,,,"
  <table>
  <tr height=300>
    <td width=300 height=300><img src=""static/images/cards/back_of_red_stars.svg"" width=""175px"" height=""250px""></img></td>
    <td width=300 height=300><img src=""static/images/cards/4_of_red_stars.svg"" width=""175px"" height=""250px""></img></td>
  </tr>
  <tr height=200>
    <td width=300><img src=""static/images/keys/z.svg"" width=""35%"" height=""75%""></img></td>
    <td width=300><img src=""static/images/keys/m.svg"" width=""35%"" height=""75%""></img></td>
  </tr>
</table>
  ",,,,,,,,,,,,,,,,,,,,,,,,,,,,
