,index,success,trial_type,trial_index,time_elapsed,internal_node_id,subject,date,prol_id,ctbl,sense_of_control_A,sense_of_control_B,sense_of_control_C,sense_of_control_D,age,gender,rt,url,stimulus,key_press,npress,is_data_trial,phase,trial,deck1,deck2,col1,col2,sym1,sym2,deck_l,deck_r,chosen_deck,chosen_col,chosen_sym,deck_rt,choose_choice,mutual_info,hidden_key,chosen_card,card_rt,player_num,win_card,outcome,mock_rating,response,responses
0,0,1.0,fullscreen,0,17038,0.0-0.0,wdta4fpc00i,2022-09-19 13:29:38.546,601fe0de101ae05414812f4d,3,100,74,48,19,27,female,,,,,,,,,,,,,,,,,,,,,,,,,,,,,,,
1,0,,external-html,1,29825,0.0-1.0,wdta4fpc00i,2022-09-19 13:29:38.546,601fe0de101ae05414812f4d,3,100,74,48,19,27,female,12637.6000000238,static/js/sub/consent.html,,,,,,,,,,,,,,,,,,,,,,,,,,,,,
2,0,,call-function,2,29827,0.0-2.0,wdta4fpc00i,2022-09-19 13:29:38.546,601fe0de101ae05414812f4d,3,100,74,48,19,27,female,,,,,,,,,,,,,,,,,,,,,,,,,,,,,,,
3,0,,image-keyboard-response,3,33917,0.0-3.0-0.0,wdta4fpc00i,2022-09-19 13:29:38.546,601fe0de101ae05414812f4d,3,100,74,48,19,27,female,4086.7999999523,,static/images/instructions_CB_3/Slide1.png,39.0,,,,,,,,,,,,,,,,,,,,,,,,,,,
4,0,,image-keyboard-response,4,46307,0.0-3.1-0.1,wdta4fpc00i,2022-09-19 13:29:38.546,601fe0de101ae05414812f4d,3,100,74,48,19,27,female,12388.0,,static/images/instructions_CB_3/Slide2.png,39.0,,,,,,,,,,,,,,,,,,,,,,,,,,,
5,0,,image-keyboard-response,5,48567,0.0-3.2-0.2,wdta4fpc00i,2022-09-19 13:29:38.546,601fe0de101ae05414812f4d,3,100,74,48,19,27,female,2257.8999999762,,static/images/instructions_CB_3/Slide3.png,39.0,,,,,,,,,,,,,,,,,,,,,,,,,,,
6,0,,image-keyboard-response,6,52312,0.0-3.3-0.3,wdta4fpc00i,2022-09-19 13:29:38.546,601fe0de101ae05414812f4d,3,100,74,48,19,27,female,3743.0,,static/images/instructions_CB_3/Slide4.png,39.0,,,,,,,,,,,,,,,,,,,,,,,,,,,
7,0,,image-keyboard-response,7,59339,0.0-3.4-0.4,wdta4fpc00i,2022-09-19 13:29:38.546,601fe0de101ae05414812f4d,3,100,74,48,19,27,female,7026.3000000119,,static/images/instructions_CB_3/Slide5.png,39.0,,,,,,,,,,,,,,,,,,,,,,,,,,,
8,0,,image-keyboard-response,8,60922,0.0-3.5-0.5,wdta4fpc00i,2022-09-19 13:29:38.546,601fe0de101ae05414812f4d,3,100,74,48,19,27,female,1582.2000000477,,static/images/instructions_CB_3/Slide6.png,39.0,,,,,,,,,,,,,,,,,,,,,,,,,,,
9,0,,image-keyboard-response,9,64227,0.0-3.6-0.6,wdta4fpc00i,2022-09-19 13:29:38.546,601fe0de101ae05414812f4d,3,100,74,48,19,27,female,3303.2000000477,,static/images/instructions_CB_3/Slide7.png,39.0,,,,,,,,,,,,,,,,,,,,,,,,,,,
10,0,,image-keyboard-response,10,73455,0.0-3.7-0.7,wdta4fpc00i,2022-09-19 13:29:38.546,601fe0de101ae05414812f4d,3,100,74,48,19,27,female,9227.3000000119,,static/images/instructions_CB_3/Slide8.png,39.0,,,,,,,,,,,,,,,,,,,,,,,,,,,
11,0,,image-keyboard-response,11,76613,0.0-3.8-0.8,wdta4fpc00i,2022-09-19 13:29:38.546,601fe0de101ae05414812f4d,3,100,74,48,19,27,female,3156.5,,static/images/instructions_CB_3/Slide9.png,39.0,,,,,,,,,,,,,,,,,,,,,,,,,,,
12,0,,image-keyboard-response,12,83451,0.0-3.9-0.9,wdta4fpc00i,2022-09-19 13:29:38.546,601fe0de101ae05414812f4d,3,100,74,48,19,27,female,6836.6999999881,,static/images/instructions_CB_3/Slide10.png,39.0,,,,,,,,,,,,,,,,,,,,,,,,,,,
13,0,,image-keyboard-response,13,88663,0.0-3.10-0.10,wdta4fpc00i,2022-09-19 13:29:38.546,601fe0de101ae05414812f4d,3,100,74,48,19,27,female,5210.3000000119,,static/images/instructions_CB_3/Slide11.png,39.0,,,,,,,,,,,,,,,,,,,,,,,,,,,
14,0,,image-keyboard-response,14,97625,0.0-3.11-0.11,wdta4fpc00i,2022-09-19 13:29:38.546,601fe0de101ae05414812f4d,3,100,74,48,19,27,female,8961.3999999762,,static/images/instructions_CB_3/Slide12.png,39.0,,,,,,,,,,,,,,,,,,,,,,,,,,,
15,0,,image-keyboard-response,15,104819,0.0-3.12-0.12,wdta4fpc00i,2022-09-19 13:29:38.546,601fe0de101ae05414812f4d,3,100,74,48,19,27,female,7192.3000000119,,static/images/instructions_CB_3/Slide13.png,39.0,,,,,,,,,,,,,,,,,,,,,,,,,,,
16,0,,image-keyboard-response,16,107959,0.0-3.13-0.13,wdta4fpc00i,2022-09-19 13:29:38.546,601fe0de101ae05414812f4d,3,100,74,48,19,27,female,3140.3000000119,,static/images/instructions_CB_3/Slide14.png,37.0,,,,,,,,,,,,,,,,,,,,,,,,,,,
17,0,,image-keyboard-response,17,122015,0.0-3.14-0.14,wdta4fpc00i,2022-09-19 13:29:38.546,601fe0de101ae05414812f4d,3,100,74,48,19,27,female,14054.8000000119,,static/images/instructions_CB_3/Slide13.png,39.0,,,,,,,,,,,,,,,,,,,,,,,,,,,
18,0,,image-keyboard-response,18,123922,0.0-3.15-0.15,wdta4fpc00i,2022-09-19 13:29:38.546,601fe0de101ae05414812f4d,3,100,74,48,19,27,female,1904.7999999523,,static/images/instructions_CB_3/Slide14.png,39.0,,,,,,,,,,,,,,,,,,,,,,,,,,,
19,0,,image-keyboard-response,19,129137,0.0-3.16-0.16,wdta4fpc00i,2022-09-19 13:29:38.546,601fe0de101ae05414812f4d,3,100,74,48,19,27,female,5213.3999999762,,static/images/instructions_CB_3/Slide15.png,39.0,,,,,,,,,,,,,,,,,,,,,,,,,,,
20,0,,image-keyboard-response,20,136634,0.0-3.17-0.17,wdta4fpc00i,2022-09-19 13:29:38.546,601fe0de101ae05414812f4d,3,100,74,48,19,27,female,7495.3000000119,,static/images/instructions_CB_3/Slide16.png,39.0,,,,,,,,,,,,,,,,,,,,,,,,,,,
21,0,,image-keyboard-response,21,244892,0.0-3.18-0.18,wdta4fpc00i,2022-09-19 13:29:38.546,601fe0de101ae05414812f4d,3,100,74,48,19,27,female,108257.0,,static/images/instructions_CB_3/Slide17.png,39.0,,,,,,,,,,,,,,,,,,,,,,,,,,,
22,0,,image-keyboard-response,22,255147,0.0-3.19-0.19,wdta4fpc00i,2022-09-19 13:29:38.546,601fe0de101ae05414812f4d,3,100,74,48,19,27,female,10252.8000000119,,static/images/instructions_CB_3/Slide18.png,39.0,,,,,,,,,,,,,,,,,,,,,,,,,,,
23,0,,image-keyboard-response,23,260006,0.0-3.20-0.20,wdta4fpc00i,2022-09-19 13:29:38.546,601fe0de101ae05414812f4d,3,100,74,48,19,27,female,4858.0,,static/images/instructions_CB_3/Slide19.png,39.0,,,,,,,,,,,,,,,,,,,,,,,,,,,
24,0,,html-keyboard-response,24,261519,0.0-4.0-0.0,wdta4fpc00i,2022-09-19 13:29:38.546,601fe0de101ae05414812f4d,3,100,74,48,19,27,female,,,"<img src=""static/images/cards/stack_of_black_moons.svg"" width=""175px"" height=""250px""></img>",,,,,,,,,,,,,,,,,,,,,,,,,,,,
25,0,,html-keyboard-response,25,263219,0.0-4.0-1.0,wdta4fpc00i,2022-09-19 13:29:38.546,601fe0de101ae05414812f4d,3,100,74,48,19,27,female,1188.5,,"
  <table>
  <tr height=300>
    <td width=300 height=300><img src=""static/images/cards/back_of_black_moons.svg"" width=""175px"" height=""250px""></img></td>
    <td width=300 height=300><img src=""static/images/cards/back_of_black_moons.svg"" width=""175px"" height=""250px""></img></td>
  </tr>
  <tr height=200>
    <td width=300><img src=""static/images/keys/z.svg"" width=""35%"" height=""75%""></img></td>
    <td width=300><img src=""static/images/keys/m.svg"" width=""35%"" height=""75%""></img></td>
  </tr>
</table>
  ",77.0,1.0,,,,,,,,,,,,,,,,,,,,,,,,,,
26,0,,html-keyboard-response,26,264730,0.0-4.0-2.0,wdta4fpc00i,2022-09-19 13:29:38.546,601fe0de101ae05414812f4d,3,100,74,48,19,27,female,,,"
  <table>
  <tr height=300>
    <td width=300 height=300><img src=""static/images/cards/back_of_black_moons.svg"" width=""175px"" height=""250px""></img></td>
    <td width=300 height=300><img src=""static/images/cards/8_of_black_moons.svg"" width=""175px"" height=""250px""></img></td>
  </tr>
  <tr height=200>
    <td width=300><img src=""static/images/keys/z.svg"" width=""35%"" height=""75%""></img></td>
    <td width=300><img src=""static/images/keys/m.svg"" width=""35%"" height=""75%""></img></td>
  </tr>
</table>
  ",,,,,,,,,,,,,,,,,,,,,,,,,,,,
27,0,,html-keyboard-response,27,266261,0.0-4.0-3.0,wdta4fpc00i,2022-09-19 13:29:38.546,601fe0de101ae05414812f4d,3,100,74,48,19,27,female,,,"<p style=""font-size:50px"">You win!
+10 points this round!</p>",,,,,,,,,,,,,,,,,,,,,,,,,,,,
28,0,,html-keyboard-response,28,266780,0.0-4.0-4.0,wdta4fpc00i,2022-09-19 13:29:38.546,601fe0de101ae05414812f4d,3,100,74,48,19,27,female,,,,,,1.0,learning,0.0,A,,black,,moons,,,,A,black,moons,,1.0,1.0,NA,right,1188.5,8.0,1.0,1.0,,,
29,0,,html-keyboard-response,29,268290,0.0-4.1-0.1,wdta4fpc00i,2022-09-19 13:29:38.546,601fe0de101ae05414812f4d,3,100,74,48,19,27,female,,,"<img src=""static/images/cards/stack_of_red_moons.svg"" width=""175px"" height=""250px""></img>",,,,,,,,,,,,,,,,,,,,,,,,,,,,
30,0,,html-keyboard-response,30,269338,0.0-4.1-1.1,wdta4fpc00i,2022-09-19 13:29:38.546,601fe0de101ae05414812f4d,3,100,74,48,19,27,female,526.5,,"
  <table>
  <tr height=300>
    <td width=300 height=300><img src=""static/images/cards/back_of_red_moons.svg"" width=""175px"" height=""250px""></img></td>
    <td width=300 height=300><img src=""static/images/cards/back_of_red_moons.svg"" width=""175px"" height=""250px""></img></td>
  </tr>
  <tr height=200>
    <td width=300></td>
    <td width=300><img src=""static/images/keys/m.svg"" width=""35%"" height=""75%""></img></td>
  </tr>
</table>
  ",77.0,1.0,,,,,,,,,,,,,,,,,,,,,,,,,,
31,0,,html-keyboard-response,31,270840,0.0-4.1-2.1,wdta4fpc00i,2022-09-19 13:29:38.546,601fe0de101ae05414812f4d,3,100,74,48,19,27,female,,,"
  <table>
  <tr height=300>
    <td width=300 height=300><img src=""static/images/cards/back_of_red_moons.svg"" width=""175px"" height=""250px""></img></td>
    <td width=300 height=300><img src=""static/images/cards/2_of_red_moons.svg"" width=""175px"" height=""250px""></img></td>
  </tr>
  <tr height=200>
    <td width=300></td>
    <td width=300><img src=""static/images/keys/m.svg"" width=""35%"" height=""75%""></img></td>
  </tr>
</table>
  ",,,,,,,,,,,,,,,,,,,,,,,,,,,,
32,0,,html-keyboard-response,32,272350,0.0-4.1-3.1,wdta4fpc00i,2022-09-19 13:29:38.546,601fe0de101ae05414812f4d,3,100,74,48,19,27,female,,,"<p style=""font-size:50px"">You Lose!
No points this round.</p>",,,,,,,,,,,,,,,,,,,,,,,,,,,,
33,0,,html-keyboard-response,33,272874,0.0-4.1-4.1,wdta4fpc00i,2022-09-19 13:29:38.546,601fe0de101ae05414812f4d,3,100,74,48,19,27,female,,,,,,1.0,learning,1.0,B,,red,,moons,,,,B,red,moons,,0.0,1.0,0,right,526.5,2.0,0.0,0.0,,,
34,0,,html-keyboard-response,34,274379,0.0-4.2-0.2,wdta4fpc00i,2022-09-19 13:29:38.546,601fe0de101ae05414812f4d,3,100,74,48,19,27,female,,,"<img src=""static/images/cards/stack_of_black_stars.svg"" width=""175px"" height=""250px""></img>",,,,,,,,,,,,,,,,,,,,,,,,,,,,
35,0,,html-keyboard-response,35,275495,0.0-4.2-1.2,wdta4fpc00i,2022-09-19 13:29:38.546,601fe0de101ae05414812f4d,3,100,74,48,19,27,female,606.5,,"
  <table>
  <tr height=300>
    <td width=300 height=300><img src=""static/images/cards/back_of_black_stars.svg"" width=""175px"" height=""250px""></img></td>
    <td width=300 height=300><img src=""static/images/cards/back_of_black_stars.svg"" width=""175px"" height=""250px""></img></td>
  </tr>
  <tr height=200>
    <td width=300><img src=""static/images/keys/z.svg"" width=""35%"" height=""75%""></img></td>
    <td width=300><img src=""static/images/keys/m.svg"" width=""35%"" height=""75%""></img></td>
  </tr>
</table>
  ",90.0,1.0,,,,,,,,,,,,,,,,,,,,,,,,,,
36,0,,html-keyboard-response,36,277011,0.0-4.2-2.2,wdta4fpc00i,2022-09-19 13:29:38.546,601fe0de101ae05414812f4d,3,100,74,48,19,27,female,,,"
  <table>
  <tr height=300>
    <td width=300 height=300><img src=""static/images/cards/2_of_black_stars.svg"" width=""175px"" height=""250px""></img></td>
    <td width=300 height=300><img src=""static/images/cards/back_of_black_stars.svg"" width=""175px"" height=""250px""></img></td>
  </tr>
  <tr height=200>
    <td width=300><img src=""static/images/keys/z.svg"" width=""35%"" height=""75%""></img></td>
    <td width=300><img src=""static/images/keys/m.svg"" width=""35%"" height=""75%""></img></td>
  </tr>
</table>
  ",,,,,,,,,,,,,,,,,,,,,,,,,,,,
37,0,,html-keyboard-response,37,278539,0.0-4.2-3.2,wdta4fpc00i,2022-09-19 13:29:38.546,601fe0de101ae05414812f4d,3,100,74,48,19,27,female,,,"<p style=""font-size:50px"">You win!
+10 points this round!</p>",,,,,,,,,,,,,,,,,,,,,,,,,,,,
38,0,,html-keyboard-response,38,279064,0.0-4.2-4.2,wdta4fpc00i,2022-09-19 13:29:38.546,601fe0de101ae05414812f4d,3,100,74,48,19,27,female,,,,,,1.0,learning,2.0,C,,black,,stars,,,,C,black,stars,,1.0,0.0,NA,left,606.5,2.0,0.0,1.0,,,
39,0,,html-keyboard-response,39,280569,0.0-4.3-0.3,wdta4fpc00i,2022-09-19 13:29:38.546,601fe0de101ae05414812f4d,3,100,74,48,19,27,female,,,"<img src=""static/images/cards/stack_of_red_stars.svg"" width=""175px"" height=""250px""></img>",,,,,,,,,,,,,,,,,,,,,,,,,,,,
40,0,,html-keyboard-response,40,281482,0.0-4.3-1.3,wdta4fpc00i,2022-09-19 13:29:38.546,601fe0de101ae05414812f4d,3,100,74,48,19,27,female,404.6999999881,,"
  <table>
  <tr height=300>
    <td width=300 height=300><img src=""static/images/cards/back_of_red_stars.svg"" width=""175px"" height=""250px""></img></td>
    <td width=300 height=300><img src=""static/images/cards/back_of_red_stars.svg"" width=""175px"" height=""250px""></img></td>
  </tr>
  <tr height=200>
    <td width=300><img src=""static/images/keys/z.svg"" width=""35%"" height=""75%""></img></td>
    <td width=300></td>
  </tr>
</table>
  ",90.0,1.0,,,,,,,,,,,,,,,,,,,,,,,,,,
41,0,,html-keyboard-response,41,282989,0.0-4.3-2.3,wdta4fpc00i,2022-09-19 13:29:38.546,601fe0de101ae05414812f4d,3,100,74,48,19,27,female,,,"
  <table>
  <tr height=300>
    <td width=300 height=300><img src=""static/images/cards/4_of_red_stars.svg"" width=""175px"" height=""250px""></img></td>
    <td width=300 height=300><img src=""static/images/cards/back_of_red_stars.svg"" width=""175px"" height=""250px""></img></td>
  </tr>
  <tr height=200>
    <td width=300><img src=""static/images/keys/z.svg"" width=""35%"" height=""75%""></img></td>
    <td width=300></td>
  </tr>
</table>
  ",,,,,,,,,,,,,,,,,,,,,,,,,,,,
42,0,,html-keyboard-response,42,284520,0.0-4.3-3.3,wdta4fpc00i,2022-09-19 13:29:38.546,601fe0de101ae05414812f4d,3,100,74,48,19,27,female,,,"<p style=""font-size:50px"">You Lose!
No points this round.</p>",,,,,,,,,,,,,,,,,,,,,,,,,,,,
43,0,,html-keyboard-response,43,285039,0.0-4.3-4.3,wdta4fpc00i,2022-09-19 13:29:38.546,601fe0de101ae05414812f4d,3,100,74,48,19,27,female,,,,,,1.0,learning,3.0,D,,red,,stars,,,,D,red,stars,,0.0,0.0,1,left,404.6999999881,4.0,0.0,0.0,,,
44,0,,html-keyboard-response,44,286550,0.0-4.4-0.4,wdta4fpc00i,2022-09-19 13:29:38.546,601fe0de101ae05414812f4d,3,100,74,48,19,27,female,,,"<img src=""static/images/cards/stack_of_red_bolts.svg"" width=""175px"" height=""250px""></img>",,,,,,,,,,,,,,,,,,,,,,,,,,,,
45,0,,html-keyboard-response,45,287313,0.0-4.4-1.4,wdta4fpc00i,2022-09-19 13:29:38.546,601fe0de101ae05414812f4d,3,100,74,48,19,27,female,251.3000000119,,"
  <table>
  <tr height=300>
    <td width=300 height=300><img src=""static/images/cards/back_of_red_bolts.svg"" width=""175px"" height=""250px""></img></td>
    <td width=300 height=300><img src=""static/images/cards/back_of_red_bolts.svg"" width=""175px"" height=""250px""></img></td>
  </tr>
  <tr height=200>
    <td width=300><img src=""static/images/keys/z.svg"" width=""35%"" height=""75%""></img></td>
    <td width=300><img src=""static/images/keys/m.svg"" width=""35%"" height=""75%""></img></td>
  </tr>
</table>
  ",77.0,1.0,,,,,,,,,,,,,,,,,,,,,,,,,,
46,0,,html-keyboard-response,46,288829,0.0-4.4-2.4,wdta4fpc00i,2022-09-19 13:29:38.546,601fe0de101ae05414812f4d,3,100,74,48,19,27,female,,,"
  <table>
  <tr height=300>
    <td width=300 height=300><img src=""static/images/cards/back_of_red_bolts.svg"" width=""175px"" height=""250px""></img></td>
    <td width=300 height=300><img src=""static/images/cards/7_of_red_bolts.svg"" width=""175px"" height=""250px""></img></td>
  </tr>
  <tr height=200>
    <td width=300><img src=""static/images/keys/z.svg"" width=""35%"" height=""75%""></img></td>
    <td width=300><img src=""static/images/keys/m.svg"" width=""35%"" height=""75%""></img></td>
  </tr>
</table>
  ",,,,,,,,,,,,,,,,,,,,,,,,,,,,
47,0,,html-keyboard-response,47,290360,0.0-4.4-3.4,wdta4fpc00i,2022-09-19 13:29:38.546,601fe0de101ae05414812f4d,3,100,74,48,19,27,female,,,"<p style=""font-size:50px"">You win!
+10 points this round!</p>",,,,,,,,,,,,,,,,,,,,,,,,,,,,
48,0,,html-keyboard-response,48,290870,0.0-4.4-4.4,wdta4fpc00i,2022-09-19 13:29:38.546,601fe0de101ae05414812f4d,3,100,74,48,19,27,female,,,,,,1.0,learning,4.0,Xc,,red,,bolts,,,,Xc,red,bolts,,1.0,0.0,NA,right,251.3000000119,7.0,1.0,1.0,,,
49,0,,html-keyboard-response,49,292388,0.0-4.5-0.5,wdta4fpc00i,2022-09-19 13:29:38.546,601fe0de101ae05414812f4d,3,100,74,48,19,27,female,,,"<img src=""static/images/cards/stack_of_black_bolts.svg"" width=""175px"" height=""250px""></img>",,,,,,,,,,,,,,,,,,,,,,,,,,,,
50,0,,html-keyboard-response,50,293377,0.0-4.5-1.5,wdta4fpc00i,2022-09-19 13:29:38.546,601fe0de101ae05414812f4d,3,100,74,48,19,27,female,486.5,,"
  <table>
  <tr height=300>
    <td width=300 height=300><img src=""static/images/cards/back_of_black_bolts.svg"" width=""175px"" height=""250px""></img></td>
    <td width=300 height=300><img src=""static/images/cards/back_of_black_bolts.svg"" width=""175px"" height=""250px""></img></td>
  </tr>
  <tr height=200>
    <td width=300></td>
    <td width=300><img src=""static/images/keys/m.svg"" width=""35%"" height=""75%""></img></td>
  </tr>
</table>
  ",77.0,1.0,,,,,,,,,,,,,,,,,,,,,,,,,,
51,0,,html-keyboard-response,51,294896,0.0-4.5-2.5,wdta4fpc00i,2022-09-19 13:29:38.546,601fe0de101ae05414812f4d,3,100,74,48,19,27,female,,,"
  <table>
  <tr height=300>
    <td width=300 height=300><img src=""static/images/cards/back_of_black_bolts.svg"" width=""175px"" height=""250px""></img></td>
    <td width=300 height=300><img src=""static/images/cards/1_of_black_bolts.svg"" width=""175px"" height=""250px""></img></td>
  </tr>
  <tr height=200>
    <td width=300></td>
    <td width=300><img src=""static/images/keys/m.svg"" width=""35%"" height=""75%""></img></td>
  </tr>
</table>
  ",,,,,,,,,,,,,,,,,,,,,,,,,,,,
52,0,,html-keyboard-response,52,296419,0.0-4.5-3.5,wdta4fpc00i,2022-09-19 13:29:38.546,601fe0de101ae05414812f4d,3,100,74,48,19,27,female,,,"<p style=""font-size:50px"">You win!
+10 points this round!</p>",,,,,,,,,,,,,,,,,,,,,,,,,,,,
53,0,,html-keyboard-response,53,296939,0.0-4.5-4.5,wdta4fpc00i,2022-09-19 13:29:38.546,601fe0de101ae05414812f4d,3,100,74,48,19,27,female,,,,,,1.0,learning,5.0,Xnc,,black,,bolts,,,,Xnc,black,bolts,,0.0,0.0,0,right,486.5,1.0,0.0,1.0,,,
54,0,,html-keyboard-response,54,298452,0.0-4.6-0.6,wdta4fpc00i,2022-09-19 13:29:38.546,601fe0de101ae05414812f4d,3,100,74,48,19,27,female,,,"<img src=""static/images/cards/stack_of_black_moons.svg"" width=""175px"" height=""250px""></img>",,,,,,,,,,,,,,,,,,,,,,,,,,,,
55,0,,html-keyboard-response,55,300024,0.0-4.6-1.6,wdta4fpc00i,2022-09-19 13:29:38.546,601fe0de101ae05414812f4d,3,100,74,48,19,27,female,1064.1999999881,,"
  <table>
  <tr height=300>
    <td width=300 height=300><img src=""static/images/cards/back_of_black_moons.svg"" width=""175px"" height=""250px""></img></td>
    <td width=300 height=300><img src=""static/images/cards/back_of_black_moons.svg"" width=""175px"" height=""250px""></img></td>
  </tr>
  <tr height=200>
    <td width=300><img src=""static/images/keys/z.svg"" width=""35%"" height=""75%""></img></td>
    <td width=300><img src=""static/images/keys/m.svg"" width=""35%"" height=""75%""></img></td>
  </tr>
</table>
  ",77.0,1.0,,,,,,,,,,,,,,,,,,,,,,,,,,
56,0,,html-keyboard-response,56,301540,0.0-4.6-2.6,wdta4fpc00i,2022-09-19 13:29:38.546,601fe0de101ae05414812f4d,3,100,74,48,19,27,female,,,"
  <table>
  <tr height=300>
    <td width=300 height=300><img src=""static/images/cards/back_of_black_moons.svg"" width=""175px"" height=""250px""></img></td>
    <td width=300 height=300><img src=""static/images/cards/2_of_black_moons.svg"" width=""175px"" height=""250px""></img></td>
  </tr>
  <tr height=200>
    <td width=300><img src=""static/images/keys/z.svg"" width=""35%"" height=""75%""></img></td>
    <td width=300><img src=""static/images/keys/m.svg"" width=""35%"" height=""75%""></img></td>
  </tr>
</table>
  ",,,,,,,,,,,,,,,,,,,,,,,,,,,,
57,0,,html-keyboard-response,57,303060,0.0-4.6-3.6,wdta4fpc00i,2022-09-19 13:29:38.546,601fe0de101ae05414812f4d,3,100,74,48,19,27,female,,,"<p style=""font-size:50px"">You Lose!
No points this round.</p>",,,,,,,,,,,,,,,,,,,,,,,,,,,,
58,0,,html-keyboard-response,58,303579,0.0-4.6-4.6,wdta4fpc00i,2022-09-19 13:29:38.546,601fe0de101ae05414812f4d,3,100,74,48,19,27,female,,,,,,1.0,learning,6.0,A,,black,,moons,,,,A,black,moons,,1.0,1.0,NA,right,1064.1999999881,2.0,0.0,0.0,,,
59,0,,html-keyboard-response,59,305090,0.0-4.7-0.7,wdta4fpc00i,2022-09-19 13:29:38.546,601fe0de101ae05414812f4d,3,100,74,48,19,27,female,,,"<img src=""static/images/cards/stack_of_red_moons.svg"" width=""175px"" height=""250px""></img>",,,,,,,,,,,,,,,,,,,,,,,,,,,,
60,0,,html-keyboard-response,60,306585,0.0-4.7-1.7,wdta4fpc00i,2022-09-19 13:29:38.546,601fe0de101ae05414812f4d,3,100,74,48,19,27,female,973.1999999881,,"
  <table>
  <tr height=300>
    <td width=300 height=300><img src=""static/images/cards/back_of_red_moons.svg"" width=""175px"" height=""250px""></img></td>
    <td width=300 height=300><img src=""static/images/cards/back_of_red_moons.svg"" width=""175px"" height=""250px""></img></td>
  </tr>
  <tr height=200>
    <td width=300><img src=""static/images/keys/z.svg"" width=""35%"" height=""75%""></img></td>
    <td width=300></td>
  </tr>
</table>
  ",90.0,1.0,,,,,,,,,,,,,,,,,,,,,,,,,,
61,0,,html-keyboard-response,61,308101,0.0-4.7-2.7,wdta4fpc00i,2022-09-19 13:29:38.546,601fe0de101ae05414812f4d,3,100,74,48,19,27,female,,,"
  <table>
  <tr height=300>
    <td width=300 height=300><img src=""static/images/cards/6_of_red_moons.svg"" width=""175px"" height=""250px""></img></td>
    <td width=300 height=300><img src=""static/images/cards/back_of_red_moons.svg"" width=""175px"" height=""250px""></img></td>
  </tr>
  <tr height=200>
    <td width=300><img src=""static/images/keys/z.svg"" width=""35%"" height=""75%""></img></td>
    <td width=300></td>
  </tr>
</table>
  ",,,,,,,,,,,,,,,,,,,,,,,,,,,,
62,0,,html-keyboard-response,62,309630,0.0-4.7-3.7,wdta4fpc00i,2022-09-19 13:29:38.546,601fe0de101ae05414812f4d,3,100,74,48,19,27,female,,,"<p style=""font-size:50px"">You win!
+10 points this round!</p>",,,,,,,,,,,,,,,,,,,,,,,,,,,,
63,0,,html-keyboard-response,63,310150,0.0-4.7-4.7,wdta4fpc00i,2022-09-19 13:29:38.546,601fe0de101ae05414812f4d,3,100,74,48,19,27,female,,,,,,1.0,learning,7.0,B,,red,,moons,,,,B,red,moons,,0.0,1.0,1,left,973.1999999881,6.0,1.0,1.0,,,
64,0,,html-keyboard-response,64,311662,0.0-4.8-0.8,wdta4fpc00i,2022-09-19 13:29:38.546,601fe0de101ae05414812f4d,3,100,74,48,19,27,female,,,"<img src=""static/images/cards/stack_of_black_stars.svg"" width=""175px"" height=""250px""></img>",,,,,,,,,,,,,,,,,,,,,,,,,,,,
65,0,,html-keyboard-response,65,312718,0.0-4.8-1.8,wdta4fpc00i,2022-09-19 13:29:38.546,601fe0de101ae05414812f4d,3,100,74,48,19,27,female,536.8999999762,,"
  <table>
  <tr height=300>
    <td width=300 height=300><img src=""static/images/cards/back_of_black_stars.svg"" width=""175px"" height=""250px""></img></td>
    <td width=300 height=300><img src=""static/images/cards/back_of_black_stars.svg"" width=""175px"" height=""250px""></img></td>
  </tr>
  <tr height=200>
    <td width=300><img src=""static/images/keys/z.svg"" width=""35%"" height=""75%""></img></td>
    <td width=300><img src=""static/images/keys/m.svg"" width=""35%"" height=""75%""></img></td>
  </tr>
</table>
  ",77.0,1.0,,,,,,,,,,,,,,,,,,,,,,,,,,
66,0,,html-keyboard-response,66,314233,0.0-4.8-2.8,wdta4fpc00i,2022-09-19 13:29:38.546,601fe0de101ae05414812f4d,3,100,74,48,19,27,female,,,"
  <table>
  <tr height=300>
    <td width=300 height=300><img src=""static/images/cards/back_of_black_stars.svg"" width=""175px"" height=""250px""></img></td>
    <td width=300 height=300><img src=""static/images/cards/10_of_black_stars.svg"" width=""175px"" height=""250px""></img></td>
  </tr>
  <tr height=200>
    <td width=300><img src=""static/images/keys/z.svg"" width=""35%"" height=""75%""></img></td>
    <td width=300><img src=""static/images/keys/m.svg"" width=""35%"" height=""75%""></img></td>
  </tr>
</table>
  ",,,,,,,,,,,,,,,,,,,,,,,,,,,,
67,0,,html-keyboard-response,67,315770,0.0-4.8-3.8,wdta4fpc00i,2022-09-19 13:29:38.546,601fe0de101ae05414812f4d,3,100,74,48,19,27,female,,,"<p style=""font-size:50px"">You Lose!
No points this round.</p>",,,,,,,,,,,,,,,,,,,,,,,,,,,,
68,0,,html-keyboard-response,68,316299,0.0-4.8-4.8,wdta4fpc00i,2022-09-19 13:29:38.546,601fe0de101ae05414812f4d,3,100,74,48,19,27,female,,,,,,1.0,learning,8.0,C,,black,,stars,,,,C,black,stars,,1.0,0.0,NA,right,536.8999999762,10.0,1.0,0.0,,,
69,0,,html-keyboard-response,69,317817,0.0-4.9-0.9,wdta4fpc00i,2022-09-19 13:29:38.546,601fe0de101ae05414812f4d,3,100,74,48,19,27,female,,,"<img src=""static/images/cards/stack_of_red_stars.svg"" width=""175px"" height=""250px""></img>",,,,,,,,,,,,,,,,,,,,,,,,,,,,
70,0,,html-keyboard-response,70,318707,0.0-4.9-1.9,wdta4fpc00i,2022-09-19 13:29:38.546,601fe0de101ae05414812f4d,3,100,74,48,19,27,female,375.3000000119,,"
  <table>
  <tr height=300>
    <td width=300 height=300><img src=""static/images/cards/back_of_red_stars.svg"" width=""175px"" height=""250px""></img></td>
    <td width=300 height=300><img src=""static/images/cards/back_of_red_stars.svg"" width=""175px"" height=""250px""></img></td>
  </tr>
  <tr height=200>
    <td width=300><img src=""static/images/keys/z.svg"" width=""35%"" height=""75%""></img></td>
    <td width=300></td>
  </tr>
</table>
  ",90.0,1.0,,,,,,,,,,,,,,,,,,,,,,,,,,
71,0,,html-keyboard-response,71,320216,0.0-4.9-2.9,wdta4fpc00i,2022-09-19 13:29:38.546,601fe0de101ae05414812f4d,3,100,74,48,19,27,female,,,"
  <table>
  <tr height=300>
    <td width=300 height=300><img src=""static/images/cards/9_of_red_stars.svg"" width=""175px"" height=""250px""></img></td>
    <td width=300 height=300><img src=""static/images/cards/back_of_red_stars.svg"" width=""175px"" height=""250px""></img></td>
  </tr>
  <tr height=200>
    <td width=300><img src=""static/images/keys/z.svg"" width=""35%"" height=""75%""></img></td>
    <td width=300></td>
  </tr>
</table>
  ",,,,,,,,,,,,,,,,,,,,,,,,,,,,
72,0,,html-keyboard-response,72,321737,0.0-4.9-3.9,wdta4fpc00i,2022-09-19 13:29:38.546,601fe0de101ae05414812f4d,3,100,74,48,19,27,female,,,"<p style=""font-size:50px"">You Lose!
No points this round.</p>",,,,,,,,,,,,,,,,,,,,,,,,,,,,
73,0,,html-keyboard-response,73,322248,0.0-4.9-4.9,wdta4fpc00i,2022-09-19 13:29:38.546,601fe0de101ae05414812f4d,3,100,74,48,19,27,female,,,,,,1.0,learning,9.0,D,,red,,stars,,,,D,red,stars,,0.0,0.0,1,left,375.3000000119,9.0,1.0,0.0,,,
74,0,,html-keyboard-response,74,323765,0.0-4.10-0.10,wdta4fpc00i,2022-09-19 13:29:38.546,601fe0de101ae05414812f4d,3,100,74,48,19,27,female,,,"<img src=""static/images/cards/stack_of_red_bolts.svg"" width=""175px"" height=""250px""></img>",,,,,,,,,,,,,,,,,,,,,,,,,,,,
75,0,,html-keyboard-response,75,324512,0.0-4.10-1.10,wdta4fpc00i,2022-09-19 13:29:38.546,601fe0de101ae05414812f4d,3,100,74,48,19,27,female,244.1999999881,,"
  <table>
  <tr height=300>
    <td width=300 height=300><img src=""static/images/cards/back_of_red_bolts.svg"" width=""175px"" height=""250px""></img></td>
    <td width=300 height=300><img src=""static/images/cards/back_of_red_bolts.svg"" width=""175px"" height=""250px""></img></td>
  </tr>
  <tr height=200>
    <td width=300><img src=""static/images/keys/z.svg"" width=""35%"" height=""75%""></img></td>
    <td width=300><img src=""static/images/keys/m.svg"" width=""35%"" height=""75%""></img></td>
  </tr>
</table>
  ",77.0,1.0,,,,,,,,,,,,,,,,,,,,,,,,,,
76,0,,html-keyboard-response,76,326021,0.0-4.10-2.10,wdta4fpc00i,2022-09-19 13:29:38.546,601fe0de101ae05414812f4d,3,100,74,48,19,27,female,,,"
  <table>
  <tr height=300>
    <td width=300 height=300><img src=""static/images/cards/back_of_red_bolts.svg"" width=""175px"" height=""250px""></img></td>
    <td width=300 height=300><img src=""static/images/cards/3_of_red_bolts.svg"" width=""175px"" height=""250px""></img></td>
  </tr>
  <tr height=200>
    <td width=300><img src=""static/images/keys/z.svg"" width=""35%"" height=""75%""></img></td>
    <td width=300><img src=""static/images/keys/m.svg"" width=""35%"" height=""75%""></img></td>
  </tr>
</table>
  ",,,,,,,,,,,,,,,,,,,,,,,,,,,,
77,0,,html-keyboard-response,77,327539,0.0-4.10-3.10,wdta4fpc00i,2022-09-19 13:29:38.546,601fe0de101ae05414812f4d,3,100,74,48,19,27,female,,,"<p style=""font-size:50px"">You win!
+10 points this round!</p>",,,,,,,,,,,,,,,,,,,,,,,,,,,,
78,0,,html-keyboard-response,78,328062,0.0-4.10-4.10,wdta4fpc00i,2022-09-19 13:29:38.546,601fe0de101ae05414812f4d,3,100,74,48,19,27,female,,,,,,1.0,learning,10.0,Xc,,red,,bolts,,,,Xc,red,bolts,,1.0,0.0,NA,right,244.1999999881,3.0,0.0,1.0,,,
79,0,,html-keyboard-response,79,329574,0.0-4.11-0.11,wdta4fpc00i,2022-09-19 13:29:38.546,601fe0de101ae05414812f4d,3,100,74,48,19,27,female,,,"<img src=""static/images/cards/stack_of_black_bolts.svg"" width=""175px"" height=""250px""></img>",,,,,,,,,,,,,,,,,,,,,,,,,,,,
80,0,,html-keyboard-response,80,330311,0.0-4.11-1.11,wdta4fpc00i,2022-09-19 13:29:38.546,601fe0de101ae05414812f4d,3,100,74,48,19,27,female,233.3000000119,,"
  <table>
  <tr height=300>
    <td width=300 height=300><img src=""static/images/cards/back_of_black_bolts.svg"" width=""175px"" height=""250px""></img></td>
    <td width=300 height=300><img src=""static/images/cards/back_of_black_bolts.svg"" width=""175px"" height=""250px""></img></td>
  </tr>
  <tr height=200>
    <td width=300></td>
    <td width=300><img src=""static/images/keys/m.svg"" width=""35%"" height=""75%""></img></td>
  </tr>
</table>
  ",77.0,1.0,,,,,,,,,,,,,,,,,,,,,,,,,,
81,0,,html-keyboard-response,81,331833,0.0-4.11-2.11,wdta4fpc00i,2022-09-19 13:29:38.546,601fe0de101ae05414812f4d,3,100,74,48,19,27,female,,,"
  <table>
  <tr height=300>
    <td width=300 height=300><img src=""static/images/cards/back_of_black_bolts.svg"" width=""175px"" height=""250px""></img></td>
    <td width=300 height=300><img src=""static/images/cards/3_of_black_bolts.svg"" width=""175px"" height=""250px""></img></td>
  </tr>
  <tr height=200>
    <td width=300></td>
    <td width=300><img src=""static/images/keys/m.svg"" width=""35%"" height=""75%""></img></td>
  </tr>
</table>
  ",,,,,,,,,,,,,,,,,,,,,,,,,,,,
82,0,,html-keyboard-response,82,333340,0.0-4.11-3.11,wdta4fpc00i,2022-09-19 13:29:38.546,601fe0de101ae05414812f4d,3,100,74,48,19,27,female,,,"<p style=""font-size:50px"">You win!
+10 points this round!</p>",,,,,,,,,,,,,,,,,,,,,,,,,,,,
83,0,,html-keyboard-response,83,333849,0.0-4.11-4.11,wdta4fpc00i,2022-09-19 13:29:38.546,601fe0de101ae05414812f4d,3,100,74,48,19,27,female,,,,,,1.0,learning,11.0,Xnc,,black,,bolts,,,,Xnc,black,bolts,,0.0,0.0,0,right,233.3000000119,3.0,0.0,1.0,,,
84,0,,html-keyboard-response,84,335366,0.0-4.12-0.12,wdta4fpc00i,2022-09-19 13:29:38.546,601fe0de101ae05414812f4d,3,100,74,48,19,27,female,,,"<img src=""static/images/cards/stack_of_black_moons.svg"" width=""175px"" height=""250px""></img>",,,,,,,,,,,,,,,,,,,,,,,,,,,,
85,0,,html-keyboard-response,85,336445,0.0-4.12-1.12,wdta4fpc00i,2022-09-19 13:29:38.546,601fe0de101ae05414812f4d,3,100,74,48,19,27,female,562.8000000119,,"
  <table>
  <tr height=300>
    <td width=300 height=300><img src=""static/images/cards/back_of_black_moons.svg"" width=""175px"" height=""250px""></img></td>
    <td width=300 height=300><img src=""static/images/cards/back_of_black_moons.svg"" width=""175px"" height=""250px""></img></td>
  </tr>
  <tr height=200>
    <td width=300><img src=""static/images/keys/z.svg"" width=""35%"" height=""75%""></img></td>
    <td width=300><img src=""static/images/keys/m.svg"" width=""35%"" height=""75%""></img></td>
  </tr>
</table>
  ",77.0,1.0,,,,,,,,,,,,,,,,,,,,,,,,,,
86,0,,html-keyboard-response,86,337958,0.0-4.12-2.12,wdta4fpc00i,2022-09-19 13:29:38.546,601fe0de101ae05414812f4d,3,100,74,48,19,27,female,,,"
  <table>
  <tr height=300>
    <td width=300 height=300><img src=""static/images/cards/back_of_black_moons.svg"" width=""175px"" height=""250px""></img></td>
    <td width=300 height=300><img src=""static/images/cards/8_of_black_moons.svg"" width=""175px"" height=""250px""></img></td>
  </tr>
  <tr height=200>
    <td width=300><img src=""static/images/keys/z.svg"" width=""35%"" height=""75%""></img></td>
    <td width=300><img src=""static/images/keys/m.svg"" width=""35%"" height=""75%""></img></td>
  </tr>
</table>
  ",,,,,,,,,,,,,,,,,,,,,,,,,,,,
87,0,,html-keyboard-response,87,339477,0.0-4.12-3.12,wdta4fpc00i,2022-09-19 13:29:38.546,601fe0de101ae05414812f4d,3,100,74,48,19,27,female,,,"<p style=""font-size:50px"">You win!
+10 points this round!</p>",,,,,,,,,,,,,,,,,,,,,,,,,,,,
88,0,,html-keyboard-response,88,340005,0.0-4.12-4.12,wdta4fpc00i,2022-09-19 13:29:38.546,601fe0de101ae05414812f4d,3,100,74,48,19,27,female,,,,,,1.0,learning,12.0,A,,black,,moons,,,,A,black,moons,,1.0,1.0,NA,right,562.8000000119,8.0,1.0,1.0,,,
89,0,,html-keyboard-response,89,341517,0.0-4.13-0.13,wdta4fpc00i,2022-09-19 13:29:38.546,601fe0de101ae05414812f4d,3,100,74,48,19,27,female,,,"<img src=""static/images/cards/stack_of_red_moons.svg"" width=""175px"" height=""250px""></img>",,,,,,,,,,,,,,,,,,,,,,,,,,,,
90,0,,html-keyboard-response,90,342518,0.0-4.13-1.13,wdta4fpc00i,2022-09-19 13:29:38.546,601fe0de101ae05414812f4d,3,100,74,48,19,27,female,484.0999999642,,"
  <table>
  <tr height=300>
    <td width=300 height=300><img src=""static/images/cards/back_of_red_moons.svg"" width=""175px"" height=""250px""></img></td>
    <td width=300 height=300><img src=""static/images/cards/back_of_red_moons.svg"" width=""175px"" height=""250px""></img></td>
  </tr>
  <tr height=200>
    <td width=300></td>
    <td width=300><img src=""static/images/keys/m.svg"" width=""35%"" height=""75%""></img></td>
  </tr>
</table>
  ",77.0,1.0,,,,,,,,,,,,,,,,,,,,,,,,,,
91,0,,html-keyboard-response,91,344028,0.0-4.13-2.13,wdta4fpc00i,2022-09-19 13:29:38.546,601fe0de101ae05414812f4d,3,100,74,48,19,27,female,,,"
  <table>
  <tr height=300>
    <td width=300 height=300><img src=""static/images/cards/back_of_red_moons.svg"" width=""175px"" height=""250px""></img></td>
    <td width=300 height=300><img src=""static/images/cards/6_of_red_moons.svg"" width=""175px"" height=""250px""></img></td>
  </tr>
  <tr height=200>
    <td width=300></td>
    <td width=300><img src=""static/images/keys/m.svg"" width=""35%"" height=""75%""></img></td>
  </tr>
</table>
  ",,,,,,,,,,,,,,,,,,,,,,,,,,,,
92,0,,html-keyboard-response,92,345548,0.0-4.13-3.13,wdta4fpc00i,2022-09-19 13:29:38.546,601fe0de101ae05414812f4d,3,100,74,48,19,27,female,,,"<p style=""font-size:50px"">You win!
+10 points this round!</p>",,,,,,,,,,,,,,,,,,,,,,,,,,,,
93,0,,html-keyboard-response,93,346076,0.0-4.13-4.13,wdta4fpc00i,2022-09-19 13:29:38.546,601fe0de101ae05414812f4d,3,100,74,48,19,27,female,,,,,,1.0,learning,13.0,B,,red,,moons,,,,B,red,moons,,0.0,1.0,0,right,484.0999999642,6.0,1.0,1.0,,,
94,0,,html-keyboard-response,94,347581,0.0-4.14-0.14,wdta4fpc00i,2022-09-19 13:29:38.546,601fe0de101ae05414812f4d,3,100,74,48,19,27,female,,,"<img src=""static/images/cards/stack_of_black_stars.svg"" width=""175px"" height=""250px""></img>",,,,,,,,,,,,,,,,,,,,,,,,,,,,
95,0,,html-keyboard-response,95,348558,0.0-4.14-1.14,wdta4fpc00i,2022-09-19 13:29:38.546,601fe0de101ae05414812f4d,3,100,74,48,19,27,female,460.6000000238,,"
  <table>
  <tr height=300>
    <td width=300 height=300><img src=""static/images/cards/back_of_black_stars.svg"" width=""175px"" height=""250px""></img></td>
    <td width=300 height=300><img src=""static/images/cards/back_of_black_stars.svg"" width=""175px"" height=""250px""></img></td>
  </tr>
  <tr height=200>
    <td width=300><img src=""static/images/keys/z.svg"" width=""35%"" height=""75%""></img></td>
    <td width=300><img src=""static/images/keys/m.svg"" width=""35%"" height=""75%""></img></td>
  </tr>
</table>
  ",77.0,1.0,,,,,,,,,,,,,,,,,,,,,,,,,,
96,0,,html-keyboard-response,96,350070,0.0-4.14-2.14,wdta4fpc00i,2022-09-19 13:29:38.546,601fe0de101ae05414812f4d,3,100,74,48,19,27,female,,,"
  <table>
  <tr height=300>
    <td width=300 height=300><img src=""static/images/cards/back_of_black_stars.svg"" width=""175px"" height=""250px""></img></td>
    <td width=300 height=300><img src=""static/images/cards/6_of_black_stars.svg"" width=""175px"" height=""250px""></img></td>
  </tr>
  <tr height=200>
    <td width=300><img src=""static/images/keys/z.svg"" width=""35%"" height=""75%""></img></td>
    <td width=300><img src=""static/images/keys/m.svg"" width=""35%"" height=""75%""></img></td>
  </tr>
</table>
  ",,,,,,,,,,,,,,,,,,,,,,,,,,,,
97,0,,html-keyboard-response,97,351583,0.0-4.14-3.14,wdta4fpc00i,2022-09-19 13:29:38.546,601fe0de101ae05414812f4d,3,100,74,48,19,27,female,,,"<p style=""font-size:50px"">You win!
+10 points this round!</p>",,,,,,,,,,,,,,,,,,,,,,,,,,,,
98,0,,html-keyboard-response,98,352101,0.0-4.14-4.14,wdta4fpc00i,2022-09-19 13:29:38.546,601fe0de101ae05414812f4d,3,100,74,48,19,27,female,,,,,,1.0,learning,14.0,C,,black,,stars,,,,C,black,stars,,1.0,0.0,NA,right,460.6000000238,6.0,1.0,1.0,,,
99,0,,html-keyboard-response,99,353605,0.0-4.15-0.15,wdta4fpc00i,2022-09-19 13:29:38.546,601fe0de101ae05414812f4d,3,100,74,48,19,27,female,,,"<img src=""static/images/cards/stack_of_red_stars.svg"" width=""175px"" height=""250px""></img>",,,,,,,,,,,,,,,,,,,,,,,,,,,,
100,0,,html-keyboard-response,100,354463,0.0-4.15-1.15,wdta4fpc00i,2022-09-19 13:29:38.546,601fe0de101ae05414812f4d,3,100,74,48,19,27,female,350.0,,"
  <table>
  <tr height=300>
    <td width=300 height=300><img src=""static/images/cards/back_of_red_stars.svg"" width=""175px"" height=""250px""></img></td>
    <td width=300 height=300><img src=""static/images/cards/back_of_red_stars.svg"" width=""175px"" height=""250px""></img></td>
  </tr>
  <tr height=200>
    <td width=300><img src=""static/images/keys/z.svg"" width=""35%"" height=""75%""></img></td>
    <td width=300></td>
  </tr>
</table>
  ",90.0,1.0,,,,,,,,,,,,,,,,,,,,,,,,,,
101,0,,html-keyboard-response,101,355973,0.0-4.15-2.15,wdta4fpc00i,2022-09-19 13:29:38.546,601fe0de101ae05414812f4d,3,100,74,48,19,27,female,,,"
  <table>
  <tr height=300>
    <td width=300 height=300><img src=""static/images/cards/3_of_red_stars.svg"" width=""175px"" height=""250px""></img></td>
    <td width=300 height=300><img src=""static/images/cards/back_of_red_stars.svg"" width=""175px"" height=""250px""></img></td>
  </tr>
  <tr height=200>
    <td width=300><img src=""static/images/keys/z.svg"" width=""35%"" height=""75%""></img></td>
    <td width=300></td>
  </tr>
</table>
  ",,,,,,,,,,,,,,,,,,,,,,,,,,,,
102,0,,html-keyboard-response,102,357482,0.0-4.15-3.15,wdta4fpc00i,2022-09-19 13:29:38.546,601fe0de101ae05414812f4d,3,100,74,48,19,27,female,,,"<p style=""font-size:50px"">You win!
+10 points this round!</p>",,,,,,,,,,,,,,,,,,,,,,,,,,,,
103,0,,html-keyboard-response,103,357998,0.0-4.15-4.15,wdta4fpc00i,2022-09-19 13:29:38.546,601fe0de101ae05414812f4d,3,100,74,48,19,27,female,,,,,,1.0,learning,15.0,D,,red,,stars,,,,D,red,stars,,0.0,0.0,1,left,350.0,3.0,0.0,1.0,,,
104,0,,html-keyboard-response,104,359503,0.0-4.16-0.16,wdta4fpc00i,2022-09-19 13:29:38.546,601fe0de101ae05414812f4d,3,100,74,48,19,27,female,,,"<img src=""static/images/cards/stack_of_red_bolts.svg"" width=""175px"" height=""250px""></img>",,,,,,,,,,,,,,,,,,,,,,,,,,,,
105,0,,html-keyboard-response,105,360268,0.0-4.16-1.16,wdta4fpc00i,2022-09-19 13:29:38.546,601fe0de101ae05414812f4d,3,100,74,48,19,27,female,250.1999999881,,"
  <table>
  <tr height=300>
    <td width=300 height=300><img src=""static/images/cards/back_of_red_bolts.svg"" width=""175px"" height=""250px""></img></td>
    <td width=300 height=300><img src=""static/images/cards/back_of_red_bolts.svg"" width=""175px"" height=""250px""></img></td>
  </tr>
  <tr height=200>
    <td width=300><img src=""static/images/keys/z.svg"" width=""35%"" height=""75%""></img></td>
    <td width=300><img src=""static/images/keys/m.svg"" width=""35%"" height=""75%""></img></td>
  </tr>
</table>
  ",77.0,1.0,,,,,,,,,,,,,,,,,,,,,,,,,,
106,0,,html-keyboard-response,106,361785,0.0-4.16-2.16,wdta4fpc00i,2022-09-19 13:29:38.546,601fe0de101ae05414812f4d,3,100,74,48,19,27,female,,,"
  <table>
  <tr height=300>
    <td width=300 height=300><img src=""static/images/cards/back_of_red_bolts.svg"" width=""175px"" height=""250px""></img></td>
    <td width=300 height=300><img src=""static/images/cards/6_of_red_bolts.svg"" width=""175px"" height=""250px""></img></td>
  </tr>
  <tr height=200>
    <td width=300><img src=""static/images/keys/z.svg"" width=""35%"" height=""75%""></img></td>
    <td width=300><img src=""static/images/keys/m.svg"" width=""35%"" height=""75%""></img></td>
  </tr>
</table>
  ",,,,,,,,,,,,,,,,,,,,,,,,,,,,
107,0,,html-keyboard-response,107,363322,0.0-4.16-3.16,wdta4fpc00i,2022-09-19 13:29:38.546,601fe0de101ae05414812f4d,3,100,74,48,19,27,female,,,"<p style=""font-size:50px"">You win!
+10 points this round!</p>",,,,,,,,,,,,,,,,,,,,,,,,,,,,
108,0,,html-keyboard-response,108,363841,0.0-4.16-4.16,wdta4fpc00i,2022-09-19 13:29:38.546,601fe0de101ae05414812f4d,3,100,74,48,19,27,female,,,,,,1.0,learning,16.0,Xc,,red,,bolts,,,,Xc,red,bolts,,1.0,0.0,NA,right,250.1999999881,6.0,1.0,1.0,,,
109,0,,html-keyboard-response,109,365350,0.0-4.17-0.17,wdta4fpc00i,2022-09-19 13:29:38.546,601fe0de101ae05414812f4d,3,100,74,48,19,27,female,,,"<img src=""static/images/cards/stack_of_black_bolts.svg"" width=""175px"" height=""250px""></img>",,,,,,,,,,,,,,,,,,,,,,,,,,,,
110,0,,html-keyboard-response,110,366295,0.0-4.17-1.17,wdta4fpc00i,2022-09-19 13:29:38.546,601fe0de101ae05414812f4d,3,100,74,48,19,27,female,428.5,,"
  <table>
  <tr height=300>
    <td width=300 height=300><img src=""static/images/cards/back_of_black_bolts.svg"" width=""175px"" height=""250px""></img></td>
    <td width=300 height=300><img src=""static/images/cards/back_of_black_bolts.svg"" width=""175px"" height=""250px""></img></td>
  </tr>
  <tr height=200>
    <td width=300></td>
    <td width=300><img src=""static/images/keys/m.svg"" width=""35%"" height=""75%""></img></td>
  </tr>
</table>
  ",77.0,1.0,,,,,,,,,,,,,,,,,,,,,,,,,,
111,0,,html-keyboard-response,111,367809,0.0-4.17-2.17,wdta4fpc00i,2022-09-19 13:29:38.546,601fe0de101ae05414812f4d,3,100,74,48,19,27,female,,,"
  <table>
  <tr height=300>
    <td width=300 height=300><img src=""static/images/cards/back_of_black_bolts.svg"" width=""175px"" height=""250px""></img></td>
    <td width=300 height=300><img src=""static/images/cards/7_of_black_bolts.svg"" width=""175px"" height=""250px""></img></td>
  </tr>
  <tr height=200>
    <td width=300></td>
    <td width=300><img src=""static/images/keys/m.svg"" width=""35%"" height=""75%""></img></td>
  </tr>
</table>
  ",,,,,,,,,,,,,,,,,,,,,,,,,,,,
112,0,,html-keyboard-response,112,369333,0.0-4.17-3.17,wdta4fpc00i,2022-09-19 13:29:38.546,601fe0de101ae05414812f4d,3,100,74,48,19,27,female,,,"<p style=""font-size:50px"">You win!
+10 points this round!</p>",,,,,,,,,,,,,,,,,,,,,,,,,,,,
113,0,,html-keyboard-response,113,369853,0.0-4.17-4.17,wdta4fpc00i,2022-09-19 13:29:38.546,601fe0de101ae05414812f4d,3,100,74,48,19,27,female,,,,,,1.0,learning,17.0,Xnc,,black,,bolts,,,,Xnc,black,bolts,,0.0,0.0,0,right,428.5,7.0,1.0,1.0,,,
114,0,,html-keyboard-response,114,371357,0.0-4.18-0.18,wdta4fpc00i,2022-09-19 13:29:38.546,601fe0de101ae05414812f4d,3,100,74,48,19,27,female,,,"<img src=""static/images/cards/stack_of_black_moons.svg"" width=""175px"" height=""250px""></img>",,,,,,,,,,,,,,,,,,,,,,,,,,,,
115,0,,html-keyboard-response,115,372231,0.0-4.18-1.18,wdta4fpc00i,2022-09-19 13:29:38.546,601fe0de101ae05414812f4d,3,100,74,48,19,27,female,368.1999999881,,"
  <table>
  <tr height=300>
    <td width=300 height=300><img src=""static/images/cards/back_of_black_moons.svg"" width=""175px"" height=""250px""></img></td>
    <td width=300 height=300><img src=""static/images/cards/back_of_black_moons.svg"" width=""175px"" height=""250px""></img></td>
  </tr>
  <tr height=200>
    <td width=300><img src=""static/images/keys/z.svg"" width=""35%"" height=""75%""></img></td>
    <td width=300><img src=""static/images/keys/m.svg"" width=""35%"" height=""75%""></img></td>
  </tr>
</table>
  ",90.0,1.0,,,,,,,,,,,,,,,,,,,,,,,,,,
116,0,,html-keyboard-response,116,373741,0.0-4.18-2.18,wdta4fpc00i,2022-09-19 13:29:38.546,601fe0de101ae05414812f4d,3,100,74,48,19,27,female,,,"
  <table>
  <tr height=300>
    <td width=300 height=300><img src=""static/images/cards/2_of_black_moons.svg"" width=""175px"" height=""250px""></img></td>
    <td width=300 height=300><img src=""static/images/cards/back_of_black_moons.svg"" width=""175px"" height=""250px""></img></td>
  </tr>
  <tr height=200>
    <td width=300><img src=""static/images/keys/z.svg"" width=""35%"" height=""75%""></img></td>
    <td width=300><img src=""static/images/keys/m.svg"" width=""35%"" height=""75%""></img></td>
  </tr>
</table>
  ",,,,,,,,,,,,,,,,,,,,,,,,,,,,
117,0,,html-keyboard-response,117,375257,0.0-4.18-3.18,wdta4fpc00i,2022-09-19 13:29:38.546,601fe0de101ae05414812f4d,3,100,74,48,19,27,female,,,"<p style=""font-size:50px"">You Lose!
No points this round.</p>",,,,,,,,,,,,,,,,,,,,,,,,,,,,
118,0,,html-keyboard-response,118,375774,0.0-4.18-4.18,wdta4fpc00i,2022-09-19 13:29:38.546,601fe0de101ae05414812f4d,3,100,74,48,19,27,female,,,,,,1.0,learning,18.0,A,,black,,moons,,,,A,black,moons,,1.0,1.0,NA,left,368.1999999881,2.0,0.0,0.0,,,
119,0,,html-keyboard-response,119,377281,0.0-4.19-0.19,wdta4fpc00i,2022-09-19 13:29:38.546,601fe0de101ae05414812f4d,3,100,74,48,19,27,female,,,"<img src=""static/images/cards/stack_of_red_moons.svg"" width=""175px"" height=""250px""></img>",,,,,,,,,,,,,,,,,,,,,,,,,,,,
120,0,,html-keyboard-response,120,378205,0.0-4.19-1.19,wdta4fpc00i,2022-09-19 13:29:38.546,601fe0de101ae05414812f4d,3,100,74,48,19,27,female,416.8999999762,,"
  <table>
  <tr height=300>
    <td width=300 height=300><img src=""static/images/cards/back_of_red_moons.svg"" width=""175px"" height=""250px""></img></td>
    <td width=300 height=300><img src=""static/images/cards/back_of_red_moons.svg"" width=""175px"" height=""250px""></img></td>
  </tr>
  <tr height=200>
    <td width=300></td>
    <td width=300><img src=""static/images/keys/m.svg"" width=""35%"" height=""75%""></img></td>
  </tr>
</table>
  ",77.0,1.0,,,,,,,,,,,,,,,,,,,,,,,,,,
121,0,,html-keyboard-response,121,379716,0.0-4.19-2.19,wdta4fpc00i,2022-09-19 13:29:38.546,601fe0de101ae05414812f4d,3,100,74,48,19,27,female,,,"
  <table>
  <tr height=300>
    <td width=300 height=300><img src=""static/images/cards/back_of_red_moons.svg"" width=""175px"" height=""250px""></img></td>
    <td width=300 height=300><img src=""static/images/cards/3_of_red_moons.svg"" width=""175px"" height=""250px""></img></td>
  </tr>
  <tr height=200>
    <td width=300></td>
    <td width=300><img src=""static/images/keys/m.svg"" width=""35%"" height=""75%""></img></td>
  </tr>
</table>
  ",,,,,,,,,,,,,,,,,,,,,,,,,,,,
122,0,,html-keyboard-response,122,381241,0.0-4.19-3.19,wdta4fpc00i,2022-09-19 13:29:38.546,601fe0de101ae05414812f4d,3,100,74,48,19,27,female,,,"<p style=""font-size:50px"">You Lose!
No points this round.</p>",,,,,,,,,,,,,,,,,,,,,,,,,,,,
123,0,,html-keyboard-response,123,381765,0.0-4.19-4.19,wdta4fpc00i,2022-09-19 13:29:38.546,601fe0de101ae05414812f4d,3,100,74,48,19,27,female,,,,,,1.0,learning,19.0,B,,red,,moons,,,,B,red,moons,,0.0,1.0,0,right,416.8999999762,3.0,0.0,0.0,,,
124,0,,html-keyboard-response,124,383284,0.0-4.20-0.20,wdta4fpc00i,2022-09-19 13:29:38.546,601fe0de101ae05414812f4d,3,100,74,48,19,27,female,,,"<img src=""static/images/cards/stack_of_black_stars.svg"" width=""175px"" height=""250px""></img>",,,,,,,,,,,,,,,,,,,,,,,,,,,,
125,0,,html-keyboard-response,125,384214,0.0-4.20-1.20,wdta4fpc00i,2022-09-19 13:29:38.546,601fe0de101ae05414812f4d,3,100,74,48,19,27,female,415.2000000477,,"
  <table>
  <tr height=300>
    <td width=300 height=300><img src=""static/images/cards/back_of_black_stars.svg"" width=""175px"" height=""250px""></img></td>
    <td width=300 height=300><img src=""static/images/cards/back_of_black_stars.svg"" width=""175px"" height=""250px""></img></td>
  </tr>
  <tr height=200>
    <td width=300><img src=""static/images/keys/z.svg"" width=""35%"" height=""75%""></img></td>
    <td width=300><img src=""static/images/keys/m.svg"" width=""35%"" height=""75%""></img></td>
  </tr>
</table>
  ",77.0,1.0,,,,,,,,,,,,,,,,,,,,,,,,,,
126,0,,html-keyboard-response,126,385724,0.0-4.20-2.20,wdta4fpc00i,2022-09-19 13:29:38.546,601fe0de101ae05414812f4d,3,100,74,48,19,27,female,,,"
  <table>
  <tr height=300>
    <td width=300 height=300><img src=""static/images/cards/back_of_black_stars.svg"" width=""175px"" height=""250px""></img></td>
    <td width=300 height=300><img src=""static/images/cards/4_of_black_stars.svg"" width=""175px"" height=""250px""></img></td>
  </tr>
  <tr height=200>
    <td width=300><img src=""static/images/keys/z.svg"" width=""35%"" height=""75%""></img></td>
    <td width=300><img src=""static/images/keys/m.svg"" width=""35%"" height=""75%""></img></td>
  </tr>
</table>
  ",,,,,,,,,,,,,,,,,,,,,,,,,,,,
127,0,,html-keyboard-response,127,387241,0.0-4.20-3.20,wdta4fpc00i,2022-09-19 13:29:38.546,601fe0de101ae05414812f4d,3,100,74,48,19,27,female,,,"<p style=""font-size:50px"">You Lose!
No points this round.</p>",,,,,,,,,,,,,,,,,,,,,,,,,,,,
128,0,,html-keyboard-response,128,387768,0.0-4.20-4.20,wdta4fpc00i,2022-09-19 13:29:38.546,601fe0de101ae05414812f4d,3,100,74,48,19,27,female,,,,,,1.0,learning,20.0,C,,black,,stars,,,,C,black,stars,,1.0,0.0,NA,right,415.2000000477,4.0,0.0,0.0,,,
129,0,,html-keyboard-response,129,389278,0.0-4.21-0.21,wdta4fpc00i,2022-09-19 13:29:38.546,601fe0de101ae05414812f4d,3,100,74,48,19,27,female,,,"<img src=""static/images/cards/stack_of_red_stars.svg"" width=""175px"" height=""250px""></img>",,,,,,,,,,,,,,,,,,,,,,,,,,,,
130,0,,html-keyboard-response,130,390120,0.0-4.21-1.21,wdta4fpc00i,2022-09-19 13:29:38.546,601fe0de101ae05414812f4d,3,100,74,48,19,27,female,330.5,,"
  <table>
  <tr height=300>
    <td width=300 height=300><img src=""static/images/cards/back_of_red_stars.svg"" width=""175px"" height=""250px""></img></td>
    <td width=300 height=300><img src=""static/images/cards/back_of_red_stars.svg"" width=""175px"" height=""250px""></img></td>
  </tr>
  <tr height=200>
    <td width=300><img src=""static/images/keys/z.svg"" width=""35%"" height=""75%""></img></td>
    <td width=300></td>
  </tr>
</table>
  ",90.0,1.0,,,,,,,,,,,,,,,,,,,,,,,,,,
131,0,,html-keyboard-response,131,391627,0.0-4.21-2.21,wdta4fpc00i,2022-09-19 13:29:38.546,601fe0de101ae05414812f4d,3,100,74,48,19,27,female,,,"
  <table>
  <tr height=300>
    <td width=300 height=300><img src=""static/images/cards/8_of_red_stars.svg"" width=""175px"" height=""250px""></img></td>
    <td width=300 height=300><img src=""static/images/cards/back_of_red_stars.svg"" width=""175px"" height=""250px""></img></td>
  </tr>
  <tr height=200>
    <td width=300><img src=""static/images/keys/z.svg"" width=""35%"" height=""75%""></img></td>
    <td width=300></td>
  </tr>
</table>
  ",,,,,,,,,,,,,,,,,,,,,,,,,,,,
132,0,,html-keyboard-response,132,393142,0.0-4.21-3.21,wdta4fpc00i,2022-09-19 13:29:38.546,601fe0de101ae05414812f4d,3,100,74,48,19,27,female,,,"<p style=""font-size:50px"">You win!
+10 points this round!</p>",,,,,,,,,,,,,,,,,,,,,,,,,,,,
133,0,,html-keyboard-response,133,393666,0.0-4.21-4.21,wdta4fpc00i,2022-09-19 13:29:38.546,601fe0de101ae05414812f4d,3,100,74,48,19,27,female,,,,,,1.0,learning,21.0,D,,red,,stars,,,,D,red,stars,,0.0,0.0,1,left,330.5,8.0,1.0,1.0,,,
134,0,,html-keyboard-response,134,395170,0.0-4.22-0.22,wdta4fpc00i,2022-09-19 13:29:38.546,601fe0de101ae05414812f4d,3,100,74,48,19,27,female,,,"<img src=""static/images/cards/stack_of_red_bolts.svg"" width=""175px"" height=""250px""></img>",,,,,,,,,,,,,,,,,,,,,,,,,,,,
135,0,,html-keyboard-response,135,396108,0.0-4.22-1.22,wdta4fpc00i,2022-09-19 13:29:38.546,601fe0de101ae05414812f4d,3,100,74,48,19,27,female,425.6999999881,,"
  <table>
  <tr height=300>
    <td width=300 height=300><img src=""static/images/cards/back_of_red_bolts.svg"" width=""175px"" height=""250px""></img></td>
    <td width=300 height=300><img src=""static/images/cards/back_of_red_bolts.svg"" width=""175px"" height=""250px""></img></td>
  </tr>
  <tr height=200>
    <td width=300><img src=""static/images/keys/z.svg"" width=""35%"" height=""75%""></img></td>
    <td width=300><img src=""static/images/keys/m.svg"" width=""35%"" height=""75%""></img></td>
  </tr>
</table>
  ",90.0,1.0,,,,,,,,,,,,,,,,,,,,,,,,,,
136,0,,html-keyboard-response,136,397622,0.0-4.22-2.22,wdta4fpc00i,2022-09-19 13:29:38.546,601fe0de101ae05414812f4d,3,100,74,48,19,27,female,,,"
  <table>
  <tr height=300>
    <td width=300 height=300><img src=""static/images/cards/3_of_red_bolts.svg"" width=""175px"" height=""250px""></img></td>
    <td width=300 height=300><img src=""static/images/cards/back_of_red_bolts.svg"" width=""175px"" height=""250px""></img></td>
  </tr>
  <tr height=200>
    <td width=300><img src=""static/images/keys/z.svg"" width=""35%"" height=""75%""></img></td>
    <td width=300><img src=""static/images/keys/m.svg"" width=""35%"" height=""75%""></img></td>
  </tr>
</table>
  ",,,,,,,,,,,,,,,,,,,,,,,,,,,,
137,0,,html-keyboard-response,137,399136,0.0-4.22-3.22,wdta4fpc00i,2022-09-19 13:29:38.546,601fe0de101ae05414812f4d,3,100,74,48,19,27,female,,,"<p style=""font-size:50px"">You win!
+10 points this round!</p>",,,,,,,,,,,,,,,,,,,,,,,,,,,,
138,0,,html-keyboard-response,138,399661,0.0-4.22-4.22,wdta4fpc00i,2022-09-19 13:29:38.546,601fe0de101ae05414812f4d,3,100,74,48,19,27,female,,,,,,1.0,learning,22.0,Xc,,red,,bolts,,,,Xc,red,bolts,,1.0,0.0,NA,left,425.6999999881,3.0,0.0,1.0,,,
139,0,,html-keyboard-response,139,401164,0.0-4.23-0.23,wdta4fpc00i,2022-09-19 13:29:38.546,601fe0de101ae05414812f4d,3,100,74,48,19,27,female,,,"<img src=""static/images/cards/stack_of_black_bolts.svg"" width=""175px"" height=""250px""></img>",,,,,,,,,,,,,,,,,,,,,,,,,,,,
140,0,,html-keyboard-response,140,402090,0.0-4.23-1.23,wdta4fpc00i,2022-09-19 13:29:38.546,601fe0de101ae05414812f4d,3,100,74,48,19,27,female,412.8000000119,,"
  <table>
  <tr height=300>
    <td width=300 height=300><img src=""static/images/cards/back_of_black_bolts.svg"" width=""175px"" height=""250px""></img></td>
    <td width=300 height=300><img src=""static/images/cards/back_of_black_bolts.svg"" width=""175px"" height=""250px""></img></td>
  </tr>
  <tr height=200>
    <td width=300><img src=""static/images/keys/z.svg"" width=""35%"" height=""75%""></img></td>
    <td width=300></td>
  </tr>
</table>
  ",90.0,1.0,,,,,,,,,,,,,,,,,,,,,,,,,,
141,0,,html-keyboard-response,141,403606,0.0-4.23-2.23,wdta4fpc00i,2022-09-19 13:29:38.546,601fe0de101ae05414812f4d,3,100,74,48,19,27,female,,,"
  <table>
  <tr height=300>
    <td width=300 height=300><img src=""static/images/cards/7_of_black_bolts.svg"" width=""175px"" height=""250px""></img></td>
    <td width=300 height=300><img src=""static/images/cards/back_of_black_bolts.svg"" width=""175px"" height=""250px""></img></td>
  </tr>
  <tr height=200>
    <td width=300><img src=""static/images/keys/z.svg"" width=""35%"" height=""75%""></img></td>
    <td width=300></td>
  </tr>
</table>
  ",,,,,,,,,,,,,,,,,,,,,,,,,,,,
142,0,,html-keyboard-response,142,405113,0.0-4.23-3.23,wdta4fpc00i,2022-09-19 13:29:38.546,601fe0de101ae05414812f4d,3,100,74,48,19,27,female,,,"<p style=""font-size:50px"">You win!
+10 points this round!</p>",,,,,,,,,,,,,,,,,,,,,,,,,,,,
143,0,,html-keyboard-response,143,405641,0.0-4.23-4.23,wdta4fpc00i,2022-09-19 13:29:38.546,601fe0de101ae05414812f4d,3,100,74,48,19,27,female,,,,,,1.0,learning,23.0,Xnc,,black,,bolts,,,,Xnc,black,bolts,,0.0,0.0,1,left,412.8000000119,7.0,1.0,1.0,,,
144,0,,call-function,144,405648,0.0-5.0,wdta4fpc00i,2022-09-19 13:29:38.546,601fe0de101ae05414812f4d,3,100,74,48,19,27,female,,,,,,,,,,,,,,,,,,,,,,,,,,,,,,,
145,0,,image-keyboard-response,145,410964,0.0-6.0-0.0,wdta4fpc00i,2022-09-19 13:29:38.546,601fe0de101ae05414812f4d,3,100,74,48,19,27,female,5315.4000000358,,static/images/instructions_CB_3/Slide20.png,39.0,,,,,,,,,,,,,,,,,,,,,,,,,,,
146,0,,image-keyboard-response,146,420406,0.0-6.1-0.1,wdta4fpc00i,2022-09-19 13:29:38.546,601fe0de101ae05414812f4d,3,100,74,48,19,27,female,9441.0999999642,,static/images/instructions_CB_3/Slide21.png,39.0,,,,,,,,,,,,,,,,,,,,,,,,,,,
147,0,,image-keyboard-response,147,424256,0.0-6.2-0.2,wdta4fpc00i,2022-09-19 13:29:38.546,601fe0de101ae05414812f4d,3,100,74,48,19,27,female,3849.0,,static/images/instructions_CB_3/Slide22.png,39.0,,,,,,,,,,,,,,,,,,,,,,,,,,,
148,0,,image-keyboard-response,148,426104,0.0-6.3-0.3,wdta4fpc00i,2022-09-19 13:29:38.546,601fe0de101ae05414812f4d,3,100,74,48,19,27,female,1847.7999999523,,static/images/instructions_CB_3/Slide23.png,37.0,,,,,,,,,,,,,,,,,,,,,,,,,,,
149,0,,image-keyboard-response,149,426724,0.0-6.4-0.4,wdta4fpc00i,2022-09-19 13:29:38.546,601fe0de101ae05414812f4d,3,100,74,48,19,27,female,619.0,,static/images/instructions_CB_3/Slide22.png,39.0,,,,,,,,,,,,,,,,,,,,,,,,,,,
150,0,,image-keyboard-response,150,435573,0.0-6.5-0.5,wdta4fpc00i,2022-09-19 13:29:38.546,601fe0de101ae05414812f4d,3,100,74,48,19,27,female,8846.9000000358,,static/images/instructions_CB_3/Slide23.png,39.0,,,,,,,,,,,,,,,,,,,,,,,,,,,
151,0,,image-keyboard-response,151,438116,0.0-6.6-0.6,wdta4fpc00i,2022-09-19 13:29:38.546,601fe0de101ae05414812f4d,3,100,74,48,19,27,female,2542.6999999881,,static/images/instructions_CB_3/Slide24.png,39.0,,,,,,,,,,,,,,,,,,,,,,,,,,,
152,0,,html-keyboard-response,152,439233,0.0-7.0-0.0,wdta4fpc00i,2022-09-19 13:29:38.546,601fe0de101ae05414812f4d,3,100,74,48,19,27,female,1114.6999999881,,"
  <table>
  <tr height=300>
    <td width=300 height=300><img src=""static/images/cards/stack_of_red_stars.svg"" width=""175px"" height=""250px""></img></td>
    <td width=300 height=300><img src=""static/images/cards/stack_of_black_stars.svg"" width=""175px"" height=""250px""></img></td>
  </tr>
  <tr height=200>
    <td width=300><img src=""static/images/keys/w.svg"" width=""35%"" height=""75%""></img></td>
    <td width=300><img src=""static/images/keys/o.svg"" width=""35%"" height=""75%""></img></td>
  </tr>
</table>
  ",79.0,1.0,,,,,,,,,,,,,,,,,,,,,,,,,,
153,0,,html-keyboard-response,153,441229,0.0-7.0-1.0,wdta4fpc00i,2022-09-19 13:29:38.546,601fe0de101ae05414812f4d,3,100,74,48,19,27,female,1479.4000000358,,"
  <table>
  <tr height=300>
    <td width=300 height=300><img src=""static/images/cards/back_of_black_stars.svg"" width=""175px"" height=""250px""></img></td>
    <td width=300 height=300><img src=""static/images/cards/back_of_black_stars.svg"" width=""175px"" height=""250px""></img></td>
  </tr>
  <tr height=200>
    <td width=300><img src=""static/images/keys/z.svg"" width=""35%"" height=""75%""></img></td>
    <td width=300><img src=""static/images/keys/m.svg"" width=""35%"" height=""75%""></img></td>
  </tr>
</table>
  ",90.0,1.0,,,,,,,,,,,,,,,,,,,,,,,,,,
154,0,,html-keyboard-response,154,442741,0.0-7.0-2.0,wdta4fpc00i,2022-09-19 13:29:38.546,601fe0de101ae05414812f4d,3,100,74,48,19,27,female,,,"
  <table>
  <tr height=300>
    <td width=300 height=300><img src=""static/images/cards/2_of_black_stars.svg"" width=""175px"" height=""250px""></img></td>
    <td width=300 height=300><img src=""static/images/cards/back_of_black_stars.svg"" width=""175px"" height=""250px""></img></td>
  </tr>
  <tr height=200>
    <td width=300><img src=""static/images/keys/z.svg"" width=""35%"" height=""75%""></img></td>
    <td width=300><img src=""static/images/keys/m.svg"" width=""35%"" height=""75%""></img></td>
  </tr>
</table>
  ",,,,,,,,,,,,,,,,,,,,,,,,,,,,
155,0,,html-keyboard-response,155,444265,0.0-7.0-3.0,wdta4fpc00i,2022-09-19 13:29:38.546,601fe0de101ae05414812f4d,3,100,74,48,19,27,female,,,"<p style=""font-size:50px"">You win!
+10 points this round!</p>",,,,,,,,,,,,,,,,,,,,,,,,,,,,
156,0,,html-keyboard-response,156,444775,0.0-7.0-4.0,wdta4fpc00i,2022-09-19 13:29:38.546,601fe0de101ae05414812f4d,3,100,74,48,19,27,female,,,,,,1.0,choice,0.0,C,D,red,black,stars,stars,D,C,C,black,stars,1114.6999999881,1.0,0.0,NA,left,1479.4000000358,2.0,0.0,1.0,,,
157,0,,html-keyboard-response,157,445716,0.0-7.1-0.1,wdta4fpc00i,2022-09-19 13:29:38.546,601fe0de101ae05414812f4d,3,100,74,48,19,27,female,939.6000000238,,"
  <table>
  <tr height=300>
    <td width=300 height=300><img src=""static/images/cards/stack_of_black_stars.svg"" width=""175px"" height=""250px""></img></td>
    <td width=300 height=300><img src=""static/images/cards/stack_of_red_stars.svg"" width=""175px"" height=""250px""></img></td>
  </tr>
  <tr height=200>
    <td width=300><img src=""static/images/keys/w.svg"" width=""35%"" height=""75%""></img></td>
    <td width=300><img src=""static/images/keys/o.svg"" width=""35%"" height=""75%""></img></td>
  </tr>
</table>
  ",79.0,1.0,,,,,,,,,,,,,,,,,,,,,,,,,,
158,0,,html-keyboard-response,158,446803,0.0-7.1-1.1,wdta4fpc00i,2022-09-19 13:29:38.546,601fe0de101ae05414812f4d,3,100,74,48,19,27,female,572.9000000358,,"
  <table>
  <tr height=300>
    <td width=300 height=300><img src=""static/images/cards/back_of_red_stars.svg"" width=""175px"" height=""250px""></img></td>
    <td width=300 height=300><img src=""static/images/cards/back_of_red_stars.svg"" width=""175px"" height=""250px""></img></td>
  </tr>
  <tr height=200>
    <td width=300><img src=""static/images/keys/z.svg"" width=""35%"" height=""75%""></img></td>
    <td width=300></td>
  </tr>
</table>
  ",90.0,1.0,,,,,,,,,,,,,,,,,,,,,,,,,,
159,0,,html-keyboard-response,159,448319,0.0-7.1-2.1,wdta4fpc00i,2022-09-19 13:29:38.546,601fe0de101ae05414812f4d,3,100,74,48,19,27,female,,,"
  <table>
  <tr height=300>
    <td width=300 height=300><img src=""static/images/cards/7_of_red_stars.svg"" width=""175px"" height=""250px""></img></td>
    <td width=300 height=300><img src=""static/images/cards/back_of_red_stars.svg"" width=""175px"" height=""250px""></img></td>
  </tr>
  <tr height=200>
    <td width=300><img src=""static/images/keys/z.svg"" width=""35%"" height=""75%""></img></td>
    <td width=300></td>
  </tr>
</table>
  ",,,,,,,,,,,,,,,,,,,,,,,,,,,,
160,0,,html-keyboard-response,160,449832,0.0-7.1-3.1,wdta4fpc00i,2022-09-19 13:29:38.546,601fe0de101ae05414812f4d,3,100,74,48,19,27,female,,,"<p style=""font-size:50px"">You win!
+10 points this round!</p>",,,,,,,,,,,,,,,,,,,,,,,,,,,,
161,0,,html-keyboard-response,161,450356,0.0-7.1-4.1,wdta4fpc00i,2022-09-19 13:29:38.546,601fe0de101ae05414812f4d,3,100,74,48,19,27,female,,,,,,1.0,choice,1.0,C,D,black,red,stars,stars,C,D,D,red,stars,939.6000000238,0.0,0.0,1,left,572.9000000358,7.0,1.0,1.0,,,
162,0,,html-keyboard-response,162,450757,0.0-7.2-0.2,wdta4fpc00i,2022-09-19 13:29:38.546,601fe0de101ae05414812f4d,3,100,74,48,19,27,female,400.2999999523,,"
  <table>
  <tr height=300>
    <td width=300 height=300><img src=""static/images/cards/stack_of_black_moons.svg"" width=""175px"" height=""250px""></img></td>
    <td width=300 height=300><img src=""static/images/cards/stack_of_red_moons.svg"" width=""175px"" height=""250px""></img></td>
  </tr>
  <tr height=200>
    <td width=300><img src=""static/images/keys/w.svg"" width=""35%"" height=""75%""></img></td>
    <td width=300><img src=""static/images/keys/o.svg"" width=""35%"" height=""75%""></img></td>
  </tr>
</table>
  ",87.0,1.0,,,,,,,,,,,,,,,,,,,,,,,,,,
163,0,,html-keyboard-response,163,451808,0.0-7.2-1.2,wdta4fpc00i,2022-09-19 13:29:38.546,601fe0de101ae05414812f4d,3,100,74,48,19,27,female,547.5,,"
  <table>
  <tr height=300>
    <td width=300 height=300><img src=""static/images/cards/back_of_black_moons.svg"" width=""175px"" height=""250px""></img></td>
    <td width=300 height=300><img src=""static/images/cards/back_of_black_moons.svg"" width=""175px"" height=""250px""></img></td>
  </tr>
  <tr height=200>
    <td width=300><img src=""static/images/keys/z.svg"" width=""35%"" height=""75%""></img></td>
    <td width=300><img src=""static/images/keys/m.svg"" width=""35%"" height=""75%""></img></td>
  </tr>
</table>
  ",77.0,1.0,,,,,,,,,,,,,,,,,,,,,,,,,,
164,0,,html-keyboard-response,164,453330,0.0-7.2-2.2,wdta4fpc00i,2022-09-19 13:29:38.546,601fe0de101ae05414812f4d,3,100,74,48,19,27,female,,,"
  <table>
  <tr height=300>
    <td width=300 height=300><img src=""static/images/cards/back_of_black_moons.svg"" width=""175px"" height=""250px""></img></td>
    <td width=300 height=300><img src=""static/images/cards/6_of_black_moons.svg"" width=""175px"" height=""250px""></img></td>
  </tr>
  <tr height=200>
    <td width=300><img src=""static/images/keys/z.svg"" width=""35%"" height=""75%""></img></td>
    <td width=300><img src=""static/images/keys/m.svg"" width=""35%"" height=""75%""></img></td>
  </tr>
</table>
  ",,,,,,,,,,,,,,,,,,,,,,,,,,,,
165,0,,html-keyboard-response,165,454862,0.0-7.2-3.2,wdta4fpc00i,2022-09-19 13:29:38.546,601fe0de101ae05414812f4d,3,100,74,48,19,27,female,,,"<p style=""font-size:50px"">You win!
+10 points this round!</p>",,,,,,,,,,,,,,,,,,,,,,,,,,,,
166,0,,html-keyboard-response,166,455381,0.0-7.2-4.2,wdta4fpc00i,2022-09-19 13:29:38.546,601fe0de101ae05414812f4d,3,100,74,48,19,27,female,,,,,,1.0,choice,2.0,A,B,black,red,moons,moons,A,B,A,black,moons,400.2999999523,1.0,1.0,NA,right,547.5,6.0,1.0,1.0,,,
167,0,,html-keyboard-response,167,455965,0.0-7.3-0.3,wdta4fpc00i,2022-09-19 13:29:38.546,601fe0de101ae05414812f4d,3,100,74,48,19,27,female,582.6000000238,,"
  <table>
  <tr height=300>
    <td width=300 height=300><img src=""static/images/cards/stack_of_red_stars.svg"" width=""175px"" height=""250px""></img></td>
    <td width=300 height=300><img src=""static/images/cards/stack_of_black_stars.svg"" width=""175px"" height=""250px""></img></td>
  </tr>
  <tr height=200>
    <td width=300><img src=""static/images/keys/w.svg"" width=""35%"" height=""75%""></img></td>
    <td width=300><img src=""static/images/keys/o.svg"" width=""35%"" height=""75%""></img></td>
  </tr>
</table>
  ",87.0,1.0,,,,,,,,,,,,,,,,,,,,,,,,,,
168,0,,html-keyboard-response,168,457017,0.0-7.3-1.3,wdta4fpc00i,2022-09-19 13:29:38.546,601fe0de101ae05414812f4d,3,100,74,48,19,27,female,548.8999999762,,"
  <table>
  <tr height=300>
    <td width=300 height=300><img src=""static/images/cards/back_of_red_stars.svg"" width=""175px"" height=""250px""></img></td>
    <td width=300 height=300><img src=""static/images/cards/back_of_red_stars.svg"" width=""175px"" height=""250px""></img></td>
  </tr>
  <tr height=200>
    <td width=300></td>
    <td width=300><img src=""static/images/keys/m.svg"" width=""35%"" height=""75%""></img></td>
  </tr>
</table>
  ",77.0,1.0,,,,,,,,,,,,,,,,,,,,,,,,,,
169,0,,html-keyboard-response,169,458523,0.0-7.3-2.3,wdta4fpc00i,2022-09-19 13:29:38.546,601fe0de101ae05414812f4d,3,100,74,48,19,27,female,,,"
  <table>
  <tr height=300>
    <td width=300 height=300><img src=""static/images/cards/back_of_red_stars.svg"" width=""175px"" height=""250px""></img></td>
    <td width=300 height=300><img src=""static/images/cards/3_of_red_stars.svg"" width=""175px"" height=""250px""></img></td>
  </tr>
  <tr height=200>
    <td width=300></td>
    <td width=300><img src=""static/images/keys/m.svg"" width=""35%"" height=""75%""></img></td>
  </tr>
</table>
  ",,,,,,,,,,,,,,,,,,,,,,,,,,,,
170,0,,html-keyboard-response,170,460038,0.0-7.3-3.3,wdta4fpc00i,2022-09-19 13:29:38.546,601fe0de101ae05414812f4d,3,100,74,48,19,27,female,,,"<p style=""font-size:50px"">You Lose!
No points this round.</p>",,,,,,,,,,,,,,,,,,,,,,,,,,,,
171,0,,html-keyboard-response,171,460548,0.0-7.3-4.3,wdta4fpc00i,2022-09-19 13:29:38.546,601fe0de101ae05414812f4d,3,100,74,48,19,27,female,,,,,,1.0,choice,3.0,C,D,red,black,stars,stars,D,C,D,red,stars,582.6000000238,0.0,0.0,0,right,548.8999999762,3.0,0.0,0.0,,,
172,0,,html-keyboard-response,172,460927,0.0-7.4-0.4,wdta4fpc00i,2022-09-19 13:29:38.546,601fe0de101ae05414812f4d,3,100,74,48,19,27,female,376.7999999523,,"
  <table>
  <tr height=300>
    <td width=300 height=300><img src=""static/images/cards/stack_of_red_stars.svg"" width=""175px"" height=""250px""></img></td>
    <td width=300 height=300><img src=""static/images/cards/stack_of_black_stars.svg"" width=""175px"" height=""250px""></img></td>
  </tr>
  <tr height=200>
    <td width=300><img src=""static/images/keys/w.svg"" width=""35%"" height=""75%""></img></td>
    <td width=300><img src=""static/images/keys/o.svg"" width=""35%"" height=""75%""></img></td>
  </tr>
</table>
  ",87.0,1.0,,,,,,,,,,,,,,,,,,,,,,,,,,
173,0,,html-keyboard-response,173,461918,0.0-7.4-1.4,wdta4fpc00i,2022-09-19 13:29:38.546,601fe0de101ae05414812f4d,3,100,74,48,19,27,female,468.0,,"
  <table>
  <tr height=300>
    <td width=300 height=300><img src=""static/images/cards/back_of_red_stars.svg"" width=""175px"" height=""250px""></img></td>
    <td width=300 height=300><img src=""static/images/cards/back_of_red_stars.svg"" width=""175px"" height=""250px""></img></td>
  </tr>
  <tr height=200>
    <td width=300></td>
    <td width=300><img src=""static/images/keys/m.svg"" width=""35%"" height=""75%""></img></td>
  </tr>
</table>
  ",77.0,1.0,,,,,,,,,,,,,,,,,,,,,,,,,,
174,0,,html-keyboard-response,174,463422,0.0-7.4-2.4,wdta4fpc00i,2022-09-19 13:29:38.546,601fe0de101ae05414812f4d,3,100,74,48,19,27,female,,,"
  <table>
  <tr height=300>
    <td width=300 height=300><img src=""static/images/cards/back_of_red_stars.svg"" width=""175px"" height=""250px""></img></td>
    <td width=300 height=300><img src=""static/images/cards/8_of_red_stars.svg"" width=""175px"" height=""250px""></img></td>
  </tr>
  <tr height=200>
    <td width=300></td>
    <td width=300><img src=""static/images/keys/m.svg"" width=""35%"" height=""75%""></img></td>
  </tr>
</table>
  ",,,,,,,,,,,,,,,,,,,,,,,,,,,,
175,0,,html-keyboard-response,175,464941,0.0-7.4-3.4,wdta4fpc00i,2022-09-19 13:29:38.546,601fe0de101ae05414812f4d,3,100,74,48,19,27,female,,,"<p style=""font-size:50px"">You Lose!
No points this round.</p>",,,,,,,,,,,,,,,,,,,,,,,,,,,,
176,0,,html-keyboard-response,176,465467,0.0-7.4-4.4,wdta4fpc00i,2022-09-19 13:29:38.546,601fe0de101ae05414812f4d,3,100,74,48,19,27,female,,,,,,1.0,choice,4.0,C,D,red,black,stars,stars,D,C,D,red,stars,376.7999999523,0.0,0.0,0,right,468.0,8.0,1.0,0.0,,,
177,0,,html-keyboard-response,177,465713,0.0-7.5-0.5,wdta4fpc00i,2022-09-19 13:29:38.546,601fe0de101ae05414812f4d,3,100,74,48,19,27,female,244.3000000119,,"
  <table>
  <tr height=300>
    <td width=300 height=300><img src=""static/images/cards/stack_of_black_moons.svg"" width=""175px"" height=""250px""></img></td>
    <td width=300 height=300><img src=""static/images/cards/stack_of_red_stars.svg"" width=""175px"" height=""250px""></img></td>
  </tr>
  <tr height=200>
    <td width=300><img src=""static/images/keys/w.svg"" width=""35%"" height=""75%""></img></td>
    <td width=300><img src=""static/images/keys/o.svg"" width=""35%"" height=""75%""></img></td>
  </tr>
</table>
  ",79.0,1.0,,,,,,,,,,,,,,,,,,,,,,,,,,
178,0,,html-keyboard-response,178,466562,0.0-7.5-1.5,wdta4fpc00i,2022-09-19 13:29:38.546,601fe0de101ae05414812f4d,3,100,74,48,19,27,female,339.0,,"
  <table>
  <tr height=300>
    <td width=300 height=300><img src=""static/images/cards/back_of_red_stars.svg"" width=""175px"" height=""250px""></img></td>
    <td width=300 height=300><img src=""static/images/cards/back_of_red_stars.svg"" width=""175px"" height=""250px""></img></td>
  </tr>
  <tr height=200>
    <td width=300></td>
    <td width=300><img src=""static/images/keys/m.svg"" width=""35%"" height=""75%""></img></td>
  </tr>
</table>
  ",77.0,1.0,,,,,,,,,,,,,,,,,,,,,,,,,,
179,0,,html-keyboard-response,179,468075,0.0-7.5-2.5,wdta4fpc00i,2022-09-19 13:29:38.546,601fe0de101ae05414812f4d,3,100,74,48,19,27,female,,,"
  <table>
  <tr height=300>
    <td width=300 height=300><img src=""static/images/cards/back_of_red_stars.svg"" width=""175px"" height=""250px""></img></td>
    <td width=300 height=300><img src=""static/images/cards/6_of_red_stars.svg"" width=""175px"" height=""250px""></img></td>
  </tr>
  <tr height=200>
    <td width=300></td>
    <td width=300><img src=""static/images/keys/m.svg"" width=""35%"" height=""75%""></img></td>
  </tr>
</table>
  ",,,,,,,,,,,,,,,,,,,,,,,,,,,,
180,0,,html-keyboard-response,180,469588,0.0-7.5-3.5,wdta4fpc00i,2022-09-19 13:29:38.546,601fe0de101ae05414812f4d,3,100,74,48,19,27,female,,,"<p style=""font-size:50px"">You win!
+10 points this round!</p>",,,,,,,,,,,,,,,,,,,,,,,,,,,,
181,0,,html-keyboard-response,181,470110,0.0-7.5-4.5,wdta4fpc00i,2022-09-19 13:29:38.546,601fe0de101ae05414812f4d,3,100,74,48,19,27,female,,,,,,1.0,choice,5.0,A,D,black,red,moons,stars,A,D,D,red,stars,244.3000000119,0.0,0.0,0,right,339.0,6.0,1.0,1.0,,,
182,0,,html-keyboard-response,182,470417,0.0-7.6-0.6,wdta4fpc00i,2022-09-19 13:29:38.546,601fe0de101ae05414812f4d,3,100,74,48,19,27,female,305.1999999881,,"
  <table>
  <tr height=300>
    <td width=300 height=300><img src=""static/images/cards/stack_of_black_stars.svg"" width=""175px"" height=""250px""></img></td>
    <td width=300 height=300><img src=""static/images/cards/stack_of_black_moons.svg"" width=""175px"" height=""250px""></img></td>
  </tr>
  <tr height=200>
    <td width=300><img src=""static/images/keys/w.svg"" width=""35%"" height=""75%""></img></td>
    <td width=300><img src=""static/images/keys/o.svg"" width=""35%"" height=""75%""></img></td>
  </tr>
</table>
  ",79.0,1.0,,,,,,,,,,,,,,,,,,,,,,,,,,
183,0,,html-keyboard-response,183,471328,0.0-7.6-1.6,wdta4fpc00i,2022-09-19 13:29:38.546,601fe0de101ae05414812f4d,3,100,74,48,19,27,female,401.5,,"
  <table>
  <tr height=300>
    <td width=300 height=300><img src=""static/images/cards/back_of_black_moons.svg"" width=""175px"" height=""250px""></img></td>
    <td width=300 height=300><img src=""static/images/cards/back_of_black_moons.svg"" width=""175px"" height=""250px""></img></td>
  </tr>
  <tr height=200>
    <td width=300><img src=""static/images/keys/z.svg"" width=""35%"" height=""75%""></img></td>
    <td width=300><img src=""static/images/keys/m.svg"" width=""35%"" height=""75%""></img></td>
  </tr>
</table>
  ",77.0,1.0,,,,,,,,,,,,,,,,,,,,,,,,,,
184,0,,html-keyboard-response,184,472834,0.0-7.6-2.6,wdta4fpc00i,2022-09-19 13:29:38.546,601fe0de101ae05414812f4d,3,100,74,48,19,27,female,,,"
  <table>
  <tr height=300>
    <td width=300 height=300><img src=""static/images/cards/back_of_black_moons.svg"" width=""175px"" height=""250px""></img></td>
    <td width=300 height=300><img src=""static/images/cards/3_of_black_moons.svg"" width=""175px"" height=""250px""></img></td>
  </tr>
  <tr height=200>
    <td width=300><img src=""static/images/keys/z.svg"" width=""35%"" height=""75%""></img></td>
    <td width=300><img src=""static/images/keys/m.svg"" width=""35%"" height=""75%""></img></td>
  </tr>
</table>
  ",,,,,,,,,,,,,,,,,,,,,,,,,,,,
185,0,,html-keyboard-response,185,474358,0.0-7.6-3.6,wdta4fpc00i,2022-09-19 13:29:38.546,601fe0de101ae05414812f4d,3,100,74,48,19,27,female,,,"<p style=""font-size:50px"">You Lose!
No points this round.</p>",,,,,,,,,,,,,,,,,,,,,,,,,,,,
186,0,,html-keyboard-response,186,474875,0.0-7.6-4.6,wdta4fpc00i,2022-09-19 13:29:38.546,601fe0de101ae05414812f4d,3,100,74,48,19,27,female,,,,,,1.0,choice,6.0,A,C,black,black,stars,moons,C,A,A,black,moons,305.1999999881,1.0,1.0,NA,right,401.5,3.0,0.0,0.0,,,
187,0,,html-keyboard-response,187,475248,0.0-7.7-0.7,wdta4fpc00i,2022-09-19 13:29:38.546,601fe0de101ae05414812f4d,3,100,74,48,19,27,female,370.2999999523,,"
  <table>
  <tr height=300>
    <td width=300 height=300><img src=""static/images/cards/stack_of_black_moons.svg"" width=""175px"" height=""250px""></img></td>
    <td width=300 height=300><img src=""static/images/cards/stack_of_red_moons.svg"" width=""175px"" height=""250px""></img></td>
  </tr>
  <tr height=200>
    <td width=300><img src=""static/images/keys/w.svg"" width=""35%"" height=""75%""></img></td>
    <td width=300><img src=""static/images/keys/o.svg"" width=""35%"" height=""75%""></img></td>
  </tr>
</table>
  ",79.0,1.0,,,,,,,,,,,,,,,,,,,,,,,,,,
188,0,,html-keyboard-response,188,476407,0.0-7.7-1.7,wdta4fpc00i,2022-09-19 13:29:38.546,601fe0de101ae05414812f4d,3,100,74,48,19,27,female,651.4000000358,,"
  <table>
  <tr height=300>
    <td width=300 height=300><img src=""static/images/cards/back_of_red_moons.svg"" width=""175px"" height=""250px""></img></td>
    <td width=300 height=300><img src=""static/images/cards/back_of_red_moons.svg"" width=""175px"" height=""250px""></img></td>
  </tr>
  <tr height=200>
    <td width=300><img src=""static/images/keys/z.svg"" width=""35%"" height=""75%""></img></td>
    <td width=300></td>
  </tr>
</table>
  ",90.0,1.0,,,,,,,,,,,,,,,,,,,,,,,,,,
189,0,,html-keyboard-response,189,477915,0.0-7.7-2.7,wdta4fpc00i,2022-09-19 13:29:38.546,601fe0de101ae05414812f4d,3,100,74,48,19,27,female,,,"
  <table>
  <tr height=300>
    <td width=300 height=300><img src=""static/images/cards/10_of_red_moons.svg"" width=""175px"" height=""250px""></img></td>
    <td width=300 height=300><img src=""static/images/cards/back_of_red_moons.svg"" width=""175px"" height=""250px""></img></td>
  </tr>
  <tr height=200>
    <td width=300><img src=""static/images/keys/z.svg"" width=""35%"" height=""75%""></img></td>
    <td width=300></td>
  </tr>
</table>
  ",,,,,,,,,,,,,,,,,,,,,,,,,,,,
190,0,,html-keyboard-response,190,479440,0.0-7.7-3.7,wdta4fpc00i,2022-09-19 13:29:38.546,601fe0de101ae05414812f4d,3,100,74,48,19,27,female,,,"<p style=""font-size:50px"">You win!
+10 points this round!</p>",,,,,,,,,,,,,,,,,,,,,,,,,,,,
191,0,,html-keyboard-response,191,479959,0.0-7.7-4.7,wdta4fpc00i,2022-09-19 13:29:38.546,601fe0de101ae05414812f4d,3,100,74,48,19,27,female,,,,,,1.0,choice,7.0,A,B,black,red,moons,moons,A,B,B,red,moons,370.2999999523,0.0,1.0,1,left,651.4000000358,10.0,1.0,1.0,,,
192,0,,html-keyboard-response,192,480809,0.0-7.8-0.8,wdta4fpc00i,2022-09-19 13:29:38.546,601fe0de101ae05414812f4d,3,100,74,48,19,27,female,848.5,,"
  <table>
  <tr height=300>
    <td width=300 height=300><img src=""static/images/cards/stack_of_red_stars.svg"" width=""175px"" height=""250px""></img></td>
    <td width=300 height=300><img src=""static/images/cards/stack_of_black_stars.svg"" width=""175px"" height=""250px""></img></td>
  </tr>
  <tr height=200>
    <td width=300><img src=""static/images/keys/w.svg"" width=""35%"" height=""75%""></img></td>
    <td width=300><img src=""static/images/keys/o.svg"" width=""35%"" height=""75%""></img></td>
  </tr>
</table>
  ",87.0,1.0,,,,,,,,,,,,,,,,,,,,,,,,,,
193,0,,html-keyboard-response,193,481693,0.0-7.8-1.8,wdta4fpc00i,2022-09-19 13:29:38.546,601fe0de101ae05414812f4d,3,100,74,48,19,27,female,380.8000000119,,"
  <table>
  <tr height=300>
    <td width=300 height=300><img src=""static/images/cards/back_of_red_stars.svg"" width=""175px"" height=""250px""></img></td>
    <td width=300 height=300><img src=""static/images/cards/back_of_red_stars.svg"" width=""175px"" height=""250px""></img></td>
  </tr>
  <tr height=200>
    <td width=300><img src=""static/images/keys/z.svg"" width=""35%"" height=""75%""></img></td>
    <td width=300></td>
  </tr>
</table>
  ",90.0,1.0,,,,,,,,,,,,,,,,,,,,,,,,,,
194,0,,html-keyboard-response,194,483197,0.0-7.8-2.8,wdta4fpc00i,2022-09-19 13:29:38.546,601fe0de101ae05414812f4d,3,100,74,48,19,27,female,,,"
  <table>
  <tr height=300>
    <td width=300 height=300><img src=""static/images/cards/8_of_red_stars.svg"" width=""175px"" height=""250px""></img></td>
    <td width=300 height=300><img src=""static/images/cards/back_of_red_stars.svg"" width=""175px"" height=""250px""></img></td>
  </tr>
  <tr height=200>
    <td width=300><img src=""static/images/keys/z.svg"" width=""35%"" height=""75%""></img></td>
    <td width=300></td>
  </tr>
</table>
  ",,,,,,,,,,,,,,,,,,,,,,,,,,,,
195,0,,html-keyboard-response,195,484717,0.0-7.8-3.8,wdta4fpc00i,2022-09-19 13:29:38.546,601fe0de101ae05414812f4d,3,100,74,48,19,27,female,,,"<p style=""font-size:50px"">You win!
+10 points this round!</p>",,,,,,,,,,,,,,,,,,,,,,,,,,,,
196,0,,html-keyboard-response,196,485236,0.0-7.8-4.8,wdta4fpc00i,2022-09-19 13:29:38.546,601fe0de101ae05414812f4d,3,100,74,48,19,27,female,,,,,,1.0,choice,8.0,C,D,red,black,stars,stars,D,C,D,red,stars,848.5,0.0,0.0,1,left,380.8000000119,8.0,1.0,1.0,,,
197,0,,html-keyboard-response,197,486306,0.0-7.9-0.9,wdta4fpc00i,2022-09-19 13:29:38.546,601fe0de101ae05414812f4d,3,100,74,48,19,27,female,1067.6999999881,,"
  <table>
  <tr height=300>
    <td width=300 height=300><img src=""static/images/cards/stack_of_red_bolts.svg"" width=""175px"" height=""250px""></img></td>
    <td width=300 height=300><img src=""static/images/cards/stack_of_red_stars.svg"" width=""175px"" height=""250px""></img></td>
  </tr>
  <tr height=200>
    <td width=300><img src=""static/images/keys/w.svg"" width=""35%"" height=""75%""></img></td>
    <td width=300><img src=""static/images/keys/o.svg"" width=""35%"" height=""75%""></img></td>
  </tr>
</table>
  ",87.0,1.0,,,,,,,,,,,,,,,,,,,,,,,,,,
198,0,,html-keyboard-response,198,487692,0.0-7.9-1.9,wdta4fpc00i,2022-09-19 13:29:38.546,601fe0de101ae05414812f4d,3,100,74,48,19,27,female,880.5,,"
  <table>
  <tr height=300>
    <td width=300 height=300><img src=""static/images/cards/back_of_red_bolts.svg"" width=""175px"" height=""250px""></img></td>
    <td width=300 height=300><img src=""static/images/cards/back_of_red_bolts.svg"" width=""175px"" height=""250px""></img></td>
  </tr>
  <tr height=200>
    <td width=300><img src=""static/images/keys/z.svg"" width=""35%"" height=""75%""></img></td>
    <td width=300><img src=""static/images/keys/m.svg"" width=""35%"" height=""75%""></img></td>
  </tr>
</table>
  ",77.0,1.0,,,,,,,,,,,,,,,,,,,,,,,,,,
199,0,,html-keyboard-response,199,489207,0.0-7.9-2.9,wdta4fpc00i,2022-09-19 13:29:38.546,601fe0de101ae05414812f4d,3,100,74,48,19,27,female,,,"
  <table>
  <tr height=300>
    <td width=300 height=300><img src=""static/images/cards/back_of_red_bolts.svg"" width=""175px"" height=""250px""></img></td>
    <td width=300 height=300><img src=""static/images/cards/6_of_red_bolts.svg"" width=""175px"" height=""250px""></img></td>
  </tr>
  <tr height=200>
    <td width=300><img src=""static/images/keys/z.svg"" width=""35%"" height=""75%""></img></td>
    <td width=300><img src=""static/images/keys/m.svg"" width=""35%"" height=""75%""></img></td>
  </tr>
</table>
  ",,,,,,,,,,,,,,,,,,,,,,,,,,,,
200,0,,html-keyboard-response,200,490715,0.0-7.9-3.9,wdta4fpc00i,2022-09-19 13:29:38.546,601fe0de101ae05414812f4d,3,100,74,48,19,27,female,,,"<p style=""font-size:50px"">You win!
+10 points this round!</p>",,,,,,,,,,,,,,,,,,,,,,,,,,,,
201,0,,html-keyboard-response,201,491249,0.0-7.9-4.9,wdta4fpc00i,2022-09-19 13:29:38.546,601fe0de101ae05414812f4d,3,100,74,48,19,27,female,,,,,,1.0,choice,9.0,D,Xc,red,red,bolts,stars,Xc,D,Xc,red,bolts,1067.6999999881,1.0,0.0,NA,right,880.5,6.0,1.0,1.0,,,
202,0,,html-keyboard-response,202,492208,0.0-7.10-0.10,wdta4fpc00i,2022-09-19 13:29:38.546,601fe0de101ae05414812f4d,3,100,74,48,19,27,female,957.3999999762,,"
  <table>
  <tr height=300>
    <td width=300 height=300><img src=""static/images/cards/stack_of_black_moons.svg"" width=""175px"" height=""250px""></img></td>
    <td width=300 height=300><img src=""static/images/cards/stack_of_black_stars.svg"" width=""175px"" height=""250px""></img></td>
  </tr>
  <tr height=200>
    <td width=300><img src=""static/images/keys/w.svg"" width=""35%"" height=""75%""></img></td>
    <td width=300><img src=""static/images/keys/o.svg"" width=""35%"" height=""75%""></img></td>
  </tr>
</table>
  ",79.0,1.0,,,,,,,,,,,,,,,,,,,,,,,,,,
203,0,,html-keyboard-response,203,493656,0.0-7.10-1.10,wdta4fpc00i,2022-09-19 13:29:38.546,601fe0de101ae05414812f4d,3,100,74,48,19,27,female,942.8999999762,,"
  <table>
  <tr height=300>
    <td width=300 height=300><img src=""static/images/cards/back_of_black_stars.svg"" width=""175px"" height=""250px""></img></td>
    <td width=300 height=300><img src=""static/images/cards/back_of_black_stars.svg"" width=""175px"" height=""250px""></img></td>
  </tr>
  <tr height=200>
    <td width=300><img src=""static/images/keys/z.svg"" width=""35%"" height=""75%""></img></td>
    <td width=300><img src=""static/images/keys/m.svg"" width=""35%"" height=""75%""></img></td>
  </tr>
</table>
  ",77.0,2.0,,,,,,,,,,,,,,,,,,,,,,,,,,
204,0,,html-keyboard-response,204,495161,0.0-7.10-2.10,wdta4fpc00i,2022-09-19 13:29:38.546,601fe0de101ae05414812f4d,3,100,74,48,19,27,female,,,"
  <table>
  <tr height=300>
    <td width=300 height=300><img src=""static/images/cards/back_of_black_stars.svg"" width=""175px"" height=""250px""></img></td>
    <td width=300 height=300><img src=""static/images/cards/1_of_black_stars.svg"" width=""175px"" height=""250px""></img></td>
  </tr>
  <tr height=200>
    <td width=300><img src=""static/images/keys/z.svg"" width=""35%"" height=""75%""></img></td>
    <td width=300><img src=""static/images/keys/m.svg"" width=""35%"" height=""75%""></img></td>
  </tr>
</table>
  ",,,,,,,,,,,,,,,,,,,,,,,,,,,,
205,0,,html-keyboard-response,205,496674,0.0-7.10-3.10,wdta4fpc00i,2022-09-19 13:29:38.546,601fe0de101ae05414812f4d,3,100,74,48,19,27,female,,,"<p style=""font-size:50px"">You win!
+10 points this round!</p>",,,,,,,,,,,,,,,,,,,,,,,,,,,,
206,0,,html-keyboard-response,206,497200,0.0-7.10-4.10,wdta4fpc00i,2022-09-19 13:29:38.546,601fe0de101ae05414812f4d,3,100,74,48,19,27,female,,,,,,1.0,choice,10.0,A,C,black,black,moons,stars,A,C,C,black,stars,957.3999999762,1.0,0.0,NA,right,942.8999999762,1.0,0.0,1.0,,,
207,0,,html-keyboard-response,207,499080,0.0-7.11-0.11,wdta4fpc00i,2022-09-19 13:29:38.546,601fe0de101ae05414812f4d,3,100,74,48,19,27,female,1878.2999999523,,"
  <table>
  <tr height=300>
    <td width=300 height=300><img src=""static/images/cards/stack_of_red_moons.svg"" width=""175px"" height=""250px""></img></td>
    <td width=300 height=300><img src=""static/images/cards/stack_of_red_stars.svg"" width=""175px"" height=""250px""></img></td>
  </tr>
  <tr height=200>
    <td width=300><img src=""static/images/keys/w.svg"" width=""35%"" height=""75%""></img></td>
    <td width=300><img src=""static/images/keys/o.svg"" width=""35%"" height=""75%""></img></td>
  </tr>
</table>
  ",79.0,2.0,,,,,,,,,,,,,,,,,,,,,,,,,,
208,0,,html-keyboard-response,208,500083,0.0-7.11-1.11,wdta4fpc00i,2022-09-19 13:29:38.546,601fe0de101ae05414812f4d,3,100,74,48,19,27,female,488.3000000119,,"
  <table>
  <tr height=300>
    <td width=300 height=300><img src=""static/images/cards/back_of_red_stars.svg"" width=""175px"" height=""250px""></img></td>
    <td width=300 height=300><img src=""static/images/cards/back_of_red_stars.svg"" width=""175px"" height=""250px""></img></td>
  </tr>
  <tr height=200>
    <td width=300><img src=""static/images/keys/z.svg"" width=""35%"" height=""75%""></img></td>
    <td width=300></td>
  </tr>
</table>
  ",90.0,1.0,,,,,,,,,,,,,,,,,,,,,,,,,,
209,0,,html-keyboard-response,209,501601,0.0-7.11-2.11,wdta4fpc00i,2022-09-19 13:29:38.546,601fe0de101ae05414812f4d,3,100,74,48,19,27,female,,,"
  <table>
  <tr height=300>
    <td width=300 height=300><img src=""static/images/cards/10_of_red_stars.svg"" width=""175px"" height=""250px""></img></td>
    <td width=300 height=300><img src=""static/images/cards/back_of_red_stars.svg"" width=""175px"" height=""250px""></img></td>
  </tr>
  <tr height=200>
    <td width=300><img src=""static/images/keys/z.svg"" width=""35%"" height=""75%""></img></td>
    <td width=300></td>
  </tr>
</table>
  ",,,,,,,,,,,,,,,,,,,,,,,,,,,,
210,0,,html-keyboard-response,210,503149,0.0-7.11-3.11,wdta4fpc00i,2022-09-19 13:29:38.546,601fe0de101ae05414812f4d,3,100,74,48,19,27,female,,,"<p style=""font-size:50px"">You Lose!
No points this round.</p>",,,,,,,,,,,,,,,,,,,,,,,,,,,,
211,0,,html-keyboard-response,211,503683,0.0-7.11-4.11,wdta4fpc00i,2022-09-19 13:29:38.546,601fe0de101ae05414812f4d,3,100,74,48,19,27,female,,,,,,1.0,choice,11.0,B,D,red,red,moons,stars,B,D,D,red,stars,1878.2999999523,0.0,0.0,1,left,488.3000000119,10.0,1.0,0.0,,,
212,0,,html-keyboard-response,212,504460,0.0-7.12-0.12,wdta4fpc00i,2022-09-19 13:29:38.546,601fe0de101ae05414812f4d,3,100,74,48,19,27,female,774.6999999881,,"
  <table>
  <tr height=300>
    <td width=300 height=300><img src=""static/images/cards/stack_of_black_moons.svg"" width=""175px"" height=""250px""></img></td>
    <td width=300 height=300><img src=""static/images/cards/stack_of_red_moons.svg"" width=""175px"" height=""250px""></img></td>
  </tr>
  <tr height=200>
    <td width=300><img src=""static/images/keys/w.svg"" width=""35%"" height=""75%""></img></td>
    <td width=300><img src=""static/images/keys/o.svg"" width=""35%"" height=""75%""></img></td>
  </tr>
</table>
  ",79.0,1.0,,,,,,,,,,,,,,,,,,,,,,,,,,
213,0,,html-keyboard-response,213,505423,0.0-7.12-1.12,wdta4fpc00i,2022-09-19 13:29:38.546,601fe0de101ae05414812f4d,3,100,74,48,19,27,female,444.0,,"
  <table>
  <tr height=300>
    <td width=300 height=300><img src=""static/images/cards/back_of_red_moons.svg"" width=""175px"" height=""250px""></img></td>
    <td width=300 height=300><img src=""static/images/cards/back_of_red_moons.svg"" width=""175px"" height=""250px""></img></td>
  </tr>
  <tr height=200>
    <td width=300><img src=""static/images/keys/z.svg"" width=""35%"" height=""75%""></img></td>
    <td width=300></td>
  </tr>
</table>
  ",90.0,1.0,,,,,,,,,,,,,,,,,,,,,,,,,,
214,0,,html-keyboard-response,214,506933,0.0-7.12-2.12,wdta4fpc00i,2022-09-19 13:29:38.546,601fe0de101ae05414812f4d,3,100,74,48,19,27,female,,,"
  <table>
  <tr height=300>
    <td width=300 height=300><img src=""static/images/cards/8_of_red_moons.svg"" width=""175px"" height=""250px""></img></td>
    <td width=300 height=300><img src=""static/images/cards/back_of_red_moons.svg"" width=""175px"" height=""250px""></img></td>
  </tr>
  <tr height=200>
    <td width=300><img src=""static/images/keys/z.svg"" width=""35%"" height=""75%""></img></td>
    <td width=300></td>
  </tr>
</table>
  ",,,,,,,,,,,,,,,,,,,,,,,,,,,,
215,0,,html-keyboard-response,215,508443,0.0-7.12-3.12,wdta4fpc00i,2022-09-19 13:29:38.546,601fe0de101ae05414812f4d,3,100,74,48,19,27,female,,,"<p style=""font-size:50px"">You win!
+10 points this round!</p>",,,,,,,,,,,,,,,,,,,,,,,,,,,,
216,0,,html-keyboard-response,216,508974,0.0-7.12-4.12,wdta4fpc00i,2022-09-19 13:29:38.546,601fe0de101ae05414812f4d,3,100,74,48,19,27,female,,,,,,1.0,choice,12.0,A,B,black,red,moons,moons,A,B,B,red,moons,774.6999999881,0.0,1.0,1,left,444.0,8.0,1.0,1.0,,,
217,0,,html-keyboard-response,217,509986,0.0-7.13-0.13,wdta4fpc00i,2022-09-19 13:29:38.546,601fe0de101ae05414812f4d,3,100,74,48,19,27,female,1010.5,,"
  <table>
  <tr height=300>
    <td width=300 height=300><img src=""static/images/cards/stack_of_red_stars.svg"" width=""175px"" height=""250px""></img></td>
    <td width=300 height=300><img src=""static/images/cards/stack_of_red_moons.svg"" width=""175px"" height=""250px""></img></td>
  </tr>
  <tr height=200>
    <td width=300><img src=""static/images/keys/w.svg"" width=""35%"" height=""75%""></img></td>
    <td width=300><img src=""static/images/keys/o.svg"" width=""35%"" height=""75%""></img></td>
  </tr>
</table>
  ",79.0,1.0,,,,,,,,,,,,,,,,,,,,,,,,,,
218,0,,html-keyboard-response,218,510996,0.0-7.13-1.13,wdta4fpc00i,2022-09-19 13:29:38.546,601fe0de101ae05414812f4d,3,100,74,48,19,27,female,500.5,,"
  <table>
  <tr height=300>
    <td width=300 height=300><img src=""static/images/cards/back_of_red_moons.svg"" width=""175px"" height=""250px""></img></td>
    <td width=300 height=300><img src=""static/images/cards/back_of_red_moons.svg"" width=""175px"" height=""250px""></img></td>
  </tr>
  <tr height=200>
    <td width=300><img src=""static/images/keys/z.svg"" width=""35%"" height=""75%""></img></td>
    <td width=300></td>
  </tr>
</table>
  ",90.0,1.0,,,,,,,,,,,,,,,,,,,,,,,,,,
219,0,,html-keyboard-response,219,512501,0.0-7.13-2.13,wdta4fpc00i,2022-09-19 13:29:38.546,601fe0de101ae05414812f4d,3,100,74,48,19,27,female,,,"
  <table>
  <tr height=300>
    <td width=300 height=300><img src=""static/images/cards/10_of_red_moons.svg"" width=""175px"" height=""250px""></img></td>
    <td width=300 height=300><img src=""static/images/cards/back_of_red_moons.svg"" width=""175px"" height=""250px""></img></td>
  </tr>
  <tr height=200>
    <td width=300><img src=""static/images/keys/z.svg"" width=""35%"" height=""75%""></img></td>
    <td width=300></td>
  </tr>
</table>
  ",,,,,,,,,,,,,,,,,,,,,,,,,,,,
220,0,,html-keyboard-response,220,514010,0.0-7.13-3.13,wdta4fpc00i,2022-09-19 13:29:38.546,601fe0de101ae05414812f4d,3,100,74,48,19,27,female,,,"<p style=""font-size:50px"">You win!
+10 points this round!</p>",,,,,,,,,,,,,,,,,,,,,,,,,,,,
221,0,,html-keyboard-response,221,514530,0.0-7.13-4.13,wdta4fpc00i,2022-09-19 13:29:38.546,601fe0de101ae05414812f4d,3,100,74,48,19,27,female,,,,,,1.0,choice,13.0,B,D,red,red,stars,moons,D,B,B,red,moons,1010.5,0.0,1.0,1,left,500.5,10.0,1.0,1.0,,,
222,0,,html-keyboard-response,222,515161,0.0-7.14-0.14,wdta4fpc00i,2022-09-19 13:29:38.546,601fe0de101ae05414812f4d,3,100,74,48,19,27,female,626.8999999762,,"
  <table>
  <tr height=300>
    <td width=300 height=300><img src=""static/images/cards/stack_of_red_moons.svg"" width=""175px"" height=""250px""></img></td>
    <td width=300 height=300><img src=""static/images/cards/stack_of_red_stars.svg"" width=""175px"" height=""250px""></img></td>
  </tr>
  <tr height=200>
    <td width=300><img src=""static/images/keys/w.svg"" width=""35%"" height=""75%""></img></td>
    <td width=300><img src=""static/images/keys/o.svg"" width=""35%"" height=""75%""></img></td>
  </tr>
</table>
  ",87.0,1.0,,,,,,,,,,,,,,,,,,,,,,,,,,
223,0,,html-keyboard-response,223,516290,0.0-7.14-1.14,wdta4fpc00i,2022-09-19 13:29:38.546,601fe0de101ae05414812f4d,3,100,74,48,19,27,female,619.1000000238,,"
  <table>
  <tr height=300>
    <td width=300 height=300><img src=""static/images/cards/back_of_red_moons.svg"" width=""175px"" height=""250px""></img></td>
    <td width=300 height=300><img src=""static/images/cards/back_of_red_moons.svg"" width=""175px"" height=""250px""></img></td>
  </tr>
  <tr height=200>
    <td width=300></td>
    <td width=300><img src=""static/images/keys/m.svg"" width=""35%"" height=""75%""></img></td>
  </tr>
</table>
  ",77.0,1.0,,,,,,,,,,,,,,,,,,,,,,,,,,
224,0,,html-keyboard-response,224,517795,0.0-7.14-2.14,wdta4fpc00i,2022-09-19 13:29:38.546,601fe0de101ae05414812f4d,3,100,74,48,19,27,female,,,"
  <table>
  <tr height=300>
    <td width=300 height=300><img src=""static/images/cards/back_of_red_moons.svg"" width=""175px"" height=""250px""></img></td>
    <td width=300 height=300><img src=""static/images/cards/3_of_red_moons.svg"" width=""175px"" height=""250px""></img></td>
  </tr>
  <tr height=200>
    <td width=300></td>
    <td width=300><img src=""static/images/keys/m.svg"" width=""35%"" height=""75%""></img></td>
  </tr>
</table>
  ",,,,,,,,,,,,,,,,,,,,,,,,,,,,
225,0,,html-keyboard-response,225,519329,0.0-7.14-3.14,wdta4fpc00i,2022-09-19 13:29:38.546,601fe0de101ae05414812f4d,3,100,74,48,19,27,female,,,"<p style=""font-size:50px"">You Lose!
No points this round.</p>",,,,,,,,,,,,,,,,,,,,,,,,,,,,
226,0,,html-keyboard-response,226,519840,0.0-7.14-4.14,wdta4fpc00i,2022-09-19 13:29:38.546,601fe0de101ae05414812f4d,3,100,74,48,19,27,female,,,,,,1.0,choice,14.0,B,D,red,red,moons,stars,B,D,B,red,moons,626.8999999762,0.0,1.0,0,right,619.1000000238,3.0,0.0,0.0,,,
227,0,,html-keyboard-response,227,520391,0.0-7.15-0.15,wdta4fpc00i,2022-09-19 13:29:38.546,601fe0de101ae05414812f4d,3,100,74,48,19,27,female,549.5,,"
  <table>
  <tr height=300>
    <td width=300 height=300><img src=""static/images/cards/stack_of_black_stars.svg"" width=""175px"" height=""250px""></img></td>
    <td width=300 height=300><img src=""static/images/cards/stack_of_red_moons.svg"" width=""175px"" height=""250px""></img></td>
  </tr>
  <tr height=200>
    <td width=300><img src=""static/images/keys/w.svg"" width=""35%"" height=""75%""></img></td>
    <td width=300><img src=""static/images/keys/o.svg"" width=""35%"" height=""75%""></img></td>
  </tr>
</table>
  ",79.0,1.0,,,,,,,,,,,,,,,,,,,,,,,,,,
228,0,,html-keyboard-response,228,521197,0.0-7.15-1.15,wdta4fpc00i,2022-09-19 13:29:38.546,601fe0de101ae05414812f4d,3,100,74,48,19,27,female,293.2999999523,,"
  <table>
  <tr height=300>
    <td width=300 height=300><img src=""static/images/cards/back_of_red_moons.svg"" width=""175px"" height=""250px""></img></td>
    <td width=300 height=300><img src=""static/images/cards/back_of_red_moons.svg"" width=""175px"" height=""250px""></img></td>
  </tr>
  <tr height=200>
    <td width=300></td>
    <td width=300><img src=""static/images/keys/m.svg"" width=""35%"" height=""75%""></img></td>
  </tr>
</table>
  ",77.0,1.0,,,,,,,,,,,,,,,,,,,,,,,,,,
229,0,,html-keyboard-response,229,522722,0.0-7.15-2.15,wdta4fpc00i,2022-09-19 13:29:38.546,601fe0de101ae05414812f4d,3,100,74,48,19,27,female,,,"
  <table>
  <tr height=300>
    <td width=300 height=300><img src=""static/images/cards/back_of_red_moons.svg"" width=""175px"" height=""250px""></img></td>
    <td width=300 height=300><img src=""static/images/cards/8_of_red_moons.svg"" width=""175px"" height=""250px""></img></td>
  </tr>
  <tr height=200>
    <td width=300></td>
    <td width=300><img src=""static/images/keys/m.svg"" width=""35%"" height=""75%""></img></td>
  </tr>
</table>
  ",,,,,,,,,,,,,,,,,,,,,,,,,,,,
230,0,,html-keyboard-response,230,524246,0.0-7.15-3.15,wdta4fpc00i,2022-09-19 13:29:38.546,601fe0de101ae05414812f4d,3,100,74,48,19,27,female,,,"<p style=""font-size:50px"">You win!
+10 points this round!</p>",,,,,,,,,,,,,,,,,,,,,,,,,,,,
231,0,,html-keyboard-response,231,524774,0.0-7.15-4.15,wdta4fpc00i,2022-09-19 13:29:38.546,601fe0de101ae05414812f4d,3,100,74,48,19,27,female,,,,,,1.0,choice,15.0,B,C,black,red,stars,moons,C,B,B,red,moons,549.5,0.0,1.0,0,right,293.2999999523,8.0,1.0,1.0,,,
232,0,,html-keyboard-response,232,525406,0.0-7.16-0.16,wdta4fpc00i,2022-09-19 13:29:38.546,601fe0de101ae05414812f4d,3,100,74,48,19,27,female,629.3999999762,,"
  <table>
  <tr height=300>
    <td width=300 height=300><img src=""static/images/cards/stack_of_black_stars.svg"" width=""175px"" height=""250px""></img></td>
    <td width=300 height=300><img src=""static/images/cards/stack_of_black_bolts.svg"" width=""175px"" height=""250px""></img></td>
  </tr>
  <tr height=200>
    <td width=300><img src=""static/images/keys/w.svg"" width=""35%"" height=""75%""></img></td>
    <td width=300><img src=""static/images/keys/o.svg"" width=""35%"" height=""75%""></img></td>
  </tr>
</table>
  ",87.0,1.0,,,,,,,,,,,,,,,,,,,,,,,,,,
233,0,,html-keyboard-response,233,526675,0.0-7.16-1.16,wdta4fpc00i,2022-09-19 13:29:38.546,601fe0de101ae05414812f4d,3,100,74,48,19,27,female,751.8000000119,,"
  <table>
  <tr height=300>
    <td width=300 height=300><img src=""static/images/cards/back_of_black_stars.svg"" width=""175px"" height=""250px""></img></td>
    <td width=300 height=300><img src=""static/images/cards/back_of_black_stars.svg"" width=""175px"" height=""250px""></img></td>
  </tr>
  <tr height=200>
    <td width=300><img src=""static/images/keys/z.svg"" width=""35%"" height=""75%""></img></td>
    <td width=300><img src=""static/images/keys/m.svg"" width=""35%"" height=""75%""></img></td>
  </tr>
</table>
  ",77.0,1.0,,,,,,,,,,,,,,,,,,,,,,,,,,
234,0,,html-keyboard-response,234,528188,0.0-7.16-2.16,wdta4fpc00i,2022-09-19 13:29:38.546,601fe0de101ae05414812f4d,3,100,74,48,19,27,female,,,"
  <table>
  <tr height=300>
    <td width=300 height=300><img src=""static/images/cards/back_of_black_stars.svg"" width=""175px"" height=""250px""></img></td>
    <td width=300 height=300><img src=""static/images/cards/9_of_black_stars.svg"" width=""175px"" height=""250px""></img></td>
  </tr>
  <tr height=200>
    <td width=300><img src=""static/images/keys/z.svg"" width=""35%"" height=""75%""></img></td>
