,index,success,trial_type,trial_index,time_elapsed,internal_node_id,subject,date,prol_id,ctbl,sense_of_control_A,sense_of_control_B,sense_of_control_C,sense_of_control_D,age,gender,rt,url,stimulus,key_press,npress,is_data_trial,phase,trial,deck1,deck2,col1,col2,sym1,sym2,deck_l,deck_r,chosen_deck,chosen_col,chosen_sym,deck_rt,choose_choice,mutual_info,hidden_key,chosen_card,card_rt,player_num,win_card,outcome,mock_rating,response,responses
0,0,1.0,fullscreen,0,37699,0.0-0.0,vxh85b8d0la,2022-09-19 15:59:02.119,62fce6aced330768368997e8,1,72,74,28,19,43,female,,,,,,,,,,,,,,,,,,,,,,,,,,,,,,,
1,0,,external-html,1,55419,0.0-1.0,vxh85b8d0la,2022-09-19 15:59:02.119,62fce6aced330768368997e8,1,72,74,28,19,43,female,17615.5,static/js/sub/consent.html,,,,,,,,,,,,,,,,,,,,,,,,,,,,,
2,0,,call-function,2,55437,0.0-2.0,vxh85b8d0la,2022-09-19 15:59:02.119,62fce6aced330768368997e8,1,72,74,28,19,43,female,,,,,,,,,,,,,,,,,,,,,,,,,,,,,,,
3,0,,image-keyboard-response,3,62911,0.0-3.0-0.0,vxh85b8d0la,2022-09-19 15:59:02.119,62fce6aced330768368997e8,1,72,74,28,19,43,female,7470.0,,static/images/instructions_CB_1/Slide1.png,39.0,,,,,,,,,,,,,,,,,,,,,,,,,,,
4,0,,image-keyboard-response,4,88373,0.0-3.1-0.1,vxh85b8d0la,2022-09-19 15:59:02.119,62fce6aced330768368997e8,1,72,74,28,19,43,female,25457.3999999762,,static/images/instructions_CB_1/Slide2.png,39.0,,,,,,,,,,,,,,,,,,,,,,,,,,,
5,0,,image-keyboard-response,5,99562,0.0-3.2-0.2,vxh85b8d0la,2022-09-19 15:59:02.119,62fce6aced330768368997e8,1,72,74,28,19,43,female,11184.5,,static/images/instructions_CB_1/Slide3.png,39.0,,,,,,,,,,,,,,,,,,,,,,,,,,,
6,0,,image-keyboard-response,6,111223,0.0-3.3-0.3,vxh85b8d0la,2022-09-19 15:59:02.119,62fce6aced330768368997e8,1,72,74,28,19,43,female,11656.4000000358,,static/images/instructions_CB_1/Slide4.png,39.0,,,,,,,,,,,,,,,,,,,,,,,,,,,
7,0,,image-keyboard-response,7,141575,0.0-3.4-0.4,vxh85b8d0la,2022-09-19 15:59:02.119,62fce6aced330768368997e8,1,72,74,28,19,43,female,30347.3999999762,,static/images/instructions_CB_1/Slide5.png,39.0,,,,,,,,,,,,,,,,,,,,,,,,,,,
8,0,,image-keyboard-response,8,147098,0.0-3.5-0.5,vxh85b8d0la,2022-09-19 15:59:02.119,62fce6aced330768368997e8,1,72,74,28,19,43,female,5515.5,,static/images/instructions_CB_1/Slide6.png,39.0,,,,,,,,,,,,,,,,,,,,,,,,,,,
9,0,,image-keyboard-response,9,163106,0.0-3.6-0.6,vxh85b8d0la,2022-09-19 15:59:02.119,62fce6aced330768368997e8,1,72,74,28,19,43,female,15999.2000000477,,static/images/instructions_CB_1/Slide7.png,39.0,,,,,,,,,,,,,,,,,,,,,,,,,,,
10,0,,image-keyboard-response,10,196082,0.0-3.7-0.7,vxh85b8d0la,2022-09-19 15:59:02.119,62fce6aced330768368997e8,1,72,74,28,19,43,female,32967.4000000358,,static/images/instructions_CB_1/Slide8.png,39.0,,,,,,,,,,,,,,,,,,,,,,,,,,,
11,0,,image-keyboard-response,11,203957,0.0-3.8-0.8,vxh85b8d0la,2022-09-19 15:59:02.119,62fce6aced330768368997e8,1,72,74,28,19,43,female,7867.5,,static/images/instructions_CB_1/Slide9.png,39.0,,,,,,,,,,,,,,,,,,,,,,,,,,,
12,0,,image-keyboard-response,12,238393,0.0-3.9-0.9,vxh85b8d0la,2022-09-19 15:59:02.119,62fce6aced330768368997e8,1,72,74,28,19,43,female,34427.2999999523,,static/images/instructions_CB_1/Slide10.png,39.0,,,,,,,,,,,,,,,,,,,,,,,,,,,
13,0,,image-keyboard-response,13,246383,0.0-3.10-0.10,vxh85b8d0la,2022-09-19 15:59:02.119,62fce6aced330768368997e8,1,72,74,28,19,43,female,7983.8000000119,,static/images/instructions_CB_1/Slide11.png,39.0,,,,,,,,,,,,,,,,,,,,,,,,,,,
14,0,,image-keyboard-response,14,272927,0.0-3.11-0.11,vxh85b8d0la,2022-09-19 15:59:02.119,62fce6aced330768368997e8,1,72,74,28,19,43,female,26538.3999999762,,static/images/instructions_CB_1/Slide12.png,39.0,,,,,,,,,,,,,,,,,,,,,,,,,,,
15,0,,image-keyboard-response,15,312669,0.0-3.12-0.12,vxh85b8d0la,2022-09-19 15:59:02.119,62fce6aced330768368997e8,1,72,74,28,19,43,female,39733.8000000119,,static/images/instructions_CB_1/Slide13.png,39.0,,,,,,,,,,,,,,,,,,,,,,,,,,,
16,0,,image-keyboard-response,16,331466,0.0-3.13-0.13,vxh85b8d0la,2022-09-19 15:59:02.119,62fce6aced330768368997e8,1,72,74,28,19,43,female,18788.1999999881,,static/images/instructions_CB_1/Slide14.png,39.0,,,,,,,,,,,,,,,,,,,,,,,,,,,
17,0,,image-keyboard-response,17,351730,0.0-3.14-0.14,vxh85b8d0la,2022-09-19 15:59:02.119,62fce6aced330768368997e8,1,72,74,28,19,43,female,20256.5,,static/images/instructions_CB_1/Slide15.png,39.0,,,,,,,,,,,,,,,,,,,,,,,,,,,
18,0,,image-keyboard-response,18,362430,0.0-3.15-0.15,vxh85b8d0la,2022-09-19 15:59:02.119,62fce6aced330768368997e8,1,72,74,28,19,43,female,10692.9000000358,,static/images/instructions_CB_1/Slide16.png,39.0,,,,,,,,,,,,,,,,,,,,,,,,,,,
19,0,,image-keyboard-response,19,372079,0.0-3.16-0.16,vxh85b8d0la,2022-09-19 15:59:02.119,62fce6aced330768368997e8,1,72,74,28,19,43,female,9641.0999999642,,static/images/instructions_CB_1/Slide17.png,39.0,,,,,,,,,,,,,,,,,,,,,,,,,,,
20,0,,image-keyboard-response,20,378691,0.0-3.17-0.17,vxh85b8d0la,2022-09-19 15:59:02.119,62fce6aced330768368997e8,1,72,74,28,19,43,female,6606.4000000358,,static/images/instructions_CB_1/Slide18.png,39.0,,,,,,,,,,,,,,,,,,,,,,,,,,,
21,0,,image-keyboard-response,21,388816,0.0-3.18-0.18,vxh85b8d0la,2022-09-19 15:59:02.119,62fce6aced330768368997e8,1,72,74,28,19,43,female,10120.7000000477,,static/images/instructions_CB_1/Slide19.png,39.0,,,,,,,,,,,,,,,,,,,,,,,,,,,
22,0,,html-keyboard-response,22,390336,0.0-4.0-0.0,vxh85b8d0la,2022-09-19 15:59:02.119,62fce6aced330768368997e8,1,72,74,28,19,43,female,,,"<img src=""static/images/cards/stack_of_red_moons.svg"" width=""175px"" height=""250px""></img>",,,,,,,,,,,,,,,,,,,,,,,,,,,,
23,0,,html-keyboard-response,23,391120,0.0-4.0-1.0,vxh85b8d0la,2022-09-19 15:59:02.119,62fce6aced330768368997e8,1,72,74,28,19,43,female,260.5,,"
  <table>
  <tr height=300>
    <td width=300 height=300><img src=""static/images/cards/back_of_red_moons.svg"" width=""175px"" height=""250px""></img></td>
    <td width=300 height=300><img src=""static/images/cards/back_of_red_moons.svg"" width=""175px"" height=""250px""></img></td>
  </tr>
  <tr height=200>
    <td width=300><img src=""static/images/keys/z.svg"" width=""35%"" height=""75%""></img></td>
    <td width=300><img src=""static/images/keys/m.svg"" width=""35%"" height=""75%""></img></td>
  </tr>
</table>
  ",90.0,1.0,,,,,,,,,,,,,,,,,,,,,,,,,,
24,0,,html-keyboard-response,24,392645,0.0-4.0-2.0,vxh85b8d0la,2022-09-19 15:59:02.119,62fce6aced330768368997e8,1,72,74,28,19,43,female,,,"
  <table>
  <tr height=300>
    <td width=300 height=300><img src=""static/images/cards/4_of_red_moons.svg"" width=""175px"" height=""250px""></img></td>
    <td width=300 height=300><img src=""static/images/cards/back_of_red_moons.svg"" width=""175px"" height=""250px""></img></td>
  </tr>
  <tr height=200>
    <td width=300><img src=""static/images/keys/z.svg"" width=""35%"" height=""75%""></img></td>
    <td width=300><img src=""static/images/keys/m.svg"" width=""35%"" height=""75%""></img></td>
  </tr>
</table>
  ",,,,,,,,,,,,,,,,,,,,,,,,,,,,
25,0,,html-keyboard-response,25,394169,0.0-4.0-3.0,vxh85b8d0la,2022-09-19 15:59:02.119,62fce6aced330768368997e8,1,72,74,28,19,43,female,,,"<p style=""font-size:50px"">You Lose!
No points this round.</p>",,,,,,,,,,,,,,,,,,,,,,,,,,,,
26,0,,html-keyboard-response,26,394689,0.0-4.0-4.0,vxh85b8d0la,2022-09-19 15:59:02.119,62fce6aced330768368997e8,1,72,74,28,19,43,female,,,,,,1.0,learning,0.0,A,,red,,moons,,,,A,red,moons,,1.0,1.0,NA,left,260.5,4.0,0.0,0.0,,,
27,0,,html-keyboard-response,27,396208,0.0-4.1-0.1,vxh85b8d0la,2022-09-19 15:59:02.119,62fce6aced330768368997e8,1,72,74,28,19,43,female,,,"<img src=""static/images/cards/stack_of_black_moons.svg"" width=""175px"" height=""250px""></img>",,,,,,,,,,,,,,,,,,,,,,,,,,,,
28,0,,html-keyboard-response,28,397547,0.0-4.1-1.1,vxh85b8d0la,2022-09-19 15:59:02.119,62fce6aced330768368997e8,1,72,74,28,19,43,female,815.5,,"
  <table>
  <tr height=300>
    <td width=300 height=300><img src=""static/images/cards/back_of_black_moons.svg"" width=""175px"" height=""250px""></img></td>
    <td width=300 height=300><img src=""static/images/cards/back_of_black_moons.svg"" width=""175px"" height=""250px""></img></td>
  </tr>
  <tr height=200>
    <td width=300></td>
    <td width=300><img src=""static/images/keys/m.svg"" width=""35%"" height=""75%""></img></td>
  </tr>
</table>
  ",77.0,1.0,,,,,,,,,,,,,,,,,,,,,,,,,,
29,0,,html-keyboard-response,29,399068,0.0-4.1-2.1,vxh85b8d0la,2022-09-19 15:59:02.119,62fce6aced330768368997e8,1,72,74,28,19,43,female,,,"
  <table>
  <tr height=300>
    <td width=300 height=300><img src=""static/images/cards/back_of_black_moons.svg"" width=""175px"" height=""250px""></img></td>
    <td width=300 height=300><img src=""static/images/cards/4_of_black_moons.svg"" width=""175px"" height=""250px""></img></td>
  </tr>
  <tr height=200>
    <td width=300></td>
    <td width=300><img src=""static/images/keys/m.svg"" width=""35%"" height=""75%""></img></td>
  </tr>
</table>
  ",,,,,,,,,,,,,,,,,,,,,,,,,,,,
30,0,,html-keyboard-response,30,400600,0.0-4.1-3.1,vxh85b8d0la,2022-09-19 15:59:02.119,62fce6aced330768368997e8,1,72,74,28,19,43,female,,,"<p style=""font-size:50px"">You Lose!
No points this round.</p>",,,,,,,,,,,,,,,,,,,,,,,,,,,,
31,0,,html-keyboard-response,31,401123,0.0-4.1-4.1,vxh85b8d0la,2022-09-19 15:59:02.119,62fce6aced330768368997e8,1,72,74,28,19,43,female,,,,,,1.0,learning,1.0,B,,black,,moons,,,,B,black,moons,,0.0,1.0,0,right,815.5,4.0,0.0,0.0,,,
32,0,,html-keyboard-response,32,402633,0.0-4.2-0.2,vxh85b8d0la,2022-09-19 15:59:02.119,62fce6aced330768368997e8,1,72,74,28,19,43,female,,,"<img src=""static/images/cards/stack_of_red_stars.svg"" width=""175px"" height=""250px""></img>",,,,,,,,,,,,,,,,,,,,,,,,,,,,
33,0,,html-keyboard-response,33,403735,0.0-4.2-1.2,vxh85b8d0la,2022-09-19 15:59:02.119,62fce6aced330768368997e8,1,72,74,28,19,43,female,577.6000000238,,"
  <table>
  <tr height=300>
    <td width=300 height=300><img src=""static/images/cards/back_of_red_stars.svg"" width=""175px"" height=""250px""></img></td>
    <td width=300 height=300><img src=""static/images/cards/back_of_red_stars.svg"" width=""175px"" height=""250px""></img></td>
  </tr>
  <tr height=200>
    <td width=300><img src=""static/images/keys/z.svg"" width=""35%"" height=""75%""></img></td>
    <td width=300><img src=""static/images/keys/m.svg"" width=""35%"" height=""75%""></img></td>
  </tr>
</table>
  ",90.0,1.0,,,,,,,,,,,,,,,,,,,,,,,,,,
34,0,,html-keyboard-response,34,405252,0.0-4.2-2.2,vxh85b8d0la,2022-09-19 15:59:02.119,62fce6aced330768368997e8,1,72,74,28,19,43,female,,,"
  <table>
  <tr height=300>
    <td width=300 height=300><img src=""static/images/cards/7_of_red_stars.svg"" width=""175px"" height=""250px""></img></td>
    <td width=300 height=300><img src=""static/images/cards/back_of_red_stars.svg"" width=""175px"" height=""250px""></img></td>
  </tr>
  <tr height=200>
    <td width=300><img src=""static/images/keys/z.svg"" width=""35%"" height=""75%""></img></td>
    <td width=300><img src=""static/images/keys/m.svg"" width=""35%"" height=""75%""></img></td>
  </tr>
</table>
  ",,,,,,,,,,,,,,,,,,,,,,,,,,,,
35,0,,html-keyboard-response,35,406768,0.0-4.2-3.2,vxh85b8d0la,2022-09-19 15:59:02.119,62fce6aced330768368997e8,1,72,74,28,19,43,female,,,"<p style=""font-size:50px"">You Lose!
No points this round.</p>",,,,,,,,,,,,,,,,,,,,,,,,,,,,
36,0,,html-keyboard-response,36,407291,0.0-4.2-4.2,vxh85b8d0la,2022-09-19 15:59:02.119,62fce6aced330768368997e8,1,72,74,28,19,43,female,,,,,,1.0,learning,2.0,C,,red,,stars,,,,C,red,stars,,1.0,0.0,NA,left,577.6000000238,7.0,1.0,0.0,,,
37,0,,html-keyboard-response,37,408802,0.0-4.3-0.3,vxh85b8d0la,2022-09-19 15:59:02.119,62fce6aced330768368997e8,1,72,74,28,19,43,female,,,"<img src=""static/images/cards/stack_of_black_stars.svg"" width=""175px"" height=""250px""></img>",,,,,,,,,,,,,,,,,,,,,,,,,,,,
38,0,,html-keyboard-response,38,409955,0.0-4.3-1.3,vxh85b8d0la,2022-09-19 15:59:02.119,62fce6aced330768368997e8,1,72,74,28,19,43,female,634.3999999762,,"
  <table>
  <tr height=300>
    <td width=300 height=300><img src=""static/images/cards/back_of_black_stars.svg"" width=""175px"" height=""250px""></img></td>
    <td width=300 height=300><img src=""static/images/cards/back_of_black_stars.svg"" width=""175px"" height=""250px""></img></td>
  </tr>
  <tr height=200>
    <td width=300><img src=""static/images/keys/z.svg"" width=""35%"" height=""75%""></img></td>
    <td width=300></td>
  </tr>
</table>
  ",90.0,1.0,,,,,,,,,,,,,,,,,,,,,,,,,,
39,0,,html-keyboard-response,39,411486,0.0-4.3-2.3,vxh85b8d0la,2022-09-19 15:59:02.119,62fce6aced330768368997e8,1,72,74,28,19,43,female,,,"
  <table>
  <tr height=300>
    <td width=300 height=300><img src=""static/images/cards/3_of_black_stars.svg"" width=""175px"" height=""250px""></img></td>
    <td width=300 height=300><img src=""static/images/cards/back_of_black_stars.svg"" width=""175px"" height=""250px""></img></td>
  </tr>
  <tr height=200>
    <td width=300><img src=""static/images/keys/z.svg"" width=""35%"" height=""75%""></img></td>
    <td width=300></td>
  </tr>
</table>
  ",,,,,,,,,,,,,,,,,,,,,,,,,,,,
40,0,,html-keyboard-response,40,413019,0.0-4.3-3.3,vxh85b8d0la,2022-09-19 15:59:02.119,62fce6aced330768368997e8,1,72,74,28,19,43,female,,,"<p style=""font-size:50px"">You win!
+10 points this round!</p>",,,,,,,,,,,,,,,,,,,,,,,,,,,,
41,0,,html-keyboard-response,41,413541,0.0-4.3-4.3,vxh85b8d0la,2022-09-19 15:59:02.119,62fce6aced330768368997e8,1,72,74,28,19,43,female,,,,,,1.0,learning,3.0,D,,black,,stars,,,,D,black,stars,,0.0,0.0,1,left,634.3999999762,3.0,0.0,1.0,,,
42,0,,html-keyboard-response,42,415059,0.0-4.4-0.4,vxh85b8d0la,2022-09-19 15:59:02.119,62fce6aced330768368997e8,1,72,74,28,19,43,female,,,"<img src=""static/images/cards/stack_of_red_bolts.svg"" width=""175px"" height=""250px""></img>",,,,,,,,,,,,,,,,,,,,,,,,,,,,
43,0,,html-keyboard-response,43,416104,0.0-4.4-1.4,vxh85b8d0la,2022-09-19 15:59:02.119,62fce6aced330768368997e8,1,72,74,28,19,43,female,506.5,,"
  <table>
  <tr height=300>
    <td width=300 height=300><img src=""static/images/cards/back_of_red_bolts.svg"" width=""175px"" height=""250px""></img></td>
    <td width=300 height=300><img src=""static/images/cards/back_of_red_bolts.svg"" width=""175px"" height=""250px""></img></td>
  </tr>
  <tr height=200>
    <td width=300><img src=""static/images/keys/z.svg"" width=""35%"" height=""75%""></img></td>
    <td width=300><img src=""static/images/keys/m.svg"" width=""35%"" height=""75%""></img></td>
  </tr>
</table>
  ",90.0,1.0,,,,,,,,,,,,,,,,,,,,,,,,,,
44,0,,html-keyboard-response,44,417621,0.0-4.4-2.4,vxh85b8d0la,2022-09-19 15:59:02.119,62fce6aced330768368997e8,1,72,74,28,19,43,female,,,"
  <table>
  <tr height=300>
    <td width=300 height=300><img src=""static/images/cards/2_of_red_bolts.svg"" width=""175px"" height=""250px""></img></td>
    <td width=300 height=300><img src=""static/images/cards/back_of_red_bolts.svg"" width=""175px"" height=""250px""></img></td>
  </tr>
  <tr height=200>
    <td width=300><img src=""static/images/keys/z.svg"" width=""35%"" height=""75%""></img></td>
    <td width=300><img src=""static/images/keys/m.svg"" width=""35%"" height=""75%""></img></td>
  </tr>
</table>
  ",,,,,,,,,,,,,,,,,,,,,,,,,,,,
45,0,,html-keyboard-response,45,419152,0.0-4.4-3.4,vxh85b8d0la,2022-09-19 15:59:02.119,62fce6aced330768368997e8,1,72,74,28,19,43,female,,,"<p style=""font-size:50px"">You win!
+10 points this round!</p>",,,,,,,,,,,,,,,,,,,,,,,,,,,,
46,0,,html-keyboard-response,46,419675,0.0-4.4-4.4,vxh85b8d0la,2022-09-19 15:59:02.119,62fce6aced330768368997e8,1,72,74,28,19,43,female,,,,,,1.0,learning,4.0,Xc,,red,,bolts,,,,Xc,red,bolts,,1.0,0.0,NA,left,506.5,2.0,0.0,1.0,,,
47,0,,html-keyboard-response,47,421184,0.0-4.5-0.5,vxh85b8d0la,2022-09-19 15:59:02.119,62fce6aced330768368997e8,1,72,74,28,19,43,female,,,"<img src=""static/images/cards/stack_of_black_bolts.svg"" width=""175px"" height=""250px""></img>",,,,,,,,,,,,,,,,,,,,,,,,,,,,
48,0,,html-keyboard-response,48,422169,0.0-4.5-1.5,vxh85b8d0la,2022-09-19 15:59:02.119,62fce6aced330768368997e8,1,72,74,28,19,43,female,460.7000000477,,"
  <table>
  <tr height=300>
    <td width=300 height=300><img src=""static/images/cards/back_of_black_bolts.svg"" width=""175px"" height=""250px""></img></td>
    <td width=300 height=300><img src=""static/images/cards/back_of_black_bolts.svg"" width=""175px"" height=""250px""></img></td>
  </tr>
  <tr height=200>
    <td width=300><img src=""static/images/keys/z.svg"" width=""35%"" height=""75%""></img></td>
    <td width=300></td>
  </tr>
</table>
  ",90.0,1.0,,,,,,,,,,,,,,,,,,,,,,,,,,
49,0,,html-keyboard-response,49,423684,0.0-4.5-2.5,vxh85b8d0la,2022-09-19 15:59:02.119,62fce6aced330768368997e8,1,72,74,28,19,43,female,,,"
  <table>
  <tr height=300>
    <td width=300 height=300><img src=""static/images/cards/10_of_black_bolts.svg"" width=""175px"" height=""250px""></img></td>
    <td width=300 height=300><img src=""static/images/cards/back_of_black_bolts.svg"" width=""175px"" height=""250px""></img></td>
  </tr>
  <tr height=200>
    <td width=300><img src=""static/images/keys/z.svg"" width=""35%"" height=""75%""></img></td>
    <td width=300></td>
  </tr>
</table>
  ",,,,,,,,,,,,,,,,,,,,,,,,,,,,
50,0,,html-keyboard-response,50,425234,0.0-4.5-3.5,vxh85b8d0la,2022-09-19 15:59:02.119,62fce6aced330768368997e8,1,72,74,28,19,43,female,,,"<p style=""font-size:50px"">You win!
+10 points this round!</p>",,,,,,,,,,,,,,,,,,,,,,,,,,,,
51,0,,html-keyboard-response,51,425758,0.0-4.5-4.5,vxh85b8d0la,2022-09-19 15:59:02.119,62fce6aced330768368997e8,1,72,74,28,19,43,female,,,,,,1.0,learning,5.0,Xnc,,black,,bolts,,,,Xnc,black,bolts,,0.0,0.0,1,left,460.7000000477,10.0,1.0,1.0,,,
52,0,,html-keyboard-response,52,427269,0.0-4.6-0.6,vxh85b8d0la,2022-09-19 15:59:02.119,62fce6aced330768368997e8,1,72,74,28,19,43,female,,,"<img src=""static/images/cards/stack_of_red_moons.svg"" width=""175px"" height=""250px""></img>",,,,,,,,,,,,,,,,,,,,,,,,,,,,
53,0,,html-keyboard-response,53,428294,0.0-4.6-1.6,vxh85b8d0la,2022-09-19 15:59:02.119,62fce6aced330768368997e8,1,72,74,28,19,43,female,500.5999999642,,"
  <table>
  <tr height=300>
    <td width=300 height=300><img src=""static/images/cards/back_of_red_moons.svg"" width=""175px"" height=""250px""></img></td>
    <td width=300 height=300><img src=""static/images/cards/back_of_red_moons.svg"" width=""175px"" height=""250px""></img></td>
  </tr>
  <tr height=200>
    <td width=300><img src=""static/images/keys/z.svg"" width=""35%"" height=""75%""></img></td>
    <td width=300><img src=""static/images/keys/m.svg"" width=""35%"" height=""75%""></img></td>
  </tr>
</table>
  ",77.0,1.0,,,,,,,,,,,,,,,,,,,,,,,,,,
54,0,,html-keyboard-response,54,429806,0.0-4.6-2.6,vxh85b8d0la,2022-09-19 15:59:02.119,62fce6aced330768368997e8,1,72,74,28,19,43,female,,,"
  <table>
  <tr height=300>
    <td width=300 height=300><img src=""static/images/cards/back_of_red_moons.svg"" width=""175px"" height=""250px""></img></td>
    <td width=300 height=300><img src=""static/images/cards/8_of_red_moons.svg"" width=""175px"" height=""250px""></img></td>
  </tr>
  <tr height=200>
    <td width=300><img src=""static/images/keys/z.svg"" width=""35%"" height=""75%""></img></td>
    <td width=300><img src=""static/images/keys/m.svg"" width=""35%"" height=""75%""></img></td>
  </tr>
</table>
  ",,,,,,,,,,,,,,,,,,,,,,,,,,,,
55,0,,html-keyboard-response,55,431332,0.0-4.6-3.6,vxh85b8d0la,2022-09-19 15:59:02.119,62fce6aced330768368997e8,1,72,74,28,19,43,female,,,"<p style=""font-size:50px"">You win!
+10 points this round!</p>",,,,,,,,,,,,,,,,,,,,,,,,,,,,
56,0,,html-keyboard-response,56,431843,0.0-4.6-4.6,vxh85b8d0la,2022-09-19 15:59:02.119,62fce6aced330768368997e8,1,72,74,28,19,43,female,,,,,,1.0,learning,6.0,A,,red,,moons,,,,A,red,moons,,1.0,1.0,NA,right,500.5999999642,8.0,1.0,1.0,,,
57,0,,html-keyboard-response,57,433352,0.0-4.7-0.7,vxh85b8d0la,2022-09-19 15:59:02.119,62fce6aced330768368997e8,1,72,74,28,19,43,female,,,"<img src=""static/images/cards/stack_of_black_moons.svg"" width=""175px"" height=""250px""></img>",,,,,,,,,,,,,,,,,,,,,,,,,,,,
58,0,,html-keyboard-response,58,434355,0.0-4.7-1.7,vxh85b8d0la,2022-09-19 15:59:02.119,62fce6aced330768368997e8,1,72,74,28,19,43,female,468.8999999762,,"
  <table>
  <tr height=300>
    <td width=300 height=300><img src=""static/images/cards/back_of_black_moons.svg"" width=""175px"" height=""250px""></img></td>
    <td width=300 height=300><img src=""static/images/cards/back_of_black_moons.svg"" width=""175px"" height=""250px""></img></td>
  </tr>
  <tr height=200>
    <td width=300></td>
    <td width=300><img src=""static/images/keys/m.svg"" width=""35%"" height=""75%""></img></td>
  </tr>
</table>
  ",77.0,1.0,,,,,,,,,,,,,,,,,,,,,,,,,,
59,0,,html-keyboard-response,59,435870,0.0-4.7-2.7,vxh85b8d0la,2022-09-19 15:59:02.119,62fce6aced330768368997e8,1,72,74,28,19,43,female,,,"
  <table>
  <tr height=300>
    <td width=300 height=300><img src=""static/images/cards/back_of_black_moons.svg"" width=""175px"" height=""250px""></img></td>
    <td width=300 height=300><img src=""static/images/cards/1_of_black_moons.svg"" width=""175px"" height=""250px""></img></td>
  </tr>
  <tr height=200>
    <td width=300></td>
    <td width=300><img src=""static/images/keys/m.svg"" width=""35%"" height=""75%""></img></td>
  </tr>
</table>
  ",,,,,,,,,,,,,,,,,,,,,,,,,,,,
60,0,,html-keyboard-response,60,437387,0.0-4.7-3.7,vxh85b8d0la,2022-09-19 15:59:02.119,62fce6aced330768368997e8,1,72,74,28,19,43,female,,,"<p style=""font-size:50px"">You Lose!
No points this round.</p>",,,,,,,,,,,,,,,,,,,,,,,,,,,,
61,0,,html-keyboard-response,61,437911,0.0-4.7-4.7,vxh85b8d0la,2022-09-19 15:59:02.119,62fce6aced330768368997e8,1,72,74,28,19,43,female,,,,,,1.0,learning,7.0,B,,black,,moons,,,,B,black,moons,,0.0,1.0,0,right,468.8999999762,1.0,0.0,0.0,,,
62,0,,html-keyboard-response,62,439417,0.0-4.8-0.8,vxh85b8d0la,2022-09-19 15:59:02.119,62fce6aced330768368997e8,1,72,74,28,19,43,female,,,"<img src=""static/images/cards/stack_of_red_stars.svg"" width=""175px"" height=""250px""></img>",,,,,,,,,,,,,,,,,,,,,,,,,,,,
63,0,,html-keyboard-response,63,440535,0.0-4.8-1.8,vxh85b8d0la,2022-09-19 15:59:02.119,62fce6aced330768368997e8,1,72,74,28,19,43,female,594.0,,"
  <table>
  <tr height=300>
    <td width=300 height=300><img src=""static/images/cards/back_of_red_stars.svg"" width=""175px"" height=""250px""></img></td>
    <td width=300 height=300><img src=""static/images/cards/back_of_red_stars.svg"" width=""175px"" height=""250px""></img></td>
  </tr>
  <tr height=200>
    <td width=300><img src=""static/images/keys/z.svg"" width=""35%"" height=""75%""></img></td>
    <td width=300><img src=""static/images/keys/m.svg"" width=""35%"" height=""75%""></img></td>
  </tr>
</table>
  ",90.0,1.0,,,,,,,,,,,,,,,,,,,,,,,,,,
64,0,,html-keyboard-response,64,442061,0.0-4.8-2.8,vxh85b8d0la,2022-09-19 15:59:02.119,62fce6aced330768368997e8,1,72,74,28,19,43,female,,,"
  <table>
  <tr height=300>
    <td width=300 height=300><img src=""static/images/cards/3_of_red_stars.svg"" width=""175px"" height=""250px""></img></td>
    <td width=300 height=300><img src=""static/images/cards/back_of_red_stars.svg"" width=""175px"" height=""250px""></img></td>
  </tr>
  <tr height=200>
    <td width=300><img src=""static/images/keys/z.svg"" width=""35%"" height=""75%""></img></td>
    <td width=300><img src=""static/images/keys/m.svg"" width=""35%"" height=""75%""></img></td>
  </tr>
</table>
  ",,,,,,,,,,,,,,,,,,,,,,,,,,,,
65,0,,html-keyboard-response,65,443584,0.0-4.8-3.8,vxh85b8d0la,2022-09-19 15:59:02.119,62fce6aced330768368997e8,1,72,74,28,19,43,female,,,"<p style=""font-size:50px"">You Lose!
No points this round.</p>",,,,,,,,,,,,,,,,,,,,,,,,,,,,
66,0,,html-keyboard-response,66,444113,0.0-4.8-4.8,vxh85b8d0la,2022-09-19 15:59:02.119,62fce6aced330768368997e8,1,72,74,28,19,43,female,,,,,,1.0,learning,8.0,C,,red,,stars,,,,C,red,stars,,1.0,0.0,NA,left,594.0,3.0,0.0,0.0,,,
67,0,,html-keyboard-response,67,445620,0.0-4.9-0.9,vxh85b8d0la,2022-09-19 15:59:02.119,62fce6aced330768368997e8,1,72,74,28,19,43,female,,,"<img src=""static/images/cards/stack_of_black_stars.svg"" width=""175px"" height=""250px""></img>",,,,,,,,,,,,,,,,,,,,,,,,,,,,
68,0,,html-keyboard-response,68,446627,0.0-4.9-1.9,vxh85b8d0la,2022-09-19 15:59:02.119,62fce6aced330768368997e8,1,72,74,28,19,43,female,488.8000000119,,"
  <table>
  <tr height=300>
    <td width=300 height=300><img src=""static/images/cards/back_of_black_stars.svg"" width=""175px"" height=""250px""></img></td>
    <td width=300 height=300><img src=""static/images/cards/back_of_black_stars.svg"" width=""175px"" height=""250px""></img></td>
  </tr>
  <tr height=200>
    <td width=300></td>
    <td width=300><img src=""static/images/keys/m.svg"" width=""35%"" height=""75%""></img></td>
  </tr>
</table>
  ",77.0,1.0,,,,,,,,,,,,,,,,,,,,,,,,,,
69,0,,html-keyboard-response,69,448170,0.0-4.9-2.9,vxh85b8d0la,2022-09-19 15:59:02.119,62fce6aced330768368997e8,1,72,74,28,19,43,female,,,"
  <table>
  <tr height=300>
    <td width=300 height=300><img src=""static/images/cards/back_of_black_stars.svg"" width=""175px"" height=""250px""></img></td>
    <td width=300 height=300><img src=""static/images/cards/7_of_black_stars.svg"" width=""175px"" height=""250px""></img></td>
  </tr>
  <tr height=200>
    <td width=300></td>
    <td width=300><img src=""static/images/keys/m.svg"" width=""35%"" height=""75%""></img></td>
  </tr>
</table>
  ",,,,,,,,,,,,,,,,,,,,,,,,,,,,
70,0,,html-keyboard-response,70,449699,0.0-4.9-3.9,vxh85b8d0la,2022-09-19 15:59:02.119,62fce6aced330768368997e8,1,72,74,28,19,43,female,,,"<p style=""font-size:50px"">You Lose!
No points this round.</p>",,,,,,,,,,,,,,,,,,,,,,,,,,,,
71,0,,html-keyboard-response,71,450212,0.0-4.9-4.9,vxh85b8d0la,2022-09-19 15:59:02.119,62fce6aced330768368997e8,1,72,74,28,19,43,female,,,,,,1.0,learning,9.0,D,,black,,stars,,,,D,black,stars,,0.0,0.0,0,right,488.8000000119,7.0,1.0,0.0,,,
72,0,,html-keyboard-response,72,451735,0.0-4.10-0.10,vxh85b8d0la,2022-09-19 15:59:02.119,62fce6aced330768368997e8,1,72,74,28,19,43,female,,,"<img src=""static/images/cards/stack_of_red_bolts.svg"" width=""175px"" height=""250px""></img>",,,,,,,,,,,,,,,,,,,,,,,,,,,,
73,0,,html-keyboard-response,73,452600,0.0-4.10-1.10,vxh85b8d0la,2022-09-19 15:59:02.119,62fce6aced330768368997e8,1,72,74,28,19,43,female,343.1999999881,,"
  <table>
  <tr height=300>
    <td width=300 height=300><img src=""static/images/cards/back_of_red_bolts.svg"" width=""175px"" height=""250px""></img></td>
    <td width=300 height=300><img src=""static/images/cards/back_of_red_bolts.svg"" width=""175px"" height=""250px""></img></td>
  </tr>
  <tr height=200>
    <td width=300><img src=""static/images/keys/z.svg"" width=""35%"" height=""75%""></img></td>
    <td width=300><img src=""static/images/keys/m.svg"" width=""35%"" height=""75%""></img></td>
  </tr>
</table>
  ",77.0,1.0,,,,,,,,,,,,,,,,,,,,,,,,,,
74,0,,html-keyboard-response,74,454115,0.0-4.10-2.10,vxh85b8d0la,2022-09-19 15:59:02.119,62fce6aced330768368997e8,1,72,74,28,19,43,female,,,"
  <table>
  <tr height=300>
    <td width=300 height=300><img src=""static/images/cards/back_of_red_bolts.svg"" width=""175px"" height=""250px""></img></td>
    <td width=300 height=300><img src=""static/images/cards/6_of_red_bolts.svg"" width=""175px"" height=""250px""></img></td>
  </tr>
  <tr height=200>
    <td width=300><img src=""static/images/keys/z.svg"" width=""35%"" height=""75%""></img></td>
    <td width=300><img src=""static/images/keys/m.svg"" width=""35%"" height=""75%""></img></td>
  </tr>
</table>
  ",,,,,,,,,,,,,,,,,,,,,,,,,,,,
75,0,,html-keyboard-response,75,455637,0.0-4.10-3.10,vxh85b8d0la,2022-09-19 15:59:02.119,62fce6aced330768368997e8,1,72,74,28,19,43,female,,,"<p style=""font-size:50px"">You win!
+10 points this round!</p>",,,,,,,,,,,,,,,,,,,,,,,,,,,,
76,0,,html-keyboard-response,76,456214,0.0-4.10-4.10,vxh85b8d0la,2022-09-19 15:59:02.119,62fce6aced330768368997e8,1,72,74,28,19,43,female,,,,,,1.0,learning,10.0,Xc,,red,,bolts,,,,Xc,red,bolts,,1.0,0.0,NA,right,343.1999999881,6.0,1.0,1.0,,,
77,0,,html-keyboard-response,77,457718,0.0-4.11-0.11,vxh85b8d0la,2022-09-19 15:59:02.119,62fce6aced330768368997e8,1,72,74,28,19,43,female,,,"<img src=""static/images/cards/stack_of_black_bolts.svg"" width=""175px"" height=""250px""></img>",,,,,,,,,,,,,,,,,,,,,,,,,,,,
78,0,,html-keyboard-response,78,458687,0.0-4.11-1.11,vxh85b8d0la,2022-09-19 15:59:02.119,62fce6aced330768368997e8,1,72,74,28,19,43,female,448.3999999762,,"
  <table>
  <tr height=300>
    <td width=300 height=300><img src=""static/images/cards/back_of_black_bolts.svg"" width=""175px"" height=""250px""></img></td>
    <td width=300 height=300><img src=""static/images/cards/back_of_black_bolts.svg"" width=""175px"" height=""250px""></img></td>
  </tr>
  <tr height=200>
    <td width=300></td>
    <td width=300><img src=""static/images/keys/m.svg"" width=""35%"" height=""75%""></img></td>
  </tr>
</table>
  ",77.0,1.0,,,,,,,,,,,,,,,,,,,,,,,,,,
79,0,,html-keyboard-response,79,460206,0.0-4.11-2.11,vxh85b8d0la,2022-09-19 15:59:02.119,62fce6aced330768368997e8,1,72,74,28,19,43,female,,,"
  <table>
  <tr height=300>
    <td width=300 height=300><img src=""static/images/cards/back_of_black_bolts.svg"" width=""175px"" height=""250px""></img></td>
    <td width=300 height=300><img src=""static/images/cards/9_of_black_bolts.svg"" width=""175px"" height=""250px""></img></td>
  </tr>
  <tr height=200>
    <td width=300></td>
    <td width=300><img src=""static/images/keys/m.svg"" width=""35%"" height=""75%""></img></td>
  </tr>
</table>
  ",,,,,,,,,,,,,,,,,,,,,,,,,,,,
80,0,,html-keyboard-response,80,461726,0.0-4.11-3.11,vxh85b8d0la,2022-09-19 15:59:02.119,62fce6aced330768368997e8,1,72,74,28,19,43,female,,,"<p style=""font-size:50px"">You win!
+10 points this round!</p>",,,,,,,,,,,,,,,,,,,,,,,,,,,,
81,0,,html-keyboard-response,81,462243,0.0-4.11-4.11,vxh85b8d0la,2022-09-19 15:59:02.119,62fce6aced330768368997e8,1,72,74,28,19,43,female,,,,,,1.0,learning,11.0,Xnc,,black,,bolts,,,,Xnc,black,bolts,,0.0,0.0,0,right,448.3999999762,9.0,1.0,1.0,,,
82,0,,html-keyboard-response,82,463773,0.0-4.12-0.12,vxh85b8d0la,2022-09-19 15:59:02.119,62fce6aced330768368997e8,1,72,74,28,19,43,female,,,"<img src=""static/images/cards/stack_of_red_moons.svg"" width=""175px"" height=""250px""></img>",,,,,,,,,,,,,,,,,,,,,,,,,,,,
83,0,,html-keyboard-response,83,465021,0.0-4.12-1.12,vxh85b8d0la,2022-09-19 15:59:02.119,62fce6aced330768368997e8,1,72,74,28,19,43,female,731.2000000477,,"
  <table>
  <tr height=300>
    <td width=300 height=300><img src=""static/images/cards/back_of_red_moons.svg"" width=""175px"" height=""250px""></img></td>
    <td width=300 height=300><img src=""static/images/cards/back_of_red_moons.svg"" width=""175px"" height=""250px""></img></td>
  </tr>
  <tr height=200>
    <td width=300><img src=""static/images/keys/z.svg"" width=""35%"" height=""75%""></img></td>
    <td width=300><img src=""static/images/keys/m.svg"" width=""35%"" height=""75%""></img></td>
  </tr>
</table>
  ",90.0,1.0,,,,,,,,,,,,,,,,,,,,,,,,,,
84,0,,html-keyboard-response,84,466535,0.0-4.12-2.12,vxh85b8d0la,2022-09-19 15:59:02.119,62fce6aced330768368997e8,1,72,74,28,19,43,female,,,"
  <table>
  <tr height=300>
    <td width=300 height=300><img src=""static/images/cards/4_of_red_moons.svg"" width=""175px"" height=""250px""></img></td>
    <td width=300 height=300><img src=""static/images/cards/back_of_red_moons.svg"" width=""175px"" height=""250px""></img></td>
  </tr>
  <tr height=200>
    <td width=300><img src=""static/images/keys/z.svg"" width=""35%"" height=""75%""></img></td>
    <td width=300><img src=""static/images/keys/m.svg"" width=""35%"" height=""75%""></img></td>
  </tr>
</table>
  ",,,,,,,,,,,,,,,,,,,,,,,,,,,,
85,0,,html-keyboard-response,85,468054,0.0-4.12-3.12,vxh85b8d0la,2022-09-19 15:59:02.119,62fce6aced330768368997e8,1,72,74,28,19,43,female,,,"<p style=""font-size:50px"">You Lose!
No points this round.</p>",,,,,,,,,,,,,,,,,,,,,,,,,,,,
86,0,,html-keyboard-response,86,468575,0.0-4.12-4.12,vxh85b8d0la,2022-09-19 15:59:02.119,62fce6aced330768368997e8,1,72,74,28,19,43,female,,,,,,1.0,learning,12.0,A,,red,,moons,,,,A,red,moons,,1.0,1.0,NA,left,731.2000000477,4.0,0.0,0.0,,,
87,0,,html-keyboard-response,87,470089,0.0-4.13-0.13,vxh85b8d0la,2022-09-19 15:59:02.119,62fce6aced330768368997e8,1,72,74,28,19,43,female,,,"<img src=""static/images/cards/stack_of_black_moons.svg"" width=""175px"" height=""250px""></img>",,,,,,,,,,,,,,,,,,,,,,,,,,,,
88,0,,html-keyboard-response,88,471118,0.0-4.13-1.13,vxh85b8d0la,2022-09-19 15:59:02.119,62fce6aced330768368997e8,1,72,74,28,19,43,female,508.6000000238,,"
  <table>
  <tr height=300>
    <td width=300 height=300><img src=""static/images/cards/back_of_black_moons.svg"" width=""175px"" height=""250px""></img></td>
    <td width=300 height=300><img src=""static/images/cards/back_of_black_moons.svg"" width=""175px"" height=""250px""></img></td>
  </tr>
  <tr height=200>
    <td width=300><img src=""static/images/keys/z.svg"" width=""35%"" height=""75%""></img></td>
    <td width=300></td>
  </tr>
</table>
  ",90.0,1.0,,,,,,,,,,,,,,,,,,,,,,,,,,
89,0,,html-keyboard-response,89,472636,0.0-4.13-2.13,vxh85b8d0la,2022-09-19 15:59:02.119,62fce6aced330768368997e8,1,72,74,28,19,43,female,,,"
  <table>
  <tr height=300>
    <td width=300 height=300><img src=""static/images/cards/10_of_black_moons.svg"" width=""175px"" height=""250px""></img></td>
    <td width=300 height=300><img src=""static/images/cards/back_of_black_moons.svg"" width=""175px"" height=""250px""></img></td>
  </tr>
  <tr height=200>
    <td width=300><img src=""static/images/keys/z.svg"" width=""35%"" height=""75%""></img></td>
    <td width=300></td>
  </tr>
</table>
  ",,,,,,,,,,,,,,,,,,,,,,,,,,,,
90,0,,html-keyboard-response,90,474171,0.0-4.13-3.13,vxh85b8d0la,2022-09-19 15:59:02.119,62fce6aced330768368997e8,1,72,74,28,19,43,female,,,"<p style=""font-size:50px"">You win!
+10 points this round!</p>",,,,,,,,,,,,,,,,,,,,,,,,,,,,
91,0,,html-keyboard-response,91,474694,0.0-4.13-4.13,vxh85b8d0la,2022-09-19 15:59:02.119,62fce6aced330768368997e8,1,72,74,28,19,43,female,,,,,,1.0,learning,13.0,B,,black,,moons,,,,B,black,moons,,0.0,1.0,1,left,508.6000000238,10.0,1.0,1.0,,,
92,0,,html-keyboard-response,92,476217,0.0-4.14-0.14,vxh85b8d0la,2022-09-19 15:59:02.119,62fce6aced330768368997e8,1,72,74,28,19,43,female,,,"<img src=""static/images/cards/stack_of_red_stars.svg"" width=""175px"" height=""250px""></img>",,,,,,,,,,,,,,,,,,,,,,,,,,,,
93,0,,html-keyboard-response,93,477375,0.0-4.14-1.14,vxh85b8d0la,2022-09-19 15:59:02.119,62fce6aced330768368997e8,1,72,74,28,19,43,female,646.0,,"
  <table>
  <tr height=300>
    <td width=300 height=300><img src=""static/images/cards/back_of_red_stars.svg"" width=""175px"" height=""250px""></img></td>
    <td width=300 height=300><img src=""static/images/cards/back_of_red_stars.svg"" width=""175px"" height=""250px""></img></td>
  </tr>
  <tr height=200>
    <td width=300><img src=""static/images/keys/z.svg"" width=""35%"" height=""75%""></img></td>
    <td width=300><img src=""static/images/keys/m.svg"" width=""35%"" height=""75%""></img></td>
  </tr>
</table>
  ",77.0,1.0,,,,,,,,,,,,,,,,,,,,,,,,,,
94,0,,html-keyboard-response,94,478892,0.0-4.14-2.14,vxh85b8d0la,2022-09-19 15:59:02.119,62fce6aced330768368997e8,1,72,74,28,19,43,female,,,"
  <table>
  <tr height=300>
    <td width=300 height=300><img src=""static/images/cards/back_of_red_stars.svg"" width=""175px"" height=""250px""></img></td>
    <td width=300 height=300><img src=""static/images/cards/10_of_red_stars.svg"" width=""175px"" height=""250px""></img></td>
  </tr>
  <tr height=200>
    <td width=300><img src=""static/images/keys/z.svg"" width=""35%"" height=""75%""></img></td>
    <td width=300><img src=""static/images/keys/m.svg"" width=""35%"" height=""75%""></img></td>
  </tr>
</table>
  ",,,,,,,,,,,,,,,,,,,,,,,,,,,,
95,0,,html-keyboard-response,95,480404,0.0-4.14-3.14,vxh85b8d0la,2022-09-19 15:59:02.119,62fce6aced330768368997e8,1,72,74,28,19,43,female,,,"<p style=""font-size:50px"">You Lose!
No points this round.</p>",,,,,,,,,,,,,,,,,,,,,,,,,,,,
96,0,,html-keyboard-response,96,480927,0.0-4.14-4.14,vxh85b8d0la,2022-09-19 15:59:02.119,62fce6aced330768368997e8,1,72,74,28,19,43,female,,,,,,1.0,learning,14.0,C,,red,,stars,,,,C,red,stars,,1.0,0.0,NA,right,646.0,10.0,1.0,0.0,,,
97,0,,html-keyboard-response,97,482445,0.0-4.15-0.15,vxh85b8d0la,2022-09-19 15:59:02.119,62fce6aced330768368997e8,1,72,74,28,19,43,female,,,"<img src=""static/images/cards/stack_of_black_stars.svg"" width=""175px"" height=""250px""></img>",,,,,,,,,,,,,,,,,,,,,,,,,,,,
98,0,,html-keyboard-response,98,483419,0.0-4.15-1.15,vxh85b8d0la,2022-09-19 15:59:02.119,62fce6aced330768368997e8,1,72,74,28,19,43,female,455.0,,"
  <table>
  <tr height=300>
    <td width=300 height=300><img src=""static/images/cards/back_of_black_stars.svg"" width=""175px"" height=""250px""></img></td>
    <td width=300 height=300><img src=""static/images/cards/back_of_black_stars.svg"" width=""175px"" height=""250px""></img></td>
  </tr>
  <tr height=200>
    <td width=300><img src=""static/images/keys/z.svg"" width=""35%"" height=""75%""></img></td>
    <td width=300></td>
  </tr>
</table>
  ",90.0,1.0,,,,,,,,,,,,,,,,,,,,,,,,,,
99,0,,html-keyboard-response,99,484938,0.0-4.15-2.15,vxh85b8d0la,2022-09-19 15:59:02.119,62fce6aced330768368997e8,1,72,74,28,19,43,female,,,"
  <table>
  <tr height=300>
    <td width=300 height=300><img src=""static/images/cards/8_of_black_stars.svg"" width=""175px"" height=""250px""></img></td>
    <td width=300 height=300><img src=""static/images/cards/back_of_black_stars.svg"" width=""175px"" height=""250px""></img></td>
  </tr>
  <tr height=200>
    <td width=300><img src=""static/images/keys/z.svg"" width=""35%"" height=""75%""></img></td>
    <td width=300></td>
  </tr>
</table>
  ",,,,,,,,,,,,,,,,,,,,,,,,,,,,
100,0,,html-keyboard-response,100,486470,0.0-4.15-3.15,vxh85b8d0la,2022-09-19 15:59:02.119,62fce6aced330768368997e8,1,72,74,28,19,43,female,,,"<p style=""font-size:50px"">You win!
+10 points this round!</p>",,,,,,,,,,,,,,,,,,,,,,,,,,,,
101,0,,html-keyboard-response,101,486993,0.0-4.15-4.15,vxh85b8d0la,2022-09-19 15:59:02.119,62fce6aced330768368997e8,1,72,74,28,19,43,female,,,,,,1.0,learning,15.0,D,,black,,stars,,,,D,black,stars,,0.0,0.0,1,left,455.0,8.0,1.0,1.0,,,
102,0,,html-keyboard-response,102,488503,0.0-4.16-0.16,vxh85b8d0la,2022-09-19 15:59:02.119,62fce6aced330768368997e8,1,72,74,28,19,43,female,,,"<img src=""static/images/cards/stack_of_red_bolts.svg"" width=""175px"" height=""250px""></img>",,,,,,,,,,,,,,,,,,,,,,,,,,,,
103,0,,html-keyboard-response,103,489389,0.0-4.16-1.16,vxh85b8d0la,2022-09-19 15:59:02.119,62fce6aced330768368997e8,1,72,74,28,19,43,female,363.2999999523,,"
  <table>
  <tr height=300>
    <td width=300 height=300><img src=""static/images/cards/back_of_red_bolts.svg"" width=""175px"" height=""250px""></img></td>
    <td width=300 height=300><img src=""static/images/cards/back_of_red_bolts.svg"" width=""175px"" height=""250px""></img></td>
  </tr>
  <tr height=200>
    <td width=300><img src=""static/images/keys/z.svg"" width=""35%"" height=""75%""></img></td>
    <td width=300><img src=""static/images/keys/m.svg"" width=""35%"" height=""75%""></img></td>
  </tr>
</table>
  ",90.0,1.0,,,,,,,,,,,,,,,,,,,,,,,,,,
104,0,,html-keyboard-response,104,490903,0.0-4.16-2.16,vxh85b8d0la,2022-09-19 15:59:02.119,62fce6aced330768368997e8,1,72,74,28,19,43,female,,,"
  <table>
  <tr height=300>
    <td width=300 height=300><img src=""static/images/cards/7_of_red_bolts.svg"" width=""175px"" height=""250px""></img></td>
    <td width=300 height=300><img src=""static/images/cards/back_of_red_bolts.svg"" width=""175px"" height=""250px""></img></td>
  </tr>
  <tr height=200>
    <td width=300><img src=""static/images/keys/z.svg"" width=""35%"" height=""75%""></img></td>
    <td width=300><img src=""static/images/keys/m.svg"" width=""35%"" height=""75%""></img></td>
  </tr>
</table>
  ",,,,,,,,,,,,,,,,,,,,,,,,,,,,
105,0,,html-keyboard-response,105,492438,0.0-4.16-3.16,vxh85b8d0la,2022-09-19 15:59:02.119,62fce6aced330768368997e8,1,72,74,28,19,43,female,,,"<p style=""font-size:50px"">You win!
+10 points this round!</p>",,,,,,,,,,,,,,,,,,,,,,,,,,,,
106,0,,html-keyboard-response,106,492970,0.0-4.16-4.16,vxh85b8d0la,2022-09-19 15:59:02.119,62fce6aced330768368997e8,1,72,74,28,19,43,female,,,,,,1.0,learning,16.0,Xc,,red,,bolts,,,,Xc,red,bolts,,1.0,0.0,NA,left,363.2999999523,7.0,1.0,1.0,,,
107,0,,html-keyboard-response,107,494487,0.0-4.17-0.17,vxh85b8d0la,2022-09-19 15:59:02.119,62fce6aced330768368997e8,1,72,74,28,19,43,female,,,"<img src=""static/images/cards/stack_of_black_bolts.svg"" width=""175px"" height=""250px""></img>",,,,,,,,,,,,,,,,,,,,,,,,,,,,
108,0,,html-keyboard-response,108,495319,0.0-4.17-1.17,vxh85b8d0la,2022-09-19 15:59:02.119,62fce6aced330768368997e8,1,72,74,28,19,43,female,306.0,,"
  <table>
  <tr height=300>
    <td width=300 height=300><img src=""static/images/cards/back_of_black_bolts.svg"" width=""175px"" height=""250px""></img></td>
    <td width=300 height=300><img src=""static/images/cards/back_of_black_bolts.svg"" width=""175px"" height=""250px""></img></td>
  </tr>
  <tr height=200>
    <td width=300></td>
    <td width=300><img src=""static/images/keys/m.svg"" width=""35%"" height=""75%""></img></td>
  </tr>
</table>
  ",77.0,1.0,,,,,,,,,,,,,,,,,,,,,,,,,,
109,0,,html-keyboard-response,109,496838,0.0-4.17-2.17,vxh85b8d0la,2022-09-19 15:59:02.119,62fce6aced330768368997e8,1,72,74,28,19,43,female,,,"
  <table>
  <tr height=300>
    <td width=300 height=300><img src=""static/images/cards/back_of_black_bolts.svg"" width=""175px"" height=""250px""></img></td>
    <td width=300 height=300><img src=""static/images/cards/3_of_black_bolts.svg"" width=""175px"" height=""250px""></img></td>
  </tr>
  <tr height=200>
    <td width=300></td>
    <td width=300><img src=""static/images/keys/m.svg"" width=""35%"" height=""75%""></img></td>
  </tr>
</table>
  ",,,,,,,,,,,,,,,,,,,,,,,,,,,,
110,0,,html-keyboard-response,110,498354,0.0-4.17-3.17,vxh85b8d0la,2022-09-19 15:59:02.119,62fce6aced330768368997e8,1,72,74,28,19,43,female,,,"<p style=""font-size:50px"">You win!
+10 points this round!</p>",,,,,,,,,,,,,,,,,,,,,,,,,,,,
111,0,,html-keyboard-response,111,498897,0.0-4.17-4.17,vxh85b8d0la,2022-09-19 15:59:02.119,62fce6aced330768368997e8,1,72,74,28,19,43,female,,,,,,1.0,learning,17.0,Xnc,,black,,bolts,,,,Xnc,black,bolts,,0.0,0.0,0,right,306.0,3.0,0.0,1.0,,,
112,0,,html-keyboard-response,112,500404,0.0-4.18-0.18,vxh85b8d0la,2022-09-19 15:59:02.119,62fce6aced330768368997e8,1,72,74,28,19,43,female,,,"<img src=""static/images/cards/stack_of_red_moons.svg"" width=""175px"" height=""250px""></img>",,,,,,,,,,,,,,,,,,,,,,,,,,,,
113,0,,html-keyboard-response,113,501464,0.0-4.18-1.18,vxh85b8d0la,2022-09-19 15:59:02.119,62fce6aced330768368997e8,1,72,74,28,19,43,female,535.0,,"
  <table>
  <tr height=300>
    <td width=300 height=300><img src=""static/images/cards/back_of_red_moons.svg"" width=""175px"" height=""250px""></img></td>
    <td width=300 height=300><img src=""static/images/cards/back_of_red_moons.svg"" width=""175px"" height=""250px""></img></td>
  </tr>
  <tr height=200>
    <td width=300><img src=""static/images/keys/z.svg"" width=""35%"" height=""75%""></img></td>
    <td width=300><img src=""static/images/keys/m.svg"" width=""35%"" height=""75%""></img></td>
  </tr>
</table>
  ",77.0,1.0,,,,,,,,,,,,,,,,,,,,,,,,,,
114,0,,html-keyboard-response,114,502995,0.0-4.18-2.18,vxh85b8d0la,2022-09-19 15:59:02.119,62fce6aced330768368997e8,1,72,74,28,19,43,female,,,"
  <table>
  <tr height=300>
    <td width=300 height=300><img src=""static/images/cards/back_of_red_moons.svg"" width=""175px"" height=""250px""></img></td>
    <td width=300 height=300><img src=""static/images/cards/6_of_red_moons.svg"" width=""175px"" height=""250px""></img></td>
  </tr>
  <tr height=200>
    <td width=300><img src=""static/images/keys/z.svg"" width=""35%"" height=""75%""></img></td>
    <td width=300><img src=""static/images/keys/m.svg"" width=""35%"" height=""75%""></img></td>
  </tr>
</table>
  ",,,,,,,,,,,,,,,,,,,,,,,,,,,,
115,0,,html-keyboard-response,115,504540,0.0-4.18-3.18,vxh85b8d0la,2022-09-19 15:59:02.119,62fce6aced330768368997e8,1,72,74,28,19,43,female,,,"<p style=""font-size:50px"">You win!
+10 points this round!</p>",,,,,,,,,,,,,,,,,,,,,,,,,,,,
116,0,,html-keyboard-response,116,505061,0.0-4.18-4.18,vxh85b8d0la,2022-09-19 15:59:02.119,62fce6aced330768368997e8,1,72,74,28,19,43,female,,,,,,1.0,learning,18.0,A,,red,,moons,,,,A,red,moons,,1.0,1.0,NA,right,535.0,6.0,1.0,1.0,,,
117,0,,html-keyboard-response,117,506570,0.0-4.19-0.19,vxh85b8d0la,2022-09-19 15:59:02.119,62fce6aced330768368997e8,1,72,74,28,19,43,female,,,"<img src=""static/images/cards/stack_of_black_moons.svg"" width=""175px"" height=""250px""></img>",,,,,,,,,,,,,,,,,,,,,,,,,,,,
118,0,,html-keyboard-response,118,507515,0.0-4.19-1.19,vxh85b8d0la,2022-09-19 15:59:02.119,62fce6aced330768368997e8,1,72,74,28,19,43,female,420.8999999762,,"
  <table>
  <tr height=300>
    <td width=300 height=300><img src=""static/images/cards/back_of_black_moons.svg"" width=""175px"" height=""250px""></img></td>
    <td width=300 height=300><img src=""static/images/cards/back_of_black_moons.svg"" width=""175px"" height=""250px""></img></td>
  </tr>
  <tr height=200>
    <td width=300><img src=""static/images/keys/z.svg"" width=""35%"" height=""75%""></img></td>
    <td width=300></td>
  </tr>
</table>
  ",90.0,1.0,,,,,,,,,,,,,,,,,,,,,,,,,,
119,0,,html-keyboard-response,119,509036,0.0-4.19-2.19,vxh85b8d0la,2022-09-19 15:59:02.119,62fce6aced330768368997e8,1,72,74,28,19,43,female,,,"
  <table>
  <tr height=300>
    <td width=300 height=300><img src=""static/images/cards/7_of_black_moons.svg"" width=""175px"" height=""250px""></img></td>
    <td width=300 height=300><img src=""static/images/cards/back_of_black_moons.svg"" width=""175px"" height=""250px""></img></td>
  </tr>
  <tr height=200>
    <td width=300><img src=""static/images/keys/z.svg"" width=""35%"" height=""75%""></img></td>
    <td width=300></td>
  </tr>
</table>
  ",,,,,,,,,,,,,,,,,,,,,,,,,,,,
120,0,,html-keyboard-response,120,510552,0.0-4.19-3.19,vxh85b8d0la,2022-09-19 15:59:02.119,62fce6aced330768368997e8,1,72,74,28,19,43,female,,,"<p style=""font-size:50px"">You win!
+10 points this round!</p>",,,,,,,,,,,,,,,,,,,,,,,,,,,,
121,0,,html-keyboard-response,121,511075,0.0-4.19-4.19,vxh85b8d0la,2022-09-19 15:59:02.119,62fce6aced330768368997e8,1,72,74,28,19,43,female,,,,,,1.0,learning,19.0,B,,black,,moons,,,,B,black,moons,,0.0,1.0,1,left,420.8999999762,7.0,1.0,1.0,,,
122,0,,html-keyboard-response,122,512587,0.0-4.20-0.20,vxh85b8d0la,2022-09-19 15:59:02.119,62fce6aced330768368997e8,1,72,74,28,19,43,female,,,"<img src=""static/images/cards/stack_of_red_stars.svg"" width=""175px"" height=""250px""></img>",,,,,,,,,,,,,,,,,,,,,,,,,,,,
123,0,,html-keyboard-response,123,513777,0.0-4.20-1.20,vxh85b8d0la,2022-09-19 15:59:02.119,62fce6aced330768368997e8,1,72,74,28,19,43,female,668.8000000119,,"
  <table>
  <tr height=300>
    <td width=300 height=300><img src=""static/images/cards/back_of_red_stars.svg"" width=""175px"" height=""250px""></img></td>
    <td width=300 height=300><img src=""static/images/cards/back_of_red_stars.svg"" width=""175px"" height=""250px""></img></td>
  </tr>
  <tr height=200>
    <td width=300><img src=""static/images/keys/z.svg"" width=""35%"" height=""75%""></img></td>
    <td width=300><img src=""static/images/keys/m.svg"" width=""35%"" height=""75%""></img></td>
  </tr>
</table>
  ",77.0,1.0,,,,,,,,,,,,,,,,,,,,,,,,,,
124,0,,html-keyboard-response,124,515288,0.0-4.20-2.20,vxh85b8d0la,2022-09-19 15:59:02.119,62fce6aced330768368997e8,1,72,74,28,19,43,female,,,"
  <table>
  <tr height=300>
    <td width=300 height=300><img src=""static/images/cards/back_of_red_stars.svg"" width=""175px"" height=""250px""></img></td>
    <td width=300 height=300><img src=""static/images/cards/3_of_red_stars.svg"" width=""175px"" height=""250px""></img></td>
  </tr>
  <tr height=200>
    <td width=300><img src=""static/images/keys/z.svg"" width=""35%"" height=""75%""></img></td>
    <td width=300><img src=""static/images/keys/m.svg"" width=""35%"" height=""75%""></img></td>
  </tr>
</table>
  ",,,,,,,,,,,,,,,,,,,,,,,,,,,,
125,0,,html-keyboard-response,125,516818,0.0-4.20-3.20,vxh85b8d0la,2022-09-19 15:59:02.119,62fce6aced330768368997e8,1,72,74,28,19,43,female,,,"<p style=""font-size:50px"">You Lose!
No points this round.</p>",,,,,,,,,,,,,,,,,,,,,,,,,,,,
126,0,,html-keyboard-response,126,517344,0.0-4.20-4.20,vxh85b8d0la,2022-09-19 15:59:02.119,62fce6aced330768368997e8,1,72,74,28,19,43,female,,,,,,1.0,learning,20.0,C,,red,,stars,,,,C,red,stars,,1.0,0.0,NA,right,668.8000000119,3.0,0.0,0.0,,,
127,0,,html-keyboard-response,127,518853,0.0-4.21-0.21,vxh85b8d0la,2022-09-19 15:59:02.119,62fce6aced330768368997e8,1,72,74,28,19,43,female,,,"<img src=""static/images/cards/stack_of_black_stars.svg"" width=""175px"" height=""250px""></img>",,,,,,,,,,,,,,,,,,,,,,,,,,,,
128,0,,html-keyboard-response,128,519820,0.0-4.21-1.21,vxh85b8d0la,2022-09-19 15:59:02.119,62fce6aced330768368997e8,1,72,74,28,19,43,female,446.5999999642,,"
  <table>
  <tr height=300>
    <td width=300 height=300><img src=""static/images/cards/back_of_black_stars.svg"" width=""175px"" height=""250px""></img></td>
    <td width=300 height=300><img src=""static/images/cards/back_of_black_stars.svg"" width=""175px"" height=""250px""></img></td>
  </tr>
  <tr height=200>
    <td width=300><img src=""static/images/keys/z.svg"" width=""35%"" height=""75%""></img></td>
    <td width=300></td>
  </tr>
</table>
  ",90.0,1.0,,,,,,,,,,,,,,,,,,,,,,,,,,
129,0,,html-keyboard-response,129,521329,0.0-4.21-2.21,vxh85b8d0la,2022-09-19 15:59:02.119,62fce6aced330768368997e8,1,72,74,28,19,43,female,,,"
  <table>
  <tr height=300>
    <td width=300 height=300><img src=""static/images/cards/4_of_black_stars.svg"" width=""175px"" height=""250px""></img></td>
    <td width=300 height=300><img src=""static/images/cards/back_of_black_stars.svg"" width=""175px"" height=""250px""></img></td>
  </tr>
  <tr height=200>
    <td width=300><img src=""static/images/keys/z.svg"" width=""35%"" height=""75%""></img></td>
    <td width=300></td>
  </tr>
</table>
  ",,,,,,,,,,,,,,,,,,,,,,,,,,,,
130,0,,html-keyboard-response,130,522852,0.0-4.21-3.21,vxh85b8d0la,2022-09-19 15:59:02.119,62fce6aced330768368997e8,1,72,74,28,19,43,female,,,"<p style=""font-size:50px"">You Lose!
No points this round.</p>",,,,,,,,,,,,,,,,,,,,,,,,,,,,
131,0,,html-keyboard-response,131,523375,0.0-4.21-4.21,vxh85b8d0la,2022-09-19 15:59:02.119,62fce6aced330768368997e8,1,72,74,28,19,43,female,,,,,,1.0,learning,21.0,D,,black,,stars,,,,D,black,stars,,0.0,0.0,1,left,446.5999999642,4.0,0.0,0.0,,,
132,0,,html-keyboard-response,132,524896,0.0-4.22-0.22,vxh85b8d0la,2022-09-19 15:59:02.119,62fce6aced330768368997e8,1,72,74,28,19,43,female,,,"<img src=""static/images/cards/stack_of_red_bolts.svg"" width=""175px"" height=""250px""></img>",,,,,,,,,,,,,,,,,,,,,,,,,,,,
133,0,,html-keyboard-response,133,525671,0.0-4.22-1.22,vxh85b8d0la,2022-09-19 15:59:02.119,62fce6aced330768368997e8,1,72,74,28,19,43,female,261.6000000238,,"
  <table>
  <tr height=300>
    <td width=300 height=300><img src=""static/images/cards/back_of_red_bolts.svg"" width=""175px"" height=""250px""></img></td>
    <td width=300 height=300><img src=""static/images/cards/back_of_red_bolts.svg"" width=""175px"" height=""250px""></img></td>
  </tr>
  <tr height=200>
    <td width=300><img src=""static/images/keys/z.svg"" width=""35%"" height=""75%""></img></td>
    <td width=300><img src=""static/images/keys/m.svg"" width=""35%"" height=""75%""></img></td>
  </tr>
</table>
  ",77.0,1.0,,,,,,,,,,,,,,,,,,,,,,,,,,
134,0,,html-keyboard-response,134,527187,0.0-4.22-2.22,vxh85b8d0la,2022-09-19 15:59:02.119,62fce6aced330768368997e8,1,72,74,28,19,43,female,,,"
  <table>
  <tr height=300>
    <td width=300 height=300><img src=""static/images/cards/back_of_red_bolts.svg"" width=""175px"" height=""250px""></img></td>
    <td width=300 height=300><img src=""static/images/cards/1_of_red_bolts.svg"" width=""175px"" height=""250px""></img></td>
  </tr>
  <tr height=200>
    <td width=300><img src=""static/images/keys/z.svg"" width=""35%"" height=""75%""></img></td>
    <td width=300><img src=""static/images/keys/m.svg"" width=""35%"" height=""75%""></img></td>
  </tr>
</table>
  ",,,,,,,,,,,,,,,,,,,,,,,,,,,,
135,0,,html-keyboard-response,135,528704,0.0-4.22-3.22,vxh85b8d0la,2022-09-19 15:59:02.119,62fce6aced330768368997e8,1,72,74,28,19,43,female,,,"<p style=""font-size:50px"">You win!
+10 points this round!</p>",,,,,,,,,,,,,,,,,,,,,,,,,,,,
136,0,,html-keyboard-response,136,529224,0.0-4.22-4.22,vxh85b8d0la,2022-09-19 15:59:02.119,62fce6aced330768368997e8,1,72,74,28,19,43,female,,,,,,1.0,learning,22.0,Xc,,red,,bolts,,,,Xc,red,bolts,,1.0,0.0,NA,right,261.6000000238,1.0,0.0,1.0,,,
137,0,,html-keyboard-response,137,530735,0.0-4.23-0.23,vxh85b8d0la,2022-09-19 15:59:02.119,62fce6aced330768368997e8,1,72,74,28,19,43,female,,,"<img src=""static/images/cards/stack_of_black_bolts.svg"" width=""175px"" height=""250px""></img>",,,,,,,,,,,,,,,,,,,,,,,,,,,,
138,0,,html-keyboard-response,138,531727,0.0-4.23-1.23,vxh85b8d0la,2022-09-19 15:59:02.119,62fce6aced330768368997e8,1,72,74,28,19,43,female,468.1999999881,,"
  <table>
  <tr height=300>
    <td width=300 height=300><img src=""static/images/cards/back_of_black_bolts.svg"" width=""175px"" height=""250px""></img></td>
    <td width=300 height=300><img src=""static/images/cards/back_of_black_bolts.svg"" width=""175px"" height=""250px""></img></td>
  </tr>
  <tr height=200>
    <td width=300></td>
    <td width=300><img src=""static/images/keys/m.svg"" width=""35%"" height=""75%""></img></td>
  </tr>
</table>
  ",77.0,1.0,,,,,,,,,,,,,,,,,,,,,,,,,,
139,0,,html-keyboard-response,139,533252,0.0-4.23-2.23,vxh85b8d0la,2022-09-19 15:59:02.119,62fce6aced330768368997e8,1,72,74,28,19,43,female,,,"
  <table>
  <tr height=300>
    <td width=300 height=300><img src=""static/images/cards/back_of_black_bolts.svg"" width=""175px"" height=""250px""></img></td>
    <td width=300 height=300><img src=""static/images/cards/1_of_black_bolts.svg"" width=""175px"" height=""250px""></img></td>
  </tr>
  <tr height=200>
    <td width=300></td>
    <td width=300><img src=""static/images/keys/m.svg"" width=""35%"" height=""75%""></img></td>
  </tr>
</table>
  ",,,,,,,,,,,,,,,,,,,,,,,,,,,,
140,0,,html-keyboard-response,140,534788,0.0-4.23-3.23,vxh85b8d0la,2022-09-19 15:59:02.119,62fce6aced330768368997e8,1,72,74,28,19,43,female,,,"<p style=""font-size:50px"">You win!
+10 points this round!</p>",,,,,,,,,,,,,,,,,,,,,,,,,,,,
141,0,,html-keyboard-response,141,535310,0.0-4.23-4.23,vxh85b8d0la,2022-09-19 15:59:02.119,62fce6aced330768368997e8,1,72,74,28,19,43,female,,,,,,1.0,learning,23.0,Xnc,,black,,bolts,,,,Xnc,black,bolts,,0.0,0.0,0,right,468.1999999881,1.0,0.0,1.0,,,
142,0,,call-function,142,535363,0.0-5.0,vxh85b8d0la,2022-09-19 15:59:02.119,62fce6aced330768368997e8,1,72,74,28,19,43,female,,,,,,,,,,,,,,,,,,,,,,,,,,,,,,,
143,0,,image-keyboard-response,143,541186,0.0-6.0-0.0,vxh85b8d0la,2022-09-19 15:59:02.119,62fce6aced330768368997e8,1,72,74,28,19,43,female,5815.3999999762,,static/images/instructions_CB_1/Slide20.png,39.0,,,,,,,,,,,,,,,,,,,,,,,,,,,
144,0,,image-keyboard-response,144,557204,0.0-6.1-0.1,vxh85b8d0la,2022-09-19 15:59:02.119,62fce6aced330768368997e8,1,72,74,28,19,43,female,16014.5,,static/images/instructions_CB_1/Slide21.png,37.0,,,,,,,,,,,,,,,,,,,,,,,,,,,
145,0,,image-keyboard-response,145,559518,0.0-6.2-0.2,vxh85b8d0la,2022-09-19 15:59:02.119,62fce6aced330768368997e8,1,72,74,28,19,43,female,2308.3000000119,,static/images/instructions_CB_1/Slide20.png,39.0,,,,,,,,,,,,,,,,,,,,,,,,,,,
146,0,,image-keyboard-response,146,562050,0.0-6.3-0.3,vxh85b8d0la,2022-09-19 15:59:02.119,62fce6aced330768368997e8,1,72,74,28,19,43,female,2522.4000000358,,static/images/instructions_CB_1/Slide21.png,39.0,,,,,,,,,,,,,,,,,,,,,,,,,,,
147,0,,image-keyboard-response,147,576040,0.0-6.4-0.4,vxh85b8d0la,2022-09-19 15:59:02.119,62fce6aced330768368997e8,1,72,74,28,19,43,female,13981.7999999523,,static/images/instructions_CB_1/Slide22.png,39.0,,,,,,,,,,,,,,,,,,,,,,,,,,,
148,0,,image-keyboard-response,148,583658,0.0-6.5-0.5,vxh85b8d0la,2022-09-19 15:59:02.119,62fce6aced330768368997e8,1,72,74,28,19,43,female,7612.1999999881,,static/images/instructions_CB_1/Slide23.png,39.0,,,,,,,,,,,,,,,,,,,,,,,,,,,
149,0,,image-keyboard-response,149,586776,0.0-6.6-0.6,vxh85b8d0la,2022-09-19 15:59:02.119,62fce6aced330768368997e8,1,72,74,28,19,43,female,3114.2999999523,,static/images/instructions_CB_1/Slide24.png,39.0,,,,,,,,,,,,,,,,,,,,,,,,,,,
150,0,,html-keyboard-response,150,588574,0.0-7.0-0.0,vxh85b8d0la,2022-09-19 15:59:02.119,62fce6aced330768368997e8,1,72,74,28,19,43,female,1785.9000000358,,"
  <table>
  <tr height=300>
    <td width=300 height=300><img src=""static/images/cards/stack_of_red_moons.svg"" width=""175px"" height=""250px""></img></td>
    <td width=300 height=300><img src=""static/images/cards/stack_of_red_stars.svg"" width=""175px"" height=""250px""></img></td>
  </tr>
  <tr height=200>
    <td width=300><img src=""static/images/keys/w.svg"" width=""35%"" height=""75%""></img></td>
    <td width=300><img src=""static/images/keys/o.svg"" width=""35%"" height=""75%""></img></td>
  </tr>
</table>
  ",79.0,1.0,,,,,,,,,,,,,,,,,,,,,,,,,,
151,0,,html-keyboard-response,151,590808,0.0-7.0-1.0,vxh85b8d0la,2022-09-19 15:59:02.119,62fce6aced330768368997e8,1,72,74,28,19,43,female,1711.3000000119,,"
  <table>
  <tr height=300>
    <td width=300 height=300><img src=""static/images/cards/back_of_red_stars.svg"" width=""175px"" height=""250px""></img></td>
    <td width=300 height=300><img src=""static/images/cards/back_of_red_stars.svg"" width=""175px"" height=""250px""></img></td>
  </tr>
  <tr height=200>
    <td width=300><img src=""static/images/keys/z.svg"" width=""35%"" height=""75%""></img></td>
    <td width=300><img src=""static/images/keys/m.svg"" width=""35%"" height=""75%""></img></td>
  </tr>
</table>
  ",90.0,2.0,,,,,,,,,,,,,,,,,,,,,,,,,,
152,0,,html-keyboard-response,152,592343,0.0-7.0-2.0,vxh85b8d0la,2022-09-19 15:59:02.119,62fce6aced330768368997e8,1,72,74,28,19,43,female,,,"
  <table>
  <tr height=300>
    <td width=300 height=300><img src=""static/images/cards/3_of_red_stars.svg"" width=""175px"" height=""250px""></img></td>
    <td width=300 height=300><img src=""static/images/cards/back_of_red_stars.svg"" width=""175px"" height=""250px""></img></td>
  </tr>
  <tr height=200>
    <td width=300><img src=""static/images/keys/z.svg"" width=""35%"" height=""75%""></img></td>
    <td width=300><img src=""static/images/keys/m.svg"" width=""35%"" height=""75%""></img></td>
  </tr>
</table>
  ",,,,,,,,,,,,,,,,,,,,,,,,,,,,
153,0,,html-keyboard-response,153,593858,0.0-7.0-3.0,vxh85b8d0la,2022-09-19 15:59:02.119,62fce6aced330768368997e8,1,72,74,28,19,43,female,,,"<p style=""font-size:50px"">You win!
+10 points this round!</p>",,,,,,,,,,,,,,,,,,,,,,,,,,,,
154,0,,html-keyboard-response,154,594383,0.0-7.0-4.0,vxh85b8d0la,2022-09-19 15:59:02.119,62fce6aced330768368997e8,1,72,74,28,19,43,female,,,,,,1.0,choice,0.0,A,C,red,red,moons,stars,A,C,C,red,stars,1785.9000000358,1.0,0.0,NA,left,1711.3000000119,3.0,0.0,1.0,,,
155,0,,html-keyboard-response,155,595829,0.0-7.1-0.1,vxh85b8d0la,2022-09-19 15:59:02.119,62fce6aced330768368997e8,1,72,74,28,19,43,female,1435.3000000119,,"
  <table>
  <tr height=300>
    <td width=300 height=300><img src=""static/images/cards/stack_of_black_moons.svg"" width=""175px"" height=""250px""></img></td>
    <td width=300 height=300><img src=""static/images/cards/stack_of_red_moons.svg"" width=""175px"" height=""250px""></img></td>
  </tr>
  <tr height=200>
    <td width=300><img src=""static/images/keys/w.svg"" width=""35%"" height=""75%""></img></td>
    <td width=300><img src=""static/images/keys/o.svg"" width=""35%"" height=""75%""></img></td>
  </tr>
</table>
  ",79.0,1.0,,,,,,,,,,,,,,,,,,,,,,,,,,
156,0,,html-keyboard-response,156,598536,0.0-7.1-1.1,vxh85b8d0la,2022-09-19 15:59:02.119,62fce6aced330768368997e8,1,72,74,28,19,43,female,2188.8000000119,,"
  <table>
  <tr height=300>
    <td width=300 height=300><img src=""static/images/cards/back_of_red_moons.svg"" width=""175px"" height=""250px""></img></td>
    <td width=300 height=300><img src=""static/images/cards/back_of_red_moons.svg"" width=""175px"" height=""250px""></img></td>
  </tr>
  <tr height=200>
    <td width=300><img src=""static/images/keys/z.svg"" width=""35%"" height=""75%""></img></td>
    <td width=300><img src=""static/images/keys/m.svg"" width=""35%"" height=""75%""></img></td>
  </tr>
</table>
  ",77.0,2.0,,,,,,,,,,,,,,,,,,,,,,,,,,
157,0,,html-keyboard-response,157,600062,0.0-7.1-2.1,vxh85b8d0la,2022-09-19 15:59:02.119,62fce6aced330768368997e8,1,72,74,28,19,43,female,,,"
  <table>
  <tr height=300>
    <td width=300 height=300><img src=""static/images/cards/back_of_red_moons.svg"" width=""175px"" height=""250px""></img></td>
    <td width=300 height=300><img src=""static/images/cards/8_of_red_moons.svg"" width=""175px"" height=""250px""></img></td>
  </tr>
  <tr height=200>
    <td width=300><img src=""static/images/keys/z.svg"" width=""35%"" height=""75%""></img></td>
    <td width=300><img src=""static/images/keys/m.svg"" width=""35%"" height=""75%""></img></td>
  </tr>
</table>
  ",,,,,,,,,,,,,,,,,,,,,,,,,,,,
158,0,,html-keyboard-response,158,601591,0.0-7.1-3.1,vxh85b8d0la,2022-09-19 15:59:02.119,62fce6aced330768368997e8,1,72,74,28,19,43,female,,,"<p style=""font-size:50px"">You win!
+10 points this round!</p>",,,,,,,,,,,,,,,,,,,,,,,,,,,,
159,0,,html-keyboard-response,159,602115,0.0-7.1-4.1,vxh85b8d0la,2022-09-19 15:59:02.119,62fce6aced330768368997e8,1,72,74,28,19,43,female,,,,,,1.0,choice,1.0,A,B,black,red,moons,moons,B,A,A,red,moons,1435.3000000119,1.0,1.0,NA,right,2188.8000000119,8.0,1.0,1.0,,,
160,0,,html-keyboard-response,160,603456,0.0-7.2-0.2,vxh85b8d0la,2022-09-19 15:59:02.119,62fce6aced330768368997e8,1,72,74,28,19,43,female,1328.6999999881,,"
  <table>
  <tr height=300>
    <td width=300 height=300><img src=""static/images/cards/stack_of_red_moons.svg"" width=""175px"" height=""250px""></img></td>
    <td width=300 height=300><img src=""static/images/cards/stack_of_black_stars.svg"" width=""175px"" height=""250px""></img></td>
  </tr>
  <tr height=200>
    <td width=300><img src=""static/images/keys/w.svg"" width=""35%"" height=""75%""></img></td>
    <td width=300><img src=""static/images/keys/o.svg"" width=""35%"" height=""75%""></img></td>
  </tr>
</table>
  ",87.0,1.0,,,,,,,,,,,,,,,,,,,,,,,,,,
161,0,,html-keyboard-response,161,605249,0.0-7.2-1.2,vxh85b8d0la,2022-09-19 15:59:02.119,62fce6aced330768368997e8,1,72,74,28,19,43,female,1282.6999999881,,"
  <table>
  <tr height=300>
    <td width=300 height=300><img src=""static/images/cards/back_of_red_moons.svg"" width=""175px"" height=""250px""></img></td>
    <td width=300 height=300><img src=""static/images/cards/back_of_red_moons.svg"" width=""175px"" height=""250px""></img></td>
  </tr>
  <tr height=200>
    <td width=300><img src=""static/images/keys/z.svg"" width=""35%"" height=""75%""></img></td>
    <td width=300><img src=""static/images/keys/m.svg"" width=""35%"" height=""75%""></img></td>
  </tr>
</table>
  ",77.0,1.0,,,,,,,,,,,,,,,,,,,,,,,,,,
162,0,,html-keyboard-response,162,606761,0.0-7.2-2.2,vxh85b8d0la,2022-09-19 15:59:02.119,62fce6aced330768368997e8,1,72,74,28,19,43,female,,,"
  <table>
  <tr height=300>
    <td width=300 height=300><img src=""static/images/cards/back_of_red_moons.svg"" width=""175px"" height=""250px""></img></td>
    <td width=300 height=300><img src=""static/images/cards/3_of_red_moons.svg"" width=""175px"" height=""250px""></img></td>
  </tr>
  <tr height=200>
    <td width=300><img src=""static/images/keys/z.svg"" width=""35%"" height=""75%""></img></td>
    <td width=300><img src=""static/images/keys/m.svg"" width=""35%"" height=""75%""></img></td>
  </tr>
</table>
  ",,,,,,,,,,,,,,,,,,,,,,,,,,,,
163,0,,html-keyboard-response,163,608294,0.0-7.2-3.2,vxh85b8d0la,2022-09-19 15:59:02.119,62fce6aced330768368997e8,1,72,74,28,19,43,female,,,"<p style=""font-size:50px"">You Lose!
No points this round.</p>",,,,,,,,,,,,,,,,,,,,,,,,,,,,
164,0,,html-keyboard-response,164,608817,0.0-7.2-4.2,vxh85b8d0la,2022-09-19 15:59:02.119,62fce6aced330768368997e8,1,72,74,28,19,43,female,,,,,,1.0,choice,2.0,A,D,red,black,moons,stars,A,D,A,red,moons,1328.6999999881,1.0,1.0,NA,right,1282.6999999881,3.0,0.0,0.0,,,
165,0,,html-keyboard-response,165,609584,0.0-7.3-0.3,vxh85b8d0la,2022-09-19 15:59:02.119,62fce6aced330768368997e8,1,72,74,28,19,43,female,755.0,,"
  <table>
  <tr height=300>
    <td width=300 height=300><img src=""static/images/cards/stack_of_black_moons.svg"" width=""175px"" height=""250px""></img></td>
    <td width=300 height=300><img src=""static/images/cards/stack_of_red_stars.svg"" width=""175px"" height=""250px""></img></td>
  </tr>
  <tr height=200>
    <td width=300><img src=""static/images/keys/w.svg"" width=""35%"" height=""75%""></img></td>
    <td width=300><img src=""static/images/keys/o.svg"" width=""35%"" height=""75%""></img></td>
  </tr>
</table>
  ",79.0,1.0,,,,,,,,,,,,,,,,,,,,,,,,,,
166,0,,html-keyboard-response,166,611458,0.0-7.3-1.3,vxh85b8d0la,2022-09-19 15:59:02.119,62fce6aced330768368997e8,1,72,74,28,19,43,female,1353.0,,"
  <table>
  <tr height=300>
    <td width=300 height=300><img src=""static/images/cards/back_of_red_stars.svg"" width=""175px"" height=""250px""></img></td>
    <td width=300 height=300><img src=""static/images/cards/back_of_red_stars.svg"" width=""175px"" height=""250px""></img></td>
  </tr>
  <tr height=200>
    <td width=300><img src=""static/images/keys/z.svg"" width=""35%"" height=""75%""></img></td>
    <td width=300><img src=""static/images/keys/m.svg"" width=""35%"" height=""75%""></img></td>
  </tr>
</table>
  ",90.0,1.0,,,,,,,,,,,,,,,,,,,,,,,,,,
167,0,,html-keyboard-response,167,612982,0.0-7.3-2.3,vxh85b8d0la,2022-09-19 15:59:02.119,62fce6aced330768368997e8,1,72,74,28,19,43,female,,,"
  <table>
  <tr height=300>
    <td width=300 height=300><img src=""static/images/cards/8_of_red_stars.svg"" width=""175px"" height=""250px""></img></td>
    <td width=300 height=300><img src=""static/images/cards/back_of_red_stars.svg"" width=""175px"" height=""250px""></img></td>
  </tr>
  <tr height=200>
    <td width=300><img src=""static/images/keys/z.svg"" width=""35%"" height=""75%""></img></td>
    <td width=300><img src=""static/images/keys/m.svg"" width=""35%"" height=""75%""></img></td>
  </tr>
</table>
  ",,,,,,,,,,,,,,,,,,,,,,,,,,,,
168,0,,html-keyboard-response,168,614511,0.0-7.3-3.3,vxh85b8d0la,2022-09-19 15:59:02.119,62fce6aced330768368997e8,1,72,74,28,19,43,female,,,"<p style=""font-size:50px"">You win!
+10 points this round!</p>",,,,,,,,,,,,,,,,,,,,,,,,,,,,
169,0,,html-keyboard-response,169,615034,0.0-7.3-4.3,vxh85b8d0la,2022-09-19 15:59:02.119,62fce6aced330768368997e8,1,72,74,28,19,43,female,,,,,,1.0,choice,3.0,B,C,black,red,moons,stars,B,C,C,red,stars,755.0,1.0,0.0,NA,left,1353.0,8.0,1.0,1.0,,,
170,0,,html-keyboard-response,170,616526,0.0-7.4-0.4,vxh85b8d0la,2022-09-19 15:59:02.119,62fce6aced330768368997e8,1,72,74,28,19,43,female,1468.8000000119,,"
  <table>
  <tr height=300>
    <td width=300 height=300><img src=""static/images/cards/stack_of_black_stars.svg"" width=""175px"" height=""250px""></img></td>
    <td width=300 height=300><img src=""static/images/cards/stack_of_black_moons.svg"" width=""175px"" height=""250px""></img></td>
  </tr>
  <tr height=200>
    <td width=300><img src=""static/images/keys/w.svg"" width=""35%"" height=""75%""></img></td>
    <td width=300><img src=""static/images/keys/o.svg"" width=""35%"" height=""75%""></img></td>
  </tr>
</table>
  ",87.0,1.0,,,,,,,,,,,,,,,,,,,,,,,,,,
171,0,,html-keyboard-response,171,618138,0.0-7.4-1.4,vxh85b8d0la,2022-09-19 15:59:02.119,62fce6aced330768368997e8,1,72,74,28,19,43,female,1087.3000000119,,"
  <table>
  <tr height=300>
    <td width=300 height=300><img src=""static/images/cards/back_of_black_stars.svg"" width=""175px"" height=""250px""></img></td>
    <td width=300 height=300><img src=""static/images/cards/back_of_black_stars.svg"" width=""175px"" height=""250px""></img></td>
  </tr>
  <tr height=200>
    <td width=300></td>
    <td width=300><img src=""static/images/keys/m.svg"" width=""35%"" height=""75%""></img></td>
  </tr>
</table>
  ",77.0,1.0,,,,,,,,,,,,,,,,,,,,,,,,,,
172,0,,html-keyboard-response,172,619661,0.0-7.4-2.4,vxh85b8d0la,2022-09-19 15:59:02.119,62fce6aced330768368997e8,1,72,74,28,19,43,female,,,"
  <table>
  <tr height=300>
    <td width=300 height=300><img src=""static/images/cards/back_of_black_stars.svg"" width=""175px"" height=""250px""></img></td>
    <td width=300 height=300><img src=""static/images/cards/1_of_black_stars.svg"" width=""175px"" height=""250px""></img></td>
  </tr>
  <tr height=200>
    <td width=300></td>
    <td width=300><img src=""static/images/keys/m.svg"" width=""35%"" height=""75%""></img></td>
  </tr>
</table>
  ",,,,,,,,,,,,,,,,,,,,,,,,,,,,
173,0,,html-keyboard-response,173,621190,0.0-7.4-3.4,vxh85b8d0la,2022-09-19 15:59:02.119,62fce6aced330768368997e8,1,72,74,28,19,43,female,,,"<p style=""font-size:50px"">You win!
+10 points this round!</p>",,,,,,,,,,,,,,,,,,,,,,,,,,,,
174,0,,html-keyboard-response,174,621697,0.0-7.4-4.4,vxh85b8d0la,2022-09-19 15:59:02.119,62fce6aced330768368997e8,1,72,74,28,19,43,female,,,,,,1.0,choice,4.0,B,D,black,black,stars,moons,D,B,D,black,stars,1468.8000000119,0.0,0.0,0,right,1087.3000000119,1.0,0.0,1.0,,,
175,0,,html-keyboard-response,175,623203,0.0-7.5-0.5,vxh85b8d0la,2022-09-19 15:59:02.119,62fce6aced330768368997e8,1,72,74,28,19,43,female,1500.4000000358,,"
  <table>
  <tr height=300>
    <td width=300 height=300><img src=""static/images/cards/stack_of_red_stars.svg"" width=""175px"" height=""250px""></img></td>
    <td width=300 height=300><img src=""static/images/cards/stack_of_black_stars.svg"" width=""175px"" height=""250px""></img></td>
  </tr>
  <tr height=200>
    <td width=300><img src=""static/images/keys/w.svg"" width=""35%"" height=""75%""></img></td>
    <td width=300><img src=""static/images/keys/o.svg"" width=""35%"" height=""75%""></img></td>
  </tr>
</table>
  ",87.0,1.0,,,,,,,,,,,,,,,,,,,,,,,,,,
176,0,,html-keyboard-response,176,624391,0.0-7.5-1.5,vxh85b8d0la,2022-09-19 15:59:02.119,62fce6aced330768368997e8,1,72,74,28,19,43,female,673.1999999881,,"
  <table>
  <tr height=300>
    <td width=300 height=300><img src=""static/images/cards/back_of_red_stars.svg"" width=""175px"" height=""250px""></img></td>
    <td width=300 height=300><img src=""static/images/cards/back_of_red_stars.svg"" width=""175px"" height=""250px""></img></td>
  </tr>
  <tr height=200>
    <td width=300><img src=""static/images/keys/z.svg"" width=""35%"" height=""75%""></img></td>
    <td width=300><img src=""static/images/keys/m.svg"" width=""35%"" height=""75%""></img></td>
  </tr>
</table>
  ",77.0,1.0,,,,,,,,,,,,,,,,,,,,,,,,,,
177,0,,html-keyboard-response,177,625909,0.0-7.5-2.5,vxh85b8d0la,2022-09-19 15:59:02.119,62fce6aced330768368997e8,1,72,74,28,19,43,female,,,"
  <table>
  <tr height=300>
    <td width=300 height=300><img src=""static/images/cards/back_of_red_stars.svg"" width=""175px"" height=""250px""></img></td>
    <td width=300 height=300><img src=""static/images/cards/8_of_red_stars.svg"" width=""175px"" height=""250px""></img></td>
  </tr>
  <tr height=200>
    <td width=300><img src=""static/images/keys/z.svg"" width=""35%"" height=""75%""></img></td>
    <td width=300><img src=""static/images/keys/m.svg"" width=""35%"" height=""75%""></img></td>
  </tr>
</table>
  ",,,,,,,,,,,,,,,,,,,,,,,,,,,,
178,0,,html-keyboard-response,178,627439,0.0-7.5-3.5,vxh85b8d0la,2022-09-19 15:59:02.119,62fce6aced330768368997e8,1,72,74,28,19,43,female,,,"<p style=""font-size:50px"">You win!
+10 points this round!</p>",,,,,,,,,,,,,,,,,,,,,,,,,,,,
179,0,,html-keyboard-response,179,627946,0.0-7.5-4.5,vxh85b8d0la,2022-09-19 15:59:02.119,62fce6aced330768368997e8,1,72,74,28,19,43,female,,,,,,1.0,choice,5.0,C,D,red,black,stars,stars,C,D,C,red,stars,1500.4000000358,1.0,0.0,NA,right,673.1999999881,8.0,1.0,1.0,,,
180,0,,html-keyboard-response,180,628875,0.0-7.6-0.6,vxh85b8d0la,2022-09-19 15:59:02.119,62fce6aced330768368997e8,1,72,74,28,19,43,female,918.0,,"
  <table>
  <tr height=300>
    <td width=300 height=300><img src=""static/images/cards/stack_of_black_moons.svg"" width=""175px"" height=""250px""></img></td>
    <td width=300 height=300><img src=""static/images/cards/stack_of_red_moons.svg"" width=""175px"" height=""250px""></img></td>
  </tr>
  <tr height=200>
    <td width=300><img src=""static/images/keys/w.svg"" width=""35%"" height=""75%""></img></td>
    <td width=300><img src=""static/images/keys/o.svg"" width=""35%"" height=""75%""></img></td>
  </tr>
</table>
  ",79.0,1.0,,,,,,,,,,,,,,,,,,,,,,,,,,
181,0,,html-keyboard-response,181,630247,0.0-7.6-1.6,vxh85b8d0la,2022-09-19 15:59:02.119,62fce6aced330768368997e8,1,72,74,28,19,43,female,849.5999999642,,"
  <table>
  <tr height=300>
    <td width=300 height=300><img src=""static/images/cards/back_of_red_moons.svg"" width=""175px"" height=""250px""></img></td>
    <td width=300 height=300><img src=""static/images/cards/back_of_red_moons.svg"" width=""175px"" height=""250px""></img></td>
  </tr>
  <tr height=200>
    <td width=300><img src=""static/images/keys/z.svg"" width=""35%"" height=""75%""></img></td>
    <td width=300><img src=""static/images/keys/m.svg"" width=""35%"" height=""75%""></img></td>
  </tr>
</table>
  ",90.0,1.0,,,,,,,,,,,,,,,,,,,,,,,,,,
182,0,,html-keyboard-response,182,631761,0.0-7.6-2.6,vxh85b8d0la,2022-09-19 15:59:02.119,62fce6aced330768368997e8,1,72,74,28,19,43,female,,,"
  <table>
  <tr height=300>
    <td width=300 height=300><img src=""static/images/cards/4_of_red_moons.svg"" width=""175px"" height=""250px""></img></td>
    <td width=300 height=300><img src=""static/images/cards/back_of_red_moons.svg"" width=""175px"" height=""250px""></img></td>
  </tr>
  <tr height=200>
    <td width=300><img src=""static/images/keys/z.svg"" width=""35%"" height=""75%""></img></td>
    <td width=300><img src=""static/images/keys/m.svg"" width=""35%"" height=""75%""></img></td>
  </tr>
</table>
  ",,,,,,,,,,,,,,,,,,,,,,,,,,,,
183,0,,html-keyboard-response,183,633279,0.0-7.6-3.6,vxh85b8d0la,2022-09-19 15:59:02.119,62fce6aced330768368997e8,1,72,74,28,19,43,female,,,"<p style=""font-size:50px"">You Lose!
No points this round.</p>",,,,,,,,,,,,,,,,,,,,,,,,,,,,
184,0,,html-keyboard-response,184,633799,0.0-7.6-4.6,vxh85b8d0la,2022-09-19 15:59:02.119,62fce6aced330768368997e8,1,72,74,28,19,43,female,,,,,,1.0,choice,6.0,A,B,black,red,moons,moons,B,A,A,red,moons,918.0,1.0,1.0,NA,left,849.5999999642,4.0,0.0,0.0,,,
185,0,,html-keyboard-response,185,634589,0.0-7.7-0.7,vxh85b8d0la,2022-09-19 15:59:02.119,62fce6aced330768368997e8,1,72,74,28,19,43,female,780.5,,"
  <table>
  <tr height=300>
    <td width=300 height=300><img src=""static/images/cards/stack_of_black_moons.svg"" width=""175px"" height=""250px""></img></td>
    <td width=300 height=300><img src=""static/images/cards/stack_of_red_moons.svg"" width=""175px"" height=""250px""></img></td>
  </tr>
  <tr height=200>
    <td width=300><img src=""static/images/keys/w.svg"" width=""35%"" height=""75%""></img></td>
    <td width=300><img src=""static/images/keys/o.svg"" width=""35%"" height=""75%""></img></td>
  </tr>
</table>
  ",79.0,1.0,,,,,,,,,,,,,,,,,,,,,,,,,,
186,0,,html-keyboard-response,186,635699,0.0-7.7-1.7,vxh85b8d0la,2022-09-19 15:59:02.119,62fce6aced330768368997e8,1,72,74,28,19,43,female,597.8999999762,,"
  <table>
  <tr height=300>
    <td width=300 height=300><img src=""static/images/cards/back_of_red_moons.svg"" width=""175px"" height=""250px""></img></td>
    <td width=300 height=300><img src=""static/images/cards/back_of_red_moons.svg"" width=""175px"" height=""250px""></img></td>
  </tr>
  <tr height=200>
    <td width=300><img src=""static/images/keys/z.svg"" width=""35%"" height=""75%""></img></td>
    <td width=300><img src=""static/images/keys/m.svg"" width=""35%"" height=""75%""></img></td>
  </tr>
</table>
  ",77.0,1.0,,,,,,,,,,,,,,,,,,,,,,,,,,
187,0,,html-keyboard-response,187,637212,0.0-7.7-2.7,vxh85b8d0la,2022-09-19 15:59:02.119,62fce6aced330768368997e8,1,72,74,28,19,43,female,,,"
  <table>
  <tr height=300>
    <td width=300 height=300><img src=""static/images/cards/back_of_red_moons.svg"" width=""175px"" height=""250px""></img></td>
    <td width=300 height=300><img src=""static/images/cards/1_of_red_moons.svg"" width=""175px"" height=""250px""></img></td>
  </tr>
  <tr height=200>
    <td width=300><img src=""static/images/keys/z.svg"" width=""35%"" height=""75%""></img></td>
    <td width=300><img src=""static/images/keys/m.svg"" width=""35%"" height=""75%""></img></td>
  </tr>
</table>
  ",,,,,,,,,,,,,,,,,,,,,,,,,,,,
188,0,,html-keyboard-response,188,638743,0.0-7.7-3.7,vxh85b8d0la,2022-09-19 15:59:02.119,62fce6aced330768368997e8,1,72,74,28,19,43,female,,,"<p style=""font-size:50px"">You Lose!
No points this round.</p>",,,,,,,,,,,,,,,,,,,,,,,,,,,,
189,0,,html-keyboard-response,189,639266,0.0-7.7-4.7,vxh85b8d0la,2022-09-19 15:59:02.119,62fce6aced330768368997e8,1,72,74,28,19,43,female,,,,,,1.0,choice,7.0,A,B,black,red,moons,moons,B,A,A,red,moons,780.5,1.0,1.0,NA,right,597.8999999762,1.0,0.0,0.0,,,
190,0,,html-keyboard-response,190,640715,0.0-7.8-0.8,vxh85b8d0la,2022-09-19 15:59:02.119,62fce6aced330768368997e8,1,72,74,28,19,43,female,1437.1999999881,,"
  <table>
  <tr height=300>
    <td width=300 height=300><img src=""static/images/cards/stack_of_red_moons.svg"" width=""175px"" height=""250px""></img></td>
    <td width=300 height=300><img src=""static/images/cards/stack_of_red_stars.svg"" width=""175px"" height=""250px""></img></td>
  </tr>
  <tr height=200>
    <td width=300><img src=""static/images/keys/w.svg"" width=""35%"" height=""75%""></img></td>
    <td width=300><img src=""static/images/keys/o.svg"" width=""35%"" height=""75%""></img></td>
  </tr>
</table>
  ",79.0,1.0,,,,,,,,,,,,,,,,,,,,,,,,,,
191,0,,html-keyboard-response,191,642099,0.0-7.8-1.8,vxh85b8d0la,2022-09-19 15:59:02.119,62fce6aced330768368997e8,1,72,74,28,19,43,female,867.1999999881,,"
  <table>
  <tr height=300>
    <td width=300 height=300><img src=""static/images/cards/back_of_red_stars.svg"" width=""175px"" height=""250px""></img></td>
    <td width=300 height=300><img src=""static/images/cards/back_of_red_stars.svg"" width=""175px"" height=""250px""></img></td>
  </tr>
  <tr height=200>
    <td width=300><img src=""static/images/keys/z.svg"" width=""35%"" height=""75%""></img></td>
    <td width=300><img src=""static/images/keys/m.svg"" width=""35%"" height=""75%""></img></td>
  </tr>
</table>
  ",90.0,1.0,,,,,,,,,,,,,,,,,,,,,,,,,,
192,0,,html-keyboard-response,192,643630,0.0-7.8-2.8,vxh85b8d0la,2022-09-19 15:59:02.119,62fce6aced330768368997e8,1,72,74,28,19,43,female,,,"
  <table>
  <tr height=300>
    <td width=300 height=300><img src=""static/images/cards/9_of_red_stars.svg"" width=""175px"" height=""250px""></img></td>
    <td width=300 height=300><img src=""static/images/cards/back_of_red_stars.svg"" width=""175px"" height=""250px""></img></td>
  </tr>
  <tr height=200>
    <td width=300><img src=""static/images/keys/z.svg"" width=""35%"" height=""75%""></img></td>
    <td width=300><img src=""static/images/keys/m.svg"" width=""35%"" height=""75%""></img></td>
  </tr>
</table>
  ",,,,,,,,,,,,,,,,,,,,,,,,,,,,
193,0,,html-keyboard-response,193,645159,0.0-7.8-3.8,vxh85b8d0la,2022-09-19 15:59:02.119,62fce6aced330768368997e8,1,72,74,28,19,43,female,,,"<p style=""font-size:50px"">You Lose!
No points this round.</p>",,,,,,,,,,,,,,,,,,,,,,,,,,,,
194,0,,html-keyboard-response,194,645684,0.0-7.8-4.8,vxh85b8d0la,2022-09-19 15:59:02.119,62fce6aced330768368997e8,1,72,74,28,19,43,female,,,,,,1.0,choice,8.0,A,C,red,red,moons,stars,A,C,C,red,stars,1437.1999999881,1.0,0.0,NA,left,867.1999999881,9.0,1.0,0.0,,,
195,0,,html-keyboard-response,195,646900,0.0-7.9-0.9,vxh85b8d0la,2022-09-19 15:59:02.119,62fce6aced330768368997e8,1,72,74,28,19,43,female,1206.5,,"
  <table>
  <tr height=300>
    <td width=300 height=300><img src=""static/images/cards/stack_of_red_moons.svg"" width=""175px"" height=""250px""></img></td>
    <td width=300 height=300><img src=""static/images/cards/stack_of_black_moons.svg"" width=""175px"" height=""250px""></img></td>
  </tr>
  <tr height=200>
    <td width=300><img src=""static/images/keys/w.svg"" width=""35%"" height=""75%""></img></td>
    <td width=300><img src=""static/images/keys/o.svg"" width=""35%"" height=""75%""></img></td>
  </tr>
</table>
  ",87.0,1.0,,,,,,,,,,,,,,,,,,,,,,,,,,
196,0,,html-keyboard-response,196,648351,0.0-7.9-1.9,vxh85b8d0la,2022-09-19 15:59:02.119,62fce6aced330768368997e8,1,72,74,28,19,43,female,917.6000000238,,"
  <table>
  <tr height=300>
    <td width=300 height=300><img src=""static/images/cards/back_of_red_moons.svg"" width=""175px"" height=""250px""></img></td>
    <td width=300 height=300><img src=""static/images/cards/back_of_red_moons.svg"" width=""175px"" height=""250px""></img></td>
  </tr>
  <tr height=200>
    <td width=300><img src=""static/images/keys/z.svg"" width=""35%"" height=""75%""></img></td>
    <td width=300><img src=""static/images/keys/m.svg"" width=""35%"" height=""75%""></img></td>
  </tr>
</table>
  ",77.0,1.0,,,,,,,,,,,,,,,,,,,,,,,,,,
197,0,,html-keyboard-response,197,649860,0.0-7.9-2.9,vxh85b8d0la,2022-09-19 15:59:02.119,62fce6aced330768368997e8,1,72,74,28,19,43,female,,,"
  <table>
  <tr height=300>
    <td width=300 height=300><img src=""static/images/cards/back_of_red_moons.svg"" width=""175px"" height=""250px""></img></td>
    <td width=300 height=300><img src=""static/images/cards/10_of_red_moons.svg"" width=""175px"" height=""250px""></img></td>
  </tr>
  <tr height=200>
    <td width=300><img src=""static/images/keys/z.svg"" width=""35%"" height=""75%""></img></td>
    <td width=300><img src=""static/images/keys/m.svg"" width=""35%"" height=""75%""></img></td>
  </tr>
</table>
  ",,,,,,,,,,,,,,,,,,,,,,,,,,,,
198,0,,html-keyboard-response,198,651387,0.0-7.9-3.9,vxh85b8d0la,2022-09-19 15:59:02.119,62fce6aced330768368997e8,1,72,74,28,19,43,female,,,"<p style=""font-size:50px"">You win!
+10 points this round!</p>",,,,,,,,,,,,,,,,,,,,,,,,,,,,
199,0,,html-keyboard-response,199,651915,0.0-7.9-4.9,vxh85b8d0la,2022-09-19 15:59:02.119,62fce6aced330768368997e8,1,72,74,28,19,43,female,,,,,,1.0,choice,9.0,A,B,red,black,moons,moons,A,B,A,red,moons,1206.5,1.0,1.0,NA,right,917.6000000238,10.0,1.0,1.0,,,
200,0,,html-keyboard-response,200,652853,0.0-7.10-0.10,vxh85b8d0la,2022-09-19 15:59:02.119,62fce6aced330768368997e8,1,72,74,28,19,43,female,934.0,,"
  <table>
  <tr height=300>
    <td width=300 height=300><img src=""static/images/cards/stack_of_red_moons.svg"" width=""175px"" height=""250px""></img></td>
    <td width=300 height=300><img src=""static/images/cards/stack_of_black_moons.svg"" width=""175px"" height=""250px""></img></td>
  </tr>
  <tr height=200>
    <td width=300><img src=""static/images/keys/w.svg"" width=""35%"" height=""75%""></img></td>
    <td width=300><img src=""static/images/keys/o.svg"" width=""35%"" height=""75%""></img></td>
  </tr>
</table>
  ",87.0,1.0,,,,,,,,,,,,,,,,,,,,,,,,,,
201,0,,html-keyboard-response,201,654043,0.0-7.10-1.10,vxh85b8d0la,2022-09-19 15:59:02.119,62fce6aced330768368997e8,1,72,74,28,19,43,female,677.0,,"
  <table>
  <tr height=300>
    <td width=300 height=300><img src=""static/images/cards/back_of_red_moons.svg"" width=""175px"" height=""250px""></img></td>
    <td width=300 height=300><img src=""static/images/cards/back_of_red_moons.svg"" width=""175px"" height=""250px""></img></td>
  </tr>
  <tr height=200>
    <td width=300><img src=""static/images/keys/z.svg"" width=""35%"" height=""75%""></img></td>
    <td width=300><img src=""static/images/keys/m.svg"" width=""35%"" height=""75%""></img></td>
  </tr>
</table>
  ",77.0,1.0,,,,,,,,,,,,,,,,,,,,,,,,,,
202,0,,html-keyboard-response,202,655567,0.0-7.10-2.10,vxh85b8d0la,2022-09-19 15:59:02.119,62fce6aced330768368997e8,1,72,74,28,19,43,female,,,"
  <table>
  <tr height=300>
    <td width=300 height=300><img src=""static/images/cards/back_of_red_moons.svg"" width=""175px"" height=""250px""></img></td>
    <td width=300 height=300><img src=""static/images/cards/6_of_red_moons.svg"" width=""175px"" height=""250px""></img></td>
  </tr>
  <tr height=200>
    <td width=300><img src=""static/images/keys/z.svg"" width=""35%"" height=""75%""></img></td>
    <td width=300><img src=""static/images/keys/m.svg"" width=""35%"" height=""75%""></img></td>
  </tr>
</table>
  ",,,,,,,,,,,,,,,,,,,,,,,,,,,,
203,0,,html-keyboard-response,203,657097,0.0-7.10-3.10,vxh85b8d0la,2022-09-19 15:59:02.119,62fce6aced330768368997e8,1,72,74,28,19,43,female,,,"<p style=""font-size:50px"">You win!
+10 points this round!</p>",,,,,,,,,,,,,,,,,,,,,,,,,,,,
204,0,,html-keyboard-response,204,657615,0.0-7.10-4.10,vxh85b8d0la,2022-09-19 15:59:02.119,62fce6aced330768368997e8,1,72,74,28,19,43,female,,,,,,1.0,choice,10.0,A,B,red,black,moons,moons,A,B,A,red,moons,934.0,1.0,1.0,NA,right,677.0,6.0,1.0,1.0,,,
205,0,,html-keyboard-response,205,658569,0.0-7.11-0.11,vxh85b8d0la,2022-09-19 15:59:02.119,62fce6aced330768368997e8,1,72,74,28,19,43,female,948.8000000119,,"
  <table>
  <tr height=300>
    <td width=300 height=300><img src=""static/images/cards/stack_of_red_moons.svg"" width=""175px"" height=""250px""></img></td>
    <td width=300 height=300><img src=""static/images/cards/stack_of_red_stars.svg"" width=""175px"" height=""250px""></img></td>
  </tr>
  <tr height=200>
    <td width=300><img src=""static/images/keys/w.svg"" width=""35%"" height=""75%""></img></td>
    <td width=300><img src=""static/images/keys/o.svg"" width=""35%"" height=""75%""></img></td>
  </tr>
</table>
  ",79.0,1.0,,,,,,,,,,,,,,,,,,,,,,,,,,
206,0,,html-keyboard-response,206,660089,0.0-7.11-1.11,vxh85b8d0la,2022-09-19 15:59:02.119,62fce6aced330768368997e8,1,72,74,28,19,43,female,1003.1999999881,,"
  <table>
  <tr height=300>
    <td width=300 height=300><img src=""static/images/cards/back_of_red_stars.svg"" width=""175px"" height=""250px""></img></td>
    <td width=300 height=300><img src=""static/images/cards/back_of_red_stars.svg"" width=""175px"" height=""250px""></img></td>
  </tr>
  <tr height=200>
    <td width=300><img src=""static/images/keys/z.svg"" width=""35%"" height=""75%""></img></td>
    <td width=300><img src=""static/images/keys/m.svg"" width=""35%"" height=""75%""></img></td>
  </tr>
</table>
  ",90.0,1.0,,,,,,,,,,,,,,,,,,,,,,,,,,
207,0,,html-keyboard-response,207,661600,0.0-7.11-2.11,vxh85b8d0la,2022-09-19 15:59:02.119,62fce6aced330768368997e8,1,72,74,28,19,43,female,,,"
  <table>
  <tr height=300>
    <td width=300 height=300><img src=""static/images/cards/1_of_red_stars.svg"" width=""175px"" height=""250px""></img></td>
    <td width=300 height=300><img src=""static/images/cards/back_of_red_stars.svg"" width=""175px"" height=""250px""></img></td>
  </tr>
  <tr height=200>
    <td width=300><img src=""static/images/keys/z.svg"" width=""35%"" height=""75%""></img></td>
    <td width=300><img src=""static/images/keys/m.svg"" width=""35%"" height=""75%""></img></td>
  </tr>
</table>
  ",,,,,,,,,,,,,,,,,,,,,,,,,,,,
208,0,,html-keyboard-response,208,663128,0.0-7.11-3.11,vxh85b8d0la,2022-09-19 15:59:02.119,62fce6aced330768368997e8,1,72,74,28,19,43,female,,,"<p style=""font-size:50px"">You win!
+10 points this round!</p>",,,,,,,,,,,,,,,,,,,,,,,,,,,,
209,0,,html-keyboard-response,209,663650,0.0-7.11-4.11,vxh85b8d0la,2022-09-19 15:59:02.119,62fce6aced330768368997e8,1,72,74,28,19,43,female,,,,,,1.0,choice,11.0,A,C,red,red,moons,stars,A,C,C,red,stars,948.8000000119,1.0,0.0,NA,left,1003.1999999881,1.0,0.0,1.0,,,
210,0,,html-keyboard-response,210,664727,0.0-7.12-0.12,vxh85b8d0la,2022-09-19 15:59:02.119,62fce6aced330768368997e8,1,72,74,28,19,43,female,1067.5,,"
  <table>
  <tr height=300>
    <td width=300 height=300><img src=""static/images/cards/stack_of_red_moons.svg"" width=""175px"" height=""250px""></img></td>
    <td width=300 height=300><img src=""static/images/cards/stack_of_black_moons.svg"" width=""175px"" height=""250px""></img></td>
  </tr>
  <tr height=200>
    <td width=300><img src=""static/images/keys/w.svg"" width=""35%"" height=""75%""></img></td>
    <td width=300><img src=""static/images/keys/o.svg"" width=""35%"" height=""75%""></img></td>
  </tr>
</table>
  ",87.0,1.0,,,,,,,,,,,,,,,,,,,,,,,,,,
211,0,,html-keyboard-response,211,666029,0.0-7.12-1.12,vxh85b8d0la,2022-09-19 15:59:02.119,62fce6aced330768368997e8,1,72,74,28,19,43,female,765.1999999881,,"
  <table>
  <tr height=300>
    <td width=300 height=300><img src=""static/images/cards/back_of_red_moons.svg"" width=""175px"" height=""250px""></img></td>
    <td width=300 height=300><img src=""static/images/cards/back_of_red_moons.svg"" width=""175px"" height=""250px""></img></td>
  </tr>
  <tr height=200>
    <td width=300><img src=""static/images/keys/z.svg"" width=""35%"" height=""75%""></img></td>
    <td width=300><img src=""static/images/keys/m.svg"" width=""35%"" height=""75%""></img></td>
  </tr>
</table>
  ",77.0,1.0,,,,,,,,,,,,,,,,,,,,,,,,,,
212,0,,html-keyboard-response,212,667553,0.0-7.12-2.12,vxh85b8d0la,2022-09-19 15:59:02.119,62fce6aced330768368997e8,1,72,74,28,19,43,female,,,"
  <table>
  <tr height=300>
    <td width=300 height=300><img src=""static/images/cards/back_of_red_moons.svg"" width=""175px"" height=""250px""></img></td>
    <td width=300 height=300><img src=""static/images/cards/6_of_red_moons.svg"" width=""175px"" height=""250px""></img></td>
  </tr>
  <tr height=200>
    <td width=300><img src=""static/images/keys/z.svg"" width=""35%"" height=""75%""></img></td>
    <td width=300><img src=""static/images/keys/m.svg"" width=""35%"" height=""75%""></img></td>
  </tr>
</table>
  ",,,,,,,,,,,,,,,,,,,,,,,,,,,,
213,0,,html-keyboard-response,213,669077,0.0-7.12-3.12,vxh85b8d0la,2022-09-19 15:59:02.119,62fce6aced330768368997e8,1,72,74,28,19,43,female,,,"<p style=""font-size:50px"">You win!
+10 points this round!</p>",,,,,,,,,,,,,,,,,,,,,,,,,,,,
214,0,,html-keyboard-response,214,669600,0.0-7.12-4.12,vxh85b8d0la,2022-09-19 15:59:02.119,62fce6aced330768368997e8,1,72,74,28,19,43,female,,,,,,1.0,choice,12.0,A,B,red,black,moons,moons,A,B,A,red,moons,1067.5,1.0,1.0,NA,right,765.1999999881,6.0,1.0,1.0,,,
215,0,,html-keyboard-response,215,670955,0.0-7.13-0.13,vxh85b8d0la,2022-09-19 15:59:02.119,62fce6aced330768368997e8,1,72,74,28,19,43,female,1349.0,,"
  <table>
  <tr height=300>
    <td width=300 height=300><img src=""static/images/cards/stack_of_black_moons.svg"" width=""175px"" height=""250px""></img></td>
    <td width=300 height=300><img src=""static/images/cards/stack_of_black_stars.svg"" width=""175px"" height=""250px""></img></td>
  </tr>
  <tr height=200>
    <td width=300><img src=""static/images/keys/w.svg"" width=""35%"" height=""75%""></img></td>
    <td width=300><img src=""static/images/keys/o.svg"" width=""35%"" height=""75%""></img></td>
  </tr>
</table>
  ",87.0,1.0,,,,,,,,,,,,,,,,,,,,,,,,,,
216,0,,html-keyboard-response,216,672419,0.0-7.13-1.13,vxh85b8d0la,2022-09-19 15:59:02.119,62fce6aced330768368997e8,1,72,74,28,19,43,female,951.1000000238,,"
  <table>
  <tr height=300>
    <td width=300 height=300><img src=""static/images/cards/back_of_black_moons.svg"" width=""175px"" height=""250px""></img></td>
    <td width=300 height=300><img src=""static/images/cards/back_of_black_moons.svg"" width=""175px"" height=""250px""></img></td>
  </tr>
  <tr height=200>
    <td width=300></td>
    <td width=300><img src=""static/images/keys/m.svg"" width=""35%"" height=""75%""></img></td>
  </tr>
</table>
  ",77.0,1.0,,,,,,,,,,,,,,,,,,,,,,,,,,
217,0,,html-keyboard-response,217,673948,0.0-7.13-2.13,vxh85b8d0la,2022-09-19 15:59:02.119,62fce6aced330768368997e8,1,72,74,28,19,43,female,,,"
  <table>
  <tr height=300>
    <td width=300 height=300><img src=""static/images/cards/back_of_black_moons.svg"" width=""175px"" height=""250px""></img></td>
    <td width=300 height=300><img src=""static/images/cards/9_of_black_moons.svg"" width=""175px"" height=""250px""></img></td>
  </tr>
  <tr height=200>
    <td width=300></td>
    <td width=300><img src=""static/images/keys/m.svg"" width=""35%"" height=""75%""></img></td>
  </tr>
</table>
  ",,,,,,,,,,,,,,,,,,,,,,,,,,,,
218,0,,html-keyboard-response,218,675477,0.0-7.13-3.13,vxh85b8d0la,2022-09-19 15:59:02.119,62fce6aced330768368997e8,1,72,74,28,19,43,female,,,"<p style=""font-size:50px"">You win!
+10 points this round!</p>",,,,,,,,,,,,,,,,,,,,,,,,,,,,
219,0,,html-keyboard-response,219,675999,0.0-7.13-4.13,vxh85b8d0la,2022-09-19 15:59:02.119,62fce6aced330768368997e8,1,72,74,28,19,43,female,,,,,,1.0,choice,13.0,B,D,black,black,moons,stars,B,D,B,black,moons,1349.0,0.0,1.0,0,right,951.1000000238,9.0,1.0,1.0,,,
220,0,,html-keyboard-response,220,677314,0.0-7.14-0.14,vxh85b8d0la,2022-09-19 15:59:02.119,62fce6aced330768368997e8,1,72,74,28,19,43,female,1311.5,,"
  <table>
  <tr height=300>
    <td width=300 height=300><img src=""static/images/cards/stack_of_red_stars.svg"" width=""175px"" height=""250px""></img></td>
    <td width=300 height=300><img src=""static/images/cards/stack_of_black_moons.svg"" width=""175px"" height=""250px""></img></td>
  </tr>
  <tr height=200>
    <td width=300><img src=""static/images/keys/w.svg"" width=""35%"" height=""75%""></img></td>
    <td width=300><img src=""static/images/keys/o.svg"" width=""35%"" height=""75%""></img></td>
  </tr>
</table>
  ",79.0,1.0,,,,,,,,,,,,,,,,,,,,,,,,,,
221,0,,html-keyboard-response,221,678619,0.0-7.14-1.14,vxh85b8d0la,2022-09-19 15:59:02.119,62fce6aced330768368997e8,1,72,74,28,19,43,female,789.8000000119,,"
  <table>
  <tr height=300>
    <td width=300 height=300><img src=""static/images/cards/back_of_black_moons.svg"" width=""175px"" height=""250px""></img></td>
    <td width=300 height=300><img src=""static/images/cards/back_of_black_moons.svg"" width=""175px"" height=""250px""></img></td>
  </tr>
  <tr height=200>
    <td width=300><img src=""static/images/keys/z.svg"" width=""35%"" height=""75%""></img></td>
    <td width=300></td>
  </tr>
</table>
  ",90.0,1.0,,,,,,,,,,,,,,,,,,,,,,,,,,
222,0,,html-keyboard-response,222,680142,0.0-7.14-2.14,vxh85b8d0la,2022-09-19 15:59:02.119,62fce6aced330768368997e8,1,72,74,28,19,43,female,,,"
  <table>
  <tr height=300>
    <td width=300 height=300><img src=""static/images/cards/10_of_black_moons.svg"" width=""175px"" height=""250px""></img></td>
    <td width=300 height=300><img src=""static/images/cards/back_of_black_moons.svg"" width=""175px"" height=""250px""></img></td>
  </tr>
  <tr height=200>
    <td width=300><img src=""static/images/keys/z.svg"" width=""35%"" height=""75%""></img></td>
    <td width=300></td>
  </tr>
</table>
  ",,,,,,,,,,,,,,,,,,,,,,,,,,,,
223,0,,html-keyboard-response,223,681662,0.0-7.14-3.14,vxh85b8d0la,2022-09-19 15:59:02.119,62fce6aced330768368997e8,1,72,74,28,19,43,female,,,"<p style=""font-size:50px"">You win!
+10 points this round!</p>",,,,,,,,,,,,,,,,,,,,,,,,,,,,
224,0,,html-keyboard-response,224,682200,0.0-7.14-4.14,vxh85b8d0la,2022-09-19 15:59:02.119,62fce6aced330768368997e8,1,72,74,28,19,43,female,,,,,,1.0,choice,14.0,B,C,red,black,stars,moons,C,B,B,black,moons,1311.5,0.0,1.0,1,left,789.8000000119,10.0,1.0,1.0,,,
225,0,,html-keyboard-response,225,683311,0.0-7.15-0.15,vxh85b8d0la,2022-09-19 15:59:02.119,62fce6aced330768368997e8,1,72,74,28,19,43,female,1106.0999999642,,"
  <table>
  <tr height=300>
    <td width=300 height=300><img src=""static/images/cards/stack_of_red_moons.svg"" width=""175px"" height=""250px""></img></td>
    <td width=300 height=300><img src=""static/images/cards/stack_of_black_stars.svg"" width=""175px"" height=""250px""></img></td>
  </tr>
  <tr height=200>
    <td width=300><img src=""static/images/keys/w.svg"" width=""35%"" height=""75%""></img></td>
    <td width=300><img src=""static/images/keys/o.svg"" width=""35%"" height=""75%""></img></td>
  </tr>
</table>
  ",87.0,1.0,,,,,,,,,,,,,,,,,,,,,,,,,,
226,0,,html-keyboard-response,226,684718,0.0-7.15-1.15,vxh85b8d0la,2022-09-19 15:59:02.119,62fce6aced330768368997e8,1,72,74,28,19,43,female,885.1000000238,,"
  <table>
  <tr height=300>
    <td width=300 height=300><img src=""static/images/cards/back_of_red_moons.svg"" width=""175px"" height=""250px""></img></td>
    <td width=300 height=300><img src=""static/images/cards/back_of_red_moons.svg"" width=""175px"" height=""250px""></img></td>
  </tr>
  <tr height=200>
    <td width=300><img src=""static/images/keys/z.svg"" width=""35%"" height=""75%""></img></td>
    <td width=300><img src=""static/images/keys/m.svg"" width=""35%"" height=""75%""></img></td>
  </tr>
</table>
  ",77.0,1.0,,,,,,,,,,,,,,,,,,,,,,,,,,
227,0,,html-keyboard-response,227,686227,0.0-7.15-2.15,vxh85b8d0la,2022-09-19 15:59:02.119,62fce6aced330768368997e8,1,72,74,28,19,43,female,,,"
  <table>
  <tr height=300>
    <td width=300 height=300><img src=""static/images/cards/back_of_red_moons.svg"" width=""175px"" height=""250px""></img></td>
    <td width=300 height=300><img src=""static/images/cards/8_of_red_moons.svg"" width=""175px"" height=""250px""></img></td>
  </tr>
  <tr height=200>
    <td width=300><img src=""static/images/keys/z.svg"" width=""35%"" height=""75%""></img></td>
    <td width=300><img src=""static/images/keys/m.svg"" width=""35%"" height=""75%""></img></td>
  </tr>
</table>
  ",,,,,,,,,,,,,,,,,,,,,,,,,,,,
228,0,,html-keyboard-response,228,687745,0.0-7.15-3.15,vxh85b8d0la,2022-09-19 15:59:02.119,62fce6aced330768368997e8,1,72,74,28,19,43,female,,,"<p style=""font-size:50px"">You win!
+10 points this round!</p>",,,,,,,,,,,,,,,,,,,,,,,,,,,,
229,0,,html-keyboard-response,229,688265,0.0-7.15-4.15,vxh85b8d0la,2022-09-19 15:59:02.119,62fce6aced330768368997e8,1,72,74,28,19,43,female,,,,,,1.0,choice,15.0,A,D,red,black,moons,stars,A,D,A,red,moons,1106.0999999642,1.0,1.0,NA,right,885.1000000238,8.0,1.0,1.0,,,
230,0,,html-keyboard-response,230,689697,0.0-7.16-0.16,vxh85b8d0la,2022-09-19 15:59:02.119,62fce6aced330768368997e8,1,72,74,28,19,43,female,1426.3000000119,,"
  <table>
  <tr height=300>
    <td width=300 height=300><img src=""static/images/cards/stack_of_black_bolts.svg"" width=""175px"" height=""250px""></img></td>
    <td width=300 height=300><img src=""static/images/cards/stack_of_black_moons.svg"" width=""175px"" height=""250px""></img></td>
  </tr>
  <tr height=200>
    <td width=300><img src=""static/images/keys/w.svg"" width=""35%"" height=""75%""></img></td>
    <td width=300><img src=""static/images/keys/o.svg"" width=""35%"" height=""75%""></img></td>
  </tr>
</table>
  ",87.0,1.0,,,,,,,,,,,,,,,,,,,,,,,,,,
231,0,,html-keyboard-response,231,690861,0.0-7.16-1.16,vxh85b8d0la,2022-09-19 15:59:02.119,62fce6aced330768368997e8,1,72,74,28,19,43,female,644.5999999642,,"
  <table>
  <tr height=300>
    <td width=300 height=300><img src=""static/images/cards/back_of_black_bolts.svg"" width=""175px"" height=""250px""></img></td>
    <td width=300 height=300><img src=""static/images/cards/back_of_black_bolts.svg"" width=""175px"" height=""250px""></img></td>
  </tr>
  <tr height=200>
    <td width=300></td>
    <td width=300><img src=""static/images/keys/m.svg"" width=""35%"" height=""75%""></img></td>
  </tr>
</table>
  ",77.0,1.0,,,,,,,,,,,,,,,,,,,,,,,,,,
232,0,,html-keyboard-response,232,692378,0.0-7.16-2.16,vxh85b8d0la,2022-09-19 15:59:02.119,62fce6aced330768368997e8,1,72,74,28,19,43,female,,,"
  <table>
