,index,success,trial_type,trial_index,time_elapsed,internal_node_id,subject,date,prol_id,ctbl,sense_of_control_A,sense_of_control_B,sense_of_control_C,sense_of_control_D,age,gender,rt,url,stimulus,key_press,npress,is_data_trial,phase,trial,deck1,deck2,col1,col2,sym1,sym2,deck_l,deck_r,chosen_deck,chosen_col,chosen_sym,deck_rt,choose_choice,mutual_info,hidden_key,chosen_card,card_rt,player_num,win_card,outcome,mock_rating,response,responses
0,0,1.0,fullscreen,0,4284,0.0-0.0,dx9tn8b21gk,2022-09-19 14:52:41.470,5ea045b29cb1f005b19a4b32,3,29,48,60,40,48,male,,,,,,,,,,,,,,,,,,,,,,,,,,,,,,,
1,0,,external-html,1,44344,0.0-1.0,dx9tn8b21gk,2022-09-19 14:52:41.470,5ea045b29cb1f005b19a4b32,3,29,48,60,40,48,male,39775.8000000119,static/js/sub/consent.html,,,,,,,,,,,,,,,,,,,,,,,,,,,,,
2,0,,call-function,2,44346,0.0-2.0,dx9tn8b21gk,2022-09-19 14:52:41.470,5ea045b29cb1f005b19a4b32,3,29,48,60,40,48,male,,,,,,,,,,,,,,,,,,,,,,,,,,,,,,,
3,0,,image-keyboard-response,3,54697,0.0-3.0-0.0,dx9tn8b21gk,2022-09-19 14:52:41.470,5ea045b29cb1f005b19a4b32,3,29,48,60,40,48,male,10347.2999999523,,static/images/instructions_CB_3/Slide1.png,39.0,,,,,,,,,,,,,,,,,,,,,,,,,,,
4,0,,image-keyboard-response,4,72721,0.0-3.1-0.1,dx9tn8b21gk,2022-09-19 14:52:41.470,5ea045b29cb1f005b19a4b32,3,29,48,60,40,48,male,18020.1000000238,,static/images/instructions_CB_3/Slide2.png,39.0,,,,,,,,,,,,,,,,,,,,,,,,,,,
5,0,,image-keyboard-response,5,75875,0.0-3.2-0.2,dx9tn8b21gk,2022-09-19 14:52:41.470,5ea045b29cb1f005b19a4b32,3,29,48,60,40,48,male,3151.8000000119,,static/images/instructions_CB_3/Slide3.png,39.0,,,,,,,,,,,,,,,,,,,,,,,,,,,
6,0,,image-keyboard-response,6,80036,0.0-3.3-0.3,dx9tn8b21gk,2022-09-19 14:52:41.470,5ea045b29cb1f005b19a4b32,3,29,48,60,40,48,male,4159.1000000238,,static/images/instructions_CB_3/Slide4.png,39.0,,,,,,,,,,,,,,,,,,,,,,,,,,,
7,0,,image-keyboard-response,7,91162,0.0-3.4-0.4,dx9tn8b21gk,2022-09-19 14:52:41.470,5ea045b29cb1f005b19a4b32,3,29,48,60,40,48,male,11124.5,,static/images/instructions_CB_3/Slide5.png,39.0,,,,,,,,,,,,,,,,,,,,,,,,,,,
8,0,,image-keyboard-response,8,93988,0.0-3.5-0.5,dx9tn8b21gk,2022-09-19 14:52:41.470,5ea045b29cb1f005b19a4b32,3,29,48,60,40,48,male,2823.6999999881,,static/images/instructions_CB_3/Slide6.png,39.0,,,,,,,,,,,,,,,,,,,,,,,,,,,
9,0,,image-keyboard-response,9,98638,0.0-3.6-0.6,dx9tn8b21gk,2022-09-19 14:52:41.470,5ea045b29cb1f005b19a4b32,3,29,48,60,40,48,male,4647.3999999762,,static/images/instructions_CB_3/Slide7.png,39.0,,,,,,,,,,,,,,,,,,,,,,,,,,,
10,0,,image-keyboard-response,10,124916,0.0-3.7-0.7,dx9tn8b21gk,2022-09-19 14:52:41.470,5ea045b29cb1f005b19a4b32,3,29,48,60,40,48,male,26276.7000000477,,static/images/instructions_CB_3/Slide8.png,39.0,,,,,,,,,,,,,,,,,,,,,,,,,,,
11,0,,image-keyboard-response,11,134591,0.0-3.8-0.8,dx9tn8b21gk,2022-09-19 14:52:41.470,5ea045b29cb1f005b19a4b32,3,29,48,60,40,48,male,9673.0,,static/images/instructions_CB_3/Slide9.png,39.0,,,,,,,,,,,,,,,,,,,,,,,,,,,
12,0,,image-keyboard-response,12,143108,0.0-3.9-0.9,dx9tn8b21gk,2022-09-19 14:52:41.470,5ea045b29cb1f005b19a4b32,3,29,48,60,40,48,male,8515.1000000238,,static/images/instructions_CB_3/Slide10.png,39.0,,,,,,,,,,,,,,,,,,,,,,,,,,,
13,0,,image-keyboard-response,13,150922,0.0-3.10-0.10,dx9tn8b21gk,2022-09-19 14:52:41.470,5ea045b29cb1f005b19a4b32,3,29,48,60,40,48,male,7810.8999999762,,static/images/instructions_CB_3/Slide11.png,39.0,,,,,,,,,,,,,,,,,,,,,,,,,,,
14,0,,image-keyboard-response,14,158106,0.0-3.11-0.11,dx9tn8b21gk,2022-09-19 14:52:41.470,5ea045b29cb1f005b19a4b32,3,29,48,60,40,48,male,7182.5,,static/images/instructions_CB_3/Slide12.png,39.0,,,,,,,,,,,,,,,,,,,,,,,,,,,
15,0,,image-keyboard-response,15,167630,0.0-3.12-0.12,dx9tn8b21gk,2022-09-19 14:52:41.470,5ea045b29cb1f005b19a4b32,3,29,48,60,40,48,male,9521.1999999881,,static/images/instructions_CB_3/Slide13.png,39.0,,,,,,,,,,,,,,,,,,,,,,,,,,,
16,0,,image-keyboard-response,16,170590,0.0-3.13-0.13,dx9tn8b21gk,2022-09-19 14:52:41.470,5ea045b29cb1f005b19a4b32,3,29,48,60,40,48,male,2957.8000000119,,static/images/instructions_CB_3/Slide14.png,39.0,,,,,,,,,,,,,,,,,,,,,,,,,,,
17,0,,image-keyboard-response,17,177051,0.0-3.14-0.14,dx9tn8b21gk,2022-09-19 14:52:41.470,5ea045b29cb1f005b19a4b32,3,29,48,60,40,48,male,6459.6999999881,,static/images/instructions_CB_3/Slide15.png,39.0,,,,,,,,,,,,,,,,,,,,,,,,,,,
18,0,,image-keyboard-response,18,181221,0.0-3.15-0.15,dx9tn8b21gk,2022-09-19 14:52:41.470,5ea045b29cb1f005b19a4b32,3,29,48,60,40,48,male,4168.2000000477,,static/images/instructions_CB_3/Slide16.png,39.0,,,,,,,,,,,,,,,,,,,,,,,,,,,
19,0,,image-keyboard-response,19,188911,0.0-3.16-0.16,dx9tn8b21gk,2022-09-19 14:52:41.470,5ea045b29cb1f005b19a4b32,3,29,48,60,40,48,male,7686.9000000358,,static/images/instructions_CB_3/Slide17.png,39.0,,,,,,,,,,,,,,,,,,,,,,,,,,,
20,0,,image-keyboard-response,20,206245,0.0-3.17-0.17,dx9tn8b21gk,2022-09-19 14:52:41.470,5ea045b29cb1f005b19a4b32,3,29,48,60,40,48,male,17332.2999999523,,static/images/instructions_CB_3/Slide18.png,39.0,,,,,,,,,,,,,,,,,,,,,,,,,,,
21,0,,image-keyboard-response,21,209640,0.0-3.18-0.18,dx9tn8b21gk,2022-09-19 14:52:41.470,5ea045b29cb1f005b19a4b32,3,29,48,60,40,48,male,3393.5,,static/images/instructions_CB_3/Slide19.png,39.0,,,,,,,,,,,,,,,,,,,,,,,,,,,
22,0,,html-keyboard-response,22,211146,0.0-4.0-0.0,dx9tn8b21gk,2022-09-19 14:52:41.470,5ea045b29cb1f005b19a4b32,3,29,48,60,40,48,male,,,"<img src=""static/images/cards/stack_of_black_moons.svg"" width=""175px"" height=""250px""></img>",,,,,,,,,,,,,,,,,,,,,,,,,,,,
23,0,,html-keyboard-response,23,213282,0.0-4.0-1.0,dx9tn8b21gk,2022-09-19 14:52:41.470,5ea045b29cb1f005b19a4b32,3,29,48,60,40,48,male,1611.1000000238,,"
  <table>
  <tr height=300>
    <td width=300 height=300><img src=""static/images/cards/back_of_black_moons.svg"" width=""175px"" height=""250px""></img></td>
    <td width=300 height=300><img src=""static/images/cards/back_of_black_moons.svg"" width=""175px"" height=""250px""></img></td>
  </tr>
  <tr height=200>
    <td width=300><img src=""static/images/keys/z.svg"" width=""35%"" height=""75%""></img></td>
    <td width=300><img src=""static/images/keys/m.svg"" width=""35%"" height=""75%""></img></td>
  </tr>
</table>
  ",77.0,1.0,,,,,,,,,,,,,,,,,,,,,,,,,,
24,0,,html-keyboard-response,24,214805,0.0-4.0-2.0,dx9tn8b21gk,2022-09-19 14:52:41.470,5ea045b29cb1f005b19a4b32,3,29,48,60,40,48,male,,,"
  <table>
  <tr height=300>
    <td width=300 height=300><img src=""static/images/cards/back_of_black_moons.svg"" width=""175px"" height=""250px""></img></td>
    <td width=300 height=300><img src=""static/images/cards/8_of_black_moons.svg"" width=""175px"" height=""250px""></img></td>
  </tr>
  <tr height=200>
    <td width=300><img src=""static/images/keys/z.svg"" width=""35%"" height=""75%""></img></td>
    <td width=300><img src=""static/images/keys/m.svg"" width=""35%"" height=""75%""></img></td>
  </tr>
</table>
  ",,,,,,,,,,,,,,,,,,,,,,,,,,,,
25,0,,html-keyboard-response,25,216334,0.0-4.0-3.0,dx9tn8b21gk,2022-09-19 14:52:41.470,5ea045b29cb1f005b19a4b32,3,29,48,60,40,48,male,,,"<p style=""font-size:50px"">You win!
+10 points this round!</p>",,,,,,,,,,,,,,,,,,,,,,,,,,,,
26,0,,html-keyboard-response,26,216863,0.0-4.0-4.0,dx9tn8b21gk,2022-09-19 14:52:41.470,5ea045b29cb1f005b19a4b32,3,29,48,60,40,48,male,,,,,,1.0,learning,0.0,A,,black,,moons,,,,A,black,moons,,1.0,1.0,NA,right,1611.1000000238,8.0,1.0,1.0,,,
27,0,,html-keyboard-response,27,218369,0.0-4.1-0.1,dx9tn8b21gk,2022-09-19 14:52:41.470,5ea045b29cb1f005b19a4b32,3,29,48,60,40,48,male,,,"<img src=""static/images/cards/stack_of_red_moons.svg"" width=""175px"" height=""250px""></img>",,,,,,,,,,,,,,,,,,,,,,,,,,,,
28,0,,html-keyboard-response,28,219749,0.0-4.1-1.1,dx9tn8b21gk,2022-09-19 14:52:41.470,5ea045b29cb1f005b19a4b32,3,29,48,60,40,48,male,856.0,,"
  <table>
  <tr height=300>
    <td width=300 height=300><img src=""static/images/cards/back_of_red_moons.svg"" width=""175px"" height=""250px""></img></td>
    <td width=300 height=300><img src=""static/images/cards/back_of_red_moons.svg"" width=""175px"" height=""250px""></img></td>
  </tr>
  <tr height=200>
    <td width=300><img src=""static/images/keys/z.svg"" width=""35%"" height=""75%""></img></td>
    <td width=300></td>
  </tr>
</table>
  ",90.0,1.0,,,,,,,,,,,,,,,,,,,,,,,,,,
29,0,,html-keyboard-response,29,221271,0.0-4.1-2.1,dx9tn8b21gk,2022-09-19 14:52:41.470,5ea045b29cb1f005b19a4b32,3,29,48,60,40,48,male,,,"
  <table>
  <tr height=300>
    <td width=300 height=300><img src=""static/images/cards/7_of_red_moons.svg"" width=""175px"" height=""250px""></img></td>
    <td width=300 height=300><img src=""static/images/cards/back_of_red_moons.svg"" width=""175px"" height=""250px""></img></td>
  </tr>
  <tr height=200>
    <td width=300><img src=""static/images/keys/z.svg"" width=""35%"" height=""75%""></img></td>
    <td width=300></td>
  </tr>
</table>
  ",,,,,,,,,,,,,,,,,,,,,,,,,,,,
30,0,,html-keyboard-response,30,222796,0.0-4.1-3.1,dx9tn8b21gk,2022-09-19 14:52:41.470,5ea045b29cb1f005b19a4b32,3,29,48,60,40,48,male,,,"<p style=""font-size:50px"">You win!
+10 points this round!</p>",,,,,,,,,,,,,,,,,,,,,,,,,,,,
31,0,,html-keyboard-response,31,223318,0.0-4.1-4.1,dx9tn8b21gk,2022-09-19 14:52:41.470,5ea045b29cb1f005b19a4b32,3,29,48,60,40,48,male,,,,,,1.0,learning,1.0,B,,red,,moons,,,,B,red,moons,,0.0,1.0,1,left,856.0,7.0,1.0,1.0,,,
32,0,,html-keyboard-response,32,224832,0.0-4.2-0.2,dx9tn8b21gk,2022-09-19 14:52:41.470,5ea045b29cb1f005b19a4b32,3,29,48,60,40,48,male,,,"<img src=""static/images/cards/stack_of_black_stars.svg"" width=""175px"" height=""250px""></img>",,,,,,,,,,,,,,,,,,,,,,,,,,,,
33,0,,html-keyboard-response,33,226183,0.0-4.2-1.2,dx9tn8b21gk,2022-09-19 14:52:41.470,5ea045b29cb1f005b19a4b32,3,29,48,60,40,48,male,846.5,,"
  <table>
  <tr height=300>
    <td width=300 height=300><img src=""static/images/cards/back_of_black_stars.svg"" width=""175px"" height=""250px""></img></td>
    <td width=300 height=300><img src=""static/images/cards/back_of_black_stars.svg"" width=""175px"" height=""250px""></img></td>
  </tr>
  <tr height=200>
    <td width=300><img src=""static/images/keys/z.svg"" width=""35%"" height=""75%""></img></td>
    <td width=300><img src=""static/images/keys/m.svg"" width=""35%"" height=""75%""></img></td>
  </tr>
</table>
  ",90.0,1.0,,,,,,,,,,,,,,,,,,,,,,,,,,
34,0,,html-keyboard-response,34,227692,0.0-4.2-2.2,dx9tn8b21gk,2022-09-19 14:52:41.470,5ea045b29cb1f005b19a4b32,3,29,48,60,40,48,male,,,"
  <table>
  <tr height=300>
    <td width=300 height=300><img src=""static/images/cards/3_of_black_stars.svg"" width=""175px"" height=""250px""></img></td>
    <td width=300 height=300><img src=""static/images/cards/back_of_black_stars.svg"" width=""175px"" height=""250px""></img></td>
  </tr>
  <tr height=200>
    <td width=300><img src=""static/images/keys/z.svg"" width=""35%"" height=""75%""></img></td>
    <td width=300><img src=""static/images/keys/m.svg"" width=""35%"" height=""75%""></img></td>
  </tr>
</table>
  ",,,,,,,,,,,,,,,,,,,,,,,,,,,,
35,0,,html-keyboard-response,35,229211,0.0-4.2-3.2,dx9tn8b21gk,2022-09-19 14:52:41.470,5ea045b29cb1f005b19a4b32,3,29,48,60,40,48,male,,,"<p style=""font-size:50px"">You Lose!
No points this round.</p>",,,,,,,,,,,,,,,,,,,,,,,,,,,,
36,0,,html-keyboard-response,36,229727,0.0-4.2-4.2,dx9tn8b21gk,2022-09-19 14:52:41.470,5ea045b29cb1f005b19a4b32,3,29,48,60,40,48,male,,,,,,1.0,learning,2.0,C,,black,,stars,,,,C,black,stars,,1.0,0.0,NA,left,846.5,3.0,0.0,0.0,,,
37,0,,html-keyboard-response,37,231243,0.0-4.3-0.3,dx9tn8b21gk,2022-09-19 14:52:41.470,5ea045b29cb1f005b19a4b32,3,29,48,60,40,48,male,,,"<img src=""static/images/cards/stack_of_red_stars.svg"" width=""175px"" height=""250px""></img>",,,,,,,,,,,,,,,,,,,,,,,,,,,,
38,0,,html-keyboard-response,38,232313,0.0-4.3-1.3,dx9tn8b21gk,2022-09-19 14:52:41.470,5ea045b29cb1f005b19a4b32,3,29,48,60,40,48,male,565.3999999762,,"
  <table>
  <tr height=300>
    <td width=300 height=300><img src=""static/images/cards/back_of_red_stars.svg"" width=""175px"" height=""250px""></img></td>
    <td width=300 height=300><img src=""static/images/cards/back_of_red_stars.svg"" width=""175px"" height=""250px""></img></td>
  </tr>
  <tr height=200>
    <td width=300><img src=""static/images/keys/z.svg"" width=""35%"" height=""75%""></img></td>
    <td width=300></td>
  </tr>
</table>
  ",90.0,1.0,,,,,,,,,,,,,,,,,,,,,,,,,,
39,0,,html-keyboard-response,39,233826,0.0-4.3-2.3,dx9tn8b21gk,2022-09-19 14:52:41.470,5ea045b29cb1f005b19a4b32,3,29,48,60,40,48,male,,,"
  <table>
  <tr height=300>
    <td width=300 height=300><img src=""static/images/cards/3_of_red_stars.svg"" width=""175px"" height=""250px""></img></td>
    <td width=300 height=300><img src=""static/images/cards/back_of_red_stars.svg"" width=""175px"" height=""250px""></img></td>
  </tr>
  <tr height=200>
    <td width=300><img src=""static/images/keys/z.svg"" width=""35%"" height=""75%""></img></td>
    <td width=300></td>
  </tr>
</table>
  ",,,,,,,,,,,,,,,,,,,,,,,,,,,,
40,0,,html-keyboard-response,40,235349,0.0-4.3-3.3,dx9tn8b21gk,2022-09-19 14:52:41.470,5ea045b29cb1f005b19a4b32,3,29,48,60,40,48,male,,,"<p style=""font-size:50px"">You Lose!
No points this round.</p>",,,,,,,,,,,,,,,,,,,,,,,,,,,,
41,0,,html-keyboard-response,41,235883,0.0-4.3-4.3,dx9tn8b21gk,2022-09-19 14:52:41.470,5ea045b29cb1f005b19a4b32,3,29,48,60,40,48,male,,,,,,1.0,learning,3.0,D,,red,,stars,,,,D,red,stars,,0.0,0.0,1,left,565.3999999762,3.0,0.0,0.0,,,
42,0,,html-keyboard-response,42,237399,0.0-4.4-0.4,dx9tn8b21gk,2022-09-19 14:52:41.470,5ea045b29cb1f005b19a4b32,3,29,48,60,40,48,male,,,"<img src=""static/images/cards/stack_of_red_bolts.svg"" width=""175px"" height=""250px""></img>",,,,,,,,,,,,,,,,,,,,,,,,,,,,
43,0,,html-keyboard-response,43,239033,0.0-4.4-1.4,dx9tn8b21gk,2022-09-19 14:52:41.470,5ea045b29cb1f005b19a4b32,3,29,48,60,40,48,male,1119.3999999762,,"
  <table>
  <tr height=300>
    <td width=300 height=300><img src=""static/images/cards/back_of_red_bolts.svg"" width=""175px"" height=""250px""></img></td>
    <td width=300 height=300><img src=""static/images/cards/back_of_red_bolts.svg"" width=""175px"" height=""250px""></img></td>
  </tr>
  <tr height=200>
    <td width=300><img src=""static/images/keys/z.svg"" width=""35%"" height=""75%""></img></td>
    <td width=300><img src=""static/images/keys/m.svg"" width=""35%"" height=""75%""></img></td>
  </tr>
</table>
  ",77.0,1.0,,,,,,,,,,,,,,,,,,,,,,,,,,
44,0,,html-keyboard-response,44,240557,0.0-4.4-2.4,dx9tn8b21gk,2022-09-19 14:52:41.470,5ea045b29cb1f005b19a4b32,3,29,48,60,40,48,male,,,"
  <table>
  <tr height=300>
    <td width=300 height=300><img src=""static/images/cards/back_of_red_bolts.svg"" width=""175px"" height=""250px""></img></td>
    <td width=300 height=300><img src=""static/images/cards/10_of_red_bolts.svg"" width=""175px"" height=""250px""></img></td>
  </tr>
  <tr height=200>
    <td width=300><img src=""static/images/keys/z.svg"" width=""35%"" height=""75%""></img></td>
    <td width=300><img src=""static/images/keys/m.svg"" width=""35%"" height=""75%""></img></td>
  </tr>
</table>
  ",,,,,,,,,,,,,,,,,,,,,,,,,,,,
45,0,,html-keyboard-response,45,242091,0.0-4.4-3.4,dx9tn8b21gk,2022-09-19 14:52:41.470,5ea045b29cb1f005b19a4b32,3,29,48,60,40,48,male,,,"<p style=""font-size:50px"">You win!
+10 points this round!</p>",,,,,,,,,,,,,,,,,,,,,,,,,,,,
46,0,,html-keyboard-response,46,242602,0.0-4.4-4.4,dx9tn8b21gk,2022-09-19 14:52:41.470,5ea045b29cb1f005b19a4b32,3,29,48,60,40,48,male,,,,,,1.0,learning,4.0,Xc,,red,,bolts,,,,Xc,red,bolts,,1.0,0.0,NA,right,1119.3999999762,10.0,1.0,1.0,,,
47,0,,html-keyboard-response,47,244119,0.0-4.5-0.5,dx9tn8b21gk,2022-09-19 14:52:41.470,5ea045b29cb1f005b19a4b32,3,29,48,60,40,48,male,,,"<img src=""static/images/cards/stack_of_black_bolts.svg"" width=""175px"" height=""250px""></img>",,,,,,,,,,,,,,,,,,,,,,,,,,,,
48,0,,html-keyboard-response,48,245843,0.0-4.5-1.5,dx9tn8b21gk,2022-09-19 14:52:41.470,5ea045b29cb1f005b19a4b32,3,29,48,60,40,48,male,1211.8000000119,,"
  <table>
  <tr height=300>
    <td width=300 height=300><img src=""static/images/cards/back_of_black_bolts.svg"" width=""175px"" height=""250px""></img></td>
    <td width=300 height=300><img src=""static/images/cards/back_of_black_bolts.svg"" width=""175px"" height=""250px""></img></td>
  </tr>
  <tr height=200>
    <td width=300></td>
    <td width=300><img src=""static/images/keys/m.svg"" width=""35%"" height=""75%""></img></td>
  </tr>
</table>
  ",77.0,1.0,,,,,,,,,,,,,,,,,,,,,,,,,,
49,0,,html-keyboard-response,49,247361,0.0-4.5-2.5,dx9tn8b21gk,2022-09-19 14:52:41.470,5ea045b29cb1f005b19a4b32,3,29,48,60,40,48,male,,,"
  <table>
  <tr height=300>
    <td width=300 height=300><img src=""static/images/cards/back_of_black_bolts.svg"" width=""175px"" height=""250px""></img></td>
    <td width=300 height=300><img src=""static/images/cards/4_of_black_bolts.svg"" width=""175px"" height=""250px""></img></td>
  </tr>
  <tr height=200>
    <td width=300></td>
    <td width=300><img src=""static/images/keys/m.svg"" width=""35%"" height=""75%""></img></td>
  </tr>
</table>
  ",,,,,,,,,,,,,,,,,,,,,,,,,,,,
50,0,,html-keyboard-response,50,248897,0.0-4.5-3.5,dx9tn8b21gk,2022-09-19 14:52:41.470,5ea045b29cb1f005b19a4b32,3,29,48,60,40,48,male,,,"<p style=""font-size:50px"">You win!
+10 points this round!</p>",,,,,,,,,,,,,,,,,,,,,,,,,,,,
51,0,,html-keyboard-response,51,249417,0.0-4.5-4.5,dx9tn8b21gk,2022-09-19 14:52:41.470,5ea045b29cb1f005b19a4b32,3,29,48,60,40,48,male,,,,,,1.0,learning,5.0,Xnc,,black,,bolts,,,,Xnc,black,bolts,,0.0,0.0,0,right,1211.8000000119,4.0,0.0,1.0,,,
52,0,,html-keyboard-response,52,250933,0.0-4.6-0.6,dx9tn8b21gk,2022-09-19 14:52:41.470,5ea045b29cb1f005b19a4b32,3,29,48,60,40,48,male,,,"<img src=""static/images/cards/stack_of_black_moons.svg"" width=""175px"" height=""250px""></img>",,,,,,,,,,,,,,,,,,,,,,,,,,,,
53,0,,html-keyboard-response,53,252253,0.0-4.6-1.6,dx9tn8b21gk,2022-09-19 14:52:41.470,5ea045b29cb1f005b19a4b32,3,29,48,60,40,48,male,806.5,,"
  <table>
  <tr height=300>
    <td width=300 height=300><img src=""static/images/cards/back_of_black_moons.svg"" width=""175px"" height=""250px""></img></td>
    <td width=300 height=300><img src=""static/images/cards/back_of_black_moons.svg"" width=""175px"" height=""250px""></img></td>
  </tr>
  <tr height=200>
    <td width=300><img src=""static/images/keys/z.svg"" width=""35%"" height=""75%""></img></td>
    <td width=300><img src=""static/images/keys/m.svg"" width=""35%"" height=""75%""></img></td>
  </tr>
</table>
  ",90.0,1.0,,,,,,,,,,,,,,,,,,,,,,,,,,
54,0,,html-keyboard-response,54,253760,0.0-4.6-2.6,dx9tn8b21gk,2022-09-19 14:52:41.470,5ea045b29cb1f005b19a4b32,3,29,48,60,40,48,male,,,"
  <table>
  <tr height=300>
    <td width=300 height=300><img src=""static/images/cards/6_of_black_moons.svg"" width=""175px"" height=""250px""></img></td>
    <td width=300 height=300><img src=""static/images/cards/back_of_black_moons.svg"" width=""175px"" height=""250px""></img></td>
  </tr>
  <tr height=200>
    <td width=300><img src=""static/images/keys/z.svg"" width=""35%"" height=""75%""></img></td>
    <td width=300><img src=""static/images/keys/m.svg"" width=""35%"" height=""75%""></img></td>
  </tr>
</table>
  ",,,,,,,,,,,,,,,,,,,,,,,,,,,,
55,0,,html-keyboard-response,55,255275,0.0-4.6-3.6,dx9tn8b21gk,2022-09-19 14:52:41.470,5ea045b29cb1f005b19a4b32,3,29,48,60,40,48,male,,,"<p style=""font-size:50px"">You win!
+10 points this round!</p>",,,,,,,,,,,,,,,,,,,,,,,,,,,,
56,0,,html-keyboard-response,56,255816,0.0-4.6-4.6,dx9tn8b21gk,2022-09-19 14:52:41.470,5ea045b29cb1f005b19a4b32,3,29,48,60,40,48,male,,,,,,1.0,learning,6.0,A,,black,,moons,,,,A,black,moons,,1.0,1.0,NA,left,806.5,6.0,1.0,1.0,,,
57,0,,html-keyboard-response,57,257333,0.0-4.7-0.7,dx9tn8b21gk,2022-09-19 14:52:41.470,5ea045b29cb1f005b19a4b32,3,29,48,60,40,48,male,,,"<img src=""static/images/cards/stack_of_red_moons.svg"" width=""175px"" height=""250px""></img>",,,,,,,,,,,,,,,,,,,,,,,,,,,,
58,0,,html-keyboard-response,58,258487,0.0-4.7-1.7,dx9tn8b21gk,2022-09-19 14:52:41.470,5ea045b29cb1f005b19a4b32,3,29,48,60,40,48,male,640.3000000119,,"
  <table>
  <tr height=300>
    <td width=300 height=300><img src=""static/images/cards/back_of_red_moons.svg"" width=""175px"" height=""250px""></img></td>
    <td width=300 height=300><img src=""static/images/cards/back_of_red_moons.svg"" width=""175px"" height=""250px""></img></td>
  </tr>
  <tr height=200>
    <td width=300><img src=""static/images/keys/z.svg"" width=""35%"" height=""75%""></img></td>
    <td width=300></td>
  </tr>
</table>
  ",90.0,1.0,,,,,,,,,,,,,,,,,,,,,,,,,,
59,0,,html-keyboard-response,59,259990,0.0-4.7-2.7,dx9tn8b21gk,2022-09-19 14:52:41.470,5ea045b29cb1f005b19a4b32,3,29,48,60,40,48,male,,,"
  <table>
  <tr height=300>
    <td width=300 height=300><img src=""static/images/cards/8_of_red_moons.svg"" width=""175px"" height=""250px""></img></td>
    <td width=300 height=300><img src=""static/images/cards/back_of_red_moons.svg"" width=""175px"" height=""250px""></img></td>
  </tr>
  <tr height=200>
    <td width=300><img src=""static/images/keys/z.svg"" width=""35%"" height=""75%""></img></td>
    <td width=300></td>
  </tr>
</table>
  ",,,,,,,,,,,,,,,,,,,,,,,,,,,,
60,0,,html-keyboard-response,60,261504,0.0-4.7-3.7,dx9tn8b21gk,2022-09-19 14:52:41.470,5ea045b29cb1f005b19a4b32,3,29,48,60,40,48,male,,,"<p style=""font-size:50px"">You win!
+10 points this round!</p>",,,,,,,,,,,,,,,,,,,,,,,,,,,,
61,0,,html-keyboard-response,61,262018,0.0-4.7-4.7,dx9tn8b21gk,2022-09-19 14:52:41.470,5ea045b29cb1f005b19a4b32,3,29,48,60,40,48,male,,,,,,1.0,learning,7.0,B,,red,,moons,,,,B,red,moons,,0.0,1.0,1,left,640.3000000119,8.0,1.0,1.0,,,
62,0,,html-keyboard-response,62,263535,0.0-4.8-0.8,dx9tn8b21gk,2022-09-19 14:52:41.470,5ea045b29cb1f005b19a4b32,3,29,48,60,40,48,male,,,"<img src=""static/images/cards/stack_of_black_stars.svg"" width=""175px"" height=""250px""></img>",,,,,,,,,,,,,,,,,,,,,,,,,,,,
63,0,,html-keyboard-response,63,265892,0.0-4.8-1.8,dx9tn8b21gk,2022-09-19 14:52:41.470,5ea045b29cb1f005b19a4b32,3,29,48,60,40,48,male,1836.8000000119,,"
  <table>
  <tr height=300>
    <td width=300 height=300><img src=""static/images/cards/back_of_black_stars.svg"" width=""175px"" height=""250px""></img></td>
    <td width=300 height=300><img src=""static/images/cards/back_of_black_stars.svg"" width=""175px"" height=""250px""></img></td>
  </tr>
  <tr height=200>
    <td width=300><img src=""static/images/keys/z.svg"" width=""35%"" height=""75%""></img></td>
    <td width=300><img src=""static/images/keys/m.svg"" width=""35%"" height=""75%""></img></td>
  </tr>
</table>
  ",90.0,1.0,,,,,,,,,,,,,,,,,,,,,,,,,,
64,0,,html-keyboard-response,64,267414,0.0-4.8-2.8,dx9tn8b21gk,2022-09-19 14:52:41.470,5ea045b29cb1f005b19a4b32,3,29,48,60,40,48,male,,,"
  <table>
  <tr height=300>
    <td width=300 height=300><img src=""static/images/cards/10_of_black_stars.svg"" width=""175px"" height=""250px""></img></td>
    <td width=300 height=300><img src=""static/images/cards/back_of_black_stars.svg"" width=""175px"" height=""250px""></img></td>
  </tr>
  <tr height=200>
    <td width=300><img src=""static/images/keys/z.svg"" width=""35%"" height=""75%""></img></td>
    <td width=300><img src=""static/images/keys/m.svg"" width=""35%"" height=""75%""></img></td>
  </tr>
</table>
  ",,,,,,,,,,,,,,,,,,,,,,,,,,,,
65,0,,html-keyboard-response,65,268928,0.0-4.8-3.8,dx9tn8b21gk,2022-09-19 14:52:41.470,5ea045b29cb1f005b19a4b32,3,29,48,60,40,48,male,,,"<p style=""font-size:50px"">You Lose!
No points this round.</p>",,,,,,,,,,,,,,,,,,,,,,,,,,,,
66,0,,html-keyboard-response,66,269449,0.0-4.8-4.8,dx9tn8b21gk,2022-09-19 14:52:41.470,5ea045b29cb1f005b19a4b32,3,29,48,60,40,48,male,,,,,,1.0,learning,8.0,C,,black,,stars,,,,C,black,stars,,1.0,0.0,NA,left,1836.8000000119,10.0,1.0,0.0,,,
67,0,,html-keyboard-response,67,270956,0.0-4.9-0.9,dx9tn8b21gk,2022-09-19 14:52:41.470,5ea045b29cb1f005b19a4b32,3,29,48,60,40,48,male,,,"<img src=""static/images/cards/stack_of_red_stars.svg"" width=""175px"" height=""250px""></img>",,,,,,,,,,,,,,,,,,,,,,,,,,,,
68,0,,html-keyboard-response,68,272068,0.0-4.9-1.9,dx9tn8b21gk,2022-09-19 14:52:41.470,5ea045b29cb1f005b19a4b32,3,29,48,60,40,48,male,600.0999999642,,"
  <table>
  <tr height=300>
    <td width=300 height=300><img src=""static/images/cards/back_of_red_stars.svg"" width=""175px"" height=""250px""></img></td>
    <td width=300 height=300><img src=""static/images/cards/back_of_red_stars.svg"" width=""175px"" height=""250px""></img></td>
  </tr>
  <tr height=200>
    <td width=300></td>
    <td width=300><img src=""static/images/keys/m.svg"" width=""35%"" height=""75%""></img></td>
  </tr>
</table>
  ",77.0,1.0,,,,,,,,,,,,,,,,,,,,,,,,,,
69,0,,html-keyboard-response,69,273578,0.0-4.9-2.9,dx9tn8b21gk,2022-09-19 14:52:41.470,5ea045b29cb1f005b19a4b32,3,29,48,60,40,48,male,,,"
  <table>
  <tr height=300>
    <td width=300 height=300><img src=""static/images/cards/back_of_red_stars.svg"" width=""175px"" height=""250px""></img></td>
    <td width=300 height=300><img src=""static/images/cards/10_of_red_stars.svg"" width=""175px"" height=""250px""></img></td>
  </tr>
  <tr height=200>
    <td width=300></td>
    <td width=300><img src=""static/images/keys/m.svg"" width=""35%"" height=""75%""></img></td>
  </tr>
</table>
  ",,,,,,,,,,,,,,,,,,,,,,,,,,,,
70,0,,html-keyboard-response,70,275115,0.0-4.9-3.9,dx9tn8b21gk,2022-09-19 14:52:41.470,5ea045b29cb1f005b19a4b32,3,29,48,60,40,48,male,,,"<p style=""font-size:50px"">You Lose!
No points this round.</p>",,,,,,,,,,,,,,,,,,,,,,,,,,,,
71,0,,html-keyboard-response,71,275636,0.0-4.9-4.9,dx9tn8b21gk,2022-09-19 14:52:41.470,5ea045b29cb1f005b19a4b32,3,29,48,60,40,48,male,,,,,,1.0,learning,9.0,D,,red,,stars,,,,D,red,stars,,0.0,0.0,0,right,600.0999999642,10.0,1.0,0.0,,,
72,0,,html-keyboard-response,72,277150,0.0-4.10-0.10,dx9tn8b21gk,2022-09-19 14:52:41.470,5ea045b29cb1f005b19a4b32,3,29,48,60,40,48,male,,,"<img src=""static/images/cards/stack_of_red_bolts.svg"" width=""175px"" height=""250px""></img>",,,,,,,,,,,,,,,,,,,,,,,,,,,,
73,0,,html-keyboard-response,73,278210,0.0-4.10-1.10,dx9tn8b21gk,2022-09-19 14:52:41.470,5ea045b29cb1f005b19a4b32,3,29,48,60,40,48,male,553.4000000358,,"
  <table>
  <tr height=300>
    <td width=300 height=300><img src=""static/images/cards/back_of_red_bolts.svg"" width=""175px"" height=""250px""></img></td>
    <td width=300 height=300><img src=""static/images/cards/back_of_red_bolts.svg"" width=""175px"" height=""250px""></img></td>
  </tr>
  <tr height=200>
    <td width=300><img src=""static/images/keys/z.svg"" width=""35%"" height=""75%""></img></td>
    <td width=300><img src=""static/images/keys/m.svg"" width=""35%"" height=""75%""></img></td>
  </tr>
</table>
  ",90.0,1.0,,,,,,,,,,,,,,,,,,,,,,,,,,
74,0,,html-keyboard-response,74,279723,0.0-4.10-2.10,dx9tn8b21gk,2022-09-19 14:52:41.470,5ea045b29cb1f005b19a4b32,3,29,48,60,40,48,male,,,"
  <table>
  <tr height=300>
    <td width=300 height=300><img src=""static/images/cards/1_of_red_bolts.svg"" width=""175px"" height=""250px""></img></td>
    <td width=300 height=300><img src=""static/images/cards/back_of_red_bolts.svg"" width=""175px"" height=""250px""></img></td>
  </tr>
  <tr height=200>
    <td width=300><img src=""static/images/keys/z.svg"" width=""35%"" height=""75%""></img></td>
    <td width=300><img src=""static/images/keys/m.svg"" width=""35%"" height=""75%""></img></td>
  </tr>
</table>
  ",,,,,,,,,,,,,,,,,,,,,,,,,,,,
75,0,,html-keyboard-response,75,281247,0.0-4.10-3.10,dx9tn8b21gk,2022-09-19 14:52:41.470,5ea045b29cb1f005b19a4b32,3,29,48,60,40,48,male,,,"<p style=""font-size:50px"">You win!
+10 points this round!</p>",,,,,,,,,,,,,,,,,,,,,,,,,,,,
76,0,,html-keyboard-response,76,281756,0.0-4.10-4.10,dx9tn8b21gk,2022-09-19 14:52:41.470,5ea045b29cb1f005b19a4b32,3,29,48,60,40,48,male,,,,,,1.0,learning,10.0,Xc,,red,,bolts,,,,Xc,red,bolts,,1.0,0.0,NA,left,553.4000000358,1.0,0.0,1.0,,,
77,0,,html-keyboard-response,77,283262,0.0-4.11-0.11,dx9tn8b21gk,2022-09-19 14:52:41.470,5ea045b29cb1f005b19a4b32,3,29,48,60,40,48,male,,,"<img src=""static/images/cards/stack_of_black_bolts.svg"" width=""175px"" height=""250px""></img>",,,,,,,,,,,,,,,,,,,,,,,,,,,,
78,0,,html-keyboard-response,78,284593,0.0-4.11-1.11,dx9tn8b21gk,2022-09-19 14:52:41.470,5ea045b29cb1f005b19a4b32,3,29,48,60,40,48,male,815.0,,"
  <table>
  <tr height=300>
    <td width=300 height=300><img src=""static/images/cards/back_of_black_bolts.svg"" width=""175px"" height=""250px""></img></td>
    <td width=300 height=300><img src=""static/images/cards/back_of_black_bolts.svg"" width=""175px"" height=""250px""></img></td>
  </tr>
  <tr height=200>
    <td width=300></td>
    <td width=300><img src=""static/images/keys/m.svg"" width=""35%"" height=""75%""></img></td>
  </tr>
</table>
  ",77.0,1.0,,,,,,,,,,,,,,,,,,,,,,,,,,
79,0,,html-keyboard-response,79,286105,0.0-4.11-2.11,dx9tn8b21gk,2022-09-19 14:52:41.470,5ea045b29cb1f005b19a4b32,3,29,48,60,40,48,male,,,"
  <table>
  <tr height=300>
    <td width=300 height=300><img src=""static/images/cards/back_of_black_bolts.svg"" width=""175px"" height=""250px""></img></td>
    <td width=300 height=300><img src=""static/images/cards/3_of_black_bolts.svg"" width=""175px"" height=""250px""></img></td>
  </tr>
  <tr height=200>
    <td width=300></td>
    <td width=300><img src=""static/images/keys/m.svg"" width=""35%"" height=""75%""></img></td>
  </tr>
</table>
  ",,,,,,,,,,,,,,,,,,,,,,,,,,,,
80,0,,html-keyboard-response,80,287637,0.0-4.11-3.11,dx9tn8b21gk,2022-09-19 14:52:41.470,5ea045b29cb1f005b19a4b32,3,29,48,60,40,48,male,,,"<p style=""font-size:50px"">You win!
+10 points this round!</p>",,,,,,,,,,,,,,,,,,,,,,,,,,,,
81,0,,html-keyboard-response,81,288158,0.0-4.11-4.11,dx9tn8b21gk,2022-09-19 14:52:41.470,5ea045b29cb1f005b19a4b32,3,29,48,60,40,48,male,,,,,,1.0,learning,11.0,Xnc,,black,,bolts,,,,Xnc,black,bolts,,0.0,0.0,0,right,815.0,3.0,0.0,1.0,,,
82,0,,html-keyboard-response,82,289663,0.0-4.12-0.12,dx9tn8b21gk,2022-09-19 14:52:41.470,5ea045b29cb1f005b19a4b32,3,29,48,60,40,48,male,,,"<img src=""static/images/cards/stack_of_black_moons.svg"" width=""175px"" height=""250px""></img>",,,,,,,,,,,,,,,,,,,,,,,,,,,,
83,0,,html-keyboard-response,83,291479,0.0-4.12-1.12,dx9tn8b21gk,2022-09-19 14:52:41.470,5ea045b29cb1f005b19a4b32,3,29,48,60,40,48,male,1301.2999999523,,"
  <table>
  <tr height=300>
    <td width=300 height=300><img src=""static/images/cards/back_of_black_moons.svg"" width=""175px"" height=""250px""></img></td>
    <td width=300 height=300><img src=""static/images/cards/back_of_black_moons.svg"" width=""175px"" height=""250px""></img></td>
  </tr>
  <tr height=200>
    <td width=300><img src=""static/images/keys/z.svg"" width=""35%"" height=""75%""></img></td>
    <td width=300><img src=""static/images/keys/m.svg"" width=""35%"" height=""75%""></img></td>
  </tr>
</table>
  ",90.0,1.0,,,,,,,,,,,,,,,,,,,,,,,,,,
84,0,,html-keyboard-response,84,292992,0.0-4.12-2.12,dx9tn8b21gk,2022-09-19 14:52:41.470,5ea045b29cb1f005b19a4b32,3,29,48,60,40,48,male,,,"
  <table>
  <tr height=300>
    <td width=300 height=300><img src=""static/images/cards/2_of_black_moons.svg"" width=""175px"" height=""250px""></img></td>
    <td width=300 height=300><img src=""static/images/cards/back_of_black_moons.svg"" width=""175px"" height=""250px""></img></td>
  </tr>
  <tr height=200>
    <td width=300><img src=""static/images/keys/z.svg"" width=""35%"" height=""75%""></img></td>
    <td width=300><img src=""static/images/keys/m.svg"" width=""35%"" height=""75%""></img></td>
  </tr>
</table>
  ",,,,,,,,,,,,,,,,,,,,,,,,,,,,
85,0,,html-keyboard-response,85,294506,0.0-4.12-3.12,dx9tn8b21gk,2022-09-19 14:52:41.470,5ea045b29cb1f005b19a4b32,3,29,48,60,40,48,male,,,"<p style=""font-size:50px"">You Lose!
No points this round.</p>",,,,,,,,,,,,,,,,,,,,,,,,,,,,
86,0,,html-keyboard-response,86,295029,0.0-4.12-4.12,dx9tn8b21gk,2022-09-19 14:52:41.470,5ea045b29cb1f005b19a4b32,3,29,48,60,40,48,male,,,,,,1.0,learning,12.0,A,,black,,moons,,,,A,black,moons,,1.0,1.0,NA,left,1301.2999999523,2.0,0.0,0.0,,,
87,0,,html-keyboard-response,87,296534,0.0-4.13-0.13,dx9tn8b21gk,2022-09-19 14:52:41.470,5ea045b29cb1f005b19a4b32,3,29,48,60,40,48,male,,,"<img src=""static/images/cards/stack_of_red_moons.svg"" width=""175px"" height=""250px""></img>",,,,,,,,,,,,,,,,,,,,,,,,,,,,
88,0,,html-keyboard-response,88,297532,0.0-4.13-1.13,dx9tn8b21gk,2022-09-19 14:52:41.470,5ea045b29cb1f005b19a4b32,3,29,48,60,40,48,male,479.8000000119,,"
  <table>
  <tr height=300>
    <td width=300 height=300><img src=""static/images/cards/back_of_red_moons.svg"" width=""175px"" height=""250px""></img></td>
    <td width=300 height=300><img src=""static/images/cards/back_of_red_moons.svg"" width=""175px"" height=""250px""></img></td>
  </tr>
  <tr height=200>
    <td width=300></td>
    <td width=300><img src=""static/images/keys/m.svg"" width=""35%"" height=""75%""></img></td>
  </tr>
</table>
  ",77.0,1.0,,,,,,,,,,,,,,,,,,,,,,,,,,
89,0,,html-keyboard-response,89,299050,0.0-4.13-2.13,dx9tn8b21gk,2022-09-19 14:52:41.470,5ea045b29cb1f005b19a4b32,3,29,48,60,40,48,male,,,"
  <table>
  <tr height=300>
    <td width=300 height=300><img src=""static/images/cards/back_of_red_moons.svg"" width=""175px"" height=""250px""></img></td>
    <td width=300 height=300><img src=""static/images/cards/4_of_red_moons.svg"" width=""175px"" height=""250px""></img></td>
  </tr>
  <tr height=200>
    <td width=300></td>
    <td width=300><img src=""static/images/keys/m.svg"" width=""35%"" height=""75%""></img></td>
  </tr>
</table>
  ",,,,,,,,,,,,,,,,,,,,,,,,,,,,
90,0,,html-keyboard-response,90,300564,0.0-4.13-3.13,dx9tn8b21gk,2022-09-19 14:52:41.470,5ea045b29cb1f005b19a4b32,3,29,48,60,40,48,male,,,"<p style=""font-size:50px"">You Lose!
No points this round.</p>",,,,,,,,,,,,,,,,,,,,,,,,,,,,
91,0,,html-keyboard-response,91,301075,0.0-4.13-4.13,dx9tn8b21gk,2022-09-19 14:52:41.470,5ea045b29cb1f005b19a4b32,3,29,48,60,40,48,male,,,,,,1.0,learning,13.0,B,,red,,moons,,,,B,red,moons,,0.0,1.0,0,right,479.8000000119,4.0,0.0,0.0,,,
92,0,,html-keyboard-response,92,302580,0.0-4.14-0.14,dx9tn8b21gk,2022-09-19 14:52:41.470,5ea045b29cb1f005b19a4b32,3,29,48,60,40,48,male,,,"<img src=""static/images/cards/stack_of_black_stars.svg"" width=""175px"" height=""250px""></img>",,,,,,,,,,,,,,,,,,,,,,,,,,,,
93,0,,html-keyboard-response,93,304149,0.0-4.14-1.14,dx9tn8b21gk,2022-09-19 14:52:41.470,5ea045b29cb1f005b19a4b32,3,29,48,60,40,48,male,1064.6000000238,,"
  <table>
  <tr height=300>
    <td width=300 height=300><img src=""static/images/cards/back_of_black_stars.svg"" width=""175px"" height=""250px""></img></td>
    <td width=300 height=300><img src=""static/images/cards/back_of_black_stars.svg"" width=""175px"" height=""250px""></img></td>
  </tr>
  <tr height=200>
    <td width=300><img src=""static/images/keys/z.svg"" width=""35%"" height=""75%""></img></td>
    <td width=300><img src=""static/images/keys/m.svg"" width=""35%"" height=""75%""></img></td>
  </tr>
</table>
  ",90.0,1.0,,,,,,,,,,,,,,,,,,,,,,,,,,
94,0,,html-keyboard-response,94,305664,0.0-4.14-2.14,dx9tn8b21gk,2022-09-19 14:52:41.470,5ea045b29cb1f005b19a4b32,3,29,48,60,40,48,male,,,"
  <table>
  <tr height=300>
    <td width=300 height=300><img src=""static/images/cards/9_of_black_stars.svg"" width=""175px"" height=""250px""></img></td>
    <td width=300 height=300><img src=""static/images/cards/back_of_black_stars.svg"" width=""175px"" height=""250px""></img></td>
  </tr>
  <tr height=200>
    <td width=300><img src=""static/images/keys/z.svg"" width=""35%"" height=""75%""></img></td>
    <td width=300><img src=""static/images/keys/m.svg"" width=""35%"" height=""75%""></img></td>
  </tr>
</table>
  ",,,,,,,,,,,,,,,,,,,,,,,,,,,,
95,0,,html-keyboard-response,95,307190,0.0-4.14-3.14,dx9tn8b21gk,2022-09-19 14:52:41.470,5ea045b29cb1f005b19a4b32,3,29,48,60,40,48,male,,,"<p style=""font-size:50px"">You Lose!
No points this round.</p>",,,,,,,,,,,,,,,,,,,,,,,,,,,,
96,0,,html-keyboard-response,96,307719,0.0-4.14-4.14,dx9tn8b21gk,2022-09-19 14:52:41.470,5ea045b29cb1f005b19a4b32,3,29,48,60,40,48,male,,,,,,1.0,learning,14.0,C,,black,,stars,,,,C,black,stars,,1.0,0.0,NA,left,1064.6000000238,9.0,1.0,0.0,,,
97,0,,html-keyboard-response,97,309225,0.0-4.15-0.15,dx9tn8b21gk,2022-09-19 14:52:41.470,5ea045b29cb1f005b19a4b32,3,29,48,60,40,48,male,,,"<img src=""static/images/cards/stack_of_red_stars.svg"" width=""175px"" height=""250px""></img>",,,,,,,,,,,,,,,,,,,,,,,,,,,,
98,0,,html-keyboard-response,98,310449,0.0-4.15-1.15,dx9tn8b21gk,2022-09-19 14:52:41.470,5ea045b29cb1f005b19a4b32,3,29,48,60,40,48,male,700.0,,"
  <table>
  <tr height=300>
    <td width=300 height=300><img src=""static/images/cards/back_of_red_stars.svg"" width=""175px"" height=""250px""></img></td>
    <td width=300 height=300><img src=""static/images/cards/back_of_red_stars.svg"" width=""175px"" height=""250px""></img></td>
  </tr>
  <tr height=200>
    <td width=300><img src=""static/images/keys/z.svg"" width=""35%"" height=""75%""></img></td>
    <td width=300></td>
  </tr>
</table>
  ",90.0,1.0,,,,,,,,,,,,,,,,,,,,,,,,,,
99,0,,html-keyboard-response,99,311955,0.0-4.15-2.15,dx9tn8b21gk,2022-09-19 14:52:41.470,5ea045b29cb1f005b19a4b32,3,29,48,60,40,48,male,,,"
  <table>
  <tr height=300>
    <td width=300 height=300><img src=""static/images/cards/2_of_red_stars.svg"" width=""175px"" height=""250px""></img></td>
    <td width=300 height=300><img src=""static/images/cards/back_of_red_stars.svg"" width=""175px"" height=""250px""></img></td>
  </tr>
  <tr height=200>
    <td width=300><img src=""static/images/keys/z.svg"" width=""35%"" height=""75%""></img></td>
    <td width=300></td>
  </tr>
</table>
  ",,,,,,,,,,,,,,,,,,,,,,,,,,,,
100,0,,html-keyboard-response,100,313482,0.0-4.15-3.15,dx9tn8b21gk,2022-09-19 14:52:41.470,5ea045b29cb1f005b19a4b32,3,29,48,60,40,48,male,,,"<p style=""font-size:50px"">You Lose!
No points this round.</p>",,,,,,,,,,,,,,,,,,,,,,,,,,,,
101,0,,html-keyboard-response,101,314014,0.0-4.15-4.15,dx9tn8b21gk,2022-09-19 14:52:41.470,5ea045b29cb1f005b19a4b32,3,29,48,60,40,48,male,,,,,,1.0,learning,15.0,D,,red,,stars,,,,D,red,stars,,0.0,0.0,1,left,700.0,2.0,0.0,0.0,,,
102,0,,html-keyboard-response,102,315518,0.0-4.16-0.16,dx9tn8b21gk,2022-09-19 14:52:41.470,5ea045b29cb1f005b19a4b32,3,29,48,60,40,48,male,,,"<img src=""static/images/cards/stack_of_red_bolts.svg"" width=""175px"" height=""250px""></img>",,,,,,,,,,,,,,,,,,,,,,,,,,,,
103,0,,html-keyboard-response,103,316565,0.0-4.16-1.16,dx9tn8b21gk,2022-09-19 14:52:41.470,5ea045b29cb1f005b19a4b32,3,29,48,60,40,48,male,532.8000000119,,"
  <table>
  <tr height=300>
    <td width=300 height=300><img src=""static/images/cards/back_of_red_bolts.svg"" width=""175px"" height=""250px""></img></td>
    <td width=300 height=300><img src=""static/images/cards/back_of_red_bolts.svg"" width=""175px"" height=""250px""></img></td>
  </tr>
  <tr height=200>
    <td width=300><img src=""static/images/keys/z.svg"" width=""35%"" height=""75%""></img></td>
    <td width=300><img src=""static/images/keys/m.svg"" width=""35%"" height=""75%""></img></td>
  </tr>
</table>
  ",77.0,1.0,,,,,,,,,,,,,,,,,,,,,,,,,,
104,0,,html-keyboard-response,104,318079,0.0-4.16-2.16,dx9tn8b21gk,2022-09-19 14:52:41.470,5ea045b29cb1f005b19a4b32,3,29,48,60,40,48,male,,,"
  <table>
  <tr height=300>
    <td width=300 height=300><img src=""static/images/cards/back_of_red_bolts.svg"" width=""175px"" height=""250px""></img></td>
    <td width=300 height=300><img src=""static/images/cards/9_of_red_bolts.svg"" width=""175px"" height=""250px""></img></td>
  </tr>
  <tr height=200>
    <td width=300><img src=""static/images/keys/z.svg"" width=""35%"" height=""75%""></img></td>
    <td width=300><img src=""static/images/keys/m.svg"" width=""35%"" height=""75%""></img></td>
  </tr>
</table>
  ",,,,,,,,,,,,,,,,,,,,,,,,,,,,
105,0,,html-keyboard-response,105,319605,0.0-4.16-3.16,dx9tn8b21gk,2022-09-19 14:52:41.470,5ea045b29cb1f005b19a4b32,3,29,48,60,40,48,male,,,"<p style=""font-size:50px"">You win!
+10 points this round!</p>",,,,,,,,,,,,,,,,,,,,,,,,,,,,
106,0,,html-keyboard-response,106,320122,0.0-4.16-4.16,dx9tn8b21gk,2022-09-19 14:52:41.470,5ea045b29cb1f005b19a4b32,3,29,48,60,40,48,male,,,,,,1.0,learning,16.0,Xc,,red,,bolts,,,,Xc,red,bolts,,1.0,0.0,NA,right,532.8000000119,9.0,1.0,1.0,,,
107,0,,html-keyboard-response,107,321641,0.0-4.17-0.17,dx9tn8b21gk,2022-09-19 14:52:41.470,5ea045b29cb1f005b19a4b32,3,29,48,60,40,48,male,,,"<img src=""static/images/cards/stack_of_black_bolts.svg"" width=""175px"" height=""250px""></img>",,,,,,,,,,,,,,,,,,,,,,,,,,,,
108,0,,html-keyboard-response,108,322765,0.0-4.17-1.17,dx9tn8b21gk,2022-09-19 14:52:41.470,5ea045b29cb1f005b19a4b32,3,29,48,60,40,48,male,609.1000000238,,"
  <table>
  <tr height=300>
    <td width=300 height=300><img src=""static/images/cards/back_of_black_bolts.svg"" width=""175px"" height=""250px""></img></td>
    <td width=300 height=300><img src=""static/images/cards/back_of_black_bolts.svg"" width=""175px"" height=""250px""></img></td>
  </tr>
  <tr height=200>
    <td width=300><img src=""static/images/keys/z.svg"" width=""35%"" height=""75%""></img></td>
    <td width=300></td>
  </tr>
</table>
  ",90.0,1.0,,,,,,,,,,,,,,,,,,,,,,,,,,
109,0,,html-keyboard-response,109,324287,0.0-4.17-2.17,dx9tn8b21gk,2022-09-19 14:52:41.470,5ea045b29cb1f005b19a4b32,3,29,48,60,40,48,male,,,"
  <table>
  <tr height=300>
    <td width=300 height=300><img src=""static/images/cards/8_of_black_bolts.svg"" width=""175px"" height=""250px""></img></td>
    <td width=300 height=300><img src=""static/images/cards/back_of_black_bolts.svg"" width=""175px"" height=""250px""></img></td>
  </tr>
  <tr height=200>
    <td width=300><img src=""static/images/keys/z.svg"" width=""35%"" height=""75%""></img></td>
    <td width=300></td>
  </tr>
</table>
  ",,,,,,,,,,,,,,,,,,,,,,,,,,,,
110,0,,html-keyboard-response,110,325803,0.0-4.17-3.17,dx9tn8b21gk,2022-09-19 14:52:41.470,5ea045b29cb1f005b19a4b32,3,29,48,60,40,48,male,,,"<p style=""font-size:50px"">You win!
+10 points this round!</p>",,,,,,,,,,,,,,,,,,,,,,,,,,,,
111,0,,html-keyboard-response,111,326323,0.0-4.17-4.17,dx9tn8b21gk,2022-09-19 14:52:41.470,5ea045b29cb1f005b19a4b32,3,29,48,60,40,48,male,,,,,,1.0,learning,17.0,Xnc,,black,,bolts,,,,Xnc,black,bolts,,0.0,0.0,1,left,609.1000000238,8.0,1.0,1.0,,,
112,0,,html-keyboard-response,112,327827,0.0-4.18-0.18,dx9tn8b21gk,2022-09-19 14:52:41.470,5ea045b29cb1f005b19a4b32,3,29,48,60,40,48,male,,,"<img src=""static/images/cards/stack_of_black_moons.svg"" width=""175px"" height=""250px""></img>",,,,,,,,,,,,,,,,,,,,,,,,,,,,
113,0,,html-keyboard-response,113,330142,0.0-4.18-1.18,dx9tn8b21gk,2022-09-19 14:52:41.470,5ea045b29cb1f005b19a4b32,3,29,48,60,40,48,male,1799.3000000119,,"
  <table>
  <tr height=300>
    <td width=300 height=300><img src=""static/images/cards/back_of_black_moons.svg"" width=""175px"" height=""250px""></img></td>
    <td width=300 height=300><img src=""static/images/cards/back_of_black_moons.svg"" width=""175px"" height=""250px""></img></td>
  </tr>
  <tr height=200>
    <td width=300><img src=""static/images/keys/z.svg"" width=""35%"" height=""75%""></img></td>
    <td width=300><img src=""static/images/keys/m.svg"" width=""35%"" height=""75%""></img></td>
  </tr>
</table>
  ",90.0,1.0,,,,,,,,,,,,,,,,,,,,,,,,,,
114,0,,html-keyboard-response,114,331647,0.0-4.18-2.18,dx9tn8b21gk,2022-09-19 14:52:41.470,5ea045b29cb1f005b19a4b32,3,29,48,60,40,48,male,,,"
  <table>
  <tr height=300>
    <td width=300 height=300><img src=""static/images/cards/1_of_black_moons.svg"" width=""175px"" height=""250px""></img></td>
    <td width=300 height=300><img src=""static/images/cards/back_of_black_moons.svg"" width=""175px"" height=""250px""></img></td>
  </tr>
  <tr height=200>
    <td width=300><img src=""static/images/keys/z.svg"" width=""35%"" height=""75%""></img></td>
    <td width=300><img src=""static/images/keys/m.svg"" width=""35%"" height=""75%""></img></td>
  </tr>
</table>
  ",,,,,,,,,,,,,,,,,,,,,,,,,,,,
115,0,,html-keyboard-response,115,333162,0.0-4.18-3.18,dx9tn8b21gk,2022-09-19 14:52:41.470,5ea045b29cb1f005b19a4b32,3,29,48,60,40,48,male,,,"<p style=""font-size:50px"">You Lose!
No points this round.</p>",,,,,,,,,,,,,,,,,,,,,,,,,,,,
116,0,,html-keyboard-response,116,333681,0.0-4.18-4.18,dx9tn8b21gk,2022-09-19 14:52:41.470,5ea045b29cb1f005b19a4b32,3,29,48,60,40,48,male,,,,,,1.0,learning,18.0,A,,black,,moons,,,,A,black,moons,,1.0,1.0,NA,left,1799.3000000119,1.0,0.0,0.0,,,
117,0,,html-keyboard-response,117,335188,0.0-4.19-0.19,dx9tn8b21gk,2022-09-19 14:52:41.470,5ea045b29cb1f005b19a4b32,3,29,48,60,40,48,male,,,"<img src=""static/images/cards/stack_of_red_moons.svg"" width=""175px"" height=""250px""></img>",,,,,,,,,,,,,,,,,,,,,,,,,,,,
118,0,,html-keyboard-response,118,336577,0.0-4.19-1.19,dx9tn8b21gk,2022-09-19 14:52:41.470,5ea045b29cb1f005b19a4b32,3,29,48,60,40,48,male,869.9000000358,,"
  <table>
  <tr height=300>
    <td width=300 height=300><img src=""static/images/cards/back_of_red_moons.svg"" width=""175px"" height=""250px""></img></td>
    <td width=300 height=300><img src=""static/images/cards/back_of_red_moons.svg"" width=""175px"" height=""250px""></img></td>
  </tr>
  <tr height=200>
    <td width=300><img src=""static/images/keys/z.svg"" width=""35%"" height=""75%""></img></td>
    <td width=300></td>
  </tr>
</table>
  ",90.0,1.0,,,,,,,,,,,,,,,,,,,,,,,,,,
119,0,,html-keyboard-response,119,338090,0.0-4.19-2.19,dx9tn8b21gk,2022-09-19 14:52:41.470,5ea045b29cb1f005b19a4b32,3,29,48,60,40,48,male,,,"
  <table>
  <tr height=300>
    <td width=300 height=300><img src=""static/images/cards/3_of_red_moons.svg"" width=""175px"" height=""250px""></img></td>
    <td width=300 height=300><img src=""static/images/cards/back_of_red_moons.svg"" width=""175px"" height=""250px""></img></td>
  </tr>
  <tr height=200>
    <td width=300><img src=""static/images/keys/z.svg"" width=""35%"" height=""75%""></img></td>
    <td width=300></td>
  </tr>
</table>
  ",,,,,,,,,,,,,,,,,,,,,,,,,,,,
120,0,,html-keyboard-response,120,339615,0.0-4.19-3.19,dx9tn8b21gk,2022-09-19 14:52:41.470,5ea045b29cb1f005b19a4b32,3,29,48,60,40,48,male,,,"<p style=""font-size:50px"">You Lose!
No points this round.</p>",,,,,,,,,,,,,,,,,,,,,,,,,,,,
121,0,,html-keyboard-response,121,340147,0.0-4.19-4.19,dx9tn8b21gk,2022-09-19 14:52:41.470,5ea045b29cb1f005b19a4b32,3,29,48,60,40,48,male,,,,,,1.0,learning,19.0,B,,red,,moons,,,,B,red,moons,,0.0,1.0,1,left,869.9000000358,3.0,0.0,0.0,,,
122,0,,html-keyboard-response,122,341652,0.0-4.20-0.20,dx9tn8b21gk,2022-09-19 14:52:41.470,5ea045b29cb1f005b19a4b32,3,29,48,60,40,48,male,,,"<img src=""static/images/cards/stack_of_black_stars.svg"" width=""175px"" height=""250px""></img>",,,,,,,,,,,,,,,,,,,,,,,,,,,,
123,0,,html-keyboard-response,123,342513,0.0-4.20-1.20,dx9tn8b21gk,2022-09-19 14:52:41.470,5ea045b29cb1f005b19a4b32,3,29,48,60,40,48,male,347.1999999881,,"
  <table>
  <tr height=300>
    <td width=300 height=300><img src=""static/images/cards/back_of_black_stars.svg"" width=""175px"" height=""250px""></img></td>
    <td width=300 height=300><img src=""static/images/cards/back_of_black_stars.svg"" width=""175px"" height=""250px""></img></td>
  </tr>
  <tr height=200>
    <td width=300><img src=""static/images/keys/z.svg"" width=""35%"" height=""75%""></img></td>
    <td width=300><img src=""static/images/keys/m.svg"" width=""35%"" height=""75%""></img></td>
  </tr>
</table>
  ",77.0,1.0,,,,,,,,,,,,,,,,,,,,,,,,,,
124,0,,html-keyboard-response,124,344030,0.0-4.20-2.20,dx9tn8b21gk,2022-09-19 14:52:41.470,5ea045b29cb1f005b19a4b32,3,29,48,60,40,48,male,,,"
  <table>
  <tr height=300>
    <td width=300 height=300><img src=""static/images/cards/back_of_black_stars.svg"" width=""175px"" height=""250px""></img></td>
    <td width=300 height=300><img src=""static/images/cards/2_of_black_stars.svg"" width=""175px"" height=""250px""></img></td>
  </tr>
  <tr height=200>
    <td width=300><img src=""static/images/keys/z.svg"" width=""35%"" height=""75%""></img></td>
    <td width=300><img src=""static/images/keys/m.svg"" width=""35%"" height=""75%""></img></td>
  </tr>
</table>
  ",,,,,,,,,,,,,,,,,,,,,,,,,,,,
125,0,,html-keyboard-response,125,345535,0.0-4.20-3.20,dx9tn8b21gk,2022-09-19 14:52:41.470,5ea045b29cb1f005b19a4b32,3,29,48,60,40,48,male,,,"<p style=""font-size:50px"">You Lose!
No points this round.</p>",,,,,,,,,,,,,,,,,,,,,,,,,,,,
126,0,,html-keyboard-response,126,346065,0.0-4.20-4.20,dx9tn8b21gk,2022-09-19 14:52:41.470,5ea045b29cb1f005b19a4b32,3,29,48,60,40,48,male,,,,,,1.0,learning,20.0,C,,black,,stars,,,,C,black,stars,,1.0,0.0,NA,right,347.1999999881,2.0,0.0,0.0,,,
127,0,,html-keyboard-response,127,347571,0.0-4.21-0.21,dx9tn8b21gk,2022-09-19 14:52:41.470,5ea045b29cb1f005b19a4b32,3,29,48,60,40,48,male,,,"<img src=""static/images/cards/stack_of_red_stars.svg"" width=""175px"" height=""250px""></img>",,,,,,,,,,,,,,,,,,,,,,,,,,,,
128,0,,html-keyboard-response,128,348661,0.0-4.21-1.21,dx9tn8b21gk,2022-09-19 14:52:41.470,5ea045b29cb1f005b19a4b32,3,29,48,60,40,48,male,585.1000000238,,"
  <table>
  <tr height=300>
    <td width=300 height=300><img src=""static/images/cards/back_of_red_stars.svg"" width=""175px"" height=""250px""></img></td>
    <td width=300 height=300><img src=""static/images/cards/back_of_red_stars.svg"" width=""175px"" height=""250px""></img></td>
  </tr>
  <tr height=200>
    <td width=300></td>
    <td width=300><img src=""static/images/keys/m.svg"" width=""35%"" height=""75%""></img></td>
  </tr>
</table>
  ",77.0,1.0,,,,,,,,,,,,,,,,,,,,,,,,,,
129,0,,html-keyboard-response,129,350163,0.0-4.21-2.21,dx9tn8b21gk,2022-09-19 14:52:41.470,5ea045b29cb1f005b19a4b32,3,29,48,60,40,48,male,,,"
  <table>
  <tr height=300>
    <td width=300 height=300><img src=""static/images/cards/back_of_red_stars.svg"" width=""175px"" height=""250px""></img></td>
    <td width=300 height=300><img src=""static/images/cards/8_of_red_stars.svg"" width=""175px"" height=""250px""></img></td>
  </tr>
  <tr height=200>
    <td width=300></td>
    <td width=300><img src=""static/images/keys/m.svg"" width=""35%"" height=""75%""></img></td>
  </tr>
</table>
  ",,,,,,,,,,,,,,,,,,,,,,,,,,,,
130,0,,html-keyboard-response,130,351678,0.0-4.21-3.21,dx9tn8b21gk,2022-09-19 14:52:41.470,5ea045b29cb1f005b19a4b32,3,29,48,60,40,48,male,,,"<p style=""font-size:50px"">You Lose!
No points this round.</p>",,,,,,,,,,,,,,,,,,,,,,,,,,,,
131,0,,html-keyboard-response,131,352200,0.0-4.21-4.21,dx9tn8b21gk,2022-09-19 14:52:41.470,5ea045b29cb1f005b19a4b32,3,29,48,60,40,48,male,,,,,,1.0,learning,21.0,D,,red,,stars,,,,D,red,stars,,0.0,0.0,0,right,585.1000000238,8.0,1.0,0.0,,,
132,0,,html-keyboard-response,132,353705,0.0-4.22-0.22,dx9tn8b21gk,2022-09-19 14:52:41.470,5ea045b29cb1f005b19a4b32,3,29,48,60,40,48,male,,,"<img src=""static/images/cards/stack_of_red_bolts.svg"" width=""175px"" height=""250px""></img>",,,,,,,,,,,,,,,,,,,,,,,,,,,,
133,0,,html-keyboard-response,133,354636,0.0-4.22-1.22,dx9tn8b21gk,2022-09-19 14:52:41.470,5ea045b29cb1f005b19a4b32,3,29,48,60,40,48,male,415.6999999881,,"
  <table>
  <tr height=300>
    <td width=300 height=300><img src=""static/images/cards/back_of_red_bolts.svg"" width=""175px"" height=""250px""></img></td>
    <td width=300 height=300><img src=""static/images/cards/back_of_red_bolts.svg"" width=""175px"" height=""250px""></img></td>
  </tr>
  <tr height=200>
    <td width=300><img src=""static/images/keys/z.svg"" width=""35%"" height=""75%""></img></td>
    <td width=300><img src=""static/images/keys/m.svg"" width=""35%"" height=""75%""></img></td>
  </tr>
</table>
  ",90.0,1.0,,,,,,,,,,,,,,,,,,,,,,,,,,
134,0,,html-keyboard-response,134,356158,0.0-4.22-2.22,dx9tn8b21gk,2022-09-19 14:52:41.470,5ea045b29cb1f005b19a4b32,3,29,48,60,40,48,male,,,"
  <table>
  <tr height=300>
    <td width=300 height=300><img src=""static/images/cards/4_of_red_bolts.svg"" width=""175px"" height=""250px""></img></td>
    <td width=300 height=300><img src=""static/images/cards/back_of_red_bolts.svg"" width=""175px"" height=""250px""></img></td>
  </tr>
  <tr height=200>
    <td width=300><img src=""static/images/keys/z.svg"" width=""35%"" height=""75%""></img></td>
    <td width=300><img src=""static/images/keys/m.svg"" width=""35%"" height=""75%""></img></td>
  </tr>
</table>
  ",,,,,,,,,,,,,,,,,,,,,,,,,,,,
135,0,,html-keyboard-response,135,357674,0.0-4.22-3.22,dx9tn8b21gk,2022-09-19 14:52:41.470,5ea045b29cb1f005b19a4b32,3,29,48,60,40,48,male,,,"<p style=""font-size:50px"">You win!
+10 points this round!</p>",,,,,,,,,,,,,,,,,,,,,,,,,,,,
136,0,,html-keyboard-response,136,358195,0.0-4.22-4.22,dx9tn8b21gk,2022-09-19 14:52:41.470,5ea045b29cb1f005b19a4b32,3,29,48,60,40,48,male,,,,,,1.0,learning,22.0,Xc,,red,,bolts,,,,Xc,red,bolts,,1.0,0.0,NA,left,415.6999999881,4.0,0.0,1.0,,,
137,0,,html-keyboard-response,137,359698,0.0-4.23-0.23,dx9tn8b21gk,2022-09-19 14:52:41.470,5ea045b29cb1f005b19a4b32,3,29,48,60,40,48,male,,,"<img src=""static/images/cards/stack_of_black_bolts.svg"" width=""175px"" height=""250px""></img>",,,,,,,,,,,,,,,,,,,,,,,,,,,,
138,0,,html-keyboard-response,138,360642,0.0-4.23-1.23,dx9tn8b21gk,2022-09-19 14:52:41.470,5ea045b29cb1f005b19a4b32,3,29,48,60,40,48,male,428.6999999881,,"
  <table>
  <tr height=300>
    <td width=300 height=300><img src=""static/images/cards/back_of_black_bolts.svg"" width=""175px"" height=""250px""></img></td>
    <td width=300 height=300><img src=""static/images/cards/back_of_black_bolts.svg"" width=""175px"" height=""250px""></img></td>
  </tr>
  <tr height=200>
    <td width=300></td>
    <td width=300><img src=""static/images/keys/m.svg"" width=""35%"" height=""75%""></img></td>
  </tr>
</table>
  ",77.0,1.0,,,,,,,,,,,,,,,,,,,,,,,,,,
139,0,,html-keyboard-response,139,362153,0.0-4.23-2.23,dx9tn8b21gk,2022-09-19 14:52:41.470,5ea045b29cb1f005b19a4b32,3,29,48,60,40,48,male,,,"
  <table>
  <tr height=300>
    <td width=300 height=300><img src=""static/images/cards/back_of_black_bolts.svg"" width=""175px"" height=""250px""></img></td>
    <td width=300 height=300><img src=""static/images/cards/8_of_black_bolts.svg"" width=""175px"" height=""250px""></img></td>
  </tr>
  <tr height=200>
    <td width=300></td>
    <td width=300><img src=""static/images/keys/m.svg"" width=""35%"" height=""75%""></img></td>
  </tr>
</table>
  ",,,,,,,,,,,,,,,,,,,,,,,,,,,,
140,0,,html-keyboard-response,140,363667,0.0-4.23-3.23,dx9tn8b21gk,2022-09-19 14:52:41.470,5ea045b29cb1f005b19a4b32,3,29,48,60,40,48,male,,,"<p style=""font-size:50px"">You win!
+10 points this round!</p>",,,,,,,,,,,,,,,,,,,,,,,,,,,,
141,0,,html-keyboard-response,141,364185,0.0-4.23-4.23,dx9tn8b21gk,2022-09-19 14:52:41.470,5ea045b29cb1f005b19a4b32,3,29,48,60,40,48,male,,,,,,1.0,learning,23.0,Xnc,,black,,bolts,,,,Xnc,black,bolts,,0.0,0.0,0,right,428.6999999881,8.0,1.0,1.0,,,
142,0,,call-function,142,364201,0.0-5.0,dx9tn8b21gk,2022-09-19 14:52:41.470,5ea045b29cb1f005b19a4b32,3,29,48,60,40,48,male,,,,,,,,,,,,,,,,,,,,,,,,,,,,,,,
143,0,,image-keyboard-response,143,430569,0.0-6.0-0.0,dx9tn8b21gk,2022-09-19 14:52:41.470,5ea045b29cb1f005b19a4b32,3,29,48,60,40,48,male,66366.0,,static/images/instructions_CB_3/Slide20.png,39.0,,,,,,,,,,,,,,,,,,,,,,,,,,,
144,0,,image-keyboard-response,144,435220,0.0-6.1-0.1,dx9tn8b21gk,2022-09-19 14:52:41.470,5ea045b29cb1f005b19a4b32,3,29,48,60,40,48,male,4650.2999999523,,static/images/instructions_CB_3/Slide21.png,39.0,,,,,,,,,,,,,,,,,,,,,,,,,,,
145,0,,image-keyboard-response,145,451415,0.0-6.2-0.2,dx9tn8b21gk,2022-09-19 14:52:41.470,5ea045b29cb1f005b19a4b32,3,29,48,60,40,48,male,16191.7999999523,,static/images/instructions_CB_3/Slide22.png,39.0,,,,,,,,,,,,,,,,,,,,,,,,,,,
146,0,,image-keyboard-response,146,463865,0.0-6.3-0.3,dx9tn8b21gk,2022-09-19 14:52:41.470,5ea045b29cb1f005b19a4b32,3,29,48,60,40,48,male,12448.7000000477,,static/images/instructions_CB_3/Slide23.png,39.0,,,,,,,,,,,,,,,,,,,,,,,,,,,
147,0,,image-keyboard-response,147,466628,0.0-6.4-0.4,dx9tn8b21gk,2022-09-19 14:52:41.470,5ea045b29cb1f005b19a4b32,3,29,48,60,40,48,male,2761.1000000238,,static/images/instructions_CB_3/Slide24.png,39.0,,,,,,,,,,,,,,,,,,,,,,,,,,,
148,0,,html-keyboard-response,148,469104,0.0-7.0-0.0,dx9tn8b21gk,2022-09-19 14:52:41.470,5ea045b29cb1f005b19a4b32,3,29,48,60,40,48,male,2474.0999999642,,"
  <table>
  <tr height=300>
    <td width=300 height=300><img src=""static/images/cards/stack_of_black_moons.svg"" width=""175px"" height=""250px""></img></td>
    <td width=300 height=300><img src=""static/images/cards/stack_of_red_stars.svg"" width=""175px"" height=""250px""></img></td>
  </tr>
  <tr height=200>
    <td width=300><img src=""static/images/keys/w.svg"" width=""35%"" height=""75%""></img></td>
    <td width=300><img src=""static/images/keys/o.svg"" width=""35%"" height=""75%""></img></td>
  </tr>
</table>
  ",87.0,1.0,,,,,,,,,,,,,,,,,,,,,,,,,,
149,0,,html-keyboard-response,149,471224,0.0-7.0-1.0,dx9tn8b21gk,2022-09-19 14:52:41.470,5ea045b29cb1f005b19a4b32,3,29,48,60,40,48,male,1616.3999999762,,"
  <table>
  <tr height=300>
    <td width=300 height=300><img src=""static/images/cards/back_of_black_moons.svg"" width=""175px"" height=""250px""></img></td>
    <td width=300 height=300><img src=""static/images/cards/back_of_black_moons.svg"" width=""175px"" height=""250px""></img></td>
  </tr>
  <tr height=200>
    <td width=300><img src=""static/images/keys/z.svg"" width=""35%"" height=""75%""></img></td>
    <td width=300><img src=""static/images/keys/m.svg"" width=""35%"" height=""75%""></img></td>
  </tr>
</table>
  ",77.0,1.0,,,,,,,,,,,,,,,,,,,,,,,,,,
150,0,,html-keyboard-response,150,472743,0.0-7.0-2.0,dx9tn8b21gk,2022-09-19 14:52:41.470,5ea045b29cb1f005b19a4b32,3,29,48,60,40,48,male,,,"
  <table>
  <tr height=300>
    <td width=300 height=300><img src=""static/images/cards/back_of_black_moons.svg"" width=""175px"" height=""250px""></img></td>
    <td width=300 height=300><img src=""static/images/cards/9_of_black_moons.svg"" width=""175px"" height=""250px""></img></td>
  </tr>
  <tr height=200>
    <td width=300><img src=""static/images/keys/z.svg"" width=""35%"" height=""75%""></img></td>
    <td width=300><img src=""static/images/keys/m.svg"" width=""35%"" height=""75%""></img></td>
  </tr>
</table>
  ",,,,,,,,,,,,,,,,,,,,,,,,,,,,
151,0,,html-keyboard-response,151,474268,0.0-7.0-3.0,dx9tn8b21gk,2022-09-19 14:52:41.470,5ea045b29cb1f005b19a4b32,3,29,48,60,40,48,male,,,"<p style=""font-size:50px"">You win!
+10 points this round!</p>",,,,,,,,,,,,,,,,,,,,,,,,,,,,
152,0,,html-keyboard-response,152,474780,0.0-7.0-4.0,dx9tn8b21gk,2022-09-19 14:52:41.470,5ea045b29cb1f005b19a4b32,3,29,48,60,40,48,male,,,,,,1.0,choice,0.0,A,D,black,red,moons,stars,A,D,A,black,moons,2474.0999999642,1.0,1.0,NA,right,1616.3999999762,9.0,1.0,1.0,,,
153,0,,html-keyboard-response,153,476880,0.0-7.1-0.1,dx9tn8b21gk,2022-09-19 14:52:41.470,5ea045b29cb1f005b19a4b32,3,29,48,60,40,48,male,2097.0999999642,,"
  <table>
  <tr height=300>
    <td width=300 height=300><img src=""static/images/cards/stack_of_black_moons.svg"" width=""175px"" height=""250px""></img></td>
    <td width=300 height=300><img src=""static/images/cards/stack_of_black_stars.svg"" width=""175px"" height=""250px""></img></td>
  </tr>
  <tr height=200>
    <td width=300><img src=""static/images/keys/w.svg"" width=""35%"" height=""75%""></img></td>
    <td width=300><img src=""static/images/keys/o.svg"" width=""35%"" height=""75%""></img></td>
  </tr>
</table>
  ",87.0,1.0,,,,,,,,,,,,,,,,,,,,,,,,,,
154,0,,html-keyboard-response,154,479250,0.0-7.1-1.1,dx9tn8b21gk,2022-09-19 14:52:41.470,5ea045b29cb1f005b19a4b32,3,29,48,60,40,48,male,1857.6999999881,,"
  <table>
  <tr height=300>
    <td width=300 height=300><img src=""static/images/cards/back_of_black_moons.svg"" width=""175px"" height=""250px""></img></td>
    <td width=300 height=300><img src=""static/images/cards/back_of_black_moons.svg"" width=""175px"" height=""250px""></img></td>
  </tr>
  <tr height=200>
    <td width=300><img src=""static/images/keys/z.svg"" width=""35%"" height=""75%""></img></td>
    <td width=300><img src=""static/images/keys/m.svg"" width=""35%"" height=""75%""></img></td>
  </tr>
</table>
  ",90.0,1.0,,,,,,,,,,,,,,,,,,,,,,,,,,
155,0,,html-keyboard-response,155,480766,0.0-7.1-2.1,dx9tn8b21gk,2022-09-19 14:52:41.470,5ea045b29cb1f005b19a4b32,3,29,48,60,40,48,male,,,"
  <table>
  <tr height=300>
    <td width=300 height=300><img src=""static/images/cards/1_of_black_moons.svg"" width=""175px"" height=""250px""></img></td>
    <td width=300 height=300><img src=""static/images/cards/back_of_black_moons.svg"" width=""175px"" height=""250px""></img></td>
  </tr>
  <tr height=200>
    <td width=300><img src=""static/images/keys/z.svg"" width=""35%"" height=""75%""></img></td>
    <td width=300><img src=""static/images/keys/m.svg"" width=""35%"" height=""75%""></img></td>
  </tr>
</table>
  ",,,,,,,,,,,,,,,,,,,,,,,,,,,,
156,0,,html-keyboard-response,156,482292,0.0-7.1-3.1,dx9tn8b21gk,2022-09-19 14:52:41.470,5ea045b29cb1f005b19a4b32,3,29,48,60,40,48,male,,,"<p style=""font-size:50px"">You Lose!
No points this round.</p>",,,,,,,,,,,,,,,,,,,,,,,,,,,,
157,0,,html-keyboard-response,157,482823,0.0-7.1-4.1,dx9tn8b21gk,2022-09-19 14:52:41.470,5ea045b29cb1f005b19a4b32,3,29,48,60,40,48,male,,,,,,1.0,choice,1.0,A,C,black,black,moons,stars,A,C,A,black,moons,2097.0999999642,1.0,1.0,NA,left,1857.6999999881,1.0,0.0,0.0,,,
158,0,,html-keyboard-response,158,484803,0.0-7.2-0.2,dx9tn8b21gk,2022-09-19 14:52:41.470,5ea045b29cb1f005b19a4b32,3,29,48,60,40,48,male,1976.0,,"
  <table>
  <tr height=300>
    <td width=300 height=300><img src=""static/images/cards/stack_of_black_stars.svg"" width=""175px"" height=""250px""></img></td>
    <td width=300 height=300><img src=""static/images/cards/stack_of_red_moons.svg"" width=""175px"" height=""250px""></img></td>
  </tr>
  <tr height=200>
    <td width=300><img src=""static/images/keys/w.svg"" width=""35%"" height=""75%""></img></td>
    <td width=300><img src=""static/images/keys/o.svg"" width=""35%"" height=""75%""></img></td>
  </tr>
</table>
  ",79.0,1.0,,,,,,,,,,,,,,,,,,,,,,,,,,
159,0,,html-keyboard-response,159,486389,0.0-7.2-1.2,dx9tn8b21gk,2022-09-19 14:52:41.470,5ea045b29cb1f005b19a4b32,3,29,48,60,40,48,male,1078.1999999881,,"
  <table>
  <tr height=300>
    <td width=300 height=300><img src=""static/images/cards/back_of_red_moons.svg"" width=""175px"" height=""250px""></img></td>
    <td width=300 height=300><img src=""static/images/cards/back_of_red_moons.svg"" width=""175px"" height=""250px""></img></td>
  </tr>
  <tr height=200>
    <td width=300><img src=""static/images/keys/z.svg"" width=""35%"" height=""75%""></img></td>
    <td width=300></td>
  </tr>
</table>
  ",90.0,1.0,,,,,,,,,,,,,,,,,,,,,,,,,,
160,0,,html-keyboard-response,160,487901,0.0-7.2-2.2,dx9tn8b21gk,2022-09-19 14:52:41.470,5ea045b29cb1f005b19a4b32,3,29,48,60,40,48,male,,,"
  <table>
  <tr height=300>
    <td width=300 height=300><img src=""static/images/cards/6_of_red_moons.svg"" width=""175px"" height=""250px""></img></td>
    <td width=300 height=300><img src=""static/images/cards/back_of_red_moons.svg"" width=""175px"" height=""250px""></img></td>
  </tr>
  <tr height=200>
    <td width=300><img src=""static/images/keys/z.svg"" width=""35%"" height=""75%""></img></td>
    <td width=300></td>
  </tr>
</table>
  ",,,,,,,,,,,,,,,,,,,,,,,,,,,,
161,0,,html-keyboard-response,161,489406,0.0-7.2-3.2,dx9tn8b21gk,2022-09-19 14:52:41.470,5ea045b29cb1f005b19a4b32,3,29,48,60,40,48,male,,,"<p style=""font-size:50px"">You win!
+10 points this round!</p>",,,,,,,,,,,,,,,,,,,,,,,,,,,,
162,0,,html-keyboard-response,162,489927,0.0-7.2-4.2,dx9tn8b21gk,2022-09-19 14:52:41.470,5ea045b29cb1f005b19a4b32,3,29,48,60,40,48,male,,,,,,1.0,choice,2.0,B,C,black,red,stars,moons,C,B,B,red,moons,1976.0,0.0,1.0,1,left,1078.1999999881,6.0,1.0,1.0,,,
163,0,,html-keyboard-response,163,492066,0.0-7.3-0.3,dx9tn8b21gk,2022-09-19 14:52:41.470,5ea045b29cb1f005b19a4b32,3,29,48,60,40,48,male,2133.3000000119,,"
  <table>
  <tr height=300>
    <td width=300 height=300><img src=""static/images/cards/stack_of_red_stars.svg"" width=""175px"" height=""250px""></img></td>
    <td width=300 height=300><img src=""static/images/cards/stack_of_red_moons.svg"" width=""175px"" height=""250px""></img></td>
  </tr>
  <tr height=200>
    <td width=300><img src=""static/images/keys/w.svg"" width=""35%"" height=""75%""></img></td>
    <td width=300><img src=""static/images/keys/o.svg"" width=""35%"" height=""75%""></img></td>
  </tr>
</table>
  ",87.0,1.0,,,,,,,,,,,,,,,,,,,,,,,,,,
164,0,,html-keyboard-response,164,493443,0.0-7.3-1.3,dx9tn8b21gk,2022-09-19 14:52:41.470,5ea045b29cb1f005b19a4b32,3,29,48,60,40,48,male,853.7000000477,,"
  <table>
  <tr height=300>
    <td width=300 height=300><img src=""static/images/cards/back_of_red_stars.svg"" width=""175px"" height=""250px""></img></td>
    <td width=300 height=300><img src=""static/images/cards/back_of_red_stars.svg"" width=""175px"" height=""250px""></img></td>
  </tr>
  <tr height=200>
    <td width=300></td>
    <td width=300><img src=""static/images/keys/m.svg"" width=""35%"" height=""75%""></img></td>
  </tr>
</table>
  ",77.0,1.0,,,,,,,,,,,,,,,,,,,,,,,,,,
165,0,,html-keyboard-response,165,494955,0.0-7.3-2.3,dx9tn8b21gk,2022-09-19 14:52:41.470,5ea045b29cb1f005b19a4b32,3,29,48,60,40,48,male,,,"
  <table>
  <tr height=300>
    <td width=300 height=300><img src=""static/images/cards/back_of_red_stars.svg"" width=""175px"" height=""250px""></img></td>
    <td width=300 height=300><img src=""static/images/cards/2_of_red_stars.svg"" width=""175px"" height=""250px""></img></td>
  </tr>
  <tr height=200>
    <td width=300></td>
    <td width=300><img src=""static/images/keys/m.svg"" width=""35%"" height=""75%""></img></td>
  </tr>
</table>
  ",,,,,,,,,,,,,,,,,,,,,,,,,,,,
166,0,,html-keyboard-response,166,496469,0.0-7.3-3.3,dx9tn8b21gk,2022-09-19 14:52:41.470,5ea045b29cb1f005b19a4b32,3,29,48,60,40,48,male,,,"<p style=""font-size:50px"">You Lose!
No points this round.</p>",,,,,,,,,,,,,,,,,,,,,,,,,,,,
167,0,,html-keyboard-response,167,496991,0.0-7.3-4.3,dx9tn8b21gk,2022-09-19 14:52:41.470,5ea045b29cb1f005b19a4b32,3,29,48,60,40,48,male,,,,,,1.0,choice,3.0,B,D,red,red,stars,moons,D,B,D,red,stars,2133.3000000119,0.0,0.0,0,right,853.7000000477,2.0,0.0,0.0,,,
168,0,,html-keyboard-response,168,498750,0.0-7.4-0.4,dx9tn8b21gk,2022-09-19 14:52:41.470,5ea045b29cb1f005b19a4b32,3,29,48,60,40,48,male,1755.6999999881,,"
  <table>
  <tr height=300>
    <td width=300 height=300><img src=""static/images/cards/stack_of_black_moons.svg"" width=""175px"" height=""250px""></img></td>
    <td width=300 height=300><img src=""static/images/cards/stack_of_red_moons.svg"" width=""175px"" height=""250px""></img></td>
  </tr>
  <tr height=200>
    <td width=300><img src=""static/images/keys/w.svg"" width=""35%"" height=""75%""></img></td>
    <td width=300><img src=""static/images/keys/o.svg"" width=""35%"" height=""75%""></img></td>
  </tr>
</table>
  ",79.0,1.0,,,,,,,,,,,,,,,,,,,,,,,,,,
169,0,,html-keyboard-response,169,500296,0.0-7.4-1.4,dx9tn8b21gk,2022-09-19 14:52:41.470,5ea045b29cb1f005b19a4b32,3,29,48,60,40,48,male,1028.6999999881,,"
  <table>
  <tr height=300>
    <td width=300 height=300><img src=""static/images/cards/back_of_red_moons.svg"" width=""175px"" height=""250px""></img></td>
    <td width=300 height=300><img src=""static/images/cards/back_of_red_moons.svg"" width=""175px"" height=""250px""></img></td>
  </tr>
  <tr height=200>
    <td width=300><img src=""static/images/keys/z.svg"" width=""35%"" height=""75%""></img></td>
    <td width=300></td>
  </tr>
</table>
  ",90.0,1.0,,,,,,,,,,,,,,,,,,,,,,,,,,
170,0,,html-keyboard-response,170,501803,0.0-7.4-2.4,dx9tn8b21gk,2022-09-19 14:52:41.470,5ea045b29cb1f005b19a4b32,3,29,48,60,40,48,male,,,"
  <table>
  <tr height=300>
    <td width=300 height=300><img src=""static/images/cards/8_of_red_moons.svg"" width=""175px"" height=""250px""></img></td>
    <td width=300 height=300><img src=""static/images/cards/back_of_red_moons.svg"" width=""175px"" height=""250px""></img></td>
  </tr>
  <tr height=200>
    <td width=300><img src=""static/images/keys/z.svg"" width=""35%"" height=""75%""></img></td>
    <td width=300></td>
  </tr>
</table>
  ",,,,,,,,,,,,,,,,,,,,,,,,,,,,
171,0,,html-keyboard-response,171,503318,0.0-7.4-3.4,dx9tn8b21gk,2022-09-19 14:52:41.470,5ea045b29cb1f005b19a4b32,3,29,48,60,40,48,male,,,"<p style=""font-size:50px"">You win!
+10 points this round!</p>",,,,,,,,,,,,,,,,,,,,,,,,,,,,
172,0,,html-keyboard-response,172,503838,0.0-7.4-4.4,dx9tn8b21gk,2022-09-19 14:52:41.470,5ea045b29cb1f005b19a4b32,3,29,48,60,40,48,male,,,,,,1.0,choice,4.0,A,B,black,red,moons,moons,A,B,B,red,moons,1755.6999999881,0.0,1.0,1,left,1028.6999999881,8.0,1.0,1.0,,,
173,0,,html-keyboard-response,173,505762,0.0-7.5-0.5,dx9tn8b21gk,2022-09-19 14:52:41.470,5ea045b29cb1f005b19a4b32,3,29,48,60,40,48,male,1919.8999999762,,"
  <table>
  <tr height=300>
    <td width=300 height=300><img src=""static/images/cards/stack_of_red_moons.svg"" width=""175px"" height=""250px""></img></td>
    <td width=300 height=300><img src=""static/images/cards/stack_of_red_stars.svg"" width=""175px"" height=""250px""></img></td>
  </tr>
  <tr height=200>
    <td width=300><img src=""static/images/keys/w.svg"" width=""35%"" height=""75%""></img></td>
    <td width=300><img src=""static/images/keys/o.svg"" width=""35%"" height=""75%""></img></td>
  </tr>
</table>
  ",79.0,1.0,,,,,,,,,,,,,,,,,,,,,,,,,,
174,0,,html-keyboard-response,174,507514,0.0-7.5-1.5,dx9tn8b21gk,2022-09-19 14:52:41.470,5ea045b29cb1f005b19a4b32,3,29,48,60,40,48,male,1238.1000000238,,"
  <table>
  <tr height=300>
    <td width=300 height=300><img src=""static/images/cards/back_of_red_stars.svg"" width=""175px"" height=""250px""></img></td>
    <td width=300 height=300><img src=""static/images/cards/back_of_red_stars.svg"" width=""175px"" height=""250px""></img></td>
  </tr>
  <tr height=200>
    <td width=300></td>
    <td width=300><img src=""static/images/keys/m.svg"" width=""35%"" height=""75%""></img></td>
  </tr>
</table>
  ",77.0,1.0,,,,,,,,,,,,,,,,,,,,,,,,,,
175,0,,html-keyboard-response,175,509035,0.0-7.5-2.5,dx9tn8b21gk,2022-09-19 14:52:41.470,5ea045b29cb1f005b19a4b32,3,29,48,60,40,48,male,,,"
  <table>
  <tr height=300>
    <td width=300 height=300><img src=""static/images/cards/back_of_red_stars.svg"" width=""175px"" height=""250px""></img></td>
    <td width=300 height=300><img src=""static/images/cards/3_of_red_stars.svg"" width=""175px"" height=""250px""></img></td>
  </tr>
  <tr height=200>
    <td width=300></td>
    <td width=300><img src=""static/images/keys/m.svg"" width=""35%"" height=""75%""></img></td>
  </tr>
</table>
  ",,,,,,,,,,,,,,,,,,,,,,,,,,,,
176,0,,html-keyboard-response,176,510550,0.0-7.5-3.5,dx9tn8b21gk,2022-09-19 14:52:41.470,5ea045b29cb1f005b19a4b32,3,29,48,60,40,48,male,,,"<p style=""font-size:50px"">You Lose!
No points this round.</p>",,,,,,,,,,,,,,,,,,,,,,,,,,,,
177,0,,html-keyboard-response,177,511071,0.0-7.5-4.5,dx9tn8b21gk,2022-09-19 14:52:41.470,5ea045b29cb1f005b19a4b32,3,29,48,60,40,48,male,,,,,,1.0,choice,5.0,B,D,red,red,moons,stars,B,D,D,red,stars,1919.8999999762,0.0,0.0,0,right,1238.1000000238,3.0,0.0,0.0,,,
178,0,,html-keyboard-response,178,512154,0.0-7.6-0.6,dx9tn8b21gk,2022-09-19 14:52:41.470,5ea045b29cb1f005b19a4b32,3,29,48,60,40,48,male,1079.3999999762,,"
  <table>
  <tr height=300>
    <td width=300 height=300><img src=""static/images/cards/stack_of_red_moons.svg"" width=""175px"" height=""250px""></img></td>
    <td width=300 height=300><img src=""static/images/cards/stack_of_black_moons.svg"" width=""175px"" height=""250px""></img></td>
  </tr>
  <tr height=200>
    <td width=300><img src=""static/images/keys/w.svg"" width=""35%"" height=""75%""></img></td>
    <td width=300><img src=""static/images/keys/o.svg"" width=""35%"" height=""75%""></img></td>
  </tr>
</table>
  ",79.0,1.0,,,,,,,,,,,,,,,,,,,,,,,,,,
179,0,,html-keyboard-response,179,513569,0.0-7.6-1.6,dx9tn8b21gk,2022-09-19 14:52:41.470,5ea045b29cb1f005b19a4b32,3,29,48,60,40,48,male,906.5,,"
  <table>
  <tr height=300>
    <td width=300 height=300><img src=""static/images/cards/back_of_black_moons.svg"" width=""175px"" height=""250px""></img></td>
    <td width=300 height=300><img src=""static/images/cards/back_of_black_moons.svg"" width=""175px"" height=""250px""></img></td>
  </tr>
  <tr height=200>
    <td width=300><img src=""static/images/keys/z.svg"" width=""35%"" height=""75%""></img></td>
    <td width=300><img src=""static/images/keys/m.svg"" width=""35%"" height=""75%""></img></td>
  </tr>
</table>
  ",90.0,1.0,,,,,,,,,,,,,,,,,,,,,,,,,,
180,0,,html-keyboard-response,180,515102,0.0-7.6-2.6,dx9tn8b21gk,2022-09-19 14:52:41.470,5ea045b29cb1f005b19a4b32,3,29,48,60,40,48,male,,,"
  <table>
  <tr height=300>
    <td width=300 height=300><img src=""static/images/cards/4_of_black_moons.svg"" width=""175px"" height=""250px""></img></td>
    <td width=300 height=300><img src=""static/images/cards/back_of_black_moons.svg"" width=""175px"" height=""250px""></img></td>
  </tr>
  <tr height=200>
    <td width=300><img src=""static/images/keys/z.svg"" width=""35%"" height=""75%""></img></td>
    <td width=300><img src=""static/images/keys/m.svg"" width=""35%"" height=""75%""></img></td>
  </tr>
</table>
  ",,,,,,,,,,,,,,,,,,,,,,,,,,,,
181,0,,html-keyboard-response,181,516608,0.0-7.6-3.6,dx9tn8b21gk,2022-09-19 14:52:41.470,5ea045b29cb1f005b19a4b32,3,29,48,60,40,48,male,,,"<p style=""font-size:50px"">You Lose!
No points this round.</p>",,,,,,,,,,,,,,,,,,,,,,,,,,,,
182,0,,html-keyboard-response,182,517131,0.0-7.6-4.6,dx9tn8b21gk,2022-09-19 14:52:41.470,5ea045b29cb1f005b19a4b32,3,29,48,60,40,48,male,,,,,,1.0,choice,6.0,A,B,red,black,moons,moons,B,A,A,black,moons,1079.3999999762,1.0,1.0,NA,left,906.5,4.0,0.0,0.0,,,
183,0,,html-keyboard-response,183,519209,0.0-7.7-0.7,dx9tn8b21gk,2022-09-19 14:52:41.470,5ea045b29cb1f005b19a4b32,3,29,48,60,40,48,male,2074.4000000358,,"
  <table>
  <tr height=300>
    <td width=300 height=300><img src=""static/images/cards/stack_of_red_stars.svg"" width=""175px"" height=""250px""></img></td>
    <td width=300 height=300><img src=""static/images/cards/stack_of_black_moons.svg"" width=""175px"" height=""250px""></img></td>
  </tr>
  <tr height=200>
    <td width=300><img src=""static/images/keys/w.svg"" width=""35%"" height=""75%""></img></td>
    <td width=300><img src=""static/images/keys/o.svg"" width=""35%"" height=""75%""></img></td>
  </tr>
</table>
  ",87.0,2.0,,,,,,,,,,,,,,,,,,,,,,,,,,
184,0,,html-keyboard-response,184,520808,0.0-7.7-1.7,dx9tn8b21gk,2022-09-19 14:52:41.470,5ea045b29cb1f005b19a4b32,3,29,48,60,40,48,male,1083.3999999762,,"
  <table>
  <tr height=300>
    <td width=300 height=300><img src=""static/images/cards/back_of_red_stars.svg"" width=""175px"" height=""250px""></img></td>
    <td width=300 height=300><img src=""static/images/cards/back_of_red_stars.svg"" width=""175px"" height=""250px""></img></td>
  </tr>
  <tr height=200>
    <td width=300><img src=""static/images/keys/z.svg"" width=""35%"" height=""75%""></img></td>
    <td width=300></td>
  </tr>
</table>
  ",90.0,1.0,,,,,,,,,,,,,,,,,,,,,,,,,,
185,0,,html-keyboard-response,185,522314,0.0-7.7-2.7,dx9tn8b21gk,2022-09-19 14:52:41.470,5ea045b29cb1f005b19a4b32,3,29,48,60,40,48,male,,,"
  <table>
  <tr height=300>
    <td width=300 height=300><img src=""static/images/cards/2_of_red_stars.svg"" width=""175px"" height=""250px""></img></td>
    <td width=300 height=300><img src=""static/images/cards/back_of_red_stars.svg"" width=""175px"" height=""250px""></img></td>
  </tr>
  <tr height=200>
    <td width=300><img src=""static/images/keys/z.svg"" width=""35%"" height=""75%""></img></td>
    <td width=300></td>
  </tr>
</table>
  ",,,,,,,,,,,,,,,,,,,,,,,,,,,,
186,0,,html-keyboard-response,186,523818,0.0-7.7-3.7,dx9tn8b21gk,2022-09-19 14:52:41.470,5ea045b29cb1f005b19a4b32,3,29,48,60,40,48,male,,,"<p style=""font-size:50px"">You Lose!
No points this round.</p>",,,,,,,,,,,,,,,,,,,,,,,,,,,,
187,0,,html-keyboard-response,187,524341,0.0-7.7-4.7,dx9tn8b21gk,2022-09-19 14:52:41.470,5ea045b29cb1f005b19a4b32,3,29,48,60,40,48,male,,,,,,1.0,choice,7.0,A,D,red,black,stars,moons,D,A,D,red,stars,2074.4000000358,0.0,0.0,1,left,1083.3999999762,2.0,0.0,0.0,,,
188,0,,html-keyboard-response,188,525329,0.0-7.8-0.8,dx9tn8b21gk,2022-09-19 14:52:41.470,5ea045b29cb1f005b19a4b32,3,29,48,60,40,48,male,985.3000000119,,"
  <table>
  <tr height=300>
    <td width=300 height=300><img src=""static/images/cards/stack_of_red_moons.svg"" width=""175px"" height=""250px""></img></td>
    <td width=300 height=300><img src=""static/images/cards/stack_of_red_bolts.svg"" width=""175px"" height=""250px""></img></td>
  </tr>
  <tr height=200>
    <td width=300><img src=""static/images/keys/w.svg"" width=""35%"" height=""75%""></img></td>
    <td width=300><img src=""static/images/keys/o.svg"" width=""35%"" height=""75%""></img></td>
  </tr>
</table>
  ",79.0,1.0,,,,,,,,,,,,,,,,,,,,,,,,,,
189,0,,html-keyboard-response,189,527103,0.0-7.8-1.8,dx9tn8b21gk,2022-09-19 14:52:41.470,5ea045b29cb1f005b19a4b32,3,29,48,60,40,48,male,1255.0,,"
  <table>
  <tr height=300>
    <td width=300 height=300><img src=""static/images/cards/back_of_red_bolts.svg"" width=""175px"" height=""250px""></img></td>
    <td width=300 height=300><img src=""static/images/cards/back_of_red_bolts.svg"" width=""175px"" height=""250px""></img></td>
  </tr>
  <tr height=200>
    <td width=300><img src=""static/images/keys/z.svg"" width=""35%"" height=""75%""></img></td>
    <td width=300><img src=""static/images/keys/m.svg"" width=""35%"" height=""75%""></img></td>
  </tr>
</table>
  ",77.0,1.0,,,,,,,,,,,,,,,,,,,,,,,,,,
190,0,,html-keyboard-response,190,528618,0.0-7.8-2.8,dx9tn8b21gk,2022-09-19 14:52:41.470,5ea045b29cb1f005b19a4b32,3,29,48,60,40,48,male,,,"
  <table>
  <tr height=300>
    <td width=300 height=300><img src=""static/images/cards/back_of_red_bolts.svg"" width=""175px"" height=""250px""></img></td>
    <td width=300 height=300><img src=""static/images/cards/7_of_red_bolts.svg"" width=""175px"" height=""250px""></img></td>
  </tr>
  <tr height=200>
    <td width=300><img src=""static/images/keys/z.svg"" width=""35%"" height=""75%""></img></td>
    <td width=300><img src=""static/images/keys/m.svg"" width=""35%"" height=""75%""></img></td>
  </tr>
</table>
  ",,,,,,,,,,,,,,,,,,,,,,,,,,,,
191,0,,html-keyboard-response,191,530134,0.0-7.8-3.8,dx9tn8b21gk,2022-09-19 14:52:41.470,5ea045b29cb1f005b19a4b32,3,29,48,60,40,48,male,,,"<p style=""font-size:50px"">You win!
+10 points this round!</p>",,,,,,,,,,,,,,,,,,,,,,,,,,,,
192,0,,html-keyboard-response,192,530654,0.0-7.8-4.8,dx9tn8b21gk,2022-09-19 14:52:41.470,5ea045b29cb1f005b19a4b32,3,29,48,60,40,48,male,,,,,,1.0,choice,8.0,B,Xc,red,red,moons,bolts,B,Xc,Xc,red,bolts,985.3000000119,1.0,0.0,NA,right,1255.0,7.0,1.0,1.0,,,
193,0,,html-keyboard-response,193,531923,0.0-7.9-0.9,dx9tn8b21gk,2022-09-19 14:52:41.470,5ea045b29cb1f005b19a4b32,3,29,48,60,40,48,male,1265.5,,"
  <table>
  <tr height=300>
    <td width=300 height=300><img src=""static/images/cards/stack_of_red_stars.svg"" width=""175px"" height=""250px""></img></td>
    <td width=300 height=300><img src=""static/images/cards/stack_of_black_moons.svg"" width=""175px"" height=""250px""></img></td>
  </tr>
  <tr height=200>
    <td width=300><img src=""static/images/keys/w.svg"" width=""35%"" height=""75%""></img></td>
    <td width=300><img src=""static/images/keys/o.svg"" width=""35%"" height=""75%""></img></td>
  </tr>
</table>
  ",79.0,1.0,,,,,,,,,,,,,,,,,,,,,,,,,,
194,0,,html-keyboard-response,194,534231,0.0-7.9-1.9,dx9tn8b21gk,2022-09-19 14:52:41.470,5ea045b29cb1f005b19a4b32,3,29,48,60,40,48,male,1790.6000000238,,"
  <table>
  <tr height=300>
    <td width=300 height=300><img src=""static/images/cards/back_of_black_moons.svg"" width=""175px"" height=""250px""></img></td>
    <td width=300 height=300><img src=""static/images/cards/back_of_black_moons.svg"" width=""175px"" height=""250px""></img></td>
  </tr>
  <tr height=200>
    <td width=300><img src=""static/images/keys/z.svg"" width=""35%"" height=""75%""></img></td>
    <td width=300><img src=""static/images/keys/m.svg"" width=""35%"" height=""75%""></img></td>
  </tr>
</table>
  ",90.0,1.0,,,,,,,,,,,,,,,,,,,,,,,,,,
195,0,,html-keyboard-response,195,535755,0.0-7.9-2.9,dx9tn8b21gk,2022-09-19 14:52:41.470,5ea045b29cb1f005b19a4b32,3,29,48,60,40,48,male,,,"
  <table>
  <tr height=300>
    <td width=300 height=300><img src=""static/images/cards/8_of_black_moons.svg"" width=""175px"" height=""250px""></img></td>
    <td width=300 height=300><img src=""static/images/cards/back_of_black_moons.svg"" width=""175px"" height=""250px""></img></td>
  </tr>
  <tr height=200>
    <td width=300><img src=""static/images/keys/z.svg"" width=""35%"" height=""75%""></img></td>
    <td width=300><img src=""static/images/keys/m.svg"" width=""35%"" height=""75%""></img></td>
  </tr>
</table>
  ",,,,,,,,,,,,,,,,,,,,,,,,,,,,
196,0,,html-keyboard-response,196,537264,0.0-7.9-3.9,dx9tn8b21gk,2022-09-19 14:52:41.470,5ea045b29cb1f005b19a4b32,3,29,48,60,40,48,male,,,"<p style=""font-size:50px"">You win!
+10 points this round!</p>",,,,,,,,,,,,,,,,,,,,,,,,,,,,
197,0,,html-keyboard-response,197,537780,0.0-7.9-4.9,dx9tn8b21gk,2022-09-19 14:52:41.470,5ea045b29cb1f005b19a4b32,3,29,48,60,40,48,male,,,,,,1.0,choice,9.0,A,D,red,black,stars,moons,D,A,A,black,moons,1265.5,1.0,1.0,NA,left,1790.6000000238,8.0,1.0,1.0,,,
198,0,,html-keyboard-response,198,539747,0.0-7.10-0.10,dx9tn8b21gk,2022-09-19 14:52:41.470,5ea045b29cb1f005b19a4b32,3,29,48,60,40,48,male,1964.2000000477,,"
  <table>
  <tr height=300>
    <td width=300 height=300><img src=""static/images/cards/stack_of_black_stars.svg"" width=""175px"" height=""250px""></img></td>
    <td width=300 height=300><img src=""static/images/cards/stack_of_red_moons.svg"" width=""175px"" height=""250px""></img></td>
  </tr>
  <tr height=200>
    <td width=300><img src=""static/images/keys/w.svg"" width=""35%"" height=""75%""></img></td>
    <td width=300><img src=""static/images/keys/o.svg"" width=""35%"" height=""75%""></img></td>
  </tr>
</table>
  ",87.0,1.0,,,,,,,,,,,,,,,,,,,,,,,,,,
199,0,,html-keyboard-response,199,541634,0.0-7.10-1.10,dx9tn8b21gk,2022-09-19 14:52:41.470,5ea045b29cb1f005b19a4b32,3,29,48,60,40,48,male,1363.6000000238,,"
  <table>
  <tr height=300>
    <td width=300 height=300><img src=""static/images/cards/back_of_black_stars.svg"" width=""175px"" height=""250px""></img></td>
    <td width=300 height=300><img src=""static/images/cards/back_of_black_stars.svg"" width=""175px"" height=""250px""></img></td>
  </tr>
  <tr height=200>
    <td width=300><img src=""static/images/keys/z.svg"" width=""35%"" height=""75%""></img></td>
    <td width=300><img src=""static/images/keys/m.svg"" width=""35%"" height=""75%""></img></td>
  </tr>
</table>
  ",77.0,1.0,,,,,,,,,,,,,,,,,,,,,,,,,,
200,0,,html-keyboard-response,200,543147,0.0-7.10-2.10,dx9tn8b21gk,2022-09-19 14:52:41.470,5ea045b29cb1f005b19a4b32,3,29,48,60,40,48,male,,,"
  <table>
  <tr height=300>
    <td width=300 height=300><img src=""static/images/cards/back_of_black_stars.svg"" width=""175px"" height=""250px""></img></td>
    <td width=300 height=300><img src=""static/images/cards/4_of_black_stars.svg"" width=""175px"" height=""250px""></img></td>
  </tr>
  <tr height=200>
    <td width=300><img src=""static/images/keys/z.svg"" width=""35%"" height=""75%""></img></td>
    <td width=300><img src=""static/images/keys/m.svg"" width=""35%"" height=""75%""></img></td>
  </tr>
</table>
  ",,,,,,,,,,,,,,,,,,,,,,,,,,,,
201,0,,html-keyboard-response,201,544662,0.0-7.10-3.10,dx9tn8b21gk,2022-09-19 14:52:41.470,5ea045b29cb1f005b19a4b32,3,29,48,60,40,48,male,,,"<p style=""font-size:50px"">You win!
+10 points this round!</p>",,,,,,,,,,,,,,,,,,,,,,,,,,,,
202,0,,html-keyboard-response,202,545194,0.0-7.10-4.10,dx9tn8b21gk,2022-09-19 14:52:41.470,5ea045b29cb1f005b19a4b32,3,29,48,60,40,48,male,,,,,,1.0,choice,10.0,B,C,black,red,stars,moons,C,B,C,black,stars,1964.2000000477,1.0,0.0,NA,right,1363.6000000238,4.0,0.0,1.0,,,
203,0,,html-keyboard-response,203,546751,0.0-7.11-0.11,dx9tn8b21gk,2022-09-19 14:52:41.470,5ea045b29cb1f005b19a4b32,3,29,48,60,40,48,male,1554.0,,"
  <table>
  <tr height=300>
    <td width=300 height=300><img src=""static/images/cards/stack_of_red_stars.svg"" width=""175px"" height=""250px""></img></td>
    <td width=300 height=300><img src=""static/images/cards/stack_of_red_moons.svg"" width=""175px"" height=""250px""></img></td>
  </tr>
  <tr height=200>
    <td width=300><img src=""static/images/keys/w.svg"" width=""35%"" height=""75%""></img></td>
    <td width=300><img src=""static/images/keys/o.svg"" width=""35%"" height=""75%""></img></td>
  </tr>
</table>
  ",79.0,1.0,,,,,,,,,,,,,,,,,,,,,,,,,,
204,0,,html-keyboard-response,204,548494,0.0-7.11-1.11,dx9tn8b21gk,2022-09-19 14:52:41.470,5ea045b29cb1f005b19a4b32,3,29,48,60,40,48,male,1237.5,,"
  <table>
  <tr height=300>
    <td width=300 height=300><img src=""static/images/cards/back_of_red_moons.svg"" width=""175px"" height=""250px""></img></td>
    <td width=300 height=300><img src=""static/images/cards/back_of_red_moons.svg"" width=""175px"" height=""250px""></img></td>
  </tr>
  <tr height=200>
    <td width=300><img src=""static/images/keys/z.svg"" width=""35%"" height=""75%""></img></td>
    <td width=300></td>
  </tr>
</table>
  ",90.0,1.0,,,,,,,,,,,,,,,,,,,,,,,,,,
205,0,,html-keyboard-response,205,550005,0.0-7.11-2.11,dx9tn8b21gk,2022-09-19 14:52:41.470,5ea045b29cb1f005b19a4b32,3,29,48,60,40,48,male,,,"
  <table>
  <tr height=300>
    <td width=300 height=300><img src=""static/images/cards/6_of_red_moons.svg"" width=""175px"" height=""250px""></img></td>
    <td width=300 height=300><img src=""static/images/cards/back_of_red_moons.svg"" width=""175px"" height=""250px""></img></td>
  </tr>
  <tr height=200>
    <td width=300><img src=""static/images/keys/z.svg"" width=""35%"" height=""75%""></img></td>
    <td width=300></td>
  </tr>
</table>
  ",,,,,,,,,,,,,,,,,,,,,,,,,,,,
206,0,,html-keyboard-response,206,551521,0.0-7.11-3.11,dx9tn8b21gk,2022-09-19 14:52:41.470,5ea045b29cb1f005b19a4b32,3,29,48,60,40,48,male,,,"<p style=""font-size:50px"">You win!
+10 points this round!</p>",,,,,,,,,,,,,,,,,,,,,,,,,,,,
207,0,,html-keyboard-response,207,552041,0.0-7.11-4.11,dx9tn8b21gk,2022-09-19 14:52:41.470,5ea045b29cb1f005b19a4b32,3,29,48,60,40,48,male,,,,,,1.0,choice,11.0,B,D,red,red,stars,moons,D,B,B,red,moons,1554.0,0.0,1.0,1,left,1237.5,6.0,1.0,1.0,,,
208,0,,html-keyboard-response,208,553271,0.0-7.12-0.12,dx9tn8b21gk,2022-09-19 14:52:41.470,5ea045b29cb1f005b19a4b32,3,29,48,60,40,48,male,1227.4000000358,,"
  <table>
  <tr height=300>
    <td width=300 height=300><img src=""static/images/cards/stack_of_red_stars.svg"" width=""175px"" height=""250px""></img></td>
    <td width=300 height=300><img src=""static/images/cards/stack_of_black_bolts.svg"" width=""175px"" height=""250px""></img></td>
  </tr>
  <tr height=200>
    <td width=300><img src=""static/images/keys/w.svg"" width=""35%"" height=""75%""></img></td>
    <td width=300><img src=""static/images/keys/o.svg"" width=""35%"" height=""75%""></img></td>
  </tr>
</table>
  ",79.0,1.0,,,,,,,,,,,,,,,,,,,,,,,,,,
209,0,,html-keyboard-response,209,555081,0.0-7.12-1.12,dx9tn8b21gk,2022-09-19 14:52:41.470,5ea045b29cb1f005b19a4b32,3,29,48,60,40,48,male,1304.4000000358,,"
  <table>
  <tr height=300>
    <td width=300 height=300><img src=""static/images/cards/back_of_black_bolts.svg"" width=""175px"" height=""250px""></img></td>
    <td width=300 height=300><img src=""static/images/cards/back_of_black_bolts.svg"" width=""175px"" height=""250px""></img></td>
  </tr>
  <tr height=200>
    <td width=300><img src=""static/images/keys/z.svg"" width=""35%"" height=""75%""></img></td>
    <td width=300></td>
  </tr>
</table>
  ",90.0,1.0,,,,,,,,,,,,,,,,,,,,,,,,,,
210,0,,html-keyboard-response,210,556598,0.0-7.12-2.12,dx9tn8b21gk,2022-09-19 14:52:41.470,5ea045b29cb1f005b19a4b32,3,29,48,60,40,48,male,,,"
  <table>
  <tr height=300>
    <td width=300 height=300><img src=""static/images/cards/1_of_black_bolts.svg"" width=""175px"" height=""250px""></img></td>
    <td width=300 height=300><img src=""static/images/cards/back_of_black_bolts.svg"" width=""175px"" height=""250px""></img></td>
  </tr>
  <tr height=200>
    <td width=300><img src=""static/images/keys/z.svg"" width=""35%"" height=""75%""></img></td>
    <td width=300></td>
  </tr>
</table>
  ",,,,,,,,,,,,,,,,,,,,,,,,,,,,
211,0,,html-keyboard-response,211,558124,0.0-7.12-3.12,dx9tn8b21gk,2022-09-19 14:52:41.470,5ea045b29cb1f005b19a4b32,3,29,48,60,40,48,male,,,"<p style=""font-size:50px"">You win!
+10 points this round!</p>",,,,,,,,,,,,,,,,,,,,,,,,,,,,
212,0,,html-keyboard-response,212,558644,0.0-7.12-4.12,dx9tn8b21gk,2022-09-19 14:52:41.470,5ea045b29cb1f005b19a4b32,3,29,48,60,40,48,male,,,,,,1.0,choice,12.0,D,Xnc,red,black,stars,bolts,D,Xnc,Xnc,black,bolts,1227.4000000358,0.0,0.0,1,left,1304.4000000358,1.0,0.0,1.0,,,
213,0,,html-keyboard-response,213,560880,0.0-7.13-0.13,dx9tn8b21gk,2022-09-19 14:52:41.470,5ea045b29cb1f005b19a4b32,3,29,48,60,40,48,male,2233.1999999881,,"
  <table>
  <tr height=300>
    <td width=300 height=300><img src=""static/images/cards/stack_of_red_moons.svg"" width=""175px"" height=""250px""></img></td>
    <td width=300 height=300><img src=""static/images/cards/stack_of_black_stars.svg"" width=""175px"" height=""250px""></img></td>
  </tr>
  <tr height=200>
    <td width=300><img src=""static/images/keys/w.svg"" width=""35%"" height=""75%""></img></td>
    <td width=300><img src=""static/images/keys/o.svg"" width=""35%"" height=""75%""></img></td>
  </tr>
</table>
  ",87.0,1.0,,,,,,,,,,,,,,,,,,,,,,,,,,
214,0,,html-keyboard-response,214,562516,0.0-7.13-1.13,dx9tn8b21gk,2022-09-19 14:52:41.470,5ea045b29cb1f005b19a4b32,3,29,48,60,40,48,male,1127.3999999762,,"
  <table>
  <tr height=300>
    <td width=300 height=300><img src=""static/images/cards/back_of_red_moons.svg"" width=""175px"" height=""250px""></img></td>
    <td width=300 height=300><img src=""static/images/cards/back_of_red_moons.svg"" width=""175px"" height=""250px""></img></td>
  </tr>
  <tr height=200>
    <td width=300><img src=""static/images/keys/z.svg"" width=""35%"" height=""75%""></img></td>
    <td width=300></td>
  </tr>
</table>
  ",90.0,1.0,,,,,,,,,,,,,,,,,,,,,,,,,,
215,0,,html-keyboard-response,215,564033,0.0-7.13-2.13,dx9tn8b21gk,2022-09-19 14:52:41.470,5ea045b29cb1f005b19a4b32,3,29,48,60,40,48,male,,,"
  <table>
  <tr height=300>
    <td width=300 height=300><img src=""static/images/cards/4_of_red_moons.svg"" width=""175px"" height=""250px""></img></td>
    <td width=300 height=300><img src=""static/images/cards/back_of_red_moons.svg"" width=""175px"" height=""250px""></img></td>
  </tr>
  <tr height=200>
    <td width=300><img src=""static/images/keys/z.svg"" width=""35%"" height=""75%""></img></td>
    <td width=300></td>
  </tr>
</table>
  ",,,,,,,,,,,,,,,,,,,,,,,,,,,,
216,0,,html-keyboard-response,216,565569,0.0-7.13-3.13,dx9tn8b21gk,2022-09-19 14:52:41.470,5ea045b29cb1f005b19a4b32,3,29,48,60,40,48,male,,,"<p style=""font-size:50px"">You Lose!
No points this round.</p>",,,,,,,,,,,,,,,,,,,,,,,,,,,,
217,0,,html-keyboard-response,217,566102,0.0-7.13-4.13,dx9tn8b21gk,2022-09-19 14:52:41.470,5ea045b29cb1f005b19a4b32,3,29,48,60,40,48,male,,,,,,1.0,choice,13.0,B,C,red,black,moons,stars,B,C,B,red,moons,2233.1999999881,0.0,1.0,1,left,1127.3999999762,4.0,0.0,0.0,,,
218,0,,html-keyboard-response,218,568064,0.0-7.14-0.14,dx9tn8b21gk,2022-09-19 14:52:41.470,5ea045b29cb1f005b19a4b32,3,29,48,60,40,48,male,1959.5,,"
  <table>
  <tr height=300>
    <td width=300 height=300><img src=""static/images/cards/stack_of_black_bolts.svg"" width=""175px"" height=""250px""></img></td>
    <td width=300 height=300><img src=""static/images/cards/stack_of_black_stars.svg"" width=""175px"" height=""250px""></img></td>
  </tr>
  <tr height=200>
    <td width=300><img src=""static/images/keys/w.svg"" width=""35%"" height=""75%""></img></td>
    <td width=300><img src=""static/images/keys/o.svg"" width=""35%"" height=""75%""></img></td>
  </tr>
</table>
  ",87.0,1.0,,,,,,,,,,,,,,,,,,,,,,,,,,
219,0,,html-keyboard-response,219,569384,0.0-7.14-1.14,dx9tn8b21gk,2022-09-19 14:52:41.470,5ea045b29cb1f005b19a4b32,3,29,48,60,40,48,male,803.8999999762,,"
  <table>
  <tr height=300>
    <td width=300 height=300><img src=""static/images/cards/back_of_black_bolts.svg"" width=""175px"" height=""250px""></img></td>
    <td width=300 height=300><img src=""static/images/cards/back_of_black_bolts.svg"" width=""175px"" height=""250px""></img></td>
  </tr>
  <tr height=200>
    <td width=300></td>
    <td width=300><img src=""static/images/keys/m.svg"" width=""35%"" height=""75%""></img></td>
  </tr>
</table>
  ",77.0,1.0,,,,,,,,,,,,,,,,,,,,,,,,,,
220,0,,html-keyboard-response,220,570892,0.0-7.14-2.14,dx9tn8b21gk,2022-09-19 14:52:41.470,5ea045b29cb1f005b19a4b32,3,29,48,60,40,48,male,,,"
  <table>
  <tr height=300>
    <td width=300 height=300><img src=""static/images/cards/back_of_black_bolts.svg"" width=""175px"" height=""250px""></img></td>
    <td width=300 height=300><img src=""static/images/cards/10_of_black_bolts.svg"" width=""175px"" height=""250px""></img></td>
  </tr>
  <tr height=200>
    <td width=300></td>
    <td width=300><img src=""static/images/keys/m.svg"" width=""35%"" height=""75%""></img></td>
  </tr>
</table>
  ",,,,,,,,,,,,,,,,,,,,,,,,,,,,
221,0,,html-keyboard-response,221,572420,0.0-7.14-3.14,dx9tn8b21gk,2022-09-19 14:52:41.470,5ea045b29cb1f005b19a4b32,3,29,48,60,40,48,male,,,"<p style=""font-size:50px"">You win!
+10 points this round!</p>",,,,,,,,,,,,,,,,,,,,,,,,,,,,
222,0,,html-keyboard-response,222,572940,0.0-7.14-4.14,dx9tn8b21gk,2022-09-19 14:52:41.470,5ea045b29cb1f005b19a4b32,3,29,48,60,40,48,male,,,,,,1.0,choice,14.0,C,Xnc,black,black,bolts,stars,Xnc,C,Xnc,black,bolts,1959.5,0.0,0.0,0,right,803.8999999762,10.0,1.0,1.0,,,
223,0,,html-keyboard-response,223,574958,0.0-7.15-0.15,dx9tn8b21gk,2022-09-19 14:52:41.470,5ea045b29cb1f005b19a4b32,3,29,48,60,40,48,male,2015.0,,"
  <table>
  <tr height=300>
    <td width=300 height=300><img src=""static/images/cards/stack_of_red_stars.svg"" width=""175px"" height=""250px""></img></td>
    <td width=300 height=300><img src=""static/images/cards/stack_of_black_stars.svg"" width=""175px"" height=""250px""></img></td>
  </tr>
  <tr height=200>
    <td width=300><img src=""static/images/keys/w.svg"" width=""35%"" height=""75%""></img></td>
    <td width=300><img src=""static/images/keys/o.svg"" width=""35%"" height=""75%""></img></td>
  </tr>
</table>
  ",79.0,1.0,,,,,,,,,,,,,,,,,,,,,,,,,,
224,0,,html-keyboard-response,224,577155,0.0-7.15-1.15,dx9tn8b21gk,2022-09-19 14:52:41.470,5ea045b29cb1f005b19a4b32,3,29,48,60,40,48,male,1681.3999999762,,"
  <table>
  <tr height=300>
    <td width=300 height=300><img src=""static/images/cards/back_of_black_stars.svg"" width=""175px"" height=""250px""></img></td>
    <td width=300 height=300><img src=""static/images/cards/back_of_black_stars.svg"" width=""175px"" height=""250px""></img></td>
  </tr>
  <tr height=200>
    <td width=300><img src=""static/images/keys/z.svg"" width=""35%"" height=""75%""></img></td>
    <td width=300><img src=""static/images/keys/m.svg"" width=""35%"" height=""75%""></img></td>
  </tr>
</table>
  ",90.0,1.0,,,,,,,,,,,,,,,,,,,,,,,,,,
225,0,,html-keyboard-response,225,578667,0.0-7.15-2.15,dx9tn8b21gk,2022-09-19 14:52:41.470,5ea045b29cb1f005b19a4b32,3,29,48,60,40,48,male,,,"
  <table>
  <tr height=300>
    <td width=300 height=300><img src=""static/images/cards/8_of_black_stars.svg"" width=""175px"" height=""250px""></img></td>
    <td width=300 height=300><img src=""static/images/cards/back_of_black_stars.svg"" width=""175px"" height=""250px""></img></td>
  </tr>
  <tr height=200>
    <td width=300><img src=""static/images/keys/z.svg"" width=""35%"" height=""75%""></img></td>
    <td width=300><img src=""static/images/keys/m.svg"" width=""35%"" height=""75%""></img></td>
  </tr>
</table>
  ",,,,,,,,,,,,,,,,,,,,,,,,,,,,
226,0,,html-keyboard-response,226,580186,0.0-7.15-3.15,dx9tn8b21gk,2022-09-19 14:52:41.470,5ea045b29cb1f005b19a4b32,3,29,48,60,40,48,male,,,"<p style=""font-size:50px"">You win!
+10 points this round!</p>",,,,,,,,,,,,,,,,,,,,,,,,,,,,
227,0,,html-keyboard-response,227,580704,0.0-7.15-4.15,dx9tn8b21gk,2022-09-19 14:52:41.470,5ea045b29cb1f005b19a4b32,3,29,48,60,40,48,male,,,,,,1.0,choice,15.0,C,D,red,black,stars,stars,D,C,C,black,stars,2015.0,1.0,0.0,NA,left,1681.3999999762,8.0,1.0,1.0,,,
228,0,,html-keyboard-response,228,582240,0.0-7.16-0.16,dx9tn8b21gk,2022-09-19 14:52:41.470,5ea045b29cb1f005b19a4b32,3,29,48,60,40,48,male,1533.0,,"
  <table>
  <tr height=300>
    <td width=300 height=300><img src=""static/images/cards/stack_of_black_stars.svg"" width=""175px"" height=""250px""></img></td>
    <td width=300 height=300><img src=""static/images/cards/stack_of_red_moons.svg"" width=""175px"" height=""250px""></img></td>
  </tr>
  <tr height=200>
    <td width=300><img src=""static/images/keys/w.svg"" width=""35%"" height=""75%""></img></td>
    <td width=300><img src=""static/images/keys/o.svg"" width=""35%"" height=""75%""></img></td>
  </tr>
</table>
  ",79.0,1.0,,,,,,,,,,,,,,,,,,,,,,,,,,
229,0,,html-keyboard-response,229,583810,0.0-7.16-1.16,dx9tn8b21gk,2022-09-19 14:52:41.470,5ea045b29cb1f005b19a4b32,3,29,48,60,40,48,male,1066.3000000119,,"
  <table>
  <tr height=300>
    <td width=300 height=300><img src=""static/images/cards/back_of_red_moons.svg"" width=""175px"" height=""250px""></img></td>
    <td width=300 height=300><img src=""static/images/cards/back_of_red_moons.svg"" width=""175px"" height=""250px""></img></td>
  </tr>
  <tr height=200>
    <td width=300><img src=""static/images/keys/z.svg"" width=""35%"" height=""75%""></img></td>
    <td width=300></td>
  </tr>
</table>
  ",90.0,1.0,,,,,,,,,,,,,,,,,,,,,,,,,,
230,0,,html-keyboard-response,230,585323,0.0-7.16-2.16,dx9tn8b21gk,2022-09-19 14:52:41.470,5ea045b29cb1f005b19a4b32,3,29,48,60,40,48,male,,,"
  <table>
  <tr height=300>
    <td width=300 height=300><img src=""static/images/cards/9_of_red_moons.svg"" width=""175px"" height=""250px""></img></td>
    <td width=300 height=300><img src=""static/images/cards/back_of_red_moons.svg"" width=""175px"" height=""250px""></img></td>
  </tr>
  <tr height=200>
    <td width=300><img src=""static/images/keys/z.svg"" width=""35%"" height=""75%""></img></td>
    <td width=300></td>
  </tr>
</table>
  ",,,,,,,,,,,,,,,,,,,,,,,,,,,,
231,0,,html-keyboard-response,231,586828,0.0-7.16-3.16,dx9tn8b21gk,2022-09-19 14:52:41.470,5ea045b29cb1f005b19a4b32,3,29,48,60,40,48,male,,,"<p style=""font-size:50px"">You win!
+10 points this round!</p>",,,,,,,,,,,,,,,,,,,,,,,,,,,,
232,0,,html-keyboard-response,232,587358,0.0-7.16-4.16,dx9tn8b21gk,2022-09-19 14:52:41.470,5ea045b29cb1f005b19a4b32,3,29,48,60,40,48,male,,,,,,1.0,choice,16.0,B,C,black,red,stars,moons,C,B,B,red,moons,1533.0,0.0,1.0,1,left,1066.3000000119,9.0,1.0,1.0,,,
233,0,,html-keyboard-response,233,588857,0.0-7.17-0.17,dx9tn8b21gk,2022-09-19 14:52:41.470,5ea045b29cb1f005b19a4b32,3,29,48,60,40,48,male,1495.8999999762,,"
  <table>
  <tr height=300>
    <td width=300 height=300><img src=""static/images/cards/stack_of_black_moons.svg"" width=""175px"" height=""250px""></img></td>
    <td width=300 height=300><img src=""static/images/cards/stack_of_black_stars.svg"" width=""175px"" height=""250px""></img></td>
  </tr>
  <tr height=200>
    <td width=300><img src=""static/images/keys/w.svg"" width=""35%"" height=""75%""></img></td>
    <td width=300><img src=""static/images/keys/o.svg"" width=""35%"" height=""75%""></img></td>
  </tr>
