,index,success,trial_type,trial_index,time_elapsed,internal_node_id,subject,date,prol_id,ctbl,sense_of_control_A,sense_of_control_B,sense_of_control_C,sense_of_control_D,age,gender,rt,url,stimulus,key_press,npress,is_data_trial,phase,trial,deck1,deck2,col1,col2,sym1,sym2,deck_l,deck_r,chosen_deck,chosen_col,chosen_sym,deck_rt,choose_choice,mutual_info,hidden_key,chosen_card,card_rt,player_num,win_card,outcome,mock_rating,response,responses
0,0,1.0,fullscreen,0,3248,0.0-0.0,2r9bftd335a,2022-09-19 16:24:55.701,5ea3aa462d77061c2a8fc5d6,3,55,57,70,70,28,male,,,,,,,,,,,,,,,,,,,,,,,,,,,,,,,
1,0,,external-html,1,8004,0.0-1.0,2r9bftd335a,2022-09-19 16:24:55.701,5ea3aa462d77061c2a8fc5d6,3,55,57,70,70,28,male,4727.6000000238,static/js/sub/consent.html,,,,,,,,,,,,,,,,,,,,,,,,,,,,,
2,0,,call-function,2,8005,0.0-2.0,2r9bftd335a,2022-09-19 16:24:55.701,5ea3aa462d77061c2a8fc5d6,3,55,57,70,70,28,male,,,,,,,,,,,,,,,,,,,,,,,,,,,,,,,
3,0,,image-keyboard-response,3,14431,0.0-3.0-0.0,2r9bftd335a,2022-09-19 16:24:55.701,5ea3aa462d77061c2a8fc5d6,3,55,57,70,70,28,male,6425.1000000238,,static/images/instructions_CB_3/Slide1.png,39.0,,,,,,,,,,,,,,,,,,,,,,,,,,,
4,0,,image-keyboard-response,4,22978,0.0-3.1-0.1,2r9bftd335a,2022-09-19 16:24:55.701,5ea3aa462d77061c2a8fc5d6,3,55,57,70,70,28,male,8544.3000000119,,static/images/instructions_CB_3/Slide2.png,39.0,,,,,,,,,,,,,,,,,,,,,,,,,,,
5,0,,image-keyboard-response,5,27397,0.0-3.2-0.2,2r9bftd335a,2022-09-19 16:24:55.701,5ea3aa462d77061c2a8fc5d6,3,55,57,70,70,28,male,4417.7999999523,,static/images/instructions_CB_3/Slide3.png,39.0,,,,,,,,,,,,,,,,,,,,,,,,,,,
6,0,,image-keyboard-response,6,31037,0.0-3.3-0.3,2r9bftd335a,2022-09-19 16:24:55.701,5ea3aa462d77061c2a8fc5d6,3,55,57,70,70,28,male,3639.2999999523,,static/images/instructions_CB_3/Slide4.png,39.0,,,,,,,,,,,,,,,,,,,,,,,,,,,
7,0,,image-keyboard-response,7,37058,0.0-3.4-0.4,2r9bftd335a,2022-09-19 16:24:55.701,5ea3aa462d77061c2a8fc5d6,3,55,57,70,70,28,male,6019.8000000119,,static/images/instructions_CB_3/Slide5.png,39.0,,,,,,,,,,,,,,,,,,,,,,,,,,,
8,0,,image-keyboard-response,8,38965,0.0-3.5-0.5,2r9bftd335a,2022-09-19 16:24:55.701,5ea3aa462d77061c2a8fc5d6,3,55,57,70,70,28,male,1906.0,,static/images/instructions_CB_3/Slide6.png,39.0,,,,,,,,,,,,,,,,,,,,,,,,,,,
9,0,,image-keyboard-response,9,41709,0.0-3.6-0.6,2r9bftd335a,2022-09-19 16:24:55.701,5ea3aa462d77061c2a8fc5d6,3,55,57,70,70,28,male,2742.5999999642,,static/images/instructions_CB_3/Slide7.png,39.0,,,,,,,,,,,,,,,,,,,,,,,,,,,
10,0,,image-keyboard-response,10,52622,0.0-3.7-0.7,2r9bftd335a,2022-09-19 16:24:55.701,5ea3aa462d77061c2a8fc5d6,3,55,57,70,70,28,male,10911.9000000358,,static/images/instructions_CB_3/Slide8.png,39.0,,,,,,,,,,,,,,,,,,,,,,,,,,,
11,0,,image-keyboard-response,11,57453,0.0-3.8-0.8,2r9bftd335a,2022-09-19 16:24:55.701,5ea3aa462d77061c2a8fc5d6,3,55,57,70,70,28,male,4830.1000000238,,static/images/instructions_CB_3/Slide9.png,39.0,,,,,,,,,,,,,,,,,,,,,,,,,,,
12,0,,image-keyboard-response,12,68080,0.0-3.9-0.9,2r9bftd335a,2022-09-19 16:24:55.701,5ea3aa462d77061c2a8fc5d6,3,55,57,70,70,28,male,10631.6999999881,,static/images/instructions_CB_3/Slide10.png,39.0,,,,,,,,,,,,,,,,,,,,,,,,,,,
13,0,,image-keyboard-response,13,70030,0.0-3.10-0.10,2r9bftd335a,2022-09-19 16:24:55.701,5ea3aa462d77061c2a8fc5d6,3,55,57,70,70,28,male,1949.1000000238,,static/images/instructions_CB_3/Slide11.png,39.0,,,,,,,,,,,,,,,,,,,,,,,,,,,
14,0,,image-keyboard-response,14,80052,0.0-3.11-0.11,2r9bftd335a,2022-09-19 16:24:55.701,5ea3aa462d77061c2a8fc5d6,3,55,57,70,70,28,male,10021.8000000119,,static/images/instructions_CB_3/Slide12.png,39.0,,,,,,,,,,,,,,,,,,,,,,,,,,,
15,0,,image-keyboard-response,15,91716,0.0-3.12-0.12,2r9bftd335a,2022-09-19 16:24:55.701,5ea3aa462d77061c2a8fc5d6,3,55,57,70,70,28,male,11663.2000000477,,static/images/instructions_CB_3/Slide13.png,39.0,,,,,,,,,,,,,,,,,,,,,,,,,,,
16,0,,image-keyboard-response,16,97471,0.0-3.13-0.13,2r9bftd335a,2022-09-19 16:24:55.701,5ea3aa462d77061c2a8fc5d6,3,55,57,70,70,28,male,5754.3999999762,,static/images/instructions_CB_3/Slide14.png,39.0,,,,,,,,,,,,,,,,,,,,,,,,,,,
17,0,,image-keyboard-response,17,102863,0.0-3.14-0.14,2r9bftd335a,2022-09-19 16:24:55.701,5ea3aa462d77061c2a8fc5d6,3,55,57,70,70,28,male,5390.0,,static/images/instructions_CB_3/Slide15.png,39.0,,,,,,,,,,,,,,,,,,,,,,,,,,,
18,0,,image-keyboard-response,18,110327,0.0-3.15-0.15,2r9bftd335a,2022-09-19 16:24:55.701,5ea3aa462d77061c2a8fc5d6,3,55,57,70,70,28,male,7463.4000000358,,static/images/instructions_CB_3/Slide16.png,39.0,,,,,,,,,,,,,,,,,,,,,,,,,,,
19,0,,image-keyboard-response,19,118029,0.0-3.16-0.16,2r9bftd335a,2022-09-19 16:24:55.701,5ea3aa462d77061c2a8fc5d6,3,55,57,70,70,28,male,7699.9000000358,,static/images/instructions_CB_3/Slide17.png,39.0,,,,,,,,,,,,,,,,,,,,,,,,,,,
20,0,,image-keyboard-response,20,122647,0.0-3.17-0.17,2r9bftd335a,2022-09-19 16:24:55.701,5ea3aa462d77061c2a8fc5d6,3,55,57,70,70,28,male,4618.1999999881,,static/images/instructions_CB_3/Slide18.png,39.0,,,,,,,,,,,,,,,,,,,,,,,,,,,
21,0,,image-keyboard-response,21,126735,0.0-3.18-0.18,2r9bftd335a,2022-09-19 16:24:55.701,5ea3aa462d77061c2a8fc5d6,3,55,57,70,70,28,male,4086.6999999881,,static/images/instructions_CB_3/Slide19.png,39.0,,,,,,,,,,,,,,,,,,,,,,,,,,,
22,0,,html-keyboard-response,22,128250,0.0-4.0-0.0,2r9bftd335a,2022-09-19 16:24:55.701,5ea3aa462d77061c2a8fc5d6,3,55,57,70,70,28,male,,,"<img src=""static/images/cards/stack_of_black_moons.svg"" width=""175px"" height=""250px""></img>",,,,,,,,,,,,,,,,,,,,,,,,,,,,
23,0,,html-keyboard-response,23,130335,0.0-4.0-1.0,2r9bftd335a,2022-09-19 16:24:55.701,5ea3aa462d77061c2a8fc5d6,3,55,57,70,70,28,male,1580.6999999881,,"
  <table>
  <tr height=300>
    <td width=300 height=300><img src=""static/images/cards/back_of_black_moons.svg"" width=""175px"" height=""250px""></img></td>
    <td width=300 height=300><img src=""static/images/cards/back_of_black_moons.svg"" width=""175px"" height=""250px""></img></td>
  </tr>
  <tr height=200>
    <td width=300><img src=""static/images/keys/z.svg"" width=""35%"" height=""75%""></img></td>
    <td width=300><img src=""static/images/keys/m.svg"" width=""35%"" height=""75%""></img></td>
  </tr>
</table>
  ",77.0,1.0,,,,,,,,,,,,,,,,,,,,,,,,,,
24,0,,html-keyboard-response,24,131839,0.0-4.0-2.0,2r9bftd335a,2022-09-19 16:24:55.701,5ea3aa462d77061c2a8fc5d6,3,55,57,70,70,28,male,,,"
  <table>
  <tr height=300>
    <td width=300 height=300><img src=""static/images/cards/back_of_black_moons.svg"" width=""175px"" height=""250px""></img></td>
    <td width=300 height=300><img src=""static/images/cards/1_of_black_moons.svg"" width=""175px"" height=""250px""></img></td>
  </tr>
  <tr height=200>
    <td width=300><img src=""static/images/keys/z.svg"" width=""35%"" height=""75%""></img></td>
    <td width=300><img src=""static/images/keys/m.svg"" width=""35%"" height=""75%""></img></td>
  </tr>
</table>
  ",,,,,,,,,,,,,,,,,,,,,,,,,,,,
25,0,,html-keyboard-response,25,133342,0.0-4.0-3.0,2r9bftd335a,2022-09-19 16:24:55.701,5ea3aa462d77061c2a8fc5d6,3,55,57,70,70,28,male,,,"<p style=""font-size:50px"">You Lose!
No points this round.</p>",,,,,,,,,,,,,,,,,,,,,,,,,,,,
26,0,,html-keyboard-response,26,133847,0.0-4.0-4.0,2r9bftd335a,2022-09-19 16:24:55.701,5ea3aa462d77061c2a8fc5d6,3,55,57,70,70,28,male,,,,,,1.0,learning,0.0,A,,black,,moons,,,,A,black,moons,,1.0,1.0,NA,right,1580.6999999881,1.0,0.0,0.0,,,
27,0,,html-keyboard-response,27,135361,0.0-4.1-0.1,2r9bftd335a,2022-09-19 16:24:55.701,5ea3aa462d77061c2a8fc5d6,3,55,57,70,70,28,male,,,"<img src=""static/images/cards/stack_of_red_moons.svg"" width=""175px"" height=""250px""></img>",,,,,,,,,,,,,,,,,,,,,,,,,,,,
28,0,,html-keyboard-response,28,137066,0.0-4.1-1.1,2r9bftd335a,2022-09-19 16:24:55.701,5ea3aa462d77061c2a8fc5d6,3,55,57,70,70,28,male,1203.0,,"
  <table>
  <tr height=300>
    <td width=300 height=300><img src=""static/images/cards/back_of_red_moons.svg"" width=""175px"" height=""250px""></img></td>
    <td width=300 height=300><img src=""static/images/cards/back_of_red_moons.svg"" width=""175px"" height=""250px""></img></td>
  </tr>
  <tr height=200>
    <td width=300><img src=""static/images/keys/z.svg"" width=""35%"" height=""75%""></img></td>
    <td width=300></td>
  </tr>
</table>
  ",90.0,1.0,,,,,,,,,,,,,,,,,,,,,,,,,,
29,0,,html-keyboard-response,29,138581,0.0-4.1-2.1,2r9bftd335a,2022-09-19 16:24:55.701,5ea3aa462d77061c2a8fc5d6,3,55,57,70,70,28,male,,,"
  <table>
  <tr height=300>
    <td width=300 height=300><img src=""static/images/cards/1_of_red_moons.svg"" width=""175px"" height=""250px""></img></td>
    <td width=300 height=300><img src=""static/images/cards/back_of_red_moons.svg"" width=""175px"" height=""250px""></img></td>
  </tr>
  <tr height=200>
    <td width=300><img src=""static/images/keys/z.svg"" width=""35%"" height=""75%""></img></td>
    <td width=300></td>
  </tr>
</table>
  ",,,,,,,,,,,,,,,,,,,,,,,,,,,,
30,0,,html-keyboard-response,30,140099,0.0-4.1-3.1,2r9bftd335a,2022-09-19 16:24:55.701,5ea3aa462d77061c2a8fc5d6,3,55,57,70,70,28,male,,,"<p style=""font-size:50px"">You Lose!
No points this round.</p>",,,,,,,,,,,,,,,,,,,,,,,,,,,,
31,0,,html-keyboard-response,31,140626,0.0-4.1-4.1,2r9bftd335a,2022-09-19 16:24:55.701,5ea3aa462d77061c2a8fc5d6,3,55,57,70,70,28,male,,,,,,1.0,learning,1.0,B,,red,,moons,,,,B,red,moons,,0.0,1.0,1,left,1203.0,1.0,0.0,0.0,,,
32,0,,html-keyboard-response,32,142139,0.0-4.2-0.2,2r9bftd335a,2022-09-19 16:24:55.701,5ea3aa462d77061c2a8fc5d6,3,55,57,70,70,28,male,,,"<img src=""static/images/cards/stack_of_black_stars.svg"" width=""175px"" height=""250px""></img>",,,,,,,,,,,,,,,,,,,,,,,,,,,,
33,0,,html-keyboard-response,33,143956,0.0-4.2-1.2,2r9bftd335a,2022-09-19 16:24:55.701,5ea3aa462d77061c2a8fc5d6,3,55,57,70,70,28,male,1298.5999999642,,"
  <table>
  <tr height=300>
    <td width=300 height=300><img src=""static/images/cards/back_of_black_stars.svg"" width=""175px"" height=""250px""></img></td>
    <td width=300 height=300><img src=""static/images/cards/back_of_black_stars.svg"" width=""175px"" height=""250px""></img></td>
  </tr>
  <tr height=200>
    <td width=300><img src=""static/images/keys/z.svg"" width=""35%"" height=""75%""></img></td>
    <td width=300><img src=""static/images/keys/m.svg"" width=""35%"" height=""75%""></img></td>
  </tr>
</table>
  ",77.0,1.0,,,,,,,,,,,,,,,,,,,,,,,,,,
34,0,,html-keyboard-response,34,145460,0.0-4.2-2.2,2r9bftd335a,2022-09-19 16:24:55.701,5ea3aa462d77061c2a8fc5d6,3,55,57,70,70,28,male,,,"
  <table>
  <tr height=300>
    <td width=300 height=300><img src=""static/images/cards/back_of_black_stars.svg"" width=""175px"" height=""250px""></img></td>
    <td width=300 height=300><img src=""static/images/cards/3_of_black_stars.svg"" width=""175px"" height=""250px""></img></td>
  </tr>
  <tr height=200>
    <td width=300><img src=""static/images/keys/z.svg"" width=""35%"" height=""75%""></img></td>
    <td width=300><img src=""static/images/keys/m.svg"" width=""35%"" height=""75%""></img></td>
  </tr>
</table>
  ",,,,,,,,,,,,,,,,,,,,,,,,,,,,
35,0,,html-keyboard-response,35,146963,0.0-4.2-3.2,2r9bftd335a,2022-09-19 16:24:55.701,5ea3aa462d77061c2a8fc5d6,3,55,57,70,70,28,male,,,"<p style=""font-size:50px"">You win!
+10 points this round!</p>",,,,,,,,,,,,,,,,,,,,,,,,,,,,
36,0,,html-keyboard-response,36,147468,0.0-4.2-4.2,2r9bftd335a,2022-09-19 16:24:55.701,5ea3aa462d77061c2a8fc5d6,3,55,57,70,70,28,male,,,,,,1.0,learning,2.0,C,,black,,stars,,,,C,black,stars,,1.0,0.0,NA,right,1298.5999999642,3.0,0.0,1.0,,,
37,0,,html-keyboard-response,37,148982,0.0-4.3-0.3,2r9bftd335a,2022-09-19 16:24:55.701,5ea3aa462d77061c2a8fc5d6,3,55,57,70,70,28,male,,,"<img src=""static/images/cards/stack_of_red_stars.svg"" width=""175px"" height=""250px""></img>",,,,,,,,,,,,,,,,,,,,,,,,,,,,
38,0,,html-keyboard-response,38,150488,0.0-4.3-1.3,2r9bftd335a,2022-09-19 16:24:55.701,5ea3aa462d77061c2a8fc5d6,3,55,57,70,70,28,male,989.3999999762,,"
  <table>
  <tr height=300>
    <td width=300 height=300><img src=""static/images/cards/back_of_red_stars.svg"" width=""175px"" height=""250px""></img></td>
    <td width=300 height=300><img src=""static/images/cards/back_of_red_stars.svg"" width=""175px"" height=""250px""></img></td>
  </tr>
  <tr height=200>
    <td width=300><img src=""static/images/keys/z.svg"" width=""35%"" height=""75%""></img></td>
    <td width=300></td>
  </tr>
</table>
  ",90.0,1.0,,,,,,,,,,,,,,,,,,,,,,,,,,
39,0,,html-keyboard-response,39,152003,0.0-4.3-2.3,2r9bftd335a,2022-09-19 16:24:55.701,5ea3aa462d77061c2a8fc5d6,3,55,57,70,70,28,male,,,"
  <table>
  <tr height=300>
    <td width=300 height=300><img src=""static/images/cards/6_of_red_stars.svg"" width=""175px"" height=""250px""></img></td>
    <td width=300 height=300><img src=""static/images/cards/back_of_red_stars.svg"" width=""175px"" height=""250px""></img></td>
  </tr>
  <tr height=200>
    <td width=300><img src=""static/images/keys/z.svg"" width=""35%"" height=""75%""></img></td>
    <td width=300></td>
  </tr>
</table>
  ",,,,,,,,,,,,,,,,,,,,,,,,,,,,
40,0,,html-keyboard-response,40,153505,0.0-4.3-3.3,2r9bftd335a,2022-09-19 16:24:55.701,5ea3aa462d77061c2a8fc5d6,3,55,57,70,70,28,male,,,"<p style=""font-size:50px"">You win!
+10 points this round!</p>",,,,,,,,,,,,,,,,,,,,,,,,,,,,
41,0,,html-keyboard-response,41,154029,0.0-4.3-4.3,2r9bftd335a,2022-09-19 16:24:55.701,5ea3aa462d77061c2a8fc5d6,3,55,57,70,70,28,male,,,,,,1.0,learning,3.0,D,,red,,stars,,,,D,red,stars,,0.0,0.0,1,left,989.3999999762,6.0,1.0,1.0,,,
42,0,,html-keyboard-response,42,155531,0.0-4.4-0.4,2r9bftd335a,2022-09-19 16:24:55.701,5ea3aa462d77061c2a8fc5d6,3,55,57,70,70,28,male,,,"<img src=""static/images/cards/stack_of_red_bolts.svg"" width=""175px"" height=""250px""></img>",,,,,,,,,,,,,,,,,,,,,,,,,,,,
43,0,,html-keyboard-response,43,157079,0.0-4.4-1.4,2r9bftd335a,2022-09-19 16:24:55.701,5ea3aa462d77061c2a8fc5d6,3,55,57,70,70,28,male,1029.3999999762,,"
  <table>
  <tr height=300>
    <td width=300 height=300><img src=""static/images/cards/back_of_red_bolts.svg"" width=""175px"" height=""250px""></img></td>
    <td width=300 height=300><img src=""static/images/cards/back_of_red_bolts.svg"" width=""175px"" height=""250px""></img></td>
  </tr>
  <tr height=200>
    <td width=300><img src=""static/images/keys/z.svg"" width=""35%"" height=""75%""></img></td>
    <td width=300><img src=""static/images/keys/m.svg"" width=""35%"" height=""75%""></img></td>
  </tr>
</table>
  ",77.0,1.0,,,,,,,,,,,,,,,,,,,,,,,,,,
44,0,,html-keyboard-response,44,158583,0.0-4.4-2.4,2r9bftd335a,2022-09-19 16:24:55.701,5ea3aa462d77061c2a8fc5d6,3,55,57,70,70,28,male,,,"
  <table>
  <tr height=300>
    <td width=300 height=300><img src=""static/images/cards/back_of_red_bolts.svg"" width=""175px"" height=""250px""></img></td>
    <td width=300 height=300><img src=""static/images/cards/2_of_red_bolts.svg"" width=""175px"" height=""250px""></img></td>
  </tr>
  <tr height=200>
    <td width=300><img src=""static/images/keys/z.svg"" width=""35%"" height=""75%""></img></td>
    <td width=300><img src=""static/images/keys/m.svg"" width=""35%"" height=""75%""></img></td>
  </tr>
</table>
  ",,,,,,,,,,,,,,,,,,,,,,,,,,,,
45,0,,html-keyboard-response,45,160086,0.0-4.4-3.4,2r9bftd335a,2022-09-19 16:24:55.701,5ea3aa462d77061c2a8fc5d6,3,55,57,70,70,28,male,,,"<p style=""font-size:50px"">You win!
+10 points this round!</p>",,,,,,,,,,,,,,,,,,,,,,,,,,,,
46,0,,html-keyboard-response,46,160608,0.0-4.4-4.4,2r9bftd335a,2022-09-19 16:24:55.701,5ea3aa462d77061c2a8fc5d6,3,55,57,70,70,28,male,,,,,,1.0,learning,4.0,Xc,,red,,bolts,,,,Xc,red,bolts,,1.0,0.0,NA,right,1029.3999999762,2.0,0.0,1.0,,,
47,0,,html-keyboard-response,47,162121,0.0-4.5-0.5,2r9bftd335a,2022-09-19 16:24:55.701,5ea3aa462d77061c2a8fc5d6,3,55,57,70,70,28,male,,,"<img src=""static/images/cards/stack_of_black_bolts.svg"" width=""175px"" height=""250px""></img>",,,,,,,,,,,,,,,,,,,,,,,,,,,,
48,0,,html-keyboard-response,48,163722,0.0-4.5-1.5,2r9bftd335a,2022-09-19 16:24:55.701,5ea3aa462d77061c2a8fc5d6,3,55,57,70,70,28,male,1083.1999999881,,"
  <table>
  <tr height=300>
    <td width=300 height=300><img src=""static/images/cards/back_of_black_bolts.svg"" width=""175px"" height=""250px""></img></td>
    <td width=300 height=300><img src=""static/images/cards/back_of_black_bolts.svg"" width=""175px"" height=""250px""></img></td>
  </tr>
  <tr height=200>
    <td width=300><img src=""static/images/keys/z.svg"" width=""35%"" height=""75%""></img></td>
    <td width=300></td>
  </tr>
</table>
  ",90.0,1.0,,,,,,,,,,,,,,,,,,,,,,,,,,
49,0,,html-keyboard-response,49,165226,0.0-4.5-2.5,2r9bftd335a,2022-09-19 16:24:55.701,5ea3aa462d77061c2a8fc5d6,3,55,57,70,70,28,male,,,"
  <table>
  <tr height=300>
    <td width=300 height=300><img src=""static/images/cards/1_of_black_bolts.svg"" width=""175px"" height=""250px""></img></td>
    <td width=300 height=300><img src=""static/images/cards/back_of_black_bolts.svg"" width=""175px"" height=""250px""></img></td>
  </tr>
  <tr height=200>
    <td width=300><img src=""static/images/keys/z.svg"" width=""35%"" height=""75%""></img></td>
    <td width=300></td>
  </tr>
</table>
  ",,,,,,,,,,,,,,,,,,,,,,,,,,,,
50,0,,html-keyboard-response,50,166729,0.0-4.5-3.5,2r9bftd335a,2022-09-19 16:24:55.701,5ea3aa462d77061c2a8fc5d6,3,55,57,70,70,28,male,,,"<p style=""font-size:50px"">You win!
+10 points this round!</p>",,,,,,,,,,,,,,,,,,,,,,,,,,,,
51,0,,html-keyboard-response,51,167235,0.0-4.5-4.5,2r9bftd335a,2022-09-19 16:24:55.701,5ea3aa462d77061c2a8fc5d6,3,55,57,70,70,28,male,,,,,,1.0,learning,5.0,Xnc,,black,,bolts,,,,Xnc,black,bolts,,0.0,0.0,1,left,1083.1999999881,1.0,0.0,1.0,,,
52,0,,html-keyboard-response,52,168749,0.0-4.6-0.6,2r9bftd335a,2022-09-19 16:24:55.701,5ea3aa462d77061c2a8fc5d6,3,55,57,70,70,28,male,,,"<img src=""static/images/cards/stack_of_black_moons.svg"" width=""175px"" height=""250px""></img>",,,,,,,,,,,,,,,,,,,,,,,,,,,,
53,0,,html-keyboard-response,53,169935,0.0-4.6-1.6,2r9bftd335a,2022-09-19 16:24:55.701,5ea3aa462d77061c2a8fc5d6,3,55,57,70,70,28,male,662.6999999881,,"
  <table>
  <tr height=300>
    <td width=300 height=300><img src=""static/images/cards/back_of_black_moons.svg"" width=""175px"" height=""250px""></img></td>
    <td width=300 height=300><img src=""static/images/cards/back_of_black_moons.svg"" width=""175px"" height=""250px""></img></td>
  </tr>
  <tr height=200>
    <td width=300><img src=""static/images/keys/z.svg"" width=""35%"" height=""75%""></img></td>
    <td width=300><img src=""static/images/keys/m.svg"" width=""35%"" height=""75%""></img></td>
  </tr>
</table>
  ",90.0,1.0,,,,,,,,,,,,,,,,,,,,,,,,,,
54,0,,html-keyboard-response,54,171437,0.0-4.6-2.6,2r9bftd335a,2022-09-19 16:24:55.701,5ea3aa462d77061c2a8fc5d6,3,55,57,70,70,28,male,,,"
  <table>
  <tr height=300>
    <td width=300 height=300><img src=""static/images/cards/8_of_black_moons.svg"" width=""175px"" height=""250px""></img></td>
    <td width=300 height=300><img src=""static/images/cards/back_of_black_moons.svg"" width=""175px"" height=""250px""></img></td>
  </tr>
  <tr height=200>
    <td width=300><img src=""static/images/keys/z.svg"" width=""35%"" height=""75%""></img></td>
    <td width=300><img src=""static/images/keys/m.svg"" width=""35%"" height=""75%""></img></td>
  </tr>
</table>
  ",,,,,,,,,,,,,,,,,,,,,,,,,,,,
55,0,,html-keyboard-response,55,172955,0.0-4.6-3.6,2r9bftd335a,2022-09-19 16:24:55.701,5ea3aa462d77061c2a8fc5d6,3,55,57,70,70,28,male,,,"<p style=""font-size:50px"">You win!
+10 points this round!</p>",,,,,,,,,,,,,,,,,,,,,,,,,,,,
56,0,,html-keyboard-response,56,173460,0.0-4.6-4.6,2r9bftd335a,2022-09-19 16:24:55.701,5ea3aa462d77061c2a8fc5d6,3,55,57,70,70,28,male,,,,,,1.0,learning,6.0,A,,black,,moons,,,,A,black,moons,,1.0,1.0,NA,left,662.6999999881,8.0,1.0,1.0,,,
57,0,,html-keyboard-response,57,174980,0.0-4.7-0.7,2r9bftd335a,2022-09-19 16:24:55.701,5ea3aa462d77061c2a8fc5d6,3,55,57,70,70,28,male,,,"<img src=""static/images/cards/stack_of_red_moons.svg"" width=""175px"" height=""250px""></img>",,,,,,,,,,,,,,,,,,,,,,,,,,,,
58,0,,html-keyboard-response,58,175953,0.0-4.7-1.7,2r9bftd335a,2022-09-19 16:24:55.701,5ea3aa462d77061c2a8fc5d6,3,55,57,70,70,28,male,471.4000000358,,"
  <table>
  <tr height=300>
    <td width=300 height=300><img src=""static/images/cards/back_of_red_moons.svg"" width=""175px"" height=""250px""></img></td>
    <td width=300 height=300><img src=""static/images/cards/back_of_red_moons.svg"" width=""175px"" height=""250px""></img></td>
  </tr>
  <tr height=200>
    <td width=300><img src=""static/images/keys/z.svg"" width=""35%"" height=""75%""></img></td>
    <td width=300></td>
  </tr>
</table>
  ",90.0,1.0,,,,,,,,,,,,,,,,,,,,,,,,,,
59,0,,html-keyboard-response,59,177461,0.0-4.7-2.7,2r9bftd335a,2022-09-19 16:24:55.701,5ea3aa462d77061c2a8fc5d6,3,55,57,70,70,28,male,,,"
  <table>
  <tr height=300>
    <td width=300 height=300><img src=""static/images/cards/9_of_red_moons.svg"" width=""175px"" height=""250px""></img></td>
    <td width=300 height=300><img src=""static/images/cards/back_of_red_moons.svg"" width=""175px"" height=""250px""></img></td>
  </tr>
  <tr height=200>
    <td width=300><img src=""static/images/keys/z.svg"" width=""35%"" height=""75%""></img></td>
    <td width=300></td>
  </tr>
</table>
  ",,,,,,,,,,,,,,,,,,,,,,,,,,,,
60,0,,html-keyboard-response,60,178964,0.0-4.7-3.7,2r9bftd335a,2022-09-19 16:24:55.701,5ea3aa462d77061c2a8fc5d6,3,55,57,70,70,28,male,,,"<p style=""font-size:50px"">You win!
+10 points this round!</p>",,,,,,,,,,,,,,,,,,,,,,,,,,,,
61,0,,html-keyboard-response,61,179471,0.0-4.7-4.7,2r9bftd335a,2022-09-19 16:24:55.701,5ea3aa462d77061c2a8fc5d6,3,55,57,70,70,28,male,,,,,,1.0,learning,7.0,B,,red,,moons,,,,B,red,moons,,0.0,1.0,1,left,471.4000000358,9.0,1.0,1.0,,,
62,0,,html-keyboard-response,62,180990,0.0-4.8-0.8,2r9bftd335a,2022-09-19 16:24:55.701,5ea3aa462d77061c2a8fc5d6,3,55,57,70,70,28,male,,,"<img src=""static/images/cards/stack_of_black_stars.svg"" width=""175px"" height=""250px""></img>",,,,,,,,,,,,,,,,,,,,,,,,,,,,
63,0,,html-keyboard-response,63,182192,0.0-4.8-1.8,2r9bftd335a,2022-09-19 16:24:55.701,5ea3aa462d77061c2a8fc5d6,3,55,57,70,70,28,male,698.8000000119,,"
  <table>
  <tr height=300>
    <td width=300 height=300><img src=""static/images/cards/back_of_black_stars.svg"" width=""175px"" height=""250px""></img></td>
    <td width=300 height=300><img src=""static/images/cards/back_of_black_stars.svg"" width=""175px"" height=""250px""></img></td>
  </tr>
  <tr height=200>
    <td width=300><img src=""static/images/keys/z.svg"" width=""35%"" height=""75%""></img></td>
    <td width=300><img src=""static/images/keys/m.svg"" width=""35%"" height=""75%""></img></td>
  </tr>
</table>
  ",90.0,1.0,,,,,,,,,,,,,,,,,,,,,,,,,,
64,0,,html-keyboard-response,64,183696,0.0-4.8-2.8,2r9bftd335a,2022-09-19 16:24:55.701,5ea3aa462d77061c2a8fc5d6,3,55,57,70,70,28,male,,,"
  <table>
  <tr height=300>
    <td width=300 height=300><img src=""static/images/cards/4_of_black_stars.svg"" width=""175px"" height=""250px""></img></td>
    <td width=300 height=300><img src=""static/images/cards/back_of_black_stars.svg"" width=""175px"" height=""250px""></img></td>
  </tr>
  <tr height=200>
    <td width=300><img src=""static/images/keys/z.svg"" width=""35%"" height=""75%""></img></td>
    <td width=300><img src=""static/images/keys/m.svg"" width=""35%"" height=""75%""></img></td>
  </tr>
</table>
  ",,,,,,,,,,,,,,,,,,,,,,,,,,,,
65,0,,html-keyboard-response,65,185214,0.0-4.8-3.8,2r9bftd335a,2022-09-19 16:24:55.701,5ea3aa462d77061c2a8fc5d6,3,55,57,70,70,28,male,,,"<p style=""font-size:50px"">You Lose!
No points this round.</p>",,,,,,,,,,,,,,,,,,,,,,,,,,,,
66,0,,html-keyboard-response,66,185720,0.0-4.8-4.8,2r9bftd335a,2022-09-19 16:24:55.701,5ea3aa462d77061c2a8fc5d6,3,55,57,70,70,28,male,,,,,,1.0,learning,8.0,C,,black,,stars,,,,C,black,stars,,1.0,0.0,NA,left,698.8000000119,4.0,0.0,0.0,,,
67,0,,html-keyboard-response,67,187233,0.0-4.9-0.9,2r9bftd335a,2022-09-19 16:24:55.701,5ea3aa462d77061c2a8fc5d6,3,55,57,70,70,28,male,,,"<img src=""static/images/cards/stack_of_red_stars.svg"" width=""175px"" height=""250px""></img>",,,,,,,,,,,,,,,,,,,,,,,,,,,,
68,0,,html-keyboard-response,68,188854,0.0-4.9-1.9,2r9bftd335a,2022-09-19 16:24:55.701,5ea3aa462d77061c2a8fc5d6,3,55,57,70,70,28,male,1106.6999999881,,"
  <table>
  <tr height=300>
    <td width=300 height=300><img src=""static/images/cards/back_of_red_stars.svg"" width=""175px"" height=""250px""></img></td>
    <td width=300 height=300><img src=""static/images/cards/back_of_red_stars.svg"" width=""175px"" height=""250px""></img></td>
  </tr>
  <tr height=200>
    <td width=300></td>
    <td width=300><img src=""static/images/keys/m.svg"" width=""35%"" height=""75%""></img></td>
  </tr>
</table>
  ",77.0,1.0,,,,,,,,,,,,,,,,,,,,,,,,,,
69,0,,html-keyboard-response,69,190366,0.0-4.9-2.9,2r9bftd335a,2022-09-19 16:24:55.701,5ea3aa462d77061c2a8fc5d6,3,55,57,70,70,28,male,,,"
  <table>
  <tr height=300>
    <td width=300 height=300><img src=""static/images/cards/back_of_red_stars.svg"" width=""175px"" height=""250px""></img></td>
    <td width=300 height=300><img src=""static/images/cards/2_of_red_stars.svg"" width=""175px"" height=""250px""></img></td>
  </tr>
  <tr height=200>
    <td width=300></td>
    <td width=300><img src=""static/images/keys/m.svg"" width=""35%"" height=""75%""></img></td>
  </tr>
</table>
  ",,,,,,,,,,,,,,,,,,,,,,,,,,,,
70,0,,html-keyboard-response,70,191870,0.0-4.9-3.9,2r9bftd335a,2022-09-19 16:24:55.701,5ea3aa462d77061c2a8fc5d6,3,55,57,70,70,28,male,,,"<p style=""font-size:50px"">You Lose!
No points this round.</p>",,,,,,,,,,,,,,,,,,,,,,,,,,,,
71,0,,html-keyboard-response,71,192376,0.0-4.9-4.9,2r9bftd335a,2022-09-19 16:24:55.701,5ea3aa462d77061c2a8fc5d6,3,55,57,70,70,28,male,,,,,,1.0,learning,9.0,D,,red,,stars,,,,D,red,stars,,0.0,0.0,0,right,1106.6999999881,2.0,0.0,0.0,,,
72,0,,html-keyboard-response,72,193889,0.0-4.10-0.10,2r9bftd335a,2022-09-19 16:24:55.701,5ea3aa462d77061c2a8fc5d6,3,55,57,70,70,28,male,,,"<img src=""static/images/cards/stack_of_red_bolts.svg"" width=""175px"" height=""250px""></img>",,,,,,,,,,,,,,,,,,,,,,,,,,,,
73,0,,html-keyboard-response,73,194987,0.0-4.10-1.10,2r9bftd335a,2022-09-19 16:24:55.701,5ea3aa462d77061c2a8fc5d6,3,55,57,70,70,28,male,574.6999999881,,"
  <table>
  <tr height=300>
    <td width=300 height=300><img src=""static/images/cards/back_of_red_bolts.svg"" width=""175px"" height=""250px""></img></td>
    <td width=300 height=300><img src=""static/images/cards/back_of_red_bolts.svg"" width=""175px"" height=""250px""></img></td>
  </tr>
  <tr height=200>
    <td width=300><img src=""static/images/keys/z.svg"" width=""35%"" height=""75%""></img></td>
    <td width=300><img src=""static/images/keys/m.svg"" width=""35%"" height=""75%""></img></td>
  </tr>
</table>
  ",90.0,1.0,,,,,,,,,,,,,,,,,,,,,,,,,,
74,0,,html-keyboard-response,74,196494,0.0-4.10-2.10,2r9bftd335a,2022-09-19 16:24:55.701,5ea3aa462d77061c2a8fc5d6,3,55,57,70,70,28,male,,,"
  <table>
  <tr height=300>
    <td width=300 height=300><img src=""static/images/cards/10_of_red_bolts.svg"" width=""175px"" height=""250px""></img></td>
    <td width=300 height=300><img src=""static/images/cards/back_of_red_bolts.svg"" width=""175px"" height=""250px""></img></td>
  </tr>
  <tr height=200>
    <td width=300><img src=""static/images/keys/z.svg"" width=""35%"" height=""75%""></img></td>
    <td width=300><img src=""static/images/keys/m.svg"" width=""35%"" height=""75%""></img></td>
  </tr>
</table>
  ",,,,,,,,,,,,,,,,,,,,,,,,,,,,
75,0,,html-keyboard-response,75,197997,0.0-4.10-3.10,2r9bftd335a,2022-09-19 16:24:55.701,5ea3aa462d77061c2a8fc5d6,3,55,57,70,70,28,male,,,"<p style=""font-size:50px"">You win!
+10 points this round!</p>",,,,,,,,,,,,,,,,,,,,,,,,,,,,
76,0,,html-keyboard-response,76,198524,0.0-4.10-4.10,2r9bftd335a,2022-09-19 16:24:55.701,5ea3aa462d77061c2a8fc5d6,3,55,57,70,70,28,male,,,,,,1.0,learning,10.0,Xc,,red,,bolts,,,,Xc,red,bolts,,1.0,0.0,NA,left,574.6999999881,10.0,1.0,1.0,,,
77,0,,html-keyboard-response,77,200037,0.0-4.11-0.11,2r9bftd335a,2022-09-19 16:24:55.701,5ea3aa462d77061c2a8fc5d6,3,55,57,70,70,28,male,,,"<img src=""static/images/cards/stack_of_black_bolts.svg"" width=""175px"" height=""250px""></img>",,,,,,,,,,,,,,,,,,,,,,,,,,,,
78,0,,html-keyboard-response,78,201470,0.0-4.11-1.11,2r9bftd335a,2022-09-19 16:24:55.701,5ea3aa462d77061c2a8fc5d6,3,55,57,70,70,28,male,930.4000000358,,"
  <table>
  <tr height=300>
    <td width=300 height=300><img src=""static/images/cards/back_of_black_bolts.svg"" width=""175px"" height=""250px""></img></td>
    <td width=300 height=300><img src=""static/images/cards/back_of_black_bolts.svg"" width=""175px"" height=""250px""></img></td>
  </tr>
  <tr height=200>
    <td width=300></td>
    <td width=300><img src=""static/images/keys/m.svg"" width=""35%"" height=""75%""></img></td>
  </tr>
</table>
  ",77.0,1.0,,,,,,,,,,,,,,,,,,,,,,,,,,
79,0,,html-keyboard-response,79,202974,0.0-4.11-2.11,2r9bftd335a,2022-09-19 16:24:55.701,5ea3aa462d77061c2a8fc5d6,3,55,57,70,70,28,male,,,"
  <table>
  <tr height=300>
    <td width=300 height=300><img src=""static/images/cards/back_of_black_bolts.svg"" width=""175px"" height=""250px""></img></td>
    <td width=300 height=300><img src=""static/images/cards/2_of_black_bolts.svg"" width=""175px"" height=""250px""></img></td>
  </tr>
  <tr height=200>
    <td width=300></td>
    <td width=300><img src=""static/images/keys/m.svg"" width=""35%"" height=""75%""></img></td>
  </tr>
</table>
  ",,,,,,,,,,,,,,,,,,,,,,,,,,,,
80,0,,html-keyboard-response,80,204476,0.0-4.11-3.11,2r9bftd335a,2022-09-19 16:24:55.701,5ea3aa462d77061c2a8fc5d6,3,55,57,70,70,28,male,,,"<p style=""font-size:50px"">You win!
+10 points this round!</p>",,,,,,,,,,,,,,,,,,,,,,,,,,,,
81,0,,html-keyboard-response,81,204982,0.0-4.11-4.11,2r9bftd335a,2022-09-19 16:24:55.701,5ea3aa462d77061c2a8fc5d6,3,55,57,70,70,28,male,,,,,,1.0,learning,11.0,Xnc,,black,,bolts,,,,Xnc,black,bolts,,0.0,0.0,0,right,930.4000000358,2.0,0.0,1.0,,,
82,0,,html-keyboard-response,82,206496,0.0-4.12-0.12,2r9bftd335a,2022-09-19 16:24:55.701,5ea3aa462d77061c2a8fc5d6,3,55,57,70,70,28,male,,,"<img src=""static/images/cards/stack_of_black_moons.svg"" width=""175px"" height=""250px""></img>",,,,,,,,,,,,,,,,,,,,,,,,,,,,
83,0,,html-keyboard-response,83,207547,0.0-4.12-1.12,2r9bftd335a,2022-09-19 16:24:55.701,5ea3aa462d77061c2a8fc5d6,3,55,57,70,70,28,male,548.1000000238,,"
  <table>
  <tr height=300>
    <td width=300 height=300><img src=""static/images/cards/back_of_black_moons.svg"" width=""175px"" height=""250px""></img></td>
    <td width=300 height=300><img src=""static/images/cards/back_of_black_moons.svg"" width=""175px"" height=""250px""></img></td>
  </tr>
  <tr height=200>
    <td width=300><img src=""static/images/keys/z.svg"" width=""35%"" height=""75%""></img></td>
    <td width=300><img src=""static/images/keys/m.svg"" width=""35%"" height=""75%""></img></td>
  </tr>
</table>
  ",77.0,1.0,,,,,,,,,,,,,,,,,,,,,,,,,,
84,0,,html-keyboard-response,84,209053,0.0-4.12-2.12,2r9bftd335a,2022-09-19 16:24:55.701,5ea3aa462d77061c2a8fc5d6,3,55,57,70,70,28,male,,,"
  <table>
  <tr height=300>
    <td width=300 height=300><img src=""static/images/cards/back_of_black_moons.svg"" width=""175px"" height=""250px""></img></td>
    <td width=300 height=300><img src=""static/images/cards/1_of_black_moons.svg"" width=""175px"" height=""250px""></img></td>
  </tr>
  <tr height=200>
    <td width=300><img src=""static/images/keys/z.svg"" width=""35%"" height=""75%""></img></td>
    <td width=300><img src=""static/images/keys/m.svg"" width=""35%"" height=""75%""></img></td>
  </tr>
</table>
  ",,,,,,,,,,,,,,,,,,,,,,,,,,,,
85,0,,html-keyboard-response,85,210571,0.0-4.12-3.12,2r9bftd335a,2022-09-19 16:24:55.701,5ea3aa462d77061c2a8fc5d6,3,55,57,70,70,28,male,,,"<p style=""font-size:50px"">You Lose!
No points this round.</p>",,,,,,,,,,,,,,,,,,,,,,,,,,,,
86,0,,html-keyboard-response,86,211077,0.0-4.12-4.12,2r9bftd335a,2022-09-19 16:24:55.701,5ea3aa462d77061c2a8fc5d6,3,55,57,70,70,28,male,,,,,,1.0,learning,12.0,A,,black,,moons,,,,A,black,moons,,1.0,1.0,NA,right,548.1000000238,1.0,0.0,0.0,,,
87,0,,html-keyboard-response,87,212590,0.0-4.13-0.13,2r9bftd335a,2022-09-19 16:24:55.701,5ea3aa462d77061c2a8fc5d6,3,55,57,70,70,28,male,,,"<img src=""static/images/cards/stack_of_red_moons.svg"" width=""175px"" height=""250px""></img>",,,,,,,,,,,,,,,,,,,,,,,,,,,,
88,0,,html-keyboard-response,88,213590,0.0-4.13-1.13,2r9bftd335a,2022-09-19 16:24:55.701,5ea3aa462d77061c2a8fc5d6,3,55,57,70,70,28,male,483.4000000358,,"
  <table>
  <tr height=300>
    <td width=300 height=300><img src=""static/images/cards/back_of_red_moons.svg"" width=""175px"" height=""250px""></img></td>
    <td width=300 height=300><img src=""static/images/cards/back_of_red_moons.svg"" width=""175px"" height=""250px""></img></td>
  </tr>
  <tr height=200>
    <td width=300><img src=""static/images/keys/z.svg"" width=""35%"" height=""75%""></img></td>
    <td width=300></td>
  </tr>
</table>
  ",90.0,1.0,,,,,,,,,,,,,,,,,,,,,,,,,,
89,0,,html-keyboard-response,89,215094,0.0-4.13-2.13,2r9bftd335a,2022-09-19 16:24:55.701,5ea3aa462d77061c2a8fc5d6,3,55,57,70,70,28,male,,,"
  <table>
  <tr height=300>
    <td width=300 height=300><img src=""static/images/cards/8_of_red_moons.svg"" width=""175px"" height=""250px""></img></td>
    <td width=300 height=300><img src=""static/images/cards/back_of_red_moons.svg"" width=""175px"" height=""250px""></img></td>
  </tr>
  <tr height=200>
    <td width=300><img src=""static/images/keys/z.svg"" width=""35%"" height=""75%""></img></td>
    <td width=300></td>
  </tr>
</table>
  ",,,,,,,,,,,,,,,,,,,,,,,,,,,,
90,0,,html-keyboard-response,90,216612,0.0-4.13-3.13,2r9bftd335a,2022-09-19 16:24:55.701,5ea3aa462d77061c2a8fc5d6,3,55,57,70,70,28,male,,,"<p style=""font-size:50px"">You win!
+10 points this round!</p>",,,,,,,,,,,,,,,,,,,,,,,,,,,,
91,0,,html-keyboard-response,91,217117,0.0-4.13-4.13,2r9bftd335a,2022-09-19 16:24:55.701,5ea3aa462d77061c2a8fc5d6,3,55,57,70,70,28,male,,,,,,1.0,learning,13.0,B,,red,,moons,,,,B,red,moons,,0.0,1.0,1,left,483.4000000358,8.0,1.0,1.0,,,
92,0,,html-keyboard-response,92,218631,0.0-4.14-0.14,2r9bftd335a,2022-09-19 16:24:55.701,5ea3aa462d77061c2a8fc5d6,3,55,57,70,70,28,male,,,"<img src=""static/images/cards/stack_of_black_stars.svg"" width=""175px"" height=""250px""></img>",,,,,,,,,,,,,,,,,,,,,,,,,,,,
93,0,,html-keyboard-response,93,219587,0.0-4.14-1.14,2r9bftd335a,2022-09-19 16:24:55.701,5ea3aa462d77061c2a8fc5d6,3,55,57,70,70,28,male,453.4000000358,,"
  <table>
  <tr height=300>
    <td width=300 height=300><img src=""static/images/cards/back_of_black_stars.svg"" width=""175px"" height=""250px""></img></td>
    <td width=300 height=300><img src=""static/images/cards/back_of_black_stars.svg"" width=""175px"" height=""250px""></img></td>
  </tr>
  <tr height=200>
    <td width=300><img src=""static/images/keys/z.svg"" width=""35%"" height=""75%""></img></td>
    <td width=300><img src=""static/images/keys/m.svg"" width=""35%"" height=""75%""></img></td>
  </tr>
</table>
  ",77.0,1.0,,,,,,,,,,,,,,,,,,,,,,,,,,
94,0,,html-keyboard-response,94,221103,0.0-4.14-2.14,2r9bftd335a,2022-09-19 16:24:55.701,5ea3aa462d77061c2a8fc5d6,3,55,57,70,70,28,male,,,"
  <table>
  <tr height=300>
    <td width=300 height=300><img src=""static/images/cards/back_of_black_stars.svg"" width=""175px"" height=""250px""></img></td>
    <td width=300 height=300><img src=""static/images/cards/8_of_black_stars.svg"" width=""175px"" height=""250px""></img></td>
  </tr>
  <tr height=200>
    <td width=300><img src=""static/images/keys/z.svg"" width=""35%"" height=""75%""></img></td>
    <td width=300><img src=""static/images/keys/m.svg"" width=""35%"" height=""75%""></img></td>
  </tr>
</table>
  ",,,,,,,,,,,,,,,,,,,,,,,,,,,,
95,0,,html-keyboard-response,95,222606,0.0-4.14-3.14,2r9bftd335a,2022-09-19 16:24:55.701,5ea3aa462d77061c2a8fc5d6,3,55,57,70,70,28,male,,,"<p style=""font-size:50px"">You Lose!
No points this round.</p>",,,,,,,,,,,,,,,,,,,,,,,,,,,,
96,0,,html-keyboard-response,96,223112,0.0-4.14-4.14,2r9bftd335a,2022-09-19 16:24:55.701,5ea3aa462d77061c2a8fc5d6,3,55,57,70,70,28,male,,,,,,1.0,learning,14.0,C,,black,,stars,,,,C,black,stars,,1.0,0.0,NA,right,453.4000000358,8.0,1.0,0.0,,,
97,0,,html-keyboard-response,97,224625,0.0-4.15-0.15,2r9bftd335a,2022-09-19 16:24:55.701,5ea3aa462d77061c2a8fc5d6,3,55,57,70,70,28,male,,,"<img src=""static/images/cards/stack_of_red_stars.svg"" width=""175px"" height=""250px""></img>",,,,,,,,,,,,,,,,,,,,,,,,,,,,
98,0,,html-keyboard-response,98,225581,0.0-4.15-1.15,2r9bftd335a,2022-09-19 16:24:55.701,5ea3aa462d77061c2a8fc5d6,3,55,57,70,70,28,male,453.6999999881,,"
  <table>
  <tr height=300>
    <td width=300 height=300><img src=""static/images/cards/back_of_red_stars.svg"" width=""175px"" height=""250px""></img></td>
    <td width=300 height=300><img src=""static/images/cards/back_of_red_stars.svg"" width=""175px"" height=""250px""></img></td>
  </tr>
  <tr height=200>
    <td width=300><img src=""static/images/keys/z.svg"" width=""35%"" height=""75%""></img></td>
    <td width=300></td>
  </tr>
</table>
  ",90.0,1.0,,,,,,,,,,,,,,,,,,,,,,,,,,
99,0,,html-keyboard-response,99,227083,0.0-4.15-2.15,2r9bftd335a,2022-09-19 16:24:55.701,5ea3aa462d77061c2a8fc5d6,3,55,57,70,70,28,male,,,"
  <table>
  <tr height=300>
    <td width=300 height=300><img src=""static/images/cards/10_of_red_stars.svg"" width=""175px"" height=""250px""></img></td>
    <td width=300 height=300><img src=""static/images/cards/back_of_red_stars.svg"" width=""175px"" height=""250px""></img></td>
  </tr>
  <tr height=200>
    <td width=300><img src=""static/images/keys/z.svg"" width=""35%"" height=""75%""></img></td>
    <td width=300></td>
  </tr>
</table>
  ",,,,,,,,,,,,,,,,,,,,,,,,,,,,
100,0,,html-keyboard-response,100,228601,0.0-4.15-3.15,2r9bftd335a,2022-09-19 16:24:55.701,5ea3aa462d77061c2a8fc5d6,3,55,57,70,70,28,male,,,"<p style=""font-size:50px"">You Lose!
No points this round.</p>",,,,,,,,,,,,,,,,,,,,,,,,,,,,
101,0,,html-keyboard-response,101,229107,0.0-4.15-4.15,2r9bftd335a,2022-09-19 16:24:55.701,5ea3aa462d77061c2a8fc5d6,3,55,57,70,70,28,male,,,,,,1.0,learning,15.0,D,,red,,stars,,,,D,red,stars,,0.0,0.0,1,left,453.6999999881,10.0,1.0,0.0,,,
102,0,,html-keyboard-response,102,230612,0.0-4.16-0.16,2r9bftd335a,2022-09-19 16:24:55.701,5ea3aa462d77061c2a8fc5d6,3,55,57,70,70,28,male,,,"<img src=""static/images/cards/stack_of_red_bolts.svg"" width=""175px"" height=""250px""></img>",,,,,,,,,,,,,,,,,,,,,,,,,,,,
103,0,,html-keyboard-response,103,231587,0.0-4.16-1.16,2r9bftd335a,2022-09-19 16:24:55.701,5ea3aa462d77061c2a8fc5d6,3,55,57,70,70,28,male,464.6000000238,,"
  <table>
  <tr height=300>
    <td width=300 height=300><img src=""static/images/cards/back_of_red_bolts.svg"" width=""175px"" height=""250px""></img></td>
    <td width=300 height=300><img src=""static/images/cards/back_of_red_bolts.svg"" width=""175px"" height=""250px""></img></td>
  </tr>
  <tr height=200>
    <td width=300><img src=""static/images/keys/z.svg"" width=""35%"" height=""75%""></img></td>
    <td width=300><img src=""static/images/keys/m.svg"" width=""35%"" height=""75%""></img></td>
  </tr>
</table>
  ",77.0,1.0,,,,,,,,,,,,,,,,,,,,,,,,,,
104,0,,html-keyboard-response,104,233093,0.0-4.16-2.16,2r9bftd335a,2022-09-19 16:24:55.701,5ea3aa462d77061c2a8fc5d6,3,55,57,70,70,28,male,,,"
  <table>
  <tr height=300>
    <td width=300 height=300><img src=""static/images/cards/back_of_red_bolts.svg"" width=""175px"" height=""250px""></img></td>
    <td width=300 height=300><img src=""static/images/cards/7_of_red_bolts.svg"" width=""175px"" height=""250px""></img></td>
  </tr>
  <tr height=200>
    <td width=300><img src=""static/images/keys/z.svg"" width=""35%"" height=""75%""></img></td>
    <td width=300><img src=""static/images/keys/m.svg"" width=""35%"" height=""75%""></img></td>
  </tr>
</table>
  ",,,,,,,,,,,,,,,,,,,,,,,,,,,,
105,0,,html-keyboard-response,105,234610,0.0-4.16-3.16,2r9bftd335a,2022-09-19 16:24:55.701,5ea3aa462d77061c2a8fc5d6,3,55,57,70,70,28,male,,,"<p style=""font-size:50px"">You win!
+10 points this round!</p>",,,,,,,,,,,,,,,,,,,,,,,,,,,,
106,0,,html-keyboard-response,106,235132,0.0-4.16-4.16,2r9bftd335a,2022-09-19 16:24:55.701,5ea3aa462d77061c2a8fc5d6,3,55,57,70,70,28,male,,,,,,1.0,learning,16.0,Xc,,red,,bolts,,,,Xc,red,bolts,,1.0,0.0,NA,right,464.6000000238,7.0,1.0,1.0,,,
107,0,,html-keyboard-response,107,236645,0.0-4.17-0.17,2r9bftd335a,2022-09-19 16:24:55.701,5ea3aa462d77061c2a8fc5d6,3,55,57,70,70,28,male,,,"<img src=""static/images/cards/stack_of_black_bolts.svg"" width=""175px"" height=""250px""></img>",,,,,,,,,,,,,,,,,,,,,,,,,,,,
108,0,,html-keyboard-response,108,237813,0.0-4.17-1.17,2r9bftd335a,2022-09-19 16:24:55.701,5ea3aa462d77061c2a8fc5d6,3,55,57,70,70,28,male,650.8000000119,,"
  <table>
  <tr height=300>
    <td width=300 height=300><img src=""static/images/cards/back_of_black_bolts.svg"" width=""175px"" height=""250px""></img></td>
    <td width=300 height=300><img src=""static/images/cards/back_of_black_bolts.svg"" width=""175px"" height=""250px""></img></td>
  </tr>
  <tr height=200>
    <td width=300></td>
    <td width=300><img src=""static/images/keys/m.svg"" width=""35%"" height=""75%""></img></td>
  </tr>
</table>
  ",77.0,1.0,,,,,,,,,,,,,,,,,,,,,,,,,,
109,0,,html-keyboard-response,109,239316,0.0-4.17-2.17,2r9bftd335a,2022-09-19 16:24:55.701,5ea3aa462d77061c2a8fc5d6,3,55,57,70,70,28,male,,,"
  <table>
  <tr height=300>
    <td width=300 height=300><img src=""static/images/cards/back_of_black_bolts.svg"" width=""175px"" height=""250px""></img></td>
    <td width=300 height=300><img src=""static/images/cards/6_of_black_bolts.svg"" width=""175px"" height=""250px""></img></td>
  </tr>
  <tr height=200>
    <td width=300></td>
    <td width=300><img src=""static/images/keys/m.svg"" width=""35%"" height=""75%""></img></td>
  </tr>
</table>
  ",,,,,,,,,,,,,,,,,,,,,,,,,,,,
110,0,,html-keyboard-response,110,240834,0.0-4.17-3.17,2r9bftd335a,2022-09-19 16:24:55.701,5ea3aa462d77061c2a8fc5d6,3,55,57,70,70,28,male,,,"<p style=""font-size:50px"">You win!
+10 points this round!</p>",,,,,,,,,,,,,,,,,,,,,,,,,,,,
111,0,,html-keyboard-response,111,241340,0.0-4.17-4.17,2r9bftd335a,2022-09-19 16:24:55.701,5ea3aa462d77061c2a8fc5d6,3,55,57,70,70,28,male,,,,,,1.0,learning,17.0,Xnc,,black,,bolts,,,,Xnc,black,bolts,,0.0,0.0,0,right,650.8000000119,6.0,1.0,1.0,,,
112,0,,html-keyboard-response,112,242853,0.0-4.18-0.18,2r9bftd335a,2022-09-19 16:24:55.701,5ea3aa462d77061c2a8fc5d6,3,55,57,70,70,28,male,,,"<img src=""static/images/cards/stack_of_black_moons.svg"" width=""175px"" height=""250px""></img>",,,,,,,,,,,,,,,,,,,,,,,,,,,,
113,0,,html-keyboard-response,113,243897,0.0-4.18-1.18,2r9bftd335a,2022-09-19 16:24:55.701,5ea3aa462d77061c2a8fc5d6,3,55,57,70,70,28,male,526.5,,"
  <table>
  <tr height=300>
    <td width=300 height=300><img src=""static/images/cards/back_of_black_moons.svg"" width=""175px"" height=""250px""></img></td>
    <td width=300 height=300><img src=""static/images/cards/back_of_black_moons.svg"" width=""175px"" height=""250px""></img></td>
  </tr>
  <tr height=200>
    <td width=300><img src=""static/images/keys/z.svg"" width=""35%"" height=""75%""></img></td>
    <td width=300><img src=""static/images/keys/m.svg"" width=""35%"" height=""75%""></img></td>
  </tr>
</table>
  ",77.0,1.0,,,,,,,,,,,,,,,,,,,,,,,,,,
114,0,,html-keyboard-response,114,245410,0.0-4.18-2.18,2r9bftd335a,2022-09-19 16:24:55.701,5ea3aa462d77061c2a8fc5d6,3,55,57,70,70,28,male,,,"
  <table>
  <tr height=300>
    <td width=300 height=300><img src=""static/images/cards/back_of_black_moons.svg"" width=""175px"" height=""250px""></img></td>
    <td width=300 height=300><img src=""static/images/cards/8_of_black_moons.svg"" width=""175px"" height=""250px""></img></td>
  </tr>
  <tr height=200>
    <td width=300><img src=""static/images/keys/z.svg"" width=""35%"" height=""75%""></img></td>
    <td width=300><img src=""static/images/keys/m.svg"" width=""35%"" height=""75%""></img></td>
  </tr>
</table>
  ",,,,,,,,,,,,,,,,,,,,,,,,,,,,
115,0,,html-keyboard-response,115,246928,0.0-4.18-3.18,2r9bftd335a,2022-09-19 16:24:55.701,5ea3aa462d77061c2a8fc5d6,3,55,57,70,70,28,male,,,"<p style=""font-size:50px"">You win!
+10 points this round!</p>",,,,,,,,,,,,,,,,,,,,,,,,,,,,
116,0,,html-keyboard-response,116,247433,0.0-4.18-4.18,2r9bftd335a,2022-09-19 16:24:55.701,5ea3aa462d77061c2a8fc5d6,3,55,57,70,70,28,male,,,,,,1.0,learning,18.0,A,,black,,moons,,,,A,black,moons,,1.0,1.0,NA,right,526.5,8.0,1.0,1.0,,,
117,0,,html-keyboard-response,117,248954,0.0-4.19-0.19,2r9bftd335a,2022-09-19 16:24:55.701,5ea3aa462d77061c2a8fc5d6,3,55,57,70,70,28,male,,,"<img src=""static/images/cards/stack_of_red_moons.svg"" width=""175px"" height=""250px""></img>",,,,,,,,,,,,,,,,,,,,,,,,,,,,
118,0,,html-keyboard-response,118,249909,0.0-4.19-1.19,2r9bftd335a,2022-09-19 16:24:55.701,5ea3aa462d77061c2a8fc5d6,3,55,57,70,70,28,male,452.5999999642,,"
  <table>
  <tr height=300>
    <td width=300 height=300><img src=""static/images/cards/back_of_red_moons.svg"" width=""175px"" height=""250px""></img></td>
    <td width=300 height=300><img src=""static/images/cards/back_of_red_moons.svg"" width=""175px"" height=""250px""></img></td>
  </tr>
  <tr height=200>
    <td width=300></td>
    <td width=300><img src=""static/images/keys/m.svg"" width=""35%"" height=""75%""></img></td>
  </tr>
</table>
  ",77.0,1.0,,,,,,,,,,,,,,,,,,,,,,,,,,
119,0,,html-keyboard-response,119,251412,0.0-4.19-2.19,2r9bftd335a,2022-09-19 16:24:55.701,5ea3aa462d77061c2a8fc5d6,3,55,57,70,70,28,male,,,"
  <table>
  <tr height=300>
    <td width=300 height=300><img src=""static/images/cards/back_of_red_moons.svg"" width=""175px"" height=""250px""></img></td>
    <td width=300 height=300><img src=""static/images/cards/1_of_red_moons.svg"" width=""175px"" height=""250px""></img></td>
  </tr>
  <tr height=200>
    <td width=300></td>
    <td width=300><img src=""static/images/keys/m.svg"" width=""35%"" height=""75%""></img></td>
  </tr>
</table>
  ",,,,,,,,,,,,,,,,,,,,,,,,,,,,
120,0,,html-keyboard-response,120,252931,0.0-4.19-3.19,2r9bftd335a,2022-09-19 16:24:55.701,5ea3aa462d77061c2a8fc5d6,3,55,57,70,70,28,male,,,"<p style=""font-size:50px"">You Lose!
No points this round.</p>",,,,,,,,,,,,,,,,,,,,,,,,,,,,
121,0,,html-keyboard-response,121,253451,0.0-4.19-4.19,2r9bftd335a,2022-09-19 16:24:55.701,5ea3aa462d77061c2a8fc5d6,3,55,57,70,70,28,male,,,,,,1.0,learning,19.0,B,,red,,moons,,,,B,red,moons,,0.0,1.0,0,right,452.5999999642,1.0,0.0,0.0,,,
122,0,,html-keyboard-response,122,254965,0.0-4.20-0.20,2r9bftd335a,2022-09-19 16:24:55.701,5ea3aa462d77061c2a8fc5d6,3,55,57,70,70,28,male,,,"<img src=""static/images/cards/stack_of_black_stars.svg"" width=""175px"" height=""250px""></img>",,,,,,,,,,,,,,,,,,,,,,,,,,,,
123,0,,html-keyboard-response,123,256195,0.0-4.20-1.20,2r9bftd335a,2022-09-19 16:24:55.701,5ea3aa462d77061c2a8fc5d6,3,55,57,70,70,28,male,712.5,,"
  <table>
  <tr height=300>
    <td width=300 height=300><img src=""static/images/cards/back_of_black_stars.svg"" width=""175px"" height=""250px""></img></td>
    <td width=300 height=300><img src=""static/images/cards/back_of_black_stars.svg"" width=""175px"" height=""250px""></img></td>
  </tr>
  <tr height=200>
    <td width=300><img src=""static/images/keys/z.svg"" width=""35%"" height=""75%""></img></td>
    <td width=300><img src=""static/images/keys/m.svg"" width=""35%"" height=""75%""></img></td>
  </tr>
</table>
  ",77.0,1.0,,,,,,,,,,,,,,,,,,,,,,,,,,
124,0,,html-keyboard-response,124,257701,0.0-4.20-2.20,2r9bftd335a,2022-09-19 16:24:55.701,5ea3aa462d77061c2a8fc5d6,3,55,57,70,70,28,male,,,"
  <table>
  <tr height=300>
    <td width=300 height=300><img src=""static/images/cards/back_of_black_stars.svg"" width=""175px"" height=""250px""></img></td>
    <td width=300 height=300><img src=""static/images/cards/9_of_black_stars.svg"" width=""175px"" height=""250px""></img></td>
  </tr>
  <tr height=200>
    <td width=300><img src=""static/images/keys/z.svg"" width=""35%"" height=""75%""></img></td>
    <td width=300><img src=""static/images/keys/m.svg"" width=""35%"" height=""75%""></img></td>
  </tr>
</table>
  ",,,,,,,,,,,,,,,,,,,,,,,,,,,,
125,0,,html-keyboard-response,125,259227,0.0-4.20-3.20,2r9bftd335a,2022-09-19 16:24:55.701,5ea3aa462d77061c2a8fc5d6,3,55,57,70,70,28,male,,,"<p style=""font-size:50px"">You win!
+10 points this round!</p>",,,,,,,,,,,,,,,,,,,,,,,,,,,,
126,0,,html-keyboard-response,126,259746,0.0-4.20-4.20,2r9bftd335a,2022-09-19 16:24:55.701,5ea3aa462d77061c2a8fc5d6,3,55,57,70,70,28,male,,,,,,1.0,learning,20.0,C,,black,,stars,,,,C,black,stars,,1.0,0.0,NA,right,712.5,9.0,1.0,1.0,,,
127,0,,html-keyboard-response,127,261260,0.0-4.21-0.21,2r9bftd335a,2022-09-19 16:24:55.701,5ea3aa462d77061c2a8fc5d6,3,55,57,70,70,28,male,,,"<img src=""static/images/cards/stack_of_red_stars.svg"" width=""175px"" height=""250px""></img>",,,,,,,,,,,,,,,,,,,,,,,,,,,,
128,0,,html-keyboard-response,128,262302,0.0-4.21-1.21,2r9bftd335a,2022-09-19 16:24:55.701,5ea3aa462d77061c2a8fc5d6,3,55,57,70,70,28,male,540.3999999762,,"
  <table>
  <tr height=300>
    <td width=300 height=300><img src=""static/images/cards/back_of_red_stars.svg"" width=""175px"" height=""250px""></img></td>
    <td width=300 height=300><img src=""static/images/cards/back_of_red_stars.svg"" width=""175px"" height=""250px""></img></td>
  </tr>
  <tr height=200>
    <td width=300><img src=""static/images/keys/z.svg"" width=""35%"" height=""75%""></img></td>
    <td width=300></td>
  </tr>
</table>
  ",90.0,1.0,,,,,,,,,,,,,,,,,,,,,,,,,,
129,0,,html-keyboard-response,129,263810,0.0-4.21-2.21,2r9bftd335a,2022-09-19 16:24:55.701,5ea3aa462d77061c2a8fc5d6,3,55,57,70,70,28,male,,,"
  <table>
  <tr height=300>
    <td width=300 height=300><img src=""static/images/cards/3_of_red_stars.svg"" width=""175px"" height=""250px""></img></td>
    <td width=300 height=300><img src=""static/images/cards/back_of_red_stars.svg"" width=""175px"" height=""250px""></img></td>
  </tr>
  <tr height=200>
    <td width=300><img src=""static/images/keys/z.svg"" width=""35%"" height=""75%""></img></td>
    <td width=300></td>
  </tr>
</table>
  ",,,,,,,,,,,,,,,,,,,,,,,,,,,,
130,0,,html-keyboard-response,130,265336,0.0-4.21-3.21,2r9bftd335a,2022-09-19 16:24:55.701,5ea3aa462d77061c2a8fc5d6,3,55,57,70,70,28,male,,,"<p style=""font-size:50px"">You win!
+10 points this round!</p>",,,,,,,,,,,,,,,,,,,,,,,,,,,,
131,0,,html-keyboard-response,131,265856,0.0-4.21-4.21,2r9bftd335a,2022-09-19 16:24:55.701,5ea3aa462d77061c2a8fc5d6,3,55,57,70,70,28,male,,,,,,1.0,learning,21.0,D,,red,,stars,,,,D,red,stars,,0.0,0.0,1,left,540.3999999762,3.0,0.0,1.0,,,
132,0,,html-keyboard-response,132,267369,0.0-4.22-0.22,2r9bftd335a,2022-09-19 16:24:55.701,5ea3aa462d77061c2a8fc5d6,3,55,57,70,70,28,male,,,"<img src=""static/images/cards/stack_of_red_bolts.svg"" width=""175px"" height=""250px""></img>",,,,,,,,,,,,,,,,,,,,,,,,,,,,
133,0,,html-keyboard-response,133,268491,0.0-4.22-1.22,2r9bftd335a,2022-09-19 16:24:55.701,5ea3aa462d77061c2a8fc5d6,3,55,57,70,70,28,male,619.0999999642,,"
  <table>
  <tr height=300>
    <td width=300 height=300><img src=""static/images/cards/back_of_red_bolts.svg"" width=""175px"" height=""250px""></img></td>
    <td width=300 height=300><img src=""static/images/cards/back_of_red_bolts.svg"" width=""175px"" height=""250px""></img></td>
  </tr>
  <tr height=200>
    <td width=300><img src=""static/images/keys/z.svg"" width=""35%"" height=""75%""></img></td>
    <td width=300><img src=""static/images/keys/m.svg"" width=""35%"" height=""75%""></img></td>
  </tr>
</table>
  ",77.0,1.0,,,,,,,,,,,,,,,,,,,,,,,,,,
134,0,,html-keyboard-response,134,270005,0.0-4.22-2.22,2r9bftd335a,2022-09-19 16:24:55.701,5ea3aa462d77061c2a8fc5d6,3,55,57,70,70,28,male,,,"
  <table>
  <tr height=300>
    <td width=300 height=300><img src=""static/images/cards/back_of_red_bolts.svg"" width=""175px"" height=""250px""></img></td>
    <td width=300 height=300><img src=""static/images/cards/3_of_red_bolts.svg"" width=""175px"" height=""250px""></img></td>
  </tr>
  <tr height=200>
    <td width=300><img src=""static/images/keys/z.svg"" width=""35%"" height=""75%""></img></td>
    <td width=300><img src=""static/images/keys/m.svg"" width=""35%"" height=""75%""></img></td>
  </tr>
</table>
  ",,,,,,,,,,,,,,,,,,,,,,,,,,,,
135,0,,html-keyboard-response,135,271508,0.0-4.22-3.22,2r9bftd335a,2022-09-19 16:24:55.701,5ea3aa462d77061c2a8fc5d6,3,55,57,70,70,28,male,,,"<p style=""font-size:50px"">You win!
+10 points this round!</p>",,,,,,,,,,,,,,,,,,,,,,,,,,,,
136,0,,html-keyboard-response,136,272013,0.0-4.22-4.22,2r9bftd335a,2022-09-19 16:24:55.701,5ea3aa462d77061c2a8fc5d6,3,55,57,70,70,28,male,,,,,,1.0,learning,22.0,Xc,,red,,bolts,,,,Xc,red,bolts,,1.0,0.0,NA,right,619.0999999642,3.0,0.0,1.0,,,
137,0,,html-keyboard-response,137,273527,0.0-4.23-0.23,2r9bftd335a,2022-09-19 16:24:55.701,5ea3aa462d77061c2a8fc5d6,3,55,57,70,70,28,male,,,"<img src=""static/images/cards/stack_of_black_bolts.svg"" width=""175px"" height=""250px""></img>",,,,,,,,,,,,,,,,,,,,,,,,,,,,
138,0,,html-keyboard-response,138,274694,0.0-4.23-1.23,2r9bftd335a,2022-09-19 16:24:55.701,5ea3aa462d77061c2a8fc5d6,3,55,57,70,70,28,male,664.8999999762,,"
  <table>
  <tr height=300>
    <td width=300 height=300><img src=""static/images/cards/back_of_black_bolts.svg"" width=""175px"" height=""250px""></img></td>
    <td width=300 height=300><img src=""static/images/cards/back_of_black_bolts.svg"" width=""175px"" height=""250px""></img></td>
  </tr>
  <tr height=200>
    <td width=300></td>
    <td width=300><img src=""static/images/keys/m.svg"" width=""35%"" height=""75%""></img></td>
  </tr>
</table>
  ",77.0,1.0,,,,,,,,,,,,,,,,,,,,,,,,,,
139,0,,html-keyboard-response,139,276199,0.0-4.23-2.23,2r9bftd335a,2022-09-19 16:24:55.701,5ea3aa462d77061c2a8fc5d6,3,55,57,70,70,28,male,,,"
  <table>
  <tr height=300>
    <td width=300 height=300><img src=""static/images/cards/back_of_black_bolts.svg"" width=""175px"" height=""250px""></img></td>
    <td width=300 height=300><img src=""static/images/cards/8_of_black_bolts.svg"" width=""175px"" height=""250px""></img></td>
  </tr>
  <tr height=200>
    <td width=300></td>
    <td width=300><img src=""static/images/keys/m.svg"" width=""35%"" height=""75%""></img></td>
  </tr>
</table>
  ",,,,,,,,,,,,,,,,,,,,,,,,,,,,
140,0,,html-keyboard-response,140,277701,0.0-4.23-3.23,2r9bftd335a,2022-09-19 16:24:55.701,5ea3aa462d77061c2a8fc5d6,3,55,57,70,70,28,male,,,"<p style=""font-size:50px"">You win!
+10 points this round!</p>",,,,,,,,,,,,,,,,,,,,,,,,,,,,
141,0,,html-keyboard-response,141,278217,0.0-4.23-4.23,2r9bftd335a,2022-09-19 16:24:55.701,5ea3aa462d77061c2a8fc5d6,3,55,57,70,70,28,male,,,,,,1.0,learning,23.0,Xnc,,black,,bolts,,,,Xnc,black,bolts,,0.0,0.0,0,right,664.8999999762,8.0,1.0,1.0,,,
142,0,,call-function,142,278220,0.0-5.0,2r9bftd335a,2022-09-19 16:24:55.701,5ea3aa462d77061c2a8fc5d6,3,55,57,70,70,28,male,,,,,,,,,,,,,,,,,,,,,,,,,,,,,,,
143,0,,image-keyboard-response,143,282927,0.0-6.0-0.0,2r9bftd335a,2022-09-19 16:24:55.701,5ea3aa462d77061c2a8fc5d6,3,55,57,70,70,28,male,4706.0999999642,,static/images/instructions_CB_3/Slide20.png,39.0,,,,,,,,,,,,,,,,,,,,,,,,,,,
144,0,,image-keyboard-response,144,286206,0.0-6.1-0.1,2r9bftd335a,2022-09-19 16:24:55.701,5ea3aa462d77061c2a8fc5d6,3,55,57,70,70,28,male,3278.5999999642,,static/images/instructions_CB_3/Slide21.png,39.0,,,,,,,,,,,,,,,,,,,,,,,,,,,
145,0,,image-keyboard-response,145,291702,0.0-6.2-0.2,2r9bftd335a,2022-09-19 16:24:55.701,5ea3aa462d77061c2a8fc5d6,3,55,57,70,70,28,male,5494.6999999881,,static/images/instructions_CB_3/Slide22.png,39.0,,,,,,,,,,,,,,,,,,,,,,,,,,,
146,0,,image-keyboard-response,146,294059,0.0-6.3-0.3,2r9bftd335a,2022-09-19 16:24:55.701,5ea3aa462d77061c2a8fc5d6,3,55,57,70,70,28,male,2355.6999999881,,static/images/instructions_CB_3/Slide23.png,39.0,,,,,,,,,,,,,,,,,,,,,,,,,,,
147,0,,image-keyboard-response,147,296062,0.0-6.4-0.4,2r9bftd335a,2022-09-19 16:24:55.701,5ea3aa462d77061c2a8fc5d6,3,55,57,70,70,28,male,2002.3000000119,,static/images/instructions_CB_3/Slide24.png,39.0,,,,,,,,,,,,,,,,,,,,,,,,,,,
148,0,,html-keyboard-response,148,297308,0.0-7.0-0.0,2r9bftd335a,2022-09-19 16:24:55.701,5ea3aa462d77061c2a8fc5d6,3,55,57,70,70,28,male,1244.1000000238,,"
  <table>
  <tr height=300>
    <td width=300 height=300><img src=""static/images/cards/stack_of_red_stars.svg"" width=""175px"" height=""250px""></img></td>
    <td width=300 height=300><img src=""static/images/cards/stack_of_black_moons.svg"" width=""175px"" height=""250px""></img></td>
  </tr>
  <tr height=200>
    <td width=300><img src=""static/images/keys/w.svg"" width=""35%"" height=""75%""></img></td>
    <td width=300><img src=""static/images/keys/o.svg"" width=""35%"" height=""75%""></img></td>
  </tr>
</table>
  ",79.0,1.0,,,,,,,,,,,,,,,,,,,,,,,,,,
149,0,,html-keyboard-response,149,299030,0.0-7.0-1.0,2r9bftd335a,2022-09-19 16:24:55.701,5ea3aa462d77061c2a8fc5d6,3,55,57,70,70,28,male,1212.1999999881,,"
  <table>
  <tr height=300>
    <td width=300 height=300><img src=""static/images/cards/back_of_black_moons.svg"" width=""175px"" height=""250px""></img></td>
    <td width=300 height=300><img src=""static/images/cards/back_of_black_moons.svg"" width=""175px"" height=""250px""></img></td>
  </tr>
  <tr height=200>
    <td width=300><img src=""static/images/keys/z.svg"" width=""35%"" height=""75%""></img></td>
    <td width=300><img src=""static/images/keys/m.svg"" width=""35%"" height=""75%""></img></td>
  </tr>
</table>
  ",77.0,1.0,,,,,,,,,,,,,,,,,,,,,,,,,,
150,0,,html-keyboard-response,150,300536,0.0-7.0-2.0,2r9bftd335a,2022-09-19 16:24:55.701,5ea3aa462d77061c2a8fc5d6,3,55,57,70,70,28,male,,,"
  <table>
  <tr height=300>
    <td width=300 height=300><img src=""static/images/cards/back_of_black_moons.svg"" width=""175px"" height=""250px""></img></td>
    <td width=300 height=300><img src=""static/images/cards/3_of_black_moons.svg"" width=""175px"" height=""250px""></img></td>
  </tr>
  <tr height=200>
    <td width=300><img src=""static/images/keys/z.svg"" width=""35%"" height=""75%""></img></td>
    <td width=300><img src=""static/images/keys/m.svg"" width=""35%"" height=""75%""></img></td>
  </tr>
</table>
  ",,,,,,,,,,,,,,,,,,,,,,,,,,,,
151,0,,html-keyboard-response,151,302053,0.0-7.0-3.0,2r9bftd335a,2022-09-19 16:24:55.701,5ea3aa462d77061c2a8fc5d6,3,55,57,70,70,28,male,,,"<p style=""font-size:50px"">You Lose!
No points this round.</p>",,,,,,,,,,,,,,,,,,,,,,,,,,,,
152,0,,html-keyboard-response,152,302574,0.0-7.0-4.0,2r9bftd335a,2022-09-19 16:24:55.701,5ea3aa462d77061c2a8fc5d6,3,55,57,70,70,28,male,,,,,,1.0,choice,0.0,A,D,red,black,stars,moons,D,A,A,black,moons,1244.1000000238,1.0,1.0,NA,right,1212.1999999881,3.0,0.0,0.0,,,
153,0,,html-keyboard-response,153,305310,0.0-7.1-0.1,2r9bftd335a,2022-09-19 16:24:55.701,5ea3aa462d77061c2a8fc5d6,3,55,57,70,70,28,male,2735.6000000238,,"
  <table>
  <tr height=300>
    <td width=300 height=300><img src=""static/images/cards/stack_of_black_moons.svg"" width=""175px"" height=""250px""></img></td>
    <td width=300 height=300><img src=""static/images/cards/stack_of_red_moons.svg"" width=""175px"" height=""250px""></img></td>
  </tr>
  <tr height=200>
    <td width=300><img src=""static/images/keys/w.svg"" width=""35%"" height=""75%""></img></td>
    <td width=300><img src=""static/images/keys/o.svg"" width=""35%"" height=""75%""></img></td>
  </tr>
</table>
  ",79.0,1.0,,,,,,,,,,,,,,,,,,,,,,,,,,
154,0,,html-keyboard-response,154,306446,0.0-7.1-1.1,2r9bftd335a,2022-09-19 16:24:55.701,5ea3aa462d77061c2a8fc5d6,3,55,57,70,70,28,male,631.3000000119,,"
  <table>
  <tr height=300>
    <td width=300 height=300><img src=""static/images/cards/back_of_red_moons.svg"" width=""175px"" height=""250px""></img></td>
    <td width=300 height=300><img src=""static/images/cards/back_of_red_moons.svg"" width=""175px"" height=""250px""></img></td>
  </tr>
  <tr height=200>
    <td width=300></td>
    <td width=300><img src=""static/images/keys/m.svg"" width=""35%"" height=""75%""></img></td>
  </tr>
</table>
  ",77.0,1.0,,,,,,,,,,,,,,,,,,,,,,,,,,
155,0,,html-keyboard-response,155,307963,0.0-7.1-2.1,2r9bftd335a,2022-09-19 16:24:55.701,5ea3aa462d77061c2a8fc5d6,3,55,57,70,70,28,male,,,"
  <table>
  <tr height=300>
    <td width=300 height=300><img src=""static/images/cards/back_of_red_moons.svg"" width=""175px"" height=""250px""></img></td>
    <td width=300 height=300><img src=""static/images/cards/3_of_red_moons.svg"" width=""175px"" height=""250px""></img></td>
  </tr>
  <tr height=200>
    <td width=300></td>
    <td width=300><img src=""static/images/keys/m.svg"" width=""35%"" height=""75%""></img></td>
  </tr>
</table>
  ",,,,,,,,,,,,,,,,,,,,,,,,,,,,
156,0,,html-keyboard-response,156,309467,0.0-7.1-3.1,2r9bftd335a,2022-09-19 16:24:55.701,5ea3aa462d77061c2a8fc5d6,3,55,57,70,70,28,male,,,"<p style=""font-size:50px"">You Lose!
No points this round.</p>",,,,,,,,,,,,,,,,,,,,,,,,,,,,
157,0,,html-keyboard-response,157,309973,0.0-7.1-4.1,2r9bftd335a,2022-09-19 16:24:55.701,5ea3aa462d77061c2a8fc5d6,3,55,57,70,70,28,male,,,,,,1.0,choice,1.0,A,B,black,red,moons,moons,A,B,B,red,moons,2735.6000000238,0.0,1.0,0,right,631.3000000119,3.0,0.0,0.0,,,
158,0,,html-keyboard-response,158,311174,0.0-7.2-0.2,2r9bftd335a,2022-09-19 16:24:55.701,5ea3aa462d77061c2a8fc5d6,3,55,57,70,70,28,male,1200.1999999881,,"
  <table>
  <tr height=300>
    <td width=300 height=300><img src=""static/images/cards/stack_of_black_moons.svg"" width=""175px"" height=""250px""></img></td>
    <td width=300 height=300><img src=""static/images/cards/stack_of_black_stars.svg"" width=""175px"" height=""250px""></img></td>
  </tr>
  <tr height=200>
    <td width=300><img src=""static/images/keys/w.svg"" width=""35%"" height=""75%""></img></td>
    <td width=300><img src=""static/images/keys/o.svg"" width=""35%"" height=""75%""></img></td>
  </tr>
</table>
  ",87.0,1.0,,,,,,,,,,,,,,,,,,,,,,,,,,
159,0,,html-keyboard-response,159,312376,0.0-7.2-1.2,2r9bftd335a,2022-09-19 16:24:55.701,5ea3aa462d77061c2a8fc5d6,3,55,57,70,70,28,male,686.7000000477,,"
  <table>
  <tr height=300>
    <td width=300 height=300><img src=""static/images/cards/back_of_black_moons.svg"" width=""175px"" height=""250px""></img></td>
    <td width=300 height=300><img src=""static/images/cards/back_of_black_moons.svg"" width=""175px"" height=""250px""></img></td>
  </tr>
  <tr height=200>
    <td width=300><img src=""static/images/keys/z.svg"" width=""35%"" height=""75%""></img></td>
    <td width=300><img src=""static/images/keys/m.svg"" width=""35%"" height=""75%""></img></td>
  </tr>
</table>
  ",77.0,1.0,,,,,,,,,,,,,,,,,,,,,,,,,,
160,0,,html-keyboard-response,160,313893,0.0-7.2-2.2,2r9bftd335a,2022-09-19 16:24:55.701,5ea3aa462d77061c2a8fc5d6,3,55,57,70,70,28,male,,,"
  <table>
  <tr height=300>
    <td width=300 height=300><img src=""static/images/cards/back_of_black_moons.svg"" width=""175px"" height=""250px""></img></td>
    <td width=300 height=300><img src=""static/images/cards/3_of_black_moons.svg"" width=""175px"" height=""250px""></img></td>
  </tr>
  <tr height=200>
    <td width=300><img src=""static/images/keys/z.svg"" width=""35%"" height=""75%""></img></td>
    <td width=300><img src=""static/images/keys/m.svg"" width=""35%"" height=""75%""></img></td>
  </tr>
</table>
  ",,,,,,,,,,,,,,,,,,,,,,,,,,,,
161,0,,html-keyboard-response,161,315415,0.0-7.2-3.2,2r9bftd335a,2022-09-19 16:24:55.701,5ea3aa462d77061c2a8fc5d6,3,55,57,70,70,28,male,,,"<p style=""font-size:50px"">You Lose!
No points this round.</p>",,,,,,,,,,,,,,,,,,,,,,,,,,,,
162,0,,html-keyboard-response,162,315936,0.0-7.2-4.2,2r9bftd335a,2022-09-19 16:24:55.701,5ea3aa462d77061c2a8fc5d6,3,55,57,70,70,28,male,,,,,,1.0,choice,2.0,A,C,black,black,moons,stars,A,C,A,black,moons,1200.1999999881,1.0,1.0,NA,right,686.7000000477,3.0,0.0,0.0,,,
163,0,,html-keyboard-response,163,316504,0.0-7.3-0.3,2r9bftd335a,2022-09-19 16:24:55.701,5ea3aa462d77061c2a8fc5d6,3,55,57,70,70,28,male,565.5,,"
  <table>
  <tr height=300>
    <td width=300 height=300><img src=""static/images/cards/stack_of_black_moons.svg"" width=""175px"" height=""250px""></img></td>
    <td width=300 height=300><img src=""static/images/cards/stack_of_red_moons.svg"" width=""175px"" height=""250px""></img></td>
  </tr>
  <tr height=200>
    <td width=300><img src=""static/images/keys/w.svg"" width=""35%"" height=""75%""></img></td>
    <td width=300><img src=""static/images/keys/o.svg"" width=""35%"" height=""75%""></img></td>
  </tr>
</table>
  ",79.0,1.0,,,,,,,,,,,,,,,,,,,,,,,,,,
164,0,,html-keyboard-response,164,317696,0.0-7.3-1.3,2r9bftd335a,2022-09-19 16:24:55.701,5ea3aa462d77061c2a8fc5d6,3,55,57,70,70,28,male,675.0,,"
  <table>
  <tr height=300>
    <td width=300 height=300><img src=""static/images/cards/back_of_red_moons.svg"" width=""175px"" height=""250px""></img></td>
    <td width=300 height=300><img src=""static/images/cards/back_of_red_moons.svg"" width=""175px"" height=""250px""></img></td>
  </tr>
  <tr height=200>
    <td width=300></td>
    <td width=300><img src=""static/images/keys/m.svg"" width=""35%"" height=""75%""></img></td>
  </tr>
</table>
  ",77.0,1.0,,,,,,,,,,,,,,,,,,,,,,,,,,
165,0,,html-keyboard-response,165,319207,0.0-7.3-2.3,2r9bftd335a,2022-09-19 16:24:55.701,5ea3aa462d77061c2a8fc5d6,3,55,57,70,70,28,male,,,"
  <table>
  <tr height=300>
    <td width=300 height=300><img src=""static/images/cards/back_of_red_moons.svg"" width=""175px"" height=""250px""></img></td>
    <td width=300 height=300><img src=""static/images/cards/1_of_red_moons.svg"" width=""175px"" height=""250px""></img></td>
  </tr>
  <tr height=200>
    <td width=300></td>
    <td width=300><img src=""static/images/keys/m.svg"" width=""35%"" height=""75%""></img></td>
  </tr>
</table>
  ",,,,,,,,,,,,,,,,,,,,,,,,,,,,
166,0,,html-keyboard-response,166,320709,0.0-7.3-3.3,2r9bftd335a,2022-09-19 16:24:55.701,5ea3aa462d77061c2a8fc5d6,3,55,57,70,70,28,male,,,"<p style=""font-size:50px"">You Lose!
No points this round.</p>",,,,,,,,,,,,,,,,,,,,,,,,,,,,
167,0,,html-keyboard-response,167,321232,0.0-7.3-4.3,2r9bftd335a,2022-09-19 16:24:55.701,5ea3aa462d77061c2a8fc5d6,3,55,57,70,70,28,male,,,,,,1.0,choice,3.0,A,B,black,red,moons,moons,A,B,B,red,moons,565.5,0.0,1.0,0,right,675.0,1.0,0.0,0.0,,,
168,0,,html-keyboard-response,168,321760,0.0-7.4-0.4,2r9bftd335a,2022-09-19 16:24:55.701,5ea3aa462d77061c2a8fc5d6,3,55,57,70,70,28,male,525.5,,"
  <table>
  <tr height=300>
    <td width=300 height=300><img src=""static/images/cards/stack_of_black_moons.svg"" width=""175px"" height=""250px""></img></td>
    <td width=300 height=300><img src=""static/images/cards/stack_of_red_moons.svg"" width=""175px"" height=""250px""></img></td>
  </tr>
  <tr height=200>
    <td width=300><img src=""static/images/keys/w.svg"" width=""35%"" height=""75%""></img></td>
    <td width=300><img src=""static/images/keys/o.svg"" width=""35%"" height=""75%""></img></td>
  </tr>
</table>
  ",79.0,1.0,,,,,,,,,,,,,,,,,,,,,,,,,,
169,0,,html-keyboard-response,169,322856,0.0-7.4-1.4,2r9bftd335a,2022-09-19 16:24:55.701,5ea3aa462d77061c2a8fc5d6,3,55,57,70,70,28,male,590.0,,"
  <table>
  <tr height=300>
    <td width=300 height=300><img src=""static/images/cards/back_of_red_moons.svg"" width=""175px"" height=""250px""></img></td>
    <td width=300 height=300><img src=""static/images/cards/back_of_red_moons.svg"" width=""175px"" height=""250px""></img></td>
  </tr>
  <tr height=200>
    <td width=300><img src=""static/images/keys/z.svg"" width=""35%"" height=""75%""></img></td>
    <td width=300></td>
  </tr>
</table>
  ",90.0,1.0,,,,,,,,,,,,,,,,,,,,,,,,,,
170,0,,html-keyboard-response,170,324368,0.0-7.4-2.4,2r9bftd335a,2022-09-19 16:24:55.701,5ea3aa462d77061c2a8fc5d6,3,55,57,70,70,28,male,,,"
  <table>
  <tr height=300>
    <td width=300 height=300><img src=""static/images/cards/1_of_red_moons.svg"" width=""175px"" height=""250px""></img></td>
    <td width=300 height=300><img src=""static/images/cards/back_of_red_moons.svg"" width=""175px"" height=""250px""></img></td>
  </tr>
  <tr height=200>
    <td width=300><img src=""static/images/keys/z.svg"" width=""35%"" height=""75%""></img></td>
    <td width=300></td>
  </tr>
</table>
  ",,,,,,,,,,,,,,,,,,,,,,,,,,,,
171,0,,html-keyboard-response,171,325871,0.0-7.4-3.4,2r9bftd335a,2022-09-19 16:24:55.701,5ea3aa462d77061c2a8fc5d6,3,55,57,70,70,28,male,,,"<p style=""font-size:50px"">You Lose!
No points this round.</p>",,,,,,,,,,,,,,,,,,,,,,,,,,,,
172,0,,html-keyboard-response,172,326376,0.0-7.4-4.4,2r9bftd335a,2022-09-19 16:24:55.701,5ea3aa462d77061c2a8fc5d6,3,55,57,70,70,28,male,,,,,,1.0,choice,4.0,A,B,black,red,moons,moons,A,B,B,red,moons,525.5,0.0,1.0,1,left,590.0,1.0,0.0,0.0,,,
173,0,,html-keyboard-response,173,327340,0.0-7.5-0.5,2r9bftd335a,2022-09-19 16:24:55.701,5ea3aa462d77061c2a8fc5d6,3,55,57,70,70,28,male,963.8999999762,,"
  <table>
  <tr height=300>
    <td width=300 height=300><img src=""static/images/cards/stack_of_black_stars.svg"" width=""175px"" height=""250px""></img></td>
    <td width=300 height=300><img src=""static/images/cards/stack_of_red_stars.svg"" width=""175px"" height=""250px""></img></td>
  </tr>
  <tr height=200>
    <td width=300><img src=""static/images/keys/w.svg"" width=""35%"" height=""75%""></img></td>
    <td width=300><img src=""static/images/keys/o.svg"" width=""35%"" height=""75%""></img></td>
  </tr>
</table>
  ",87.0,1.0,,,,,,,,,,,,,,,,,,,,,,,,,,
174,0,,html-keyboard-response,174,328864,0.0-7.5-1.5,2r9bftd335a,2022-09-19 16:24:55.701,5ea3aa462d77061c2a8fc5d6,3,55,57,70,70,28,male,1010.7000000477,,"
  <table>
  <tr height=300>
    <td width=300 height=300><img src=""static/images/cards/back_of_black_stars.svg"" width=""175px"" height=""250px""></img></td>
    <td width=300 height=300><img src=""static/images/cards/back_of_black_stars.svg"" width=""175px"" height=""250px""></img></td>
  </tr>
  <tr height=200>
    <td width=300><img src=""static/images/keys/z.svg"" width=""35%"" height=""75%""></img></td>
    <td width=300><img src=""static/images/keys/m.svg"" width=""35%"" height=""75%""></img></td>
  </tr>
</table>
  ",77.0,1.0,,,,,,,,,,,,,,,,,,,,,,,,,,
175,0,,html-keyboard-response,175,330377,0.0-7.5-2.5,2r9bftd335a,2022-09-19 16:24:55.701,5ea3aa462d77061c2a8fc5d6,3,55,57,70,70,28,male,,,"
  <table>
  <tr height=300>
    <td width=300 height=300><img src=""static/images/cards/back_of_black_stars.svg"" width=""175px"" height=""250px""></img></td>
    <td width=300 height=300><img src=""static/images/cards/2_of_black_stars.svg"" width=""175px"" height=""250px""></img></td>
  </tr>
  <tr height=200>
    <td width=300><img src=""static/images/keys/z.svg"" width=""35%"" height=""75%""></img></td>
    <td width=300><img src=""static/images/keys/m.svg"" width=""35%"" height=""75%""></img></td>
  </tr>
</table>
  ",,,,,,,,,,,,,,,,,,,,,,,,,,,,
176,0,,html-keyboard-response,176,331880,0.0-7.5-3.5,2r9bftd335a,2022-09-19 16:24:55.701,5ea3aa462d77061c2a8fc5d6,3,55,57,70,70,28,male,,,"<p style=""font-size:50px"">You win!
+10 points this round!</p>",,,,,,,,,,,,,,,,,,,,,,,,,,,,
177,0,,html-keyboard-response,177,332387,0.0-7.5-4.5,2r9bftd335a,2022-09-19 16:24:55.701,5ea3aa462d77061c2a8fc5d6,3,55,57,70,70,28,male,,,,,,1.0,choice,5.0,C,D,black,red,stars,stars,C,D,C,black,stars,963.8999999762,1.0,0.0,NA,right,1010.7000000477,2.0,0.0,1.0,,,
178,0,,html-keyboard-response,178,333112,0.0-7.6-0.6,2r9bftd335a,2022-09-19 16:24:55.701,5ea3aa462d77061c2a8fc5d6,3,55,57,70,70,28,male,722.5,,"
  <table>
  <tr height=300>
    <td width=300 height=300><img src=""static/images/cards/stack_of_red_moons.svg"" width=""175px"" height=""250px""></img></td>
    <td width=300 height=300><img src=""static/images/cards/stack_of_black_moons.svg"" width=""175px"" height=""250px""></img></td>
  </tr>
  <tr height=200>
    <td width=300><img src=""static/images/keys/w.svg"" width=""35%"" height=""75%""></img></td>
    <td width=300><img src=""static/images/keys/o.svg"" width=""35%"" height=""75%""></img></td>
  </tr>
</table>
  ",79.0,1.0,,,,,,,,,,,,,,,,,,,,,,,,,,
179,0,,html-keyboard-response,179,334680,0.0-7.6-1.6,2r9bftd335a,2022-09-19 16:24:55.701,5ea3aa462d77061c2a8fc5d6,3,55,57,70,70,28,male,1063.8000000119,,"
  <table>
  <tr height=300>
    <td width=300 height=300><img src=""static/images/cards/back_of_black_moons.svg"" width=""175px"" height=""250px""></img></td>
    <td width=300 height=300><img src=""static/images/cards/back_of_black_moons.svg"" width=""175px"" height=""250px""></img></td>
  </tr>
  <tr height=200>
    <td width=300><img src=""static/images/keys/z.svg"" width=""35%"" height=""75%""></img></td>
    <td width=300><img src=""static/images/keys/m.svg"" width=""35%"" height=""75%""></img></td>
  </tr>
</table>
  ",90.0,1.0,,,,,,,,,,,,,,,,,,,,,,,,,,
180,0,,html-keyboard-response,180,336187,0.0-7.6-2.6,2r9bftd335a,2022-09-19 16:24:55.701,5ea3aa462d77061c2a8fc5d6,3,55,57,70,70,28,male,,,"
  <table>
  <tr height=300>
    <td width=300 height=300><img src=""static/images/cards/10_of_black_moons.svg"" width=""175px"" height=""250px""></img></td>
    <td width=300 height=300><img src=""static/images/cards/back_of_black_moons.svg"" width=""175px"" height=""250px""></img></td>
  </tr>
  <tr height=200>
    <td width=300><img src=""static/images/keys/z.svg"" width=""35%"" height=""75%""></img></td>
    <td width=300><img src=""static/images/keys/m.svg"" width=""35%"" height=""75%""></img></td>
  </tr>
</table>
  ",,,,,,,,,,,,,,,,,,,,,,,,,,,,
181,0,,html-keyboard-response,181,337704,0.0-7.6-3.6,2r9bftd335a,2022-09-19 16:24:55.701,5ea3aa462d77061c2a8fc5d6,3,55,57,70,70,28,male,,,"<p style=""font-size:50px"">You win!
+10 points this round!</p>",,,,,,,,,,,,,,,,,,,,,,,,,,,,
182,0,,html-keyboard-response,182,338213,0.0-7.6-4.6,2r9bftd335a,2022-09-19 16:24:55.701,5ea3aa462d77061c2a8fc5d6,3,55,57,70,70,28,male,,,,,,1.0,choice,6.0,A,B,red,black,moons,moons,B,A,A,black,moons,722.5,1.0,1.0,NA,left,1063.8000000119,10.0,1.0,1.0,,,
183,0,,html-keyboard-response,183,339359,0.0-7.7-0.7,2r9bftd335a,2022-09-19 16:24:55.701,5ea3aa462d77061c2a8fc5d6,3,55,57,70,70,28,male,1144.3999999762,,"
  <table>
  <tr height=300>
    <td width=300 height=300><img src=""static/images/cards/stack_of_black_moons.svg"" width=""175px"" height=""250px""></img></td>
    <td width=300 height=300><img src=""static/images/cards/stack_of_black_stars.svg"" width=""175px"" height=""250px""></img></td>
  </tr>
  <tr height=200>
    <td width=300><img src=""static/images/keys/w.svg"" width=""35%"" height=""75%""></img></td>
    <td width=300><img src=""static/images/keys/o.svg"" width=""35%"" height=""75%""></img></td>
  </tr>
</table>
  ",87.0,1.0,,,,,,,,,,,,,,,,,,,,,,,,,,
184,0,,html-keyboard-response,184,340408,0.0-7.7-1.7,2r9bftd335a,2022-09-19 16:24:55.701,5ea3aa462d77061c2a8fc5d6,3,55,57,70,70,28,male,535.8999999762,,"
  <table>
  <tr height=300>
    <td width=300 height=300><img src=""static/images/cards/back_of_black_moons.svg"" width=""175px"" height=""250px""></img></td>
    <td width=300 height=300><img src=""static/images/cards/back_of_black_moons.svg"" width=""175px"" height=""250px""></img></td>
  </tr>
  <tr height=200>
    <td width=300><img src=""static/images/keys/z.svg"" width=""35%"" height=""75%""></img></td>
    <td width=300><img src=""static/images/keys/m.svg"" width=""35%"" height=""75%""></img></td>
  </tr>
</table>
  ",77.0,1.0,,,,,,,,,,,,,,,,,,,,,,,,,,
185,0,,html-keyboard-response,185,341912,0.0-7.7-2.7,2r9bftd335a,2022-09-19 16:24:55.701,5ea3aa462d77061c2a8fc5d6,3,55,57,70,70,28,male,,,"
  <table>
  <tr height=300>
    <td width=300 height=300><img src=""static/images/cards/back_of_black_moons.svg"" width=""175px"" height=""250px""></img></td>
    <td width=300 height=300><img src=""static/images/cards/4_of_black_moons.svg"" width=""175px"" height=""250px""></img></td>
  </tr>
  <tr height=200>
    <td width=300><img src=""static/images/keys/z.svg"" width=""35%"" height=""75%""></img></td>
    <td width=300><img src=""static/images/keys/m.svg"" width=""35%"" height=""75%""></img></td>
  </tr>
</table>
  ",,,,,,,,,,,,,,,,,,,,,,,,,,,,
186,0,,html-keyboard-response,186,343414,0.0-7.7-3.7,2r9bftd335a,2022-09-19 16:24:55.701,5ea3aa462d77061c2a8fc5d6,3,55,57,70,70,28,male,,,"<p style=""font-size:50px"">You Lose!
No points this round.</p>",,,,,,,,,,,,,,,,,,,,,,,,,,,,
187,0,,html-keyboard-response,187,343919,0.0-7.7-4.7,2r9bftd335a,2022-09-19 16:24:55.701,5ea3aa462d77061c2a8fc5d6,3,55,57,70,70,28,male,,,,,,1.0,choice,7.0,A,C,black,black,moons,stars,A,C,A,black,moons,1144.3999999762,1.0,1.0,NA,right,535.8999999762,4.0,0.0,0.0,,,
188,0,,html-keyboard-response,188,344736,0.0-7.8-0.8,2r9bftd335a,2022-09-19 16:24:55.701,5ea3aa462d77061c2a8fc5d6,3,55,57,70,70,28,male,814.0,,"
  <table>
  <tr height=300>
    <td width=300 height=300><img src=""static/images/cards/stack_of_black_moons.svg"" width=""175px"" height=""250px""></img></td>
    <td width=300 height=300><img src=""static/images/cards/stack_of_red_moons.svg"" width=""175px"" height=""250px""></img></td>
  </tr>
  <tr height=200>
    <td width=300><img src=""static/images/keys/w.svg"" width=""35%"" height=""75%""></img></td>
    <td width=300><img src=""static/images/keys/o.svg"" width=""35%"" height=""75%""></img></td>
  </tr>
</table>
  ",79.0,1.0,,,,,,,,,,,,,,,,,,,,,,,,,,
189,0,,html-keyboard-response,189,345664,0.0-7.8-1.8,2r9bftd335a,2022-09-19 16:24:55.701,5ea3aa462d77061c2a8fc5d6,3,55,57,70,70,28,male,413.8000000119,,"
  <table>
  <tr height=300>
    <td width=300 height=300><img src=""static/images/cards/back_of_red_moons.svg"" width=""175px"" height=""250px""></img></td>
    <td width=300 height=300><img src=""static/images/cards/back_of_red_moons.svg"" width=""175px"" height=""250px""></img></td>
  </tr>
  <tr height=200>
    <td width=300><img src=""static/images/keys/z.svg"" width=""35%"" height=""75%""></img></td>
    <td width=300></td>
  </tr>
</table>
  ",90.0,1.0,,,,,,,,,,,,,,,,,,,,,,,,,,
190,0,,html-keyboard-response,190,347167,0.0-7.8-2.8,2r9bftd335a,2022-09-19 16:24:55.701,5ea3aa462d77061c2a8fc5d6,3,55,57,70,70,28,male,,,"
  <table>
  <tr height=300>
    <td width=300 height=300><img src=""static/images/cards/6_of_red_moons.svg"" width=""175px"" height=""250px""></img></td>
    <td width=300 height=300><img src=""static/images/cards/back_of_red_moons.svg"" width=""175px"" height=""250px""></img></td>
  </tr>
  <tr height=200>
    <td width=300><img src=""static/images/keys/z.svg"" width=""35%"" height=""75%""></img></td>
    <td width=300></td>
  </tr>
</table>
  ",,,,,,,,,,,,,,,,,,,,,,,,,,,,
191,0,,html-keyboard-response,191,348684,0.0-7.8-3.8,2r9bftd335a,2022-09-19 16:24:55.701,5ea3aa462d77061c2a8fc5d6,3,55,57,70,70,28,male,,,"<p style=""font-size:50px"">You win!
+10 points this round!</p>",,,,,,,,,,,,,,,,,,,,,,,,,,,,
192,0,,html-keyboard-response,192,349211,0.0-7.8-4.8,2r9bftd335a,2022-09-19 16:24:55.701,5ea3aa462d77061c2a8fc5d6,3,55,57,70,70,28,male,,,,,,1.0,choice,8.0,A,B,black,red,moons,moons,A,B,B,red,moons,814.0,0.0,1.0,1,left,413.8000000119,6.0,1.0,1.0,,,
193,0,,html-keyboard-response,193,350397,0.0-7.9-0.9,2r9bftd335a,2022-09-19 16:24:55.701,5ea3aa462d77061c2a8fc5d6,3,55,57,70,70,28,male,1183.3999999762,,"
  <table>
  <tr height=300>
    <td width=300 height=300><img src=""static/images/cards/stack_of_red_stars.svg"" width=""175px"" height=""250px""></img></td>
    <td width=300 height=300><img src=""static/images/cards/stack_of_black_moons.svg"" width=""175px"" height=""250px""></img></td>
  </tr>
  <tr height=200>
    <td width=300><img src=""static/images/keys/w.svg"" width=""35%"" height=""75%""></img></td>
    <td width=300><img src=""static/images/keys/o.svg"" width=""35%"" height=""75%""></img></td>
  </tr>
</table>
  ",87.0,1.0,,,,,,,,,,,,,,,,,,,,,,,,,,
194,0,,html-keyboard-response,194,351896,0.0-7.9-1.9,2r9bftd335a,2022-09-19 16:24:55.701,5ea3aa462d77061c2a8fc5d6,3,55,57,70,70,28,male,983.8000000119,,"
  <table>
  <tr height=300>
    <td width=300 height=300><img src=""static/images/cards/back_of_red_stars.svg"" width=""175px"" height=""250px""></img></td>
    <td width=300 height=300><img src=""static/images/cards/back_of_red_stars.svg"" width=""175px"" height=""250px""></img></td>
  </tr>
  <tr height=200>
    <td width=300><img src=""static/images/keys/z.svg"" width=""35%"" height=""75%""></img></td>
    <td width=300></td>
  </tr>
</table>
  ",90.0,1.0,,,,,,,,,,,,,,,,,,,,,,,,,,
195,0,,html-keyboard-response,195,353414,0.0-7.9-2.9,2r9bftd335a,2022-09-19 16:24:55.701,5ea3aa462d77061c2a8fc5d6,3,55,57,70,70,28,male,,,"
  <table>
  <tr height=300>
    <td width=300 height=300><img src=""static/images/cards/2_of_red_stars.svg"" width=""175px"" height=""250px""></img></td>
    <td width=300 height=300><img src=""static/images/cards/back_of_red_stars.svg"" width=""175px"" height=""250px""></img></td>
  </tr>
  <tr height=200>
    <td width=300><img src=""static/images/keys/z.svg"" width=""35%"" height=""75%""></img></td>
    <td width=300></td>
  </tr>
</table>
  ",,,,,,,,,,,,,,,,,,,,,,,,,,,,
196,0,,html-keyboard-response,196,354932,0.0-7.9-3.9,2r9bftd335a,2022-09-19 16:24:55.701,5ea3aa462d77061c2a8fc5d6,3,55,57,70,70,28,male,,,"<p style=""font-size:50px"">You win!
+10 points this round!</p>",,,,,,,,,,,,,,,,,,,,,,,,,,,,
197,0,,html-keyboard-response,197,355438,0.0-7.9-4.9,2r9bftd335a,2022-09-19 16:24:55.701,5ea3aa462d77061c2a8fc5d6,3,55,57,70,70,28,male,,,,,,1.0,choice,9.0,A,D,red,black,stars,moons,D,A,D,red,stars,1183.3999999762,0.0,0.0,1,left,983.8000000119,2.0,0.0,1.0,,,
198,0,,html-keyboard-response,198,356054,0.0-7.10-0.10,2r9bftd335a,2022-09-19 16:24:55.701,5ea3aa462d77061c2a8fc5d6,3,55,57,70,70,28,male,616.0,,"
  <table>
  <tr height=300>
    <td width=300 height=300><img src=""static/images/cards/stack_of_black_moons.svg"" width=""175px"" height=""250px""></img></td>
    <td width=300 height=300><img src=""static/images/cards/stack_of_black_stars.svg"" width=""175px"" height=""250px""></img></td>
  </tr>
  <tr height=200>
    <td width=300><img src=""static/images/keys/w.svg"" width=""35%"" height=""75%""></img></td>
    <td width=300><img src=""static/images/keys/o.svg"" width=""35%"" height=""75%""></img></td>
  </tr>
</table>
  ",79.0,1.0,,,,,,,,,,,,,,,,,,,,,,,,,,
199,0,,html-keyboard-response,199,357504,0.0-7.10-1.10,2r9bftd335a,2022-09-19 16:24:55.701,5ea3aa462d77061c2a8fc5d6,3,55,57,70,70,28,male,937.8999999762,,"
  <table>
  <tr height=300>
    <td width=300 height=300><img src=""static/images/cards/back_of_black_stars.svg"" width=""175px"" height=""250px""></img></td>
    <td width=300 height=300><img src=""static/images/cards/back_of_black_stars.svg"" width=""175px"" height=""250px""></img></td>
  </tr>
  <tr height=200>
    <td width=300><img src=""static/images/keys/z.svg"" width=""35%"" height=""75%""></img></td>
    <td width=300><img src=""static/images/keys/m.svg"" width=""35%"" height=""75%""></img></td>
  </tr>
</table>
  ",77.0,1.0,,,,,,,,,,,,,,,,,,,,,,,,,,
200,0,,html-keyboard-response,200,359021,0.0-7.10-2.10,2r9bftd335a,2022-09-19 16:24:55.701,5ea3aa462d77061c2a8fc5d6,3,55,57,70,70,28,male,,,"
  <table>
  <tr height=300>
    <td width=300 height=300><img src=""static/images/cards/back_of_black_stars.svg"" width=""175px"" height=""250px""></img></td>
    <td width=300 height=300><img src=""static/images/cards/1_of_black_stars.svg"" width=""175px"" height=""250px""></img></td>
  </tr>
  <tr height=200>
    <td width=300><img src=""static/images/keys/z.svg"" width=""35%"" height=""75%""></img></td>
    <td width=300><img src=""static/images/keys/m.svg"" width=""35%"" height=""75%""></img></td>
  </tr>
</table>
  ",,,,,,,,,,,,,,,,,,,,,,,,,,,,
201,0,,html-keyboard-response,201,360523,0.0-7.10-3.10,2r9bftd335a,2022-09-19 16:24:55.701,5ea3aa462d77061c2a8fc5d6,3,55,57,70,70,28,male,,,"<p style=""font-size:50px"">You Lose!
No points this round.</p>",,,,,,,,,,,,,,,,,,,,,,,,,,,,
202,0,,html-keyboard-response,202,361044,0.0-7.10-4.10,2r9bftd335a,2022-09-19 16:24:55.701,5ea3aa462d77061c2a8fc5d6,3,55,57,70,70,28,male,,,,,,1.0,choice,10.0,A,C,black,black,moons,stars,A,C,C,black,stars,616.0,1.0,0.0,NA,right,937.8999999762,1.0,0.0,0.0,,,
203,0,,html-keyboard-response,203,361548,0.0-7.11-0.11,2r9bftd335a,2022-09-19 16:24:55.701,5ea3aa462d77061c2a8fc5d6,3,55,57,70,70,28,male,502.0,,"
  <table>
  <tr height=300>
    <td width=300 height=300><img src=""static/images/cards/stack_of_black_stars.svg"" width=""175px"" height=""250px""></img></td>
    <td width=300 height=300><img src=""static/images/cards/stack_of_red_stars.svg"" width=""175px"" height=""250px""></img></td>
  </tr>
  <tr height=200>
    <td width=300><img src=""static/images/keys/w.svg"" width=""35%"" height=""75%""></img></td>
    <td width=300><img src=""static/images/keys/o.svg"" width=""35%"" height=""75%""></img></td>
  </tr>
</table>
  ",79.0,1.0,,,,,,,,,,,,,,,,,,,,,,,,,,
204,0,,html-keyboard-response,204,364048,0.0-7.11-1.11,2r9bftd335a,2022-09-19 16:24:55.701,5ea3aa462d77061c2a8fc5d6,3,55,57,70,70,28,male,1989.5,,"
  <table>
  <tr height=300>
    <td width=300 height=300><img src=""static/images/cards/back_of_red_stars.svg"" width=""175px"" height=""250px""></img></td>
    <td width=300 height=300><img src=""static/images/cards/back_of_red_stars.svg"" width=""175px"" height=""250px""></img></td>
  </tr>
  <tr height=200>
    <td width=300><img src=""static/images/keys/z.svg"" width=""35%"" height=""75%""></img></td>
    <td width=300></td>
  </tr>
</table>
  ",90.0,1.0,,,,,,,,,,,,,,,,,,,,,,,,,,
205,0,,html-keyboard-response,205,365561,0.0-7.11-2.11,2r9bftd335a,2022-09-19 16:24:55.701,5ea3aa462d77061c2a8fc5d6,3,55,57,70,70,28,male,,,"
  <table>
  <tr height=300>
    <td width=300 height=300><img src=""static/images/cards/10_of_red_stars.svg"" width=""175px"" height=""250px""></img></td>
    <td width=300 height=300><img src=""static/images/cards/back_of_red_stars.svg"" width=""175px"" height=""250px""></img></td>
  </tr>
  <tr height=200>
    <td width=300><img src=""static/images/keys/z.svg"" width=""35%"" height=""75%""></img></td>
    <td width=300></td>
  </tr>
</table>
  ",,,,,,,,,,,,,,,,,,,,,,,,,,,,
206,0,,html-keyboard-response,206,367064,0.0-7.11-3.11,2r9bftd335a,2022-09-19 16:24:55.701,5ea3aa462d77061c2a8fc5d6,3,55,57,70,70,28,male,,,"<p style=""font-size:50px"">You win!
+10 points this round!</p>",,,,,,,,,,,,,,,,,,,,,,,,,,,,
207,0,,html-keyboard-response,207,367569,0.0-7.11-4.11,2r9bftd335a,2022-09-19 16:24:55.701,5ea3aa462d77061c2a8fc5d6,3,55,57,70,70,28,male,,,,,,1.0,choice,11.0,C,D,black,red,stars,stars,C,D,D,red,stars,502.0,0.0,0.0,1,left,1989.5,10.0,1.0,1.0,,,
208,0,,html-keyboard-response,208,368696,0.0-7.12-0.12,2r9bftd335a,2022-09-19 16:24:55.701,5ea3aa462d77061c2a8fc5d6,3,55,57,70,70,28,male,1124.1999999881,,"
  <table>
  <tr height=300>
    <td width=300 height=300><img src=""static/images/cards/stack_of_red_moons.svg"" width=""175px"" height=""250px""></img></td>
    <td width=300 height=300><img src=""static/images/cards/stack_of_black_moons.svg"" width=""175px"" height=""250px""></img></td>
  </tr>
  <tr height=200>
    <td width=300><img src=""static/images/keys/w.svg"" width=""35%"" height=""75%""></img></td>
    <td width=300><img src=""static/images/keys/o.svg"" width=""35%"" height=""75%""></img></td>
  </tr>
</table>
  ",87.0,1.0,,,,,,,,,,,,,,,,,,,,,,,,,,
209,0,,html-keyboard-response,209,370202,0.0-7.12-1.12,2r9bftd335a,2022-09-19 16:24:55.701,5ea3aa462d77061c2a8fc5d6,3,55,57,70,70,28,male,1015.3000000119,,"
  <table>
  <tr height=300>
    <td width=300 height=300><img src=""static/images/cards/back_of_red_moons.svg"" width=""175px"" height=""250px""></img></td>
    <td width=300 height=300><img src=""static/images/cards/back_of_red_moons.svg"" width=""175px"" height=""250px""></img></td>
  </tr>
  <tr height=200>
    <td width=300></td>
    <td width=300><img src=""static/images/keys/m.svg"" width=""35%"" height=""75%""></img></td>
  </tr>
</table>
  ",77.0,1.0,,,,,,,,,,,,,,,,,,,,,,,,,,
210,0,,html-keyboard-response,210,371705,0.0-7.12-2.12,2r9bftd335a,2022-09-19 16:24:55.701,5ea3aa462d77061c2a8fc5d6,3,55,57,70,70,28,male,,,"
  <table>
  <tr height=300>
    <td width=300 height=300><img src=""static/images/cards/back_of_red_moons.svg"" width=""175px"" height=""250px""></img></td>
    <td width=300 height=300><img src=""static/images/cards/1_of_red_moons.svg"" width=""175px"" height=""250px""></img></td>
  </tr>
  <tr height=200>
    <td width=300></td>
    <td width=300><img src=""static/images/keys/m.svg"" width=""35%"" height=""75%""></img></td>
  </tr>
</table>
  ",,,,,,,,,,,,,,,,,,,,,,,,,,,,
211,0,,html-keyboard-response,211,373229,0.0-7.12-3.12,2r9bftd335a,2022-09-19 16:24:55.701,5ea3aa462d77061c2a8fc5d6,3,55,57,70,70,28,male,,,"<p style=""font-size:50px"">You Lose!
No points this round.</p>",,,,,,,,,,,,,,,,,,,,,,,,,,,,
212,0,,html-keyboard-response,212,373734,0.0-7.12-4.12,2r9bftd335a,2022-09-19 16:24:55.701,5ea3aa462d77061c2a8fc5d6,3,55,57,70,70,28,male,,,,,,1.0,choice,12.0,A,B,red,black,moons,moons,B,A,B,red,moons,1124.1999999881,0.0,1.0,0,right,1015.3000000119,1.0,0.0,0.0,,,
213,0,,html-keyboard-response,213,374327,0.0-7.13-0.13,2r9bftd335a,2022-09-19 16:24:55.701,5ea3aa462d77061c2a8fc5d6,3,55,57,70,70,28,male,591.8999999762,,"
  <table>
  <tr height=300>
    <td width=300 height=300><img src=""static/images/cards/stack_of_black_stars.svg"" width=""175px"" height=""250px""></img></td>
    <td width=300 height=300><img src=""static/images/cards/stack_of_red_stars.svg"" width=""175px"" height=""250px""></img></td>
  </tr>
  <tr height=200>
    <td width=300><img src=""static/images/keys/w.svg"" width=""35%"" height=""75%""></img></td>
    <td width=300><img src=""static/images/keys/o.svg"" width=""35%"" height=""75%""></img></td>
  </tr>
</table>
  ",79.0,1.0,,,,,,,,,,,,,,,,,,,,,,,,,,
214,0,,html-keyboard-response,214,375338,0.0-7.13-1.13,2r9bftd335a,2022-09-19 16:24:55.701,5ea3aa462d77061c2a8fc5d6,3,55,57,70,70,28,male,505.3000000119,,"
  <table>
  <tr height=300>
    <td width=300 height=300><img src=""static/images/cards/back_of_red_stars.svg"" width=""175px"" height=""250px""></img></td>
    <td width=300 height=300><img src=""static/images/cards/back_of_red_stars.svg"" width=""175px"" height=""250px""></img></td>
  </tr>
  <tr height=200>
    <td width=300><img src=""static/images/keys/z.svg"" width=""35%"" height=""75%""></img></td>
    <td width=300></td>
  </tr>
</table>
  ",90.0,1.0,,,,,,,,,,,,,,,,,,,,,,,,,,
215,0,,html-keyboard-response,215,376853,0.0-7.13-2.13,2r9bftd335a,2022-09-19 16:24:55.701,5ea3aa462d77061c2a8fc5d6,3,55,57,70,70,28,male,,,"
  <table>
  <tr height=300>
    <td width=300 height=300><img src=""static/images/cards/6_of_red_stars.svg"" width=""175px"" height=""250px""></img></td>
    <td width=300 height=300><img src=""static/images/cards/back_of_red_stars.svg"" width=""175px"" height=""250px""></img></td>
  </tr>
  <tr height=200>
    <td width=300><img src=""static/images/keys/z.svg"" width=""35%"" height=""75%""></img></td>
    <td width=300></td>
  </tr>
</table>
  ",,,,,,,,,,,,,,,,,,,,,,,,,,,,
216,0,,html-keyboard-response,216,378369,0.0-7.13-3.13,2r9bftd335a,2022-09-19 16:24:55.701,5ea3aa462d77061c2a8fc5d6,3,55,57,70,70,28,male,,,"<p style=""font-size:50px"">You win!
+10 points this round!</p>",,,,,,,,,,,,,,,,,,,,,,,,,,,,
217,0,,html-keyboard-response,217,378874,0.0-7.13-4.13,2r9bftd335a,2022-09-19 16:24:55.701,5ea3aa462d77061c2a8fc5d6,3,55,57,70,70,28,male,,,,,,1.0,choice,13.0,C,D,black,red,stars,stars,C,D,D,red,stars,591.8999999762,0.0,0.0,1,left,505.3000000119,6.0,1.0,1.0,,,
218,0,,html-keyboard-response,218,379818,0.0-7.14-0.14,2r9bftd335a,2022-09-19 16:24:55.701,5ea3aa462d77061c2a8fc5d6,3,55,57,70,70,28,male,942.2000000477,,"
  <table>
  <tr height=300>
    <td width=300 height=300><img src=""static/images/cards/stack_of_red_stars.svg"" width=""175px"" height=""250px""></img></td>
    <td width=300 height=300><img src=""static/images/cards/stack_of_red_moons.svg"" width=""175px"" height=""250px""></img></td>
  </tr>
  <tr height=200>
    <td width=300><img src=""static/images/keys/w.svg"" width=""35%"" height=""75%""></img></td>
    <td width=300><img src=""static/images/keys/o.svg"" width=""35%"" height=""75%""></img></td>
  </tr>
</table>
  ",87.0,1.0,,,,,,,,,,,,,,,,,,,,,,,,,,
219,0,,html-keyboard-response,219,381194,0.0-7.14-1.14,2r9bftd335a,2022-09-19 16:24:55.701,5ea3aa462d77061c2a8fc5d6,3,55,57,70,70,28,male,873.2999999523,,"
  <table>
  <tr height=300>
    <td width=300 height=300><img src=""static/images/cards/back_of_red_stars.svg"" width=""175px"" height=""250px""></img></td>
    <td width=300 height=300><img src=""static/images/cards/back_of_red_stars.svg"" width=""175px"" height=""250px""></img></td>
  </tr>
  <tr height=200>
    <td width=300></td>
    <td width=300><img src=""static/images/keys/m.svg"" width=""35%"" height=""75%""></img></td>
  </tr>
</table>
  ",77.0,1.0,,,,,,,,,,,,,,,,,,,,,,,,,,
220,0,,html-keyboard-response,220,382707,0.0-7.14-2.14,2r9bftd335a,2022-09-19 16:24:55.701,5ea3aa462d77061c2a8fc5d6,3,55,57,70,70,28,male,,,"
  <table>
  <tr height=300>
    <td width=300 height=300><img src=""static/images/cards/back_of_red_stars.svg"" width=""175px"" height=""250px""></img></td>
    <td width=300 height=300><img src=""static/images/cards/7_of_red_stars.svg"" width=""175px"" height=""250px""></img></td>
  </tr>
  <tr height=200>
    <td width=300></td>
    <td width=300><img src=""static/images/keys/m.svg"" width=""35%"" height=""75%""></img></td>
  </tr>
</table>
  ",,,,,,,,,,,,,,,,,,,,,,,,,,,,
221,0,,html-keyboard-response,221,384225,0.0-7.14-3.14,2r9bftd335a,2022-09-19 16:24:55.701,5ea3aa462d77061c2a8fc5d6,3,55,57,70,70,28,male,,,"<p style=""font-size:50px"">You Lose!
No points this round.</p>",,,,,,,,,,,,,,,,,,,,,,,,,,,,
222,0,,html-keyboard-response,222,384732,0.0-7.14-4.14,2r9bftd335a,2022-09-19 16:24:55.701,5ea3aa462d77061c2a8fc5d6,3,55,57,70,70,28,male,,,,,,1.0,choice,14.0,B,D,red,red,stars,moons,D,B,D,red,stars,942.2000000477,0.0,0.0,0,right,873.2999999523,7.0,1.0,0.0,,,
223,0,,html-keyboard-response,223,385816,0.0-7.15-0.15,2r9bftd335a,2022-09-19 16:24:55.701,5ea3aa462d77061c2a8fc5d6,3,55,57,70,70,28,male,1082.0999999642,,"
  <table>
  <tr height=300>
    <td width=300 height=300><img src=""static/images/cards/stack_of_black_stars.svg"" width=""175px"" height=""250px""></img></td>
    <td width=300 height=300><img src=""static/images/cards/stack_of_red_moons.svg"" width=""175px"" height=""250px""></img></td>
  </tr>
  <tr height=200>
    <td width=300><img src=""static/images/keys/w.svg"" width=""35%"" height=""75%""></img></td>
    <td width=300><img src=""static/images/keys/o.svg"" width=""35%"" height=""75%""></img></td>
  </tr>
</table>
  ",79.0,1.0,,,,,,,,,,,,,,,,,,,,,,,,,,
224,0,,html-keyboard-response,224,386643,0.0-7.15-1.15,2r9bftd335a,2022-09-19 16:24:55.701,5ea3aa462d77061c2a8fc5d6,3,55,57,70,70,28,male,310.1999999881,,"
  <table>
  <tr height=300>
    <td width=300 height=300><img src=""static/images/cards/back_of_red_moons.svg"" width=""175px"" height=""250px""></img></td>
    <td width=300 height=300><img src=""static/images/cards/back_of_red_moons.svg"" width=""175px"" height=""250px""></img></td>
  </tr>
  <tr height=200>
    <td width=300></td>
    <td width=300><img src=""static/images/keys/m.svg"" width=""35%"" height=""75%""></img></td>
  </tr>
</table>
  ",77.0,1.0,,,,,,,,,,,,,,,,,,,,,,,,,,
225,0,,html-keyboard-response,225,388153,0.0-7.15-2.15,2r9bftd335a,2022-09-19 16:24:55.701,5ea3aa462d77061c2a8fc5d6,3,55,57,70,70,28,male,,,"
  <table>
  <tr height=300>
    <td width=300 height=300><img src=""static/images/cards/back_of_red_moons.svg"" width=""175px"" height=""250px""></img></td>
    <td width=300 height=300><img src=""static/images/cards/6_of_red_moons.svg"" width=""175px"" height=""250px""></img></td>
  </tr>
  <tr height=200>
    <td width=300></td>
    <td width=300><img src=""static/images/keys/m.svg"" width=""35%"" height=""75%""></img></td>
  </tr>
</table>
  ",,,,,,,,,,,,,,,,,,,,,,,,,,,,
226,0,,html-keyboard-response,226,389656,0.0-7.15-3.15,2r9bftd335a,2022-09-19 16:24:55.701,5ea3aa462d77061c2a8fc5d6,3,55,57,70,70,28,male,,,"<p style=""font-size:50px"">You win!
+10 points this round!</p>",,,,,,,,,,,,,,,,,,,,,,,,,,,,
227,0,,html-keyboard-response,227,390178,0.0-7.15-4.15,2r9bftd335a,2022-09-19 16:24:55.701,5ea3aa462d77061c2a8fc5d6,3,55,57,70,70,28,male,,,,,,1.0,choice,15.0,B,C,black,red,stars,moons,C,B,B,red,moons,1082.0999999642,0.0,1.0,0,right,310.1999999881,6.0,1.0,1.0,,,
228,0,,html-keyboard-response,228,390738,0.0-7.16-0.16,2r9bftd335a,2022-09-19 16:24:55.701,5ea3aa462d77061c2a8fc5d6,3,55,57,70,70,28,male,557.8000000119,,"
  <table>
  <tr height=300>
    <td width=300 height=300><img src=""static/images/cards/stack_of_black_moons.svg"" width=""175px"" height=""250px""></img></td>
    <td width=300 height=300><img src=""static/images/cards/stack_of_red_stars.svg"" width=""175px"" height=""250px""></img></td>
  </tr>
  <tr height=200>
    <td width=300><img src=""static/images/keys/w.svg"" width=""35%"" height=""75%""></img></td>
    <td width=300><img src=""static/images/keys/o.svg"" width=""35%"" height=""75%""></img></td>
  </tr>
</table>
  ",87.0,1.0,,,,,,,,,,,,,,,,,,,,,,,,,,
229,0,,html-keyboard-response,229,391659,0.0-7.16-1.16,2r9bftd335a,2022-09-19 16:24:55.701,5ea3aa462d77061c2a8fc5d6,3,55,57,70,70,28,male,397.8999999762,,"
  <table>
  <tr height=300>
    <td width=300 height=300><img src=""static/images/cards/back_of_black_moons.svg"" width=""175px"" height=""250px""></img></td>
    <td width=300 height=300><img src=""static/images/cards/back_of_black_moons.svg"" width=""175px"" height=""250px""></img></td>
  </tr>
  <tr height=200>
    <td width=300><img src=""static/images/keys/z.svg"" width=""35%"" height=""75%""></img></td>
    <td width=300><img src=""static/images/keys/m.svg"" width=""35%"" height=""75%""></img></td>
  </tr>
</table>
  ",90.0,1.0,,,,,,,,,,,,,,,,,,,,,,,,,,
230,0,,html-keyboard-response,230,393161,0.0-7.16-2.16,2r9bftd335a,2022-09-19 16:24:55.701,5ea3aa462d77061c2a8fc5d6,3,55,57,70,70,28,male,,,"
  <table>
  <tr height=300>
    <td width=300 height=300><img src=""static/images/cards/2_of_black_moons.svg"" width=""175px"" height=""250px""></img></td>
    <td width=300 height=300><img src=""static/images/cards/back_of_black_moons.svg"" width=""175px"" height=""250px""></img></td>
  </tr>
  <tr height=200>
    <td width=300><img src=""static/images/keys/z.svg"" width=""35%"" height=""75%""></img></td>
    <td width=300><img src=""static/images/keys/m.svg"" width=""35%"" height=""75%""></img></td>
  </tr>
</table>
  ",,,,,,,,,,,,,,,,,,,,,,,,,,,,
231,0,,html-keyboard-response,231,394664,0.0-7.16-3.16,2r9bftd335a,2022-09-19 16:24:55.701,5ea3aa462d77061c2a8fc5d6,3,55,57,70,70,28,male,,,"<p style=""font-size:50px"">You Lose!
No points this round.</p>",,,,,,,,,,,,,,,,,,,,,,,,,,,,
232,0,,html-keyboard-response,232,395170,0.0-7.16-4.16,2r9bftd335a,2022-09-19 16:24:55.701,5ea3aa462d77061c2a8fc5d6,3,55,57,70,70,28,male,,,,,,1.0,choice,16.0,A,D,black,red,moons,stars,A,D,A,black,moons,557.8000000119,1.0,1.0,NA,left,397.8999999762,2.0,0.0,0.0,,,
233,0,,html-keyboard-response,233,396071,0.0-7.17-0.17,2r9bftd335a,2022-09-19 16:24:55.701,5ea3aa462d77061c2a8fc5d6,3,55,57,70,70,28,male,900.6000000238,,"
  <table>
  <tr height=300>
    <td width=300 height=300><img src=""static/images/cards/stack_of_black_stars.svg"" width=""175px"" height=""250px""></img></td>
    <td width=300 height=300><img src=""static/images/cards/stack_of_red_moons.svg"" width=""175px"" height=""250px""></img></td>
  </tr>
  <tr height=200>
    <td width=300><img src=""static/images/keys/w.svg"" width=""35%"" height=""75%""></img></td>
    <td width=300><img src=""static/images/keys/o.svg"" width=""35%"" height=""75%""></img></td>
