,index,success,trial_type,trial_index,time_elapsed,internal_node_id,subject,date,prol_id,ctbl,sense_of_control_A,sense_of_control_B,sense_of_control_C,sense_of_control_D,age,gender,rt,url,stimulus,key_press,npress,is_data_trial,phase,trial,deck1,deck2,col1,col2,sym1,sym2,deck_l,deck_r,chosen_deck,chosen_col,chosen_sym,deck_rt,choose_choice,mutual_info,hidden_key,chosen_card,card_rt,player_num,win_card,outcome,mock_rating,response,responses
0,0,1.0,fullscreen,0,43981,0.0-0.0,e0yq6gosqh,2022-09-19 17:10:15.814,631222ec555b5a004a2f25f8,1,90,58,89,45,31,male,,,,,,,,,,,,,,,,,,,,,,,,,,,,,,,
1,0,,external-html,1,48376,0.0-1.0,e0yq6gosqh,2022-09-19 17:10:15.814,631222ec555b5a004a2f25f8,1,90,58,89,45,31,male,4068.6000000238,static/js/sub/consent.html,,,,,,,,,,,,,,,,,,,,,,,,,,,,,
2,0,,call-function,2,48377,0.0-2.0,e0yq6gosqh,2022-09-19 17:10:15.814,631222ec555b5a004a2f25f8,1,90,58,89,45,31,male,,,,,,,,,,,,,,,,,,,,,,,,,,,,,,,
3,0,,image-keyboard-response,3,50949,0.0-3.0-0.0,e0yq6gosqh,2022-09-19 17:10:15.814,631222ec555b5a004a2f25f8,1,90,58,89,45,31,male,2570.8999999762,,static/images/instructions_CB_1/Slide1.png,39.0,,,,,,,,,,,,,,,,,,,,,,,,,,,
4,0,,image-keyboard-response,4,67602,0.0-3.1-0.1,e0yq6gosqh,2022-09-19 17:10:15.814,631222ec555b5a004a2f25f8,1,90,58,89,45,31,male,16651.4000000954,,static/images/instructions_CB_1/Slide2.png,39.0,,,,,,,,,,,,,,,,,,,,,,,,,,,
5,0,,image-keyboard-response,5,98003,0.0-3.2-0.2,e0yq6gosqh,2022-09-19 17:10:15.814,631222ec555b5a004a2f25f8,1,90,58,89,45,31,male,30410.6000000238,,static/images/instructions_CB_1/Slide3.png,39.0,,,,,,,,,,,,,,,,,,,,,,,,,,,
6,0,,image-keyboard-response,6,106185,0.0-3.3-0.3,e0yq6gosqh,2022-09-19 17:10:15.814,631222ec555b5a004a2f25f8,1,90,58,89,45,31,male,8181.6000000238,,static/images/instructions_CB_1/Slide4.png,39.0,,,,,,,,,,,,,,,,,,,,,,,,,,,
7,0,,image-keyboard-response,7,113931,0.0-3.4-0.4,e0yq6gosqh,2022-09-19 17:10:15.814,631222ec555b5a004a2f25f8,1,90,58,89,45,31,male,7744.8000000715,,static/images/instructions_CB_1/Slide5.png,39.0,,,,,,,,,,,,,,,,,,,,,,,,,,,
8,0,,image-keyboard-response,8,135803,0.0-3.5-0.5,e0yq6gosqh,2022-09-19 17:10:15.814,631222ec555b5a004a2f25f8,1,90,58,89,45,31,male,21871.3999999762,,static/images/instructions_CB_1/Slide6.png,39.0,,,,,,,,,,,,,,,,,,,,,,,,,,,
9,0,,image-keyboard-response,9,185641,0.0-3.6-0.6,e0yq6gosqh,2022-09-19 17:10:15.814,631222ec555b5a004a2f25f8,1,90,58,89,45,31,male,49833.3999999762,,static/images/instructions_CB_1/Slide7.png,39.0,,,,,,,,,,,,,,,,,,,,,,,,,,,
10,0,,image-keyboard-response,10,250940,0.0-3.7-0.7,e0yq6gosqh,2022-09-19 17:10:15.814,631222ec555b5a004a2f25f8,1,90,58,89,45,31,male,65291.8000000715,,static/images/instructions_CB_1/Slide8.png,39.0,,,,,,,,,,,,,,,,,,,,,,,,,,,
11,0,,image-keyboard-response,11,253266,0.0-3.8-0.8,e0yq6gosqh,2022-09-19 17:10:15.814,631222ec555b5a004a2f25f8,1,90,58,89,45,31,male,2325.0,,static/images/instructions_CB_1/Slide9.png,39.0,,,,,,,,,,,,,,,,,,,,,,,,,,,
12,0,,image-keyboard-response,12,257853,0.0-3.9-0.9,e0yq6gosqh,2022-09-19 17:10:15.814,631222ec555b5a004a2f25f8,1,90,58,89,45,31,male,4585.7000000477,,static/images/instructions_CB_1/Slide10.png,39.0,,,,,,,,,,,,,,,,,,,,,,,,,,,
13,0,,image-keyboard-response,13,286575,0.0-3.10-0.10,e0yq6gosqh,2022-09-19 17:10:15.814,631222ec555b5a004a2f25f8,1,90,58,89,45,31,male,28721.0,,static/images/instructions_CB_1/Slide11.png,39.0,,,,,,,,,,,,,,,,,,,,,,,,,,,
14,0,,image-keyboard-response,14,319745,0.0-3.11-0.11,e0yq6gosqh,2022-09-19 17:10:15.814,631222ec555b5a004a2f25f8,1,90,58,89,45,31,male,33168.6000000238,,static/images/instructions_CB_1/Slide12.png,39.0,,,,,,,,,,,,,,,,,,,,,,,,,,,
15,0,,image-keyboard-response,15,321341,0.0-3.12-0.12,e0yq6gosqh,2022-09-19 17:10:15.814,631222ec555b5a004a2f25f8,1,90,58,89,45,31,male,1594.5,,static/images/instructions_CB_1/Slide13.png,39.0,,,,,,,,,,,,,,,,,,,,,,,,,,,
16,0,,image-keyboard-response,16,322762,0.0-3.13-0.13,e0yq6gosqh,2022-09-19 17:10:15.814,631222ec555b5a004a2f25f8,1,90,58,89,45,31,male,1420.1999999285,,static/images/instructions_CB_1/Slide14.png,39.0,,,,,,,,,,,,,,,,,,,,,,,,,,,
17,0,,image-keyboard-response,17,325417,0.0-3.14-0.14,e0yq6gosqh,2022-09-19 17:10:15.814,631222ec555b5a004a2f25f8,1,90,58,89,45,31,male,2654.1999999285,,static/images/instructions_CB_1/Slide15.png,39.0,,,,,,,,,,,,,,,,,,,,,,,,,,,
18,0,,image-keyboard-response,18,327091,0.0-3.15-0.15,e0yq6gosqh,2022-09-19 17:10:15.814,631222ec555b5a004a2f25f8,1,90,58,89,45,31,male,1672.8000000715,,static/images/instructions_CB_1/Slide16.png,39.0,,,,,,,,,,,,,,,,,,,,,,,,,,,
19,0,,image-keyboard-response,19,329193,0.0-3.16-0.16,e0yq6gosqh,2022-09-19 17:10:15.814,631222ec555b5a004a2f25f8,1,90,58,89,45,31,male,2101.5,,static/images/instructions_CB_1/Slide17.png,39.0,,,,,,,,,,,,,,,,,,,,,,,,,,,
20,0,,image-keyboard-response,20,332394,0.0-3.17-0.17,e0yq6gosqh,2022-09-19 17:10:15.814,631222ec555b5a004a2f25f8,1,90,58,89,45,31,male,3200.5,,static/images/instructions_CB_1/Slide18.png,39.0,,,,,,,,,,,,,,,,,,,,,,,,,,,
21,0,,image-keyboard-response,21,334720,0.0-3.18-0.18,e0yq6gosqh,2022-09-19 17:10:15.814,631222ec555b5a004a2f25f8,1,90,58,89,45,31,male,2325.0,,static/images/instructions_CB_1/Slide19.png,39.0,,,,,,,,,,,,,,,,,,,,,,,,,,,
22,0,,html-keyboard-response,22,336234,0.0-4.0-0.0,e0yq6gosqh,2022-09-19 17:10:15.814,631222ec555b5a004a2f25f8,1,90,58,89,45,31,male,,,"<img src=""static/images/cards/stack_of_red_moons.svg"" width=""175px"" height=""250px""></img>",,,,,,,,,,,,,,,,,,,,,,,,,,,,
23,0,,html-keyboard-response,23,338079,0.0-4.0-1.0,e0yq6gosqh,2022-09-19 17:10:15.814,631222ec555b5a004a2f25f8,1,90,58,89,45,31,male,1330.3000000715,,"
  <table>
  <tr height=300>
    <td width=300 height=300><img src=""static/images/cards/back_of_red_moons.svg"" width=""175px"" height=""250px""></img></td>
    <td width=300 height=300><img src=""static/images/cards/back_of_red_moons.svg"" width=""175px"" height=""250px""></img></td>
  </tr>
  <tr height=200>
    <td width=300><img src=""static/images/keys/z.svg"" width=""35%"" height=""75%""></img></td>
    <td width=300><img src=""static/images/keys/m.svg"" width=""35%"" height=""75%""></img></td>
  </tr>
</table>
  ",90.0,1.0,,,,,,,,,,,,,,,,,,,,,,,,,,
24,0,,html-keyboard-response,24,339589,0.0-4.0-2.0,e0yq6gosqh,2022-09-19 17:10:15.814,631222ec555b5a004a2f25f8,1,90,58,89,45,31,male,,,"
  <table>
  <tr height=300>
    <td width=300 height=300><img src=""static/images/cards/4_of_red_moons.svg"" width=""175px"" height=""250px""></img></td>
    <td width=300 height=300><img src=""static/images/cards/back_of_red_moons.svg"" width=""175px"" height=""250px""></img></td>
  </tr>
  <tr height=200>
    <td width=300><img src=""static/images/keys/z.svg"" width=""35%"" height=""75%""></img></td>
    <td width=300><img src=""static/images/keys/m.svg"" width=""35%"" height=""75%""></img></td>
  </tr>
</table>
  ",,,,,,,,,,,,,,,,,,,,,,,,,,,,
25,0,,html-keyboard-response,25,341097,0.0-4.0-3.0,e0yq6gosqh,2022-09-19 17:10:15.814,631222ec555b5a004a2f25f8,1,90,58,89,45,31,male,,,"<p style=""font-size:50px"">You Lose!
No points this round.</p>",,,,,,,,,,,,,,,,,,,,,,,,,,,,
26,0,,html-keyboard-response,26,341617,0.0-4.0-4.0,e0yq6gosqh,2022-09-19 17:10:15.814,631222ec555b5a004a2f25f8,1,90,58,89,45,31,male,,,,,,1.0,learning,0.0,A,,red,,moons,,,,A,red,moons,,1.0,1.0,NA,left,1330.3000000715,4.0,0.0,0.0,,,
27,0,,html-keyboard-response,27,343124,0.0-4.1-0.1,e0yq6gosqh,2022-09-19 17:10:15.814,631222ec555b5a004a2f25f8,1,90,58,89,45,31,male,,,"<img src=""static/images/cards/stack_of_black_moons.svg"" width=""175px"" height=""250px""></img>",,,,,,,,,,,,,,,,,,,,,,,,,,,,
28,0,,html-keyboard-response,28,344098,0.0-4.1-1.1,e0yq6gosqh,2022-09-19 17:10:15.814,631222ec555b5a004a2f25f8,1,90,58,89,45,31,male,468.7000000477,,"
  <table>
  <tr height=300>
    <td width=300 height=300><img src=""static/images/cards/back_of_black_moons.svg"" width=""175px"" height=""250px""></img></td>
    <td width=300 height=300><img src=""static/images/cards/back_of_black_moons.svg"" width=""175px"" height=""250px""></img></td>
  </tr>
  <tr height=200>
    <td width=300><img src=""static/images/keys/z.svg"" width=""35%"" height=""75%""></img></td>
    <td width=300></td>
  </tr>
</table>
  ",90.0,1.0,,,,,,,,,,,,,,,,,,,,,,,,,,
29,0,,html-keyboard-response,29,345611,0.0-4.1-2.1,e0yq6gosqh,2022-09-19 17:10:15.814,631222ec555b5a004a2f25f8,1,90,58,89,45,31,male,,,"
  <table>
  <tr height=300>
    <td width=300 height=300><img src=""static/images/cards/3_of_black_moons.svg"" width=""175px"" height=""250px""></img></td>
    <td width=300 height=300><img src=""static/images/cards/back_of_black_moons.svg"" width=""175px"" height=""250px""></img></td>
  </tr>
  <tr height=200>
    <td width=300><img src=""static/images/keys/z.svg"" width=""35%"" height=""75%""></img></td>
    <td width=300></td>
  </tr>
</table>
  ",,,,,,,,,,,,,,,,,,,,,,,,,,,,
30,0,,html-keyboard-response,30,347138,0.0-4.1-3.1,e0yq6gosqh,2022-09-19 17:10:15.814,631222ec555b5a004a2f25f8,1,90,58,89,45,31,male,,,"<p style=""font-size:50px"">You Lose!
No points this round.</p>",,,,,,,,,,,,,,,,,,,,,,,,,,,,
31,0,,html-keyboard-response,31,347650,0.0-4.1-4.1,e0yq6gosqh,2022-09-19 17:10:15.814,631222ec555b5a004a2f25f8,1,90,58,89,45,31,male,,,,,,1.0,learning,1.0,B,,black,,moons,,,,B,black,moons,,0.0,1.0,1,left,468.7000000477,3.0,0.0,0.0,,,
32,0,,html-keyboard-response,32,349163,0.0-4.2-0.2,e0yq6gosqh,2022-09-19 17:10:15.814,631222ec555b5a004a2f25f8,1,90,58,89,45,31,male,,,"<img src=""static/images/cards/stack_of_red_stars.svg"" width=""175px"" height=""250px""></img>",,,,,,,,,,,,,,,,,,,,,,,,,,,,
33,0,,html-keyboard-response,33,350285,0.0-4.2-1.2,e0yq6gosqh,2022-09-19 17:10:15.814,631222ec555b5a004a2f25f8,1,90,58,89,45,31,male,605.6000000238,,"
  <table>
  <tr height=300>
    <td width=300 height=300><img src=""static/images/cards/back_of_red_stars.svg"" width=""175px"" height=""250px""></img></td>
    <td width=300 height=300><img src=""static/images/cards/back_of_red_stars.svg"" width=""175px"" height=""250px""></img></td>
  </tr>
  <tr height=200>
    <td width=300><img src=""static/images/keys/z.svg"" width=""35%"" height=""75%""></img></td>
    <td width=300><img src=""static/images/keys/m.svg"" width=""35%"" height=""75%""></img></td>
  </tr>
</table>
  ",77.0,1.0,,,,,,,,,,,,,,,,,,,,,,,,,,
34,0,,html-keyboard-response,34,351797,0.0-4.2-2.2,e0yq6gosqh,2022-09-19 17:10:15.814,631222ec555b5a004a2f25f8,1,90,58,89,45,31,male,,,"
  <table>
  <tr height=300>
    <td width=300 height=300><img src=""static/images/cards/back_of_red_stars.svg"" width=""175px"" height=""250px""></img></td>
    <td width=300 height=300><img src=""static/images/cards/2_of_red_stars.svg"" width=""175px"" height=""250px""></img></td>
  </tr>
  <tr height=200>
    <td width=300><img src=""static/images/keys/z.svg"" width=""35%"" height=""75%""></img></td>
    <td width=300><img src=""static/images/keys/m.svg"" width=""35%"" height=""75%""></img></td>
  </tr>
</table>
  ",,,,,,,,,,,,,,,,,,,,,,,,,,,,
35,0,,html-keyboard-response,35,353328,0.0-4.2-3.2,e0yq6gosqh,2022-09-19 17:10:15.814,631222ec555b5a004a2f25f8,1,90,58,89,45,31,male,,,"<p style=""font-size:50px"">You Lose!
No points this round.</p>",,,,,,,,,,,,,,,,,,,,,,,,,,,,
36,0,,html-keyboard-response,36,353833,0.0-4.2-4.2,e0yq6gosqh,2022-09-19 17:10:15.814,631222ec555b5a004a2f25f8,1,90,58,89,45,31,male,,,,,,1.0,learning,2.0,C,,red,,stars,,,,C,red,stars,,1.0,0.0,NA,right,605.6000000238,2.0,0.0,0.0,,,
37,0,,html-keyboard-response,37,355349,0.0-4.3-0.3,e0yq6gosqh,2022-09-19 17:10:15.814,631222ec555b5a004a2f25f8,1,90,58,89,45,31,male,,,"<img src=""static/images/cards/stack_of_black_stars.svg"" width=""175px"" height=""250px""></img>",,,,,,,,,,,,,,,,,,,,,,,,,,,,
38,0,,html-keyboard-response,38,356314,0.0-4.3-1.3,e0yq6gosqh,2022-09-19 17:10:15.814,631222ec555b5a004a2f25f8,1,90,58,89,45,31,male,452.8000000715,,"
  <table>
  <tr height=300>
    <td width=300 height=300><img src=""static/images/cards/back_of_black_stars.svg"" width=""175px"" height=""250px""></img></td>
    <td width=300 height=300><img src=""static/images/cards/back_of_black_stars.svg"" width=""175px"" height=""250px""></img></td>
  </tr>
  <tr height=200>
    <td width=300><img src=""static/images/keys/z.svg"" width=""35%"" height=""75%""></img></td>
    <td width=300></td>
  </tr>
</table>
  ",90.0,1.0,,,,,,,,,,,,,,,,,,,,,,,,,,
39,0,,html-keyboard-response,39,357821,0.0-4.3-2.3,e0yq6gosqh,2022-09-19 17:10:15.814,631222ec555b5a004a2f25f8,1,90,58,89,45,31,male,,,"
  <table>
  <tr height=300>
    <td width=300 height=300><img src=""static/images/cards/3_of_black_stars.svg"" width=""175px"" height=""250px""></img></td>
    <td width=300 height=300><img src=""static/images/cards/back_of_black_stars.svg"" width=""175px"" height=""250px""></img></td>
  </tr>
  <tr height=200>
    <td width=300><img src=""static/images/keys/z.svg"" width=""35%"" height=""75%""></img></td>
    <td width=300></td>
  </tr>
</table>
  ",,,,,,,,,,,,,,,,,,,,,,,,,,,,
40,0,,html-keyboard-response,40,359327,0.0-4.3-3.3,e0yq6gosqh,2022-09-19 17:10:15.814,631222ec555b5a004a2f25f8,1,90,58,89,45,31,male,,,"<p style=""font-size:50px"">You Lose!
No points this round.</p>",,,,,,,,,,,,,,,,,,,,,,,,,,,,
41,0,,html-keyboard-response,41,359849,0.0-4.3-4.3,e0yq6gosqh,2022-09-19 17:10:15.814,631222ec555b5a004a2f25f8,1,90,58,89,45,31,male,,,,,,1.0,learning,3.0,D,,black,,stars,,,,D,black,stars,,0.0,0.0,1,left,452.8000000715,3.0,0.0,0.0,,,
42,0,,html-keyboard-response,42,361362,0.0-4.4-0.4,e0yq6gosqh,2022-09-19 17:10:15.814,631222ec555b5a004a2f25f8,1,90,58,89,45,31,male,,,"<img src=""static/images/cards/stack_of_red_bolts.svg"" width=""175px"" height=""250px""></img>",,,,,,,,,,,,,,,,,,,,,,,,,,,,
43,0,,html-keyboard-response,43,362341,0.0-4.4-1.4,e0yq6gosqh,2022-09-19 17:10:15.814,631222ec555b5a004a2f25f8,1,90,58,89,45,31,male,477.5,,"
  <table>
  <tr height=300>
    <td width=300 height=300><img src=""static/images/cards/back_of_red_bolts.svg"" width=""175px"" height=""250px""></img></td>
    <td width=300 height=300><img src=""static/images/cards/back_of_red_bolts.svg"" width=""175px"" height=""250px""></img></td>
  </tr>
  <tr height=200>
    <td width=300><img src=""static/images/keys/z.svg"" width=""35%"" height=""75%""></img></td>
    <td width=300><img src=""static/images/keys/m.svg"" width=""35%"" height=""75%""></img></td>
  </tr>
</table>
  ",77.0,1.0,,,,,,,,,,,,,,,,,,,,,,,,,,
44,0,,html-keyboard-response,44,363855,0.0-4.4-2.4,e0yq6gosqh,2022-09-19 17:10:15.814,631222ec555b5a004a2f25f8,1,90,58,89,45,31,male,,,"
  <table>
  <tr height=300>
    <td width=300 height=300><img src=""static/images/cards/back_of_red_bolts.svg"" width=""175px"" height=""250px""></img></td>
    <td width=300 height=300><img src=""static/images/cards/6_of_red_bolts.svg"" width=""175px"" height=""250px""></img></td>
  </tr>
  <tr height=200>
    <td width=300><img src=""static/images/keys/z.svg"" width=""35%"" height=""75%""></img></td>
    <td width=300><img src=""static/images/keys/m.svg"" width=""35%"" height=""75%""></img></td>
  </tr>
</table>
  ",,,,,,,,,,,,,,,,,,,,,,,,,,,,
45,0,,html-keyboard-response,45,365378,0.0-4.4-3.4,e0yq6gosqh,2022-09-19 17:10:15.814,631222ec555b5a004a2f25f8,1,90,58,89,45,31,male,,,"<p style=""font-size:50px"">You win!
+10 points this round!</p>",,,,,,,,,,,,,,,,,,,,,,,,,,,,
46,0,,html-keyboard-response,46,365898,0.0-4.4-4.4,e0yq6gosqh,2022-09-19 17:10:15.814,631222ec555b5a004a2f25f8,1,90,58,89,45,31,male,,,,,,1.0,learning,4.0,Xc,,red,,bolts,,,,Xc,red,bolts,,1.0,0.0,NA,right,477.5,6.0,1.0,1.0,,,
47,0,,html-keyboard-response,47,367413,0.0-4.5-0.5,e0yq6gosqh,2022-09-19 17:10:15.814,631222ec555b5a004a2f25f8,1,90,58,89,45,31,male,,,"<img src=""static/images/cards/stack_of_black_bolts.svg"" width=""175px"" height=""250px""></img>",,,,,,,,,,,,,,,,,,,,,,,,,,,,
48,0,,html-keyboard-response,48,368701,0.0-4.5-1.5,e0yq6gosqh,2022-09-19 17:10:15.814,631222ec555b5a004a2f25f8,1,90,58,89,45,31,male,776.3999999762,,"
  <table>
  <tr height=300>
    <td width=300 height=300><img src=""static/images/cards/back_of_black_bolts.svg"" width=""175px"" height=""250px""></img></td>
    <td width=300 height=300><img src=""static/images/cards/back_of_black_bolts.svg"" width=""175px"" height=""250px""></img></td>
  </tr>
  <tr height=200>
    <td width=300></td>
    <td width=300><img src=""static/images/keys/m.svg"" width=""35%"" height=""75%""></img></td>
  </tr>
</table>
  ",77.0,1.0,,,,,,,,,,,,,,,,,,,,,,,,,,
49,0,,html-keyboard-response,49,370211,0.0-4.5-2.5,e0yq6gosqh,2022-09-19 17:10:15.814,631222ec555b5a004a2f25f8,1,90,58,89,45,31,male,,,"
  <table>
  <tr height=300>
    <td width=300 height=300><img src=""static/images/cards/back_of_black_bolts.svg"" width=""175px"" height=""250px""></img></td>
    <td width=300 height=300><img src=""static/images/cards/3_of_black_bolts.svg"" width=""175px"" height=""250px""></img></td>
  </tr>
  <tr height=200>
    <td width=300></td>
    <td width=300><img src=""static/images/keys/m.svg"" width=""35%"" height=""75%""></img></td>
  </tr>
</table>
  ",,,,,,,,,,,,,,,,,,,,,,,,,,,,
50,0,,html-keyboard-response,50,371733,0.0-4.5-3.5,e0yq6gosqh,2022-09-19 17:10:15.814,631222ec555b5a004a2f25f8,1,90,58,89,45,31,male,,,"<p style=""font-size:50px"">You win!
+10 points this round!</p>",,,,,,,,,,,,,,,,,,,,,,,,,,,,
51,0,,html-keyboard-response,51,372245,0.0-4.5-4.5,e0yq6gosqh,2022-09-19 17:10:15.814,631222ec555b5a004a2f25f8,1,90,58,89,45,31,male,,,,,,1.0,learning,5.0,Xnc,,black,,bolts,,,,Xnc,black,bolts,,0.0,0.0,0,right,776.3999999762,3.0,0.0,1.0,,,
52,0,,html-keyboard-response,52,373755,0.0-4.6-0.6,e0yq6gosqh,2022-09-19 17:10:15.814,631222ec555b5a004a2f25f8,1,90,58,89,45,31,male,,,"<img src=""static/images/cards/stack_of_red_moons.svg"" width=""175px"" height=""250px""></img>",,,,,,,,,,,,,,,,,,,,,,,,,,,,
53,0,,html-keyboard-response,53,375213,0.0-4.6-1.6,e0yq6gosqh,2022-09-19 17:10:15.814,631222ec555b5a004a2f25f8,1,90,58,89,45,31,male,953.8000000715,,"
  <table>
  <tr height=300>
    <td width=300 height=300><img src=""static/images/cards/back_of_red_moons.svg"" width=""175px"" height=""250px""></img></td>
    <td width=300 height=300><img src=""static/images/cards/back_of_red_moons.svg"" width=""175px"" height=""250px""></img></td>
  </tr>
  <tr height=200>
    <td width=300><img src=""static/images/keys/z.svg"" width=""35%"" height=""75%""></img></td>
    <td width=300><img src=""static/images/keys/m.svg"" width=""35%"" height=""75%""></img></td>
  </tr>
</table>
  ",90.0,1.0,,,,,,,,,,,,,,,,,,,,,,,,,,
54,0,,html-keyboard-response,54,376724,0.0-4.6-2.6,e0yq6gosqh,2022-09-19 17:10:15.814,631222ec555b5a004a2f25f8,1,90,58,89,45,31,male,,,"
  <table>
  <tr height=300>
    <td width=300 height=300><img src=""static/images/cards/3_of_red_moons.svg"" width=""175px"" height=""250px""></img></td>
    <td width=300 height=300><img src=""static/images/cards/back_of_red_moons.svg"" width=""175px"" height=""250px""></img></td>
  </tr>
  <tr height=200>
    <td width=300><img src=""static/images/keys/z.svg"" width=""35%"" height=""75%""></img></td>
    <td width=300><img src=""static/images/keys/m.svg"" width=""35%"" height=""75%""></img></td>
  </tr>
</table>
  ",,,,,,,,,,,,,,,,,,,,,,,,,,,,
55,0,,html-keyboard-response,55,378247,0.0-4.6-3.6,e0yq6gosqh,2022-09-19 17:10:15.814,631222ec555b5a004a2f25f8,1,90,58,89,45,31,male,,,"<p style=""font-size:50px"">You Lose!
No points this round.</p>",,,,,,,,,,,,,,,,,,,,,,,,,,,,
56,0,,html-keyboard-response,56,378760,0.0-4.6-4.6,e0yq6gosqh,2022-09-19 17:10:15.814,631222ec555b5a004a2f25f8,1,90,58,89,45,31,male,,,,,,1.0,learning,6.0,A,,red,,moons,,,,A,red,moons,,1.0,1.0,NA,left,953.8000000715,3.0,0.0,0.0,,,
57,0,,html-keyboard-response,57,380270,0.0-4.7-0.7,e0yq6gosqh,2022-09-19 17:10:15.814,631222ec555b5a004a2f25f8,1,90,58,89,45,31,male,,,"<img src=""static/images/cards/stack_of_black_moons.svg"" width=""175px"" height=""250px""></img>",,,,,,,,,,,,,,,,,,,,,,,,,,,,
58,0,,html-keyboard-response,58,381211,0.0-4.7-1.7,e0yq6gosqh,2022-09-19 17:10:15.814,631222ec555b5a004a2f25f8,1,90,58,89,45,31,male,437.1000000238,,"
  <table>
  <tr height=300>
    <td width=300 height=300><img src=""static/images/cards/back_of_black_moons.svg"" width=""175px"" height=""250px""></img></td>
    <td width=300 height=300><img src=""static/images/cards/back_of_black_moons.svg"" width=""175px"" height=""250px""></img></td>
  </tr>
  <tr height=200>
    <td width=300></td>
    <td width=300><img src=""static/images/keys/m.svg"" width=""35%"" height=""75%""></img></td>
  </tr>
</table>
  ",77.0,1.0,,,,,,,,,,,,,,,,,,,,,,,,,,
59,0,,html-keyboard-response,59,382728,0.0-4.7-2.7,e0yq6gosqh,2022-09-19 17:10:15.814,631222ec555b5a004a2f25f8,1,90,58,89,45,31,male,,,"
  <table>
  <tr height=300>
    <td width=300 height=300><img src=""static/images/cards/back_of_black_moons.svg"" width=""175px"" height=""250px""></img></td>
    <td width=300 height=300><img src=""static/images/cards/9_of_black_moons.svg"" width=""175px"" height=""250px""></img></td>
  </tr>
  <tr height=200>
    <td width=300></td>
    <td width=300><img src=""static/images/keys/m.svg"" width=""35%"" height=""75%""></img></td>
  </tr>
</table>
  ",,,,,,,,,,,,,,,,,,,,,,,,,,,,
60,0,,html-keyboard-response,60,384253,0.0-4.7-3.7,e0yq6gosqh,2022-09-19 17:10:15.814,631222ec555b5a004a2f25f8,1,90,58,89,45,31,male,,,"<p style=""font-size:50px"">You win!
+10 points this round!</p>",,,,,,,,,,,,,,,,,,,,,,,,,,,,
61,0,,html-keyboard-response,61,384761,0.0-4.7-4.7,e0yq6gosqh,2022-09-19 17:10:15.814,631222ec555b5a004a2f25f8,1,90,58,89,45,31,male,,,,,,1.0,learning,7.0,B,,black,,moons,,,,B,black,moons,,0.0,1.0,0,right,437.1000000238,9.0,1.0,1.0,,,
62,0,,html-keyboard-response,62,386271,0.0-4.8-0.8,e0yq6gosqh,2022-09-19 17:10:15.814,631222ec555b5a004a2f25f8,1,90,58,89,45,31,male,,,"<img src=""static/images/cards/stack_of_red_stars.svg"" width=""175px"" height=""250px""></img>",,,,,,,,,,,,,,,,,,,,,,,,,,,,
63,0,,html-keyboard-response,63,387693,0.0-4.8-1.8,e0yq6gosqh,2022-09-19 17:10:15.814,631222ec555b5a004a2f25f8,1,90,58,89,45,31,male,918.8000000715,,"
  <table>
  <tr height=300>
    <td width=300 height=300><img src=""static/images/cards/back_of_red_stars.svg"" width=""175px"" height=""250px""></img></td>
    <td width=300 height=300><img src=""static/images/cards/back_of_red_stars.svg"" width=""175px"" height=""250px""></img></td>
  </tr>
  <tr height=200>
    <td width=300><img src=""static/images/keys/z.svg"" width=""35%"" height=""75%""></img></td>
    <td width=300><img src=""static/images/keys/m.svg"" width=""35%"" height=""75%""></img></td>
  </tr>
</table>
  ",77.0,1.0,,,,,,,,,,,,,,,,,,,,,,,,,,
64,0,,html-keyboard-response,64,389207,0.0-4.8-2.8,e0yq6gosqh,2022-09-19 17:10:15.814,631222ec555b5a004a2f25f8,1,90,58,89,45,31,male,,,"
  <table>
  <tr height=300>
    <td width=300 height=300><img src=""static/images/cards/back_of_red_stars.svg"" width=""175px"" height=""250px""></img></td>
    <td width=300 height=300><img src=""static/images/cards/2_of_red_stars.svg"" width=""175px"" height=""250px""></img></td>
  </tr>
  <tr height=200>
    <td width=300><img src=""static/images/keys/z.svg"" width=""35%"" height=""75%""></img></td>
    <td width=300><img src=""static/images/keys/m.svg"" width=""35%"" height=""75%""></img></td>
  </tr>
</table>
  ",,,,,,,,,,,,,,,,,,,,,,,,,,,,
65,0,,html-keyboard-response,65,390722,0.0-4.8-3.8,e0yq6gosqh,2022-09-19 17:10:15.814,631222ec555b5a004a2f25f8,1,90,58,89,45,31,male,,,"<p style=""font-size:50px"">You win!
+10 points this round!</p>",,,,,,,,,,,,,,,,,,,,,,,,,,,,
66,0,,html-keyboard-response,66,391233,0.0-4.8-4.8,e0yq6gosqh,2022-09-19 17:10:15.814,631222ec555b5a004a2f25f8,1,90,58,89,45,31,male,,,,,,1.0,learning,8.0,C,,red,,stars,,,,C,red,stars,,1.0,0.0,NA,right,918.8000000715,2.0,0.0,1.0,,,
67,0,,html-keyboard-response,67,392737,0.0-4.9-0.9,e0yq6gosqh,2022-09-19 17:10:15.814,631222ec555b5a004a2f25f8,1,90,58,89,45,31,male,,,"<img src=""static/images/cards/stack_of_black_stars.svg"" width=""175px"" height=""250px""></img>",,,,,,,,,,,,,,,,,,,,,,,,,,,,
68,0,,html-keyboard-response,68,393634,0.0-4.9-1.9,e0yq6gosqh,2022-09-19 17:10:15.814,631222ec555b5a004a2f25f8,1,90,58,89,45,31,male,379.9000000954,,"
  <table>
  <tr height=300>
    <td width=300 height=300><img src=""static/images/cards/back_of_black_stars.svg"" width=""175px"" height=""250px""></img></td>
    <td width=300 height=300><img src=""static/images/cards/back_of_black_stars.svg"" width=""175px"" height=""250px""></img></td>
  </tr>
  <tr height=200>
    <td width=300><img src=""static/images/keys/z.svg"" width=""35%"" height=""75%""></img></td>
    <td width=300></td>
  </tr>
</table>
  ",90.0,1.0,,,,,,,,,,,,,,,,,,,,,,,,,,
69,0,,html-keyboard-response,69,395145,0.0-4.9-2.9,e0yq6gosqh,2022-09-19 17:10:15.814,631222ec555b5a004a2f25f8,1,90,58,89,45,31,male,,,"
  <table>
  <tr height=300>
    <td width=300 height=300><img src=""static/images/cards/8_of_black_stars.svg"" width=""175px"" height=""250px""></img></td>
    <td width=300 height=300><img src=""static/images/cards/back_of_black_stars.svg"" width=""175px"" height=""250px""></img></td>
  </tr>
  <tr height=200>
    <td width=300><img src=""static/images/keys/z.svg"" width=""35%"" height=""75%""></img></td>
    <td width=300></td>
  </tr>
</table>
  ",,,,,,,,,,,,,,,,,,,,,,,,,,,,
70,0,,html-keyboard-response,70,396661,0.0-4.9-3.9,e0yq6gosqh,2022-09-19 17:10:15.814,631222ec555b5a004a2f25f8,1,90,58,89,45,31,male,,,"<p style=""font-size:50px"">You win!
+10 points this round!</p>",,,,,,,,,,,,,,,,,,,,,,,,,,,,
71,0,,html-keyboard-response,71,397173,0.0-4.9-4.9,e0yq6gosqh,2022-09-19 17:10:15.814,631222ec555b5a004a2f25f8,1,90,58,89,45,31,male,,,,,,1.0,learning,9.0,D,,black,,stars,,,,D,black,stars,,0.0,0.0,1,left,379.9000000954,8.0,1.0,1.0,,,
72,0,,html-keyboard-response,72,398686,0.0-4.10-0.10,e0yq6gosqh,2022-09-19 17:10:15.814,631222ec555b5a004a2f25f8,1,90,58,89,45,31,male,,,"<img src=""static/images/cards/stack_of_red_bolts.svg"" width=""175px"" height=""250px""></img>",,,,,,,,,,,,,,,,,,,,,,,,,,,,
73,0,,html-keyboard-response,73,400275,0.0-4.10-1.10,e0yq6gosqh,2022-09-19 17:10:15.814,631222ec555b5a004a2f25f8,1,90,58,89,45,31,male,1084.0,,"
  <table>
  <tr height=300>
    <td width=300 height=300><img src=""static/images/cards/back_of_red_bolts.svg"" width=""175px"" height=""250px""></img></td>
    <td width=300 height=300><img src=""static/images/cards/back_of_red_bolts.svg"" width=""175px"" height=""250px""></img></td>
  </tr>
  <tr height=200>
    <td width=300><img src=""static/images/keys/z.svg"" width=""35%"" height=""75%""></img></td>
    <td width=300><img src=""static/images/keys/m.svg"" width=""35%"" height=""75%""></img></td>
  </tr>
</table>
  ",90.0,1.0,,,,,,,,,,,,,,,,,,,,,,,,,,
74,0,,html-keyboard-response,74,401777,0.0-4.10-2.10,e0yq6gosqh,2022-09-19 17:10:15.814,631222ec555b5a004a2f25f8,1,90,58,89,45,31,male,,,"
  <table>
  <tr height=300>
    <td width=300 height=300><img src=""static/images/cards/4_of_red_bolts.svg"" width=""175px"" height=""250px""></img></td>
    <td width=300 height=300><img src=""static/images/cards/back_of_red_bolts.svg"" width=""175px"" height=""250px""></img></td>
  </tr>
  <tr height=200>
    <td width=300><img src=""static/images/keys/z.svg"" width=""35%"" height=""75%""></img></td>
    <td width=300><img src=""static/images/keys/m.svg"" width=""35%"" height=""75%""></img></td>
  </tr>
</table>
  ",,,,,,,,,,,,,,,,,,,,,,,,,,,,
75,0,,html-keyboard-response,75,403285,0.0-4.10-3.10,e0yq6gosqh,2022-09-19 17:10:15.814,631222ec555b5a004a2f25f8,1,90,58,89,45,31,male,,,"<p style=""font-size:50px"">You win!
+10 points this round!</p>",,,,,,,,,,,,,,,,,,,,,,,,,,,,
76,0,,html-keyboard-response,76,403790,0.0-4.10-4.10,e0yq6gosqh,2022-09-19 17:10:15.814,631222ec555b5a004a2f25f8,1,90,58,89,45,31,male,,,,,,1.0,learning,10.0,Xc,,red,,bolts,,,,Xc,red,bolts,,1.0,0.0,NA,left,1084.0,4.0,0.0,1.0,,,
77,0,,html-keyboard-response,77,405293,0.0-4.11-0.11,e0yq6gosqh,2022-09-19 17:10:15.814,631222ec555b5a004a2f25f8,1,90,58,89,45,31,male,,,"<img src=""static/images/cards/stack_of_black_bolts.svg"" width=""175px"" height=""250px""></img>",,,,,,,,,,,,,,,,,,,,,,,,,,,,
78,0,,html-keyboard-response,78,406150,0.0-4.11-1.11,e0yq6gosqh,2022-09-19 17:10:15.814,631222ec555b5a004a2f25f8,1,90,58,89,45,31,male,347.9000000954,,"
  <table>
  <tr height=300>
    <td width=300 height=300><img src=""static/images/cards/back_of_black_bolts.svg"" width=""175px"" height=""250px""></img></td>
    <td width=300 height=300><img src=""static/images/cards/back_of_black_bolts.svg"" width=""175px"" height=""250px""></img></td>
  </tr>
  <tr height=200>
    <td width=300><img src=""static/images/keys/z.svg"" width=""35%"" height=""75%""></img></td>
    <td width=300></td>
  </tr>
</table>
  ",90.0,1.0,,,,,,,,,,,,,,,,,,,,,,,,,,
79,0,,html-keyboard-response,79,407667,0.0-4.11-2.11,e0yq6gosqh,2022-09-19 17:10:15.814,631222ec555b5a004a2f25f8,1,90,58,89,45,31,male,,,"
  <table>
  <tr height=300>
    <td width=300 height=300><img src=""static/images/cards/6_of_black_bolts.svg"" width=""175px"" height=""250px""></img></td>
    <td width=300 height=300><img src=""static/images/cards/back_of_black_bolts.svg"" width=""175px"" height=""250px""></img></td>
  </tr>
  <tr height=200>
    <td width=300><img src=""static/images/keys/z.svg"" width=""35%"" height=""75%""></img></td>
    <td width=300></td>
  </tr>
</table>
  ",,,,,,,,,,,,,,,,,,,,,,,,,,,,
80,0,,html-keyboard-response,80,409180,0.0-4.11-3.11,e0yq6gosqh,2022-09-19 17:10:15.814,631222ec555b5a004a2f25f8,1,90,58,89,45,31,male,,,"<p style=""font-size:50px"">You win!
+10 points this round!</p>",,,,,,,,,,,,,,,,,,,,,,,,,,,,
81,0,,html-keyboard-response,81,409697,0.0-4.11-4.11,e0yq6gosqh,2022-09-19 17:10:15.814,631222ec555b5a004a2f25f8,1,90,58,89,45,31,male,,,,,,1.0,learning,11.0,Xnc,,black,,bolts,,,,Xnc,black,bolts,,0.0,0.0,1,left,347.9000000954,6.0,1.0,1.0,,,
82,0,,html-keyboard-response,82,411200,0.0-4.12-0.12,e0yq6gosqh,2022-09-19 17:10:15.814,631222ec555b5a004a2f25f8,1,90,58,89,45,31,male,,,"<img src=""static/images/cards/stack_of_red_moons.svg"" width=""175px"" height=""250px""></img>",,,,,,,,,,,,,,,,,,,,,,,,,,,,
83,0,,html-keyboard-response,83,412399,0.0-4.12-1.12,e0yq6gosqh,2022-09-19 17:10:15.814,631222ec555b5a004a2f25f8,1,90,58,89,45,31,male,681.6999999285,,"
  <table>
  <tr height=300>
    <td width=300 height=300><img src=""static/images/cards/back_of_red_moons.svg"" width=""175px"" height=""250px""></img></td>
    <td width=300 height=300><img src=""static/images/cards/back_of_red_moons.svg"" width=""175px"" height=""250px""></img></td>
  </tr>
  <tr height=200>
    <td width=300><img src=""static/images/keys/z.svg"" width=""35%"" height=""75%""></img></td>
    <td width=300><img src=""static/images/keys/m.svg"" width=""35%"" height=""75%""></img></td>
  </tr>
</table>
  ",77.0,1.0,,,,,,,,,,,,,,,,,,,,,,,,,,
84,0,,html-keyboard-response,84,413904,0.0-4.12-2.12,e0yq6gosqh,2022-09-19 17:10:15.814,631222ec555b5a004a2f25f8,1,90,58,89,45,31,male,,,"
  <table>
  <tr height=300>
    <td width=300 height=300><img src=""static/images/cards/back_of_red_moons.svg"" width=""175px"" height=""250px""></img></td>
    <td width=300 height=300><img src=""static/images/cards/9_of_red_moons.svg"" width=""175px"" height=""250px""></img></td>
  </tr>
  <tr height=200>
    <td width=300><img src=""static/images/keys/z.svg"" width=""35%"" height=""75%""></img></td>
    <td width=300><img src=""static/images/keys/m.svg"" width=""35%"" height=""75%""></img></td>
  </tr>
</table>
  ",,,,,,,,,,,,,,,,,,,,,,,,,,,,
85,0,,html-keyboard-response,85,415417,0.0-4.12-3.12,e0yq6gosqh,2022-09-19 17:10:15.814,631222ec555b5a004a2f25f8,1,90,58,89,45,31,male,,,"<p style=""font-size:50px"">You win!
+10 points this round!</p>",,,,,,,,,,,,,,,,,,,,,,,,,,,,
86,0,,html-keyboard-response,86,415930,0.0-4.12-4.12,e0yq6gosqh,2022-09-19 17:10:15.814,631222ec555b5a004a2f25f8,1,90,58,89,45,31,male,,,,,,1.0,learning,12.0,A,,red,,moons,,,,A,red,moons,,1.0,1.0,NA,right,681.6999999285,9.0,1.0,1.0,,,
87,0,,html-keyboard-response,87,417437,0.0-4.13-0.13,e0yq6gosqh,2022-09-19 17:10:15.814,631222ec555b5a004a2f25f8,1,90,58,89,45,31,male,,,"<img src=""static/images/cards/stack_of_black_moons.svg"" width=""175px"" height=""250px""></img>",,,,,,,,,,,,,,,,,,,,,,,,,,,,
88,0,,html-keyboard-response,88,418324,0.0-4.13-1.13,e0yq6gosqh,2022-09-19 17:10:15.814,631222ec555b5a004a2f25f8,1,90,58,89,45,31,male,375.6999999285,,"
  <table>
  <tr height=300>
    <td width=300 height=300><img src=""static/images/cards/back_of_black_moons.svg"" width=""175px"" height=""250px""></img></td>
    <td width=300 height=300><img src=""static/images/cards/back_of_black_moons.svg"" width=""175px"" height=""250px""></img></td>
  </tr>
  <tr height=200>
    <td width=300></td>
    <td width=300><img src=""static/images/keys/m.svg"" width=""35%"" height=""75%""></img></td>
  </tr>
</table>
  ",77.0,1.0,,,,,,,,,,,,,,,,,,,,,,,,,,
89,0,,html-keyboard-response,89,419836,0.0-4.13-2.13,e0yq6gosqh,2022-09-19 17:10:15.814,631222ec555b5a004a2f25f8,1,90,58,89,45,31,male,,,"
  <table>
  <tr height=300>
    <td width=300 height=300><img src=""static/images/cards/back_of_black_moons.svg"" width=""175px"" height=""250px""></img></td>
    <td width=300 height=300><img src=""static/images/cards/4_of_black_moons.svg"" width=""175px"" height=""250px""></img></td>
  </tr>
  <tr height=200>
    <td width=300></td>
    <td width=300><img src=""static/images/keys/m.svg"" width=""35%"" height=""75%""></img></td>
  </tr>
</table>
  ",,,,,,,,,,,,,,,,,,,,,,,,,,,,
90,0,,html-keyboard-response,90,421360,0.0-4.13-3.13,e0yq6gosqh,2022-09-19 17:10:15.814,631222ec555b5a004a2f25f8,1,90,58,89,45,31,male,,,"<p style=""font-size:50px"">You Lose!
No points this round.</p>",,,,,,,,,,,,,,,,,,,,,,,,,,,,
91,0,,html-keyboard-response,91,421873,0.0-4.13-4.13,e0yq6gosqh,2022-09-19 17:10:15.814,631222ec555b5a004a2f25f8,1,90,58,89,45,31,male,,,,,,1.0,learning,13.0,B,,black,,moons,,,,B,black,moons,,0.0,1.0,0,right,375.6999999285,4.0,0.0,0.0,,,
92,0,,html-keyboard-response,92,423382,0.0-4.14-0.14,e0yq6gosqh,2022-09-19 17:10:15.814,631222ec555b5a004a2f25f8,1,90,58,89,45,31,male,,,"<img src=""static/images/cards/stack_of_red_stars.svg"" width=""175px"" height=""250px""></img>",,,,,,,,,,,,,,,,,,,,,,,,,,,,
93,0,,html-keyboard-response,93,425080,0.0-4.14-1.14,e0yq6gosqh,2022-09-19 17:10:15.814,631222ec555b5a004a2f25f8,1,90,58,89,45,31,male,1173.6000000238,,"
  <table>
  <tr height=300>
    <td width=300 height=300><img src=""static/images/cards/back_of_red_stars.svg"" width=""175px"" height=""250px""></img></td>
    <td width=300 height=300><img src=""static/images/cards/back_of_red_stars.svg"" width=""175px"" height=""250px""></img></td>
  </tr>
  <tr height=200>
    <td width=300><img src=""static/images/keys/z.svg"" width=""35%"" height=""75%""></img></td>
    <td width=300><img src=""static/images/keys/m.svg"" width=""35%"" height=""75%""></img></td>
  </tr>
</table>
  ",90.0,1.0,,,,,,,,,,,,,,,,,,,,,,,,,,
94,0,,html-keyboard-response,94,426585,0.0-4.14-2.14,e0yq6gosqh,2022-09-19 17:10:15.814,631222ec555b5a004a2f25f8,1,90,58,89,45,31,male,,,"
  <table>
  <tr height=300>
    <td width=300 height=300><img src=""static/images/cards/7_of_red_stars.svg"" width=""175px"" height=""250px""></img></td>
    <td width=300 height=300><img src=""static/images/cards/back_of_red_stars.svg"" width=""175px"" height=""250px""></img></td>
  </tr>
  <tr height=200>
    <td width=300><img src=""static/images/keys/z.svg"" width=""35%"" height=""75%""></img></td>
    <td width=300><img src=""static/images/keys/m.svg"" width=""35%"" height=""75%""></img></td>
  </tr>
</table>
  ",,,,,,,,,,,,,,,,,,,,,,,,,,,,
95,0,,html-keyboard-response,95,428098,0.0-4.14-3.14,e0yq6gosqh,2022-09-19 17:10:15.814,631222ec555b5a004a2f25f8,1,90,58,89,45,31,male,,,"<p style=""font-size:50px"">You Lose!
No points this round.</p>",,,,,,,,,,,,,,,,,,,,,,,,,,,,
96,0,,html-keyboard-response,96,428610,0.0-4.14-4.14,e0yq6gosqh,2022-09-19 17:10:15.814,631222ec555b5a004a2f25f8,1,90,58,89,45,31,male,,,,,,1.0,learning,14.0,C,,red,,stars,,,,C,red,stars,,1.0,0.0,NA,left,1173.6000000238,7.0,1.0,0.0,,,
97,0,,html-keyboard-response,97,430125,0.0-4.15-0.15,e0yq6gosqh,2022-09-19 17:10:15.814,631222ec555b5a004a2f25f8,1,90,58,89,45,31,male,,,"<img src=""static/images/cards/stack_of_black_stars.svg"" width=""175px"" height=""250px""></img>",,,,,,,,,,,,,,,,,,,,,,,,,,,,
98,0,,html-keyboard-response,98,431088,0.0-4.15-1.15,e0yq6gosqh,2022-09-19 17:10:15.814,631222ec555b5a004a2f25f8,1,90,58,89,45,31,male,449.2000000477,,"
  <table>
  <tr height=300>
    <td width=300 height=300><img src=""static/images/cards/back_of_black_stars.svg"" width=""175px"" height=""250px""></img></td>
    <td width=300 height=300><img src=""static/images/cards/back_of_black_stars.svg"" width=""175px"" height=""250px""></img></td>
  </tr>
  <tr height=200>
    <td width=300></td>
    <td width=300><img src=""static/images/keys/m.svg"" width=""35%"" height=""75%""></img></td>
  </tr>
</table>
  ",77.0,1.0,,,,,,,,,,,,,,,,,,,,,,,,,,
99,0,,html-keyboard-response,99,432591,0.0-4.15-2.15,e0yq6gosqh,2022-09-19 17:10:15.814,631222ec555b5a004a2f25f8,1,90,58,89,45,31,male,,,"
  <table>
  <tr height=300>
    <td width=300 height=300><img src=""static/images/cards/back_of_black_stars.svg"" width=""175px"" height=""250px""></img></td>
    <td width=300 height=300><img src=""static/images/cards/7_of_black_stars.svg"" width=""175px"" height=""250px""></img></td>
  </tr>
  <tr height=200>
    <td width=300></td>
    <td width=300><img src=""static/images/keys/m.svg"" width=""35%"" height=""75%""></img></td>
  </tr>
</table>
  ",,,,,,,,,,,,,,,,,,,,,,,,,,,,
100,0,,html-keyboard-response,100,434112,0.0-4.15-3.15,e0yq6gosqh,2022-09-19 17:10:15.814,631222ec555b5a004a2f25f8,1,90,58,89,45,31,male,,,"<p style=""font-size:50px"">You Lose!
No points this round.</p>",,,,,,,,,,,,,,,,,,,,,,,,,,,,
101,0,,html-keyboard-response,101,434618,0.0-4.15-4.15,e0yq6gosqh,2022-09-19 17:10:15.814,631222ec555b5a004a2f25f8,1,90,58,89,45,31,male,,,,,,1.0,learning,15.0,D,,black,,stars,,,,D,black,stars,,0.0,0.0,0,right,449.2000000477,7.0,1.0,0.0,,,
102,0,,html-keyboard-response,102,436128,0.0-4.16-0.16,e0yq6gosqh,2022-09-19 17:10:15.814,631222ec555b5a004a2f25f8,1,90,58,89,45,31,male,,,"<img src=""static/images/cards/stack_of_red_bolts.svg"" width=""175px"" height=""250px""></img>",,,,,,,,,,,,,,,,,,,,,,,,,,,,
103,0,,html-keyboard-response,103,437496,0.0-4.16-1.16,e0yq6gosqh,2022-09-19 17:10:15.814,631222ec555b5a004a2f25f8,1,90,58,89,45,31,male,852.6999999285,,"
  <table>
  <tr height=300>
    <td width=300 height=300><img src=""static/images/cards/back_of_red_bolts.svg"" width=""175px"" height=""250px""></img></td>
    <td width=300 height=300><img src=""static/images/cards/back_of_red_bolts.svg"" width=""175px"" height=""250px""></img></td>
  </tr>
  <tr height=200>
    <td width=300><img src=""static/images/keys/z.svg"" width=""35%"" height=""75%""></img></td>
    <td width=300><img src=""static/images/keys/m.svg"" width=""35%"" height=""75%""></img></td>
  </tr>
</table>
  ",77.0,1.0,,,,,,,,,,,,,,,,,,,,,,,,,,
104,0,,html-keyboard-response,104,439012,0.0-4.16-2.16,e0yq6gosqh,2022-09-19 17:10:15.814,631222ec555b5a004a2f25f8,1,90,58,89,45,31,male,,,"
  <table>
  <tr height=300>
    <td width=300 height=300><img src=""static/images/cards/back_of_red_bolts.svg"" width=""175px"" height=""250px""></img></td>
    <td width=300 height=300><img src=""static/images/cards/3_of_red_bolts.svg"" width=""175px"" height=""250px""></img></td>
  </tr>
  <tr height=200>
    <td width=300><img src=""static/images/keys/z.svg"" width=""35%"" height=""75%""></img></td>
    <td width=300><img src=""static/images/keys/m.svg"" width=""35%"" height=""75%""></img></td>
  </tr>
</table>
  ",,,,,,,,,,,,,,,,,,,,,,,,,,,,
105,0,,html-keyboard-response,105,440530,0.0-4.16-3.16,e0yq6gosqh,2022-09-19 17:10:15.814,631222ec555b5a004a2f25f8,1,90,58,89,45,31,male,,,"<p style=""font-size:50px"">You win!
+10 points this round!</p>",,,,,,,,,,,,,,,,,,,,,,,,,,,,
106,0,,html-keyboard-response,106,441036,0.0-4.16-4.16,e0yq6gosqh,2022-09-19 17:10:15.814,631222ec555b5a004a2f25f8,1,90,58,89,45,31,male,,,,,,1.0,learning,16.0,Xc,,red,,bolts,,,,Xc,red,bolts,,1.0,0.0,NA,right,852.6999999285,3.0,0.0,1.0,,,
107,0,,html-keyboard-response,107,442552,0.0-4.17-0.17,e0yq6gosqh,2022-09-19 17:10:15.814,631222ec555b5a004a2f25f8,1,90,58,89,45,31,male,,,"<img src=""static/images/cards/stack_of_black_bolts.svg"" width=""175px"" height=""250px""></img>",,,,,,,,,,,,,,,,,,,,,,,,,,,,
108,0,,html-keyboard-response,108,443448,0.0-4.17-1.17,e0yq6gosqh,2022-09-19 17:10:15.814,631222ec555b5a004a2f25f8,1,90,58,89,45,31,male,387.5,,"
  <table>
  <tr height=300>
    <td width=300 height=300><img src=""static/images/cards/back_of_black_bolts.svg"" width=""175px"" height=""250px""></img></td>
    <td width=300 height=300><img src=""static/images/cards/back_of_black_bolts.svg"" width=""175px"" height=""250px""></img></td>
  </tr>
  <tr height=200>
    <td width=300><img src=""static/images/keys/z.svg"" width=""35%"" height=""75%""></img></td>
    <td width=300></td>
  </tr>
</table>
  ",90.0,1.0,,,,,,,,,,,,,,,,,,,,,,,,,,
109,0,,html-keyboard-response,109,444964,0.0-4.17-2.17,e0yq6gosqh,2022-09-19 17:10:15.814,631222ec555b5a004a2f25f8,1,90,58,89,45,31,male,,,"
  <table>
  <tr height=300>
    <td width=300 height=300><img src=""static/images/cards/6_of_black_bolts.svg"" width=""175px"" height=""250px""></img></td>
    <td width=300 height=300><img src=""static/images/cards/back_of_black_bolts.svg"" width=""175px"" height=""250px""></img></td>
  </tr>
  <tr height=200>
    <td width=300><img src=""static/images/keys/z.svg"" width=""35%"" height=""75%""></img></td>
    <td width=300></td>
  </tr>
</table>
  ",,,,,,,,,,,,,,,,,,,,,,,,,,,,
110,0,,html-keyboard-response,110,446490,0.0-4.17-3.17,e0yq6gosqh,2022-09-19 17:10:15.814,631222ec555b5a004a2f25f8,1,90,58,89,45,31,male,,,"<p style=""font-size:50px"">You win!
+10 points this round!</p>",,,,,,,,,,,,,,,,,,,,,,,,,,,,
111,0,,html-keyboard-response,111,447011,0.0-4.17-4.17,e0yq6gosqh,2022-09-19 17:10:15.814,631222ec555b5a004a2f25f8,1,90,58,89,45,31,male,,,,,,1.0,learning,17.0,Xnc,,black,,bolts,,,,Xnc,black,bolts,,0.0,0.0,1,left,387.5,6.0,1.0,1.0,,,
112,0,,html-keyboard-response,112,448528,0.0-4.18-0.18,e0yq6gosqh,2022-09-19 17:10:15.814,631222ec555b5a004a2f25f8,1,90,58,89,45,31,male,,,"<img src=""static/images/cards/stack_of_red_moons.svg"" width=""175px"" height=""250px""></img>",,,,,,,,,,,,,,,,,,,,,,,,,,,,
113,0,,html-keyboard-response,113,449529,0.0-4.18-1.18,e0yq6gosqh,2022-09-19 17:10:15.814,631222ec555b5a004a2f25f8,1,90,58,89,45,31,male,487.1000000238,,"
  <table>
  <tr height=300>
    <td width=300 height=300><img src=""static/images/cards/back_of_red_moons.svg"" width=""175px"" height=""250px""></img></td>
    <td width=300 height=300><img src=""static/images/cards/back_of_red_moons.svg"" width=""175px"" height=""250px""></img></td>
  </tr>
  <tr height=200>
    <td width=300><img src=""static/images/keys/z.svg"" width=""35%"" height=""75%""></img></td>
    <td width=300><img src=""static/images/keys/m.svg"" width=""35%"" height=""75%""></img></td>
  </tr>
</table>
  ",77.0,1.0,,,,,,,,,,,,,,,,,,,,,,,,,,
114,0,,html-keyboard-response,114,451033,0.0-4.18-2.18,e0yq6gosqh,2022-09-19 17:10:15.814,631222ec555b5a004a2f25f8,1,90,58,89,45,31,male,,,"
  <table>
  <tr height=300>
    <td width=300 height=300><img src=""static/images/cards/back_of_red_moons.svg"" width=""175px"" height=""250px""></img></td>
    <td width=300 height=300><img src=""static/images/cards/6_of_red_moons.svg"" width=""175px"" height=""250px""></img></td>
  </tr>
  <tr height=200>
    <td width=300><img src=""static/images/keys/z.svg"" width=""35%"" height=""75%""></img></td>
    <td width=300><img src=""static/images/keys/m.svg"" width=""35%"" height=""75%""></img></td>
  </tr>
</table>
  ",,,,,,,,,,,,,,,,,,,,,,,,,,,,
115,0,,html-keyboard-response,115,452544,0.0-4.18-3.18,e0yq6gosqh,2022-09-19 17:10:15.814,631222ec555b5a004a2f25f8,1,90,58,89,45,31,male,,,"<p style=""font-size:50px"">You win!
+10 points this round!</p>",,,,,,,,,,,,,,,,,,,,,,,,,,,,
116,0,,html-keyboard-response,116,453061,0.0-4.18-4.18,e0yq6gosqh,2022-09-19 17:10:15.814,631222ec555b5a004a2f25f8,1,90,58,89,45,31,male,,,,,,1.0,learning,18.0,A,,red,,moons,,,,A,red,moons,,1.0,1.0,NA,right,487.1000000238,6.0,1.0,1.0,,,
117,0,,html-keyboard-response,117,454576,0.0-4.19-0.19,e0yq6gosqh,2022-09-19 17:10:15.814,631222ec555b5a004a2f25f8,1,90,58,89,45,31,male,,,"<img src=""static/images/cards/stack_of_black_moons.svg"" width=""175px"" height=""250px""></img>",,,,,,,,,,,,,,,,,,,,,,,,,,,,
118,0,,html-keyboard-response,118,455507,0.0-4.19-1.19,e0yq6gosqh,2022-09-19 17:10:15.814,631222ec555b5a004a2f25f8,1,90,58,89,45,31,male,426.1000000238,,"
  <table>
  <tr height=300>
    <td width=300 height=300><img src=""static/images/cards/back_of_black_moons.svg"" width=""175px"" height=""250px""></img></td>
    <td width=300 height=300><img src=""static/images/cards/back_of_black_moons.svg"" width=""175px"" height=""250px""></img></td>
  </tr>
  <tr height=200>
    <td width=300><img src=""static/images/keys/z.svg"" width=""35%"" height=""75%""></img></td>
    <td width=300></td>
  </tr>
</table>
  ",90.0,1.0,,,,,,,,,,,,,,,,,,,,,,,,,,
119,0,,html-keyboard-response,119,457021,0.0-4.19-2.19,e0yq6gosqh,2022-09-19 17:10:15.814,631222ec555b5a004a2f25f8,1,90,58,89,45,31,male,,,"
  <table>
  <tr height=300>
    <td width=300 height=300><img src=""static/images/cards/10_of_black_moons.svg"" width=""175px"" height=""250px""></img></td>
    <td width=300 height=300><img src=""static/images/cards/back_of_black_moons.svg"" width=""175px"" height=""250px""></img></td>
  </tr>
  <tr height=200>
    <td width=300><img src=""static/images/keys/z.svg"" width=""35%"" height=""75%""></img></td>
    <td width=300></td>
  </tr>
</table>
  ",,,,,,,,,,,,,,,,,,,,,,,,,,,,
120,0,,html-keyboard-response,120,458540,0.0-4.19-3.19,e0yq6gosqh,2022-09-19 17:10:15.814,631222ec555b5a004a2f25f8,1,90,58,89,45,31,male,,,"<p style=""font-size:50px"">You win!
+10 points this round!</p>",,,,,,,,,,,,,,,,,,,,,,,,,,,,
121,0,,html-keyboard-response,121,459053,0.0-4.19-4.19,e0yq6gosqh,2022-09-19 17:10:15.814,631222ec555b5a004a2f25f8,1,90,58,89,45,31,male,,,,,,1.0,learning,19.0,B,,black,,moons,,,,B,black,moons,,0.0,1.0,1,left,426.1000000238,10.0,1.0,1.0,,,
122,0,,html-keyboard-response,122,460558,0.0-4.20-0.20,e0yq6gosqh,2022-09-19 17:10:15.814,631222ec555b5a004a2f25f8,1,90,58,89,45,31,male,,,"<img src=""static/images/cards/stack_of_red_stars.svg"" width=""175px"" height=""250px""></img>",,,,,,,,,,,,,,,,,,,,,,,,,,,,
123,0,,html-keyboard-response,123,461590,0.0-4.20-1.20,e0yq6gosqh,2022-09-19 17:10:15.814,631222ec555b5a004a2f25f8,1,90,58,89,45,31,male,520.6999999285,,"
  <table>
  <tr height=300>
    <td width=300 height=300><img src=""static/images/cards/back_of_red_stars.svg"" width=""175px"" height=""250px""></img></td>
    <td width=300 height=300><img src=""static/images/cards/back_of_red_stars.svg"" width=""175px"" height=""250px""></img></td>
  </tr>
  <tr height=200>
    <td width=300><img src=""static/images/keys/z.svg"" width=""35%"" height=""75%""></img></td>
    <td width=300><img src=""static/images/keys/m.svg"" width=""35%"" height=""75%""></img></td>
  </tr>
</table>
  ",77.0,1.0,,,,,,,,,,,,,,,,,,,,,,,,,,
124,0,,html-keyboard-response,124,463092,0.0-4.20-2.20,e0yq6gosqh,2022-09-19 17:10:15.814,631222ec555b5a004a2f25f8,1,90,58,89,45,31,male,,,"
  <table>
  <tr height=300>
    <td width=300 height=300><img src=""static/images/cards/back_of_red_stars.svg"" width=""175px"" height=""250px""></img></td>
    <td width=300 height=300><img src=""static/images/cards/9_of_red_stars.svg"" width=""175px"" height=""250px""></img></td>
  </tr>
  <tr height=200>
    <td width=300><img src=""static/images/keys/z.svg"" width=""35%"" height=""75%""></img></td>
    <td width=300><img src=""static/images/keys/m.svg"" width=""35%"" height=""75%""></img></td>
  </tr>
</table>
  ",,,,,,,,,,,,,,,,,,,,,,,,,,,,
125,0,,html-keyboard-response,125,464622,0.0-4.20-3.20,e0yq6gosqh,2022-09-19 17:10:15.814,631222ec555b5a004a2f25f8,1,90,58,89,45,31,male,,,"<p style=""font-size:50px"">You win!
+10 points this round!</p>",,,,,,,,,,,,,,,,,,,,,,,,,,,,
126,0,,html-keyboard-response,126,465136,0.0-4.20-4.20,e0yq6gosqh,2022-09-19 17:10:15.814,631222ec555b5a004a2f25f8,1,90,58,89,45,31,male,,,,,,1.0,learning,20.0,C,,red,,stars,,,,C,red,stars,,1.0,0.0,NA,right,520.6999999285,9.0,1.0,1.0,,,
127,0,,html-keyboard-response,127,466644,0.0-4.21-0.21,e0yq6gosqh,2022-09-19 17:10:15.814,631222ec555b5a004a2f25f8,1,90,58,89,45,31,male,,,"<img src=""static/images/cards/stack_of_black_stars.svg"" width=""175px"" height=""250px""></img>",,,,,,,,,,,,,,,,,,,,,,,,,,,,
128,0,,html-keyboard-response,128,467542,0.0-4.21-1.21,e0yq6gosqh,2022-09-19 17:10:15.814,631222ec555b5a004a2f25f8,1,90,58,89,45,31,male,386.1999999285,,"
  <table>
  <tr height=300>
    <td width=300 height=300><img src=""static/images/cards/back_of_black_stars.svg"" width=""175px"" height=""250px""></img></td>
    <td width=300 height=300><img src=""static/images/cards/back_of_black_stars.svg"" width=""175px"" height=""250px""></img></td>
  </tr>
  <tr height=200>
    <td width=300></td>
    <td width=300><img src=""static/images/keys/m.svg"" width=""35%"" height=""75%""></img></td>
  </tr>
</table>
  ",77.0,1.0,,,,,,,,,,,,,,,,,,,,,,,,,,
129,0,,html-keyboard-response,129,469057,0.0-4.21-2.21,e0yq6gosqh,2022-09-19 17:10:15.814,631222ec555b5a004a2f25f8,1,90,58,89,45,31,male,,,"
  <table>
  <tr height=300>
    <td width=300 height=300><img src=""static/images/cards/back_of_black_stars.svg"" width=""175px"" height=""250px""></img></td>
    <td width=300 height=300><img src=""static/images/cards/3_of_black_stars.svg"" width=""175px"" height=""250px""></img></td>
  </tr>
  <tr height=200>
    <td width=300></td>
    <td width=300><img src=""static/images/keys/m.svg"" width=""35%"" height=""75%""></img></td>
  </tr>
</table>
  ",,,,,,,,,,,,,,,,,,,,,,,,,,,,
130,0,,html-keyboard-response,130,470569,0.0-4.21-3.21,e0yq6gosqh,2022-09-19 17:10:15.814,631222ec555b5a004a2f25f8,1,90,58,89,45,31,male,,,"<p style=""font-size:50px"">You win!
+10 points this round!</p>",,,,,,,,,,,,,,,,,,,,,,,,,,,,
131,0,,html-keyboard-response,131,471085,0.0-4.21-4.21,e0yq6gosqh,2022-09-19 17:10:15.814,631222ec555b5a004a2f25f8,1,90,58,89,45,31,male,,,,,,1.0,learning,21.0,D,,black,,stars,,,,D,black,stars,,0.0,0.0,0,right,386.1999999285,3.0,0.0,1.0,,,
132,0,,html-keyboard-response,132,472597,0.0-4.22-0.22,e0yq6gosqh,2022-09-19 17:10:15.814,631222ec555b5a004a2f25f8,1,90,58,89,45,31,male,,,"<img src=""static/images/cards/stack_of_red_bolts.svg"" width=""175px"" height=""250px""></img>",,,,,,,,,,,,,,,,,,,,,,,,,,,,
133,0,,html-keyboard-response,133,473651,0.0-4.22-1.22,e0yq6gosqh,2022-09-19 17:10:15.814,631222ec555b5a004a2f25f8,1,90,58,89,45,31,male,547.8000000715,,"
  <table>
  <tr height=300>
    <td width=300 height=300><img src=""static/images/cards/back_of_red_bolts.svg"" width=""175px"" height=""250px""></img></td>
    <td width=300 height=300><img src=""static/images/cards/back_of_red_bolts.svg"" width=""175px"" height=""250px""></img></td>
  </tr>
  <tr height=200>
    <td width=300><img src=""static/images/keys/z.svg"" width=""35%"" height=""75%""></img></td>
    <td width=300><img src=""static/images/keys/m.svg"" width=""35%"" height=""75%""></img></td>
  </tr>
</table>
  ",77.0,1.0,,,,,,,,,,,,,,,,,,,,,,,,,,
134,0,,html-keyboard-response,134,475162,0.0-4.22-2.22,e0yq6gosqh,2022-09-19 17:10:15.814,631222ec555b5a004a2f25f8,1,90,58,89,45,31,male,,,"
  <table>
  <tr height=300>
    <td width=300 height=300><img src=""static/images/cards/back_of_red_bolts.svg"" width=""175px"" height=""250px""></img></td>
    <td width=300 height=300><img src=""static/images/cards/7_of_red_bolts.svg"" width=""175px"" height=""250px""></img></td>
  </tr>
  <tr height=200>
    <td width=300><img src=""static/images/keys/z.svg"" width=""35%"" height=""75%""></img></td>
    <td width=300><img src=""static/images/keys/m.svg"" width=""35%"" height=""75%""></img></td>
  </tr>
</table>
  ",,,,,,,,,,,,,,,,,,,,,,,,,,,,
135,0,,html-keyboard-response,135,476672,0.0-4.22-3.22,e0yq6gosqh,2022-09-19 17:10:15.814,631222ec555b5a004a2f25f8,1,90,58,89,45,31,male,,,"<p style=""font-size:50px"">You win!
+10 points this round!</p>",,,,,,,,,,,,,,,,,,,,,,,,,,,,
136,0,,html-keyboard-response,136,477191,0.0-4.22-4.22,e0yq6gosqh,2022-09-19 17:10:15.814,631222ec555b5a004a2f25f8,1,90,58,89,45,31,male,,,,,,1.0,learning,22.0,Xc,,red,,bolts,,,,Xc,red,bolts,,1.0,0.0,NA,right,547.8000000715,7.0,1.0,1.0,,,
137,0,,html-keyboard-response,137,478705,0.0-4.23-0.23,e0yq6gosqh,2022-09-19 17:10:15.814,631222ec555b5a004a2f25f8,1,90,58,89,45,31,male,,,"<img src=""static/images/cards/stack_of_black_bolts.svg"" width=""175px"" height=""250px""></img>",,,,,,,,,,,,,,,,,,,,,,,,,,,,
138,0,,html-keyboard-response,138,479635,0.0-4.23-1.23,e0yq6gosqh,2022-09-19 17:10:15.814,631222ec555b5a004a2f25f8,1,90,58,89,45,31,male,414.3999999762,,"
  <table>
  <tr height=300>
    <td width=300 height=300><img src=""static/images/cards/back_of_black_bolts.svg"" width=""175px"" height=""250px""></img></td>
    <td width=300 height=300><img src=""static/images/cards/back_of_black_bolts.svg"" width=""175px"" height=""250px""></img></td>
  </tr>
  <tr height=200>
    <td width=300></td>
    <td width=300><img src=""static/images/keys/m.svg"" width=""35%"" height=""75%""></img></td>
  </tr>
</table>
  ",77.0,1.0,,,,,,,,,,,,,,,,,,,,,,,,,,
139,0,,html-keyboard-response,139,481151,0.0-4.23-2.23,e0yq6gosqh,2022-09-19 17:10:15.814,631222ec555b5a004a2f25f8,1,90,58,89,45,31,male,,,"
  <table>
  <tr height=300>
    <td width=300 height=300><img src=""static/images/cards/back_of_black_bolts.svg"" width=""175px"" height=""250px""></img></td>
    <td width=300 height=300><img src=""static/images/cards/4_of_black_bolts.svg"" width=""175px"" height=""250px""></img></td>
  </tr>
  <tr height=200>
    <td width=300></td>
    <td width=300><img src=""static/images/keys/m.svg"" width=""35%"" height=""75%""></img></td>
  </tr>
</table>
  ",,,,,,,,,,,,,,,,,,,,,,,,,,,,
140,0,,html-keyboard-response,140,482668,0.0-4.23-3.23,e0yq6gosqh,2022-09-19 17:10:15.814,631222ec555b5a004a2f25f8,1,90,58,89,45,31,male,,,"<p style=""font-size:50px"">You win!
+10 points this round!</p>",,,,,,,,,,,,,,,,,,,,,,,,,,,,
141,0,,html-keyboard-response,141,483175,0.0-4.23-4.23,e0yq6gosqh,2022-09-19 17:10:15.814,631222ec555b5a004a2f25f8,1,90,58,89,45,31,male,,,,,,1.0,learning,23.0,Xnc,,black,,bolts,,,,Xnc,black,bolts,,0.0,0.0,0,right,414.3999999762,4.0,0.0,1.0,,,
142,0,,call-function,142,483180,0.0-5.0,e0yq6gosqh,2022-09-19 17:10:15.814,631222ec555b5a004a2f25f8,1,90,58,89,45,31,male,,,,,,,,,,,,,,,,,,,,,,,,,,,,,,,
143,0,,image-keyboard-response,143,522736,0.0-6.0-0.0,e0yq6gosqh,2022-09-19 17:10:15.814,631222ec555b5a004a2f25f8,1,90,58,89,45,31,male,39556.3999999762,,static/images/instructions_CB_1/Slide20.png,39.0,,,,,,,,,,,,,,,,,,,,,,,,,,,
144,0,,image-keyboard-response,144,551359,0.0-6.1-0.1,e0yq6gosqh,2022-09-19 17:10:15.814,631222ec555b5a004a2f25f8,1,90,58,89,45,31,male,28621.7000000477,,static/images/instructions_CB_1/Slide21.png,39.0,,,,,,,,,,,,,,,,,,,,,,,,,,,
145,0,,image-keyboard-response,145,553214,0.0-6.2-0.2,e0yq6gosqh,2022-09-19 17:10:15.814,631222ec555b5a004a2f25f8,1,90,58,89,45,31,male,1854.2000000477,,static/images/instructions_CB_1/Slide22.png,37.0,,,,,,,,,,,,,,,,,,,,,,,,,,,
146,0,,image-keyboard-response,146,560205,0.0-6.3-0.3,e0yq6gosqh,2022-09-19 17:10:15.814,631222ec555b5a004a2f25f8,1,90,58,89,45,31,male,7003.5,,static/images/instructions_CB_1/Slide21.png,39.0,,,,,,,,,,,,,,,,,,,,,,,,,,,
147,0,,image-keyboard-response,147,563365,0.0-6.4-0.4,e0yq6gosqh,2022-09-19 17:10:15.814,631222ec555b5a004a2f25f8,1,90,58,89,45,31,male,3159.6000000238,,static/images/instructions_CB_1/Slide22.png,39.0,,,,,,,,,,,,,,,,,,,,,,,,,,,
148,0,,image-keyboard-response,148,571012,0.0-6.5-0.5,e0yq6gosqh,2022-09-19 17:10:15.814,631222ec555b5a004a2f25f8,1,90,58,89,45,31,male,7646.6999999285,,static/images/instructions_CB_1/Slide23.png,39.0,,,,,,,,,,,,,,,,,,,,,,,,,,,
149,0,,image-keyboard-response,149,583412,0.0-6.6-0.6,e0yq6gosqh,2022-09-19 17:10:15.814,631222ec555b5a004a2f25f8,1,90,58,89,45,31,male,12398.6000000238,,static/images/instructions_CB_1/Slide24.png,39.0,,,,,,,,,,,,,,,,,,,,,,,,,,,
150,0,,html-keyboard-response,150,586071,0.0-7.0-0.0,e0yq6gosqh,2022-09-19 17:10:15.814,631222ec555b5a004a2f25f8,1,90,58,89,45,31,male,2658.5,,"
  <table>
  <tr height=300>
    <td width=300 height=300><img src=""static/images/cards/stack_of_red_moons.svg"" width=""175px"" height=""250px""></img></td>
    <td width=300 height=300><img src=""static/images/cards/stack_of_red_stars.svg"" width=""175px"" height=""250px""></img></td>
  </tr>
  <tr height=200>
    <td width=300><img src=""static/images/keys/w.svg"" width=""35%"" height=""75%""></img></td>
    <td width=300><img src=""static/images/keys/o.svg"" width=""35%"" height=""75%""></img></td>
  </tr>
</table>
  ",87.0,1.0,,,,,,,,,,,,,,,,,,,,,,,,,,
151,0,,html-keyboard-response,151,588110,0.0-7.0-1.0,e0yq6gosqh,2022-09-19 17:10:15.814,631222ec555b5a004a2f25f8,1,90,58,89,45,31,male,1523.3999999762,,"
  <table>
  <tr height=300>
    <td width=300 height=300><img src=""static/images/cards/back_of_red_moons.svg"" width=""175px"" height=""250px""></img></td>
    <td width=300 height=300><img src=""static/images/cards/back_of_red_moons.svg"" width=""175px"" height=""250px""></img></td>
  </tr>
  <tr height=200>
    <td width=300><img src=""static/images/keys/z.svg"" width=""35%"" height=""75%""></img></td>
    <td width=300><img src=""static/images/keys/m.svg"" width=""35%"" height=""75%""></img></td>
  </tr>
</table>
  ",90.0,1.0,,,,,,,,,,,,,,,,,,,,,,,,,,
152,0,,html-keyboard-response,152,589613,0.0-7.0-2.0,e0yq6gosqh,2022-09-19 17:10:15.814,631222ec555b5a004a2f25f8,1,90,58,89,45,31,male,,,"
  <table>
  <tr height=300>
    <td width=300 height=300><img src=""static/images/cards/8_of_red_moons.svg"" width=""175px"" height=""250px""></img></td>
    <td width=300 height=300><img src=""static/images/cards/back_of_red_moons.svg"" width=""175px"" height=""250px""></img></td>
  </tr>
  <tr height=200>
    <td width=300><img src=""static/images/keys/z.svg"" width=""35%"" height=""75%""></img></td>
    <td width=300><img src=""static/images/keys/m.svg"" width=""35%"" height=""75%""></img></td>
  </tr>
</table>
  ",,,,,,,,,,,,,,,,,,,,,,,,,,,,
153,0,,html-keyboard-response,153,591131,0.0-7.0-3.0,e0yq6gosqh,2022-09-19 17:10:15.814,631222ec555b5a004a2f25f8,1,90,58,89,45,31,male,,,"<p style=""font-size:50px"">You win!
+10 points this round!</p>",,,,,,,,,,,,,,,,,,,,,,,,,,,,
154,0,,html-keyboard-response,154,591641,0.0-7.0-4.0,e0yq6gosqh,2022-09-19 17:10:15.814,631222ec555b5a004a2f25f8,1,90,58,89,45,31,male,,,,,,1.0,choice,0.0,A,C,red,red,moons,stars,A,C,A,red,moons,2658.5,1.0,1.0,NA,left,1523.3999999762,8.0,1.0,1.0,,,
155,0,,html-keyboard-response,155,592956,0.0-7.1-0.1,e0yq6gosqh,2022-09-19 17:10:15.814,631222ec555b5a004a2f25f8,1,90,58,89,45,31,male,1313.7000000477,,"
  <table>
  <tr height=300>
    <td width=300 height=300><img src=""static/images/cards/stack_of_black_moons.svg"" width=""175px"" height=""250px""></img></td>
    <td width=300 height=300><img src=""static/images/cards/stack_of_red_stars.svg"" width=""175px"" height=""250px""></img></td>
  </tr>
  <tr height=200>
    <td width=300><img src=""static/images/keys/w.svg"" width=""35%"" height=""75%""></img></td>
    <td width=300><img src=""static/images/keys/o.svg"" width=""35%"" height=""75%""></img></td>
  </tr>
</table>
  ",87.0,1.0,,,,,,,,,,,,,,,,,,,,,,,,,,
156,0,,html-keyboard-response,156,593848,0.0-7.1-1.1,e0yq6gosqh,2022-09-19 17:10:15.814,631222ec555b5a004a2f25f8,1,90,58,89,45,31,male,386.2000000477,,"
  <table>
  <tr height=300>
    <td width=300 height=300><img src=""static/images/cards/back_of_black_moons.svg"" width=""175px"" height=""250px""></img></td>
    <td width=300 height=300><img src=""static/images/cards/back_of_black_moons.svg"" width=""175px"" height=""250px""></img></td>
  </tr>
  <tr height=200>
    <td width=300></td>
    <td width=300><img src=""static/images/keys/m.svg"" width=""35%"" height=""75%""></img></td>
  </tr>
</table>
  ",77.0,1.0,,,,,,,,,,,,,,,,,,,,,,,,,,
157,0,,html-keyboard-response,157,595361,0.0-7.1-2.1,e0yq6gosqh,2022-09-19 17:10:15.814,631222ec555b5a004a2f25f8,1,90,58,89,45,31,male,,,"
  <table>
  <tr height=300>
    <td width=300 height=300><img src=""static/images/cards/back_of_black_moons.svg"" width=""175px"" height=""250px""></img></td>
    <td width=300 height=300><img src=""static/images/cards/7_of_black_moons.svg"" width=""175px"" height=""250px""></img></td>
  </tr>
  <tr height=200>
    <td width=300></td>
    <td width=300><img src=""static/images/keys/m.svg"" width=""35%"" height=""75%""></img></td>
  </tr>
</table>
  ",,,,,,,,,,,,,,,,,,,,,,,,,,,,
158,0,,html-keyboard-response,158,596875,0.0-7.1-3.1,e0yq6gosqh,2022-09-19 17:10:15.814,631222ec555b5a004a2f25f8,1,90,58,89,45,31,male,,,"<p style=""font-size:50px"">You win!
+10 points this round!</p>",,,,,,,,,,,,,,,,,,,,,,,,,,,,
159,0,,html-keyboard-response,159,597388,0.0-7.1-4.1,e0yq6gosqh,2022-09-19 17:10:15.814,631222ec555b5a004a2f25f8,1,90,58,89,45,31,male,,,,,,1.0,choice,1.0,B,C,black,red,moons,stars,B,C,B,black,moons,1313.7000000477,0.0,1.0,0,right,386.2000000477,7.0,1.0,1.0,,,
160,0,,html-keyboard-response,160,598712,0.0-7.2-0.2,e0yq6gosqh,2022-09-19 17:10:15.814,631222ec555b5a004a2f25f8,1,90,58,89,45,31,male,1323.2000000477,,"
  <table>
  <tr height=300>
    <td width=300 height=300><img src=""static/images/cards/stack_of_red_moons.svg"" width=""175px"" height=""250px""></img></td>
    <td width=300 height=300><img src=""static/images/cards/stack_of_red_stars.svg"" width=""175px"" height=""250px""></img></td>
  </tr>
  <tr height=200>
    <td width=300><img src=""static/images/keys/w.svg"" width=""35%"" height=""75%""></img></td>
    <td width=300><img src=""static/images/keys/o.svg"" width=""35%"" height=""75%""></img></td>
  </tr>
</table>
  ",79.0,1.0,,,,,,,,,,,,,,,,,,,,,,,,,,
161,0,,html-keyboard-response,161,599758,0.0-7.2-1.2,e0yq6gosqh,2022-09-19 17:10:15.814,631222ec555b5a004a2f25f8,1,90,58,89,45,31,male,539.2999999523,,"
  <table>
  <tr height=300>
    <td width=300 height=300><img src=""static/images/cards/back_of_red_stars.svg"" width=""175px"" height=""250px""></img></td>
    <td width=300 height=300><img src=""static/images/cards/back_of_red_stars.svg"" width=""175px"" height=""250px""></img></td>
  </tr>
  <tr height=200>
    <td width=300><img src=""static/images/keys/z.svg"" width=""35%"" height=""75%""></img></td>
    <td width=300><img src=""static/images/keys/m.svg"" width=""35%"" height=""75%""></img></td>
  </tr>
</table>
  ",77.0,1.0,,,,,,,,,,,,,,,,,,,,,,,,,,
162,0,,html-keyboard-response,162,601268,0.0-7.2-2.2,e0yq6gosqh,2022-09-19 17:10:15.814,631222ec555b5a004a2f25f8,1,90,58,89,45,31,male,,,"
  <table>
  <tr height=300>
    <td width=300 height=300><img src=""static/images/cards/back_of_red_stars.svg"" width=""175px"" height=""250px""></img></td>
    <td width=300 height=300><img src=""static/images/cards/3_of_red_stars.svg"" width=""175px"" height=""250px""></img></td>
  </tr>
  <tr height=200>
    <td width=300><img src=""static/images/keys/z.svg"" width=""35%"" height=""75%""></img></td>
    <td width=300><img src=""static/images/keys/m.svg"" width=""35%"" height=""75%""></img></td>
  </tr>
</table>
  ",,,,,,,,,,,,,,,,,,,,,,,,,,,,
163,0,,html-keyboard-response,163,602784,0.0-7.2-3.2,e0yq6gosqh,2022-09-19 17:10:15.814,631222ec555b5a004a2f25f8,1,90,58,89,45,31,male,,,"<p style=""font-size:50px"">You Lose!
No points this round.</p>",,,,,,,,,,,,,,,,,,,,,,,,,,,,
164,0,,html-keyboard-response,164,603302,0.0-7.2-4.2,e0yq6gosqh,2022-09-19 17:10:15.814,631222ec555b5a004a2f25f8,1,90,58,89,45,31,male,,,,,,1.0,choice,2.0,A,C,red,red,moons,stars,A,C,C,red,stars,1323.2000000477,1.0,0.0,NA,right,539.2999999523,3.0,0.0,0.0,,,
165,0,,html-keyboard-response,165,604351,0.0-7.3-0.3,e0yq6gosqh,2022-09-19 17:10:15.814,631222ec555b5a004a2f25f8,1,90,58,89,45,31,male,1048.1000000238,,"
  <table>
  <tr height=300>
    <td width=300 height=300><img src=""static/images/cards/stack_of_black_moons.svg"" width=""175px"" height=""250px""></img></td>
    <td width=300 height=300><img src=""static/images/cards/stack_of_red_moons.svg"" width=""175px"" height=""250px""></img></td>
  </tr>
  <tr height=200>
    <td width=300><img src=""static/images/keys/w.svg"" width=""35%"" height=""75%""></img></td>
    <td width=300><img src=""static/images/keys/o.svg"" width=""35%"" height=""75%""></img></td>
  </tr>
</table>
  ",87.0,1.0,,,,,,,,,,,,,,,,,,,,,,,,,,
166,0,,html-keyboard-response,166,605669,0.0-7.3-1.3,e0yq6gosqh,2022-09-19 17:10:15.814,631222ec555b5a004a2f25f8,1,90,58,89,45,31,male,803.8999999762,,"
  <table>
  <tr height=300>
    <td width=300 height=300><img src=""static/images/cards/back_of_black_moons.svg"" width=""175px"" height=""250px""></img></td>
    <td width=300 height=300><img src=""static/images/cards/back_of_black_moons.svg"" width=""175px"" height=""250px""></img></td>
  </tr>
  <tr height=200>
    <td width=300></td>
    <td width=300><img src=""static/images/keys/m.svg"" width=""35%"" height=""75%""></img></td>
  </tr>
</table>
  ",77.0,2.0,,,,,,,,,,,,,,,,,,,,,,,,,,
167,0,,html-keyboard-response,167,607183,0.0-7.3-2.3,e0yq6gosqh,2022-09-19 17:10:15.814,631222ec555b5a004a2f25f8,1,90,58,89,45,31,male,,,"
  <table>
  <tr height=300>
    <td width=300 height=300><img src=""static/images/cards/back_of_black_moons.svg"" width=""175px"" height=""250px""></img></td>
    <td width=300 height=300><img src=""static/images/cards/9_of_black_moons.svg"" width=""175px"" height=""250px""></img></td>
  </tr>
  <tr height=200>
    <td width=300></td>
    <td width=300><img src=""static/images/keys/m.svg"" width=""35%"" height=""75%""></img></td>
  </tr>
</table>
  ",,,,,,,,,,,,,,,,,,,,,,,,,,,,
168,0,,html-keyboard-response,168,608705,0.0-7.3-3.3,e0yq6gosqh,2022-09-19 17:10:15.814,631222ec555b5a004a2f25f8,1,90,58,89,45,31,male,,,"<p style=""font-size:50px"">You win!
+10 points this round!</p>",,,,,,,,,,,,,,,,,,,,,,,,,,,,
169,0,,html-keyboard-response,169,609215,0.0-7.3-4.3,e0yq6gosqh,2022-09-19 17:10:15.814,631222ec555b5a004a2f25f8,1,90,58,89,45,31,male,,,,,,1.0,choice,3.0,A,B,black,red,moons,moons,B,A,B,black,moons,1048.1000000238,0.0,1.0,0,right,803.8999999762,9.0,1.0,1.0,,,
170,0,,html-keyboard-response,170,610206,0.0-7.4-0.4,e0yq6gosqh,2022-09-19 17:10:15.814,631222ec555b5a004a2f25f8,1,90,58,89,45,31,male,990.8999999762,,"
  <table>
  <tr height=300>
    <td width=300 height=300><img src=""static/images/cards/stack_of_red_stars.svg"" width=""175px"" height=""250px""></img></td>
    <td width=300 height=300><img src=""static/images/cards/stack_of_red_moons.svg"" width=""175px"" height=""250px""></img></td>
  </tr>
  <tr height=200>
    <td width=300><img src=""static/images/keys/w.svg"" width=""35%"" height=""75%""></img></td>
    <td width=300><img src=""static/images/keys/o.svg"" width=""35%"" height=""75%""></img></td>
  </tr>
</table>
  ",87.0,1.0,,,,,,,,,,,,,,,,,,,,,,,,,,
171,0,,html-keyboard-response,171,612454,0.0-7.4-1.4,e0yq6gosqh,2022-09-19 17:10:15.814,631222ec555b5a004a2f25f8,1,90,58,89,45,31,male,1734.8000000715,,"
  <table>
  <tr height=300>
    <td width=300 height=300><img src=""static/images/cards/back_of_red_stars.svg"" width=""175px"" height=""250px""></img></td>
    <td width=300 height=300><img src=""static/images/cards/back_of_red_stars.svg"" width=""175px"" height=""250px""></img></td>
  </tr>
  <tr height=200>
    <td width=300><img src=""static/images/keys/z.svg"" width=""35%"" height=""75%""></img></td>
    <td width=300><img src=""static/images/keys/m.svg"" width=""35%"" height=""75%""></img></td>
  </tr>
</table>
  ",77.0,1.0,,,,,,,,,,,,,,,,,,,,,,,,,,
172,0,,html-keyboard-response,172,613963,0.0-7.4-2.4,e0yq6gosqh,2022-09-19 17:10:15.814,631222ec555b5a004a2f25f8,1,90,58,89,45,31,male,,,"
  <table>
  <tr height=300>
    <td width=300 height=300><img src=""static/images/cards/back_of_red_stars.svg"" width=""175px"" height=""250px""></img></td>
    <td width=300 height=300><img src=""static/images/cards/6_of_red_stars.svg"" width=""175px"" height=""250px""></img></td>
  </tr>
  <tr height=200>
    <td width=300><img src=""static/images/keys/z.svg"" width=""35%"" height=""75%""></img></td>
    <td width=300><img src=""static/images/keys/m.svg"" width=""35%"" height=""75%""></img></td>
  </tr>
</table>
  ",,,,,,,,,,,,,,,,,,,,,,,,,,,,
173,0,,html-keyboard-response,173,615487,0.0-7.4-3.4,e0yq6gosqh,2022-09-19 17:10:15.814,631222ec555b5a004a2f25f8,1,90,58,89,45,31,male,,,"<p style=""font-size:50px"">You Lose!
No points this round.</p>",,,,,,,,,,,,,,,,,,,,,,,,,,,,
174,0,,html-keyboard-response,174,615995,0.0-7.4-4.4,e0yq6gosqh,2022-09-19 17:10:15.814,631222ec555b5a004a2f25f8,1,90,58,89,45,31,male,,,,,,1.0,choice,4.0,A,C,red,red,stars,moons,C,A,C,red,stars,990.8999999762,1.0,0.0,NA,right,1734.8000000715,6.0,1.0,0.0,,,
175,0,,html-keyboard-response,175,617315,0.0-7.5-0.5,e0yq6gosqh,2022-09-19 17:10:15.814,631222ec555b5a004a2f25f8,1,90,58,89,45,31,male,1318.8999999762,,"
  <table>
  <tr height=300>
    <td width=300 height=300><img src=""static/images/cards/stack_of_black_moons.svg"" width=""175px"" height=""250px""></img></td>
    <td width=300 height=300><img src=""static/images/cards/stack_of_black_stars.svg"" width=""175px"" height=""250px""></img></td>
  </tr>
  <tr height=200>
    <td width=300><img src=""static/images/keys/w.svg"" width=""35%"" height=""75%""></img></td>
    <td width=300><img src=""static/images/keys/o.svg"" width=""35%"" height=""75%""></img></td>
  </tr>
</table>
  ",87.0,1.0,,,,,,,,,,,,,,,,,,,,,,,,,,
176,0,,html-keyboard-response,176,618234,0.0-7.5-1.5,e0yq6gosqh,2022-09-19 17:10:15.814,631222ec555b5a004a2f25f8,1,90,58,89,45,31,male,408.6000000238,,"
  <table>
  <tr height=300>
    <td width=300 height=300><img src=""static/images/cards/back_of_black_moons.svg"" width=""175px"" height=""250px""></img></td>
    <td width=300 height=300><img src=""static/images/cards/back_of_black_moons.svg"" width=""175px"" height=""250px""></img></td>
  </tr>
  <tr height=200>
    <td width=300></td>
    <td width=300><img src=""static/images/keys/m.svg"" width=""35%"" height=""75%""></img></td>
  </tr>
</table>
  ",77.0,1.0,,,,,,,,,,,,,,,,,,,,,,,,,,
177,0,,html-keyboard-response,177,619744,0.0-7.5-2.5,e0yq6gosqh,2022-09-19 17:10:15.814,631222ec555b5a004a2f25f8,1,90,58,89,45,31,male,,,"
  <table>
  <tr height=300>
    <td width=300 height=300><img src=""static/images/cards/back_of_black_moons.svg"" width=""175px"" height=""250px""></img></td>
    <td width=300 height=300><img src=""static/images/cards/9_of_black_moons.svg"" width=""175px"" height=""250px""></img></td>
  </tr>
  <tr height=200>
    <td width=300></td>
    <td width=300><img src=""static/images/keys/m.svg"" width=""35%"" height=""75%""></img></td>
  </tr>
</table>
  ",,,,,,,,,,,,,,,,,,,,,,,,,,,,
178,0,,html-keyboard-response,178,621283,0.0-7.5-3.5,e0yq6gosqh,2022-09-19 17:10:15.814,631222ec555b5a004a2f25f8,1,90,58,89,45,31,male,,,"<p style=""font-size:50px"">You win!
+10 points this round!</p>",,,,,,,,,,,,,,,,,,,,,,,,,,,,
179,0,,html-keyboard-response,179,621789,0.0-7.5-4.5,e0yq6gosqh,2022-09-19 17:10:15.814,631222ec555b5a004a2f25f8,1,90,58,89,45,31,male,,,,,,1.0,choice,5.0,B,D,black,black,moons,stars,B,D,B,black,moons,1318.8999999762,0.0,1.0,0,right,408.6000000238,9.0,1.0,1.0,,,
180,0,,html-keyboard-response,180,623478,0.0-7.6-0.6,e0yq6gosqh,2022-09-19 17:10:15.814,631222ec555b5a004a2f25f8,1,90,58,89,45,31,male,1687.1999999285,,"
  <table>
  <tr height=300>
    <td width=300 height=300><img src=""static/images/cards/stack_of_black_stars.svg"" width=""175px"" height=""250px""></img></td>
    <td width=300 height=300><img src=""static/images/cards/stack_of_red_stars.svg"" width=""175px"" height=""250px""></img></td>
  </tr>
  <tr height=200>
    <td width=300><img src=""static/images/keys/w.svg"" width=""35%"" height=""75%""></img></td>
    <td width=300><img src=""static/images/keys/o.svg"" width=""35%"" height=""75%""></img></td>
  </tr>
</table>
  ",79.0,1.0,,,,,,,,,,,,,,,,,,,,,,,,,,
181,0,,html-keyboard-response,181,624520,0.0-7.6-1.6,e0yq6gosqh,2022-09-19 17:10:15.814,631222ec555b5a004a2f25f8,1,90,58,89,45,31,male,526.2000000477,,"
  <table>
  <tr height=300>
    <td width=300 height=300><img src=""static/images/cards/back_of_red_stars.svg"" width=""175px"" height=""250px""></img></td>
    <td width=300 height=300><img src=""static/images/cards/back_of_red_stars.svg"" width=""175px"" height=""250px""></img></td>
  </tr>
  <tr height=200>
    <td width=300><img src=""static/images/keys/z.svg"" width=""35%"" height=""75%""></img></td>
    <td width=300><img src=""static/images/keys/m.svg"" width=""35%"" height=""75%""></img></td>
  </tr>
</table>
  ",77.0,1.0,,,,,,,,,,,,,,,,,,,,,,,,,,
182,0,,html-keyboard-response,182,626030,0.0-7.6-2.6,e0yq6gosqh,2022-09-19 17:10:15.814,631222ec555b5a004a2f25f8,1,90,58,89,45,31,male,,,"
  <table>
  <tr height=300>
    <td width=300 height=300><img src=""static/images/cards/back_of_red_stars.svg"" width=""175px"" height=""250px""></img></td>
    <td width=300 height=300><img src=""static/images/cards/9_of_red_stars.svg"" width=""175px"" height=""250px""></img></td>
  </tr>
  <tr height=200>
    <td width=300><img src=""static/images/keys/z.svg"" width=""35%"" height=""75%""></img></td>
    <td width=300><img src=""static/images/keys/m.svg"" width=""35%"" height=""75%""></img></td>
  </tr>
</table>
  ",,,,,,,,,,,,,,,,,,,,,,,,,,,,
183,0,,html-keyboard-response,183,627541,0.0-7.6-3.6,e0yq6gosqh,2022-09-19 17:10:15.814,631222ec555b5a004a2f25f8,1,90,58,89,45,31,male,,,"<p style=""font-size:50px"">You win!
+10 points this round!</p>",,,,,,,,,,,,,,,,,,,,,,,,,,,,
184,0,,html-keyboard-response,184,628059,0.0-7.6-4.6,e0yq6gosqh,2022-09-19 17:10:15.814,631222ec555b5a004a2f25f8,1,90,58,89,45,31,male,,,,,,1.0,choice,6.0,C,D,black,red,stars,stars,D,C,C,red,stars,1687.1999999285,1.0,0.0,NA,right,526.2000000477,9.0,1.0,1.0,,,
185,0,,html-keyboard-response,185,630189,0.0-7.7-0.7,e0yq6gosqh,2022-09-19 17:10:15.814,631222ec555b5a004a2f25f8,1,90,58,89,45,31,male,2129.2999999523,,"
  <table>
  <tr height=300>
    <td width=300 height=300><img src=""static/images/cards/stack_of_black_stars.svg"" width=""175px"" height=""250px""></img></td>
    <td width=300 height=300><img src=""static/images/cards/stack_of_red_moons.svg"" width=""175px"" height=""250px""></img></td>
  </tr>
  <tr height=200>
    <td width=300><img src=""static/images/keys/w.svg"" width=""35%"" height=""75%""></img></td>
    <td width=300><img src=""static/images/keys/o.svg"" width=""35%"" height=""75%""></img></td>
  </tr>
</table>
  ",87.0,1.0,,,,,,,,,,,,,,,,,,,,,,,,,,
186,0,,html-keyboard-response,186,631274,0.0-7.7-1.7,e0yq6gosqh,2022-09-19 17:10:15.814,631222ec555b5a004a2f25f8,1,90,58,89,45,31,male,581.8000000715,,"
  <table>
  <tr height=300>
    <td width=300 height=300><img src=""static/images/cards/back_of_black_stars.svg"" width=""175px"" height=""250px""></img></td>
    <td width=300 height=300><img src=""static/images/cards/back_of_black_stars.svg"" width=""175px"" height=""250px""></img></td>
  </tr>
  <tr height=200>
    <td width=300><img src=""static/images/keys/z.svg"" width=""35%"" height=""75%""></img></td>
    <td width=300></td>
  </tr>
</table>
  ",90.0,1.0,,,,,,,,,,,,,,,,,,,,,,,,,,
187,0,,html-keyboard-response,187,632789,0.0-7.7-2.7,e0yq6gosqh,2022-09-19 17:10:15.814,631222ec555b5a004a2f25f8,1,90,58,89,45,31,male,,,"
  <table>
  <tr height=300>
    <td width=300 height=300><img src=""static/images/cards/6_of_black_stars.svg"" width=""175px"" height=""250px""></img></td>
    <td width=300 height=300><img src=""static/images/cards/back_of_black_stars.svg"" width=""175px"" height=""250px""></img></td>
  </tr>
  <tr height=200>
    <td width=300><img src=""static/images/keys/z.svg"" width=""35%"" height=""75%""></img></td>
    <td width=300></td>
  </tr>
</table>
  ",,,,,,,,,,,,,,,,,,,,,,,,,,,,
188,0,,html-keyboard-response,188,634303,0.0-7.7-3.7,e0yq6gosqh,2022-09-19 17:10:15.814,631222ec555b5a004a2f25f8,1,90,58,89,45,31,male,,,"<p style=""font-size:50px"">You win!
+10 points this round!</p>",,,,,,,,,,,,,,,,,,,,,,,,,,,,
189,0,,html-keyboard-response,189,634810,0.0-7.7-4.7,e0yq6gosqh,2022-09-19 17:10:15.814,631222ec555b5a004a2f25f8,1,90,58,89,45,31,male,,,,,,1.0,choice,7.0,A,D,black,red,stars,moons,D,A,D,black,stars,2129.2999999523,0.0,0.0,1,left,581.8000000715,6.0,1.0,1.0,,,
190,0,,html-keyboard-response,190,636380,0.0-7.8-0.8,e0yq6gosqh,2022-09-19 17:10:15.814,631222ec555b5a004a2f25f8,1,90,58,89,45,31,male,1569.1999999285,,"
  <table>
  <tr height=300>
    <td width=300 height=300><img src=""static/images/cards/stack_of_red_moons.svg"" width=""175px"" height=""250px""></img></td>
    <td width=300 height=300><img src=""static/images/cards/stack_of_black_moons.svg"" width=""175px"" height=""250px""></img></td>
  </tr>
  <tr height=200>
    <td width=300><img src=""static/images/keys/w.svg"" width=""35%"" height=""75%""></img></td>
    <td width=300><img src=""static/images/keys/o.svg"" width=""35%"" height=""75%""></img></td>
  </tr>
</table>
  ",79.0,1.0,,,,,,,,,,,,,,,,,,,,,,,,,,
191,0,,html-keyboard-response,191,637791,0.0-7.8-1.8,e0yq6gosqh,2022-09-19 17:10:15.814,631222ec555b5a004a2f25f8,1,90,58,89,45,31,male,902.1000000238,,"
  <table>
  <tr height=300>
    <td width=300 height=300><img src=""static/images/cards/back_of_black_moons.svg"" width=""175px"" height=""250px""></img></td>
    <td width=300 height=300><img src=""static/images/cards/back_of_black_moons.svg"" width=""175px"" height=""250px""></img></td>
  </tr>
  <tr height=200>
    <td width=300></td>
    <td width=300><img src=""static/images/keys/m.svg"" width=""35%"" height=""75%""></img></td>
  </tr>
</table>
  ",77.0,1.0,,,,,,,,,,,,,,,,,,,,,,,,,,
192,0,,html-keyboard-response,192,639298,0.0-7.8-2.8,e0yq6gosqh,2022-09-19 17:10:15.814,631222ec555b5a004a2f25f8,1,90,58,89,45,31,male,,,"
  <table>
  <tr height=300>
    <td width=300 height=300><img src=""static/images/cards/back_of_black_moons.svg"" width=""175px"" height=""250px""></img></td>
    <td width=300 height=300><img src=""static/images/cards/10_of_black_moons.svg"" width=""175px"" height=""250px""></img></td>
  </tr>
  <tr height=200>
    <td width=300></td>
    <td width=300><img src=""static/images/keys/m.svg"" width=""35%"" height=""75%""></img></td>
  </tr>
</table>
  ",,,,,,,,,,,,,,,,,,,,,,,,,,,,
193,0,,html-keyboard-response,193,640821,0.0-7.8-3.8,e0yq6gosqh,2022-09-19 17:10:15.814,631222ec555b5a004a2f25f8,1,90,58,89,45,31,male,,,"<p style=""font-size:50px"">You win!
+10 points this round!</p>",,,,,,,,,,,,,,,,,,,,,,,,,,,,
194,0,,html-keyboard-response,194,641327,0.0-7.8-4.8,e0yq6gosqh,2022-09-19 17:10:15.814,631222ec555b5a004a2f25f8,1,90,58,89,45,31,male,,,,,,1.0,choice,8.0,A,B,red,black,moons,moons,A,B,B,black,moons,1569.1999999285,0.0,1.0,0,right,902.1000000238,10.0,1.0,1.0,,,
195,0,,html-keyboard-response,195,642611,0.0-7.9-0.9,e0yq6gosqh,2022-09-19 17:10:15.814,631222ec555b5a004a2f25f8,1,90,58,89,45,31,male,1282.3999999762,,"
  <table>
  <tr height=300>
    <td width=300 height=300><img src=""static/images/cards/stack_of_black_stars.svg"" width=""175px"" height=""250px""></img></td>
    <td width=300 height=300><img src=""static/images/cards/stack_of_red_stars.svg"" width=""175px"" height=""250px""></img></td>
  </tr>
  <tr height=200>
    <td width=300><img src=""static/images/keys/w.svg"" width=""35%"" height=""75%""></img></td>
    <td width=300><img src=""static/images/keys/o.svg"" width=""35%"" height=""75%""></img></td>
  </tr>
</table>
  ",87.0,2.0,,,,,,,,,,,,,,,,,,,,,,,,,,
196,0,,html-keyboard-response,196,643730,0.0-7.9-1.9,e0yq6gosqh,2022-09-19 17:10:15.814,631222ec555b5a004a2f25f8,1,90,58,89,45,31,male,608.3999999762,,"
  <table>
  <tr height=300>
    <td width=300 height=300><img src=""static/images/cards/back_of_black_stars.svg"" width=""175px"" height=""250px""></img></td>
    <td width=300 height=300><img src=""static/images/cards/back_of_black_stars.svg"" width=""175px"" height=""250px""></img></td>
  </tr>
  <tr height=200>
    <td width=300></td>
    <td width=300><img src=""static/images/keys/m.svg"" width=""35%"" height=""75%""></img></td>
  </tr>
</table>
  ",77.0,1.0,,,,,,,,,,,,,,,,,,,,,,,,,,
197,0,,html-keyboard-response,197,645237,0.0-7.9-2.9,e0yq6gosqh,2022-09-19 17:10:15.814,631222ec555b5a004a2f25f8,1,90,58,89,45,31,male,,,"
  <table>
  <tr height=300>
    <td width=300 height=300><img src=""static/images/cards/back_of_black_stars.svg"" width=""175px"" height=""250px""></img></td>
    <td width=300 height=300><img src=""static/images/cards/4_of_black_stars.svg"" width=""175px"" height=""250px""></img></td>
  </tr>
  <tr height=200>
    <td width=300></td>
    <td width=300><img src=""static/images/keys/m.svg"" width=""35%"" height=""75%""></img></td>
  </tr>
</table>
  ",,,,,,,,,,,,,,,,,,,,,,,,,,,,
198,0,,html-keyboard-response,198,646749,0.0-7.9-3.9,e0yq6gosqh,2022-09-19 17:10:15.814,631222ec555b5a004a2f25f8,1,90,58,89,45,31,male,,,"<p style=""font-size:50px"">You win!
+10 points this round!</p>",,,,,,,,,,,,,,,,,,,,,,,,,,,,
199,0,,html-keyboard-response,199,647257,0.0-7.9-4.9,e0yq6gosqh,2022-09-19 17:10:15.814,631222ec555b5a004a2f25f8,1,90,58,89,45,31,male,,,,,,1.0,choice,9.0,C,D,black,red,stars,stars,D,C,D,black,stars,1282.3999999762,0.0,0.0,0,right,608.3999999762,4.0,0.0,1.0,,,
200,0,,html-keyboard-response,200,648305,0.0-7.10-0.10,e0yq6gosqh,2022-09-19 17:10:15.814,631222ec555b5a004a2f25f8,1,90,58,89,45,31,male,1046.8000000715,,"
  <table>
  <tr height=300>
    <td width=300 height=300><img src=""static/images/cards/stack_of_black_stars.svg"" width=""175px"" height=""250px""></img></td>
    <td width=300 height=300><img src=""static/images/cards/stack_of_black_moons.svg"" width=""175px"" height=""250px""></img></td>
  </tr>
  <tr height=200>
    <td width=300><img src=""static/images/keys/w.svg"" width=""35%"" height=""75%""></img></td>
    <td width=300><img src=""static/images/keys/o.svg"" width=""35%"" height=""75%""></img></td>
  </tr>
</table>
  ",87.0,1.0,,,,,,,,,,,,,,,,,,,,,,,,,,
201,0,,html-keyboard-response,201,649243,0.0-7.10-1.10,e0yq6gosqh,2022-09-19 17:10:15.814,631222ec555b5a004a2f25f8,1,90,58,89,45,31,male,421.5,,"
  <table>
  <tr height=300>
    <td width=300 height=300><img src=""static/images/cards/back_of_black_stars.svg"" width=""175px"" height=""250px""></img></td>
    <td width=300 height=300><img src=""static/images/cards/back_of_black_stars.svg"" width=""175px"" height=""250px""></img></td>
  </tr>
  <tr height=200>
    <td width=300><img src=""static/images/keys/z.svg"" width=""35%"" height=""75%""></img></td>
    <td width=300></td>
  </tr>
</table>
  ",90.0,1.0,,,,,,,,,,,,,,,,,,,,,,,,,,
202,0,,html-keyboard-response,202,650750,0.0-7.10-2.10,e0yq6gosqh,2022-09-19 17:10:15.814,631222ec555b5a004a2f25f8,1,90,58,89,45,31,male,,,"
  <table>
  <tr height=300>
    <td width=300 height=300><img src=""static/images/cards/3_of_black_stars.svg"" width=""175px"" height=""250px""></img></td>
    <td width=300 height=300><img src=""static/images/cards/back_of_black_stars.svg"" width=""175px"" height=""250px""></img></td>
  </tr>
  <tr height=200>
    <td width=300><img src=""static/images/keys/z.svg"" width=""35%"" height=""75%""></img></td>
    <td width=300></td>
  </tr>
</table>
  ",,,,,,,,,,,,,,,,,,,,,,,,,,,,
203,0,,html-keyboard-response,203,652269,0.0-7.10-3.10,e0yq6gosqh,2022-09-19 17:10:15.814,631222ec555b5a004a2f25f8,1,90,58,89,45,31,male,,,"<p style=""font-size:50px"">You Lose!
No points this round.</p>",,,,,,,,,,,,,,,,,,,,,,,,,,,,
204,0,,html-keyboard-response,204,652780,0.0-7.10-4.10,e0yq6gosqh,2022-09-19 17:10:15.814,631222ec555b5a004a2f25f8,1,90,58,89,45,31,male,,,,,,1.0,choice,10.0,B,D,black,black,stars,moons,D,B,D,black,stars,1046.8000000715,0.0,0.0,1,left,421.5,3.0,0.0,0.0,,,
205,0,,html-keyboard-response,205,653954,0.0-7.11-0.11,e0yq6gosqh,2022-09-19 17:10:15.814,631222ec555b5a004a2f25f8,1,90,58,89,45,31,male,1172.7000000477,,"
  <table>
  <tr height=300>
    <td width=300 height=300><img src=""static/images/cards/stack_of_black_stars.svg"" width=""175px"" height=""250px""></img></td>
    <td width=300 height=300><img src=""static/images/cards/stack_of_red_moons.svg"" width=""175px"" height=""250px""></img></td>
  </tr>
  <tr height=200>
    <td width=300><img src=""static/images/keys/w.svg"" width=""35%"" height=""75%""></img></td>
    <td width=300><img src=""static/images/keys/o.svg"" width=""35%"" height=""75%""></img></td>
  </tr>
</table>
  ",79.0,2.0,,,,,,,,,,,,,,,,,,,,,,,,,,
206,0,,html-keyboard-response,206,655166,0.0-7.11-1.11,e0yq6gosqh,2022-09-19 17:10:15.814,631222ec555b5a004a2f25f8,1,90,58,89,45,31,male,696.7000000477,,"
  <table>
  <tr height=300>
    <td width=300 height=300><img src=""static/images/cards/back_of_red_moons.svg"" width=""175px"" height=""250px""></img></td>
    <td width=300 height=300><img src=""static/images/cards/back_of_red_moons.svg"" width=""175px"" height=""250px""></img></td>
  </tr>
  <tr height=200>
    <td width=300><img src=""static/images/keys/z.svg"" width=""35%"" height=""75%""></img></td>
    <td width=300><img src=""static/images/keys/m.svg"" width=""35%"" height=""75%""></img></td>
  </tr>
</table>
  ",90.0,1.0,,,,,,,,,,,,,,,,,,,,,,,,,,
207,0,,html-keyboard-response,207,656669,0.0-7.11-2.11,e0yq6gosqh,2022-09-19 17:10:15.814,631222ec555b5a004a2f25f8,1,90,58,89,45,31,male,,,"
  <table>
  <tr height=300>
    <td width=300 height=300><img src=""static/images/cards/4_of_red_moons.svg"" width=""175px"" height=""250px""></img></td>
    <td width=300 height=300><img src=""static/images/cards/back_of_red_moons.svg"" width=""175px"" height=""250px""></img></td>
  </tr>
  <tr height=200>
    <td width=300><img src=""static/images/keys/z.svg"" width=""35%"" height=""75%""></img></td>
    <td width=300><img src=""static/images/keys/m.svg"" width=""35%"" height=""75%""></img></td>
  </tr>
</table>
  ",,,,,,,,,,,,,,,,,,,,,,,,,,,,
208,0,,html-keyboard-response,208,658184,0.0-7.11-3.11,e0yq6gosqh,2022-09-19 17:10:15.814,631222ec555b5a004a2f25f8,1,90,58,89,45,31,male,,,"<p style=""font-size:50px"">You Lose!
No points this round.</p>",,,,,,,,,,,,,,,,,,,,,,,,,,,,
209,0,,html-keyboard-response,209,658690,0.0-7.11-4.11,e0yq6gosqh,2022-09-19 17:10:15.814,631222ec555b5a004a2f25f8,1,90,58,89,45,31,male,,,,,,1.0,choice,11.0,A,D,black,red,stars,moons,D,A,A,red,moons,1172.7000000477,1.0,1.0,NA,left,696.7000000477,4.0,0.0,0.0,,,
210,0,,html-keyboard-response,210,659883,0.0-7.12-0.12,e0yq6gosqh,2022-09-19 17:10:15.814,631222ec555b5a004a2f25f8,1,90,58,89,45,31,male,1191.8000000715,,"
  <table>
  <tr height=300>
    <td width=300 height=300><img src=""static/images/cards/stack_of_red_stars.svg"" width=""175px"" height=""250px""></img></td>
    <td width=300 height=300><img src=""static/images/cards/stack_of_red_moons.svg"" width=""175px"" height=""250px""></img></td>
  </tr>
  <tr height=200>
    <td width=300><img src=""static/images/keys/w.svg"" width=""35%"" height=""75%""></img></td>
    <td width=300><img src=""static/images/keys/o.svg"" width=""35%"" height=""75%""></img></td>
  </tr>
</table>
  ",87.0,1.0,,,,,,,,,,,,,,,,,,,,,,,,,,
211,0,,html-keyboard-response,211,661455,0.0-7.12-1.12,e0yq6gosqh,2022-09-19 17:10:15.814,631222ec555b5a004a2f25f8,1,90,58,89,45,31,male,1068.5,,"
  <table>
  <tr height=300>
    <td width=300 height=300><img src=""static/images/cards/back_of_red_stars.svg"" width=""175px"" height=""250px""></img></td>
    <td width=300 height=300><img src=""static/images/cards/back_of_red_stars.svg"" width=""175px"" height=""250px""></img></td>
  </tr>
  <tr height=200>
    <td width=300><img src=""static/images/keys/z.svg"" width=""35%"" height=""75%""></img></td>
    <td width=300><img src=""static/images/keys/m.svg"" width=""35%"" height=""75%""></img></td>
  </tr>
</table>
  ",90.0,1.0,,,,,,,,,,,,,,,,,,,,,,,,,,
212,0,,html-keyboard-response,212,662962,0.0-7.12-2.12,e0yq6gosqh,2022-09-19 17:10:15.814,631222ec555b5a004a2f25f8,1,90,58,89,45,31,male,,,"
  <table>
  <tr height=300>
    <td width=300 height=300><img src=""static/images/cards/2_of_red_stars.svg"" width=""175px"" height=""250px""></img></td>
    <td width=300 height=300><img src=""static/images/cards/back_of_red_stars.svg"" width=""175px"" height=""250px""></img></td>
  </tr>
  <tr height=200>
    <td width=300><img src=""static/images/keys/z.svg"" width=""35%"" height=""75%""></img></td>
    <td width=300><img src=""static/images/keys/m.svg"" width=""35%"" height=""75%""></img></td>
  </tr>
</table>
  ",,,,,,,,,,,,,,,,,,,,,,,,,,,,
213,0,,html-keyboard-response,213,664472,0.0-7.12-3.12,e0yq6gosqh,2022-09-19 17:10:15.814,631222ec555b5a004a2f25f8,1,90,58,89,45,31,male,,,"<p style=""font-size:50px"">You Lose!
No points this round.</p>",,,,,,,,,,,,,,,,,,,,,,,,,,,,
214,0,,html-keyboard-response,214,664988,0.0-7.12-4.12,e0yq6gosqh,2022-09-19 17:10:15.814,631222ec555b5a004a2f25f8,1,90,58,89,45,31,male,,,,,,1.0,choice,12.0,A,C,red,red,stars,moons,C,A,C,red,stars,1191.8000000715,1.0,0.0,NA,left,1068.5,2.0,0.0,0.0,,,
215,0,,html-keyboard-response,215,666385,0.0-7.13-0.13,e0yq6gosqh,2022-09-19 17:10:15.814,631222ec555b5a004a2f25f8,1,90,58,89,45,31,male,1396.3000000715,,"
  <table>
  <tr height=300>
    <td width=300 height=300><img src=""static/images/cards/stack_of_black_moons.svg"" width=""175px"" height=""250px""></img></td>
    <td width=300 height=300><img src=""static/images/cards/stack_of_black_stars.svg"" width=""175px"" height=""250px""></img></td>
  </tr>
  <tr height=200>
    <td width=300><img src=""static/images/keys/w.svg"" width=""35%"" height=""75%""></img></td>
    <td width=300><img src=""static/images/keys/o.svg"" width=""35%"" height=""75%""></img></td>
  </tr>
</table>
  ",79.0,1.0,,,,,,,,,,,,,,,,,,,,,,,,,,
216,0,,html-keyboard-response,216,667515,0.0-7.13-1.13,e0yq6gosqh,2022-09-19 17:10:15.814,631222ec555b5a004a2f25f8,1,90,58,89,45,31,male,615.1000000238,,"
  <table>
  <tr height=300>
    <td width=300 height=300><img src=""static/images/cards/back_of_black_stars.svg"" width=""175px"" height=""250px""></img></td>
    <td width=300 height=300><img src=""static/images/cards/back_of_black_stars.svg"" width=""175px"" height=""250px""></img></td>
  </tr>
  <tr height=200>
    <td width=300><img src=""static/images/keys/z.svg"" width=""35%"" height=""75%""></img></td>
    <td width=300></td>
  </tr>
</table>
  ",90.0,1.0,,,,,,,,,,,,,,,,,,,,,,,,,,
217,0,,html-keyboard-response,217,669025,0.0-7.13-2.13,e0yq6gosqh,2022-09-19 17:10:15.814,631222ec555b5a004a2f25f8,1,90,58,89,45,31,male,,,"
  <table>
  <tr height=300>
    <td width=300 height=300><img src=""static/images/cards/4_of_black_stars.svg"" width=""175px"" height=""250px""></img></td>
    <td width=300 height=300><img src=""static/images/cards/back_of_black_stars.svg"" width=""175px"" height=""250px""></img></td>
  </tr>
  <tr height=200>
    <td width=300><img src=""static/images/keys/z.svg"" width=""35%"" height=""75%""></img></td>
    <td width=300></td>
  </tr>
</table>
  ",,,,,,,,,,,,,,,,,,,,,,,,,,,,
218,0,,html-keyboard-response,218,670533,0.0-7.13-3.13,e0yq6gosqh,2022-09-19 17:10:15.814,631222ec555b5a004a2f25f8,1,90,58,89,45,31,male,,,"<p style=""font-size:50px"">You Lose!
No points this round.</p>",,,,,,,,,,,,,,,,,,,,,,,,,,,,
219,0,,html-keyboard-response,219,671053,0.0-7.13-4.13,e0yq6gosqh,2022-09-19 17:10:15.814,631222ec555b5a004a2f25f8,1,90,58,89,45,31,male,,,,,,1.0,choice,13.0,B,D,black,black,moons,stars,B,D,D,black,stars,1396.3000000715,0.0,0.0,1,left,615.1000000238,4.0,0.0,0.0,,,
220,0,,html-keyboard-response,220,671798,0.0-7.14-0.14,e0yq6gosqh,2022-09-19 17:10:15.814,631222ec555b5a004a2f25f8,1,90,58,89,45,31,male,743.8000000715,,"
  <table>
  <tr height=300>
    <td width=300 height=300><img src=""static/images/cards/stack_of_red_stars.svg"" width=""175px"" height=""250px""></img></td>
    <td width=300 height=300><img src=""static/images/cards/stack_of_black_stars.svg"" width=""175px"" height=""250px""></img></td>
  </tr>
  <tr height=200>
    <td width=300><img src=""static/images/keys/w.svg"" width=""35%"" height=""75%""></img></td>
    <td width=300><img src=""static/images/keys/o.svg"" width=""35%"" height=""75%""></img></td>
  </tr>
</table>
  ",79.0,1.0,,,,,,,,,,,,,,,,,,,,,,,,,,
221,0,,html-keyboard-response,221,672895,0.0-7.14-1.14,e0yq6gosqh,2022-09-19 17:10:15.814,631222ec555b5a004a2f25f8,1,90,58,89,45,31,male,594.4000000954,,"
  <table>
  <tr height=300>
    <td width=300 height=300><img src=""static/images/cards/back_of_black_stars.svg"" width=""175px"" height=""250px""></img></td>
    <td width=300 height=300><img src=""static/images/cards/back_of_black_stars.svg"" width=""175px"" height=""250px""></img></td>
  </tr>
  <tr height=200>
    <td width=300><img src=""static/images/keys/z.svg"" width=""35%"" height=""75%""></img></td>
    <td width=300></td>
  </tr>
</table>
  ",90.0,1.0,,,,,,,,,,,,,,,,,,,,,,,,,,
222,0,,html-keyboard-response,222,674399,0.0-7.14-2.14,e0yq6gosqh,2022-09-19 17:10:15.814,631222ec555b5a004a2f25f8,1,90,58,89,45,31,male,,,"
  <table>
  <tr height=300>
    <td width=300 height=300><img src=""static/images/cards/6_of_black_stars.svg"" width=""175px"" height=""250px""></img></td>
    <td width=300 height=300><img src=""static/images/cards/back_of_black_stars.svg"" width=""175px"" height=""250px""></img></td>
  </tr>
  <tr height=200>
    <td width=300><img src=""static/images/keys/z.svg"" width=""35%"" height=""75%""></img></td>
    <td width=300></td>
  </tr>
</table>
  ",,,,,,,,,,,,,,,,,,,,,,,,,,,,
223,0,,html-keyboard-response,223,675916,0.0-7.14-3.14,e0yq6gosqh,2022-09-19 17:10:15.814,631222ec555b5a004a2f25f8,1,90,58,89,45,31,male,,,"<p style=""font-size:50px"">You Lose!
No points this round.</p>",,,,,,,,,,,,,,,,,,,,,,,,,,,,
224,0,,html-keyboard-response,224,676436,0.0-7.14-4.14,e0yq6gosqh,2022-09-19 17:10:15.814,631222ec555b5a004a2f25f8,1,90,58,89,45,31,male,,,,,,1.0,choice,14.0,C,D,red,black,stars,stars,C,D,D,black,stars,743.8000000715,0.0,0.0,1,left,594.4000000954,6.0,1.0,0.0,,,
225,0,,html-keyboard-response,225,677826,0.0-7.15-0.15,e0yq6gosqh,2022-09-19 17:10:15.814,631222ec555b5a004a2f25f8,1,90,58,89,45,31,male,1388.8999999762,,"
  <table>
  <tr height=300>
    <td width=300 height=300><img src=""static/images/cards/stack_of_red_moons.svg"" width=""175px"" height=""250px""></img></td>
    <td width=300 height=300><img src=""static/images/cards/stack_of_black_moons.svg"" width=""175px"" height=""250px""></img></td>
  </tr>
  <tr height=200>
    <td width=300><img src=""static/images/keys/w.svg"" width=""35%"" height=""75%""></img></td>
    <td width=300><img src=""static/images/keys/o.svg"" width=""35%"" height=""75%""></img></td>
  </tr>
</table>
  ",87.0,1.0,,,,,,,,,,,,,,,,,,,,,,,,,,
226,0,,html-keyboard-response,226,679211,0.0-7.15-1.15,e0yq6gosqh,2022-09-19 17:10:15.814,631222ec555b5a004a2f25f8,1,90,58,89,45,31,male,880.1000000238,,"
  <table>
  <tr height=300>
    <td width=300 height=300><img src=""static/images/cards/back_of_red_moons.svg"" width=""175px"" height=""250px""></img></td>
    <td width=300 height=300><img src=""static/images/cards/back_of_red_moons.svg"" width=""175px"" height=""250px""></img></td>
  </tr>
  <tr height=200>
    <td width=300><img src=""static/images/keys/z.svg"" width=""35%"" height=""75%""></img></td>
    <td width=300><img src=""static/images/keys/m.svg"" width=""35%"" height=""75%""></img></td>
  </tr>
</table>
  ",77.0,1.0,,,,,,,,,,,,,,,,,,,,,,,,,,
227,0,,html-keyboard-response,227,680715,0.0-7.15-2.15,e0yq6gosqh,2022-09-19 17:10:15.814,631222ec555b5a004a2f25f8,1,90,58,89,45,31,male,,,"
  <table>
  <tr height=300>
    <td width=300 height=300><img src=""static/images/cards/back_of_red_moons.svg"" width=""175px"" height=""250px""></img></td>
    <td width=300 height=300><img src=""static/images/cards/10_of_red_moons.svg"" width=""175px"" height=""250px""></img></td>
  </tr>
  <tr height=200>
    <td width=300><img src=""static/images/keys/z.svg"" width=""35%"" height=""75%""></img></td>
    <td width=300><img src=""static/images/keys/m.svg"" width=""35%"" height=""75%""></img></td>
  </tr>
</table>
  ",,,,,,,,,,,,,,,,,,,,,,,,,,,,
228,0,,html-keyboard-response,228,682239,0.0-7.15-3.15,e0yq6gosqh,2022-09-19 17:10:15.814,631222ec555b5a004a2f25f8,1,90,58,89,45,31,male,,,"<p style=""font-size:50px"">You win!
+10 points this round!</p>",,,,,,,,,,,,,,,,,,,,,,,,,,,,
229,0,,html-keyboard-response,229,682752,0.0-7.15-4.15,e0yq6gosqh,2022-09-19 17:10:15.814,631222ec555b5a004a2f25f8,1,90,58,89,45,31,male,,,,,,1.0,choice,15.0,A,B,red,black,moons,moons,A,B,A,red,moons,1388.8999999762,1.0,1.0,NA,right,880.1000000238,10.0,1.0,1.0,,,
230,0,,html-keyboard-response,230,684195,0.0-7.16-0.16,e0yq6gosqh,2022-09-19 17:10:15.814,631222ec555b5a004a2f25f8,1,90,58,89,45,31,male,1441.1000000238,,"
  <table>
  <tr height=300>
    <td width=300 height=300><img src=""static/images/cards/stack_of_red_moons.svg"" width=""175px"" height=""250px""></img></td>
    <td width=300 height=300><img src=""static/images/cards/stack_of_black_moons.svg"" width=""175px"" height=""250px""></img></td>
  </tr>
  <tr height=200>
    <td width=300><img src=""static/images/keys/w.svg"" width=""35%"" height=""75%""></img></td>
    <td width=300><img src=""static/images/keys/o.svg"" width=""35%"" height=""75%""></img></td>
  </tr>
</table>
  ",87.0,1.0,,,,,,,,,,,,,,,,,,,,,,,,,,
231,0,,html-keyboard-response,231,685156,0.0-7.16-1.16,e0yq6gosqh,2022-09-19 17:10:15.814,631222ec555b5a004a2f25f8,1,90,58,89,45,31,male,457.8999999762,,"
  <table>
  <tr height=300>
    <td width=300 height=300><img src=""static/images/cards/back_of_red_moons.svg"" width=""175px"" height=""250px""></img></td>
    <td width=300 height=300><img src=""static/images/cards/back_of_red_moons.svg"" width=""175px"" height=""250px""></img></td>
  </tr>
  <tr height=200>
    <td width=300><img src=""static/images/keys/z.svg"" width=""35%"" height=""75%""></img></td>
    <td width=300><img src=""static/images/keys/m.svg"" width=""35%"" height=""75%""></img></td>
  </tr>
</table>
  ",90.0,1.0,,,,,,,,,,,,,,,,,,,,,,,,,,
232,0,,html-keyboard-response,232,686659,0.0-7.16-2.16,e0yq6gosqh,2022-09-19 17:10:15.814,631222ec555b5a004a2f25f8,1,90,58,89,45,31,male,,,"
  <table>
  <tr height=300>
    <td width=300 height=300><img src=""static/images/cards/1_of_red_moons.svg"" width=""175px"" height=""250px""></img></td>
    <td width=300 height=300><img src=""static/images/cards/back_of_red_moons.svg"" width=""175px"" height=""250px""></img></td>
  </tr>
  <tr height=200>
    <td width=300><img src=""static/images/keys/z.svg"" width=""35%"" height=""75%""></img></td>
    <td width=300><img src=""static/images/keys/m.svg"" width=""35%"" height=""75%""></img></td>
  </tr>
</table>
  ",,,,,,,,,,,,,,,,,,,,,,,,,,,,
233,0,,html-keyboard-response,233,688166,0.0-7.16-3.16,e0yq6gosqh,2022-09-19 17:10:15.814,631222ec555b5a004a2f25f8,1,90,58,89,45,31,male,,,"<p style=""font-size:50px"">You Lose!
No points this round.</p>",,,,,,,,,,,,,,,,,,,,,,,,,,,,
234,0,,html-keyboard-response,234,688687,0.0-7.16-4.16,e0yq6gosqh,2022-09-19 17:10:15.814,631222ec555b5a004a2f25f8,1,90,58,89,45,31,male,,,,,,1.0,choice,16.0,A,B,red,black,moons,moons,A,B,A,red,moons,1441.1000000238,1.0,1.0,NA,left,457.8999999762,1.0,0.0,0.0,,,
235,0,,html-keyboard-response,235,689562,0.0-7.17-0.17,e0yq6gosqh,2022-09-19 17:10:15.814,631222ec555b5a004a2f25f8,1,90,58,89,45,31,male,874.0,,"
  <table>
  <tr height=300>
