,index,success,trial_type,trial_index,time_elapsed,internal_node_id,subject,date,prol_id,ctbl,sense_of_control_A,sense_of_control_B,sense_of_control_C,sense_of_control_D,age,gender,rt,url,stimulus,key_press,npress,is_data_trial,phase,trial,deck1,deck2,col1,col2,sym1,sym2,deck_l,deck_r,chosen_deck,chosen_col,chosen_sym,deck_rt,choose_choice,mutual_info,hidden_key,chosen_card,card_rt,player_num,win_card,outcome,mock_rating,response,responses
0,0,1.0,fullscreen,0,5367,0.0-0.0,hqwzeqes79n,2022-09-19 18:00:26.887,615eca41d537883c96fc9eec,3,57,51,55,54,53,female,,,,,,,,,,,,,,,,,,,,,,,,,,,,,,,
1,0,,external-html,1,11325,0.0-1.0,hqwzeqes79n,2022-09-19 18:00:26.887,615eca41d537883c96fc9eec,3,57,51,55,54,53,female,5820.5,static/js/sub/consent.html,,,,,,,,,,,,,,,,,,,,,,,,,,,,,
2,0,,call-function,2,11327,0.0-2.0,hqwzeqes79n,2022-09-19 18:00:26.887,615eca41d537883c96fc9eec,3,57,51,55,54,53,female,,,,,,,,,,,,,,,,,,,,,,,,,,,,,,,
3,0,,image-keyboard-response,3,23172,0.0-3.0-0.0,hqwzeqes79n,2022-09-19 18:00:26.887,615eca41d537883c96fc9eec,3,57,51,55,54,53,female,11841.5999999046,,static/images/instructions_CB_3/Slide1.png,39.0,,,,,,,,,,,,,,,,,,,,,,,,,,,
4,0,,image-keyboard-response,4,43165,0.0-3.1-0.1,hqwzeqes79n,2022-09-19 18:00:26.887,615eca41d537883c96fc9eec,3,57,51,55,54,53,female,19991.7999997139,,static/images/instructions_CB_3/Slide2.png,39.0,,,,,,,,,,,,,,,,,,,,,,,,,,,
5,0,,image-keyboard-response,5,50165,0.0-3.2-0.2,hqwzeqes79n,2022-09-19 18:00:26.887,615eca41d537883c96fc9eec,3,57,51,55,54,53,female,6996.3000001907,,static/images/instructions_CB_3/Slide3.png,39.0,,,,,,,,,,,,,,,,,,,,,,,,,,,
6,0,,image-keyboard-response,6,65603,0.0-3.3-0.3,hqwzeqes79n,2022-09-19 18:00:26.887,615eca41d537883c96fc9eec,3,57,51,55,54,53,female,15437.1999998093,,static/images/instructions_CB_3/Slide4.png,39.0,,,,,,,,,,,,,,,,,,,,,,,,,,,
7,0,,image-keyboard-response,7,71765,0.0-3.4-0.4,hqwzeqes79n,2022-09-19 18:00:26.887,615eca41d537883c96fc9eec,3,57,51,55,54,53,female,6160.7999997139,,static/images/instructions_CB_3/Slide5.png,39.0,,,,,,,,,,,,,,,,,,,,,,,,,,,
8,0,,image-keyboard-response,8,75285,0.0-3.5-0.5,hqwzeqes79n,2022-09-19 18:00:26.887,615eca41d537883c96fc9eec,3,57,51,55,54,53,female,3518.0999999046,,static/images/instructions_CB_3/Slide6.png,39.0,,,,,,,,,,,,,,,,,,,,,,,,,,,
9,0,,image-keyboard-response,9,81945,0.0-3.6-0.6,hqwzeqes79n,2022-09-19 18:00:26.887,615eca41d537883c96fc9eec,3,57,51,55,54,53,female,6657.0,,static/images/instructions_CB_3/Slide7.png,39.0,,,,,,,,,,,,,,,,,,,,,,,,,,,
10,0,,image-keyboard-response,10,105075,0.0-3.7-0.7,hqwzeqes79n,2022-09-19 18:00:26.887,615eca41d537883c96fc9eec,3,57,51,55,54,53,female,23132.0,,static/images/instructions_CB_3/Slide8.png,39.0,,,,,,,,,,,,,,,,,,,,,,,,,,,
11,0,,image-keyboard-response,11,113442,0.0-3.8-0.8,hqwzeqes79n,2022-09-19 18:00:26.887,615eca41d537883c96fc9eec,3,57,51,55,54,53,female,8364.6999998093,,static/images/instructions_CB_3/Slide9.png,39.0,,,,,,,,,,,,,,,,,,,,,,,,,,,
12,0,,image-keyboard-response,12,123427,0.0-3.9-0.9,hqwzeqes79n,2022-09-19 18:00:26.887,615eca41d537883c96fc9eec,3,57,51,55,54,53,female,9982.4000000954,,static/images/instructions_CB_3/Slide10.png,39.0,,,,,,,,,,,,,,,,,,,,,,,,,,,
13,0,,image-keyboard-response,13,126840,0.0-3.10-0.10,hqwzeqes79n,2022-09-19 18:00:26.887,615eca41d537883c96fc9eec,3,57,51,55,54,53,female,3410.5999999046,,static/images/instructions_CB_3/Slide11.png,39.0,,,,,,,,,,,,,,,,,,,,,,,,,,,
14,0,,image-keyboard-response,14,140708,0.0-3.11-0.11,hqwzeqes79n,2022-09-19 18:00:26.887,615eca41d537883c96fc9eec,3,57,51,55,54,53,female,13866.5999999046,,static/images/instructions_CB_3/Slide12.png,39.0,,,,,,,,,,,,,,,,,,,,,,,,,,,
15,0,,image-keyboard-response,15,161379,0.0-3.12-0.12,hqwzeqes79n,2022-09-19 18:00:26.887,615eca41d537883c96fc9eec,3,57,51,55,54,53,female,20668.5999999046,,static/images/instructions_CB_3/Slide13.png,39.0,,,,,,,,,,,,,,,,,,,,,,,,,,,
16,0,,image-keyboard-response,16,184617,0.0-3.13-0.13,hqwzeqes79n,2022-09-19 18:00:26.887,615eca41d537883c96fc9eec,3,57,51,55,54,53,female,23238.5,,static/images/instructions_CB_3/Slide14.png,39.0,,,,,,,,,,,,,,,,,,,,,,,,,,,
17,0,,image-keyboard-response,17,193544,0.0-3.14-0.14,hqwzeqes79n,2022-09-19 18:00:26.887,615eca41d537883c96fc9eec,3,57,51,55,54,53,female,8925.5999999046,,static/images/instructions_CB_3/Slide15.png,39.0,,,,,,,,,,,,,,,,,,,,,,,,,,,
18,0,,image-keyboard-response,18,240152,0.0-3.15-0.15,hqwzeqes79n,2022-09-19 18:00:26.887,615eca41d537883c96fc9eec,3,57,51,55,54,53,female,46605.1999998093,,static/images/instructions_CB_3/Slide16.png,39.0,,,,,,,,,,,,,,,,,,,,,,,,,,,
19,0,,image-keyboard-response,19,247205,0.0-3.16-0.16,hqwzeqes79n,2022-09-19 18:00:26.887,615eca41d537883c96fc9eec,3,57,51,55,54,53,female,7057.9000000954,,static/images/instructions_CB_3/Slide17.png,39.0,,,,,,,,,,,,,,,,,,,,,,,,,,,
20,0,,image-keyboard-response,20,276502,0.0-3.17-0.17,hqwzeqes79n,2022-09-19 18:00:26.887,615eca41d537883c96fc9eec,3,57,51,55,54,53,female,29294.7999997139,,static/images/instructions_CB_3/Slide18.png,39.0,,,,,,,,,,,,,,,,,,,,,,,,,,,
21,0,,image-keyboard-response,21,298338,0.0-3.18-0.18,hqwzeqes79n,2022-09-19 18:00:26.887,615eca41d537883c96fc9eec,3,57,51,55,54,53,female,21834.5,,static/images/instructions_CB_3/Slide19.png,39.0,,,,,,,,,,,,,,,,,,,,,,,,,,,
22,0,,html-keyboard-response,22,299857,0.0-4.0-0.0,hqwzeqes79n,2022-09-19 18:00:26.887,615eca41d537883c96fc9eec,3,57,51,55,54,53,female,,,"<img src=""static/images/cards/stack_of_black_moons.svg"" width=""175px"" height=""250px""></img>",,,,,,,,,,,,,,,,,,,,,,,,,,,,
23,0,,html-keyboard-response,23,302655,0.0-4.0-1.0,hqwzeqes79n,2022-09-19 18:00:26.887,615eca41d537883c96fc9eec,3,57,51,55,54,53,female,2294.4000000954,,"
  <table>
  <tr height=300>
    <td width=300 height=300><img src=""static/images/cards/back_of_black_moons.svg"" width=""175px"" height=""250px""></img></td>
    <td width=300 height=300><img src=""static/images/cards/back_of_black_moons.svg"" width=""175px"" height=""250px""></img></td>
  </tr>
  <tr height=200>
    <td width=300><img src=""static/images/keys/z.svg"" width=""35%"" height=""75%""></img></td>
    <td width=300><img src=""static/images/keys/m.svg"" width=""35%"" height=""75%""></img></td>
  </tr>
</table>
  ",90.0,1.0,,,,,,,,,,,,,,,,,,,,,,,,,,
24,0,,html-keyboard-response,24,304161,0.0-4.0-2.0,hqwzeqes79n,2022-09-19 18:00:26.887,615eca41d537883c96fc9eec,3,57,51,55,54,53,female,,,"
  <table>
  <tr height=300>
    <td width=300 height=300><img src=""static/images/cards/7_of_black_moons.svg"" width=""175px"" height=""250px""></img></td>
    <td width=300 height=300><img src=""static/images/cards/back_of_black_moons.svg"" width=""175px"" height=""250px""></img></td>
  </tr>
  <tr height=200>
    <td width=300><img src=""static/images/keys/z.svg"" width=""35%"" height=""75%""></img></td>
    <td width=300><img src=""static/images/keys/m.svg"" width=""35%"" height=""75%""></img></td>
  </tr>
</table>
  ",,,,,,,,,,,,,,,,,,,,,,,,,,,,
25,0,,html-keyboard-response,25,305676,0.0-4.0-3.0,hqwzeqes79n,2022-09-19 18:00:26.887,615eca41d537883c96fc9eec,3,57,51,55,54,53,female,,,"<p style=""font-size:50px"">You win!
+10 points this round!</p>",,,,,,,,,,,,,,,,,,,,,,,,,,,,
26,0,,html-keyboard-response,26,306183,0.0-4.0-4.0,hqwzeqes79n,2022-09-19 18:00:26.887,615eca41d537883c96fc9eec,3,57,51,55,54,53,female,,,,,,1.0,learning,0.0,A,,black,,moons,,,,A,black,moons,,1.0,1.0,NA,left,2294.4000000954,7.0,1.0,1.0,,,
27,0,,html-keyboard-response,27,307711,0.0-4.1-0.1,hqwzeqes79n,2022-09-19 18:00:26.887,615eca41d537883c96fc9eec,3,57,51,55,54,53,female,,,"<img src=""static/images/cards/stack_of_red_moons.svg"" width=""175px"" height=""250px""></img>",,,,,,,,,,,,,,,,,,,,,,,,,,,,
28,0,,html-keyboard-response,28,309574,0.0-4.1-1.1,hqwzeqes79n,2022-09-19 18:00:26.887,615eca41d537883c96fc9eec,3,57,51,55,54,53,female,1353.5999999046,,"
  <table>
  <tr height=300>
    <td width=300 height=300><img src=""static/images/cards/back_of_red_moons.svg"" width=""175px"" height=""250px""></img></td>
    <td width=300 height=300><img src=""static/images/cards/back_of_red_moons.svg"" width=""175px"" height=""250px""></img></td>
  </tr>
  <tr height=200>
    <td width=300></td>
    <td width=300><img src=""static/images/keys/m.svg"" width=""35%"" height=""75%""></img></td>
  </tr>
</table>
  ",77.0,1.0,,,,,,,,,,,,,,,,,,,,,,,,,,
29,0,,html-keyboard-response,29,311089,0.0-4.1-2.1,hqwzeqes79n,2022-09-19 18:00:26.887,615eca41d537883c96fc9eec,3,57,51,55,54,53,female,,,"
  <table>
  <tr height=300>
    <td width=300 height=300><img src=""static/images/cards/back_of_red_moons.svg"" width=""175px"" height=""250px""></img></td>
    <td width=300 height=300><img src=""static/images/cards/3_of_red_moons.svg"" width=""175px"" height=""250px""></img></td>
  </tr>
  <tr height=200>
    <td width=300></td>
    <td width=300><img src=""static/images/keys/m.svg"" width=""35%"" height=""75%""></img></td>
  </tr>
</table>
  ",,,,,,,,,,,,,,,,,,,,,,,,,,,,
30,0,,html-keyboard-response,30,312608,0.0-4.1-3.1,hqwzeqes79n,2022-09-19 18:00:26.887,615eca41d537883c96fc9eec,3,57,51,55,54,53,female,,,"<p style=""font-size:50px"">You Lose!
No points this round.</p>",,,,,,,,,,,,,,,,,,,,,,,,,,,,
31,0,,html-keyboard-response,31,313126,0.0-4.1-4.1,hqwzeqes79n,2022-09-19 18:00:26.887,615eca41d537883c96fc9eec,3,57,51,55,54,53,female,,,,,,1.0,learning,1.0,B,,red,,moons,,,,B,red,moons,,0.0,1.0,0,right,1353.5999999046,3.0,0.0,0.0,,,
32,0,,html-keyboard-response,32,314643,0.0-4.2-0.2,hqwzeqes79n,2022-09-19 18:00:26.887,615eca41d537883c96fc9eec,3,57,51,55,54,53,female,,,"<img src=""static/images/cards/stack_of_black_stars.svg"" width=""175px"" height=""250px""></img>",,,,,,,,,,,,,,,,,,,,,,,,,,,,
33,0,,html-keyboard-response,33,316342,0.0-4.2-1.2,hqwzeqes79n,2022-09-19 18:00:26.887,615eca41d537883c96fc9eec,3,57,51,55,54,53,female,1188.2000002861,,"
  <table>
  <tr height=300>
    <td width=300 height=300><img src=""static/images/cards/back_of_black_stars.svg"" width=""175px"" height=""250px""></img></td>
    <td width=300 height=300><img src=""static/images/cards/back_of_black_stars.svg"" width=""175px"" height=""250px""></img></td>
  </tr>
  <tr height=200>
    <td width=300><img src=""static/images/keys/z.svg"" width=""35%"" height=""75%""></img></td>
    <td width=300><img src=""static/images/keys/m.svg"" width=""35%"" height=""75%""></img></td>
  </tr>
</table>
  ",77.0,1.0,,,,,,,,,,,,,,,,,,,,,,,,,,
34,0,,html-keyboard-response,34,317846,0.0-4.2-2.2,hqwzeqes79n,2022-09-19 18:00:26.887,615eca41d537883c96fc9eec,3,57,51,55,54,53,female,,,"
  <table>
  <tr height=300>
    <td width=300 height=300><img src=""static/images/cards/back_of_black_stars.svg"" width=""175px"" height=""250px""></img></td>
    <td width=300 height=300><img src=""static/images/cards/7_of_black_stars.svg"" width=""175px"" height=""250px""></img></td>
  </tr>
  <tr height=200>
    <td width=300><img src=""static/images/keys/z.svg"" width=""35%"" height=""75%""></img></td>
    <td width=300><img src=""static/images/keys/m.svg"" width=""35%"" height=""75%""></img></td>
  </tr>
</table>
  ",,,,,,,,,,,,,,,,,,,,,,,,,,,,
35,0,,html-keyboard-response,35,319369,0.0-4.2-3.2,hqwzeqes79n,2022-09-19 18:00:26.887,615eca41d537883c96fc9eec,3,57,51,55,54,53,female,,,"<p style=""font-size:50px"">You Lose!
No points this round.</p>",,,,,,,,,,,,,,,,,,,,,,,,,,,,
36,0,,html-keyboard-response,36,319885,0.0-4.2-4.2,hqwzeqes79n,2022-09-19 18:00:26.887,615eca41d537883c96fc9eec,3,57,51,55,54,53,female,,,,,,1.0,learning,2.0,C,,black,,stars,,,,C,black,stars,,1.0,0.0,NA,right,1188.2000002861,7.0,1.0,0.0,,,
37,0,,html-keyboard-response,37,321395,0.0-4.3-0.3,hqwzeqes79n,2022-09-19 18:00:26.887,615eca41d537883c96fc9eec,3,57,51,55,54,53,female,,,"<img src=""static/images/cards/stack_of_red_stars.svg"" width=""175px"" height=""250px""></img>",,,,,,,,,,,,,,,,,,,,,,,,,,,,
38,0,,html-keyboard-response,38,322582,0.0-4.3-1.3,hqwzeqes79n,2022-09-19 18:00:26.887,615eca41d537883c96fc9eec,3,57,51,55,54,53,female,677.3000001907,,"
  <table>
  <tr height=300>
    <td width=300 height=300><img src=""static/images/cards/back_of_red_stars.svg"" width=""175px"" height=""250px""></img></td>
    <td width=300 height=300><img src=""static/images/cards/back_of_red_stars.svg"" width=""175px"" height=""250px""></img></td>
  </tr>
  <tr height=200>
    <td width=300></td>
    <td width=300><img src=""static/images/keys/m.svg"" width=""35%"" height=""75%""></img></td>
  </tr>
</table>
  ",77.0,1.0,,,,,,,,,,,,,,,,,,,,,,,,,,
39,0,,html-keyboard-response,39,324092,0.0-4.3-2.3,hqwzeqes79n,2022-09-19 18:00:26.887,615eca41d537883c96fc9eec,3,57,51,55,54,53,female,,,"
  <table>
  <tr height=300>
    <td width=300 height=300><img src=""static/images/cards/back_of_red_stars.svg"" width=""175px"" height=""250px""></img></td>
    <td width=300 height=300><img src=""static/images/cards/9_of_red_stars.svg"" width=""175px"" height=""250px""></img></td>
  </tr>
  <tr height=200>
    <td width=300></td>
    <td width=300><img src=""static/images/keys/m.svg"" width=""35%"" height=""75%""></img></td>
  </tr>
</table>
  ",,,,,,,,,,,,,,,,,,,,,,,,,,,,
40,0,,html-keyboard-response,40,325606,0.0-4.3-3.3,hqwzeqes79n,2022-09-19 18:00:26.887,615eca41d537883c96fc9eec,3,57,51,55,54,53,female,,,"<p style=""font-size:50px"">You Lose!
No points this round.</p>",,,,,,,,,,,,,,,,,,,,,,,,,,,,
41,0,,html-keyboard-response,41,326116,0.0-4.3-4.3,hqwzeqes79n,2022-09-19 18:00:26.887,615eca41d537883c96fc9eec,3,57,51,55,54,53,female,,,,,,1.0,learning,3.0,D,,red,,stars,,,,D,red,stars,,0.0,0.0,0,right,677.3000001907,9.0,1.0,0.0,,,
42,0,,html-keyboard-response,42,327629,0.0-4.4-0.4,hqwzeqes79n,2022-09-19 18:00:26.887,615eca41d537883c96fc9eec,3,57,51,55,54,53,female,,,"<img src=""static/images/cards/stack_of_red_bolts.svg"" width=""175px"" height=""250px""></img>",,,,,,,,,,,,,,,,,,,,,,,,,,,,
43,0,,html-keyboard-response,43,329412,0.0-4.4-1.4,hqwzeqes79n,2022-09-19 18:00:26.887,615eca41d537883c96fc9eec,3,57,51,55,54,53,female,1268.0999999046,,"
  <table>
  <tr height=300>
    <td width=300 height=300><img src=""static/images/cards/back_of_red_bolts.svg"" width=""175px"" height=""250px""></img></td>
    <td width=300 height=300><img src=""static/images/cards/back_of_red_bolts.svg"" width=""175px"" height=""250px""></img></td>
  </tr>
  <tr height=200>
    <td width=300><img src=""static/images/keys/z.svg"" width=""35%"" height=""75%""></img></td>
    <td width=300><img src=""static/images/keys/m.svg"" width=""35%"" height=""75%""></img></td>
  </tr>
</table>
  ",77.0,1.0,,,,,,,,,,,,,,,,,,,,,,,,,,
44,0,,html-keyboard-response,44,330929,0.0-4.4-2.4,hqwzeqes79n,2022-09-19 18:00:26.887,615eca41d537883c96fc9eec,3,57,51,55,54,53,female,,,"
  <table>
  <tr height=300>
    <td width=300 height=300><img src=""static/images/cards/back_of_red_bolts.svg"" width=""175px"" height=""250px""></img></td>
    <td width=300 height=300><img src=""static/images/cards/1_of_red_bolts.svg"" width=""175px"" height=""250px""></img></td>
  </tr>
  <tr height=200>
    <td width=300><img src=""static/images/keys/z.svg"" width=""35%"" height=""75%""></img></td>
    <td width=300><img src=""static/images/keys/m.svg"" width=""35%"" height=""75%""></img></td>
  </tr>
</table>
  ",,,,,,,,,,,,,,,,,,,,,,,,,,,,
45,0,,html-keyboard-response,45,332457,0.0-4.4-3.4,hqwzeqes79n,2022-09-19 18:00:26.887,615eca41d537883c96fc9eec,3,57,51,55,54,53,female,,,"<p style=""font-size:50px"">You win!
+10 points this round!</p>",,,,,,,,,,,,,,,,,,,,,,,,,,,,
46,0,,html-keyboard-response,46,332985,0.0-4.4-4.4,hqwzeqes79n,2022-09-19 18:00:26.887,615eca41d537883c96fc9eec,3,57,51,55,54,53,female,,,,,,1.0,learning,4.0,Xc,,red,,bolts,,,,Xc,red,bolts,,1.0,0.0,NA,right,1268.0999999046,1.0,0.0,1.0,,,
47,0,,html-keyboard-response,47,334490,0.0-4.5-0.5,hqwzeqes79n,2022-09-19 18:00:26.887,615eca41d537883c96fc9eec,3,57,51,55,54,53,female,,,"<img src=""static/images/cards/stack_of_black_bolts.svg"" width=""175px"" height=""250px""></img>",,,,,,,,,,,,,,,,,,,,,,,,,,,,
48,0,,html-keyboard-response,48,335708,0.0-4.5-1.5,hqwzeqes79n,2022-09-19 18:00:26.887,615eca41d537883c96fc9eec,3,57,51,55,54,53,female,713.6999998093,,"
  <table>
  <tr height=300>
    <td width=300 height=300><img src=""static/images/cards/back_of_black_bolts.svg"" width=""175px"" height=""250px""></img></td>
    <td width=300 height=300><img src=""static/images/cards/back_of_black_bolts.svg"" width=""175px"" height=""250px""></img></td>
  </tr>
  <tr height=200>
    <td width=300></td>
    <td width=300><img src=""static/images/keys/m.svg"" width=""35%"" height=""75%""></img></td>
  </tr>
</table>
  ",77.0,1.0,,,,,,,,,,,,,,,,,,,,,,,,,,
49,0,,html-keyboard-response,49,337214,0.0-4.5-2.5,hqwzeqes79n,2022-09-19 18:00:26.887,615eca41d537883c96fc9eec,3,57,51,55,54,53,female,,,"
  <table>
  <tr height=300>
    <td width=300 height=300><img src=""static/images/cards/back_of_black_bolts.svg"" width=""175px"" height=""250px""></img></td>
    <td width=300 height=300><img src=""static/images/cards/1_of_black_bolts.svg"" width=""175px"" height=""250px""></img></td>
  </tr>
  <tr height=200>
    <td width=300></td>
    <td width=300><img src=""static/images/keys/m.svg"" width=""35%"" height=""75%""></img></td>
  </tr>
</table>
  ",,,,,,,,,,,,,,,,,,,,,,,,,,,,
50,0,,html-keyboard-response,50,338731,0.0-4.5-3.5,hqwzeqes79n,2022-09-19 18:00:26.887,615eca41d537883c96fc9eec,3,57,51,55,54,53,female,,,"<p style=""font-size:50px"">You win!
+10 points this round!</p>",,,,,,,,,,,,,,,,,,,,,,,,,,,,
51,0,,html-keyboard-response,51,339245,0.0-4.5-4.5,hqwzeqes79n,2022-09-19 18:00:26.887,615eca41d537883c96fc9eec,3,57,51,55,54,53,female,,,,,,1.0,learning,5.0,Xnc,,black,,bolts,,,,Xnc,black,bolts,,0.0,0.0,0,right,713.6999998093,1.0,0.0,1.0,,,
52,0,,html-keyboard-response,52,340749,0.0-4.6-0.6,hqwzeqes79n,2022-09-19 18:00:26.887,615eca41d537883c96fc9eec,3,57,51,55,54,53,female,,,"<img src=""static/images/cards/stack_of_black_moons.svg"" width=""175px"" height=""250px""></img>",,,,,,,,,,,,,,,,,,,,,,,,,,,,
53,0,,html-keyboard-response,53,342377,0.0-4.6-1.6,hqwzeqes79n,2022-09-19 18:00:26.887,615eca41d537883c96fc9eec,3,57,51,55,54,53,female,1109.9000000954,,"
  <table>
  <tr height=300>
    <td width=300 height=300><img src=""static/images/cards/back_of_black_moons.svg"" width=""175px"" height=""250px""></img></td>
    <td width=300 height=300><img src=""static/images/cards/back_of_black_moons.svg"" width=""175px"" height=""250px""></img></td>
  </tr>
  <tr height=200>
    <td width=300><img src=""static/images/keys/z.svg"" width=""35%"" height=""75%""></img></td>
    <td width=300><img src=""static/images/keys/m.svg"" width=""35%"" height=""75%""></img></td>
  </tr>
</table>
  ",77.0,1.0,,,,,,,,,,,,,,,,,,,,,,,,,,
54,0,,html-keyboard-response,54,343894,0.0-4.6-2.6,hqwzeqes79n,2022-09-19 18:00:26.887,615eca41d537883c96fc9eec,3,57,51,55,54,53,female,,,"
  <table>
  <tr height=300>
    <td width=300 height=300><img src=""static/images/cards/back_of_black_moons.svg"" width=""175px"" height=""250px""></img></td>
    <td width=300 height=300><img src=""static/images/cards/10_of_black_moons.svg"" width=""175px"" height=""250px""></img></td>
  </tr>
  <tr height=200>
    <td width=300><img src=""static/images/keys/z.svg"" width=""35%"" height=""75%""></img></td>
    <td width=300><img src=""static/images/keys/m.svg"" width=""35%"" height=""75%""></img></td>
  </tr>
</table>
  ",,,,,,,,,,,,,,,,,,,,,,,,,,,,
55,0,,html-keyboard-response,55,345411,0.0-4.6-3.6,hqwzeqes79n,2022-09-19 18:00:26.887,615eca41d537883c96fc9eec,3,57,51,55,54,53,female,,,"<p style=""font-size:50px"">You win!
+10 points this round!</p>",,,,,,,,,,,,,,,,,,,,,,,,,,,,
56,0,,html-keyboard-response,56,345921,0.0-4.6-4.6,hqwzeqes79n,2022-09-19 18:00:26.887,615eca41d537883c96fc9eec,3,57,51,55,54,53,female,,,,,,1.0,learning,6.0,A,,black,,moons,,,,A,black,moons,,1.0,1.0,NA,right,1109.9000000954,10.0,1.0,1.0,,,
57,0,,html-keyboard-response,57,347423,0.0-4.7-0.7,hqwzeqes79n,2022-09-19 18:00:26.887,615eca41d537883c96fc9eec,3,57,51,55,54,53,female,,,"<img src=""static/images/cards/stack_of_red_moons.svg"" width=""175px"" height=""250px""></img>",,,,,,,,,,,,,,,,,,,,,,,,,,,,
58,0,,html-keyboard-response,58,348758,0.0-4.7-1.7,hqwzeqes79n,2022-09-19 18:00:26.887,615eca41d537883c96fc9eec,3,57,51,55,54,53,female,825.0999999046,,"
  <table>
  <tr height=300>
    <td width=300 height=300><img src=""static/images/cards/back_of_red_moons.svg"" width=""175px"" height=""250px""></img></td>
    <td width=300 height=300><img src=""static/images/cards/back_of_red_moons.svg"" width=""175px"" height=""250px""></img></td>
  </tr>
  <tr height=200>
    <td width=300></td>
    <td width=300><img src=""static/images/keys/m.svg"" width=""35%"" height=""75%""></img></td>
  </tr>
</table>
  ",77.0,1.0,,,,,,,,,,,,,,,,,,,,,,,,,,
59,0,,html-keyboard-response,59,350276,0.0-4.7-2.7,hqwzeqes79n,2022-09-19 18:00:26.887,615eca41d537883c96fc9eec,3,57,51,55,54,53,female,,,"
  <table>
  <tr height=300>
    <td width=300 height=300><img src=""static/images/cards/back_of_red_moons.svg"" width=""175px"" height=""250px""></img></td>
    <td width=300 height=300><img src=""static/images/cards/1_of_red_moons.svg"" width=""175px"" height=""250px""></img></td>
  </tr>
  <tr height=200>
    <td width=300></td>
    <td width=300><img src=""static/images/keys/m.svg"" width=""35%"" height=""75%""></img></td>
  </tr>
</table>
  ",,,,,,,,,,,,,,,,,,,,,,,,,,,,
60,0,,html-keyboard-response,60,351783,0.0-4.7-3.7,hqwzeqes79n,2022-09-19 18:00:26.887,615eca41d537883c96fc9eec,3,57,51,55,54,53,female,,,"<p style=""font-size:50px"">You Lose!
No points this round.</p>",,,,,,,,,,,,,,,,,,,,,,,,,,,,
61,0,,html-keyboard-response,61,352298,0.0-4.7-4.7,hqwzeqes79n,2022-09-19 18:00:26.887,615eca41d537883c96fc9eec,3,57,51,55,54,53,female,,,,,,1.0,learning,7.0,B,,red,,moons,,,,B,red,moons,,0.0,1.0,0,right,825.0999999046,1.0,0.0,0.0,,,
62,0,,html-keyboard-response,62,353801,0.0-4.8-0.8,hqwzeqes79n,2022-09-19 18:00:26.887,615eca41d537883c96fc9eec,3,57,51,55,54,53,female,,,"<img src=""static/images/cards/stack_of_black_stars.svg"" width=""175px"" height=""250px""></img>",,,,,,,,,,,,,,,,,,,,,,,,,,,,
63,0,,html-keyboard-response,63,355491,0.0-4.8-1.8,hqwzeqes79n,2022-09-19 18:00:26.887,615eca41d537883c96fc9eec,3,57,51,55,54,53,female,1175.2999997139,,"
  <table>
  <tr height=300>
    <td width=300 height=300><img src=""static/images/cards/back_of_black_stars.svg"" width=""175px"" height=""250px""></img></td>
    <td width=300 height=300><img src=""static/images/cards/back_of_black_stars.svg"" width=""175px"" height=""250px""></img></td>
  </tr>
  <tr height=200>
    <td width=300><img src=""static/images/keys/z.svg"" width=""35%"" height=""75%""></img></td>
    <td width=300><img src=""static/images/keys/m.svg"" width=""35%"" height=""75%""></img></td>
  </tr>
</table>
  ",90.0,1.0,,,,,,,,,,,,,,,,,,,,,,,,,,
64,0,,html-keyboard-response,64,357003,0.0-4.8-2.8,hqwzeqes79n,2022-09-19 18:00:26.887,615eca41d537883c96fc9eec,3,57,51,55,54,53,female,,,"
  <table>
  <tr height=300>
    <td width=300 height=300><img src=""static/images/cards/7_of_black_stars.svg"" width=""175px"" height=""250px""></img></td>
    <td width=300 height=300><img src=""static/images/cards/back_of_black_stars.svg"" width=""175px"" height=""250px""></img></td>
  </tr>
  <tr height=200>
    <td width=300><img src=""static/images/keys/z.svg"" width=""35%"" height=""75%""></img></td>
    <td width=300><img src=""static/images/keys/m.svg"" width=""35%"" height=""75%""></img></td>
  </tr>
</table>
  ",,,,,,,,,,,,,,,,,,,,,,,,,,,,
65,0,,html-keyboard-response,65,358526,0.0-4.8-3.8,hqwzeqes79n,2022-09-19 18:00:26.887,615eca41d537883c96fc9eec,3,57,51,55,54,53,female,,,"<p style=""font-size:50px"">You win!
+10 points this round!</p>",,,,,,,,,,,,,,,,,,,,,,,,,,,,
66,0,,html-keyboard-response,66,359041,0.0-4.8-4.8,hqwzeqes79n,2022-09-19 18:00:26.887,615eca41d537883c96fc9eec,3,57,51,55,54,53,female,,,,,,1.0,learning,8.0,C,,black,,stars,,,,C,black,stars,,1.0,0.0,NA,left,1175.2999997139,7.0,1.0,1.0,,,
67,0,,html-keyboard-response,67,360556,0.0-4.9-0.9,hqwzeqes79n,2022-09-19 18:00:26.887,615eca41d537883c96fc9eec,3,57,51,55,54,53,female,,,"<img src=""static/images/cards/stack_of_red_stars.svg"" width=""175px"" height=""250px""></img>",,,,,,,,,,,,,,,,,,,,,,,,,,,,
68,0,,html-keyboard-response,68,361806,0.0-4.9-1.9,hqwzeqes79n,2022-09-19 18:00:26.887,615eca41d537883c96fc9eec,3,57,51,55,54,53,female,740.8000001907,,"
  <table>
  <tr height=300>
    <td width=300 height=300><img src=""static/images/cards/back_of_red_stars.svg"" width=""175px"" height=""250px""></img></td>
    <td width=300 height=300><img src=""static/images/cards/back_of_red_stars.svg"" width=""175px"" height=""250px""></img></td>
  </tr>
  <tr height=200>
    <td width=300></td>
    <td width=300><img src=""static/images/keys/m.svg"" width=""35%"" height=""75%""></img></td>
  </tr>
</table>
  ",77.0,1.0,,,,,,,,,,,,,,,,,,,,,,,,,,
69,0,,html-keyboard-response,69,363328,0.0-4.9-2.9,hqwzeqes79n,2022-09-19 18:00:26.887,615eca41d537883c96fc9eec,3,57,51,55,54,53,female,,,"
  <table>
  <tr height=300>
    <td width=300 height=300><img src=""static/images/cards/back_of_red_stars.svg"" width=""175px"" height=""250px""></img></td>
    <td width=300 height=300><img src=""static/images/cards/2_of_red_stars.svg"" width=""175px"" height=""250px""></img></td>
  </tr>
  <tr height=200>
    <td width=300></td>
    <td width=300><img src=""static/images/keys/m.svg"" width=""35%"" height=""75%""></img></td>
  </tr>
</table>
  ",,,,,,,,,,,,,,,,,,,,,,,,,,,,
70,0,,html-keyboard-response,70,364841,0.0-4.9-3.9,hqwzeqes79n,2022-09-19 18:00:26.887,615eca41d537883c96fc9eec,3,57,51,55,54,53,female,,,"<p style=""font-size:50px"">You Lose!
No points this round.</p>",,,,,,,,,,,,,,,,,,,,,,,,,,,,
71,0,,html-keyboard-response,71,365352,0.0-4.9-4.9,hqwzeqes79n,2022-09-19 18:00:26.887,615eca41d537883c96fc9eec,3,57,51,55,54,53,female,,,,,,1.0,learning,9.0,D,,red,,stars,,,,D,red,stars,,0.0,0.0,0,right,740.8000001907,2.0,0.0,0.0,,,
72,0,,html-keyboard-response,72,366868,0.0-4.10-0.10,hqwzeqes79n,2022-09-19 18:00:26.887,615eca41d537883c96fc9eec,3,57,51,55,54,53,female,,,"<img src=""static/images/cards/stack_of_red_bolts.svg"" width=""175px"" height=""250px""></img>",,,,,,,,,,,,,,,,,,,,,,,,,,,,
73,0,,html-keyboard-response,73,368057,0.0-4.10-1.10,hqwzeqes79n,2022-09-19 18:00:26.887,615eca41d537883c96fc9eec,3,57,51,55,54,53,female,676.1999998093,,"
  <table>
  <tr height=300>
    <td width=300 height=300><img src=""static/images/cards/back_of_red_bolts.svg"" width=""175px"" height=""250px""></img></td>
    <td width=300 height=300><img src=""static/images/cards/back_of_red_bolts.svg"" width=""175px"" height=""250px""></img></td>
  </tr>
  <tr height=200>
    <td width=300><img src=""static/images/keys/z.svg"" width=""35%"" height=""75%""></img></td>
    <td width=300><img src=""static/images/keys/m.svg"" width=""35%"" height=""75%""></img></td>
  </tr>
</table>
  ",77.0,1.0,,,,,,,,,,,,,,,,,,,,,,,,,,
74,0,,html-keyboard-response,74,369567,0.0-4.10-2.10,hqwzeqes79n,2022-09-19 18:00:26.887,615eca41d537883c96fc9eec,3,57,51,55,54,53,female,,,"
  <table>
  <tr height=300>
    <td width=300 height=300><img src=""static/images/cards/back_of_red_bolts.svg"" width=""175px"" height=""250px""></img></td>
    <td width=300 height=300><img src=""static/images/cards/7_of_red_bolts.svg"" width=""175px"" height=""250px""></img></td>
  </tr>
  <tr height=200>
    <td width=300><img src=""static/images/keys/z.svg"" width=""35%"" height=""75%""></img></td>
    <td width=300><img src=""static/images/keys/m.svg"" width=""35%"" height=""75%""></img></td>
  </tr>
</table>
  ",,,,,,,,,,,,,,,,,,,,,,,,,,,,
75,0,,html-keyboard-response,75,371083,0.0-4.10-3.10,hqwzeqes79n,2022-09-19 18:00:26.887,615eca41d537883c96fc9eec,3,57,51,55,54,53,female,,,"<p style=""font-size:50px"">You win!
+10 points this round!</p>",,,,,,,,,,,,,,,,,,,,,,,,,,,,
76,0,,html-keyboard-response,76,371590,0.0-4.10-4.10,hqwzeqes79n,2022-09-19 18:00:26.887,615eca41d537883c96fc9eec,3,57,51,55,54,53,female,,,,,,1.0,learning,10.0,Xc,,red,,bolts,,,,Xc,red,bolts,,1.0,0.0,NA,right,676.1999998093,7.0,1.0,1.0,,,
77,0,,html-keyboard-response,77,373102,0.0-4.11-0.11,hqwzeqes79n,2022-09-19 18:00:26.887,615eca41d537883c96fc9eec,3,57,51,55,54,53,female,,,"<img src=""static/images/cards/stack_of_black_bolts.svg"" width=""175px"" height=""250px""></img>",,,,,,,,,,,,,,,,,,,,,,,,,,,,
78,0,,html-keyboard-response,78,374142,0.0-4.11-1.11,hqwzeqes79n,2022-09-19 18:00:26.887,615eca41d537883c96fc9eec,3,57,51,55,54,53,female,528.6999998093,,"
  <table>
  <tr height=300>
    <td width=300 height=300><img src=""static/images/cards/back_of_black_bolts.svg"" width=""175px"" height=""250px""></img></td>
    <td width=300 height=300><img src=""static/images/cards/back_of_black_bolts.svg"" width=""175px"" height=""250px""></img></td>
  </tr>
  <tr height=200>
    <td width=300></td>
    <td width=300><img src=""static/images/keys/m.svg"" width=""35%"" height=""75%""></img></td>
  </tr>
</table>
  ",77.0,1.0,,,,,,,,,,,,,,,,,,,,,,,,,,
79,0,,html-keyboard-response,79,375659,0.0-4.11-2.11,hqwzeqes79n,2022-09-19 18:00:26.887,615eca41d537883c96fc9eec,3,57,51,55,54,53,female,,,"
  <table>
  <tr height=300>
    <td width=300 height=300><img src=""static/images/cards/back_of_black_bolts.svg"" width=""175px"" height=""250px""></img></td>
    <td width=300 height=300><img src=""static/images/cards/8_of_black_bolts.svg"" width=""175px"" height=""250px""></img></td>
  </tr>
  <tr height=200>
    <td width=300></td>
    <td width=300><img src=""static/images/keys/m.svg"" width=""35%"" height=""75%""></img></td>
  </tr>
</table>
  ",,,,,,,,,,,,,,,,,,,,,,,,,,,,
80,0,,html-keyboard-response,80,377178,0.0-4.11-3.11,hqwzeqes79n,2022-09-19 18:00:26.887,615eca41d537883c96fc9eec,3,57,51,55,54,53,female,,,"<p style=""font-size:50px"">You win!
+10 points this round!</p>",,,,,,,,,,,,,,,,,,,,,,,,,,,,
81,0,,html-keyboard-response,81,377690,0.0-4.11-4.11,hqwzeqes79n,2022-09-19 18:00:26.887,615eca41d537883c96fc9eec,3,57,51,55,54,53,female,,,,,,1.0,learning,11.0,Xnc,,black,,bolts,,,,Xnc,black,bolts,,0.0,0.0,0,right,528.6999998093,8.0,1.0,1.0,,,
82,0,,html-keyboard-response,82,379203,0.0-4.12-0.12,hqwzeqes79n,2022-09-19 18:00:26.887,615eca41d537883c96fc9eec,3,57,51,55,54,53,female,,,"<img src=""static/images/cards/stack_of_black_moons.svg"" width=""175px"" height=""250px""></img>",,,,,,,,,,,,,,,,,,,,,,,,,,,,
83,0,,html-keyboard-response,83,380496,0.0-4.12-1.12,hqwzeqes79n,2022-09-19 18:00:26.887,615eca41d537883c96fc9eec,3,57,51,55,54,53,female,791.0,,"
  <table>
  <tr height=300>
    <td width=300 height=300><img src=""static/images/cards/back_of_black_moons.svg"" width=""175px"" height=""250px""></img></td>
    <td width=300 height=300><img src=""static/images/cards/back_of_black_moons.svg"" width=""175px"" height=""250px""></img></td>
  </tr>
  <tr height=200>
    <td width=300><img src=""static/images/keys/z.svg"" width=""35%"" height=""75%""></img></td>
    <td width=300><img src=""static/images/keys/m.svg"" width=""35%"" height=""75%""></img></td>
  </tr>
</table>
  ",90.0,1.0,,,,,,,,,,,,,,,,,,,,,,,,,,
84,0,,html-keyboard-response,84,382004,0.0-4.12-2.12,hqwzeqes79n,2022-09-19 18:00:26.887,615eca41d537883c96fc9eec,3,57,51,55,54,53,female,,,"
  <table>
  <tr height=300>
    <td width=300 height=300><img src=""static/images/cards/3_of_black_moons.svg"" width=""175px"" height=""250px""></img></td>
    <td width=300 height=300><img src=""static/images/cards/back_of_black_moons.svg"" width=""175px"" height=""250px""></img></td>
  </tr>
  <tr height=200>
    <td width=300><img src=""static/images/keys/z.svg"" width=""35%"" height=""75%""></img></td>
    <td width=300><img src=""static/images/keys/m.svg"" width=""35%"" height=""75%""></img></td>
  </tr>
</table>
  ",,,,,,,,,,,,,,,,,,,,,,,,,,,,
85,0,,html-keyboard-response,85,383522,0.0-4.12-3.12,hqwzeqes79n,2022-09-19 18:00:26.887,615eca41d537883c96fc9eec,3,57,51,55,54,53,female,,,"<p style=""font-size:50px"">You Lose!
No points this round.</p>",,,,,,,,,,,,,,,,,,,,,,,,,,,,
86,0,,html-keyboard-response,86,384032,0.0-4.12-4.12,hqwzeqes79n,2022-09-19 18:00:26.887,615eca41d537883c96fc9eec,3,57,51,55,54,53,female,,,,,,1.0,learning,12.0,A,,black,,moons,,,,A,black,moons,,1.0,1.0,NA,left,791.0,3.0,0.0,0.0,,,
87,0,,html-keyboard-response,87,385541,0.0-4.13-0.13,hqwzeqes79n,2022-09-19 18:00:26.887,615eca41d537883c96fc9eec,3,57,51,55,54,53,female,,,"<img src=""static/images/cards/stack_of_red_moons.svg"" width=""175px"" height=""250px""></img>",,,,,,,,,,,,,,,,,,,,,,,,,,,,
88,0,,html-keyboard-response,88,386819,0.0-4.13-1.13,hqwzeqes79n,2022-09-19 18:00:26.887,615eca41d537883c96fc9eec,3,57,51,55,54,53,female,771.9000000954,,"
  <table>
  <tr height=300>
    <td width=300 height=300><img src=""static/images/cards/back_of_red_moons.svg"" width=""175px"" height=""250px""></img></td>
    <td width=300 height=300><img src=""static/images/cards/back_of_red_moons.svg"" width=""175px"" height=""250px""></img></td>
  </tr>
  <tr height=200>
    <td width=300></td>
    <td width=300><img src=""static/images/keys/m.svg"" width=""35%"" height=""75%""></img></td>
  </tr>
</table>
  ",77.0,1.0,,,,,,,,,,,,,,,,,,,,,,,,,,
89,0,,html-keyboard-response,89,388328,0.0-4.13-2.13,hqwzeqes79n,2022-09-19 18:00:26.887,615eca41d537883c96fc9eec,3,57,51,55,54,53,female,,,"
  <table>
  <tr height=300>
    <td width=300 height=300><img src=""static/images/cards/back_of_red_moons.svg"" width=""175px"" height=""250px""></img></td>
    <td width=300 height=300><img src=""static/images/cards/9_of_red_moons.svg"" width=""175px"" height=""250px""></img></td>
  </tr>
  <tr height=200>
    <td width=300></td>
    <td width=300><img src=""static/images/keys/m.svg"" width=""35%"" height=""75%""></img></td>
  </tr>
</table>
  ",,,,,,,,,,,,,,,,,,,,,,,,,,,,
90,0,,html-keyboard-response,90,389852,0.0-4.13-3.13,hqwzeqes79n,2022-09-19 18:00:26.887,615eca41d537883c96fc9eec,3,57,51,55,54,53,female,,,"<p style=""font-size:50px"">You win!
+10 points this round!</p>",,,,,,,,,,,,,,,,,,,,,,,,,,,,
91,0,,html-keyboard-response,91,390358,0.0-4.13-4.13,hqwzeqes79n,2022-09-19 18:00:26.887,615eca41d537883c96fc9eec,3,57,51,55,54,53,female,,,,,,1.0,learning,13.0,B,,red,,moons,,,,B,red,moons,,0.0,1.0,0,right,771.9000000954,9.0,1.0,1.0,,,
92,0,,html-keyboard-response,92,391872,0.0-4.14-0.14,hqwzeqes79n,2022-09-19 18:00:26.887,615eca41d537883c96fc9eec,3,57,51,55,54,53,female,,,"<img src=""static/images/cards/stack_of_black_stars.svg"" width=""175px"" height=""250px""></img>",,,,,,,,,,,,,,,,,,,,,,,,,,,,
93,0,,html-keyboard-response,93,393188,0.0-4.14-1.14,hqwzeqes79n,2022-09-19 18:00:26.887,615eca41d537883c96fc9eec,3,57,51,55,54,53,female,810.0999999046,,"
  <table>
  <tr height=300>
    <td width=300 height=300><img src=""static/images/cards/back_of_black_stars.svg"" width=""175px"" height=""250px""></img></td>
    <td width=300 height=300><img src=""static/images/cards/back_of_black_stars.svg"" width=""175px"" height=""250px""></img></td>
  </tr>
  <tr height=200>
    <td width=300><img src=""static/images/keys/z.svg"" width=""35%"" height=""75%""></img></td>
    <td width=300><img src=""static/images/keys/m.svg"" width=""35%"" height=""75%""></img></td>
  </tr>
</table>
  ",77.0,1.0,,,,,,,,,,,,,,,,,,,,,,,,,,
94,0,,html-keyboard-response,94,394693,0.0-4.14-2.14,hqwzeqes79n,2022-09-19 18:00:26.887,615eca41d537883c96fc9eec,3,57,51,55,54,53,female,,,"
  <table>
  <tr height=300>
    <td width=300 height=300><img src=""static/images/cards/back_of_black_stars.svg"" width=""175px"" height=""250px""></img></td>
    <td width=300 height=300><img src=""static/images/cards/4_of_black_stars.svg"" width=""175px"" height=""250px""></img></td>
  </tr>
  <tr height=200>
    <td width=300><img src=""static/images/keys/z.svg"" width=""35%"" height=""75%""></img></td>
    <td width=300><img src=""static/images/keys/m.svg"" width=""35%"" height=""75%""></img></td>
  </tr>
</table>
  ",,,,,,,,,,,,,,,,,,,,,,,,,,,,
95,0,,html-keyboard-response,95,396209,0.0-4.14-3.14,hqwzeqes79n,2022-09-19 18:00:26.887,615eca41d537883c96fc9eec,3,57,51,55,54,53,female,,,"<p style=""font-size:50px"">You win!
+10 points this round!</p>",,,,,,,,,,,,,,,,,,,,,,,,,,,,
96,0,,html-keyboard-response,96,396725,0.0-4.14-4.14,hqwzeqes79n,2022-09-19 18:00:26.887,615eca41d537883c96fc9eec,3,57,51,55,54,53,female,,,,,,1.0,learning,14.0,C,,black,,stars,,,,C,black,stars,,1.0,0.0,NA,right,810.0999999046,4.0,0.0,1.0,,,
97,0,,html-keyboard-response,97,398228,0.0-4.15-0.15,hqwzeqes79n,2022-09-19 18:00:26.887,615eca41d537883c96fc9eec,3,57,51,55,54,53,female,,,"<img src=""static/images/cards/stack_of_red_stars.svg"" width=""175px"" height=""250px""></img>",,,,,,,,,,,,,,,,,,,,,,,,,,,,
98,0,,html-keyboard-response,98,399506,0.0-4.15-1.15,hqwzeqes79n,2022-09-19 18:00:26.887,615eca41d537883c96fc9eec,3,57,51,55,54,53,female,762.0,,"
  <table>
  <tr height=300>
    <td width=300 height=300><img src=""static/images/cards/back_of_red_stars.svg"" width=""175px"" height=""250px""></img></td>
    <td width=300 height=300><img src=""static/images/cards/back_of_red_stars.svg"" width=""175px"" height=""250px""></img></td>
  </tr>
  <tr height=200>
    <td width=300><img src=""static/images/keys/z.svg"" width=""35%"" height=""75%""></img></td>
    <td width=300></td>
  </tr>
</table>
  ",90.0,1.0,,,,,,,,,,,,,,,,,,,,,,,,,,
99,0,,html-keyboard-response,99,401012,0.0-4.15-2.15,hqwzeqes79n,2022-09-19 18:00:26.887,615eca41d537883c96fc9eec,3,57,51,55,54,53,female,,,"
  <table>
  <tr height=300>
    <td width=300 height=300><img src=""static/images/cards/1_of_red_stars.svg"" width=""175px"" height=""250px""></img></td>
    <td width=300 height=300><img src=""static/images/cards/back_of_red_stars.svg"" width=""175px"" height=""250px""></img></td>
  </tr>
  <tr height=200>
    <td width=300><img src=""static/images/keys/z.svg"" width=""35%"" height=""75%""></img></td>
    <td width=300></td>
  </tr>
</table>
  ",,,,,,,,,,,,,,,,,,,,,,,,,,,,
100,0,,html-keyboard-response,100,402518,0.0-4.15-3.15,hqwzeqes79n,2022-09-19 18:00:26.887,615eca41d537883c96fc9eec,3,57,51,55,54,53,female,,,"<p style=""font-size:50px"">You Lose!
No points this round.</p>",,,,,,,,,,,,,,,,,,,,,,,,,,,,
101,0,,html-keyboard-response,101,403036,0.0-4.15-4.15,hqwzeqes79n,2022-09-19 18:00:26.887,615eca41d537883c96fc9eec,3,57,51,55,54,53,female,,,,,,1.0,learning,15.0,D,,red,,stars,,,,D,red,stars,,0.0,0.0,1,left,762.0,1.0,0.0,0.0,,,
102,0,,html-keyboard-response,102,404552,0.0-4.16-0.16,hqwzeqes79n,2022-09-19 18:00:26.887,615eca41d537883c96fc9eec,3,57,51,55,54,53,female,,,"<img src=""static/images/cards/stack_of_red_bolts.svg"" width=""175px"" height=""250px""></img>",,,,,,,,,,,,,,,,,,,,,,,,,,,,
103,0,,html-keyboard-response,103,405735,0.0-4.16-1.16,hqwzeqes79n,2022-09-19 18:00:26.887,615eca41d537883c96fc9eec,3,57,51,55,54,53,female,675.1999998093,,"
  <table>
  <tr height=300>
    <td width=300 height=300><img src=""static/images/cards/back_of_red_bolts.svg"" width=""175px"" height=""250px""></img></td>
    <td width=300 height=300><img src=""static/images/cards/back_of_red_bolts.svg"" width=""175px"" height=""250px""></img></td>
  </tr>
  <tr height=200>
    <td width=300><img src=""static/images/keys/z.svg"" width=""35%"" height=""75%""></img></td>
    <td width=300><img src=""static/images/keys/m.svg"" width=""35%"" height=""75%""></img></td>
  </tr>
</table>
  ",77.0,1.0,,,,,,,,,,,,,,,,,,,,,,,,,,
104,0,,html-keyboard-response,104,407245,0.0-4.16-2.16,hqwzeqes79n,2022-09-19 18:00:26.887,615eca41d537883c96fc9eec,3,57,51,55,54,53,female,,,"
  <table>
  <tr height=300>
    <td width=300 height=300><img src=""static/images/cards/back_of_red_bolts.svg"" width=""175px"" height=""250px""></img></td>
    <td width=300 height=300><img src=""static/images/cards/4_of_red_bolts.svg"" width=""175px"" height=""250px""></img></td>
  </tr>
  <tr height=200>
    <td width=300><img src=""static/images/keys/z.svg"" width=""35%"" height=""75%""></img></td>
    <td width=300><img src=""static/images/keys/m.svg"" width=""35%"" height=""75%""></img></td>
  </tr>
</table>
  ",,,,,,,,,,,,,,,,,,,,,,,,,,,,
105,0,,html-keyboard-response,105,408772,0.0-4.16-3.16,hqwzeqes79n,2022-09-19 18:00:26.887,615eca41d537883c96fc9eec,3,57,51,55,54,53,female,,,"<p style=""font-size:50px"">You win!
+10 points this round!</p>",,,,,,,,,,,,,,,,,,,,,,,,,,,,
106,0,,html-keyboard-response,106,409282,0.0-4.16-4.16,hqwzeqes79n,2022-09-19 18:00:26.887,615eca41d537883c96fc9eec,3,57,51,55,54,53,female,,,,,,1.0,learning,16.0,Xc,,red,,bolts,,,,Xc,red,bolts,,1.0,0.0,NA,right,675.1999998093,4.0,0.0,1.0,,,
107,0,,html-keyboard-response,107,410791,0.0-4.17-0.17,hqwzeqes79n,2022-09-19 18:00:26.887,615eca41d537883c96fc9eec,3,57,51,55,54,53,female,,,"<img src=""static/images/cards/stack_of_black_bolts.svg"" width=""175px"" height=""250px""></img>",,,,,,,,,,,,,,,,,,,,,,,,,,,,
108,0,,html-keyboard-response,108,411840,0.0-4.17-1.17,hqwzeqes79n,2022-09-19 18:00:26.887,615eca41d537883c96fc9eec,3,57,51,55,54,53,female,545.0,,"
  <table>
  <tr height=300>
    <td width=300 height=300><img src=""static/images/cards/back_of_black_bolts.svg"" width=""175px"" height=""250px""></img></td>
    <td width=300 height=300><img src=""static/images/cards/back_of_black_bolts.svg"" width=""175px"" height=""250px""></img></td>
  </tr>
  <tr height=200>
    <td width=300><img src=""static/images/keys/z.svg"" width=""35%"" height=""75%""></img></td>
    <td width=300></td>
  </tr>
</table>
  ",90.0,1.0,,,,,,,,,,,,,,,,,,,,,,,,,,
109,0,,html-keyboard-response,109,413356,0.0-4.17-2.17,hqwzeqes79n,2022-09-19 18:00:26.887,615eca41d537883c96fc9eec,3,57,51,55,54,53,female,,,"
  <table>
  <tr height=300>
    <td width=300 height=300><img src=""static/images/cards/7_of_black_bolts.svg"" width=""175px"" height=""250px""></img></td>
    <td width=300 height=300><img src=""static/images/cards/back_of_black_bolts.svg"" width=""175px"" height=""250px""></img></td>
  </tr>
  <tr height=200>
    <td width=300><img src=""static/images/keys/z.svg"" width=""35%"" height=""75%""></img></td>
    <td width=300></td>
  </tr>
</table>
  ",,,,,,,,,,,,,,,,,,,,,,,,,,,,
110,0,,html-keyboard-response,110,414873,0.0-4.17-3.17,hqwzeqes79n,2022-09-19 18:00:26.887,615eca41d537883c96fc9eec,3,57,51,55,54,53,female,,,"<p style=""font-size:50px"">You win!
+10 points this round!</p>",,,,,,,,,,,,,,,,,,,,,,,,,,,,
111,0,,html-keyboard-response,111,415380,0.0-4.17-4.17,hqwzeqes79n,2022-09-19 18:00:26.887,615eca41d537883c96fc9eec,3,57,51,55,54,53,female,,,,,,1.0,learning,17.0,Xnc,,black,,bolts,,,,Xnc,black,bolts,,0.0,0.0,1,left,545.0,7.0,1.0,1.0,,,
112,0,,html-keyboard-response,112,416891,0.0-4.18-0.18,hqwzeqes79n,2022-09-19 18:00:26.887,615eca41d537883c96fc9eec,3,57,51,55,54,53,female,,,"<img src=""static/images/cards/stack_of_black_moons.svg"" width=""175px"" height=""250px""></img>",,,,,,,,,,,,,,,,,,,,,,,,,,,,
113,0,,html-keyboard-response,113,418122,0.0-4.18-1.18,hqwzeqes79n,2022-09-19 18:00:26.887,615eca41d537883c96fc9eec,3,57,51,55,54,53,female,717.5,,"
  <table>
  <tr height=300>
    <td width=300 height=300><img src=""static/images/cards/back_of_black_moons.svg"" width=""175px"" height=""250px""></img></td>
    <td width=300 height=300><img src=""static/images/cards/back_of_black_moons.svg"" width=""175px"" height=""250px""></img></td>
  </tr>
  <tr height=200>
    <td width=300><img src=""static/images/keys/z.svg"" width=""35%"" height=""75%""></img></td>
    <td width=300><img src=""static/images/keys/m.svg"" width=""35%"" height=""75%""></img></td>
  </tr>
</table>
  ",77.0,1.0,,,,,,,,,,,,,,,,,,,,,,,,,,
114,0,,html-keyboard-response,114,419629,0.0-4.18-2.18,hqwzeqes79n,2022-09-19 18:00:26.887,615eca41d537883c96fc9eec,3,57,51,55,54,53,female,,,"
  <table>
  <tr height=300>
    <td width=300 height=300><img src=""static/images/cards/back_of_black_moons.svg"" width=""175px"" height=""250px""></img></td>
    <td width=300 height=300><img src=""static/images/cards/1_of_black_moons.svg"" width=""175px"" height=""250px""></img></td>
  </tr>
  <tr height=200>
    <td width=300><img src=""static/images/keys/z.svg"" width=""35%"" height=""75%""></img></td>
    <td width=300><img src=""static/images/keys/m.svg"" width=""35%"" height=""75%""></img></td>
  </tr>
</table>
  ",,,,,,,,,,,,,,,,,,,,,,,,,,,,
115,0,,html-keyboard-response,115,421146,0.0-4.18-3.18,hqwzeqes79n,2022-09-19 18:00:26.887,615eca41d537883c96fc9eec,3,57,51,55,54,53,female,,,"<p style=""font-size:50px"">You Lose!
No points this round.</p>",,,,,,,,,,,,,,,,,,,,,,,,,,,,
116,0,,html-keyboard-response,116,421661,0.0-4.18-4.18,hqwzeqes79n,2022-09-19 18:00:26.887,615eca41d537883c96fc9eec,3,57,51,55,54,53,female,,,,,,1.0,learning,18.0,A,,black,,moons,,,,A,black,moons,,1.0,1.0,NA,right,717.5,1.0,0.0,0.0,,,
117,0,,html-keyboard-response,117,423169,0.0-4.19-0.19,hqwzeqes79n,2022-09-19 18:00:26.887,615eca41d537883c96fc9eec,3,57,51,55,54,53,female,,,"<img src=""static/images/cards/stack_of_red_moons.svg"" width=""175px"" height=""250px""></img>",,,,,,,,,,,,,,,,,,,,,,,,,,,,
118,0,,html-keyboard-response,118,424131,0.0-4.19-1.19,hqwzeqes79n,2022-09-19 18:00:26.887,615eca41d537883c96fc9eec,3,57,51,55,54,53,female,447.0999999046,,"
  <table>
  <tr height=300>
    <td width=300 height=300><img src=""static/images/cards/back_of_red_moons.svg"" width=""175px"" height=""250px""></img></td>
    <td width=300 height=300><img src=""static/images/cards/back_of_red_moons.svg"" width=""175px"" height=""250px""></img></td>
  </tr>
  <tr height=200>
    <td width=300></td>
    <td width=300><img src=""static/images/keys/m.svg"" width=""35%"" height=""75%""></img></td>
  </tr>
</table>
  ",77.0,1.0,,,,,,,,,,,,,,,,,,,,,,,,,,
119,0,,html-keyboard-response,119,425646,0.0-4.19-2.19,hqwzeqes79n,2022-09-19 18:00:26.887,615eca41d537883c96fc9eec,3,57,51,55,54,53,female,,,"
  <table>
  <tr height=300>
    <td width=300 height=300><img src=""static/images/cards/back_of_red_moons.svg"" width=""175px"" height=""250px""></img></td>
    <td width=300 height=300><img src=""static/images/cards/7_of_red_moons.svg"" width=""175px"" height=""250px""></img></td>
  </tr>
  <tr height=200>
    <td width=300></td>
    <td width=300><img src=""static/images/keys/m.svg"" width=""35%"" height=""75%""></img></td>
  </tr>
</table>
  ",,,,,,,,,,,,,,,,,,,,,,,,,,,,
120,0,,html-keyboard-response,120,427170,0.0-4.19-3.19,hqwzeqes79n,2022-09-19 18:00:26.887,615eca41d537883c96fc9eec,3,57,51,55,54,53,female,,,"<p style=""font-size:50px"">You win!
+10 points this round!</p>",,,,,,,,,,,,,,,,,,,,,,,,,,,,
121,0,,html-keyboard-response,121,427690,0.0-4.19-4.19,hqwzeqes79n,2022-09-19 18:00:26.887,615eca41d537883c96fc9eec,3,57,51,55,54,53,female,,,,,,1.0,learning,19.0,B,,red,,moons,,,,B,red,moons,,0.0,1.0,0,right,447.0999999046,7.0,1.0,1.0,,,
122,0,,html-keyboard-response,122,429205,0.0-4.20-0.20,hqwzeqes79n,2022-09-19 18:00:26.887,615eca41d537883c96fc9eec,3,57,51,55,54,53,female,,,"<img src=""static/images/cards/stack_of_black_stars.svg"" width=""175px"" height=""250px""></img>",,,,,,,,,,,,,,,,,,,,,,,,,,,,
123,0,,html-keyboard-response,123,430427,0.0-4.20-1.20,hqwzeqes79n,2022-09-19 18:00:26.887,615eca41d537883c96fc9eec,3,57,51,55,54,53,female,709.7000002861,,"
  <table>
  <tr height=300>
    <td width=300 height=300><img src=""static/images/cards/back_of_black_stars.svg"" width=""175px"" height=""250px""></img></td>
    <td width=300 height=300><img src=""static/images/cards/back_of_black_stars.svg"" width=""175px"" height=""250px""></img></td>
  </tr>
  <tr height=200>
    <td width=300><img src=""static/images/keys/z.svg"" width=""35%"" height=""75%""></img></td>
    <td width=300><img src=""static/images/keys/m.svg"" width=""35%"" height=""75%""></img></td>
  </tr>
</table>
  ",90.0,1.0,,,,,,,,,,,,,,,,,,,,,,,,,,
124,0,,html-keyboard-response,124,431936,0.0-4.20-2.20,hqwzeqes79n,2022-09-19 18:00:26.887,615eca41d537883c96fc9eec,3,57,51,55,54,53,female,,,"
  <table>
  <tr height=300>
    <td width=300 height=300><img src=""static/images/cards/3_of_black_stars.svg"" width=""175px"" height=""250px""></img></td>
    <td width=300 height=300><img src=""static/images/cards/back_of_black_stars.svg"" width=""175px"" height=""250px""></img></td>
  </tr>
  <tr height=200>
    <td width=300><img src=""static/images/keys/z.svg"" width=""35%"" height=""75%""></img></td>
    <td width=300><img src=""static/images/keys/m.svg"" width=""35%"" height=""75%""></img></td>
  </tr>
</table>
  ",,,,,,,,,,,,,,,,,,,,,,,,,,,,
125,0,,html-keyboard-response,125,433442,0.0-4.20-3.20,hqwzeqes79n,2022-09-19 18:00:26.887,615eca41d537883c96fc9eec,3,57,51,55,54,53,female,,,"<p style=""font-size:50px"">You Lose!
No points this round.</p>",,,,,,,,,,,,,,,,,,,,,,,,,,,,
126,0,,html-keyboard-response,126,433949,0.0-4.20-4.20,hqwzeqes79n,2022-09-19 18:00:26.887,615eca41d537883c96fc9eec,3,57,51,55,54,53,female,,,,,,1.0,learning,20.0,C,,black,,stars,,,,C,black,stars,,1.0,0.0,NA,left,709.7000002861,3.0,0.0,0.0,,,
127,0,,html-keyboard-response,127,435462,0.0-4.21-0.21,hqwzeqes79n,2022-09-19 18:00:26.887,615eca41d537883c96fc9eec,3,57,51,55,54,53,female,,,"<img src=""static/images/cards/stack_of_red_stars.svg"" width=""175px"" height=""250px""></img>",,,,,,,,,,,,,,,,,,,,,,,,,,,,
128,0,,html-keyboard-response,128,436754,0.0-4.21-1.21,hqwzeqes79n,2022-09-19 18:00:26.887,615eca41d537883c96fc9eec,3,57,51,55,54,53,female,775.3000001907,,"
  <table>
  <tr height=300>
    <td width=300 height=300><img src=""static/images/cards/back_of_red_stars.svg"" width=""175px"" height=""250px""></img></td>
    <td width=300 height=300><img src=""static/images/cards/back_of_red_stars.svg"" width=""175px"" height=""250px""></img></td>
  </tr>
  <tr height=200>
    <td width=300><img src=""static/images/keys/z.svg"" width=""35%"" height=""75%""></img></td>
    <td width=300></td>
  </tr>
</table>
  ",90.0,1.0,,,,,,,,,,,,,,,,,,,,,,,,,,
129,0,,html-keyboard-response,129,438262,0.0-4.21-2.21,hqwzeqes79n,2022-09-19 18:00:26.887,615eca41d537883c96fc9eec,3,57,51,55,54,53,female,,,"
  <table>
  <tr height=300>
    <td width=300 height=300><img src=""static/images/cards/7_of_red_stars.svg"" width=""175px"" height=""250px""></img></td>
    <td width=300 height=300><img src=""static/images/cards/back_of_red_stars.svg"" width=""175px"" height=""250px""></img></td>
  </tr>
  <tr height=200>
    <td width=300><img src=""static/images/keys/z.svg"" width=""35%"" height=""75%""></img></td>
    <td width=300></td>
  </tr>
</table>
  ",,,,,,,,,,,,,,,,,,,,,,,,,,,,
130,0,,html-keyboard-response,130,439778,0.0-4.21-3.21,hqwzeqes79n,2022-09-19 18:00:26.887,615eca41d537883c96fc9eec,3,57,51,55,54,53,female,,,"<p style=""font-size:50px"">You Lose!
No points this round.</p>",,,,,,,,,,,,,,,,,,,,,,,,,,,,
131,0,,html-keyboard-response,131,440291,0.0-4.21-4.21,hqwzeqes79n,2022-09-19 18:00:26.887,615eca41d537883c96fc9eec,3,57,51,55,54,53,female,,,,,,1.0,learning,21.0,D,,red,,stars,,,,D,red,stars,,0.0,0.0,1,left,775.3000001907,7.0,1.0,0.0,,,
132,0,,html-keyboard-response,132,441797,0.0-4.22-0.22,hqwzeqes79n,2022-09-19 18:00:26.887,615eca41d537883c96fc9eec,3,57,51,55,54,53,female,,,"<img src=""static/images/cards/stack_of_red_bolts.svg"" width=""175px"" height=""250px""></img>",,,,,,,,,,,,,,,,,,,,,,,,,,,,
133,0,,html-keyboard-response,133,442873,0.0-4.22-1.22,hqwzeqes79n,2022-09-19 18:00:26.887,615eca41d537883c96fc9eec,3,57,51,55,54,53,female,561.8999996185,,"
  <table>
  <tr height=300>
    <td width=300 height=300><img src=""static/images/cards/back_of_red_bolts.svg"" width=""175px"" height=""250px""></img></td>
    <td width=300 height=300><img src=""static/images/cards/back_of_red_bolts.svg"" width=""175px"" height=""250px""></img></td>
  </tr>
  <tr height=200>
    <td width=300><img src=""static/images/keys/z.svg"" width=""35%"" height=""75%""></img></td>
    <td width=300><img src=""static/images/keys/m.svg"" width=""35%"" height=""75%""></img></td>
  </tr>
</table>
  ",77.0,1.0,,,,,,,,,,,,,,,,,,,,,,,,,,
134,0,,html-keyboard-response,134,444388,0.0-4.22-2.22,hqwzeqes79n,2022-09-19 18:00:26.887,615eca41d537883c96fc9eec,3,57,51,55,54,53,female,,,"
  <table>
  <tr height=300>
    <td width=300 height=300><img src=""static/images/cards/back_of_red_bolts.svg"" width=""175px"" height=""250px""></img></td>
    <td width=300 height=300><img src=""static/images/cards/9_of_red_bolts.svg"" width=""175px"" height=""250px""></img></td>
  </tr>
  <tr height=200>
    <td width=300><img src=""static/images/keys/z.svg"" width=""35%"" height=""75%""></img></td>
    <td width=300><img src=""static/images/keys/m.svg"" width=""35%"" height=""75%""></img></td>
  </tr>
</table>
  ",,,,,,,,,,,,,,,,,,,,,,,,,,,,
135,0,,html-keyboard-response,135,445900,0.0-4.22-3.22,hqwzeqes79n,2022-09-19 18:00:26.887,615eca41d537883c96fc9eec,3,57,51,55,54,53,female,,,"<p style=""font-size:50px"">You win!
+10 points this round!</p>",,,,,,,,,,,,,,,,,,,,,,,,,,,,
136,0,,html-keyboard-response,136,446416,0.0-4.22-4.22,hqwzeqes79n,2022-09-19 18:00:26.887,615eca41d537883c96fc9eec,3,57,51,55,54,53,female,,,,,,1.0,learning,22.0,Xc,,red,,bolts,,,,Xc,red,bolts,,1.0,0.0,NA,right,561.8999996185,9.0,1.0,1.0,,,
137,0,,html-keyboard-response,137,447925,0.0-4.23-0.23,hqwzeqes79n,2022-09-19 18:00:26.887,615eca41d537883c96fc9eec,3,57,51,55,54,53,female,,,"<img src=""static/images/cards/stack_of_black_bolts.svg"" width=""175px"" height=""250px""></img>",,,,,,,,,,,,,,,,,,,,,,,,,,,,
138,0,,html-keyboard-response,138,449014,0.0-4.23-1.23,hqwzeqes79n,2022-09-19 18:00:26.887,615eca41d537883c96fc9eec,3,57,51,55,54,53,female,576.0999999046,,"
  <table>
  <tr height=300>
    <td width=300 height=300><img src=""static/images/cards/back_of_black_bolts.svg"" width=""175px"" height=""250px""></img></td>
    <td width=300 height=300><img src=""static/images/cards/back_of_black_bolts.svg"" width=""175px"" height=""250px""></img></td>
  </tr>
  <tr height=200>
    <td width=300><img src=""static/images/keys/z.svg"" width=""35%"" height=""75%""></img></td>
    <td width=300></td>
  </tr>
</table>
  ",90.0,1.0,,,,,,,,,,,,,,,,,,,,,,,,,,
139,0,,html-keyboard-response,139,450531,0.0-4.23-2.23,hqwzeqes79n,2022-09-19 18:00:26.887,615eca41d537883c96fc9eec,3,57,51,55,54,53,female,,,"
  <table>
  <tr height=300>
    <td width=300 height=300><img src=""static/images/cards/3_of_black_bolts.svg"" width=""175px"" height=""250px""></img></td>
    <td width=300 height=300><img src=""static/images/cards/back_of_black_bolts.svg"" width=""175px"" height=""250px""></img></td>
  </tr>
  <tr height=200>
    <td width=300><img src=""static/images/keys/z.svg"" width=""35%"" height=""75%""></img></td>
    <td width=300></td>
  </tr>
</table>
  ",,,,,,,,,,,,,,,,,,,,,,,,,,,,
140,0,,html-keyboard-response,140,452045,0.0-4.23-3.23,hqwzeqes79n,2022-09-19 18:00:26.887,615eca41d537883c96fc9eec,3,57,51,55,54,53,female,,,"<p style=""font-size:50px"">You win!
+10 points this round!</p>",,,,,,,,,,,,,,,,,,,,,,,,,,,,
141,0,,html-keyboard-response,141,452555,0.0-4.23-4.23,hqwzeqes79n,2022-09-19 18:00:26.887,615eca41d537883c96fc9eec,3,57,51,55,54,53,female,,,,,,1.0,learning,23.0,Xnc,,black,,bolts,,,,Xnc,black,bolts,,0.0,0.0,1,left,576.0999999046,3.0,0.0,1.0,,,
142,0,,call-function,142,452567,0.0-5.0,hqwzeqes79n,2022-09-19 18:00:26.887,615eca41d537883c96fc9eec,3,57,51,55,54,53,female,,,,,,,,,,,,,,,,,,,,,,,,,,,,,,,
143,0,,image-keyboard-response,143,463509,0.0-6.0-0.0,hqwzeqes79n,2022-09-19 18:00:26.887,615eca41d537883c96fc9eec,3,57,51,55,54,53,female,10941.0999999046,,static/images/instructions_CB_3/Slide20.png,39.0,,,,,,,,,,,,,,,,,,,,,,,,,,,
144,0,,image-keyboard-response,144,489517,0.0-6.1-0.1,hqwzeqes79n,2022-09-19 18:00:26.887,615eca41d537883c96fc9eec,3,57,51,55,54,53,female,26011.0999999046,,static/images/instructions_CB_3/Slide21.png,39.0,,,,,,,,,,,,,,,,,,,,,,,,,,,
145,0,,image-keyboard-response,145,506576,0.0-6.2-0.2,hqwzeqes79n,2022-09-19 18:00:26.887,615eca41d537883c96fc9eec,3,57,51,55,54,53,female,17057.8000001907,,static/images/instructions_CB_3/Slide22.png,39.0,,,,,,,,,,,,,,,,,,,,,,,,,,,
146,0,,image-keyboard-response,146,551355,0.0-6.3-0.3,hqwzeqes79n,2022-09-19 18:00:26.887,615eca41d537883c96fc9eec,3,57,51,55,54,53,female,44782.0999999046,,static/images/instructions_CB_3/Slide23.png,39.0,,,,,,,,,,,,,,,,,,,,,,,,,,,
147,0,,image-keyboard-response,147,559283,0.0-6.4-0.4,hqwzeqes79n,2022-09-19 18:00:26.887,615eca41d537883c96fc9eec,3,57,51,55,54,53,female,7926.5,,static/images/instructions_CB_3/Slide24.png,39.0,,,,,,,,,,,,,,,,,,,,,,,,,,,
148,0,,html-keyboard-response,148,562579,0.0-7.0-0.0,hqwzeqes79n,2022-09-19 18:00:26.887,615eca41d537883c96fc9eec,3,57,51,55,54,53,female,3292.2999997139,,"
  <table>
  <tr height=300>
    <td width=300 height=300><img src=""static/images/cards/stack_of_black_moons.svg"" width=""175px"" height=""250px""></img></td>
    <td width=300 height=300><img src=""static/images/cards/stack_of_red_moons.svg"" width=""175px"" height=""250px""></img></td>
  </tr>
  <tr height=200>
    <td width=300><img src=""static/images/keys/w.svg"" width=""35%"" height=""75%""></img></td>
    <td width=300><img src=""static/images/keys/o.svg"" width=""35%"" height=""75%""></img></td>
  </tr>
</table>
  ",87.0,1.0,,,,,,,,,,,,,,,,,,,,,,,,,,
149,0,,html-keyboard-response,149,565909,0.0-7.0-1.0,hqwzeqes79n,2022-09-19 18:00:26.887,615eca41d537883c96fc9eec,3,57,51,55,54,53,female,2822.8000001907,,"
  <table>
  <tr height=300>
    <td width=300 height=300><img src=""static/images/cards/back_of_black_moons.svg"" width=""175px"" height=""250px""></img></td>
    <td width=300 height=300><img src=""static/images/cards/back_of_black_moons.svg"" width=""175px"" height=""250px""></img></td>
  </tr>
  <tr height=200>
    <td width=300><img src=""static/images/keys/z.svg"" width=""35%"" height=""75%""></img></td>
    <td width=300><img src=""static/images/keys/m.svg"" width=""35%"" height=""75%""></img></td>
  </tr>
</table>
  ",90.0,1.0,,,,,,,,,,,,,,,,,,,,,,,,,,
150,0,,html-keyboard-response,150,567416,0.0-7.0-2.0,hqwzeqes79n,2022-09-19 18:00:26.887,615eca41d537883c96fc9eec,3,57,51,55,54,53,female,,,"
  <table>
  <tr height=300>
    <td width=300 height=300><img src=""static/images/cards/2_of_black_moons.svg"" width=""175px"" height=""250px""></img></td>
    <td width=300 height=300><img src=""static/images/cards/back_of_black_moons.svg"" width=""175px"" height=""250px""></img></td>
  </tr>
  <tr height=200>
    <td width=300><img src=""static/images/keys/z.svg"" width=""35%"" height=""75%""></img></td>
    <td width=300><img src=""static/images/keys/m.svg"" width=""35%"" height=""75%""></img></td>
  </tr>
</table>
  ",,,,,,,,,,,,,,,,,,,,,,,,,,,,
151,0,,html-keyboard-response,151,568930,0.0-7.0-3.0,hqwzeqes79n,2022-09-19 18:00:26.887,615eca41d537883c96fc9eec,3,57,51,55,54,53,female,,,"<p style=""font-size:50px"">You Lose!
No points this round.</p>",,,,,,,,,,,,,,,,,,,,,,,,,,,,
152,0,,html-keyboard-response,152,569438,0.0-7.0-4.0,hqwzeqes79n,2022-09-19 18:00:26.887,615eca41d537883c96fc9eec,3,57,51,55,54,53,female,,,,,,1.0,choice,0.0,A,B,black,red,moons,moons,A,B,A,black,moons,3292.2999997139,1.0,1.0,NA,left,2822.8000001907,2.0,0.0,0.0,,,
153,0,,html-keyboard-response,153,571564,0.0-7.1-0.1,hqwzeqes79n,2022-09-19 18:00:26.887,615eca41d537883c96fc9eec,3,57,51,55,54,53,female,2123.2999997139,,"
  <table>
  <tr height=300>
    <td width=300 height=300><img src=""static/images/cards/stack_of_black_moons.svg"" width=""175px"" height=""250px""></img></td>
    <td width=300 height=300><img src=""static/images/cards/stack_of_red_moons.svg"" width=""175px"" height=""250px""></img></td>
  </tr>
  <tr height=200>
    <td width=300><img src=""static/images/keys/w.svg"" width=""35%"" height=""75%""></img></td>
    <td width=300><img src=""static/images/keys/o.svg"" width=""35%"" height=""75%""></img></td>
  </tr>
</table>
  ",87.0,1.0,,,,,,,,,,,,,,,,,,,,,,,,,,
154,0,,html-keyboard-response,154,573638,0.0-7.1-1.1,hqwzeqes79n,2022-09-19 18:00:26.887,615eca41d537883c96fc9eec,3,57,51,55,54,53,female,1555.2000002861,,"
  <table>
  <tr height=300>
    <td width=300 height=300><img src=""static/images/cards/back_of_black_moons.svg"" width=""175px"" height=""250px""></img></td>
    <td width=300 height=300><img src=""static/images/cards/back_of_black_moons.svg"" width=""175px"" height=""250px""></img></td>
  </tr>
  <tr height=200>
    <td width=300><img src=""static/images/keys/z.svg"" width=""35%"" height=""75%""></img></td>
    <td width=300><img src=""static/images/keys/m.svg"" width=""35%"" height=""75%""></img></td>
  </tr>
</table>
  ",77.0,1.0,,,,,,,,,,,,,,,,,,,,,,,,,,
155,0,,html-keyboard-response,155,575158,0.0-7.1-2.1,hqwzeqes79n,2022-09-19 18:00:26.887,615eca41d537883c96fc9eec,3,57,51,55,54,53,female,,,"
  <table>
  <tr height=300>
    <td width=300 height=300><img src=""static/images/cards/back_of_black_moons.svg"" width=""175px"" height=""250px""></img></td>
    <td width=300 height=300><img src=""static/images/cards/4_of_black_moons.svg"" width=""175px"" height=""250px""></img></td>
  </tr>
  <tr height=200>
    <td width=300><img src=""static/images/keys/z.svg"" width=""35%"" height=""75%""></img></td>
    <td width=300><img src=""static/images/keys/m.svg"" width=""35%"" height=""75%""></img></td>
  </tr>
</table>
  ",,,,,,,,,,,,,,,,,,,,,,,,,,,,
156,0,,html-keyboard-response,156,576676,0.0-7.1-3.1,hqwzeqes79n,2022-09-19 18:00:26.887,615eca41d537883c96fc9eec,3,57,51,55,54,53,female,,,"<p style=""font-size:50px"">You Lose!
No points this round.</p>",,,,,,,,,,,,,,,,,,,,,,,,,,,,
157,0,,html-keyboard-response,157,577185,0.0-7.1-4.1,hqwzeqes79n,2022-09-19 18:00:26.887,615eca41d537883c96fc9eec,3,57,51,55,54,53,female,,,,,,1.0,choice,1.0,A,B,black,red,moons,moons,A,B,A,black,moons,2123.2999997139,1.0,1.0,NA,right,1555.2000002861,4.0,0.0,0.0,,,
158,0,,html-keyboard-response,158,579333,0.0-7.2-0.2,hqwzeqes79n,2022-09-19 18:00:26.887,615eca41d537883c96fc9eec,3,57,51,55,54,53,female,2146.4000000954,,"
  <table>
  <tr height=300>
    <td width=300 height=300><img src=""static/images/cards/stack_of_red_stars.svg"" width=""175px"" height=""250px""></img></td>
    <td width=300 height=300><img src=""static/images/cards/stack_of_red_bolts.svg"" width=""175px"" height=""250px""></img></td>
  </tr>
  <tr height=200>
    <td width=300><img src=""static/images/keys/w.svg"" width=""35%"" height=""75%""></img></td>
    <td width=300><img src=""static/images/keys/o.svg"" width=""35%"" height=""75%""></img></td>
  </tr>
</table>
  ",79.0,1.0,,,,,,,,,,,,,,,,,,,,,,,,,,
159,0,,html-keyboard-response,159,581394,0.0-7.2-1.2,hqwzeqes79n,2022-09-19 18:00:26.887,615eca41d537883c96fc9eec,3,57,51,55,54,53,female,1556.8000001907,,"
  <table>
  <tr height=300>
    <td width=300 height=300><img src=""static/images/cards/back_of_red_bolts.svg"" width=""175px"" height=""250px""></img></td>
    <td width=300 height=300><img src=""static/images/cards/back_of_red_bolts.svg"" width=""175px"" height=""250px""></img></td>
  </tr>
  <tr height=200>
    <td width=300><img src=""static/images/keys/z.svg"" width=""35%"" height=""75%""></img></td>
    <td width=300><img src=""static/images/keys/m.svg"" width=""35%"" height=""75%""></img></td>
  </tr>
</table>
  ",77.0,1.0,,,,,,,,,,,,,,,,,,,,,,,,,,
160,0,,html-keyboard-response,160,582901,0.0-7.2-2.2,hqwzeqes79n,2022-09-19 18:00:26.887,615eca41d537883c96fc9eec,3,57,51,55,54,53,female,,,"
  <table>
  <tr height=300>
    <td width=300 height=300><img src=""static/images/cards/back_of_red_bolts.svg"" width=""175px"" height=""250px""></img></td>
    <td width=300 height=300><img src=""static/images/cards/10_of_red_bolts.svg"" width=""175px"" height=""250px""></img></td>
  </tr>
  <tr height=200>
    <td width=300><img src=""static/images/keys/z.svg"" width=""35%"" height=""75%""></img></td>
    <td width=300><img src=""static/images/keys/m.svg"" width=""35%"" height=""75%""></img></td>
  </tr>
</table>
  ",,,,,,,,,,,,,,,,,,,,,,,,,,,,
161,0,,html-keyboard-response,161,584404,0.0-7.2-3.2,hqwzeqes79n,2022-09-19 18:00:26.887,615eca41d537883c96fc9eec,3,57,51,55,54,53,female,,,"<p style=""font-size:50px"">You win!
+10 points this round!</p>",,,,,,,,,,,,,,,,,,,,,,,,,,,,
162,0,,html-keyboard-response,162,584914,0.0-7.2-4.2,hqwzeqes79n,2022-09-19 18:00:26.887,615eca41d537883c96fc9eec,3,57,51,55,54,53,female,,,,,,1.0,choice,2.0,D,Xc,red,red,stars,bolts,D,Xc,Xc,red,bolts,2146.4000000954,1.0,0.0,NA,right,1556.8000001907,10.0,1.0,1.0,,,
163,0,,html-keyboard-response,163,587010,0.0-7.3-0.3,hqwzeqes79n,2022-09-19 18:00:26.887,615eca41d537883c96fc9eec,3,57,51,55,54,53,female,2094.2999997139,,"
  <table>
  <tr height=300>
    <td width=300 height=300><img src=""static/images/cards/stack_of_red_moons.svg"" width=""175px"" height=""250px""></img></td>
    <td width=300 height=300><img src=""static/images/cards/stack_of_black_stars.svg"" width=""175px"" height=""250px""></img></td>
  </tr>
  <tr height=200>
    <td width=300><img src=""static/images/keys/w.svg"" width=""35%"" height=""75%""></img></td>
    <td width=300><img src=""static/images/keys/o.svg"" width=""35%"" height=""75%""></img></td>
  </tr>
</table>
  ",87.0,1.0,,,,,,,,,,,,,,,,,,,,,,,,,,
164,0,,html-keyboard-response,164,589009,0.0-7.3-1.3,hqwzeqes79n,2022-09-19 18:00:26.887,615eca41d537883c96fc9eec,3,57,51,55,54,53,female,1496.4000000954,,"
  <table>
  <tr height=300>
    <td width=300 height=300><img src=""static/images/cards/back_of_red_moons.svg"" width=""175px"" height=""250px""></img></td>
    <td width=300 height=300><img src=""static/images/cards/back_of_red_moons.svg"" width=""175px"" height=""250px""></img></td>
  </tr>
  <tr height=200>
    <td width=300></td>
    <td width=300><img src=""static/images/keys/m.svg"" width=""35%"" height=""75%""></img></td>
  </tr>
</table>
  ",77.0,1.0,,,,,,,,,,,,,,,,,,,,,,,,,,
165,0,,html-keyboard-response,165,590521,0.0-7.3-2.3,hqwzeqes79n,2022-09-19 18:00:26.887,615eca41d537883c96fc9eec,3,57,51,55,54,53,female,,,"
  <table>
  <tr height=300>
    <td width=300 height=300><img src=""static/images/cards/back_of_red_moons.svg"" width=""175px"" height=""250px""></img></td>
    <td width=300 height=300><img src=""static/images/cards/4_of_red_moons.svg"" width=""175px"" height=""250px""></img></td>
  </tr>
  <tr height=200>
    <td width=300></td>
    <td width=300><img src=""static/images/keys/m.svg"" width=""35%"" height=""75%""></img></td>
  </tr>
</table>
  ",,,,,,,,,,,,,,,,,,,,,,,,,,,,
166,0,,html-keyboard-response,166,592037,0.0-7.3-3.3,hqwzeqes79n,2022-09-19 18:00:26.887,615eca41d537883c96fc9eec,3,57,51,55,54,53,female,,,"<p style=""font-size:50px"">You Lose!
No points this round.</p>",,,,,,,,,,,,,,,,,,,,,,,,,,,,
167,0,,html-keyboard-response,167,592552,0.0-7.3-4.3,hqwzeqes79n,2022-09-19 18:00:26.887,615eca41d537883c96fc9eec,3,57,51,55,54,53,female,,,,,,1.0,choice,3.0,B,C,red,black,moons,stars,B,C,B,red,moons,2094.2999997139,0.0,1.0,0,right,1496.4000000954,4.0,0.0,0.0,,,
168,0,,html-keyboard-response,168,594482,0.0-7.4-0.4,hqwzeqes79n,2022-09-19 18:00:26.887,615eca41d537883c96fc9eec,3,57,51,55,54,53,female,1928.0,,"
  <table>
  <tr height=300>
    <td width=300 height=300><img src=""static/images/cards/stack_of_red_stars.svg"" width=""175px"" height=""250px""></img></td>
    <td width=300 height=300><img src=""static/images/cards/stack_of_black_stars.svg"" width=""175px"" height=""250px""></img></td>
  </tr>
  <tr height=200>
    <td width=300><img src=""static/images/keys/w.svg"" width=""35%"" height=""75%""></img></td>
    <td width=300><img src=""static/images/keys/o.svg"" width=""35%"" height=""75%""></img></td>
  </tr>
</table>
  ",79.0,1.0,,,,,,,,,,,,,,,,,,,,,,,,,,
169,0,,html-keyboard-response,169,596826,0.0-7.4-1.4,hqwzeqes79n,2022-09-19 18:00:26.887,615eca41d537883c96fc9eec,3,57,51,55,54,53,female,1828.5999999046,,"
  <table>
  <tr height=300>
    <td width=300 height=300><img src=""static/images/cards/back_of_black_stars.svg"" width=""175px"" height=""250px""></img></td>
    <td width=300 height=300><img src=""static/images/cards/back_of_black_stars.svg"" width=""175px"" height=""250px""></img></td>
  </tr>
  <tr height=200>
    <td width=300><img src=""static/images/keys/z.svg"" width=""35%"" height=""75%""></img></td>
    <td width=300><img src=""static/images/keys/m.svg"" width=""35%"" height=""75%""></img></td>
  </tr>
</table>
  ",90.0,1.0,,,,,,,,,,,,,,,,,,,,,,,,,,
170,0,,html-keyboard-response,170,598342,0.0-7.4-2.4,hqwzeqes79n,2022-09-19 18:00:26.887,615eca41d537883c96fc9eec,3,57,51,55,54,53,female,,,"
  <table>
  <tr height=300>
    <td width=300 height=300><img src=""static/images/cards/2_of_black_stars.svg"" width=""175px"" height=""250px""></img></td>
    <td width=300 height=300><img src=""static/images/cards/back_of_black_stars.svg"" width=""175px"" height=""250px""></img></td>
  </tr>
  <tr height=200>
    <td width=300><img src=""static/images/keys/z.svg"" width=""35%"" height=""75%""></img></td>
    <td width=300><img src=""static/images/keys/m.svg"" width=""35%"" height=""75%""></img></td>
  </tr>
</table>
  ",,,,,,,,,,,,,,,,,,,,,,,,,,,,
171,0,,html-keyboard-response,171,599866,0.0-7.4-3.4,hqwzeqes79n,2022-09-19 18:00:26.887,615eca41d537883c96fc9eec,3,57,51,55,54,53,female,,,"<p style=""font-size:50px"">You Lose!
No points this round.</p>",,,,,,,,,,,,,,,,,,,,,,,,,,,,
172,0,,html-keyboard-response,172,600378,0.0-7.4-4.4,hqwzeqes79n,2022-09-19 18:00:26.887,615eca41d537883c96fc9eec,3,57,51,55,54,53,female,,,,,,1.0,choice,4.0,C,D,red,black,stars,stars,D,C,C,black,stars,1928.0,1.0,0.0,NA,left,1828.5999999046,2.0,0.0,0.0,,,
173,0,,html-keyboard-response,173,602450,0.0-7.5-0.5,hqwzeqes79n,2022-09-19 18:00:26.887,615eca41d537883c96fc9eec,3,57,51,55,54,53,female,2069.6999998093,,"
  <table>
  <tr height=300>
    <td width=300 height=300><img src=""static/images/cards/stack_of_red_moons.svg"" width=""175px"" height=""250px""></img></td>
    <td width=300 height=300><img src=""static/images/cards/stack_of_black_stars.svg"" width=""175px"" height=""250px""></img></td>
  </tr>
  <tr height=200>
    <td width=300><img src=""static/images/keys/w.svg"" width=""35%"" height=""75%""></img></td>
    <td width=300><img src=""static/images/keys/o.svg"" width=""35%"" height=""75%""></img></td>
  </tr>
</table>
  ",87.0,1.0,,,,,,,,,,,,,,,,,,,,,,,,,,
174,0,,html-keyboard-response,174,604092,0.0-7.5-1.5,hqwzeqes79n,2022-09-19 18:00:26.887,615eca41d537883c96fc9eec,3,57,51,55,54,53,female,1132.5,,"
  <table>
  <tr height=300>
    <td width=300 height=300><img src=""static/images/cards/back_of_red_moons.svg"" width=""175px"" height=""250px""></img></td>
    <td width=300 height=300><img src=""static/images/cards/back_of_red_moons.svg"" width=""175px"" height=""250px""></img></td>
  </tr>
  <tr height=200>
    <td width=300><img src=""static/images/keys/z.svg"" width=""35%"" height=""75%""></img></td>
    <td width=300></td>
  </tr>
</table>
  ",90.0,1.0,,,,,,,,,,,,,,,,,,,,,,,,,,
175,0,,html-keyboard-response,175,605601,0.0-7.5-2.5,hqwzeqes79n,2022-09-19 18:00:26.887,615eca41d537883c96fc9eec,3,57,51,55,54,53,female,,,"
  <table>
  <tr height=300>
    <td width=300 height=300><img src=""static/images/cards/8_of_red_moons.svg"" width=""175px"" height=""250px""></img></td>
    <td width=300 height=300><img src=""static/images/cards/back_of_red_moons.svg"" width=""175px"" height=""250px""></img></td>
  </tr>
  <tr height=200>
    <td width=300><img src=""static/images/keys/z.svg"" width=""35%"" height=""75%""></img></td>
    <td width=300></td>
  </tr>
</table>
  ",,,,,,,,,,,,,,,,,,,,,,,,,,,,
176,0,,html-keyboard-response,176,607109,0.0-7.5-3.5,hqwzeqes79n,2022-09-19 18:00:26.887,615eca41d537883c96fc9eec,3,57,51,55,54,53,female,,,"<p style=""font-size:50px"">You win!
+10 points this round!</p>",,,,,,,,,,,,,,,,,,,,,,,,,,,,
177,0,,html-keyboard-response,177,607624,0.0-7.5-4.5,hqwzeqes79n,2022-09-19 18:00:26.887,615eca41d537883c96fc9eec,3,57,51,55,54,53,female,,,,,,1.0,choice,5.0,B,C,red,black,moons,stars,B,C,B,red,moons,2069.6999998093,0.0,1.0,1,left,1132.5,8.0,1.0,1.0,,,
178,0,,html-keyboard-response,178,609885,0.0-7.6-0.6,hqwzeqes79n,2022-09-19 18:00:26.887,615eca41d537883c96fc9eec,3,57,51,55,54,53,female,2258.7999997139,,"
  <table>
  <tr height=300>
    <td width=300 height=300><img src=""static/images/cards/stack_of_red_stars.svg"" width=""175px"" height=""250px""></img></td>
    <td width=300 height=300><img src=""static/images/cards/stack_of_black_stars.svg"" width=""175px"" height=""250px""></img></td>
  </tr>
  <tr height=200>
    <td width=300><img src=""static/images/keys/w.svg"" width=""35%"" height=""75%""></img></td>
    <td width=300><img src=""static/images/keys/o.svg"" width=""35%"" height=""75%""></img></td>
  </tr>
</table>
  ",79.0,1.0,,,,,,,,,,,,,,,,,,,,,,,,,,
179,0,,html-keyboard-response,179,612345,0.0-7.6-1.6,hqwzeqes79n,2022-09-19 18:00:26.887,615eca41d537883c96fc9eec,3,57,51,55,54,53,female,1944.6999998093,,"
  <table>
  <tr height=300>
    <td width=300 height=300><img src=""static/images/cards/back_of_black_stars.svg"" width=""175px"" height=""250px""></img></td>
    <td width=300 height=300><img src=""static/images/cards/back_of_black_stars.svg"" width=""175px"" height=""250px""></img></td>
  </tr>
  <tr height=200>
    <td width=300><img src=""static/images/keys/z.svg"" width=""35%"" height=""75%""></img></td>
    <td width=300><img src=""static/images/keys/m.svg"" width=""35%"" height=""75%""></img></td>
  </tr>
</table>
  ",90.0,1.0,,,,,,,,,,,,,,,,,,,,,,,,,,
180,0,,html-keyboard-response,180,613860,0.0-7.6-2.6,hqwzeqes79n,2022-09-19 18:00:26.887,615eca41d537883c96fc9eec,3,57,51,55,54,53,female,,,"
  <table>
  <tr height=300>
    <td width=300 height=300><img src=""static/images/cards/10_of_black_stars.svg"" width=""175px"" height=""250px""></img></td>
    <td width=300 height=300><img src=""static/images/cards/back_of_black_stars.svg"" width=""175px"" height=""250px""></img></td>
  </tr>
  <tr height=200>
    <td width=300><img src=""static/images/keys/z.svg"" width=""35%"" height=""75%""></img></td>
    <td width=300><img src=""static/images/keys/m.svg"" width=""35%"" height=""75%""></img></td>
  </tr>
</table>
  ",,,,,,,,,,,,,,,,,,,,,,,,,,,,
181,0,,html-keyboard-response,181,615373,0.0-7.6-3.6,hqwzeqes79n,2022-09-19 18:00:26.887,615eca41d537883c96fc9eec,3,57,51,55,54,53,female,,,"<p style=""font-size:50px"">You win!
+10 points this round!</p>",,,,,,,,,,,,,,,,,,,,,,,,,,,,
182,0,,html-keyboard-response,182,615884,0.0-7.6-4.6,hqwzeqes79n,2022-09-19 18:00:26.887,615eca41d537883c96fc9eec,3,57,51,55,54,53,female,,,,,,1.0,choice,6.0,C,D,red,black,stars,stars,D,C,C,black,stars,2258.7999997139,1.0,0.0,NA,left,1944.6999998093,10.0,1.0,1.0,,,
183,0,,html-keyboard-response,183,617668,0.0-7.7-0.7,hqwzeqes79n,2022-09-19 18:00:26.887,615eca41d537883c96fc9eec,3,57,51,55,54,53,female,1782.0999999046,,"
  <table>
  <tr height=300>
    <td width=300 height=300><img src=""static/images/cards/stack_of_red_moons.svg"" width=""175px"" height=""250px""></img></td>
    <td width=300 height=300><img src=""static/images/cards/stack_of_black_stars.svg"" width=""175px"" height=""250px""></img></td>
  </tr>
  <tr height=200>
    <td width=300><img src=""static/images/keys/w.svg"" width=""35%"" height=""75%""></img></td>
    <td width=300><img src=""static/images/keys/o.svg"" width=""35%"" height=""75%""></img></td>
  </tr>
</table>
  ",87.0,1.0,,,,,,,,,,,,,,,,,,,,,,,,,,
184,0,,html-keyboard-response,184,619493,0.0-7.7-1.7,hqwzeqes79n,2022-09-19 18:00:26.887,615eca41d537883c96fc9eec,3,57,51,55,54,53,female,1311.2999997139,,"
  <table>
  <tr height=300>
    <td width=300 height=300><img src=""static/images/cards/back_of_red_moons.svg"" width=""175px"" height=""250px""></img></td>
    <td width=300 height=300><img src=""static/images/cards/back_of_red_moons.svg"" width=""175px"" height=""250px""></img></td>
  </tr>
  <tr height=200>
    <td width=300></td>
    <td width=300><img src=""static/images/keys/m.svg"" width=""35%"" height=""75%""></img></td>
  </tr>
</table>
  ",77.0,1.0,,,,,,,,,,,,,,,,,,,,,,,,,,
185,0,,html-keyboard-response,185,621010,0.0-7.7-2.7,hqwzeqes79n,2022-09-19 18:00:26.887,615eca41d537883c96fc9eec,3,57,51,55,54,53,female,,,"
  <table>
  <tr height=300>
    <td width=300 height=300><img src=""static/images/cards/back_of_red_moons.svg"" width=""175px"" height=""250px""></img></td>
    <td width=300 height=300><img src=""static/images/cards/6_of_red_moons.svg"" width=""175px"" height=""250px""></img></td>
  </tr>
  <tr height=200>
    <td width=300></td>
    <td width=300><img src=""static/images/keys/m.svg"" width=""35%"" height=""75%""></img></td>
  </tr>
</table>
  ",,,,,,,,,,,,,,,,,,,,,,,,,,,,
186,0,,html-keyboard-response,186,622522,0.0-7.7-3.7,hqwzeqes79n,2022-09-19 18:00:26.887,615eca41d537883c96fc9eec,3,57,51,55,54,53,female,,,"<p style=""font-size:50px"">You win!
+10 points this round!</p>",,,,,,,,,,,,,,,,,,,,,,,,,,,,
187,0,,html-keyboard-response,187,623032,0.0-7.7-4.7,hqwzeqes79n,2022-09-19 18:00:26.887,615eca41d537883c96fc9eec,3,57,51,55,54,53,female,,,,,,1.0,choice,7.0,B,C,red,black,moons,stars,B,C,B,red,moons,1782.0999999046,0.0,1.0,0,right,1311.2999997139,6.0,1.0,1.0,,,
188,0,,html-keyboard-response,188,625204,0.0-7.8-0.8,hqwzeqes79n,2022-09-19 18:00:26.887,615eca41d537883c96fc9eec,3,57,51,55,54,53,female,2168.9000000954,,"
  <table>
  <tr height=300>
    <td width=300 height=300><img src=""static/images/cards/stack_of_red_stars.svg"" width=""175px"" height=""250px""></img></td>
    <td width=300 height=300><img src=""static/images/cards/stack_of_black_moons.svg"" width=""175px"" height=""250px""></img></td>
  </tr>
  <tr height=200>
    <td width=300><img src=""static/images/keys/w.svg"" width=""35%"" height=""75%""></img></td>
    <td width=300><img src=""static/images/keys/o.svg"" width=""35%"" height=""75%""></img></td>
  </tr>
</table>
  ",79.0,1.0,,,,,,,,,,,,,,,,,,,,,,,,,,
189,0,,html-keyboard-response,189,627078,0.0-7.8-1.8,hqwzeqes79n,2022-09-19 18:00:26.887,615eca41d537883c96fc9eec,3,57,51,55,54,53,female,1362.3000001907,,"
  <table>
  <tr height=300>
    <td width=300 height=300><img src=""static/images/cards/back_of_black_moons.svg"" width=""175px"" height=""250px""></img></td>
    <td width=300 height=300><img src=""static/images/cards/back_of_black_moons.svg"" width=""175px"" height=""250px""></img></td>
  </tr>
  <tr height=200>
    <td width=300><img src=""static/images/keys/z.svg"" width=""35%"" height=""75%""></img></td>
    <td width=300><img src=""static/images/keys/m.svg"" width=""35%"" height=""75%""></img></td>
  </tr>
</table>
  ",90.0,1.0,,,,,,,,,,,,,,,,,,,,,,,,,,
190,0,,html-keyboard-response,190,628591,0.0-7.8-2.8,hqwzeqes79n,2022-09-19 18:00:26.887,615eca41d537883c96fc9eec,3,57,51,55,54,53,female,,,"
  <table>
  <tr height=300>
    <td width=300 height=300><img src=""static/images/cards/9_of_black_moons.svg"" width=""175px"" height=""250px""></img></td>
    <td width=300 height=300><img src=""static/images/cards/back_of_black_moons.svg"" width=""175px"" height=""250px""></img></td>
  </tr>
  <tr height=200>
    <td width=300><img src=""static/images/keys/z.svg"" width=""35%"" height=""75%""></img></td>
    <td width=300><img src=""static/images/keys/m.svg"" width=""35%"" height=""75%""></img></td>
  </tr>
</table>
  ",,,,,,,,,,,,,,,,,,,,,,,,,,,,
191,0,,html-keyboard-response,191,630114,0.0-7.8-3.8,hqwzeqes79n,2022-09-19 18:00:26.887,615eca41d537883c96fc9eec,3,57,51,55,54,53,female,,,"<p style=""font-size:50px"">You win!
+10 points this round!</p>",,,,,,,,,,,,,,,,,,,,,,,,,,,,
192,0,,html-keyboard-response,192,630631,0.0-7.8-4.8,hqwzeqes79n,2022-09-19 18:00:26.887,615eca41d537883c96fc9eec,3,57,51,55,54,53,female,,,,,,1.0,choice,8.0,A,D,red,black,stars,moons,D,A,A,black,moons,2168.9000000954,1.0,1.0,NA,left,1362.3000001907,9.0,1.0,1.0,,,
193,0,,html-keyboard-response,193,632468,0.0-7.9-0.9,hqwzeqes79n,2022-09-19 18:00:26.887,615eca41d537883c96fc9eec,3,57,51,55,54,53,female,1834.8000001907,,"
  <table>
  <tr height=300>
    <td width=300 height=300><img src=""static/images/cards/stack_of_black_stars.svg"" width=""175px"" height=""250px""></img></td>
    <td width=300 height=300><img src=""static/images/cards/stack_of_red_bolts.svg"" width=""175px"" height=""250px""></img></td>
  </tr>
  <tr height=200>
    <td width=300><img src=""static/images/keys/w.svg"" width=""35%"" height=""75%""></img></td>
    <td width=300><img src=""static/images/keys/o.svg"" width=""35%"" height=""75%""></img></td>
  </tr>
</table>
  ",79.0,1.0,,,,,,,,,,,,,,,,,,,,,,,,,,
194,0,,html-keyboard-response,194,634170,0.0-7.9-1.9,hqwzeqes79n,2022-09-19 18:00:26.887,615eca41d537883c96fc9eec,3,57,51,55,54,53,female,1186.6000003815,,"
  <table>
  <tr height=300>
    <td width=300 height=300><img src=""static/images/cards/back_of_red_bolts.svg"" width=""175px"" height=""250px""></img></td>
    <td width=300 height=300><img src=""static/images/cards/back_of_red_bolts.svg"" width=""175px"" height=""250px""></img></td>
  </tr>
  <tr height=200>
    <td width=300><img src=""static/images/keys/z.svg"" width=""35%"" height=""75%""></img></td>
    <td width=300><img src=""static/images/keys/m.svg"" width=""35%"" height=""75%""></img></td>
  </tr>
</table>
  ",90.0,1.0,,,,,,,,,,,,,,,,,,,,,,,,,,
195,0,,html-keyboard-response,195,635678,0.0-7.9-2.9,hqwzeqes79n,2022-09-19 18:00:26.887,615eca41d537883c96fc9eec,3,57,51,55,54,53,female,,,"
  <table>
  <tr height=300>
    <td width=300 height=300><img src=""static/images/cards/4_of_red_bolts.svg"" width=""175px"" height=""250px""></img></td>
    <td width=300 height=300><img src=""static/images/cards/back_of_red_bolts.svg"" width=""175px"" height=""250px""></img></td>
  </tr>
  <tr height=200>
    <td width=300><img src=""static/images/keys/z.svg"" width=""35%"" height=""75%""></img></td>
    <td width=300><img src=""static/images/keys/m.svg"" width=""35%"" height=""75%""></img></td>
  </tr>
</table>
  ",,,,,,,,,,,,,,,,,,,,,,,,,,,,
196,0,,html-keyboard-response,196,637186,0.0-7.9-3.9,hqwzeqes79n,2022-09-19 18:00:26.887,615eca41d537883c96fc9eec,3,57,51,55,54,53,female,,,"<p style=""font-size:50px"">You win!
+10 points this round!</p>",,,,,,,,,,,,,,,,,,,,,,,,,,,,
197,0,,html-keyboard-response,197,637702,0.0-7.9-4.9,hqwzeqes79n,2022-09-19 18:00:26.887,615eca41d537883c96fc9eec,3,57,51,55,54,53,female,,,,,,1.0,choice,9.0,C,Xc,black,red,stars,bolts,C,Xc,Xc,red,bolts,1834.8000001907,1.0,0.0,NA,left,1186.6000003815,4.0,0.0,1.0,,,
198,0,,html-keyboard-response,198,639274,0.0-7.10-0.10,hqwzeqes79n,2022-09-19 18:00:26.887,615eca41d537883c96fc9eec,3,57,51,55,54,53,female,1569.0,,"
  <table>
  <tr height=300>
    <td width=300 height=300><img src=""static/images/cards/stack_of_black_moons.svg"" width=""175px"" height=""250px""></img></td>
    <td width=300 height=300><img src=""static/images/cards/stack_of_black_stars.svg"" width=""175px"" height=""250px""></img></td>
  </tr>
  <tr height=200>
    <td width=300><img src=""static/images/keys/w.svg"" width=""35%"" height=""75%""></img></td>
    <td width=300><img src=""static/images/keys/o.svg"" width=""35%"" height=""75%""></img></td>
  </tr>
</table>
  ",87.0,1.0,,,,,,,,,,,,,,,,,,,,,,,,,,
199,0,,html-keyboard-response,199,641139,0.0-7.10-1.10,hqwzeqes79n,2022-09-19 18:00:26.887,615eca41d537883c96fc9eec,3,57,51,55,54,53,female,1358.6999998093,,"
  <table>
  <tr height=300>
    <td width=300 height=300><img src=""static/images/cards/back_of_black_moons.svg"" width=""175px"" height=""250px""></img></td>
    <td width=300 height=300><img src=""static/images/cards/back_of_black_moons.svg"" width=""175px"" height=""250px""></img></td>
  </tr>
  <tr height=200>
    <td width=300><img src=""static/images/keys/z.svg"" width=""35%"" height=""75%""></img></td>
    <td width=300><img src=""static/images/keys/m.svg"" width=""35%"" height=""75%""></img></td>
  </tr>
</table>
  ",90.0,1.0,,,,,,,,,,,,,,,,,,,,,,,,,,
200,0,,html-keyboard-response,200,642655,0.0-7.10-2.10,hqwzeqes79n,2022-09-19 18:00:26.887,615eca41d537883c96fc9eec,3,57,51,55,54,53,female,,,"
  <table>
  <tr height=300>
    <td width=300 height=300><img src=""static/images/cards/6_of_black_moons.svg"" width=""175px"" height=""250px""></img></td>
    <td width=300 height=300><img src=""static/images/cards/back_of_black_moons.svg"" width=""175px"" height=""250px""></img></td>
  </tr>
  <tr height=200>
    <td width=300><img src=""static/images/keys/z.svg"" width=""35%"" height=""75%""></img></td>
    <td width=300><img src=""static/images/keys/m.svg"" width=""35%"" height=""75%""></img></td>
  </tr>
</table>
  ",,,,,,,,,,,,,,,,,,,,,,,,,,,,
201,0,,html-keyboard-response,201,644173,0.0-7.10-3.10,hqwzeqes79n,2022-09-19 18:00:26.887,615eca41d537883c96fc9eec,3,57,51,55,54,53,female,,,"<p style=""font-size:50px"">You win!
+10 points this round!</p>",,,,,,,,,,,,,,,,,,,,,,,,,,,,
202,0,,html-keyboard-response,202,644684,0.0-7.10-4.10,hqwzeqes79n,2022-09-19 18:00:26.887,615eca41d537883c96fc9eec,3,57,51,55,54,53,female,,,,,,1.0,choice,10.0,A,C,black,black,moons,stars,A,C,A,black,moons,1569.0,1.0,1.0,NA,left,1358.6999998093,6.0,1.0,1.0,,,
203,0,,html-keyboard-response,203,645810,0.0-7.11-0.11,hqwzeqes79n,2022-09-19 18:00:26.887,615eca41d537883c96fc9eec,3,57,51,55,54,53,female,1124.2000002861,,"
  <table>
  <tr height=300>
    <td width=300 height=300><img src=""static/images/cards/stack_of_red_moons.svg"" width=""175px"" height=""250px""></img></td>
    <td width=300 height=300><img src=""static/images/cards/stack_of_red_bolts.svg"" width=""175px"" height=""250px""></img></td>
  </tr>
  <tr height=200>
    <td width=300><img src=""static/images/keys/w.svg"" width=""35%"" height=""75%""></img></td>
    <td width=300><img src=""static/images/keys/o.svg"" width=""35%"" height=""75%""></img></td>
  </tr>
</table>
  ",79.0,1.0,,,,,,,,,,,,,,,,,,,,,,,,,,
204,0,,html-keyboard-response,204,647505,0.0-7.11-1.11,hqwzeqes79n,2022-09-19 18:00:26.887,615eca41d537883c96fc9eec,3,57,51,55,54,53,female,1191.0999999046,,"
  <table>
  <tr height=300>
    <td width=300 height=300><img src=""static/images/cards/back_of_red_bolts.svg"" width=""175px"" height=""250px""></img></td>
    <td width=300 height=300><img src=""static/images/cards/back_of_red_bolts.svg"" width=""175px"" height=""250px""></img></td>
  </tr>
  <tr height=200>
    <td width=300><img src=""static/images/keys/z.svg"" width=""35%"" height=""75%""></img></td>
    <td width=300><img src=""static/images/keys/m.svg"" width=""35%"" height=""75%""></img></td>
  </tr>
</table>
  ",90.0,1.0,,,,,,,,,,,,,,,,,,,,,,,,,,
205,0,,html-keyboard-response,205,649023,0.0-7.11-2.11,hqwzeqes79n,2022-09-19 18:00:26.887,615eca41d537883c96fc9eec,3,57,51,55,54,53,female,,,"
  <table>
  <tr height=300>
    <td width=300 height=300><img src=""static/images/cards/7_of_red_bolts.svg"" width=""175px"" height=""250px""></img></td>
    <td width=300 height=300><img src=""static/images/cards/back_of_red_bolts.svg"" width=""175px"" height=""250px""></img></td>
  </tr>
  <tr height=200>
    <td width=300><img src=""static/images/keys/z.svg"" width=""35%"" height=""75%""></img></td>
    <td width=300><img src=""static/images/keys/m.svg"" width=""35%"" height=""75%""></img></td>
  </tr>
</table>
  ",,,,,,,,,,,,,,,,,,,,,,,,,,,,
206,0,,html-keyboard-response,206,650530,0.0-7.11-3.11,hqwzeqes79n,2022-09-19 18:00:26.887,615eca41d537883c96fc9eec,3,57,51,55,54,53,female,,,"<p style=""font-size:50px"">You win!
+10 points this round!</p>",,,,,,,,,,,,,,,,,,,,,,,,,,,,
207,0,,html-keyboard-response,207,651047,0.0-7.11-4.11,hqwzeqes79n,2022-09-19 18:00:26.887,615eca41d537883c96fc9eec,3,57,51,55,54,53,female,,,,,,1.0,choice,11.0,B,Xc,red,red,moons,bolts,B,Xc,Xc,red,bolts,1124.2000002861,1.0,0.0,NA,left,1191.0999999046,7.0,1.0,1.0,,,
208,0,,html-keyboard-response,208,652567,0.0-7.12-0.12,hqwzeqes79n,2022-09-19 18:00:26.887,615eca41d537883c96fc9eec,3,57,51,55,54,53,female,1518.0,,"
  <table>
  <tr height=300>
    <td width=300 height=300><img src=""static/images/cards/stack_of_black_moons.svg"" width=""175px"" height=""250px""></img></td>
    <td width=300 height=300><img src=""static/images/cards/stack_of_red_stars.svg"" width=""175px"" height=""250px""></img></td>
  </tr>
  <tr height=200>
    <td width=300><img src=""static/images/keys/w.svg"" width=""35%"" height=""75%""></img></td>
    <td width=300><img src=""static/images/keys/o.svg"" width=""35%"" height=""75%""></img></td>
  </tr>
</table>
  ",87.0,1.0,,,,,,,,,,,,,,,,,,,,,,,,,,
209,0,,html-keyboard-response,209,654323,0.0-7.12-1.12,hqwzeqes79n,2022-09-19 18:00:26.887,615eca41d537883c96fc9eec,3,57,51,55,54,53,female,1241.9000000954,,"
  <table>
  <tr height=300>
    <td width=300 height=300><img src=""static/images/cards/back_of_black_moons.svg"" width=""175px"" height=""250px""></img></td>
    <td width=300 height=300><img src=""static/images/cards/back_of_black_moons.svg"" width=""175px"" height=""250px""></img></td>
  </tr>
  <tr height=200>
    <td width=300><img src=""static/images/keys/z.svg"" width=""35%"" height=""75%""></img></td>
    <td width=300><img src=""static/images/keys/m.svg"" width=""35%"" height=""75%""></img></td>
  </tr>
</table>
  ",77.0,1.0,,,,,,,,,,,,,,,,,,,,,,,,,,
210,0,,html-keyboard-response,210,655829,0.0-7.12-2.12,hqwzeqes79n,2022-09-19 18:00:26.887,615eca41d537883c96fc9eec,3,57,51,55,54,53,female,,,"
  <table>
  <tr height=300>
    <td width=300 height=300><img src=""static/images/cards/back_of_black_moons.svg"" width=""175px"" height=""250px""></img></td>
    <td width=300 height=300><img src=""static/images/cards/4_of_black_moons.svg"" width=""175px"" height=""250px""></img></td>
  </tr>
  <tr height=200>
    <td width=300><img src=""static/images/keys/z.svg"" width=""35%"" height=""75%""></img></td>
    <td width=300><img src=""static/images/keys/m.svg"" width=""35%"" height=""75%""></img></td>
  </tr>
</table>
  ",,,,,,,,,,,,,,,,,,,,,,,,,,,,
211,0,,html-keyboard-response,211,657351,0.0-7.12-3.12,hqwzeqes79n,2022-09-19 18:00:26.887,615eca41d537883c96fc9eec,3,57,51,55,54,53,female,,,"<p style=""font-size:50px"">You Lose!
No points this round.</p>",,,,,,,,,,,,,,,,,,,,,,,,,,,,
212,0,,html-keyboard-response,212,657865,0.0-7.12-4.12,hqwzeqes79n,2022-09-19 18:00:26.887,615eca41d537883c96fc9eec,3,57,51,55,54,53,female,,,,,,1.0,choice,12.0,A,D,black,red,moons,stars,A,D,A,black,moons,1518.0,1.0,1.0,NA,right,1241.9000000954,4.0,0.0,0.0,,,
213,0,,html-keyboard-response,213,659087,0.0-7.13-0.13,hqwzeqes79n,2022-09-19 18:00:26.887,615eca41d537883c96fc9eec,3,57,51,55,54,53,female,1220.9000000954,,"
  <table>
  <tr height=300>
    <td width=300 height=300><img src=""static/images/cards/stack_of_black_moons.svg"" width=""175px"" height=""250px""></img></td>
    <td width=300 height=300><img src=""static/images/cards/stack_of_red_stars.svg"" width=""175px"" height=""250px""></img></td>
  </tr>
  <tr height=200>
    <td width=300><img src=""static/images/keys/w.svg"" width=""35%"" height=""75%""></img></td>
    <td width=300><img src=""static/images/keys/o.svg"" width=""35%"" height=""75%""></img></td>
  </tr>
</table>
  ",87.0,1.0,,,,,,,,,,,,,,,,,,,,,,,,,,
214,0,,html-keyboard-response,214,660798,0.0-7.13-1.13,hqwzeqes79n,2022-09-19 18:00:26.887,615eca41d537883c96fc9eec,3,57,51,55,54,53,female,1208.1999998093,,"
  <table>
  <tr height=300>
    <td width=300 height=300><img src=""static/images/cards/back_of_black_moons.svg"" width=""175px"" height=""250px""></img></td>
    <td width=300 height=300><img src=""static/images/cards/back_of_black_moons.svg"" width=""175px"" height=""250px""></img></td>
  </tr>
  <tr height=200>
    <td width=300><img src=""static/images/keys/z.svg"" width=""35%"" height=""75%""></img></td>
    <td width=300><img src=""static/images/keys/m.svg"" width=""35%"" height=""75%""></img></td>
  </tr>
</table>
  ",90.0,1.0,,,,,,,,,,,,,,,,,,,,,,,,,,
215,0,,html-keyboard-response,215,662310,0.0-7.13-2.13,hqwzeqes79n,2022-09-19 18:00:26.887,615eca41d537883c96fc9eec,3,57,51,55,54,53,female,,,"
  <table>
  <tr height=300>
    <td width=300 height=300><img src=""static/images/cards/6_of_black_moons.svg"" width=""175px"" height=""250px""></img></td>
    <td width=300 height=300><img src=""static/images/cards/back_of_black_moons.svg"" width=""175px"" height=""250px""></img></td>
  </tr>
  <tr height=200>
    <td width=300><img src=""static/images/keys/z.svg"" width=""35%"" height=""75%""></img></td>
    <td width=300><img src=""static/images/keys/m.svg"" width=""35%"" height=""75%""></img></td>
  </tr>
</table>
  ",,,,,,,,,,,,,,,,,,,,,,,,,,,,
216,0,,html-keyboard-response,216,663824,0.0-7.13-3.13,hqwzeqes79n,2022-09-19 18:00:26.887,615eca41d537883c96fc9eec,3,57,51,55,54,53,female,,,"<p style=""font-size:50px"">You win!
+10 points this round!</p>",,,,,,,,,,,,,,,,,,,,,,,,,,,,
217,0,,html-keyboard-response,217,664334,0.0-7.13-4.13,hqwzeqes79n,2022-09-19 18:00:26.887,615eca41d537883c96fc9eec,3,57,51,55,54,53,female,,,,,,1.0,choice,13.0,A,D,black,red,moons,stars,A,D,A,black,moons,1220.9000000954,1.0,1.0,NA,left,1208.1999998093,6.0,1.0,1.0,,,
218,0,,html-keyboard-response,218,665489,0.0-7.14-0.14,hqwzeqes79n,2022-09-19 18:00:26.887,615eca41d537883c96fc9eec,3,57,51,55,54,53,female,1152.5999999046,,"
  <table>
  <tr height=300>
    <td width=300 height=300><img src=""static/images/cards/stack_of_black_moons.svg"" width=""175px"" height=""250px""></img></td>
    <td width=300 height=300><img src=""static/images/cards/stack_of_black_stars.svg"" width=""175px"" height=""250px""></img></td>
  </tr>
  <tr height=200>
    <td width=300><img src=""static/images/keys/w.svg"" width=""35%"" height=""75%""></img></td>
    <td width=300><img src=""static/images/keys/o.svg"" width=""35%"" height=""75%""></img></td>
  </tr>
</table>
  ",87.0,1.0,,,,,,,,,,,,,,,,,,,,,,,,,,
219,0,,html-keyboard-response,219,667311,0.0-7.14-1.14,hqwzeqes79n,2022-09-19 18:00:26.887,615eca41d537883c96fc9eec,3,57,51,55,54,53,female,1310.8000001907,,"
  <table>
  <tr height=300>
    <td width=300 height=300><img src=""static/images/cards/back_of_black_moons.svg"" width=""175px"" height=""250px""></img></td>
    <td width=300 height=300><img src=""static/images/cards/back_of_black_moons.svg"" width=""175px"" height=""250px""></img></td>
  </tr>
  <tr height=200>
    <td width=300><img src=""static/images/keys/z.svg"" width=""35%"" height=""75%""></img></td>
    <td width=300><img src=""static/images/keys/m.svg"" width=""35%"" height=""75%""></img></td>
  </tr>
</table>
  ",77.0,1.0,,,,,,,,,,,,,,,,,,,,,,,,,,
220,0,,html-keyboard-response,220,668819,0.0-7.14-2.14,hqwzeqes79n,2022-09-19 18:00:26.887,615eca41d537883c96fc9eec,3,57,51,55,54,53,female,,,"
  <table>
  <tr height=300>
    <td width=300 height=300><img src=""static/images/cards/back_of_black_moons.svg"" width=""175px"" height=""250px""></img></td>
    <td width=300 height=300><img src=""static/images/cards/3_of_black_moons.svg"" width=""175px"" height=""250px""></img></td>
  </tr>
  <tr height=200>
    <td width=300><img src=""static/images/keys/z.svg"" width=""35%"" height=""75%""></img></td>
    <td width=300><img src=""static/images/keys/m.svg"" width=""35%"" height=""75%""></img></td>
  </tr>
</table>
  ",,,,,,,,,,,,,,,,,,,,,,,,,,,,
221,0,,html-keyboard-response,221,670330,0.0-7.14-3.14,hqwzeqes79n,2022-09-19 18:00:26.887,615eca41d537883c96fc9eec,3,57,51,55,54,53,female,,,"<p style=""font-size:50px"">You Lose!
No points this round.</p>",,,,,,,,,,,,,,,,,,,,,,,,,,,,
222,0,,html-keyboard-response,222,670838,0.0-7.14-4.14,hqwzeqes79n,2022-09-19 18:00:26.887,615eca41d537883c96fc9eec,3,57,51,55,54,53,female,,,,,,1.0,choice,14.0,A,C,black,black,moons,stars,A,C,A,black,moons,1152.5999999046,1.0,1.0,NA,right,1310.8000001907,3.0,0.0,0.0,,,
223,0,,html-keyboard-response,223,671871,0.0-7.15-0.15,hqwzeqes79n,2022-09-19 18:00:26.887,615eca41d537883c96fc9eec,3,57,51,55,54,53,female,1030.0,,"
  <table>
  <tr height=300>
    <td width=300 height=300><img src=""static/images/cards/stack_of_black_moons.svg"" width=""175px"" height=""250px""></img></td>
    <td width=300 height=300><img src=""static/images/cards/stack_of_red_moons.svg"" width=""175px"" height=""250px""></img></td>
  </tr>
  <tr height=200>
    <td width=300><img src=""static/images/keys/w.svg"" width=""35%"" height=""75%""></img></td>
    <td width=300><img src=""static/images/keys/o.svg"" width=""35%"" height=""75%""></img></td>
  </tr>
</table>
  ",87.0,1.0,,,,,,,,,,,,,,,,,,,,,,,,,,
224,0,,html-keyboard-response,224,673514,0.0-7.15-1.15,hqwzeqes79n,2022-09-19 18:00:26.887,615eca41d537883c96fc9eec,3,57,51,55,54,53,female,1136.7999997139,,"
  <table>
  <tr height=300>
    <td width=300 height=300><img src=""static/images/cards/back_of_black_moons.svg"" width=""175px"" height=""250px""></img></td>
    <td width=300 height=300><img src=""static/images/cards/back_of_black_moons.svg"" width=""175px"" height=""250px""></img></td>
  </tr>
  <tr height=200>
    <td width=300><img src=""static/images/keys/z.svg"" width=""35%"" height=""75%""></img></td>
    <td width=300><img src=""static/images/keys/m.svg"" width=""35%"" height=""75%""></img></td>
  </tr>
</table>
  ",90.0,1.0,,,,,,,,,,,,,,,,,,,,,,,,,,
225,0,,html-keyboard-response,225,675018,0.0-7.15-2.15,hqwzeqes79n,2022-09-19 18:00:26.887,615eca41d537883c96fc9eec,3,57,51,55,54,53,female,,,"
  <table>
  <tr height=300>
    <td width=300 height=300><img src=""static/images/cards/10_of_black_moons.svg"" width=""175px"" height=""250px""></img></td>
    <td width=300 height=300><img src=""static/images/cards/back_of_black_moons.svg"" width=""175px"" height=""250px""></img></td>
  </tr>
  <tr height=200>
    <td width=300><img src=""static/images/keys/z.svg"" width=""35%"" height=""75%""></img></td>
    <td width=300><img src=""static/images/keys/m.svg"" width=""35%"" height=""75%""></img></td>
  </tr>
</table>
  ",,,,,,,,,,,,,,,,,,,,,,,,,,,,
226,0,,html-keyboard-response,226,676526,0.0-7.15-3.15,hqwzeqes79n,2022-09-19 18:00:26.887,615eca41d537883c96fc9eec,3,57,51,55,54,53,female,,,"<p style=""font-size:50px"">You win!
+10 points this round!</p>",,,,,,,,,,,,,,,,,,,,,,,,,,,,
227,0,,html-keyboard-response,227,677046,0.0-7.15-4.15,hqwzeqes79n,2022-09-19 18:00:26.887,615eca41d537883c96fc9eec,3,57,51,55,54,53,female,,,,,,1.0,choice,15.0,A,B,black,red,moons,moons,A,B,A,black,moons,1030.0,1.0,1.0,NA,left,1136.7999997139,10.0,1.0,1.0,,,
228,0,,html-keyboard-response,228,678487,0.0-7.16-0.16,hqwzeqes79n,2022-09-19 18:00:26.887,615eca41d537883c96fc9eec,3,57,51,55,54,53,female,1438.0999999046,,"
  <table>
  <tr height=300>
    <td width=300 height=300><img src=""static/images/cards/stack_of_black_moons.svg"" width=""175px"" height=""250px""></img></td>
    <td width=300 height=300><img src=""static/images/cards/stack_of_red_stars.svg"" width=""175px"" height=""250px""></img></td>
  </tr>
  <tr height=200>
    <td width=300><img src=""static/images/keys/w.svg"" width=""35%"" height=""75%""></img></td>
    <td width=300><img src=""static/images/keys/o.svg"" width=""35%"" height=""75%""></img></td>
  </tr>
</table>
  ",87.0,1.0,,,,,,,,,,,,,,,,,,,,,,,,,,
229,0,,html-keyboard-response,229,680126,0.0-7.16-1.16,hqwzeqes79n,2022-09-19 18:00:26.887,615eca41d537883c96fc9eec,3,57,51,55,54,53,female,1126.6999998093,,"
  <table>
  <tr height=300>
    <td width=300 height=300><img src=""static/images/cards/back_of_black_moons.svg"" width=""175px"" height=""250px""></img></td>
    <td width=300 height=300><img src=""static/images/cards/back_of_black_moons.svg"" width=""175px"" height=""250px""></img></td>
  </tr>
  <tr height=200>
    <td width=300><img src=""static/images/keys/z.svg"" width=""35%"" height=""75%""></img></td>
    <td width=300><img src=""static/images/keys/m.svg"" width=""35%"" height=""75%""></img></td>
  </tr>
</table>
  ",77.0,1.0,,,,,,,,,,,,,,,,,,,,,,,,,,
230,0,,html-keyboard-response,230,681642,0.0-7.16-2.16,hqwzeqes79n,2022-09-19 18:00:26.887,615eca41d537883c96fc9eec,3,57,51,55,54,53,female,,,"
  <table>
  <tr height=300>
