,index,success,trial_type,trial_index,time_elapsed,internal_node_id,subject,date,prol_id,ctbl,sense_of_control_A,sense_of_control_B,sense_of_control_C,sense_of_control_D,rt,url,stimulus,key_press,is_data_trial,phase,trial,deck1,deck2,col1,col2,sym1,sym2,deck_l,deck_r,chosen_deck,chosen_col,chosen_sym,deck_rt,choose_choice,mutual_info,hidden_key,chosen_card,card_rt,player_num,win_card,outcome,mock_rating,npress,response
0,0,1.0,fullscreen,0,12467,0.0-0.0,avgoerpg3vf,2022-09-19 17:13:22.603,616d9ef881036dfbfd63d2f4,3,66,56,68,65,,,,,,,,,,,,,,,,,,,,,,,,,,,,,,
1,0,,external-html,1,16296,0.0-1.0,avgoerpg3vf,2022-09-19 17:13:22.603,616d9ef881036dfbfd63d2f4,3,66,56,68,65,2719.5,static/js/sub/consent.html,,,,,,,,,,,,,,,,,,,,,,,,,,,,
2,0,,call-function,2,16299,0.0-2.0,avgoerpg3vf,2022-09-19 17:13:22.603,616d9ef881036dfbfd63d2f4,3,66,56,68,65,,,,,,,,,,,,,,,,,,,,,,,,,,,,,,
3,0,,image-keyboard-response,3,17840,0.0-3.0-0.0,avgoerpg3vf,2022-09-19 17:13:22.603,616d9ef881036dfbfd63d2f4,3,66,56,68,65,1540.1999998093,,static/images/instructions_CB_3/Slide1.png,39.0,,,,,,,,,,,,,,,,,,,,,,,,,,
4,0,,image-keyboard-response,4,18307,0.0-3.1-0.1,avgoerpg3vf,2022-09-19 17:13:22.603,616d9ef881036dfbfd63d2f4,3,66,56,68,65,464.5,,static/images/instructions_CB_3/Slide2.png,39.0,,,,,,,,,,,,,,,,,,,,,,,,,,
5,0,,image-keyboard-response,5,18657,0.0-3.2-0.2,avgoerpg3vf,2022-09-19 17:13:22.603,616d9ef881036dfbfd63d2f4,3,66,56,68,65,347.5999999046,,static/images/instructions_CB_3/Slide3.png,39.0,,,,,,,,,,,,,,,,,,,,,,,,,,
6,0,,image-keyboard-response,6,19031,0.0-3.3-0.3,avgoerpg3vf,2022-09-19 17:13:22.603,616d9ef881036dfbfd63d2f4,3,66,56,68,65,371.2000000477,,static/images/instructions_CB_3/Slide4.png,39.0,,,,,,,,,,,,,,,,,,,,,,,,,,
7,0,,image-keyboard-response,7,19401,0.0-3.4-0.4,avgoerpg3vf,2022-09-19 17:13:22.603,616d9ef881036dfbfd63d2f4,3,66,56,68,65,368.7999999523,,static/images/instructions_CB_3/Slide5.png,39.0,,,,,,,,,,,,,,,,,,,,,,,,,,
8,0,,image-keyboard-response,8,19743,0.0-3.5-0.5,avgoerpg3vf,2022-09-19 17:13:22.603,616d9ef881036dfbfd63d2f4,3,66,56,68,65,339.7999999523,,static/images/instructions_CB_3/Slide6.png,39.0,,,,,,,,,,,,,,,,,,,,,,,,,,
9,0,,image-keyboard-response,9,20146,0.0-3.6-0.6,avgoerpg3vf,2022-09-19 17:13:22.603,616d9ef881036dfbfd63d2f4,3,66,56,68,65,401.1000001431,,static/images/instructions_CB_3/Slide7.png,39.0,,,,,,,,,,,,,,,,,,,,,,,,,,
10,0,,image-keyboard-response,10,20521,0.0-3.7-0.7,avgoerpg3vf,2022-09-19 17:13:22.603,616d9ef881036dfbfd63d2f4,3,66,56,68,65,372.4000000954,,static/images/instructions_CB_3/Slide8.png,39.0,,,,,,,,,,,,,,,,,,,,,,,,,,
11,0,,image-keyboard-response,11,21289,0.0-3.8-0.8,avgoerpg3vf,2022-09-19 17:13:22.603,616d9ef881036dfbfd63d2f4,3,66,56,68,65,766.7000000477,,static/images/instructions_CB_3/Slide9.png,39.0,,,,,,,,,,,,,,,,,,,,,,,,,,
12,0,,image-keyboard-response,12,22064,0.0-3.9-0.9,avgoerpg3vf,2022-09-19 17:13:22.603,616d9ef881036dfbfd63d2f4,3,66,56,68,65,772.8999998569,,static/images/instructions_CB_3/Slide10.png,39.0,,,,,,,,,,,,,,,,,,,,,,,,,,
13,0,,image-keyboard-response,13,22806,0.0-3.10-0.10,avgoerpg3vf,2022-09-19 17:13:22.603,616d9ef881036dfbfd63d2f4,3,66,56,68,65,740.2999999523,,static/images/instructions_CB_3/Slide11.png,39.0,,,,,,,,,,,,,,,,,,,,,,,,,,
14,0,,image-keyboard-response,14,23995,0.0-3.11-0.11,avgoerpg3vf,2022-09-19 17:13:22.603,616d9ef881036dfbfd63d2f4,3,66,56,68,65,1187.9000000954,,static/images/instructions_CB_3/Slide12.png,39.0,,,,,,,,,,,,,,,,,,,,,,,,,,
15,0,,image-keyboard-response,15,25345,0.0-3.12-0.12,avgoerpg3vf,2022-09-19 17:13:22.603,616d9ef881036dfbfd63d2f4,3,66,56,68,65,1347.7000000477,,static/images/instructions_CB_3/Slide13.png,39.0,,,,,,,,,,,,,,,,,,,,,,,,,,
16,0,,image-keyboard-response,16,25904,0.0-3.13-0.13,avgoerpg3vf,2022-09-19 17:13:22.603,616d9ef881036dfbfd63d2f4,3,66,56,68,65,557.6000001431,,static/images/instructions_CB_3/Slide14.png,39.0,,,,,,,,,,,,,,,,,,,,,,,,,,
17,0,,image-keyboard-response,17,26412,0.0-3.14-0.14,avgoerpg3vf,2022-09-19 17:13:22.603,616d9ef881036dfbfd63d2f4,3,66,56,68,65,506.6999998093,,static/images/instructions_CB_3/Slide15.png,39.0,,,,,,,,,,,,,,,,,,,,,,,,,,
18,0,,image-keyboard-response,18,27327,0.0-3.15-0.15,avgoerpg3vf,2022-09-19 17:13:22.603,616d9ef881036dfbfd63d2f4,3,66,56,68,65,913.7999999523,,static/images/instructions_CB_3/Slide16.png,39.0,,,,,,,,,,,,,,,,,,,,,,,,,,
19,0,,image-keyboard-response,19,27918,0.0-3.16-0.16,avgoerpg3vf,2022-09-19 17:13:22.603,616d9ef881036dfbfd63d2f4,3,66,56,68,65,589.5,,static/images/instructions_CB_3/Slide17.png,39.0,,,,,,,,,,,,,,,,,,,,,,,,,,
20,0,,image-keyboard-response,20,29462,0.0-3.17-0.17,avgoerpg3vf,2022-09-19 17:13:22.603,616d9ef881036dfbfd63d2f4,3,66,56,68,65,1542.2000000477,,static/images/instructions_CB_3/Slide18.png,39.0,,,,,,,,,,,,,,,,,,,,,,,,,,
21,0,,image-keyboard-response,21,30393,0.0-3.18-0.18,avgoerpg3vf,2022-09-19 17:13:22.603,616d9ef881036dfbfd63d2f4,3,66,56,68,65,929.7999999523,,static/images/instructions_CB_3/Slide19.png,39.0,,,,,,,,,,,,,,,,,,,,,,,,,,
22,0,,html-keyboard-response,22,31910,0.0-4.0-0.0,avgoerpg3vf,2022-09-19 17:13:22.603,616d9ef881036dfbfd63d2f4,3,66,56,68,65,,,"<img src=""static/images/cards/stack_of_black_moons.svg"" width=""175px"" height=""250px""></img>",,,,,,,,,,,,,,,,,,,,,,,,,,,
23,0,,html-keyboard-response,23,35419,0.0-4.0-1.0,avgoerpg3vf,2022-09-19 17:13:22.603,616d9ef881036dfbfd63d2f4,3,66,56,68,65,,,"
  <table>
  <tr height=300>
    <td width=300 height=300><img src=""static/images/cards/back_of_black_moons.svg"" width=""175px"" height=""250px""></img></td>
    <td width=300 height=300><img src=""static/images/cards/back_of_black_moons.svg"" width=""175px"" height=""250px""></img></td>
  </tr>
  <tr height=200>
    <td width=300><img src=""static/images/keys/z.svg"" width=""35%"" height=""75%""></img></td>
    <td width=300><img src=""static/images/keys/m.svg"" width=""35%"" height=""75%""></img></td>
  </tr>
</table>
  ",,,,,,,,,,,,,,,,,,,,,,,,,,,
24,0,,html-keyboard-response,24,35420,0.0-4.0-2.0,avgoerpg3vf,2022-09-19 17:13:22.603,616d9ef881036dfbfd63d2f4,3,66,56,68,65,,,,,,,,,,,,,,,,,,,,,,,,,,,,,,
25,0,,html-keyboard-response,25,36944,0.0-4.0-3.0,avgoerpg3vf,2022-09-19 17:13:22.603,616d9ef881036dfbfd63d2f4,3,66,56,68,65,,,"<p style=""font-size:50px"">Too slow!</p>",,,,,,,,,,,,,,,,,,,,,,,,,,,
26,0,,html-keyboard-response,26,37463,0.0-4.0-4.0,avgoerpg3vf,2022-09-19 17:13:22.603,616d9ef881036dfbfd63d2f4,3,66,56,68,65,,,,,1.0,learning,0.0,A,,black,,moons,,,,A,black,moons,,1.0,1.0,NA,,,,,,,,
27,0,,html-keyboard-response,27,38965,0.0-4.1-0.1,avgoerpg3vf,2022-09-19 17:13:22.603,616d9ef881036dfbfd63d2f4,3,66,56,68,65,,,"<img src=""static/images/cards/stack_of_red_moons.svg"" width=""175px"" height=""250px""></img>",,,,,,,,,,,,,,,,,,,,,,,,,,,
28,0,,html-keyboard-response,28,41145,0.0-4.1-1.1,avgoerpg3vf,2022-09-19 17:13:22.603,616d9ef881036dfbfd63d2f4,3,66,56,68,65,1666.0999999046,,"
  <table>
  <tr height=300>
    <td width=300 height=300><img src=""static/images/cards/back_of_red_moons.svg"" width=""175px"" height=""250px""></img></td>
    <td width=300 height=300><img src=""static/images/cards/back_of_red_moons.svg"" width=""175px"" height=""250px""></img></td>
  </tr>
  <tr height=200>
    <td width=300></td>
    <td width=300><img src=""static/images/keys/m.svg"" width=""35%"" height=""75%""></img></td>
  </tr>
</table>
  ",77.0,,,,,,,,,,,,,,,,,,,,,,,,,2.0,
29,0,,html-keyboard-response,29,42660,0.0-4.1-2.1,avgoerpg3vf,2022-09-19 17:13:22.603,616d9ef881036dfbfd63d2f4,3,66,56,68,65,,,"
  <table>
  <tr height=300>
    <td width=300 height=300><img src=""static/images/cards/back_of_red_moons.svg"" width=""175px"" height=""250px""></img></td>
    <td width=300 height=300><img src=""static/images/cards/7_of_red_moons.svg"" width=""175px"" height=""250px""></img></td>
  </tr>
  <tr height=200>
    <td width=300></td>
    <td width=300><img src=""static/images/keys/m.svg"" width=""35%"" height=""75%""></img></td>
  </tr>
</table>
  ",,,,,,,,,,,,,,,,,,,,,,,,,,,
30,0,,html-keyboard-response,30,44171,0.0-4.1-3.1,avgoerpg3vf,2022-09-19 17:13:22.603,616d9ef881036dfbfd63d2f4,3,66,56,68,65,,,"<p style=""font-size:50px"">You win!
+10 points this round!</p>",,,,,,,,,,,,,,,,,,,,,,,,,,,
31,0,,html-keyboard-response,31,44692,0.0-4.1-4.1,avgoerpg3vf,2022-09-19 17:13:22.603,616d9ef881036dfbfd63d2f4,3,66,56,68,65,,,,,1.0,learning,1.0,B,,red,,moons,,,,B,red,moons,,0.0,1.0,0,right,1666.0999999046,7.0,1.0,1.0,,,
32,0,,html-keyboard-response,32,46198,0.0-4.2-0.2,avgoerpg3vf,2022-09-19 17:13:22.603,616d9ef881036dfbfd63d2f4,3,66,56,68,65,,,"<img src=""static/images/cards/stack_of_black_stars.svg"" width=""175px"" height=""250px""></img>",,,,,,,,,,,,,,,,,,,,,,,,,,,
33,0,,html-keyboard-response,33,46759,0.0-4.2-1.2,avgoerpg3vf,2022-09-19 17:13:22.603,616d9ef881036dfbfd63d2f4,3,66,56,68,65,43.7999999523,,"
  <table>
  <tr height=300>
    <td width=300 height=300><img src=""static/images/cards/back_of_black_stars.svg"" width=""175px"" height=""250px""></img></td>
    <td width=300 height=300><img src=""static/images/cards/back_of_black_stars.svg"" width=""175px"" height=""250px""></img></td>
  </tr>
  <tr height=200>
    <td width=300><img src=""static/images/keys/z.svg"" width=""35%"" height=""75%""></img></td>
    <td width=300><img src=""static/images/keys/m.svg"" width=""35%"" height=""75%""></img></td>
  </tr>
</table>
  ",90.0,,,,,,,,,,,,,,,,,,,,,,,,,1.0,
34,0,,html-keyboard-response,34,48274,0.0-4.2-2.2,avgoerpg3vf,2022-09-19 17:13:22.603,616d9ef881036dfbfd63d2f4,3,66,56,68,65,,,"
  <table>
  <tr height=300>
    <td width=300 height=300><img src=""static/images/cards/4_of_black_stars.svg"" width=""175px"" height=""250px""></img></td>
    <td width=300 height=300><img src=""static/images/cards/back_of_black_stars.svg"" width=""175px"" height=""250px""></img></td>
  </tr>
  <tr height=200>
    <td width=300><img src=""static/images/keys/z.svg"" width=""35%"" height=""75%""></img></td>
    <td width=300><img src=""static/images/keys/m.svg"" width=""35%"" height=""75%""></img></td>
  </tr>
</table>
  ",,,,,,,,,,,,,,,,,,,,,,,,,,,
35,0,,html-keyboard-response,35,49804,0.0-4.2-3.2,avgoerpg3vf,2022-09-19 17:13:22.603,616d9ef881036dfbfd63d2f4,3,66,56,68,65,,,"<p style=""font-size:50px"">You Lose!
No points this round.</p>",,,,,,,,,,,,,,,,,,,,,,,,,,,
36,0,,html-keyboard-response,36,50324,0.0-4.2-4.2,avgoerpg3vf,2022-09-19 17:13:22.603,616d9ef881036dfbfd63d2f4,3,66,56,68,65,,,,,1.0,learning,2.0,C,,black,,stars,,,,C,black,stars,,1.0,0.0,NA,left,43.7999999523,4.0,0.0,0.0,,,
37,0,,html-keyboard-response,37,51829,0.0-4.3-0.3,avgoerpg3vf,2022-09-19 17:13:22.603,616d9ef881036dfbfd63d2f4,3,66,56,68,65,,,"<img src=""static/images/cards/stack_of_red_stars.svg"" width=""175px"" height=""250px""></img>",,,,,,,,,,,,,,,,,,,,,,,,,,,
38,0,,html-keyboard-response,38,52975,0.0-4.3-1.3,avgoerpg3vf,2022-09-19 17:13:22.603,616d9ef881036dfbfd63d2f4,3,66,56,68,65,628.9000000954,,"
  <table>
  <tr height=300>
    <td width=300 height=300><img src=""static/images/cards/back_of_red_stars.svg"" width=""175px"" height=""250px""></img></td>
    <td width=300 height=300><img src=""static/images/cards/back_of_red_stars.svg"" width=""175px"" height=""250px""></img></td>
  </tr>
  <tr height=200>
    <td width=300><img src=""static/images/keys/z.svg"" width=""35%"" height=""75%""></img></td>
    <td width=300></td>
  </tr>
</table>
  ",90.0,,,,,,,,,,,,,,,,,,,,,,,,,1.0,
39,0,,html-keyboard-response,39,54483,0.0-4.3-2.3,avgoerpg3vf,2022-09-19 17:13:22.603,616d9ef881036dfbfd63d2f4,3,66,56,68,65,,,"
  <table>
  <tr height=300>
    <td width=300 height=300><img src=""static/images/cards/3_of_red_stars.svg"" width=""175px"" height=""250px""></img></td>
    <td width=300 height=300><img src=""static/images/cards/back_of_red_stars.svg"" width=""175px"" height=""250px""></img></td>
  </tr>
  <tr height=200>
    <td width=300><img src=""static/images/keys/z.svg"" width=""35%"" height=""75%""></img></td>
    <td width=300></td>
  </tr>
</table>
  ",,,,,,,,,,,,,,,,,,,,,,,,,,,
40,0,,html-keyboard-response,40,56014,0.0-4.3-3.3,avgoerpg3vf,2022-09-19 17:13:22.603,616d9ef881036dfbfd63d2f4,3,66,56,68,65,,,"<p style=""font-size:50px"">You win!
+10 points this round!</p>",,,,,,,,,,,,,,,,,,,,,,,,,,,
41,0,,html-keyboard-response,41,56530,0.0-4.3-4.3,avgoerpg3vf,2022-09-19 17:13:22.603,616d9ef881036dfbfd63d2f4,3,66,56,68,65,,,,,1.0,learning,3.0,D,,red,,stars,,,,D,red,stars,,0.0,0.0,1,left,628.9000000954,3.0,0.0,1.0,,,
42,0,,html-keyboard-response,42,58039,0.0-4.4-0.4,avgoerpg3vf,2022-09-19 17:13:22.603,616d9ef881036dfbfd63d2f4,3,66,56,68,65,,,"<img src=""static/images/cards/stack_of_red_bolts.svg"" width=""175px"" height=""250px""></img>",,,,,,,,,,,,,,,,,,,,,,,,,,,
43,0,,html-keyboard-response,43,59524,0.0-4.4-1.4,avgoerpg3vf,2022-09-19 17:13:22.603,616d9ef881036dfbfd63d2f4,3,66,56,68,65,967.3999998569,,"
  <table>
  <tr height=300>
    <td width=300 height=300><img src=""static/images/cards/back_of_red_bolts.svg"" width=""175px"" height=""250px""></img></td>
    <td width=300 height=300><img src=""static/images/cards/back_of_red_bolts.svg"" width=""175px"" height=""250px""></img></td>
  </tr>
  <tr height=200>
    <td width=300><img src=""static/images/keys/z.svg"" width=""35%"" height=""75%""></img></td>
    <td width=300><img src=""static/images/keys/m.svg"" width=""35%"" height=""75%""></img></td>
  </tr>
</table>
  ",77.0,,,,,,,,,,,,,,,,,,,,,,,,,1.0,
44,0,,html-keyboard-response,44,61031,0.0-4.4-2.4,avgoerpg3vf,2022-09-19 17:13:22.603,616d9ef881036dfbfd63d2f4,3,66,56,68,65,,,"
  <table>
  <tr height=300>
    <td width=300 height=300><img src=""static/images/cards/back_of_red_bolts.svg"" width=""175px"" height=""250px""></img></td>
    <td width=300 height=300><img src=""static/images/cards/8_of_red_bolts.svg"" width=""175px"" height=""250px""></img></td>
  </tr>
  <tr height=200>
    <td width=300><img src=""static/images/keys/z.svg"" width=""35%"" height=""75%""></img></td>
    <td width=300><img src=""static/images/keys/m.svg"" width=""35%"" height=""75%""></img></td>
  </tr>
</table>
  ",,,,,,,,,,,,,,,,,,,,,,,,,,,
45,0,,html-keyboard-response,45,62559,0.0-4.4-3.4,avgoerpg3vf,2022-09-19 17:13:22.603,616d9ef881036dfbfd63d2f4,3,66,56,68,65,,,"<p style=""font-size:50px"">You win!
+10 points this round!</p>",,,,,,,,,,,,,,,,,,,,,,,,,,,
46,0,,html-keyboard-response,46,63079,0.0-4.4-4.4,avgoerpg3vf,2022-09-19 17:13:22.603,616d9ef881036dfbfd63d2f4,3,66,56,68,65,,,,,1.0,learning,4.0,Xc,,red,,bolts,,,,Xc,red,bolts,,1.0,0.0,NA,right,967.3999998569,8.0,1.0,1.0,,,
47,0,,html-keyboard-response,47,64585,0.0-4.5-0.5,avgoerpg3vf,2022-09-19 17:13:22.603,616d9ef881036dfbfd63d2f4,3,66,56,68,65,,,"<img src=""static/images/cards/stack_of_black_bolts.svg"" width=""175px"" height=""250px""></img>",,,,,,,,,,,,,,,,,,,,,,,,,,,
48,0,,html-keyboard-response,48,65654,0.0-4.5-1.5,avgoerpg3vf,2022-09-19 17:13:22.603,616d9ef881036dfbfd63d2f4,3,66,56,68,65,551.7999999523,,"
  <table>
  <tr height=300>
    <td width=300 height=300><img src=""static/images/cards/back_of_black_bolts.svg"" width=""175px"" height=""250px""></img></td>
    <td width=300 height=300><img src=""static/images/cards/back_of_black_bolts.svg"" width=""175px"" height=""250px""></img></td>
  </tr>
  <tr height=200>
    <td width=300><img src=""static/images/keys/z.svg"" width=""35%"" height=""75%""></img></td>
    <td width=300></td>
  </tr>
</table>
  ",90.0,,,,,,,,,,,,,,,,,,,,,,,,,1.0,
49,0,,html-keyboard-response,49,67164,0.0-4.5-2.5,avgoerpg3vf,2022-09-19 17:13:22.603,616d9ef881036dfbfd63d2f4,3,66,56,68,65,,,"
  <table>
  <tr height=300>
    <td width=300 height=300><img src=""static/images/cards/1_of_black_bolts.svg"" width=""175px"" height=""250px""></img></td>
    <td width=300 height=300><img src=""static/images/cards/back_of_black_bolts.svg"" width=""175px"" height=""250px""></img></td>
  </tr>
  <tr height=200>
    <td width=300><img src=""static/images/keys/z.svg"" width=""35%"" height=""75%""></img></td>
    <td width=300></td>
  </tr>
</table>
  ",,,,,,,,,,,,,,,,,,,,,,,,,,,
50,0,,html-keyboard-response,50,68693,0.0-4.5-3.5,avgoerpg3vf,2022-09-19 17:13:22.603,616d9ef881036dfbfd63d2f4,3,66,56,68,65,,,"<p style=""font-size:50px"">You win!
+10 points this round!</p>",,,,,,,,,,,,,,,,,,,,,,,,,,,
51,0,,html-keyboard-response,51,69211,0.0-4.5-4.5,avgoerpg3vf,2022-09-19 17:13:22.603,616d9ef881036dfbfd63d2f4,3,66,56,68,65,,,,,1.0,learning,5.0,Xnc,,black,,bolts,,,,Xnc,black,bolts,,0.0,0.0,1,left,551.7999999523,1.0,0.0,1.0,,,
52,0,,html-keyboard-response,52,70719,0.0-4.6-0.6,avgoerpg3vf,2022-09-19 17:13:22.603,616d9ef881036dfbfd63d2f4,3,66,56,68,65,,,"<img src=""static/images/cards/stack_of_black_moons.svg"" width=""175px"" height=""250px""></img>",,,,,,,,,,,,,,,,,,,,,,,,,,,
53,0,,html-keyboard-response,53,71794,0.0-4.6-1.6,avgoerpg3vf,2022-09-19 17:13:22.603,616d9ef881036dfbfd63d2f4,3,66,56,68,65,558.0,,"
  <table>
  <tr height=300>
    <td width=300 height=300><img src=""static/images/cards/back_of_black_moons.svg"" width=""175px"" height=""250px""></img></td>
    <td width=300 height=300><img src=""static/images/cards/back_of_black_moons.svg"" width=""175px"" height=""250px""></img></td>
  </tr>
  <tr height=200>
    <td width=300><img src=""static/images/keys/z.svg"" width=""35%"" height=""75%""></img></td>
    <td width=300><img src=""static/images/keys/m.svg"" width=""35%"" height=""75%""></img></td>
  </tr>
</table>
  ",90.0,,,,,,,,,,,,,,,,,,,,,,,,,1.0,
54,0,,html-keyboard-response,54,73306,0.0-4.6-2.6,avgoerpg3vf,2022-09-19 17:13:22.603,616d9ef881036dfbfd63d2f4,3,66,56,68,65,,,"
  <table>
  <tr height=300>
    <td width=300 height=300><img src=""static/images/cards/3_of_black_moons.svg"" width=""175px"" height=""250px""></img></td>
    <td width=300 height=300><img src=""static/images/cards/back_of_black_moons.svg"" width=""175px"" height=""250px""></img></td>
  </tr>
  <tr height=200>
    <td width=300><img src=""static/images/keys/z.svg"" width=""35%"" height=""75%""></img></td>
    <td width=300><img src=""static/images/keys/m.svg"" width=""35%"" height=""75%""></img></td>
  </tr>
</table>
  ",,,,,,,,,,,,,,,,,,,,,,,,,,,
55,0,,html-keyboard-response,55,74836,0.0-4.6-3.6,avgoerpg3vf,2022-09-19 17:13:22.603,616d9ef881036dfbfd63d2f4,3,66,56,68,65,,,"<p style=""font-size:50px"">You Lose!
No points this round.</p>",,,,,,,,,,,,,,,,,,,,,,,,,,,
56,0,,html-keyboard-response,56,75353,0.0-4.6-4.6,avgoerpg3vf,2022-09-19 17:13:22.603,616d9ef881036dfbfd63d2f4,3,66,56,68,65,,,,,1.0,learning,6.0,A,,black,,moons,,,,A,black,moons,,1.0,1.0,NA,left,558.0,3.0,0.0,0.0,,,
57,0,,html-keyboard-response,57,76856,0.0-4.7-0.7,avgoerpg3vf,2022-09-19 17:13:22.603,616d9ef881036dfbfd63d2f4,3,66,56,68,65,,,"<img src=""static/images/cards/stack_of_red_moons.svg"" width=""175px"" height=""250px""></img>",,,,,,,,,,,,,,,,,,,,,,,,,,,
58,0,,html-keyboard-response,58,77774,0.0-4.7-1.7,avgoerpg3vf,2022-09-19 17:13:22.603,616d9ef881036dfbfd63d2f4,3,66,56,68,65,401.0,,"
  <table>
  <tr height=300>
    <td width=300 height=300><img src=""static/images/cards/back_of_red_moons.svg"" width=""175px"" height=""250px""></img></td>
    <td width=300 height=300><img src=""static/images/cards/back_of_red_moons.svg"" width=""175px"" height=""250px""></img></td>
  </tr>
  <tr height=200>
    <td width=300></td>
    <td width=300><img src=""static/images/keys/m.svg"" width=""35%"" height=""75%""></img></td>
  </tr>
</table>
  ",77.0,,,,,,,,,,,,,,,,,,,,,,,,,1.0,
59,0,,html-keyboard-response,59,79287,0.0-4.7-2.7,avgoerpg3vf,2022-09-19 17:13:22.603,616d9ef881036dfbfd63d2f4,3,66,56,68,65,,,"
  <table>
  <tr height=300>
    <td width=300 height=300><img src=""static/images/cards/back_of_red_moons.svg"" width=""175px"" height=""250px""></img></td>
    <td width=300 height=300><img src=""static/images/cards/2_of_red_moons.svg"" width=""175px"" height=""250px""></img></td>
  </tr>
  <tr height=200>
    <td width=300></td>
    <td width=300><img src=""static/images/keys/m.svg"" width=""35%"" height=""75%""></img></td>
  </tr>
</table>
  ",,,,,,,,,,,,,,,,,,,,,,,,,,,
60,0,,html-keyboard-response,60,80804,0.0-4.7-3.7,avgoerpg3vf,2022-09-19 17:13:22.603,616d9ef881036dfbfd63d2f4,3,66,56,68,65,,,"<p style=""font-size:50px"">You Lose!
No points this round.</p>",,,,,,,,,,,,,,,,,,,,,,,,,,,
61,0,,html-keyboard-response,61,81310,0.0-4.7-4.7,avgoerpg3vf,2022-09-19 17:13:22.603,616d9ef881036dfbfd63d2f4,3,66,56,68,65,,,,,1.0,learning,7.0,B,,red,,moons,,,,B,red,moons,,0.0,1.0,0,right,401.0,2.0,0.0,0.0,,,
62,0,,html-keyboard-response,62,82816,0.0-4.8-0.8,avgoerpg3vf,2022-09-19 17:13:22.603,616d9ef881036dfbfd63d2f4,3,66,56,68,65,,,"<img src=""static/images/cards/stack_of_black_stars.svg"" width=""175px"" height=""250px""></img>",,,,,,,,,,,,,,,,,,,,,,,,,,,
63,0,,html-keyboard-response,63,83755,0.0-4.8-1.8,avgoerpg3vf,2022-09-19 17:13:22.603,616d9ef881036dfbfd63d2f4,3,66,56,68,65,424.5999999046,,"
  <table>
  <tr height=300>
    <td width=300 height=300><img src=""static/images/cards/back_of_black_stars.svg"" width=""175px"" height=""250px""></img></td>
    <td width=300 height=300><img src=""static/images/cards/back_of_black_stars.svg"" width=""175px"" height=""250px""></img></td>
  </tr>
  <tr height=200>
    <td width=300><img src=""static/images/keys/z.svg"" width=""35%"" height=""75%""></img></td>
    <td width=300><img src=""static/images/keys/m.svg"" width=""35%"" height=""75%""></img></td>
  </tr>
</table>
  ",90.0,,,,,,,,,,,,,,,,,,,,,,,,,1.0,
64,0,,html-keyboard-response,64,85261,0.0-4.8-2.8,avgoerpg3vf,2022-09-19 17:13:22.603,616d9ef881036dfbfd63d2f4,3,66,56,68,65,,,"
  <table>
  <tr height=300>
    <td width=300 height=300><img src=""static/images/cards/8_of_black_stars.svg"" width=""175px"" height=""250px""></img></td>
    <td width=300 height=300><img src=""static/images/cards/back_of_black_stars.svg"" width=""175px"" height=""250px""></img></td>
  </tr>
  <tr height=200>
    <td width=300><img src=""static/images/keys/z.svg"" width=""35%"" height=""75%""></img></td>
    <td width=300><img src=""static/images/keys/m.svg"" width=""35%"" height=""75%""></img></td>
  </tr>
</table>
  ",,,,,,,,,,,,,,,,,,,,,,,,,,,
65,0,,html-keyboard-response,65,86783,0.0-4.8-3.8,avgoerpg3vf,2022-09-19 17:13:22.603,616d9ef881036dfbfd63d2f4,3,66,56,68,65,,,"<p style=""font-size:50px"">You Lose!
No points this round.</p>",,,,,,,,,,,,,,,,,,,,,,,,,,,
66,0,,html-keyboard-response,66,87303,0.0-4.8-4.8,avgoerpg3vf,2022-09-19 17:13:22.603,616d9ef881036dfbfd63d2f4,3,66,56,68,65,,,,,1.0,learning,8.0,C,,black,,stars,,,,C,black,stars,,1.0,0.0,NA,left,424.5999999046,8.0,1.0,0.0,,,
67,0,,html-keyboard-response,67,88812,0.0-4.9-0.9,avgoerpg3vf,2022-09-19 17:13:22.603,616d9ef881036dfbfd63d2f4,3,66,56,68,65,,,"<img src=""static/images/cards/stack_of_red_stars.svg"" width=""175px"" height=""250px""></img>",,,,,,,,,,,,,,,,,,,,,,,,,,,
68,0,,html-keyboard-response,68,89823,0.0-4.9-1.9,avgoerpg3vf,2022-09-19 17:13:22.603,616d9ef881036dfbfd63d2f4,3,66,56,68,65,494.5,,"
  <table>
  <tr height=300>
    <td width=300 height=300><img src=""static/images/cards/back_of_red_stars.svg"" width=""175px"" height=""250px""></img></td>
    <td width=300 height=300><img src=""static/images/cards/back_of_red_stars.svg"" width=""175px"" height=""250px""></img></td>
  </tr>
  <tr height=200>
    <td width=300></td>
    <td width=300><img src=""static/images/keys/m.svg"" width=""35%"" height=""75%""></img></td>
  </tr>
</table>
  ",77.0,,,,,,,,,,,,,,,,,,,,,,,,,1.0,
69,0,,html-keyboard-response,69,91339,0.0-4.9-2.9,avgoerpg3vf,2022-09-19 17:13:22.603,616d9ef881036dfbfd63d2f4,3,66,56,68,65,,,"
  <table>
  <tr height=300>
    <td width=300 height=300><img src=""static/images/cards/back_of_red_stars.svg"" width=""175px"" height=""250px""></img></td>
    <td width=300 height=300><img src=""static/images/cards/8_of_red_stars.svg"" width=""175px"" height=""250px""></img></td>
  </tr>
  <tr height=200>
    <td width=300></td>
    <td width=300><img src=""static/images/keys/m.svg"" width=""35%"" height=""75%""></img></td>
  </tr>
</table>
  ",,,,,,,,,,,,,,,,,,,,,,,,,,,
70,0,,html-keyboard-response,70,92866,0.0-4.9-3.9,avgoerpg3vf,2022-09-19 17:13:22.603,616d9ef881036dfbfd63d2f4,3,66,56,68,65,,,"<p style=""font-size:50px"">You Lose!
No points this round.</p>",,,,,,,,,,,,,,,,,,,,,,,,,,,
71,0,,html-keyboard-response,71,93386,0.0-4.9-4.9,avgoerpg3vf,2022-09-19 17:13:22.603,616d9ef881036dfbfd63d2f4,3,66,56,68,65,,,,,1.0,learning,9.0,D,,red,,stars,,,,D,red,stars,,0.0,0.0,0,right,494.5,8.0,1.0,0.0,,,
72,0,,html-keyboard-response,72,94891,0.0-4.10-0.10,avgoerpg3vf,2022-09-19 17:13:22.603,616d9ef881036dfbfd63d2f4,3,66,56,68,65,,,"<img src=""static/images/cards/stack_of_red_bolts.svg"" width=""175px"" height=""250px""></img>",,,,,,,,,,,,,,,,,,,,,,,,,,,
73,0,,html-keyboard-response,73,95899,0.0-4.10-1.10,avgoerpg3vf,2022-09-19 17:13:22.603,616d9ef881036dfbfd63d2f4,3,66,56,68,65,489.7999999523,,"
  <table>
  <tr height=300>
    <td width=300 height=300><img src=""static/images/cards/back_of_red_bolts.svg"" width=""175px"" height=""250px""></img></td>
    <td width=300 height=300><img src=""static/images/cards/back_of_red_bolts.svg"" width=""175px"" height=""250px""></img></td>
  </tr>
  <tr height=200>
    <td width=300><img src=""static/images/keys/z.svg"" width=""35%"" height=""75%""></img></td>
    <td width=300><img src=""static/images/keys/m.svg"" width=""35%"" height=""75%""></img></td>
  </tr>
</table>
  ",90.0,,,,,,,,,,,,,,,,,,,,,,,,,1.0,
74,0,,html-keyboard-response,74,97404,0.0-4.10-2.10,avgoerpg3vf,2022-09-19 17:13:22.603,616d9ef881036dfbfd63d2f4,3,66,56,68,65,,,"
  <table>
  <tr height=300>
    <td width=300 height=300><img src=""static/images/cards/4_of_red_bolts.svg"" width=""175px"" height=""250px""></img></td>
    <td width=300 height=300><img src=""static/images/cards/back_of_red_bolts.svg"" width=""175px"" height=""250px""></img></td>
  </tr>
  <tr height=200>
    <td width=300><img src=""static/images/keys/z.svg"" width=""35%"" height=""75%""></img></td>
    <td width=300><img src=""static/images/keys/m.svg"" width=""35%"" height=""75%""></img></td>
  </tr>
</table>
  ",,,,,,,,,,,,,,,,,,,,,,,,,,,
75,0,,html-keyboard-response,75,98936,0.0-4.10-3.10,avgoerpg3vf,2022-09-19 17:13:22.603,616d9ef881036dfbfd63d2f4,3,66,56,68,65,,,"<p style=""font-size:50px"">You win!
+10 points this round!</p>",,,,,,,,,,,,,,,,,,,,,,,,,,,
76,0,,html-keyboard-response,76,99454,0.0-4.10-4.10,avgoerpg3vf,2022-09-19 17:13:22.603,616d9ef881036dfbfd63d2f4,3,66,56,68,65,,,,,1.0,learning,10.0,Xc,,red,,bolts,,,,Xc,red,bolts,,1.0,0.0,NA,left,489.7999999523,4.0,0.0,1.0,,,
77,0,,html-keyboard-response,77,100957,0.0-4.11-0.11,avgoerpg3vf,2022-09-19 17:13:22.603,616d9ef881036dfbfd63d2f4,3,66,56,68,65,,,"<img src=""static/images/cards/stack_of_black_bolts.svg"" width=""175px"" height=""250px""></img>",,,,,,,,,,,,,,,,,,,,,,,,,,,
78,0,,html-keyboard-response,78,101997,0.0-4.11-1.11,avgoerpg3vf,2022-09-19 17:13:22.603,616d9ef881036dfbfd63d2f4,3,66,56,68,65,523.2999999523,,"
  <table>
  <tr height=300>
    <td width=300 height=300><img src=""static/images/cards/back_of_black_bolts.svg"" width=""175px"" height=""250px""></img></td>
    <td width=300 height=300><img src=""static/images/cards/back_of_black_bolts.svg"" width=""175px"" height=""250px""></img></td>
  </tr>
  <tr height=200>
    <td width=300></td>
    <td width=300><img src=""static/images/keys/m.svg"" width=""35%"" height=""75%""></img></td>
  </tr>
</table>
  ",77.0,,,,,,,,,,,,,,,,,,,,,,,,,1.0,
79,0,,html-keyboard-response,79,103500,0.0-4.11-2.11,avgoerpg3vf,2022-09-19 17:13:22.603,616d9ef881036dfbfd63d2f4,3,66,56,68,65,,,"
  <table>
  <tr height=300>
    <td width=300 height=300><img src=""static/images/cards/back_of_black_bolts.svg"" width=""175px"" height=""250px""></img></td>
    <td width=300 height=300><img src=""static/images/cards/6_of_black_bolts.svg"" width=""175px"" height=""250px""></img></td>
  </tr>
  <tr height=200>
    <td width=300></td>
    <td width=300><img src=""static/images/keys/m.svg"" width=""35%"" height=""75%""></img></td>
  </tr>
</table>
  ",,,,,,,,,,,,,,,,,,,,,,,,,,,
80,0,,html-keyboard-response,80,105028,0.0-4.11-3.11,avgoerpg3vf,2022-09-19 17:13:22.603,616d9ef881036dfbfd63d2f4,3,66,56,68,65,,,"<p style=""font-size:50px"">You win!
+10 points this round!</p>",,,,,,,,,,,,,,,,,,,,,,,,,,,
81,0,,html-keyboard-response,81,105547,0.0-4.11-4.11,avgoerpg3vf,2022-09-19 17:13:22.603,616d9ef881036dfbfd63d2f4,3,66,56,68,65,,,,,1.0,learning,11.0,Xnc,,black,,bolts,,,,Xnc,black,bolts,,0.0,0.0,0,right,523.2999999523,6.0,1.0,1.0,,,
82,0,,html-keyboard-response,82,107054,0.0-4.12-0.12,avgoerpg3vf,2022-09-19 17:13:22.603,616d9ef881036dfbfd63d2f4,3,66,56,68,65,,,"<img src=""static/images/cards/stack_of_black_moons.svg"" width=""175px"" height=""250px""></img>",,,,,,,,,,,,,,,,,,,,,,,,,,,
83,0,,html-keyboard-response,83,108209,0.0-4.12-1.12,avgoerpg3vf,2022-09-19 17:13:22.603,616d9ef881036dfbfd63d2f4,3,66,56,68,65,636.9000000954,,"
  <table>
  <tr height=300>
    <td width=300 height=300><img src=""static/images/cards/back_of_black_moons.svg"" width=""175px"" height=""250px""></img></td>
    <td width=300 height=300><img src=""static/images/cards/back_of_black_moons.svg"" width=""175px"" height=""250px""></img></td>
  </tr>
  <tr height=200>
    <td width=300><img src=""static/images/keys/z.svg"" width=""35%"" height=""75%""></img></td>
    <td width=300><img src=""static/images/keys/m.svg"" width=""35%"" height=""75%""></img></td>
  </tr>
</table>
  ",90.0,,,,,,,,,,,,,,,,,,,,,,,,,1.0,
84,0,,html-keyboard-response,84,109727,0.0-4.12-2.12,avgoerpg3vf,2022-09-19 17:13:22.603,616d9ef881036dfbfd63d2f4,3,66,56,68,65,,,"
  <table>
  <tr height=300>
    <td width=300 height=300><img src=""static/images/cards/6_of_black_moons.svg"" width=""175px"" height=""250px""></img></td>
    <td width=300 height=300><img src=""static/images/cards/back_of_black_moons.svg"" width=""175px"" height=""250px""></img></td>
  </tr>
  <tr height=200>
    <td width=300><img src=""static/images/keys/z.svg"" width=""35%"" height=""75%""></img></td>
    <td width=300><img src=""static/images/keys/m.svg"" width=""35%"" height=""75%""></img></td>
  </tr>
</table>
  ",,,,,,,,,,,,,,,,,,,,,,,,,,,
85,0,,html-keyboard-response,85,111244,0.0-4.12-3.12,avgoerpg3vf,2022-09-19 17:13:22.603,616d9ef881036dfbfd63d2f4,3,66,56,68,65,,,"<p style=""font-size:50px"">You win!
+10 points this round!</p>",,,,,,,,,,,,,,,,,,,,,,,,,,,
86,0,,html-keyboard-response,86,111749,0.0-4.12-4.12,avgoerpg3vf,2022-09-19 17:13:22.603,616d9ef881036dfbfd63d2f4,3,66,56,68,65,,,,,1.0,learning,12.0,A,,black,,moons,,,,A,black,moons,,1.0,1.0,NA,left,636.9000000954,6.0,1.0,1.0,,,
87,0,,html-keyboard-response,87,113259,0.0-4.13-0.13,avgoerpg3vf,2022-09-19 17:13:22.603,616d9ef881036dfbfd63d2f4,3,66,56,68,65,,,"<img src=""static/images/cards/stack_of_red_moons.svg"" width=""175px"" height=""250px""></img>",,,,,,,,,,,,,,,,,,,,,,,,,,,
88,0,,html-keyboard-response,88,114241,0.0-4.13-1.13,avgoerpg3vf,2022-09-19 17:13:22.603,616d9ef881036dfbfd63d2f4,3,66,56,68,65,478.0,,"
  <table>
  <tr height=300>
    <td width=300 height=300><img src=""static/images/cards/back_of_red_moons.svg"" width=""175px"" height=""250px""></img></td>
    <td width=300 height=300><img src=""static/images/cards/back_of_red_moons.svg"" width=""175px"" height=""250px""></img></td>
  </tr>
  <tr height=200>
    <td width=300><img src=""static/images/keys/z.svg"" width=""35%"" height=""75%""></img></td>
    <td width=300></td>
  </tr>
</table>
  ",90.0,,,,,,,,,,,,,,,,,,,,,,,,,1.0,
89,0,,html-keyboard-response,89,115751,0.0-4.13-2.13,avgoerpg3vf,2022-09-19 17:13:22.603,616d9ef881036dfbfd63d2f4,3,66,56,68,65,,,"
  <table>
  <tr height=300>
    <td width=300 height=300><img src=""static/images/cards/4_of_red_moons.svg"" width=""175px"" height=""250px""></img></td>
    <td width=300 height=300><img src=""static/images/cards/back_of_red_moons.svg"" width=""175px"" height=""250px""></img></td>
  </tr>
  <tr height=200>
    <td width=300><img src=""static/images/keys/z.svg"" width=""35%"" height=""75%""></img></td>
    <td width=300></td>
  </tr>
</table>
  ",,,,,,,,,,,,,,,,,,,,,,,,,,,
90,0,,html-keyboard-response,90,117260,0.0-4.13-3.13,avgoerpg3vf,2022-09-19 17:13:22.603,616d9ef881036dfbfd63d2f4,3,66,56,68,65,,,"<p style=""font-size:50px"">You Lose!
No points this round.</p>",,,,,,,,,,,,,,,,,,,,,,,,,,,
91,0,,html-keyboard-response,91,117765,0.0-4.13-4.13,avgoerpg3vf,2022-09-19 17:13:22.603,616d9ef881036dfbfd63d2f4,3,66,56,68,65,,,,,1.0,learning,13.0,B,,red,,moons,,,,B,red,moons,,0.0,1.0,1,left,478.0,4.0,0.0,0.0,,,
92,0,,html-keyboard-response,92,119273,0.0-4.14-0.14,avgoerpg3vf,2022-09-19 17:13:22.603,616d9ef881036dfbfd63d2f4,3,66,56,68,65,,,"<img src=""static/images/cards/stack_of_black_stars.svg"" width=""175px"" height=""250px""></img>",,,,,,,,,,,,,,,,,,,,,,,,,,,
93,0,,html-keyboard-response,93,120268,0.0-4.14-1.14,avgoerpg3vf,2022-09-19 17:13:22.603,616d9ef881036dfbfd63d2f4,3,66,56,68,65,492.0999999046,,"
  <table>
  <tr height=300>
    <td width=300 height=300><img src=""static/images/cards/back_of_black_stars.svg"" width=""175px"" height=""250px""></img></td>
    <td width=300 height=300><img src=""static/images/cards/back_of_black_stars.svg"" width=""175px"" height=""250px""></img></td>
  </tr>
  <tr height=200>
    <td width=300><img src=""static/images/keys/z.svg"" width=""35%"" height=""75%""></img></td>
    <td width=300><img src=""static/images/keys/m.svg"" width=""35%"" height=""75%""></img></td>
  </tr>
</table>
  ",77.0,,,,,,,,,,,,,,,,,,,,,,,,,1.0,
94,0,,html-keyboard-response,94,121785,0.0-4.14-2.14,avgoerpg3vf,2022-09-19 17:13:22.603,616d9ef881036dfbfd63d2f4,3,66,56,68,65,,,"
  <table>
  <tr height=300>
    <td width=300 height=300><img src=""static/images/cards/back_of_black_stars.svg"" width=""175px"" height=""250px""></img></td>
    <td width=300 height=300><img src=""static/images/cards/9_of_black_stars.svg"" width=""175px"" height=""250px""></img></td>
  </tr>
  <tr height=200>
    <td width=300><img src=""static/images/keys/z.svg"" width=""35%"" height=""75%""></img></td>
    <td width=300><img src=""static/images/keys/m.svg"" width=""35%"" height=""75%""></img></td>
  </tr>
</table>
  ",,,,,,,,,,,,,,,,,,,,,,,,,,,
95,0,,html-keyboard-response,95,123310,0.0-4.14-3.14,avgoerpg3vf,2022-09-19 17:13:22.603,616d9ef881036dfbfd63d2f4,3,66,56,68,65,,,"<p style=""font-size:50px"">You win!
+10 points this round!</p>",,,,,,,,,,,,,,,,,,,,,,,,,,,
96,0,,html-keyboard-response,96,123831,0.0-4.14-4.14,avgoerpg3vf,2022-09-19 17:13:22.603,616d9ef881036dfbfd63d2f4,3,66,56,68,65,,,,,1.0,learning,14.0,C,,black,,stars,,,,C,black,stars,,1.0,0.0,NA,right,492.0999999046,9.0,1.0,1.0,,,
97,0,,html-keyboard-response,97,125338,0.0-4.15-0.15,avgoerpg3vf,2022-09-19 17:13:22.603,616d9ef881036dfbfd63d2f4,3,66,56,68,65,,,"<img src=""static/images/cards/stack_of_red_stars.svg"" width=""175px"" height=""250px""></img>",,,,,,,,,,,,,,,,,,,,,,,,,,,
98,0,,html-keyboard-response,98,126492,0.0-4.15-1.15,avgoerpg3vf,2022-09-19 17:13:22.603,616d9ef881036dfbfd63d2f4,3,66,56,68,65,638.0,,"
  <table>
  <tr height=300>
    <td width=300 height=300><img src=""static/images/cards/back_of_red_stars.svg"" width=""175px"" height=""250px""></img></td>
    <td width=300 height=300><img src=""static/images/cards/back_of_red_stars.svg"" width=""175px"" height=""250px""></img></td>
  </tr>
  <tr height=200>
    <td width=300><img src=""static/images/keys/z.svg"" width=""35%"" height=""75%""></img></td>
    <td width=300></td>
  </tr>
</table>
  ",90.0,,,,,,,,,,,,,,,,,,,,,,,,,1.0,
99,0,,html-keyboard-response,99,128006,0.0-4.15-2.15,avgoerpg3vf,2022-09-19 17:13:22.603,616d9ef881036dfbfd63d2f4,3,66,56,68,65,,,"
  <table>
  <tr height=300>
    <td width=300 height=300><img src=""static/images/cards/4_of_red_stars.svg"" width=""175px"" height=""250px""></img></td>
    <td width=300 height=300><img src=""static/images/cards/back_of_red_stars.svg"" width=""175px"" height=""250px""></img></td>
  </tr>
  <tr height=200>
    <td width=300><img src=""static/images/keys/z.svg"" width=""35%"" height=""75%""></img></td>
    <td width=300></td>
  </tr>
</table>
  ",,,,,,,,,,,,,,,,,,,,,,,,,,,
100,0,,html-keyboard-response,100,129520,0.0-4.15-3.15,avgoerpg3vf,2022-09-19 17:13:22.603,616d9ef881036dfbfd63d2f4,3,66,56,68,65,,,"<p style=""font-size:50px"">You Lose!
No points this round.</p>",,,,,,,,,,,,,,,,,,,,,,,,,,,
101,0,,html-keyboard-response,101,130037,0.0-4.15-4.15,avgoerpg3vf,2022-09-19 17:13:22.603,616d9ef881036dfbfd63d2f4,3,66,56,68,65,,,,,1.0,learning,15.0,D,,red,,stars,,,,D,red,stars,,0.0,0.0,1,left,638.0,4.0,0.0,0.0,,,
102,0,,html-keyboard-response,102,131549,0.0-4.16-0.16,avgoerpg3vf,2022-09-19 17:13:22.603,616d9ef881036dfbfd63d2f4,3,66,56,68,65,,,"<img src=""static/images/cards/stack_of_red_bolts.svg"" width=""175px"" height=""250px""></img>",,,,,,,,,,,,,,,,,,,,,,,,,,,
103,0,,html-keyboard-response,103,132434,0.0-4.16-1.16,avgoerpg3vf,2022-09-19 17:13:22.603,616d9ef881036dfbfd63d2f4,3,66,56,68,65,369.2999999523,,"
  <table>
  <tr height=300>
    <td width=300 height=300><img src=""static/images/cards/back_of_red_bolts.svg"" width=""175px"" height=""250px""></img></td>
    <td width=300 height=300><img src=""static/images/cards/back_of_red_bolts.svg"" width=""175px"" height=""250px""></img></td>
  </tr>
  <tr height=200>
    <td width=300><img src=""static/images/keys/z.svg"" width=""35%"" height=""75%""></img></td>
    <td width=300><img src=""static/images/keys/m.svg"" width=""35%"" height=""75%""></img></td>
  </tr>
</table>
  ",77.0,,,,,,,,,,,,,,,,,,,,,,,,,1.0,
104,0,,html-keyboard-response,104,133949,0.0-4.16-2.16,avgoerpg3vf,2022-09-19 17:13:22.603,616d9ef881036dfbfd63d2f4,3,66,56,68,65,,,"
  <table>
  <tr height=300>
    <td width=300 height=300><img src=""static/images/cards/back_of_red_bolts.svg"" width=""175px"" height=""250px""></img></td>
    <td width=300 height=300><img src=""static/images/cards/4_of_red_bolts.svg"" width=""175px"" height=""250px""></img></td>
  </tr>
  <tr height=200>
    <td width=300><img src=""static/images/keys/z.svg"" width=""35%"" height=""75%""></img></td>
    <td width=300><img src=""static/images/keys/m.svg"" width=""35%"" height=""75%""></img></td>
  </tr>
</table>
  ",,,,,,,,,,,,,,,,,,,,,,,,,,,
105,0,,html-keyboard-response,105,135477,0.0-4.16-3.16,avgoerpg3vf,2022-09-19 17:13:22.603,616d9ef881036dfbfd63d2f4,3,66,56,68,65,,,"<p style=""font-size:50px"">You win!
+10 points this round!</p>",,,,,,,,,,,,,,,,,,,,,,,,,,,
106,0,,html-keyboard-response,106,135997,0.0-4.16-4.16,avgoerpg3vf,2022-09-19 17:13:22.603,616d9ef881036dfbfd63d2f4,3,66,56,68,65,,,,,1.0,learning,16.0,Xc,,red,,bolts,,,,Xc,red,bolts,,1.0,0.0,NA,right,369.2999999523,4.0,0.0,1.0,,,
107,0,,html-keyboard-response,107,137504,0.0-4.17-0.17,avgoerpg3vf,2022-09-19 17:13:22.603,616d9ef881036dfbfd63d2f4,3,66,56,68,65,,,"<img src=""static/images/cards/stack_of_black_bolts.svg"" width=""175px"" height=""250px""></img>",,,,,,,,,,,,,,,,,,,,,,,,,,,
108,0,,html-keyboard-response,108,139114,0.0-4.17-1.17,avgoerpg3vf,2022-09-19 17:13:22.603,616d9ef881036dfbfd63d2f4,3,66,56,68,65,1095.0999999046,,"
  <table>
  <tr height=300>
    <td width=300 height=300><img src=""static/images/cards/back_of_black_bolts.svg"" width=""175px"" height=""250px""></img></td>
    <td width=300 height=300><img src=""static/images/cards/back_of_black_bolts.svg"" width=""175px"" height=""250px""></img></td>
  </tr>
  <tr height=200>
    <td width=300><img src=""static/images/keys/z.svg"" width=""35%"" height=""75%""></img></td>
    <td width=300></td>
  </tr>
</table>
  ",90.0,,,,,,,,,,,,,,,,,,,,,,,,,1.0,
109,0,,html-keyboard-response,109,140622,0.0-4.17-2.17,avgoerpg3vf,2022-09-19 17:13:22.603,616d9ef881036dfbfd63d2f4,3,66,56,68,65,,,"
  <table>
  <tr height=300>
    <td width=300 height=300><img src=""static/images/cards/6_of_black_bolts.svg"" width=""175px"" height=""250px""></img></td>
    <td width=300 height=300><img src=""static/images/cards/back_of_black_bolts.svg"" width=""175px"" height=""250px""></img></td>
  </tr>
  <tr height=200>
    <td width=300><img src=""static/images/keys/z.svg"" width=""35%"" height=""75%""></img></td>
    <td width=300></td>
  </tr>
</table>
  ",,,,,,,,,,,,,,,,,,,,,,,,,,,
110,0,,html-keyboard-response,110,142147,0.0-4.17-3.17,avgoerpg3vf,2022-09-19 17:13:22.603,616d9ef881036dfbfd63d2f4,3,66,56,68,65,,,"<p style=""font-size:50px"">You win!
+10 points this round!</p>",,,,,,,,,,,,,,,,,,,,,,,,,,,
111,0,,html-keyboard-response,111,142668,0.0-4.17-4.17,avgoerpg3vf,2022-09-19 17:13:22.603,616d9ef881036dfbfd63d2f4,3,66,56,68,65,,,,,1.0,learning,17.0,Xnc,,black,,bolts,,,,Xnc,black,bolts,,0.0,0.0,1,left,1095.0999999046,6.0,1.0,1.0,,,
112,0,,html-keyboard-response,112,144173,0.0-4.18-0.18,avgoerpg3vf,2022-09-19 17:13:22.603,616d9ef881036dfbfd63d2f4,3,66,56,68,65,,,"<img src=""static/images/cards/stack_of_black_moons.svg"" width=""175px"" height=""250px""></img>",,,,,,,,,,,,,,,,,,,,,,,,,,,
113,0,,html-keyboard-response,113,145251,0.0-4.18-1.18,avgoerpg3vf,2022-09-19 17:13:22.603,616d9ef881036dfbfd63d2f4,3,66,56,68,65,559.2000000477,,"
  <table>
  <tr height=300>
    <td width=300 height=300><img src=""static/images/cards/back_of_black_moons.svg"" width=""175px"" height=""250px""></img></td>
    <td width=300 height=300><img src=""static/images/cards/back_of_black_moons.svg"" width=""175px"" height=""250px""></img></td>
  </tr>
  <tr height=200>
    <td width=300><img src=""static/images/keys/z.svg"" width=""35%"" height=""75%""></img></td>
    <td width=300><img src=""static/images/keys/m.svg"" width=""35%"" height=""75%""></img></td>
  </tr>
</table>
  ",77.0,,,,,,,,,,,,,,,,,,,,,,,,,1.0,
114,0,,html-keyboard-response,114,146762,0.0-4.18-2.18,avgoerpg3vf,2022-09-19 17:13:22.603,616d9ef881036dfbfd63d2f4,3,66,56,68,65,,,"
  <table>
  <tr height=300>
    <td width=300 height=300><img src=""static/images/cards/back_of_black_moons.svg"" width=""175px"" height=""250px""></img></td>
    <td width=300 height=300><img src=""static/images/cards/3_of_black_moons.svg"" width=""175px"" height=""250px""></img></td>
  </tr>
  <tr height=200>
    <td width=300><img src=""static/images/keys/z.svg"" width=""35%"" height=""75%""></img></td>
    <td width=300><img src=""static/images/keys/m.svg"" width=""35%"" height=""75%""></img></td>
  </tr>
</table>
  ",,,,,,,,,,,,,,,,,,,,,,,,,,,
115,0,,html-keyboard-response,115,148286,0.0-4.18-3.18,avgoerpg3vf,2022-09-19 17:13:22.603,616d9ef881036dfbfd63d2f4,3,66,56,68,65,,,"<p style=""font-size:50px"">You Lose!
No points this round.</p>",,,,,,,,,,,,,,,,,,,,,,,,,,,
116,0,,html-keyboard-response,116,148804,0.0-4.18-4.18,avgoerpg3vf,2022-09-19 17:13:22.603,616d9ef881036dfbfd63d2f4,3,66,56,68,65,,,,,1.0,learning,18.0,A,,black,,moons,,,,A,black,moons,,1.0,1.0,NA,right,559.2000000477,3.0,0.0,0.0,,,
117,0,,html-keyboard-response,117,150311,0.0-4.19-0.19,avgoerpg3vf,2022-09-19 17:13:22.603,616d9ef881036dfbfd63d2f4,3,66,56,68,65,,,"<img src=""static/images/cards/stack_of_red_moons.svg"" width=""175px"" height=""250px""></img>",,,,,,,,,,,,,,,,,,,,,,,,,,,
118,0,,html-keyboard-response,118,151562,0.0-4.19-1.19,avgoerpg3vf,2022-09-19 17:13:22.603,616d9ef881036dfbfd63d2f4,3,66,56,68,65,732.7999999523,,"
  <table>
  <tr height=300>
    <td width=300 height=300><img src=""static/images/cards/back_of_red_moons.svg"" width=""175px"" height=""250px""></img></td>
    <td width=300 height=300><img src=""static/images/cards/back_of_red_moons.svg"" width=""175px"" height=""250px""></img></td>
  </tr>
  <tr height=200>
    <td width=300></td>
    <td width=300><img src=""static/images/keys/m.svg"" width=""35%"" height=""75%""></img></td>
  </tr>
</table>
  ",77.0,,,,,,,,,,,,,,,,,,,,,,,,,1.0,
119,0,,html-keyboard-response,119,153074,0.0-4.19-2.19,avgoerpg3vf,2022-09-19 17:13:22.603,616d9ef881036dfbfd63d2f4,3,66,56,68,65,,,"
  <table>
  <tr height=300>
    <td width=300 height=300><img src=""static/images/cards/back_of_red_moons.svg"" width=""175px"" height=""250px""></img></td>
    <td width=300 height=300><img src=""static/images/cards/6_of_red_moons.svg"" width=""175px"" height=""250px""></img></td>
  </tr>
  <tr height=200>
    <td width=300></td>
    <td width=300><img src=""static/images/keys/m.svg"" width=""35%"" height=""75%""></img></td>
  </tr>
</table>
  ",,,,,,,,,,,,,,,,,,,,,,,,,,,
120,0,,html-keyboard-response,120,154601,0.0-4.19-3.19,avgoerpg3vf,2022-09-19 17:13:22.603,616d9ef881036dfbfd63d2f4,3,66,56,68,65,,,"<p style=""font-size:50px"">You win!
+10 points this round!</p>",,,,,,,,,,,,,,,,,,,,,,,,,,,
121,0,,html-keyboard-response,121,155120,0.0-4.19-4.19,avgoerpg3vf,2022-09-19 17:13:22.603,616d9ef881036dfbfd63d2f4,3,66,56,68,65,,,,,1.0,learning,19.0,B,,red,,moons,,,,B,red,moons,,0.0,1.0,0,right,732.7999999523,6.0,1.0,1.0,,,
122,0,,html-keyboard-response,122,156629,0.0-4.20-0.20,avgoerpg3vf,2022-09-19 17:13:22.603,616d9ef881036dfbfd63d2f4,3,66,56,68,65,,,"<img src=""static/images/cards/stack_of_black_stars.svg"" width=""175px"" height=""250px""></img>",,,,,,,,,,,,,,,,,,,,,,,,,,,
123,0,,html-keyboard-response,123,157646,0.0-4.20-1.20,avgoerpg3vf,2022-09-19 17:13:22.603,616d9ef881036dfbfd63d2f4,3,66,56,68,65,502.0,,"
  <table>
  <tr height=300>
    <td width=300 height=300><img src=""static/images/cards/back_of_black_stars.svg"" width=""175px"" height=""250px""></img></td>
    <td width=300 height=300><img src=""static/images/cards/back_of_black_stars.svg"" width=""175px"" height=""250px""></img></td>
  </tr>
  <tr height=200>
    <td width=300><img src=""static/images/keys/z.svg"" width=""35%"" height=""75%""></img></td>
    <td width=300><img src=""static/images/keys/m.svg"" width=""35%"" height=""75%""></img></td>
  </tr>
</table>
  ",90.0,,,,,,,,,,,,,,,,,,,,,,,,,1.0,
124,0,,html-keyboard-response,124,159152,0.0-4.20-2.20,avgoerpg3vf,2022-09-19 17:13:22.603,616d9ef881036dfbfd63d2f4,3,66,56,68,65,,,"
  <table>
  <tr height=300>
    <td width=300 height=300><img src=""static/images/cards/2_of_black_stars.svg"" width=""175px"" height=""250px""></img></td>
    <td width=300 height=300><img src=""static/images/cards/back_of_black_stars.svg"" width=""175px"" height=""250px""></img></td>
  </tr>
  <tr height=200>
    <td width=300><img src=""static/images/keys/z.svg"" width=""35%"" height=""75%""></img></td>
    <td width=300><img src=""static/images/keys/m.svg"" width=""35%"" height=""75%""></img></td>
  </tr>
</table>
  ",,,,,,,,,,,,,,,,,,,,,,,,,,,
125,0,,html-keyboard-response,125,160678,0.0-4.20-3.20,avgoerpg3vf,2022-09-19 17:13:22.603,616d9ef881036dfbfd63d2f4,3,66,56,68,65,,,"<p style=""font-size:50px"">You win!
+10 points this round!</p>",,,,,,,,,,,,,,,,,,,,,,,,,,,
126,0,,html-keyboard-response,126,161200,0.0-4.20-4.20,avgoerpg3vf,2022-09-19 17:13:22.603,616d9ef881036dfbfd63d2f4,3,66,56,68,65,,,,,1.0,learning,20.0,C,,black,,stars,,,,C,black,stars,,1.0,0.0,NA,left,502.0,2.0,0.0,1.0,,,
127,0,,html-keyboard-response,127,162707,0.0-4.21-0.21,avgoerpg3vf,2022-09-19 17:13:22.603,616d9ef881036dfbfd63d2f4,3,66,56,68,65,,,"<img src=""static/images/cards/stack_of_red_stars.svg"" width=""175px"" height=""250px""></img>",,,,,,,,,,,,,,,,,,,,,,,,,,,
128,0,,html-keyboard-response,128,163539,0.0-4.21-1.21,avgoerpg3vf,2022-09-19 17:13:22.603,616d9ef881036dfbfd63d2f4,3,66,56,68,65,316.6000001431,,"
  <table>
  <tr height=300>
    <td width=300 height=300><img src=""static/images/cards/back_of_red_stars.svg"" width=""175px"" height=""250px""></img></td>
    <td width=300 height=300><img src=""static/images/cards/back_of_red_stars.svg"" width=""175px"" height=""250px""></img></td>
  </tr>
  <tr height=200>
    <td width=300></td>
    <td width=300><img src=""static/images/keys/m.svg"" width=""35%"" height=""75%""></img></td>
  </tr>
</table>
  ",77.0,,,,,,,,,,,,,,,,,,,,,,,,,1.0,
129,0,,html-keyboard-response,129,165050,0.0-4.21-2.21,avgoerpg3vf,2022-09-19 17:13:22.603,616d9ef881036dfbfd63d2f4,3,66,56,68,65,,,"
  <table>
  <tr height=300>
    <td width=300 height=300><img src=""static/images/cards/back_of_red_stars.svg"" width=""175px"" height=""250px""></img></td>
    <td width=300 height=300><img src=""static/images/cards/8_of_red_stars.svg"" width=""175px"" height=""250px""></img></td>
  </tr>
  <tr height=200>
    <td width=300></td>
    <td width=300><img src=""static/images/keys/m.svg"" width=""35%"" height=""75%""></img></td>
  </tr>
</table>
  ",,,,,,,,,,,,,,,,,,,,,,,,,,,
130,0,,html-keyboard-response,130,166577,0.0-4.21-3.21,avgoerpg3vf,2022-09-19 17:13:22.603,616d9ef881036dfbfd63d2f4,3,66,56,68,65,,,"<p style=""font-size:50px"">You win!
+10 points this round!</p>",,,,,,,,,,,,,,,,,,,,,,,,,,,
131,0,,html-keyboard-response,131,167083,0.0-4.21-4.21,avgoerpg3vf,2022-09-19 17:13:22.603,616d9ef881036dfbfd63d2f4,3,66,56,68,65,,,,,1.0,learning,21.0,D,,red,,stars,,,,D,red,stars,,0.0,0.0,0,right,316.6000001431,8.0,1.0,1.0,,,
132,0,,html-keyboard-response,132,168586,0.0-4.22-0.22,avgoerpg3vf,2022-09-19 17:13:22.603,616d9ef881036dfbfd63d2f4,3,66,56,68,65,,,"<img src=""static/images/cards/stack_of_red_bolts.svg"" width=""175px"" height=""250px""></img>",,,,,,,,,,,,,,,,,,,,,,,,,,,
133,0,,html-keyboard-response,133,169563,0.0-4.22-1.22,avgoerpg3vf,2022-09-19 17:13:22.603,616d9ef881036dfbfd63d2f4,3,66,56,68,65,462.7999999523,,"
  <table>
  <tr height=300>
    <td width=300 height=300><img src=""static/images/cards/back_of_red_bolts.svg"" width=""175px"" height=""250px""></img></td>
    <td width=300 height=300><img src=""static/images/cards/back_of_red_bolts.svg"" width=""175px"" height=""250px""></img></td>
  </tr>
  <tr height=200>
    <td width=300><img src=""static/images/keys/z.svg"" width=""35%"" height=""75%""></img></td>
    <td width=300><img src=""static/images/keys/m.svg"" width=""35%"" height=""75%""></img></td>
  </tr>
</table>
  ",90.0,,,,,,,,,,,,,,,,,,,,,,,,,1.0,
134,0,,html-keyboard-response,134,171066,0.0-4.22-2.22,avgoerpg3vf,2022-09-19 17:13:22.603,616d9ef881036dfbfd63d2f4,3,66,56,68,65,,,"
  <table>
  <tr height=300>
    <td width=300 height=300><img src=""static/images/cards/7_of_red_bolts.svg"" width=""175px"" height=""250px""></img></td>
    <td width=300 height=300><img src=""static/images/cards/back_of_red_bolts.svg"" width=""175px"" height=""250px""></img></td>
  </tr>
  <tr height=200>
    <td width=300><img src=""static/images/keys/z.svg"" width=""35%"" height=""75%""></img></td>
    <td width=300><img src=""static/images/keys/m.svg"" width=""35%"" height=""75%""></img></td>
  </tr>
</table>
  ",,,,,,,,,,,,,,,,,,,,,,,,,,,
135,0,,html-keyboard-response,135,172595,0.0-4.22-3.22,avgoerpg3vf,2022-09-19 17:13:22.603,616d9ef881036dfbfd63d2f4,3,66,56,68,65,,,"<p style=""font-size:50px"">You win!
+10 points this round!</p>",,,,,,,,,,,,,,,,,,,,,,,,,,,
136,0,,html-keyboard-response,136,173113,0.0-4.22-4.22,avgoerpg3vf,2022-09-19 17:13:22.603,616d9ef881036dfbfd63d2f4,3,66,56,68,65,,,,,1.0,learning,22.0,Xc,,red,,bolts,,,,Xc,red,bolts,,1.0,0.0,NA,left,462.7999999523,7.0,1.0,1.0,,,
137,0,,html-keyboard-response,137,174619,0.0-4.23-0.23,avgoerpg3vf,2022-09-19 17:13:22.603,616d9ef881036dfbfd63d2f4,3,66,56,68,65,,,"<img src=""static/images/cards/stack_of_black_bolts.svg"" width=""175px"" height=""250px""></img>",,,,,,,,,,,,,,,,,,,,,,,,,,,
138,0,,html-keyboard-response,138,175877,0.0-4.23-1.23,avgoerpg3vf,2022-09-19 17:13:22.603,616d9ef881036dfbfd63d2f4,3,66,56,68,65,744.3000001907,,"
  <table>
  <tr height=300>
    <td width=300 height=300><img src=""static/images/cards/back_of_black_bolts.svg"" width=""175px"" height=""250px""></img></td>
    <td width=300 height=300><img src=""static/images/cards/back_of_black_bolts.svg"" width=""175px"" height=""250px""></img></td>
  </tr>
  <tr height=200>
    <td width=300><img src=""static/images/keys/z.svg"" width=""35%"" height=""75%""></img></td>
    <td width=300></td>
  </tr>
</table>
  ",90.0,,,,,,,,,,,,,,,,,,,,,,,,,1.0,
139,0,,html-keyboard-response,139,177387,0.0-4.23-2.23,avgoerpg3vf,2022-09-19 17:13:22.603,616d9ef881036dfbfd63d2f4,3,66,56,68,65,,,"
  <table>
  <tr height=300>
    <td width=300 height=300><img src=""static/images/cards/3_of_black_bolts.svg"" width=""175px"" height=""250px""></img></td>
    <td width=300 height=300><img src=""static/images/cards/back_of_black_bolts.svg"" width=""175px"" height=""250px""></img></td>
  </tr>
  <tr height=200>
    <td width=300><img src=""static/images/keys/z.svg"" width=""35%"" height=""75%""></img></td>
    <td width=300></td>
  </tr>
</table>
  ",,,,,,,,,,,,,,,,,,,,,,,,,,,
140,0,,html-keyboard-response,140,178917,0.0-4.23-3.23,avgoerpg3vf,2022-09-19 17:13:22.603,616d9ef881036dfbfd63d2f4,3,66,56,68,65,,,"<p style=""font-size:50px"">You win!
+10 points this round!</p>",,,,,,,,,,,,,,,,,,,,,,,,,,,
141,0,,html-keyboard-response,141,179435,0.0-4.23-4.23,avgoerpg3vf,2022-09-19 17:13:22.603,616d9ef881036dfbfd63d2f4,3,66,56,68,65,,,,,1.0,learning,23.0,Xnc,,black,,bolts,,,,Xnc,black,bolts,,0.0,0.0,1,left,744.3000001907,3.0,0.0,1.0,,,
142,0,,call-function,142,179446,0.0-5.0,avgoerpg3vf,2022-09-19 17:13:22.603,616d9ef881036dfbfd63d2f4,3,66,56,68,65,,,,,,,,,,,,,,,,,,,,,,,,,,,,,,
143,0,,image-keyboard-response,143,182040,0.0-6.0-0.0,avgoerpg3vf,2022-09-19 17:13:22.603,616d9ef881036dfbfd63d2f4,3,66,56,68,65,2592.7000000477,,static/images/instructions_CB_3/Slide20.png,39.0,,,,,,,,,,,,,,,,,,,,,,,,,,
144,0,,image-keyboard-response,144,182734,0.0-6.1-0.1,avgoerpg3vf,2022-09-19 17:13:22.603,616d9ef881036dfbfd63d2f4,3,66,56,68,65,692.6999998093,,static/images/instructions_CB_3/Slide21.png,39.0,,,,,,,,,,,,,,,,,,,,,,,,,,
145,0,,image-keyboard-response,145,185133,0.0-6.2-0.2,avgoerpg3vf,2022-09-19 17:13:22.603,616d9ef881036dfbfd63d2f4,3,66,56,68,65,2397.0,,static/images/instructions_CB_3/Slide22.png,39.0,,,,,,,,,,,,,,,,,,,,,,,,,,
146,0,,image-keyboard-response,146,185850,0.0-6.3-0.3,avgoerpg3vf,2022-09-19 17:13:22.603,616d9ef881036dfbfd63d2f4,3,66,56,68,65,715.5,,static/images/instructions_CB_3/Slide23.png,39.0,,,,,,,,,,,,,,,,,,,,,,,,,,
147,0,,image-keyboard-response,147,186335,0.0-6.4-0.4,avgoerpg3vf,2022-09-19 17:13:22.603,616d9ef881036dfbfd63d2f4,3,66,56,68,65,483.6000001431,,static/images/instructions_CB_3/Slide24.png,39.0,,,,,,,,,,,,,,,,,,,,,,,,,,
148,0,,html-keyboard-response,148,188446,0.0-7.0-0.0,avgoerpg3vf,2022-09-19 17:13:22.603,616d9ef881036dfbfd63d2f4,3,66,56,68,65,2108.7999999523,,"
  <table>
  <tr height=300>
    <td width=300 height=300><img src=""static/images/cards/stack_of_black_moons.svg"" width=""175px"" height=""250px""></img></td>
    <td width=300 height=300><img src=""static/images/cards/stack_of_red_stars.svg"" width=""175px"" height=""250px""></img></td>
  </tr>
  <tr height=200>
    <td width=300><img src=""static/images/keys/w.svg"" width=""35%"" height=""75%""></img></td>
    <td width=300><img src=""static/images/keys/o.svg"" width=""35%"" height=""75%""></img></td>
  </tr>
</table>
  ",87.0,,,,,,,,,,,,,,,,,,,,,,,,,1.0,
149,0,,html-keyboard-response,149,190595,0.0-7.0-1.0,avgoerpg3vf,2022-09-19 17:13:22.603,616d9ef881036dfbfd63d2f4,3,66,56,68,65,1635.8999998569,,"
  <table>
  <tr height=300>
    <td width=300 height=300><img src=""static/images/cards/back_of_black_moons.svg"" width=""175px"" height=""250px""></img></td>
    <td width=300 height=300><img src=""static/images/cards/back_of_black_moons.svg"" width=""175px"" height=""250px""></img></td>
  </tr>
  <tr height=200>
    <td width=300><img src=""static/images/keys/z.svg"" width=""35%"" height=""75%""></img></td>
    <td width=300><img src=""static/images/keys/m.svg"" width=""35%"" height=""75%""></img></td>
  </tr>
</table>
  ",90.0,,,,,,,,,,,,,,,,,,,,,,,,,1.0,
150,0,,html-keyboard-response,150,192107,0.0-7.0-2.0,avgoerpg3vf,2022-09-19 17:13:22.603,616d9ef881036dfbfd63d2f4,3,66,56,68,65,,,"
  <table>
  <tr height=300>
    <td width=300 height=300><img src=""static/images/cards/4_of_black_moons.svg"" width=""175px"" height=""250px""></img></td>
    <td width=300 height=300><img src=""static/images/cards/back_of_black_moons.svg"" width=""175px"" height=""250px""></img></td>
  </tr>
  <tr height=200>
    <td width=300><img src=""static/images/keys/z.svg"" width=""35%"" height=""75%""></img></td>
    <td width=300><img src=""static/images/keys/m.svg"" width=""35%"" height=""75%""></img></td>
  </tr>
</table>
  ",,,,,,,,,,,,,,,,,,,,,,,,,,,
151,0,,html-keyboard-response,151,193639,0.0-7.0-3.0,avgoerpg3vf,2022-09-19 17:13:22.603,616d9ef881036dfbfd63d2f4,3,66,56,68,65,,,"<p style=""font-size:50px"">You Lose!
No points this round.</p>",,,,,,,,,,,,,,,,,,,,,,,,,,,
152,0,,html-keyboard-response,152,194159,0.0-7.0-4.0,avgoerpg3vf,2022-09-19 17:13:22.603,616d9ef881036dfbfd63d2f4,3,66,56,68,65,,,,,1.0,choice,0.0,A,D,black,red,moons,stars,A,D,A,black,moons,2108.7999999523,1.0,1.0,NA,left,1635.8999998569,4.0,0.0,0.0,,,
153,0,,html-keyboard-response,153,194783,0.0-7.1-0.1,avgoerpg3vf,2022-09-19 17:13:22.603,616d9ef881036dfbfd63d2f4,3,66,56,68,65,621.2000000477,,"
  <table>
  <tr height=300>
    <td width=300 height=300><img src=""static/images/cards/stack_of_red_moons.svg"" width=""175px"" height=""250px""></img></td>
    <td width=300 height=300><img src=""static/images/cards/stack_of_red_stars.svg"" width=""175px"" height=""250px""></img></td>
  </tr>
  <tr height=200>
    <td width=300><img src=""static/images/keys/w.svg"" width=""35%"" height=""75%""></img></td>
    <td width=300><img src=""static/images/keys/o.svg"" width=""35%"" height=""75%""></img></td>
  </tr>
</table>
  ",87.0,,,,,,,,,,,,,,,,,,,,,,,,,1.0,
154,0,,html-keyboard-response,154,196270,0.0-7.1-1.1,avgoerpg3vf,2022-09-19 17:13:22.603,616d9ef881036dfbfd63d2f4,3,66,56,68,65,975.2000000477,,"
  <table>
  <tr height=300>
    <td width=300 height=300><img src=""static/images/cards/back_of_red_moons.svg"" width=""175px"" height=""250px""></img></td>
    <td width=300 height=300><img src=""static/images/cards/back_of_red_moons.svg"" width=""175px"" height=""250px""></img></td>
  </tr>
  <tr height=200>
    <td width=300></td>
    <td width=300><img src=""static/images/keys/m.svg"" width=""35%"" height=""75%""></img></td>
  </tr>
</table>
  ",77.0,,,,,,,,,,,,,,,,,,,,,,,,,1.0,
155,0,,html-keyboard-response,155,197775,0.0-7.1-2.1,avgoerpg3vf,2022-09-19 17:13:22.603,616d9ef881036dfbfd63d2f4,3,66,56,68,65,,,"
  <table>
  <tr height=300>
    <td width=300 height=300><img src=""static/images/cards/back_of_red_moons.svg"" width=""175px"" height=""250px""></img></td>
    <td width=300 height=300><img src=""static/images/cards/8_of_red_moons.svg"" width=""175px"" height=""250px""></img></td>
  </tr>
  <tr height=200>
    <td width=300></td>
    <td width=300><img src=""static/images/keys/m.svg"" width=""35%"" height=""75%""></img></td>
  </tr>
</table>
  ",,,,,,,,,,,,,,,,,,,,,,,,,,,
156,0,,html-keyboard-response,156,199292,0.0-7.1-3.1,avgoerpg3vf,2022-09-19 17:13:22.603,616d9ef881036dfbfd63d2f4,3,66,56,68,65,,,"<p style=""font-size:50px"">You win!
+10 points this round!</p>",,,,,,,,,,,,,,,,,,,,,,,,,,,
157,0,,html-keyboard-response,157,199812,0.0-7.1-4.1,avgoerpg3vf,2022-09-19 17:13:22.603,616d9ef881036dfbfd63d2f4,3,66,56,68,65,,,,,1.0,choice,1.0,B,D,red,red,moons,stars,B,D,B,red,moons,621.2000000477,0.0,1.0,0,right,975.2000000477,8.0,1.0,1.0,,,
158,0,,html-keyboard-response,158,200260,0.0-7.2-0.2,avgoerpg3vf,2022-09-19 17:13:22.603,616d9ef881036dfbfd63d2f4,3,66,56,68,65,445.2000000477,,"
  <table>
  <tr height=300>
    <td width=300 height=300><img src=""static/images/cards/stack_of_red_moons.svg"" width=""175px"" height=""250px""></img></td>
    <td width=300 height=300><img src=""static/images/cards/stack_of_red_stars.svg"" width=""175px"" height=""250px""></img></td>
  </tr>
  <tr height=200>
    <td width=300><img src=""static/images/keys/w.svg"" width=""35%"" height=""75%""></img></td>
    <td width=300><img src=""static/images/keys/o.svg"" width=""35%"" height=""75%""></img></td>
  </tr>
</table>
  ",87.0,,,,,,,,,,,,,,,,,,,,,,,,,1.0,
159,0,,html-keyboard-response,159,201095,0.0-7.2-1.2,avgoerpg3vf,2022-09-19 17:13:22.603,616d9ef881036dfbfd63d2f4,3,66,56,68,65,324.3999998569,,"
  <table>
  <tr height=300>
    <td width=300 height=300><img src=""static/images/cards/back_of_red_moons.svg"" width=""175px"" height=""250px""></img></td>
    <td width=300 height=300><img src=""static/images/cards/back_of_red_moons.svg"" width=""175px"" height=""250px""></img></td>
  </tr>
  <tr height=200>
    <td width=300></td>
    <td width=300><img src=""static/images/keys/m.svg"" width=""35%"" height=""75%""></img></td>
  </tr>
</table>
  ",77.0,,,,,,,,,,,,,,,,,,,,,,,,,1.0,
160,0,,html-keyboard-response,160,202609,0.0-7.2-2.2,avgoerpg3vf,2022-09-19 17:13:22.603,616d9ef881036dfbfd63d2f4,3,66,56,68,65,,,"
  <table>
  <tr height=300>
    <td width=300 height=300><img src=""static/images/cards/back_of_red_moons.svg"" width=""175px"" height=""250px""></img></td>
    <td width=300 height=300><img src=""static/images/cards/7_of_red_moons.svg"" width=""175px"" height=""250px""></img></td>
  </tr>
  <tr height=200>
    <td width=300></td>
    <td width=300><img src=""static/images/keys/m.svg"" width=""35%"" height=""75%""></img></td>
  </tr>
</table>
  ",,,,,,,,,,,,,,,,,,,,,,,,,,,
161,0,,html-keyboard-response,161,204135,0.0-7.2-3.2,avgoerpg3vf,2022-09-19 17:13:22.603,616d9ef881036dfbfd63d2f4,3,66,56,68,65,,,"<p style=""font-size:50px"">You win!
+10 points this round!</p>",,,,,,,,,,,,,,,,,,,,,,,,,,,
162,0,,html-keyboard-response,162,204654,0.0-7.2-4.2,avgoerpg3vf,2022-09-19 17:13:22.603,616d9ef881036dfbfd63d2f4,3,66,56,68,65,,,,,1.0,choice,2.0,B,D,red,red,moons,stars,B,D,B,red,moons,445.2000000477,0.0,1.0,0,right,324.3999998569,7.0,1.0,1.0,,,
163,0,,html-keyboard-response,163,204981,0.0-7.3-0.3,avgoerpg3vf,2022-09-19 17:13:22.603,616d9ef881036dfbfd63d2f4,3,66,56,68,65,324.8999998569,,"
  <table>
  <tr height=300>
    <td width=300 height=300><img src=""static/images/cards/stack_of_black_stars.svg"" width=""175px"" height=""250px""></img></td>
    <td width=300 height=300><img src=""static/images/cards/stack_of_red_stars.svg"" width=""175px"" height=""250px""></img></td>
  </tr>
  <tr height=200>
    <td width=300><img src=""static/images/keys/w.svg"" width=""35%"" height=""75%""></img></td>
    <td width=300><img src=""static/images/keys/o.svg"" width=""35%"" height=""75%""></img></td>
  </tr>
</table>
  ",87.0,,,,,,,,,,,,,,,,,,,,,,,,,1.0,
164,0,,html-keyboard-response,164,205774,0.0-7.3-1.3,avgoerpg3vf,2022-09-19 17:13:22.603,616d9ef881036dfbfd63d2f4,3,66,56,68,65,281.6000001431,,"
  <table>
  <tr height=300>
    <td width=300 height=300><img src=""static/images/cards/back_of_black_stars.svg"" width=""175px"" height=""250px""></img></td>
    <td width=300 height=300><img src=""static/images/cards/back_of_black_stars.svg"" width=""175px"" height=""250px""></img></td>
  </tr>
  <tr height=200>
    <td width=300><img src=""static/images/keys/z.svg"" width=""35%"" height=""75%""></img></td>
    <td width=300><img src=""static/images/keys/m.svg"" width=""35%"" height=""75%""></img></td>
  </tr>
</table>
  ",77.0,,,,,,,,,,,,,,,,,,,,,,,,,1.0,
165,0,,html-keyboard-response,165,207285,0.0-7.3-2.3,avgoerpg3vf,2022-09-19 17:13:22.603,616d9ef881036dfbfd63d2f4,3,66,56,68,65,,,"
  <table>
  <tr height=300>
    <td width=300 height=300><img src=""static/images/cards/back_of_black_stars.svg"" width=""175px"" height=""250px""></img></td>
    <td width=300 height=300><img src=""static/images/cards/6_of_black_stars.svg"" width=""175px"" height=""250px""></img></td>
  </tr>
  <tr height=200>
    <td width=300><img src=""static/images/keys/z.svg"" width=""35%"" height=""75%""></img></td>
    <td width=300><img src=""static/images/keys/m.svg"" width=""35%"" height=""75%""></img></td>
  </tr>
</table>
  ",,,,,,,,,,,,,,,,,,,,,,,,,,,
166,0,,html-keyboard-response,166,208815,0.0-7.3-3.3,avgoerpg3vf,2022-09-19 17:13:22.603,616d9ef881036dfbfd63d2f4,3,66,56,68,65,,,"<p style=""font-size:50px"">You Lose!
No points this round.</p>",,,,,,,,,,,,,,,,,,,,,,,,,,,
167,0,,html-keyboard-response,167,209335,0.0-7.3-4.3,avgoerpg3vf,2022-09-19 17:13:22.603,616d9ef881036dfbfd63d2f4,3,66,56,68,65,,,,,1.0,choice,3.0,C,D,black,red,stars,stars,C,D,C,black,stars,324.8999998569,1.0,0.0,NA,right,281.6000001431,6.0,1.0,0.0,,,
168,0,,html-keyboard-response,168,209769,0.0-7.4-0.4,avgoerpg3vf,2022-09-19 17:13:22.603,616d9ef881036dfbfd63d2f4,3,66,56,68,65,432.1999998093,,"
  <table>
  <tr height=300>
    <td width=300 height=300><img src=""static/images/cards/stack_of_black_stars.svg"" width=""175px"" height=""250px""></img></td>
    <td width=300 height=300><img src=""static/images/cards/stack_of_red_moons.svg"" width=""175px"" height=""250px""></img></td>
  </tr>
  <tr height=200>
    <td width=300><img src=""static/images/keys/w.svg"" width=""35%"" height=""75%""></img></td>
    <td width=300><img src=""static/images/keys/o.svg"" width=""35%"" height=""75%""></img></td>
  </tr>
</table>
  ",87.0,,,,,,,,,,,,,,,,,,,,,,,,,1.0,
169,0,,html-keyboard-response,169,210617,0.0-7.4-1.4,avgoerpg3vf,2022-09-19 17:13:22.603,616d9ef881036dfbfd63d2f4,3,66,56,68,65,335.6999998093,,"
  <table>
  <tr height=300>
    <td width=300 height=300><img src=""static/images/cards/back_of_black_stars.svg"" width=""175px"" height=""250px""></img></td>
    <td width=300 height=300><img src=""static/images/cards/back_of_black_stars.svg"" width=""175px"" height=""250px""></img></td>
  </tr>
  <tr height=200>
    <td width=300><img src=""static/images/keys/z.svg"" width=""35%"" height=""75%""></img></td>
    <td width=300><img src=""static/images/keys/m.svg"" width=""35%"" height=""75%""></img></td>
  </tr>
</table>
  ",77.0,,,,,,,,,,,,,,,,,,,,,,,,,1.0,
170,0,,html-keyboard-response,170,212130,0.0-7.4-2.4,avgoerpg3vf,2022-09-19 17:13:22.603,616d9ef881036dfbfd63d2f4,3,66,56,68,65,,,"
  <table>
  <tr height=300>
    <td width=300 height=300><img src=""static/images/cards/back_of_black_stars.svg"" width=""175px"" height=""250px""></img></td>
    <td width=300 height=300><img src=""static/images/cards/2_of_black_stars.svg"" width=""175px"" height=""250px""></img></td>
  </tr>
  <tr height=200>
    <td width=300><img src=""static/images/keys/z.svg"" width=""35%"" height=""75%""></img></td>
    <td width=300><img src=""static/images/keys/m.svg"" width=""35%"" height=""75%""></img></td>
  </tr>
</table>
  ",,,,,,,,,,,,,,,,,,,,,,,,,,,
171,0,,html-keyboard-response,171,213654,0.0-7.4-3.4,avgoerpg3vf,2022-09-19 17:13:22.603,616d9ef881036dfbfd63d2f4,3,66,56,68,65,,,"<p style=""font-size:50px"">You win!
+10 points this round!</p>",,,,,,,,,,,,,,,,,,,,,,,,,,,
172,0,,html-keyboard-response,172,214174,0.0-7.4-4.4,avgoerpg3vf,2022-09-19 17:13:22.603,616d9ef881036dfbfd63d2f4,3,66,56,68,65,,,,,1.0,choice,4.0,B,C,black,red,stars,moons,C,B,C,black,stars,432.1999998093,1.0,0.0,NA,right,335.6999998093,2.0,0.0,1.0,,,
173,0,,html-keyboard-response,173,214551,0.0-7.5-0.5,avgoerpg3vf,2022-09-19 17:13:22.603,616d9ef881036dfbfd63d2f4,3,66,56,68,65,372.8999998569,,"
  <table>
  <tr height=300>
    <td width=300 height=300><img src=""static/images/cards/stack_of_red_moons.svg"" width=""175px"" height=""250px""></img></td>
    <td width=300 height=300><img src=""static/images/cards/stack_of_black_moons.svg"" width=""175px"" height=""250px""></img></td>
  </tr>
  <tr height=200>
    <td width=300><img src=""static/images/keys/w.svg"" width=""35%"" height=""75%""></img></td>
    <td width=300><img src=""static/images/keys/o.svg"" width=""35%"" height=""75%""></img></td>
  </tr>
</table>
  ",87.0,,,,,,,,,,,,,,,,,,,,,,,,,1.0,
174,0,,html-keyboard-response,174,216918,0.0-7.5-1.5,avgoerpg3vf,2022-09-19 17:13:22.603,616d9ef881036dfbfd63d2f4,3,66,56,68,65,1856.5,,"
  <table>
  <tr height=300>
    <td width=300 height=300><img src=""static/images/cards/back_of_red_moons.svg"" width=""175px"" height=""250px""></img></td>
    <td width=300 height=300><img src=""static/images/cards/back_of_red_moons.svg"" width=""175px"" height=""250px""></img></td>
  </tr>
  <tr height=200>
    <td width=300><img src=""static/images/keys/z.svg"" width=""35%"" height=""75%""></img></td>
    <td width=300></td>
  </tr>
</table>
  ",90.0,,,,,,,,,,,,,,,,,,,,,,,,,4.0,
175,0,,html-keyboard-response,175,218424,0.0-7.5-2.5,avgoerpg3vf,2022-09-19 17:13:22.603,616d9ef881036dfbfd63d2f4,3,66,56,68,65,,,"
  <table>
  <tr height=300>
    <td width=300 height=300><img src=""static/images/cards/10_of_red_moons.svg"" width=""175px"" height=""250px""></img></td>
    <td width=300 height=300><img src=""static/images/cards/back_of_red_moons.svg"" width=""175px"" height=""250px""></img></td>
  </tr>
  <tr height=200>
    <td width=300><img src=""static/images/keys/z.svg"" width=""35%"" height=""75%""></img></td>
    <td width=300></td>
  </tr>
</table>
  ",,,,,,,,,,,,,,,,,,,,,,,,,,,
176,0,,html-keyboard-response,176,219950,0.0-7.5-3.5,avgoerpg3vf,2022-09-19 17:13:22.603,616d9ef881036dfbfd63d2f4,3,66,56,68,65,,,"<p style=""font-size:50px"">You win!
+10 points this round!</p>",,,,,,,,,,,,,,,,,,,,,,,,,,,
177,0,,html-keyboard-response,177,220469,0.0-7.5-4.5,avgoerpg3vf,2022-09-19 17:13:22.603,616d9ef881036dfbfd63d2f4,3,66,56,68,65,,,,,1.0,choice,5.0,A,B,red,black,moons,moons,B,A,B,red,moons,372.8999998569,0.0,1.0,1,left,1856.5,10.0,1.0,1.0,,,
178,0,,html-keyboard-response,178,220915,0.0-7.6-0.6,avgoerpg3vf,2022-09-19 17:13:22.603,616d9ef881036dfbfd63d2f4,3,66,56,68,65,443.7999999523,,"
  <table>
  <tr height=300>
    <td width=300 height=300><img src=""static/images/cards/stack_of_black_moons.svg"" width=""175px"" height=""250px""></img></td>
    <td width=300 height=300><img src=""static/images/cards/stack_of_black_stars.svg"" width=""175px"" height=""250px""></img></td>
  </tr>
  <tr height=200>
    <td width=300><img src=""static/images/keys/w.svg"" width=""35%"" height=""75%""></img></td>
    <td width=300><img src=""static/images/keys/o.svg"" width=""35%"" height=""75%""></img></td>
  </tr>
</table>
  ",87.0,,,,,,,,,,,,,,,,,,,,,,,,,1.0,
179,0,,html-keyboard-response,179,222768,0.0-7.6-1.6,avgoerpg3vf,2022-09-19 17:13:22.603,616d9ef881036dfbfd63d2f4,3,66,56,68,65,1347.0,,"
  <table>
  <tr height=300>
    <td width=300 height=300><img src=""static/images/cards/back_of_black_moons.svg"" width=""175px"" height=""250px""></img></td>
    <td width=300 height=300><img src=""static/images/cards/back_of_black_moons.svg"" width=""175px"" height=""250px""></img></td>
  </tr>
  <tr height=200>
    <td width=300><img src=""static/images/keys/z.svg"" width=""35%"" height=""75%""></img></td>
    <td width=300><img src=""static/images/keys/m.svg"" width=""35%"" height=""75%""></img></td>
  </tr>
</table>
  ",90.0,,,,,,,,,,,,,,,,,,,,,,,,,1.0,
180,0,,html-keyboard-response,180,224278,0.0-7.6-2.6,avgoerpg3vf,2022-09-19 17:13:22.603,616d9ef881036dfbfd63d2f4,3,66,56,68,65,,,"
  <table>
  <tr height=300>
    <td width=300 height=300><img src=""static/images/cards/3_of_black_moons.svg"" width=""175px"" height=""250px""></img></td>
    <td width=300 height=300><img src=""static/images/cards/back_of_black_moons.svg"" width=""175px"" height=""250px""></img></td>
  </tr>
  <tr height=200>
    <td width=300><img src=""static/images/keys/z.svg"" width=""35%"" height=""75%""></img></td>
    <td width=300><img src=""static/images/keys/m.svg"" width=""35%"" height=""75%""></img></td>
  </tr>
</table>
  ",,,,,,,,,,,,,,,,,,,,,,,,,,,
181,0,,html-keyboard-response,181,225807,0.0-7.6-3.6,avgoerpg3vf,2022-09-19 17:13:22.603,616d9ef881036dfbfd63d2f4,3,66,56,68,65,,,"<p style=""font-size:50px"">You Lose!
No points this round.</p>",,,,,,,,,,,,,,,,,,,,,,,,,,,
182,0,,html-keyboard-response,182,226327,0.0-7.6-4.6,avgoerpg3vf,2022-09-19 17:13:22.603,616d9ef881036dfbfd63d2f4,3,66,56,68,65,,,,,1.0,choice,6.0,A,C,black,black,moons,stars,A,C,A,black,moons,443.7999999523,1.0,1.0,NA,left,1347.0,3.0,0.0,0.0,,,
183,0,,html-keyboard-response,183,226751,0.0-7.7-0.7,avgoerpg3vf,2022-09-19 17:13:22.603,616d9ef881036dfbfd63d2f4,3,66,56,68,65,421.0,,"
  <table>
  <tr height=300>
    <td width=300 height=300><img src=""static/images/cards/stack_of_black_moons.svg"" width=""175px"" height=""250px""></img></td>
    <td width=300 height=300><img src=""static/images/cards/stack_of_black_stars.svg"" width=""175px"" height=""250px""></img></td>
  </tr>
  <tr height=200>
    <td width=300><img src=""static/images/keys/w.svg"" width=""35%"" height=""75%""></img></td>
    <td width=300><img src=""static/images/keys/o.svg"" width=""35%"" height=""75%""></img></td>
  </tr>
</table>
  ",87.0,,,,,,,,,,,,,,,,,,,,,,,,,1.0,
184,0,,html-keyboard-response,184,227725,0.0-7.7-1.7,avgoerpg3vf,2022-09-19 17:13:22.603,616d9ef881036dfbfd63d2f4,3,66,56,68,65,468.6000001431,,"
  <table>
  <tr height=300>
    <td width=300 height=300><img src=""static/images/cards/back_of_black_moons.svg"" width=""175px"" height=""250px""></img></td>
    <td width=300 height=300><img src=""static/images/cards/back_of_black_moons.svg"" width=""175px"" height=""250px""></img></td>
  </tr>
  <tr height=200>
    <td width=300><img src=""static/images/keys/z.svg"" width=""35%"" height=""75%""></img></td>
    <td width=300><img src=""static/images/keys/m.svg"" width=""35%"" height=""75%""></img></td>
  </tr>
</table>
  ",77.0,,,,,,,,,,,,,,,,,,,,,,,,,1.0,
185,0,,html-keyboard-response,185,229231,0.0-7.7-2.7,avgoerpg3vf,2022-09-19 17:13:22.603,616d9ef881036dfbfd63d2f4,3,66,56,68,65,,,"
  <table>
  <tr height=300>
    <td width=300 height=300><img src=""static/images/cards/back_of_black_moons.svg"" width=""175px"" height=""250px""></img></td>
    <td width=300 height=300><img src=""static/images/cards/1_of_black_moons.svg"" width=""175px"" height=""250px""></img></td>
  </tr>
  <tr height=200>
    <td width=300><img src=""static/images/keys/z.svg"" width=""35%"" height=""75%""></img></td>
    <td width=300><img src=""static/images/keys/m.svg"" width=""35%"" height=""75%""></img></td>
  </tr>
</table>
  ",,,,,,,,,,,,,,,,,,,,,,,,,,,
186,0,,html-keyboard-response,186,230761,0.0-7.7-3.7,avgoerpg3vf,2022-09-19 17:13:22.603,616d9ef881036dfbfd63d2f4,3,66,56,68,65,,,"<p style=""font-size:50px"">You Lose!
No points this round.</p>",,,,,,,,,,,,,,,,,,,,,,,,,,,
187,0,,html-keyboard-response,187,231281,0.0-7.7-4.7,avgoerpg3vf,2022-09-19 17:13:22.603,616d9ef881036dfbfd63d2f4,3,66,56,68,65,,,,,1.0,choice,7.0,A,C,black,black,moons,stars,A,C,A,black,moons,421.0,1.0,1.0,NA,right,468.6000001431,1.0,0.0,0.0,,,
188,0,,html-keyboard-response,188,232203,0.0-7.8-0.8,avgoerpg3vf,2022-09-19 17:13:22.603,616d9ef881036dfbfd63d2f4,3,66,56,68,65,920.3000001907,,"
  <table>
  <tr height=300>
    <td width=300 height=300><img src=""static/images/cards/stack_of_black_moons.svg"" width=""175px"" height=""250px""></img></td>
    <td width=300 height=300><img src=""static/images/cards/stack_of_red_stars.svg"" width=""175px"" height=""250px""></img></td>
  </tr>
  <tr height=200>
    <td width=300><img src=""static/images/keys/w.svg"" width=""35%"" height=""75%""></img></td>
    <td width=300><img src=""static/images/keys/o.svg"" width=""35%"" height=""75%""></img></td>
  </tr>
</table>
  ",79.0,,,,,,,,,,,,,,,,,,,,,,,,,2.0,
189,0,,html-keyboard-response,189,233167,0.0-7.8-1.8,avgoerpg3vf,2022-09-19 17:13:22.603,616d9ef881036dfbfd63d2f4,3,66,56,68,65,455.0999999046,,"
  <table>
  <tr height=300>
    <td width=300 height=300><img src=""static/images/cards/back_of_red_stars.svg"" width=""175px"" height=""250px""></img></td>
    <td width=300 height=300><img src=""static/images/cards/back_of_red_stars.svg"" width=""175px"" height=""250px""></img></td>
  </tr>
  <tr height=200>
    <td width=300><img src=""static/images/keys/z.svg"" width=""35%"" height=""75%""></img></td>
    <td width=300></td>
  </tr>
</table>
  ",90.0,,,,,,,,,,,,,,,,,,,,,,,,,1.0,
190,0,,html-keyboard-response,190,234671,0.0-7.8-2.8,avgoerpg3vf,2022-09-19 17:13:22.603,616d9ef881036dfbfd63d2f4,3,66,56,68,65,,,"
  <table>
  <tr height=300>
    <td width=300 height=300><img src=""static/images/cards/8_of_red_stars.svg"" width=""175px"" height=""250px""></img></td>
    <td width=300 height=300><img src=""static/images/cards/back_of_red_stars.svg"" width=""175px"" height=""250px""></img></td>
  </tr>
  <tr height=200>
    <td width=300><img src=""static/images/keys/z.svg"" width=""35%"" height=""75%""></img></td>
    <td width=300></td>
  </tr>
</table>
  ",,,,,,,,,,,,,,,,,,,,,,,,,,,
191,0,,html-keyboard-response,191,236200,0.0-7.8-3.8,avgoerpg3vf,2022-09-19 17:13:22.603,616d9ef881036dfbfd63d2f4,3,66,56,68,65,,,"<p style=""font-size:50px"">You win!
+10 points this round!</p>",,,,,,,,,,,,,,,,,,,,,,,,,,,
192,0,,html-keyboard-response,192,236713,0.0-7.8-4.8,avgoerpg3vf,2022-09-19 17:13:22.603,616d9ef881036dfbfd63d2f4,3,66,56,68,65,,,,,1.0,choice,8.0,A,D,black,red,moons,stars,A,D,D,red,stars,920.3000001907,0.0,0.0,1,left,455.0999999046,8.0,1.0,1.0,,,
193,0,,html-keyboard-response,193,237539,0.0-7.9-0.9,avgoerpg3vf,2022-09-19 17:13:22.603,616d9ef881036dfbfd63d2f4,3,66,56,68,65,824.0,,"
  <table>
  <tr height=300>
    <td width=300 height=300><img src=""static/images/cards/stack_of_black_moons.svg"" width=""175px"" height=""250px""></img></td>
    <td width=300 height=300><img src=""static/images/cards/stack_of_red_stars.svg"" width=""175px"" height=""250px""></img></td>
  </tr>
  <tr height=200>
    <td width=300><img src=""static/images/keys/w.svg"" width=""35%"" height=""75%""></img></td>
    <td width=300><img src=""static/images/keys/o.svg"" width=""35%"" height=""75%""></img></td>
  </tr>
</table>
  ",79.0,,,,,,,,,,,,,,,,,,,,,,,,,1.0,
194,0,,html-keyboard-response,194,238451,0.0-7.9-1.9,avgoerpg3vf,2022-09-19 17:13:22.603,616d9ef881036dfbfd63d2f4,3,66,56,68,65,401.2000000477,,"
  <table>
  <tr height=300>
    <td width=300 height=300><img src=""static/images/cards/back_of_red_stars.svg"" width=""175px"" height=""250px""></img></td>
    <td width=300 height=300><img src=""static/images/cards/back_of_red_stars.svg"" width=""175px"" height=""250px""></img></td>
  </tr>
  <tr height=200>
    <td width=300><img src=""static/images/keys/z.svg"" width=""35%"" height=""75%""></img></td>
    <td width=300></td>
  </tr>
</table>
  ",90.0,,,,,,,,,,,,,,,,,,,,,,,,,1.0,
195,0,,html-keyboard-response,195,239960,0.0-7.9-2.9,avgoerpg3vf,2022-09-19 17:13:22.603,616d9ef881036dfbfd63d2f4,3,66,56,68,65,,,"
  <table>
  <tr height=300>
    <td width=300 height=300><img src=""static/images/cards/9_of_red_stars.svg"" width=""175px"" height=""250px""></img></td>
    <td width=300 height=300><img src=""static/images/cards/back_of_red_stars.svg"" width=""175px"" height=""250px""></img></td>
  </tr>
  <tr height=200>
    <td width=300><img src=""static/images/keys/z.svg"" width=""35%"" height=""75%""></img></td>
    <td width=300></td>
  </tr>
</table>
  ",,,,,,,,,,,,,,,,,,,,,,,,,,,
196,0,,html-keyboard-response,196,241463,0.0-7.9-3.9,avgoerpg3vf,2022-09-19 17:13:22.603,616d9ef881036dfbfd63d2f4,3,66,56,68,65,,,"<p style=""font-size:50px"">You Lose!
No points this round.</p>",,,,,,,,,,,,,,,,,,,,,,,,,,,
197,0,,html-keyboard-response,197,241983,0.0-7.9-4.9,avgoerpg3vf,2022-09-19 17:13:22.603,616d9ef881036dfbfd63d2f4,3,66,56,68,65,,,,,1.0,choice,9.0,A,D,black,red,moons,stars,A,D,D,red,stars,824.0,0.0,0.0,1,left,401.2000000477,9.0,1.0,0.0,,,
198,0,,html-keyboard-response,198,242413,0.0-7.10-0.10,avgoerpg3vf,2022-09-19 17:13:22.603,616d9ef881036dfbfd63d2f4,3,66,56,68,65,427.4000000954,,"
  <table>
  <tr height=300>
    <td width=300 height=300><img src=""static/images/cards/stack_of_black_moons.svg"" width=""175px"" height=""250px""></img></td>
    <td width=300 height=300><img src=""static/images/cards/stack_of_red_stars.svg"" width=""175px"" height=""250px""></img></td>
  </tr>
  <tr height=200>
    <td width=300><img src=""static/images/keys/w.svg"" width=""35%"" height=""75%""></img></td>
    <td width=300><img src=""static/images/keys/o.svg"" width=""35%"" height=""75%""></img></td>
  </tr>
</table>
  ",87.0,,,,,,,,,,,,,,,,,,,,,,,,,1.0,
199,0,,html-keyboard-response,199,243261,0.0-7.10-1.10,avgoerpg3vf,2022-09-19 17:13:22.603,616d9ef881036dfbfd63d2f4,3,66,56,68,65,330.1000001431,,"
  <table>
  <tr height=300>
    <td width=300 height=300><img src=""static/images/cards/back_of_black_moons.svg"" width=""175px"" height=""250px""></img></td>
    <td width=300 height=300><img src=""static/images/cards/back_of_black_moons.svg"" width=""175px"" height=""250px""></img></td>
  </tr>
  <tr height=200>
    <td width=300><img src=""static/images/keys/z.svg"" width=""35%"" height=""75%""></img></td>
    <td width=300><img src=""static/images/keys/m.svg"" width=""35%"" height=""75%""></img></td>
  </tr>
</table>
  ",77.0,,,,,,,,,,,,,,,,,,,,,,,,,1.0,
200,0,,html-keyboard-response,200,244765,0.0-7.10-2.10,avgoerpg3vf,2022-09-19 17:13:22.603,616d9ef881036dfbfd63d2f4,3,66,56,68,65,,,"
  <table>
  <tr height=300>
    <td width=300 height=300><img src=""static/images/cards/back_of_black_moons.svg"" width=""175px"" height=""250px""></img></td>
    <td width=300 height=300><img src=""static/images/cards/1_of_black_moons.svg"" width=""175px"" height=""250px""></img></td>
  </tr>
  <tr height=200>
    <td width=300><img src=""static/images/keys/z.svg"" width=""35%"" height=""75%""></img></td>
    <td width=300><img src=""static/images/keys/m.svg"" width=""35%"" height=""75%""></img></td>
  </tr>
</table>
  ",,,,,,,,,,,,,,,,,,,,,,,,,,,
201,0,,html-keyboard-response,201,246275,0.0-7.10-3.10,avgoerpg3vf,2022-09-19 17:13:22.603,616d9ef881036dfbfd63d2f4,3,66,56,68,65,,,"<p style=""font-size:50px"">You Lose!
No points this round.</p>",,,,,,,,,,,,,,,,,,,,,,,,,,,
202,0,,html-keyboard-response,202,246784,0.0-7.10-4.10,avgoerpg3vf,2022-09-19 17:13:22.603,616d9ef881036dfbfd63d2f4,3,66,56,68,65,,,,,1.0,choice,10.0,A,D,black,red,moons,stars,A,D,A,black,moons,427.4000000954,1.0,1.0,NA,right,330.1000001431,1.0,0.0,0.0,,,
203,0,,html-keyboard-response,203,247274,0.0-7.11-0.11,avgoerpg3vf,2022-09-19 17:13:22.603,616d9ef881036dfbfd63d2f4,3,66,56,68,65,487.0,,"
  <table>
  <tr height=300>
    <td width=300 height=300><img src=""static/images/cards/stack_of_red_moons.svg"" width=""175px"" height=""250px""></img></td>
    <td width=300 height=300><img src=""static/images/cards/stack_of_black_bolts.svg"" width=""175px"" height=""250px""></img></td>
  </tr>
  <tr height=200>
    <td width=300><img src=""static/images/keys/w.svg"" width=""35%"" height=""75%""></img></td>
    <td width=300><img src=""static/images/keys/o.svg"" width=""35%"" height=""75%""></img></td>
  </tr>
</table>
  ",87.0,,,,,,,,,,,,,,,,,,,,,,,,,1.0,
204,0,,html-keyboard-response,204,248491,0.0-7.11-1.11,avgoerpg3vf,2022-09-19 17:13:22.603,616d9ef881036dfbfd63d2f4,3,66,56,68,65,709.5,,"
  <table>
  <tr height=300>
    <td width=300 height=300><img src=""static/images/cards/back_of_red_moons.svg"" width=""175px"" height=""250px""></img></td>
    <td width=300 height=300><img src=""static/images/cards/back_of_red_moons.svg"" width=""175px"" height=""250px""></img></td>
  </tr>
  <tr height=200>
    <td width=300></td>
    <td width=300><img src=""static/images/keys/m.svg"" width=""35%"" height=""75%""></img></td>
  </tr>
</table>
  ",77.0,,,,,,,,,,,,,,,,,,,,,,,,,1.0,
205,0,,html-keyboard-response,205,249994,0.0-7.11-2.11,avgoerpg3vf,2022-09-19 17:13:22.603,616d9ef881036dfbfd63d2f4,3,66,56,68,65,,,"
  <table>
  <tr height=300>
    <td width=300 height=300><img src=""static/images/cards/back_of_red_moons.svg"" width=""175px"" height=""250px""></img></td>
    <td width=300 height=300><img src=""static/images/cards/2_of_red_moons.svg"" width=""175px"" height=""250px""></img></td>
  </tr>
  <tr height=200>
    <td width=300></td>
    <td width=300><img src=""static/images/keys/m.svg"" width=""35%"" height=""75%""></img></td>
  </tr>
</table>
  ",,,,,,,,,,,,,,,,,,,,,,,,,,,
206,0,,html-keyboard-response,206,251522,0.0-7.11-3.11,avgoerpg3vf,2022-09-19 17:13:22.603,616d9ef881036dfbfd63d2f4,3,66,56,68,65,,,"<p style=""font-size:50px"">You Lose!
No points this round.</p>",,,,,,,,,,,,,,,,,,,,,,,,,,,
207,0,,html-keyboard-response,207,252040,0.0-7.11-4.11,avgoerpg3vf,2022-09-19 17:13:22.603,616d9ef881036dfbfd63d2f4,3,66,56,68,65,,,,,1.0,choice,11.0,B,Xnc,red,black,moons,bolts,B,Xnc,B,red,moons,487.0,0.0,1.0,0,right,709.5,2.0,0.0,0.0,,,
208,0,,html-keyboard-response,208,252961,0.0-7.12-0.12,avgoerpg3vf,2022-09-19 17:13:22.603,616d9ef881036dfbfd63d2f4,3,66,56,68,65,919.2000000477,,"
  <table>
  <tr height=300>
    <td width=300 height=300><img src=""static/images/cards/stack_of_red_moons.svg"" width=""175px"" height=""250px""></img></td>
    <td width=300 height=300><img src=""static/images/cards/stack_of_black_moons.svg"" width=""175px"" height=""250px""></img></td>
  </tr>
  <tr height=200>
    <td width=300><img src=""static/images/keys/w.svg"" width=""35%"" height=""75%""></img></td>
    <td width=300><img src=""static/images/keys/o.svg"" width=""35%"" height=""75%""></img></td>
  </tr>
</table>
  ",79.0,,,,,,,,,,,,,,,,,,,,,,,,,1.0,
209,0,,html-keyboard-response,209,254118,0.0-7.12-1.12,avgoerpg3vf,2022-09-19 17:13:22.603,616d9ef881036dfbfd63d2f4,3,66,56,68,65,643.7000000477,,"
  <table>
  <tr height=300>
    <td width=300 height=300><img src=""static/images/cards/back_of_black_moons.svg"" width=""175px"" height=""250px""></img></td>
    <td width=300 height=300><img src=""static/images/cards/back_of_black_moons.svg"" width=""175px"" height=""250px""></img></td>
  </tr>
  <tr height=200>
    <td width=300><img src=""static/images/keys/z.svg"" width=""35%"" height=""75%""></img></td>
    <td width=300><img src=""static/images/keys/m.svg"" width=""35%"" height=""75%""></img></td>
  </tr>
</table>
  ",77.0,,,,,,,,,,,,,,,,,,,,,,,,,1.0,
210,0,,html-keyboard-response,210,255628,0.0-7.12-2.12,avgoerpg3vf,2022-09-19 17:13:22.603,616d9ef881036dfbfd63d2f4,3,66,56,68,65,,,"
  <table>
  <tr height=300>
    <td width=300 height=300><img src=""static/images/cards/back_of_black_moons.svg"" width=""175px"" height=""250px""></img></td>
    <td width=300 height=300><img src=""static/images/cards/8_of_black_moons.svg"" width=""175px"" height=""250px""></img></td>
  </tr>
  <tr height=200>
    <td width=300><img src=""static/images/keys/z.svg"" width=""35%"" height=""75%""></img></td>
    <td width=300><img src=""static/images/keys/m.svg"" width=""35%"" height=""75%""></img></td>
  </tr>
</table>
  ",,,,,,,,,,,,,,,,,,,,,,,,,,,
211,0,,html-keyboard-response,211,257154,0.0-7.12-3.12,avgoerpg3vf,2022-09-19 17:13:22.603,616d9ef881036dfbfd63d2f4,3,66,56,68,65,,,"<p style=""font-size:50px"">You win!
+10 points this round!</p>",,,,,,,,,,,,,,,,,,,,,,,,,,,
212,0,,html-keyboard-response,212,257675,0.0-7.12-4.12,avgoerpg3vf,2022-09-19 17:13:22.603,616d9ef881036dfbfd63d2f4,3,66,56,68,65,,,,,1.0,choice,12.0,A,B,red,black,moons,moons,B,A,A,black,moons,919.2000000477,1.0,1.0,NA,right,643.7000000477,8.0,1.0,1.0,,,
213,0,,html-keyboard-response,213,258074,0.0-7.13-0.13,avgoerpg3vf,2022-09-19 17:13:22.603,616d9ef881036dfbfd63d2f4,3,66,56,68,65,395.3000001907,,"
  <table>
  <tr height=300>
    <td width=300 height=300><img src=""static/images/cards/stack_of_black_moons.svg"" width=""175px"" height=""250px""></img></td>
    <td width=300 height=300><img src=""static/images/cards/stack_of_black_stars.svg"" width=""175px"" height=""250px""></img></td>
  </tr>
  <tr height=200>
    <td width=300><img src=""static/images/keys/w.svg"" width=""35%"" height=""75%""></img></td>
    <td width=300><img src=""static/images/keys/o.svg"" width=""35%"" height=""75%""></img></td>
  </tr>
</table>
  ",79.0,,,,,,,,,,,,,,,,,,,,,,,,,1.0,
214,0,,html-keyboard-response,214,259003,0.0-7.13-1.13,avgoerpg3vf,2022-09-19 17:13:22.603,616d9ef881036dfbfd63d2f4,3,66,56,68,65,413.4000000954,,"
  <table>
  <tr height=300>
    <td width=300 height=300><img src=""static/images/cards/back_of_black_stars.svg"" width=""175px"" height=""250px""></img></td>
    <td width=300 height=300><img src=""static/images/cards/back_of_black_stars.svg"" width=""175px"" height=""250px""></img></td>
  </tr>
  <tr height=200>
    <td width=300><img src=""static/images/keys/z.svg"" width=""35%"" height=""75%""></img></td>
    <td width=300><img src=""static/images/keys/m.svg"" width=""35%"" height=""75%""></img></td>
  </tr>
</table>
  ",77.0,,,,,,,,,,,,,,,,,,,,,,,,,1.0,
215,0,,html-keyboard-response,215,260512,0.0-7.13-2.13,avgoerpg3vf,2022-09-19 17:13:22.603,616d9ef881036dfbfd63d2f4,3,66,56,68,65,,,"
  <table>
  <tr height=300>
    <td width=300 height=300><img src=""static/images/cards/back_of_black_stars.svg"" width=""175px"" height=""250px""></img></td>
    <td width=300 height=300><img src=""static/images/cards/10_of_black_stars.svg"" width=""175px"" height=""250px""></img></td>
  </tr>
  <tr height=200>
    <td width=300><img src=""static/images/keys/z.svg"" width=""35%"" height=""75%""></img></td>
    <td width=300><img src=""static/images/keys/m.svg"" width=""35%"" height=""75%""></img></td>
  </tr>
</table>
  ",,,,,,,,,,,,,,,,,,,,,,,,,,,
216,0,,html-keyboard-response,216,262040,0.0-7.13-3.13,avgoerpg3vf,2022-09-19 17:13:22.603,616d9ef881036dfbfd63d2f4,3,66,56,68,65,,,"<p style=""font-size:50px"">You win!
+10 points this round!</p>",,,,,,,,,,,,,,,,,,,,,,,,,,,
217,0,,html-keyboard-response,217,262559,0.0-7.13-4.13,avgoerpg3vf,2022-09-19 17:13:22.603,616d9ef881036dfbfd63d2f4,3,66,56,68,65,,,,,1.0,choice,13.0,A,C,black,black,moons,stars,A,C,C,black,stars,395.3000001907,1.0,0.0,NA,right,413.4000000954,10.0,1.0,1.0,,,
218,0,,html-keyboard-response,218,263028,0.0-7.14-0.14,avgoerpg3vf,2022-09-19 17:13:22.603,616d9ef881036dfbfd63d2f4,3,66,56,68,65,467.2000000477,,"
  <table>
  <tr height=300>
    <td width=300 height=300><img src=""static/images/cards/stack_of_red_stars.svg"" width=""175px"" height=""250px""></img></td>
    <td width=300 height=300><img src=""static/images/cards/stack_of_black_stars.svg"" width=""175px"" height=""250px""></img></td>
  </tr>
  <tr height=200>
    <td width=300><img src=""static/images/keys/w.svg"" width=""35%"" height=""75%""></img></td>
    <td width=300><img src=""static/images/keys/o.svg"" width=""35%"" height=""75%""></img></td>
  </tr>
</table>
  ",79.0,,,,,,,,,,,,,,,,,,,,,,,,,1.0,
219,0,,html-keyboard-response,219,264150,0.0-7.14-1.14,avgoerpg3vf,2022-09-19 17:13:22.603,616d9ef881036dfbfd63d2f4,3,66,56,68,65,609.9000000954,,"
  <table>
  <tr height=300>
    <td width=300 height=300><img src=""static/images/cards/back_of_black_stars.svg"" width=""175px"" height=""250px""></img></td>
    <td width=300 height=300><img src=""static/images/cards/back_of_black_stars.svg"" width=""175px"" height=""250px""></img></td>
  </tr>
  <tr height=200>
    <td width=300><img src=""static/images/keys/z.svg"" width=""35%"" height=""75%""></img></td>
    <td width=300><img src=""static/images/keys/m.svg"" width=""35%"" height=""75%""></img></td>
  </tr>
</table>
  ",77.0,,,,,,,,,,,,,,,,,,,,,,,,,1.0,
220,0,,html-keyboard-response,220,265658,0.0-7.14-2.14,avgoerpg3vf,2022-09-19 17:13:22.603,616d9ef881036dfbfd63d2f4,3,66,56,68,65,,,"
  <table>
  <tr height=300>
    <td width=300 height=300><img src=""static/images/cards/back_of_black_stars.svg"" width=""175px"" height=""250px""></img></td>
    <td width=300 height=300><img src=""static/images/cards/3_of_black_stars.svg"" width=""175px"" height=""250px""></img></td>
  </tr>
  <tr height=200>
    <td width=300><img src=""static/images/keys/z.svg"" width=""35%"" height=""75%""></img></td>
    <td width=300><img src=""static/images/keys/m.svg"" width=""35%"" height=""75%""></img></td>
  </tr>
</table>
  ",,,,,,,,,,,,,,,,,,,,,,,,,,,
221,0,,html-keyboard-response,221,267182,0.0-7.14-3.14,avgoerpg3vf,2022-09-19 17:13:22.603,616d9ef881036dfbfd63d2f4,3,66,56,68,65,,,"<p style=""font-size:50px"">You Lose!
No points this round.</p>",,,,,,,,,,,,,,,,,,,,,,,,,,,
222,0,,html-keyboard-response,222,267699,0.0-7.14-4.14,avgoerpg3vf,2022-09-19 17:13:22.603,616d9ef881036dfbfd63d2f4,3,66,56,68,65,,,,,1.0,choice,14.0,C,D,red,black,stars,stars,D,C,C,black,stars,467.2000000477,1.0,0.0,NA,right,609.9000000954,3.0,0.0,0.0,,,
223,0,,html-keyboard-response,223,268061,0.0-7.15-0.15,avgoerpg3vf,2022-09-19 17:13:22.603,616d9ef881036dfbfd63d2f4,3,66,56,68,65,359.5,,"
  <table>
  <tr height=300>
    <td width=300 height=300><img src=""static/images/cards/stack_of_black_stars.svg"" width=""175px"" height=""250px""></img></td>
    <td width=300 height=300><img src=""static/images/cards/stack_of_red_stars.svg"" width=""175px"" height=""250px""></img></td>
  </tr>
  <tr height=200>
    <td width=300><img src=""static/images/keys/w.svg"" width=""35%"" height=""75%""></img></td>
    <td width=300><img src=""static/images/keys/o.svg"" width=""35%"" height=""75%""></img></td>
  </tr>
</table>
  ",79.0,,,,,,,,,,,,,,,,,,,,,,,,,1.0,
224,0,,html-keyboard-response,224,269519,0.0-7.15-1.15,avgoerpg3vf,2022-09-19 17:13:22.603,616d9ef881036dfbfd63d2f4,3,66,56,68,65,947.0,,"
  <table>
  <tr height=300>
    <td width=300 height=300><img src=""static/images/cards/back_of_red_stars.svg"" width=""175px"" height=""250px""></img></td>
    <td width=300 height=300><img src=""static/images/cards/back_of_red_stars.svg"" width=""175px"" height=""250px""></img></td>
  </tr>
  <tr height=200>
    <td width=300><img src=""static/images/keys/z.svg"" width=""35%"" height=""75%""></img></td>
    <td width=300></td>
  </tr>
</table>
  ",90.0,,,,,,,,,,,,,,,,,,,,,,,,,2.0,
225,0,,html-keyboard-response,225,271034,0.0-7.15-2.15,avgoerpg3vf,2022-09-19 17:13:22.603,616d9ef881036dfbfd63d2f4,3,66,56,68,65,,,"
  <table>
  <tr height=300>
    <td width=300 height=300><img src=""static/images/cards/2_of_red_stars.svg"" width=""175px"" height=""250px""></img></td>
    <td width=300 height=300><img src=""static/images/cards/back_of_red_stars.svg"" width=""175px"" height=""250px""></img></td>
  </tr>
  <tr height=200>
    <td width=300><img src=""static/images/keys/z.svg"" width=""35%"" height=""75%""></img></td>
    <td width=300></td>
  </tr>
</table>
  ",,,,,,,,,,,,,,,,,,,,,,,,,,,
226,0,,html-keyboard-response,226,272564,0.0-7.15-3.15,avgoerpg3vf,2022-09-19 17:13:22.603,616d9ef881036dfbfd63d2f4,3,66,56,68,65,,,"<p style=""font-size:50px"">You win!
+10 points this round!</p>",,,,,,,,,,,,,,,,,,,,,,,,,,,
227,0,,html-keyboard-response,227,273081,0.0-7.15-4.15,avgoerpg3vf,2022-09-19 17:13:22.603,616d9ef881036dfbfd63d2f4,3,66,56,68,65,,,,,1.0,choice,15.0,C,D,black,red,stars,stars,C,D,D,red,stars,359.5,0.0,0.0,1,left,947.0,2.0,0.0,1.0,,,
228,0,,html-keyboard-response,228,273513,0.0-7.16-0.16,avgoerpg3vf,2022-09-19 17:13:22.603,616d9ef881036dfbfd63d2f4,3,66,56,68,65,429.5999999046,,"
  <table>
  <tr height=300>
    <td width=300 height=300><img src=""static/images/cards/stack_of_black_moons.svg"" width=""175px"" height=""250px""></img></td>
    <td width=300 height=300><img src=""static/images/cards/stack_of_red_stars.svg"" width=""175px"" height=""250px""></img></td>
  </tr>
  <tr height=200>
    <td width=300><img src=""static/images/keys/w.svg"" width=""35%"" height=""75%""></img></td>
    <td width=300><img src=""static/images/keys/o.svg"" width=""35%"" height=""75%""></img></td>
  </tr>
</table>
  ",87.0,,,,,,,,,,,,,,,,,,,,,,,,,1.0,
229,0,,html-keyboard-response,229,274655,0.0-7.16-1.16,avgoerpg3vf,2022-09-19 17:13:22.603,616d9ef881036dfbfd63d2f4,3,66,56,68,65,624.4000000954,,"
  <table>
  <tr height=300>
    <td width=300 height=300><img src=""static/images/cards/back_of_black_moons.svg"" width=""175px"" height=""250px""></img></td>
    <td width=300 height=300><img src=""static/images/cards/back_of_black_moons.svg"" width=""175px"" height=""250px""></img></td>
  </tr>
  <tr height=200>
    <td width=300><img src=""static/images/keys/z.svg"" width=""35%"" height=""75%""></img></td>
    <td width=300><img src=""static/images/keys/m.svg"" width=""35%"" height=""75%""></img></td>
  </tr>
</table>
  ",77.0,,,,,,,,,,,,,,,,,,,,,,,,,1.0,
230,0,,html-keyboard-response,230,276163,0.0-7.16-2.16,avgoerpg3vf,2022-09-19 17:13:22.603,616d9ef881036dfbfd63d2f4,3,66,56,68,65,,,"
  <table>
  <tr height=300>
    <td width=300 height=300><img src=""static/images/cards/back_of_black_moons.svg"" width=""175px"" height=""250px""></img></td>
    <td width=300 height=300><img src=""static/images/cards/1_of_black_moons.svg"" width=""175px"" height=""250px""></img></td>
  </tr>
  <tr height=200>
    <td width=300><img src=""static/images/keys/z.svg"" width=""35%"" height=""75%""></img></td>
    <td width=300><img src=""static/images/keys/m.svg"" width=""35%"" height=""75%""></img></td>
  </tr>
</table>
  ",,,,,,,,,,,,,,,,,,,,,,,,,,,
231,0,,html-keyboard-response,231,277690,0.0-7.16-3.16,avgoerpg3vf,2022-09-19 17:13:22.603,616d9ef881036dfbfd63d2f4,3,66,56,68,65,,,"<p style=""font-size:50px"">You Lose!
No points this round.</p>",,,,,,,,,,,,,,,,,,,,,,,,,,,
232,0,,html-keyboard-response,232,278207,0.0-7.16-4.16,avgoerpg3vf,2022-09-19 17:13:22.603,616d9ef881036dfbfd63d2f4,3,66,56,68,65,,,,,1.0,choice,16.0,A,D,black,red,moons,stars,A,D,A,black,moons,429.5999999046,1.0,1.0,NA,right,624.4000000954,1.0,0.0,0.0,,,
233,0,,html-keyboard-response,233,279052,0.0-7.17-0.17,avgoerpg3vf,2022-09-19 17:13:22.603,616d9ef881036dfbfd63d2f4,3,66,56,68,65,841.8999998569,,"
  <table>
  <tr height=300>
    <td width=300 height=300><img src=""static/images/cards/stack_of_red_stars.svg"" width=""175px"" height=""250px""></img></td>
    <td width=300 height=300><img src=""static/images/cards/stack_of_black_stars.svg"" width=""175px"" height=""250px""></img></td>
  </tr>
  <tr height=200>
    <td width=300><img src=""static/images/keys/w.svg"" width=""35%"" height=""75%""></img></td>
    <td width=300><img src=""static/images/keys/o.svg"" width=""35%"" height=""75%""></img></td>
  </tr>
</table>
  ",87.0,,,,,,,,,,,,,,,,,,,,,,,,,1.0,
234,0,,html-keyboard-response,234,279943,0.0-7.17-1.17,avgoerpg3vf,2022-09-19 17:13:22.603,616d9ef881036dfbfd63d2f4,3,66,56,68,65,385.5999999046,,"
  <table>
  <tr height=300>
    <td width=300 height=300><img src=""static/images/cards/back_of_red_stars.svg"" width=""175px"" height=""250px""></img></td>
    <td width=300 height=300><img src=""static/images/cards/back_of_red_stars.svg"" width=""175px"" height=""250px""></img></td>
  </tr>
  <tr height=200>
    <td width=300><img src=""static/images/keys/z.svg"" width=""35%"" height=""75%""></img></td>
    <td width=300></td>
  </tr>
</table>
  ",90.0,,,,,,,,,,,,,,,,,,,,,,,,,1.0,
235,0,,html-keyboard-response,235,281452,0.0-7.17-2.17,avgoerpg3vf,2022-09-19 17:13:22.603,616d9ef881036dfbfd63d2f4,3,66,56,68,65,,,"
  <table>
  <tr height=300>
    <td width=300 height=300><img src=""static/images/cards/1_of_red_stars.svg"" width=""175px"" height=""250px""></img></td>
    <td width=300 height=300><img src=""static/images/cards/back_of_red_stars.svg"" width=""175px"" height=""250px""></img></td>
  </tr>
  <tr height=200>
    <td width=300><img src=""static/images/keys/z.svg"" width=""35%"" height=""75%""></img></td>
    <td width=300></td>
  </tr>
</table>
  ",,,,,,,,,,,,,,,,,,,,,,,,,,,
236,0,,html-keyboard-response,236,282979,0.0-7.17-3.17,avgoerpg3vf,2022-09-19 17:13:22.603,616d9ef881036dfbfd63d2f4,3,66,56,68,65,,,"<p style=""font-size:50px"">You Lose!
No points this round.</p>",,,,,,,,,,,,,,,,,,,,,,,,,,,
237,0,,html-keyboard-response,237,283496,0.0-7.17-4.17,avgoerpg3vf,2022-09-19 17:13:22.603,616d9ef881036dfbfd63d2f4,3,66,56,68,65,,,,,1.0,choice,17.0,C,D,red,black,stars,stars,D,C,D,red,stars,841.8999998569,0.0,0.0,1,left,385.5999999046,1.0,0.0,0.0,,,
238,0,,html-keyboard-response,238,284015,0.0-7.18-0.18,avgoerpg3vf,2022-09-19 17:13:22.603,616d9ef881036dfbfd63d2f4,3,66,56,68,65,516.2000000477,,"
  <table>
  <tr height=300>
    <td width=300 height=300><img src=""static/images/cards/stack_of_red_stars.svg"" width=""175px"" height=""250px""></img></td>
    <td width=300 height=300><img src=""static/images/cards/stack_of_black_stars.svg"" width=""175px"" height=""250px""></img></td>
  </tr>
  <tr height=200>
    <td width=300><img src=""static/images/keys/w.svg"" width=""35%"" height=""75%""></img></td>
