,index,success,trial_type,trial_index,time_elapsed,internal_node_id,subject,date,prol_id,ctbl,sense_of_control_A,sense_of_control_B,sense_of_control_C,sense_of_control_D,age,gender,rt,url,stimulus,key_press,is_data_trial,phase,trial,deck1,deck2,col1,col2,sym1,sym2,deck_l,deck_r,chosen_deck,chosen_col,chosen_sym,deck_rt,choose_choice,mutual_info,hidden_key,chosen_card,card_rt,player_num,win_card,outcome,mock_rating,npress,response,responses
0,0,1.0,fullscreen,0,5961,0.0-0.0,kk78jy37wrk,2022-09-16 18:30:20.320,5f033cc10aca931fff6d30a3,1,49,47,47,48,30,Female,,,,,,,,,,,,,,,,,,,,,,,,,,,,,,,
1,0,,external-html,1,47969,0.0-1.0,kk78jy37wrk,2022-09-16 18:30:20.320,5f033cc10aca931fff6d30a3,1,49,47,47,48,30,Female,41711.5,static/js/sub/consent.html,,,,,,,,,,,,,,,,,,,,,,,,,,,,,
2,0,,call-function,2,47970,0.0-2.0,kk78jy37wrk,2022-09-16 18:30:20.320,5f033cc10aca931fff6d30a3,1,49,47,47,48,30,Female,,,,,,,,,,,,,,,,,,,,,,,,,,,,,,,
3,0,,image-keyboard-response,3,73134,0.0-3.0-0.0,kk78jy37wrk,2022-09-16 18:30:20.320,5f033cc10aca931fff6d30a3,1,49,47,47,48,30,Female,25158.2000002861,,static/images/instructions_CB_1/Slide1.png,39.0,,,,,,,,,,,,,,,,,,,,,,,,,,,
4,0,,image-keyboard-response,4,93347,0.0-3.1-0.1,kk78jy37wrk,2022-09-16 18:30:20.320,5f033cc10aca931fff6d30a3,1,49,47,47,48,30,Female,20211.8000001907,,static/images/instructions_CB_1/Slide2.png,39.0,,,,,,,,,,,,,,,,,,,,,,,,,,,
5,0,,image-keyboard-response,5,110117,0.0-3.2-0.2,kk78jy37wrk,2022-09-16 18:30:20.320,5f033cc10aca931fff6d30a3,1,49,47,47,48,30,Female,16768.5,,static/images/instructions_CB_1/Slide3.png,39.0,,,,,,,,,,,,,,,,,,,,,,,,,,,
6,0,,image-keyboard-response,6,115597,0.0-3.3-0.3,kk78jy37wrk,2022-09-16 18:30:20.320,5f033cc10aca931fff6d30a3,1,49,47,47,48,30,Female,5479.0,,static/images/instructions_CB_1/Slide4.png,39.0,,,,,,,,,,,,,,,,,,,,,,,,,,,
7,0,,image-keyboard-response,7,123087,0.0-3.4-0.4,kk78jy37wrk,2022-09-16 18:30:20.320,5f033cc10aca931fff6d30a3,1,49,47,47,48,30,Female,7488.9000000954,,static/images/instructions_CB_1/Slide5.png,39.0,,,,,,,,,,,,,,,,,,,,,,,,,,,
8,0,,image-keyboard-response,8,127627,0.0-3.5-0.5,kk78jy37wrk,2022-09-16 18:30:20.320,5f033cc10aca931fff6d30a3,1,49,47,47,48,30,Female,4539.0999999046,,static/images/instructions_CB_1/Slide6.png,39.0,,,,,,,,,,,,,,,,,,,,,,,,,,,
9,0,,image-keyboard-response,9,135317,0.0-3.6-0.6,kk78jy37wrk,2022-09-16 18:30:20.320,5f033cc10aca931fff6d30a3,1,49,47,47,48,30,Female,7689.0,,static/images/instructions_CB_1/Slide7.png,39.0,,,,,,,,,,,,,,,,,,,,,,,,,,,
10,0,,image-keyboard-response,10,155537,0.0-3.7-0.7,kk78jy37wrk,2022-09-16 18:30:20.320,5f033cc10aca931fff6d30a3,1,49,47,47,48,30,Female,20218.7999997139,,static/images/instructions_CB_1/Slide8.png,39.0,,,,,,,,,,,,,,,,,,,,,,,,,,,
11,0,,image-keyboard-response,11,173348,0.0-3.8-0.8,kk78jy37wrk,2022-09-16 18:30:20.320,5f033cc10aca931fff6d30a3,1,49,47,47,48,30,Female,17809.4000000954,,static/images/instructions_CB_1/Slide9.png,39.0,,,,,,,,,,,,,,,,,,,,,,,,,,,
12,0,,image-keyboard-response,12,190097,0.0-3.9-0.9,kk78jy37wrk,2022-09-16 18:30:20.320,5f033cc10aca931fff6d30a3,1,49,47,47,48,30,Female,16747.8999996185,,static/images/instructions_CB_1/Slide10.png,39.0,,,,,,,,,,,,,,,,,,,,,,,,,,,
13,0,,image-keyboard-response,13,194530,0.0-3.10-0.10,kk78jy37wrk,2022-09-16 18:30:20.320,5f033cc10aca931fff6d30a3,1,49,47,47,48,30,Female,4432.2999997139,,static/images/instructions_CB_1/Slide11.png,39.0,,,,,,,,,,,,,,,,,,,,,,,,,,,
14,0,,image-keyboard-response,14,209037,0.0-3.11-0.11,kk78jy37wrk,2022-09-16 18:30:20.320,5f033cc10aca931fff6d30a3,1,49,47,47,48,30,Female,14506.2000002861,,static/images/instructions_CB_1/Slide12.png,39.0,,,,,,,,,,,,,,,,,,,,,,,,,,,
15,0,,image-keyboard-response,15,215917,0.0-3.12-0.12,kk78jy37wrk,2022-09-16 18:30:20.320,5f033cc10aca931fff6d30a3,1,49,47,47,48,30,Female,6878.9000000954,,static/images/instructions_CB_1/Slide13.png,39.0,,,,,,,,,,,,,,,,,,,,,,,,,,,
16,0,,image-keyboard-response,16,224737,0.0-3.13-0.13,kk78jy37wrk,2022-09-16 18:30:20.320,5f033cc10aca931fff6d30a3,1,49,47,47,48,30,Female,8819.0,,static/images/instructions_CB_1/Slide14.png,39.0,,,,,,,,,,,,,,,,,,,,,,,,,,,
17,0,,image-keyboard-response,17,226787,0.0-3.14-0.14,kk78jy37wrk,2022-09-16 18:30:20.320,5f033cc10aca931fff6d30a3,1,49,47,47,48,30,Female,2049.1999998093,,static/images/instructions_CB_1/Slide15.png,39.0,,,,,,,,,,,,,,,,,,,,,,,,,,,
18,0,,image-keyboard-response,18,228657,0.0-3.15-0.15,kk78jy37wrk,2022-09-16 18:30:20.320,5f033cc10aca931fff6d30a3,1,49,47,47,48,30,Female,1869.1999998093,,static/images/instructions_CB_1/Slide16.png,39.0,,,,,,,,,,,,,,,,,,,,,,,,,,,
19,0,,image-keyboard-response,19,231167,0.0-3.16-0.16,kk78jy37wrk,2022-09-16 18:30:20.320,5f033cc10aca931fff6d30a3,1,49,47,47,48,30,Female,2509.3000001907,,static/images/instructions_CB_1/Slide17.png,39.0,,,,,,,,,,,,,,,,,,,,,,,,,,,
20,0,,image-keyboard-response,20,232947,0.0-3.17-0.17,kk78jy37wrk,2022-09-16 18:30:20.320,5f033cc10aca931fff6d30a3,1,49,47,47,48,30,Female,1779.1000003815,,static/images/instructions_CB_1/Slide18.png,39.0,,,,,,,,,,,,,,,,,,,,,,,,,,,
21,0,,image-keyboard-response,21,234478,0.0-3.18-0.18,kk78jy37wrk,2022-09-16 18:30:20.320,5f033cc10aca931fff6d30a3,1,49,47,47,48,30,Female,1529.8000001907,,static/images/instructions_CB_1/Slide19.png,37.0,,,,,,,,,,,,,,,,,,,,,,,,,,,
22,0,,image-keyboard-response,22,282067,0.0-3.19-0.19,kk78jy37wrk,2022-09-16 18:30:20.320,5f033cc10aca931fff6d30a3,1,49,47,47,48,30,Female,47588.2999997139,,static/images/instructions_CB_1/Slide18.png,39.0,,,,,,,,,,,,,,,,,,,,,,,,,,,
23,0,,image-keyboard-response,23,287737,0.0-3.20-0.20,kk78jy37wrk,2022-09-16 18:30:20.320,5f033cc10aca931fff6d30a3,1,49,47,47,48,30,Female,5669.0,,static/images/instructions_CB_1/Slide19.png,39.0,,,,,,,,,,,,,,,,,,,,,,,,,,,
24,0,,html-keyboard-response,24,289246,0.0-4.0-0.0,kk78jy37wrk,2022-09-16 18:30:20.320,5f033cc10aca931fff6d30a3,1,49,47,47,48,30,Female,,,"<img src=""static/images/cards/stack_of_red_moons.svg"" width=""175px"" height=""250px""></img>",,,,,,,,,,,,,,,,,,,,,,,,,,,,
25,0,,html-keyboard-response,25,292750,0.0-4.0-1.0,kk78jy37wrk,2022-09-16 18:30:20.320,5f033cc10aca931fff6d30a3,1,49,47,47,48,30,Female,,,"
  <table>
  <tr height=300>
    <td width=300 height=300><img src=""static/images/cards/back_of_red_moons.svg"" width=""175px"" height=""250px""></img></td>
    <td width=300 height=300><img src=""static/images/cards/back_of_red_moons.svg"" width=""175px"" height=""250px""></img></td>
  </tr>
  <tr height=200>
    <td width=300><img src=""static/images/keys/z.svg"" width=""35%"" height=""75%""></img></td>
    <td width=300><img src=""static/images/keys/m.svg"" width=""35%"" height=""75%""></img></td>
  </tr>
</table>
  ",,,,,,,,,,,,,,,,,,,,,,,,,,,,
26,0,,html-keyboard-response,26,292751,0.0-4.0-2.0,kk78jy37wrk,2022-09-16 18:30:20.320,5f033cc10aca931fff6d30a3,1,49,47,47,48,30,Female,,,,,,,,,,,,,,,,,,,,,,,,,,,,,,,
27,0,,html-keyboard-response,27,294261,0.0-4.0-3.0,kk78jy37wrk,2022-09-16 18:30:20.320,5f033cc10aca931fff6d30a3,1,49,47,47,48,30,Female,,,"<p style=""font-size:50px"">Too slow!</p>",,,,,,,,,,,,,,,,,,,,,,,,,,,,
28,0,,html-keyboard-response,28,294768,0.0-4.0-4.0,kk78jy37wrk,2022-09-16 18:30:20.320,5f033cc10aca931fff6d30a3,1,49,47,47,48,30,Female,,,,,1.0,learning,0.0,A,,red,,moons,,,,A,red,moons,,1.0,1.0,NA,,,,,,,,,
29,0,,html-keyboard-response,29,296278,0.0-4.1-0.1,kk78jy37wrk,2022-09-16 18:30:20.320,5f033cc10aca931fff6d30a3,1,49,47,47,48,30,Female,,,"<img src=""static/images/cards/stack_of_black_moons.svg"" width=""175px"" height=""250px""></img>",,,,,,,,,,,,,,,,,,,,,,,,,,,,
30,0,,html-keyboard-response,30,298276,0.0-4.1-1.1,kk78jy37wrk,2022-09-16 18:30:20.320,5f033cc10aca931fff6d30a3,1,49,47,47,48,30,Female,1496.1999998093,,"
  <table>
  <tr height=300>
    <td width=300 height=300><img src=""static/images/cards/back_of_black_moons.svg"" width=""175px"" height=""250px""></img></td>
    <td width=300 height=300><img src=""static/images/cards/back_of_black_moons.svg"" width=""175px"" height=""250px""></img></td>
  </tr>
  <tr height=200>
    <td width=300></td>
    <td width=300><img src=""static/images/keys/m.svg"" width=""35%"" height=""75%""></img></td>
  </tr>
</table>
  ",77.0,,,,,,,,,,,,,,,,,,,,,,,,,1.0,,
31,0,,html-keyboard-response,31,299779,0.0-4.1-2.1,kk78jy37wrk,2022-09-16 18:30:20.320,5f033cc10aca931fff6d30a3,1,49,47,47,48,30,Female,,,"
  <table>
  <tr height=300>
    <td width=300 height=300><img src=""static/images/cards/back_of_black_moons.svg"" width=""175px"" height=""250px""></img></td>
    <td width=300 height=300><img src=""static/images/cards/1_of_black_moons.svg"" width=""175px"" height=""250px""></img></td>
  </tr>
  <tr height=200>
    <td width=300></td>
    <td width=300><img src=""static/images/keys/m.svg"" width=""35%"" height=""75%""></img></td>
  </tr>
</table>
  ",,,,,,,,,,,,,,,,,,,,,,,,,,,,
32,0,,html-keyboard-response,32,301288,0.0-4.1-3.1,kk78jy37wrk,2022-09-16 18:30:20.320,5f033cc10aca931fff6d30a3,1,49,47,47,48,30,Female,,,"<p style=""font-size:50px"">You Lose!
No points this round.</p>",,,,,,,,,,,,,,,,,,,,,,,,,,,,
33,0,,html-keyboard-response,33,301794,0.0-4.1-4.1,kk78jy37wrk,2022-09-16 18:30:20.320,5f033cc10aca931fff6d30a3,1,49,47,47,48,30,Female,,,,,1.0,learning,1.0,B,,black,,moons,,,,B,black,moons,,0.0,1.0,0,right,1496.1999998093,1.0,0.0,0.0,,,,
34,0,,html-keyboard-response,34,303295,0.0-4.2-0.2,kk78jy37wrk,2022-09-16 18:30:20.320,5f033cc10aca931fff6d30a3,1,49,47,47,48,30,Female,,,"<img src=""static/images/cards/stack_of_red_stars.svg"" width=""175px"" height=""250px""></img>",,,,,,,,,,,,,,,,,,,,,,,,,,,,
35,0,,html-keyboard-response,35,305817,0.0-4.2-1.2,kk78jy37wrk,2022-09-16 18:30:20.320,5f033cc10aca931fff6d30a3,1,49,47,47,48,30,Female,2018.4000000954,,"
  <table>
  <tr height=300>
    <td width=300 height=300><img src=""static/images/cards/back_of_red_stars.svg"" width=""175px"" height=""250px""></img></td>
    <td width=300 height=300><img src=""static/images/cards/back_of_red_stars.svg"" width=""175px"" height=""250px""></img></td>
  </tr>
  <tr height=200>
    <td width=300><img src=""static/images/keys/z.svg"" width=""35%"" height=""75%""></img></td>
    <td width=300><img src=""static/images/keys/m.svg"" width=""35%"" height=""75%""></img></td>
  </tr>
</table>
  ",77.0,,,,,,,,,,,,,,,,,,,,,,,,,1.0,,
36,0,,html-keyboard-response,36,307320,0.0-4.2-2.2,kk78jy37wrk,2022-09-16 18:30:20.320,5f033cc10aca931fff6d30a3,1,49,47,47,48,30,Female,,,"
  <table>
  <tr height=300>
    <td width=300 height=300><img src=""static/images/cards/back_of_red_stars.svg"" width=""175px"" height=""250px""></img></td>
    <td width=300 height=300><img src=""static/images/cards/10_of_red_stars.svg"" width=""175px"" height=""250px""></img></td>
  </tr>
  <tr height=200>
    <td width=300><img src=""static/images/keys/z.svg"" width=""35%"" height=""75%""></img></td>
    <td width=300><img src=""static/images/keys/m.svg"" width=""35%"" height=""75%""></img></td>
  </tr>
</table>
  ",,,,,,,,,,,,,,,,,,,,,,,,,,,,
37,0,,html-keyboard-response,37,308836,0.0-4.2-3.2,kk78jy37wrk,2022-09-16 18:30:20.320,5f033cc10aca931fff6d30a3,1,49,47,47,48,30,Female,,,"<p style=""font-size:50px"">You Lose!
No points this round.</p>",,,,,,,,,,,,,,,,,,,,,,,,,,,,
38,0,,html-keyboard-response,38,309343,0.0-4.2-4.2,kk78jy37wrk,2022-09-16 18:30:20.320,5f033cc10aca931fff6d30a3,1,49,47,47,48,30,Female,,,,,1.0,learning,2.0,C,,red,,stars,,,,C,red,stars,,1.0,0.0,NA,right,2018.4000000954,10.0,1.0,0.0,,,,
39,0,,html-keyboard-response,39,310847,0.0-4.3-0.3,kk78jy37wrk,2022-09-16 18:30:20.320,5f033cc10aca931fff6d30a3,1,49,47,47,48,30,Female,,,"<img src=""static/images/cards/stack_of_black_stars.svg"" width=""175px"" height=""250px""></img>",,,,,,,,,,,,,,,,,,,,,,,,,,,,
40,0,,html-keyboard-response,40,313528,0.0-4.3-1.3,kk78jy37wrk,2022-09-16 18:30:20.320,5f033cc10aca931fff6d30a3,1,49,47,47,48,30,Female,2179.2999997139,,"
  <table>
  <tr height=300>
    <td width=300 height=300><img src=""static/images/cards/back_of_black_stars.svg"" width=""175px"" height=""250px""></img></td>
    <td width=300 height=300><img src=""static/images/cards/back_of_black_stars.svg"" width=""175px"" height=""250px""></img></td>
  </tr>
  <tr height=200>
    <td width=300><img src=""static/images/keys/z.svg"" width=""35%"" height=""75%""></img></td>
    <td width=300></td>
  </tr>
</table>
  ",90.0,,,,,,,,,,,,,,,,,,,,,,,,,1.0,,
41,0,,html-keyboard-response,41,315031,0.0-4.3-2.3,kk78jy37wrk,2022-09-16 18:30:20.320,5f033cc10aca931fff6d30a3,1,49,47,47,48,30,Female,,,"
  <table>
  <tr height=300>
    <td width=300 height=300><img src=""static/images/cards/2_of_black_stars.svg"" width=""175px"" height=""250px""></img></td>
    <td width=300 height=300><img src=""static/images/cards/back_of_black_stars.svg"" width=""175px"" height=""250px""></img></td>
  </tr>
  <tr height=200>
    <td width=300><img src=""static/images/keys/z.svg"" width=""35%"" height=""75%""></img></td>
    <td width=300></td>
  </tr>
</table>
  ",,,,,,,,,,,,,,,,,,,,,,,,,,,,
42,0,,html-keyboard-response,42,316542,0.0-4.3-3.3,kk78jy37wrk,2022-09-16 18:30:20.320,5f033cc10aca931fff6d30a3,1,49,47,47,48,30,Female,,,"<p style=""font-size:50px"">You win!
+10 points this round!</p>",,,,,,,,,,,,,,,,,,,,,,,,,,,,
43,0,,html-keyboard-response,43,317048,0.0-4.3-4.3,kk78jy37wrk,2022-09-16 18:30:20.320,5f033cc10aca931fff6d30a3,1,49,47,47,48,30,Female,,,,,1.0,learning,3.0,D,,black,,stars,,,,D,black,stars,,0.0,0.0,1,left,2179.2999997139,2.0,0.0,1.0,,,,
44,0,,html-keyboard-response,44,318549,0.0-4.4-0.4,kk78jy37wrk,2022-09-16 18:30:20.320,5f033cc10aca931fff6d30a3,1,49,47,47,48,30,Female,,,"<img src=""static/images/cards/stack_of_red_bolts.svg"" width=""175px"" height=""250px""></img>",,,,,,,,,,,,,,,,,,,,,,,,,,,,
45,0,,html-keyboard-response,45,320557,0.0-4.4-1.4,kk78jy37wrk,2022-09-16 18:30:20.320,5f033cc10aca931fff6d30a3,1,49,47,47,48,30,Female,1505.1999998093,,"
  <table>
  <tr height=300>
    <td width=300 height=300><img src=""static/images/cards/back_of_red_bolts.svg"" width=""175px"" height=""250px""></img></td>
    <td width=300 height=300><img src=""static/images/cards/back_of_red_bolts.svg"" width=""175px"" height=""250px""></img></td>
  </tr>
  <tr height=200>
    <td width=300><img src=""static/images/keys/z.svg"" width=""35%"" height=""75%""></img></td>
    <td width=300><img src=""static/images/keys/m.svg"" width=""35%"" height=""75%""></img></td>
  </tr>
</table>
  ",90.0,,,,,,,,,,,,,,,,,,,,,,,,,1.0,,
46,0,,html-keyboard-response,46,322072,0.0-4.4-2.4,kk78jy37wrk,2022-09-16 18:30:20.320,5f033cc10aca931fff6d30a3,1,49,47,47,48,30,Female,,,"
  <table>
  <tr height=300>
    <td width=300 height=300><img src=""static/images/cards/8_of_red_bolts.svg"" width=""175px"" height=""250px""></img></td>
    <td width=300 height=300><img src=""static/images/cards/back_of_red_bolts.svg"" width=""175px"" height=""250px""></img></td>
  </tr>
  <tr height=200>
    <td width=300><img src=""static/images/keys/z.svg"" width=""35%"" height=""75%""></img></td>
    <td width=300><img src=""static/images/keys/m.svg"" width=""35%"" height=""75%""></img></td>
  </tr>
</table>
  ",,,,,,,,,,,,,,,,,,,,,,,,,,,,
47,0,,html-keyboard-response,47,323588,0.0-4.4-3.4,kk78jy37wrk,2022-09-16 18:30:20.320,5f033cc10aca931fff6d30a3,1,49,47,47,48,30,Female,,,"<p style=""font-size:50px"">You win!
+10 points this round!</p>",,,,,,,,,,,,,,,,,,,,,,,,,,,,
48,0,,html-keyboard-response,48,324094,0.0-4.4-4.4,kk78jy37wrk,2022-09-16 18:30:20.320,5f033cc10aca931fff6d30a3,1,49,47,47,48,30,Female,,,,,1.0,learning,4.0,Xc,,red,,bolts,,,,Xc,red,bolts,,1.0,0.0,NA,left,1505.1999998093,8.0,1.0,1.0,,,,
49,0,,html-keyboard-response,49,325607,0.0-4.5-0.5,kk78jy37wrk,2022-09-16 18:30:20.320,5f033cc10aca931fff6d30a3,1,49,47,47,48,30,Female,,,"<img src=""static/images/cards/stack_of_black_bolts.svg"" width=""175px"" height=""250px""></img>",,,,,,,,,,,,,,,,,,,,,,,,,,,,
50,0,,html-keyboard-response,50,327758,0.0-4.5-1.5,kk78jy37wrk,2022-09-16 18:30:20.320,5f033cc10aca931fff6d30a3,1,49,47,47,48,30,Female,1648.9000000954,,"
  <table>
  <tr height=300>
    <td width=300 height=300><img src=""static/images/cards/back_of_black_bolts.svg"" width=""175px"" height=""250px""></img></td>
    <td width=300 height=300><img src=""static/images/cards/back_of_black_bolts.svg"" width=""175px"" height=""250px""></img></td>
  </tr>
  <tr height=200>
    <td width=300><img src=""static/images/keys/z.svg"" width=""35%"" height=""75%""></img></td>
    <td width=300></td>
  </tr>
</table>
  ",90.0,,,,,,,,,,,,,,,,,,,,,,,,,1.0,,
51,0,,html-keyboard-response,51,329260,0.0-4.5-2.5,kk78jy37wrk,2022-09-16 18:30:20.320,5f033cc10aca931fff6d30a3,1,49,47,47,48,30,Female,,,"
  <table>
  <tr height=300>
    <td width=300 height=300><img src=""static/images/cards/8_of_black_bolts.svg"" width=""175px"" height=""250px""></img></td>
    <td width=300 height=300><img src=""static/images/cards/back_of_black_bolts.svg"" width=""175px"" height=""250px""></img></td>
  </tr>
  <tr height=200>
    <td width=300><img src=""static/images/keys/z.svg"" width=""35%"" height=""75%""></img></td>
    <td width=300></td>
  </tr>
</table>
  ",,,,,,,,,,,,,,,,,,,,,,,,,,,,
52,0,,html-keyboard-response,52,330761,0.0-4.5-3.5,kk78jy37wrk,2022-09-16 18:30:20.320,5f033cc10aca931fff6d30a3,1,49,47,47,48,30,Female,,,"<p style=""font-size:50px"">You win!
+10 points this round!</p>",,,,,,,,,,,,,,,,,,,,,,,,,,,,
53,0,,html-keyboard-response,53,331282,0.0-4.5-4.5,kk78jy37wrk,2022-09-16 18:30:20.320,5f033cc10aca931fff6d30a3,1,49,47,47,48,30,Female,,,,,1.0,learning,5.0,Xnc,,black,,bolts,,,,Xnc,black,bolts,,0.0,0.0,1,left,1648.9000000954,8.0,1.0,1.0,,,,
54,0,,html-keyboard-response,54,332795,0.0-4.6-0.6,kk78jy37wrk,2022-09-16 18:30:20.320,5f033cc10aca931fff6d30a3,1,49,47,47,48,30,Female,,,"<img src=""static/images/cards/stack_of_red_moons.svg"" width=""175px"" height=""250px""></img>",,,,,,,,,,,,,,,,,,,,,,,,,,,,
55,0,,html-keyboard-response,55,336301,0.0-4.6-1.6,kk78jy37wrk,2022-09-16 18:30:20.320,5f033cc10aca931fff6d30a3,1,49,47,47,48,30,Female,,,"
  <table>
  <tr height=300>
    <td width=300 height=300><img src=""static/images/cards/back_of_red_moons.svg"" width=""175px"" height=""250px""></img></td>
    <td width=300 height=300><img src=""static/images/cards/back_of_red_moons.svg"" width=""175px"" height=""250px""></img></td>
  </tr>
  <tr height=200>
    <td width=300><img src=""static/images/keys/z.svg"" width=""35%"" height=""75%""></img></td>
    <td width=300><img src=""static/images/keys/m.svg"" width=""35%"" height=""75%""></img></td>
  </tr>
</table>
  ",,,,,,,,,,,,,,,,,,,,,,,,,,,,
56,0,,html-keyboard-response,56,336305,0.0-4.6-2.6,kk78jy37wrk,2022-09-16 18:30:20.320,5f033cc10aca931fff6d30a3,1,49,47,47,48,30,Female,,,,,,,,,,,,,,,,,,,,,,,,,,,,,,,
57,0,,html-keyboard-response,57,337808,0.0-4.6-3.6,kk78jy37wrk,2022-09-16 18:30:20.320,5f033cc10aca931fff6d30a3,1,49,47,47,48,30,Female,,,"<p style=""font-size:50px"">Too slow!</p>",,,,,,,,,,,,,,,,,,,,,,,,,,,,
58,0,,html-keyboard-response,58,338315,0.0-4.6-4.6,kk78jy37wrk,2022-09-16 18:30:20.320,5f033cc10aca931fff6d30a3,1,49,47,47,48,30,Female,,,,,1.0,learning,6.0,A,,red,,moons,,,,A,red,moons,,1.0,1.0,NA,,,8.0,1.0,1.0,,,,
59,0,,html-keyboard-response,59,339819,0.0-4.7-0.7,kk78jy37wrk,2022-09-16 18:30:20.320,5f033cc10aca931fff6d30a3,1,49,47,47,48,30,Female,,,"<img src=""static/images/cards/stack_of_black_moons.svg"" width=""175px"" height=""250px""></img>",,,,,,,,,,,,,,,,,,,,,,,,,,,,
60,0,,html-keyboard-response,60,343327,0.0-4.7-1.7,kk78jy37wrk,2022-09-16 18:30:20.320,5f033cc10aca931fff6d30a3,1,49,47,47,48,30,Female,,,"
  <table>
  <tr height=300>
    <td width=300 height=300><img src=""static/images/cards/back_of_black_moons.svg"" width=""175px"" height=""250px""></img></td>
    <td width=300 height=300><img src=""static/images/cards/back_of_black_moons.svg"" width=""175px"" height=""250px""></img></td>
  </tr>
  <tr height=200>
    <td width=300></td>
    <td width=300><img src=""static/images/keys/m.svg"" width=""35%"" height=""75%""></img></td>
  </tr>
</table>
  ",,,,,,,,,,,,,,,,,,,,,,,,,,,,
61,0,,html-keyboard-response,61,343333,0.0-4.7-2.7,kk78jy37wrk,2022-09-16 18:30:20.320,5f033cc10aca931fff6d30a3,1,49,47,47,48,30,Female,,,,,,,,,,,,,,,,,,,,,,,,,,,,,,,
62,0,,html-keyboard-response,62,344845,0.0-4.7-3.7,kk78jy37wrk,2022-09-16 18:30:20.320,5f033cc10aca931fff6d30a3,1,49,47,47,48,30,Female,,,"<p style=""font-size:50px"">Too slow!</p>",,,,,,,,,,,,,,,,,,,,,,,,,,,,
63,0,,html-keyboard-response,63,345358,0.0-4.7-4.7,kk78jy37wrk,2022-09-16 18:30:20.320,5f033cc10aca931fff6d30a3,1,49,47,47,48,30,Female,,,,,1.0,learning,7.0,B,,black,,moons,,,,B,black,moons,,0.0,1.0,0,,,8.0,1.0,1.0,,,,
64,0,,html-keyboard-response,64,346868,0.0-4.8-0.8,kk78jy37wrk,2022-09-16 18:30:20.320,5f033cc10aca931fff6d30a3,1,49,47,47,48,30,Female,,,"<img src=""static/images/cards/stack_of_red_stars.svg"" width=""175px"" height=""250px""></img>",,,,,,,,,,,,,,,,,,,,,,,,,,,,
65,0,,html-keyboard-response,65,350370,0.0-4.8-1.8,kk78jy37wrk,2022-09-16 18:30:20.320,5f033cc10aca931fff6d30a3,1,49,47,47,48,30,Female,,,"
  <table>
  <tr height=300>
    <td width=300 height=300><img src=""static/images/cards/back_of_red_stars.svg"" width=""175px"" height=""250px""></img></td>
    <td width=300 height=300><img src=""static/images/cards/back_of_red_stars.svg"" width=""175px"" height=""250px""></img></td>
  </tr>
  <tr height=200>
    <td width=300><img src=""static/images/keys/z.svg"" width=""35%"" height=""75%""></img></td>
    <td width=300><img src=""static/images/keys/m.svg"" width=""35%"" height=""75%""></img></td>
  </tr>
</table>
  ",,,,,,,,,,,,,,,,,,,,,,,,,,,,
66,0,,html-keyboard-response,66,350375,0.0-4.8-2.8,kk78jy37wrk,2022-09-16 18:30:20.320,5f033cc10aca931fff6d30a3,1,49,47,47,48,30,Female,,,,,,,,,,,,,,,,,,,,,,,,,,,,,,,
67,0,,html-keyboard-response,67,351878,0.0-4.8-3.8,kk78jy37wrk,2022-09-16 18:30:20.320,5f033cc10aca931fff6d30a3,1,49,47,47,48,30,Female,,,"<p style=""font-size:50px"">Too slow!</p>",,,,,,,,,,,,,,,,,,,,,,,,,,,,
68,0,,html-keyboard-response,68,352384,0.0-4.8-4.8,kk78jy37wrk,2022-09-16 18:30:20.320,5f033cc10aca931fff6d30a3,1,49,47,47,48,30,Female,,,,,1.0,learning,8.0,C,,red,,stars,,,,C,red,stars,,1.0,0.0,NA,,,8.0,1.0,1.0,,,,
69,0,,html-keyboard-response,69,353897,0.0-4.9-0.9,kk78jy37wrk,2022-09-16 18:30:20.320,5f033cc10aca931fff6d30a3,1,49,47,47,48,30,Female,,,"<img src=""static/images/cards/stack_of_black_stars.svg"" width=""175px"" height=""250px""></img>",,,,,,,,,,,,,,,,,,,,,,,,,,,,
70,0,,html-keyboard-response,70,356054,0.0-4.9-1.9,kk78jy37wrk,2022-09-16 18:30:20.320,5f033cc10aca931fff6d30a3,1,49,47,47,48,30,Female,1655.3999996185,,"
  <table>
  <tr height=300>
    <td width=300 height=300><img src=""static/images/cards/back_of_black_stars.svg"" width=""175px"" height=""250px""></img></td>
    <td width=300 height=300><img src=""static/images/cards/back_of_black_stars.svg"" width=""175px"" height=""250px""></img></td>
  </tr>
  <tr height=200>
    <td width=300><img src=""static/images/keys/z.svg"" width=""35%"" height=""75%""></img></td>
    <td width=300></td>
  </tr>
</table>
  ",90.0,,,,,,,,,,,,,,,,,,,,,,,,,1.0,,
71,0,,html-keyboard-response,71,357557,0.0-4.9-2.9,kk78jy37wrk,2022-09-16 18:30:20.320,5f033cc10aca931fff6d30a3,1,49,47,47,48,30,Female,,,"
  <table>
  <tr height=300>
    <td width=300 height=300><img src=""static/images/cards/6_of_black_stars.svg"" width=""175px"" height=""250px""></img></td>
    <td width=300 height=300><img src=""static/images/cards/back_of_black_stars.svg"" width=""175px"" height=""250px""></img></td>
  </tr>
  <tr height=200>
    <td width=300><img src=""static/images/keys/z.svg"" width=""35%"" height=""75%""></img></td>
    <td width=300></td>
  </tr>
</table>
  ",,,,,,,,,,,,,,,,,,,,,,,,,,,,
72,0,,html-keyboard-response,72,359065,0.0-4.9-3.9,kk78jy37wrk,2022-09-16 18:30:20.320,5f033cc10aca931fff6d30a3,1,49,47,47,48,30,Female,,,"<p style=""font-size:50px"">You win!
+10 points this round!</p>",,,,,,,,,,,,,,,,,,,,,,,,,,,,
73,0,,html-keyboard-response,73,359572,0.0-4.9-4.9,kk78jy37wrk,2022-09-16 18:30:20.320,5f033cc10aca931fff6d30a3,1,49,47,47,48,30,Female,,,,,1.0,learning,9.0,D,,black,,stars,,,,D,black,stars,,0.0,0.0,1,left,1655.3999996185,6.0,1.0,1.0,,,,
74,0,,html-keyboard-response,74,361074,0.0-4.10-0.10,kk78jy37wrk,2022-09-16 18:30:20.320,5f033cc10aca931fff6d30a3,1,49,47,47,48,30,Female,,,"<img src=""static/images/cards/stack_of_red_bolts.svg"" width=""175px"" height=""250px""></img>",,,,,,,,,,,,,,,,,,,,,,,,,,,,
75,0,,html-keyboard-response,75,364577,0.0-4.10-1.10,kk78jy37wrk,2022-09-16 18:30:20.320,5f033cc10aca931fff6d30a3,1,49,47,47,48,30,Female,,,"
  <table>
  <tr height=300>
    <td width=300 height=300><img src=""static/images/cards/back_of_red_bolts.svg"" width=""175px"" height=""250px""></img></td>
    <td width=300 height=300><img src=""static/images/cards/back_of_red_bolts.svg"" width=""175px"" height=""250px""></img></td>
  </tr>
  <tr height=200>
    <td width=300><img src=""static/images/keys/z.svg"" width=""35%"" height=""75%""></img></td>
    <td width=300><img src=""static/images/keys/m.svg"" width=""35%"" height=""75%""></img></td>
  </tr>
</table>
  ",,,,,,,,,,,,,,,,,,,,,,,,,,,,
76,0,,html-keyboard-response,76,364582,0.0-4.10-2.10,kk78jy37wrk,2022-09-16 18:30:20.320,5f033cc10aca931fff6d30a3,1,49,47,47,48,30,Female,,,,,,,,,,,,,,,,,,,,,,,,,,,,,,,
77,0,,html-keyboard-response,77,366083,0.0-4.10-3.10,kk78jy37wrk,2022-09-16 18:30:20.320,5f033cc10aca931fff6d30a3,1,49,47,47,48,30,Female,,,"<p style=""font-size:50px"">Too slow!</p>",,,,,,,,,,,,,,,,,,,,,,,,,,,,
78,0,,html-keyboard-response,78,366599,0.0-4.10-4.10,kk78jy37wrk,2022-09-16 18:30:20.320,5f033cc10aca931fff6d30a3,1,49,47,47,48,30,Female,,,,,1.0,learning,10.0,Xc,,red,,bolts,,,,Xc,red,bolts,,1.0,0.0,NA,,,6.0,1.0,1.0,,,,
79,0,,html-keyboard-response,79,368101,0.0-4.11-0.11,kk78jy37wrk,2022-09-16 18:30:20.320,5f033cc10aca931fff6d30a3,1,49,47,47,48,30,Female,,,"<img src=""static/images/cards/stack_of_black_bolts.svg"" width=""175px"" height=""250px""></img>",,,,,,,,,,,,,,,,,,,,,,,,,,,,
80,0,,html-keyboard-response,80,370674,0.0-4.11-1.11,kk78jy37wrk,2022-09-16 18:30:20.320,5f033cc10aca931fff6d30a3,1,49,47,47,48,30,Female,2071.5,,"
  <table>
  <tr height=300>
    <td width=300 height=300><img src=""static/images/cards/back_of_black_bolts.svg"" width=""175px"" height=""250px""></img></td>
    <td width=300 height=300><img src=""static/images/cards/back_of_black_bolts.svg"" width=""175px"" height=""250px""></img></td>
  </tr>
  <tr height=200>
    <td width=300></td>
    <td width=300><img src=""static/images/keys/m.svg"" width=""35%"" height=""75%""></img></td>
  </tr>
</table>
  ",77.0,,,,,,,,,,,,,,,,,,,,,,,,,2.0,,
81,0,,html-keyboard-response,81,372180,0.0-4.11-2.11,kk78jy37wrk,2022-09-16 18:30:20.320,5f033cc10aca931fff6d30a3,1,49,47,47,48,30,Female,,,"
  <table>
  <tr height=300>
    <td width=300 height=300><img src=""static/images/cards/back_of_black_bolts.svg"" width=""175px"" height=""250px""></img></td>
    <td width=300 height=300><img src=""static/images/cards/2_of_black_bolts.svg"" width=""175px"" height=""250px""></img></td>
  </tr>
  <tr height=200>
    <td width=300></td>
    <td width=300><img src=""static/images/keys/m.svg"" width=""35%"" height=""75%""></img></td>
  </tr>
</table>
  ",,,,,,,,,,,,,,,,,,,,,,,,,,,,
82,0,,html-keyboard-response,82,373706,0.0-4.11-3.11,kk78jy37wrk,2022-09-16 18:30:20.320,5f033cc10aca931fff6d30a3,1,49,47,47,48,30,Female,,,"<p style=""font-size:50px"">You win!
+10 points this round!</p>",,,,,,,,,,,,,,,,,,,,,,,,,,,,
83,0,,html-keyboard-response,83,374220,0.0-4.11-4.11,kk78jy37wrk,2022-09-16 18:30:20.320,5f033cc10aca931fff6d30a3,1,49,47,47,48,30,Female,,,,,1.0,learning,11.0,Xnc,,black,,bolts,,,,Xnc,black,bolts,,0.0,0.0,0,right,2071.5,2.0,0.0,1.0,,,,
84,0,,html-keyboard-response,84,375724,0.0-4.12-0.12,kk78jy37wrk,2022-09-16 18:30:20.320,5f033cc10aca931fff6d30a3,1,49,47,47,48,30,Female,,,"<img src=""static/images/cards/stack_of_red_moons.svg"" width=""175px"" height=""250px""></img>",,,,,,,,,,,,,,,,,,,,,,,,,,,,
85,0,,html-keyboard-response,85,377222,0.0-4.12-1.12,kk78jy37wrk,2022-09-16 18:30:20.320,5f033cc10aca931fff6d30a3,1,49,47,47,48,30,Female,988.8999996185,,"
  <table>
  <tr height=300>
    <td width=300 height=300><img src=""static/images/cards/back_of_red_moons.svg"" width=""175px"" height=""250px""></img></td>
    <td width=300 height=300><img src=""static/images/cards/back_of_red_moons.svg"" width=""175px"" height=""250px""></img></td>
  </tr>
  <tr height=200>
    <td width=300><img src=""static/images/keys/z.svg"" width=""35%"" height=""75%""></img></td>
    <td width=300><img src=""static/images/keys/m.svg"" width=""35%"" height=""75%""></img></td>
  </tr>
</table>
  ",90.0,,,,,,,,,,,,,,,,,,,,,,,,,1.0,,
86,0,,html-keyboard-response,86,378735,0.0-4.12-2.12,kk78jy37wrk,2022-09-16 18:30:20.320,5f033cc10aca931fff6d30a3,1,49,47,47,48,30,Female,,,"
  <table>
  <tr height=300>
    <td width=300 height=300><img src=""static/images/cards/2_of_red_moons.svg"" width=""175px"" height=""250px""></img></td>
    <td width=300 height=300><img src=""static/images/cards/back_of_red_moons.svg"" width=""175px"" height=""250px""></img></td>
  </tr>
  <tr height=200>
    <td width=300><img src=""static/images/keys/z.svg"" width=""35%"" height=""75%""></img></td>
    <td width=300><img src=""static/images/keys/m.svg"" width=""35%"" height=""75%""></img></td>
  </tr>
</table>
  ",,,,,,,,,,,,,,,,,,,,,,,,,,,,
87,0,,html-keyboard-response,87,380251,0.0-4.12-3.12,kk78jy37wrk,2022-09-16 18:30:20.320,5f033cc10aca931fff6d30a3,1,49,47,47,48,30,Female,,,"<p style=""font-size:50px"">You Lose!
No points this round.</p>",,,,,,,,,,,,,,,,,,,,,,,,,,,,
88,0,,html-keyboard-response,88,380765,0.0-4.12-4.12,kk78jy37wrk,2022-09-16 18:30:20.320,5f033cc10aca931fff6d30a3,1,49,47,47,48,30,Female,,,,,1.0,learning,12.0,A,,red,,moons,,,,A,red,moons,,1.0,1.0,NA,left,988.8999996185,2.0,0.0,0.0,,,,
89,0,,html-keyboard-response,89,382273,0.0-4.13-0.13,kk78jy37wrk,2022-09-16 18:30:20.320,5f033cc10aca931fff6d30a3,1,49,47,47,48,30,Female,,,"<img src=""static/images/cards/stack_of_black_moons.svg"" width=""175px"" height=""250px""></img>",,,,,,,,,,,,,,,,,,,,,,,,,,,,
90,0,,html-keyboard-response,90,385308,0.0-4.13-1.13,kk78jy37wrk,2022-09-16 18:30:20.320,5f033cc10aca931fff6d30a3,1,49,47,47,48,30,Female,2520.9000000954,,"
  <table>
  <tr height=300>
    <td width=300 height=300><img src=""static/images/cards/back_of_black_moons.svg"" width=""175px"" height=""250px""></img></td>
    <td width=300 height=300><img src=""static/images/cards/back_of_black_moons.svg"" width=""175px"" height=""250px""></img></td>
  </tr>
  <tr height=200>
    <td width=300></td>
    <td width=300><img src=""static/images/keys/m.svg"" width=""35%"" height=""75%""></img></td>
  </tr>
</table>
  ",77.0,,,,,,,,,,,,,,,,,,,,,,,,,1.0,,
91,0,,html-keyboard-response,91,386818,0.0-4.13-2.13,kk78jy37wrk,2022-09-16 18:30:20.320,5f033cc10aca931fff6d30a3,1,49,47,47,48,30,Female,,,"
  <table>
  <tr height=300>
    <td width=300 height=300><img src=""static/images/cards/back_of_black_moons.svg"" width=""175px"" height=""250px""></img></td>
    <td width=300 height=300><img src=""static/images/cards/7_of_black_moons.svg"" width=""175px"" height=""250px""></img></td>
  </tr>
  <tr height=200>
    <td width=300></td>
    <td width=300><img src=""static/images/keys/m.svg"" width=""35%"" height=""75%""></img></td>
  </tr>
</table>
  ",,,,,,,,,,,,,,,,,,,,,,,,,,,,
92,0,,html-keyboard-response,92,388330,0.0-4.13-3.13,kk78jy37wrk,2022-09-16 18:30:20.320,5f033cc10aca931fff6d30a3,1,49,47,47,48,30,Female,,,"<p style=""font-size:50px"">You win!
+10 points this round!</p>",,,,,,,,,,,,,,,,,,,,,,,,,,,,
93,0,,html-keyboard-response,93,388851,0.0-4.13-4.13,kk78jy37wrk,2022-09-16 18:30:20.320,5f033cc10aca931fff6d30a3,1,49,47,47,48,30,Female,,,,,1.0,learning,13.0,B,,black,,moons,,,,B,black,moons,,0.0,1.0,0,right,2520.9000000954,7.0,1.0,1.0,,,,
94,0,,html-keyboard-response,94,390359,0.0-4.14-0.14,kk78jy37wrk,2022-09-16 18:30:20.320,5f033cc10aca931fff6d30a3,1,49,47,47,48,30,Female,,,"<img src=""static/images/cards/stack_of_red_stars.svg"" width=""175px"" height=""250px""></img>",,,,,,,,,,,,,,,,,,,,,,,,,,,,
95,0,,html-keyboard-response,95,393148,0.0-4.14-1.14,kk78jy37wrk,2022-09-16 18:30:20.320,5f033cc10aca931fff6d30a3,1,49,47,47,48,30,Female,2276.1000003815,,"
  <table>
  <tr height=300>
    <td width=300 height=300><img src=""static/images/cards/back_of_red_stars.svg"" width=""175px"" height=""250px""></img></td>
    <td width=300 height=300><img src=""static/images/cards/back_of_red_stars.svg"" width=""175px"" height=""250px""></img></td>
  </tr>
  <tr height=200>
    <td width=300><img src=""static/images/keys/z.svg"" width=""35%"" height=""75%""></img></td>
    <td width=300><img src=""static/images/keys/m.svg"" width=""35%"" height=""75%""></img></td>
  </tr>
</table>
  ",77.0,,,,,,,,,,,,,,,,,,,,,,,,,1.0,,
96,0,,html-keyboard-response,96,394659,0.0-4.14-2.14,kk78jy37wrk,2022-09-16 18:30:20.320,5f033cc10aca931fff6d30a3,1,49,47,47,48,30,Female,,,"
  <table>
  <tr height=300>
    <td width=300 height=300><img src=""static/images/cards/back_of_red_stars.svg"" width=""175px"" height=""250px""></img></td>
    <td width=300 height=300><img src=""static/images/cards/4_of_red_stars.svg"" width=""175px"" height=""250px""></img></td>
  </tr>
  <tr height=200>
    <td width=300><img src=""static/images/keys/z.svg"" width=""35%"" height=""75%""></img></td>
    <td width=300><img src=""static/images/keys/m.svg"" width=""35%"" height=""75%""></img></td>
  </tr>
</table>
  ",,,,,,,,,,,,,,,,,,,,,,,,,,,,
97,0,,html-keyboard-response,97,396179,0.0-4.14-3.14,kk78jy37wrk,2022-09-16 18:30:20.320,5f033cc10aca931fff6d30a3,1,49,47,47,48,30,Female,,,"<p style=""font-size:50px"">You Lose!
No points this round.</p>",,,,,,,,,,,,,,,,,,,,,,,,,,,,
98,0,,html-keyboard-response,98,396697,0.0-4.14-4.14,kk78jy37wrk,2022-09-16 18:30:20.320,5f033cc10aca931fff6d30a3,1,49,47,47,48,30,Female,,,,,1.0,learning,14.0,C,,red,,stars,,,,C,red,stars,,1.0,0.0,NA,right,2276.1000003815,4.0,0.0,0.0,,,,
99,0,,html-keyboard-response,99,398208,0.0-4.15-0.15,kk78jy37wrk,2022-09-16 18:30:20.320,5f033cc10aca931fff6d30a3,1,49,47,47,48,30,Female,,,"<img src=""static/images/cards/stack_of_black_stars.svg"" width=""175px"" height=""250px""></img>",,,,,,,,,,,,,,,,,,,,,,,,,,,,
100,0,,html-keyboard-response,100,399719,0.0-4.15-1.15,kk78jy37wrk,2022-09-16 18:30:20.320,5f033cc10aca931fff6d30a3,1,49,47,47,48,30,Female,1000.9000000954,,"
  <table>
  <tr height=300>
    <td width=300 height=300><img src=""static/images/cards/back_of_black_stars.svg"" width=""175px"" height=""250px""></img></td>
    <td width=300 height=300><img src=""static/images/cards/back_of_black_stars.svg"" width=""175px"" height=""250px""></img></td>
  </tr>
  <tr height=200>
    <td width=300></td>
    <td width=300><img src=""static/images/keys/m.svg"" width=""35%"" height=""75%""></img></td>
  </tr>
</table>
  ",77.0,,,,,,,,,,,,,,,,,,,,,,,,,1.0,,
101,0,,html-keyboard-response,101,401229,0.0-4.15-2.15,kk78jy37wrk,2022-09-16 18:30:20.320,5f033cc10aca931fff6d30a3,1,49,47,47,48,30,Female,,,"
  <table>
  <tr height=300>
    <td width=300 height=300><img src=""static/images/cards/back_of_black_stars.svg"" width=""175px"" height=""250px""></img></td>
    <td width=300 height=300><img src=""static/images/cards/6_of_black_stars.svg"" width=""175px"" height=""250px""></img></td>
  </tr>
  <tr height=200>
    <td width=300></td>
    <td width=300><img src=""static/images/keys/m.svg"" width=""35%"" height=""75%""></img></td>
  </tr>
</table>
  ",,,,,,,,,,,,,,,,,,,,,,,,,,,,
102,0,,html-keyboard-response,102,402747,0.0-4.15-3.15,kk78jy37wrk,2022-09-16 18:30:20.320,5f033cc10aca931fff6d30a3,1,49,47,47,48,30,Female,,,"<p style=""font-size:50px"">You Lose!
No points this round.</p>",,,,,,,,,,,,,,,,,,,,,,,,,,,,
103,0,,html-keyboard-response,103,403260,0.0-4.15-4.15,kk78jy37wrk,2022-09-16 18:30:20.320,5f033cc10aca931fff6d30a3,1,49,47,47,48,30,Female,,,,,1.0,learning,15.0,D,,black,,stars,,,,D,black,stars,,0.0,0.0,0,right,1000.9000000954,6.0,1.0,0.0,,,,
104,0,,html-keyboard-response,104,404766,0.0-4.16-0.16,kk78jy37wrk,2022-09-16 18:30:20.320,5f033cc10aca931fff6d30a3,1,49,47,47,48,30,Female,,,"<img src=""static/images/cards/stack_of_red_bolts.svg"" width=""175px"" height=""250px""></img>",,,,,,,,,,,,,,,,,,,,,,,,,,,,
105,0,,html-keyboard-response,105,406310,0.0-4.16-1.16,kk78jy37wrk,2022-09-16 18:30:20.320,5f033cc10aca931fff6d30a3,1,49,47,47,48,30,Female,1040.0,,"
  <table>
  <tr height=300>
    <td width=300 height=300><img src=""static/images/cards/back_of_red_bolts.svg"" width=""175px"" height=""250px""></img></td>
    <td width=300 height=300><img src=""static/images/cards/back_of_red_bolts.svg"" width=""175px"" height=""250px""></img></td>
  </tr>
  <tr height=200>
    <td width=300><img src=""static/images/keys/z.svg"" width=""35%"" height=""75%""></img></td>
    <td width=300><img src=""static/images/keys/m.svg"" width=""35%"" height=""75%""></img></td>
  </tr>
</table>
  ",77.0,,,,,,,,,,,,,,,,,,,,,,,,,1.0,,
106,0,,html-keyboard-response,106,407819,0.0-4.16-2.16,kk78jy37wrk,2022-09-16 18:30:20.320,5f033cc10aca931fff6d30a3,1,49,47,47,48,30,Female,,,"
  <table>
  <tr height=300>
    <td width=300 height=300><img src=""static/images/cards/back_of_red_bolts.svg"" width=""175px"" height=""250px""></img></td>
    <td width=300 height=300><img src=""static/images/cards/2_of_red_bolts.svg"" width=""175px"" height=""250px""></img></td>
  </tr>
  <tr height=200>
    <td width=300><img src=""static/images/keys/z.svg"" width=""35%"" height=""75%""></img></td>
    <td width=300><img src=""static/images/keys/m.svg"" width=""35%"" height=""75%""></img></td>
  </tr>
</table>
  ",,,,,,,,,,,,,,,,,,,,,,,,,,,,
107,0,,html-keyboard-response,107,409334,0.0-4.16-3.16,kk78jy37wrk,2022-09-16 18:30:20.320,5f033cc10aca931fff6d30a3,1,49,47,47,48,30,Female,,,"<p style=""font-size:50px"">You win!
+10 points this round!</p>",,,,,,,,,,,,,,,,,,,,,,,,,,,,
108,0,,html-keyboard-response,108,409851,0.0-4.16-4.16,kk78jy37wrk,2022-09-16 18:30:20.320,5f033cc10aca931fff6d30a3,1,49,47,47,48,30,Female,,,,,1.0,learning,16.0,Xc,,red,,bolts,,,,Xc,red,bolts,,1.0,0.0,NA,right,1040.0,2.0,0.0,1.0,,,,
109,0,,html-keyboard-response,109,411366,0.0-4.17-0.17,kk78jy37wrk,2022-09-16 18:30:20.320,5f033cc10aca931fff6d30a3,1,49,47,47,48,30,Female,,,"<img src=""static/images/cards/stack_of_black_bolts.svg"" width=""175px"" height=""250px""></img>",,,,,,,,,,,,,,,,,,,,,,,,,,,,
110,0,,html-keyboard-response,110,413479,0.0-4.17-1.17,kk78jy37wrk,2022-09-16 18:30:20.320,5f033cc10aca931fff6d30a3,1,49,47,47,48,30,Female,1607.1999998093,,"
  <table>
  <tr height=300>
    <td width=300 height=300><img src=""static/images/cards/back_of_black_bolts.svg"" width=""175px"" height=""250px""></img></td>
    <td width=300 height=300><img src=""static/images/cards/back_of_black_bolts.svg"" width=""175px"" height=""250px""></img></td>
  </tr>
  <tr height=200>
    <td width=300><img src=""static/images/keys/z.svg"" width=""35%"" height=""75%""></img></td>
    <td width=300></td>
  </tr>
</table>
  ",90.0,,,,,,,,,,,,,,,,,,,,,,,,,1.0,,
111,0,,html-keyboard-response,111,414981,0.0-4.17-2.17,kk78jy37wrk,2022-09-16 18:30:20.320,5f033cc10aca931fff6d30a3,1,49,47,47,48,30,Female,,,"
  <table>
  <tr height=300>
    <td width=300 height=300><img src=""static/images/cards/4_of_black_bolts.svg"" width=""175px"" height=""250px""></img></td>
    <td width=300 height=300><img src=""static/images/cards/back_of_black_bolts.svg"" width=""175px"" height=""250px""></img></td>
  </tr>
  <tr height=200>
    <td width=300><img src=""static/images/keys/z.svg"" width=""35%"" height=""75%""></img></td>
    <td width=300></td>
  </tr>
</table>
  ",,,,,,,,,,,,,,,,,,,,,,,,,,,,
112,0,,html-keyboard-response,112,416483,0.0-4.17-3.17,kk78jy37wrk,2022-09-16 18:30:20.320,5f033cc10aca931fff6d30a3,1,49,47,47,48,30,Female,,,"<p style=""font-size:50px"">You win!
+10 points this round!</p>",,,,,,,,,,,,,,,,,,,,,,,,,,,,
113,0,,html-keyboard-response,113,416991,0.0-4.17-4.17,kk78jy37wrk,2022-09-16 18:30:20.320,5f033cc10aca931fff6d30a3,1,49,47,47,48,30,Female,,,,,1.0,learning,17.0,Xnc,,black,,bolts,,,,Xnc,black,bolts,,0.0,0.0,1,left,1607.1999998093,4.0,0.0,1.0,,,,
114,0,,html-keyboard-response,114,418505,0.0-4.18-0.18,kk78jy37wrk,2022-09-16 18:30:20.320,5f033cc10aca931fff6d30a3,1,49,47,47,48,30,Female,,,"<img src=""static/images/cards/stack_of_red_moons.svg"" width=""175px"" height=""250px""></img>",,,,,,,,,,,,,,,,,,,,,,,,,,,,
115,0,,html-keyboard-response,115,420666,0.0-4.18-1.18,kk78jy37wrk,2022-09-16 18:30:20.320,5f033cc10aca931fff6d30a3,1,49,47,47,48,30,Female,1654.9000000954,,"
  <table>
  <tr height=300>
    <td width=300 height=300><img src=""static/images/cards/back_of_red_moons.svg"" width=""175px"" height=""250px""></img></td>
    <td width=300 height=300><img src=""static/images/cards/back_of_red_moons.svg"" width=""175px"" height=""250px""></img></td>
  </tr>
  <tr height=200>
    <td width=300><img src=""static/images/keys/z.svg"" width=""35%"" height=""75%""></img></td>
    <td width=300><img src=""static/images/keys/m.svg"" width=""35%"" height=""75%""></img></td>
  </tr>
</table>
  ",77.0,,,,,,,,,,,,,,,,,,,,,,,,,2.0,,
116,0,,html-keyboard-response,116,422172,0.0-4.18-2.18,kk78jy37wrk,2022-09-16 18:30:20.320,5f033cc10aca931fff6d30a3,1,49,47,47,48,30,Female,,,"
  <table>
  <tr height=300>
    <td width=300 height=300><img src=""static/images/cards/back_of_red_moons.svg"" width=""175px"" height=""250px""></img></td>
    <td width=300 height=300><img src=""static/images/cards/9_of_red_moons.svg"" width=""175px"" height=""250px""></img></td>
  </tr>
  <tr height=200>
    <td width=300><img src=""static/images/keys/z.svg"" width=""35%"" height=""75%""></img></td>
    <td width=300><img src=""static/images/keys/m.svg"" width=""35%"" height=""75%""></img></td>
  </tr>
</table>
  ",,,,,,,,,,,,,,,,,,,,,,,,,,,,
117,0,,html-keyboard-response,117,423686,0.0-4.18-3.18,kk78jy37wrk,2022-09-16 18:30:20.320,5f033cc10aca931fff6d30a3,1,49,47,47,48,30,Female,,,"<p style=""font-size:50px"">You win!
+10 points this round!</p>",,,,,,,,,,,,,,,,,,,,,,,,,,,,
118,0,,html-keyboard-response,118,424191,0.0-4.18-4.18,kk78jy37wrk,2022-09-16 18:30:20.320,5f033cc10aca931fff6d30a3,1,49,47,47,48,30,Female,,,,,1.0,learning,18.0,A,,red,,moons,,,,A,red,moons,,1.0,1.0,NA,right,1654.9000000954,9.0,1.0,1.0,,,,
119,0,,html-keyboard-response,119,425697,0.0-4.19-0.19,kk78jy37wrk,2022-09-16 18:30:20.320,5f033cc10aca931fff6d30a3,1,49,47,47,48,30,Female,,,"<img src=""static/images/cards/stack_of_black_moons.svg"" width=""175px"" height=""250px""></img>",,,,,,,,,,,,,,,,,,,,,,,,,,,,
120,0,,html-keyboard-response,120,427796,0.0-4.19-1.19,kk78jy37wrk,2022-09-16 18:30:20.320,5f033cc10aca931fff6d30a3,1,49,47,47,48,30,Female,1591.2999997139,,"
  <table>
  <tr height=300>
    <td width=300 height=300><img src=""static/images/cards/back_of_black_moons.svg"" width=""175px"" height=""250px""></img></td>
    <td width=300 height=300><img src=""static/images/cards/back_of_black_moons.svg"" width=""175px"" height=""250px""></img></td>
  </tr>
  <tr height=200>
    <td width=300></td>
    <td width=300><img src=""static/images/keys/m.svg"" width=""35%"" height=""75%""></img></td>
  </tr>
</table>
  ",77.0,,,,,,,,,,,,,,,,,,,,,,,,,1.0,,
121,0,,html-keyboard-response,121,429306,0.0-4.19-2.19,kk78jy37wrk,2022-09-16 18:30:20.320,5f033cc10aca931fff6d30a3,1,49,47,47,48,30,Female,,,"
  <table>
  <tr height=300>
    <td width=300 height=300><img src=""static/images/cards/back_of_black_moons.svg"" width=""175px"" height=""250px""></img></td>
    <td width=300 height=300><img src=""static/images/cards/6_of_black_moons.svg"" width=""175px"" height=""250px""></img></td>
  </tr>
  <tr height=200>
    <td width=300></td>
    <td width=300><img src=""static/images/keys/m.svg"" width=""35%"" height=""75%""></img></td>
  </tr>
</table>
  ",,,,,,,,,,,,,,,,,,,,,,,,,,,,
122,0,,html-keyboard-response,122,430824,0.0-4.19-3.19,kk78jy37wrk,2022-09-16 18:30:20.320,5f033cc10aca931fff6d30a3,1,49,47,47,48,30,Female,,,"<p style=""font-size:50px"">You win!
+10 points this round!</p>",,,,,,,,,,,,,,,,,,,,,,,,,,,,
123,0,,html-keyboard-response,123,431331,0.0-4.19-4.19,kk78jy37wrk,2022-09-16 18:30:20.320,5f033cc10aca931fff6d30a3,1,49,47,47,48,30,Female,,,,,1.0,learning,19.0,B,,black,,moons,,,,B,black,moons,,0.0,1.0,0,right,1591.2999997139,6.0,1.0,1.0,,,,
124,0,,html-keyboard-response,124,432845,0.0-4.20-0.20,kk78jy37wrk,2022-09-16 18:30:20.320,5f033cc10aca931fff6d30a3,1,49,47,47,48,30,Female,,,"<img src=""static/images/cards/stack_of_red_stars.svg"" width=""175px"" height=""250px""></img>",,,,,,,,,,,,,,,,,,,,,,,,,,,,
125,0,,html-keyboard-response,125,434786,0.0-4.20-1.20,kk78jy37wrk,2022-09-16 18:30:20.320,5f033cc10aca931fff6d30a3,1,49,47,47,48,30,Female,1436.7999997139,,"
  <table>
  <tr height=300>
    <td width=300 height=300><img src=""static/images/cards/back_of_red_stars.svg"" width=""175px"" height=""250px""></img></td>
    <td width=300 height=300><img src=""static/images/cards/back_of_red_stars.svg"" width=""175px"" height=""250px""></img></td>
  </tr>
  <tr height=200>
    <td width=300><img src=""static/images/keys/z.svg"" width=""35%"" height=""75%""></img></td>
    <td width=300><img src=""static/images/keys/m.svg"" width=""35%"" height=""75%""></img></td>
  </tr>
</table>
  ",90.0,,,,,,,,,,,,,,,,,,,,,,,,,1.0,,
126,0,,html-keyboard-response,126,436296,0.0-4.20-2.20,kk78jy37wrk,2022-09-16 18:30:20.320,5f033cc10aca931fff6d30a3,1,49,47,47,48,30,Female,,,"
  <table>
  <tr height=300>
    <td width=300 height=300><img src=""static/images/cards/6_of_red_stars.svg"" width=""175px"" height=""250px""></img></td>
    <td width=300 height=300><img src=""static/images/cards/back_of_red_stars.svg"" width=""175px"" height=""250px""></img></td>
  </tr>
  <tr height=200>
    <td width=300><img src=""static/images/keys/z.svg"" width=""35%"" height=""75%""></img></td>
    <td width=300><img src=""static/images/keys/m.svg"" width=""35%"" height=""75%""></img></td>
  </tr>
</table>
  ",,,,,,,,,,,,,,,,,,,,,,,,,,,,
127,0,,html-keyboard-response,127,437815,0.0-4.20-3.20,kk78jy37wrk,2022-09-16 18:30:20.320,5f033cc10aca931fff6d30a3,1,49,47,47,48,30,Female,,,"<p style=""font-size:50px"">You win!
+10 points this round!</p>",,,,,,,,,,,,,,,,,,,,,,,,,,,,
128,0,,html-keyboard-response,128,438334,0.0-4.20-4.20,kk78jy37wrk,2022-09-16 18:30:20.320,5f033cc10aca931fff6d30a3,1,49,47,47,48,30,Female,,,,,1.0,learning,20.0,C,,red,,stars,,,,C,red,stars,,1.0,0.0,NA,left,1436.7999997139,6.0,1.0,1.0,,,,
129,0,,html-keyboard-response,129,439840,0.0-4.21-0.21,kk78jy37wrk,2022-09-16 18:30:20.320,5f033cc10aca931fff6d30a3,1,49,47,47,48,30,Female,,,"<img src=""static/images/cards/stack_of_black_stars.svg"" width=""175px"" height=""250px""></img>",,,,,,,,,,,,,,,,,,,,,,,,,,,,
130,0,,html-keyboard-response,130,441236,0.0-4.21-1.21,kk78jy37wrk,2022-09-16 18:30:20.320,5f033cc10aca931fff6d30a3,1,49,47,47,48,30,Female,892.9000000954,,"
  <table>
  <tr height=300>
    <td width=300 height=300><img src=""static/images/cards/back_of_black_stars.svg"" width=""175px"" height=""250px""></img></td>
    <td width=300 height=300><img src=""static/images/cards/back_of_black_stars.svg"" width=""175px"" height=""250px""></img></td>
  </tr>
  <tr height=200>
    <td width=300></td>
    <td width=300><img src=""static/images/keys/m.svg"" width=""35%"" height=""75%""></img></td>
  </tr>
</table>
  ",77.0,,,,,,,,,,,,,,,,,,,,,,,,,1.0,,
131,0,,html-keyboard-response,131,442748,0.0-4.21-2.21,kk78jy37wrk,2022-09-16 18:30:20.320,5f033cc10aca931fff6d30a3,1,49,47,47,48,30,Female,,,"
  <table>
  <tr height=300>
    <td width=300 height=300><img src=""static/images/cards/back_of_black_stars.svg"" width=""175px"" height=""250px""></img></td>
    <td width=300 height=300><img src=""static/images/cards/4_of_black_stars.svg"" width=""175px"" height=""250px""></img></td>
  </tr>
  <tr height=200>
    <td width=300></td>
    <td width=300><img src=""static/images/keys/m.svg"" width=""35%"" height=""75%""></img></td>
  </tr>
</table>
  ",,,,,,,,,,,,,,,,,,,,,,,,,,,,
132,0,,html-keyboard-response,132,444261,0.0-4.21-3.21,kk78jy37wrk,2022-09-16 18:30:20.320,5f033cc10aca931fff6d30a3,1,49,47,47,48,30,Female,,,"<p style=""font-size:50px"">You Lose!
No points this round.</p>",,,,,,,,,,,,,,,,,,,,,,,,,,,,
133,0,,html-keyboard-response,133,444780,0.0-4.21-4.21,kk78jy37wrk,2022-09-16 18:30:20.320,5f033cc10aca931fff6d30a3,1,49,47,47,48,30,Female,,,,,1.0,learning,21.0,D,,black,,stars,,,,D,black,stars,,0.0,0.0,0,right,892.9000000954,4.0,0.0,0.0,,,,
134,0,,html-keyboard-response,134,446291,0.0-4.22-0.22,kk78jy37wrk,2022-09-16 18:30:20.320,5f033cc10aca931fff6d30a3,1,49,47,47,48,30,Female,,,"<img src=""static/images/cards/stack_of_red_bolts.svg"" width=""175px"" height=""250px""></img>",,,,,,,,,,,,,,,,,,,,,,,,,,,,
135,0,,html-keyboard-response,135,448186,0.0-4.22-1.22,kk78jy37wrk,2022-09-16 18:30:20.320,5f033cc10aca931fff6d30a3,1,49,47,47,48,30,Female,1393.5999999046,,"
  <table>
  <tr height=300>
    <td width=300 height=300><img src=""static/images/cards/back_of_red_bolts.svg"" width=""175px"" height=""250px""></img></td>
    <td width=300 height=300><img src=""static/images/cards/back_of_red_bolts.svg"" width=""175px"" height=""250px""></img></td>
  </tr>
  <tr height=200>
    <td width=300><img src=""static/images/keys/z.svg"" width=""35%"" height=""75%""></img></td>
    <td width=300><img src=""static/images/keys/m.svg"" width=""35%"" height=""75%""></img></td>
  </tr>
</table>
  ",90.0,,,,,,,,,,,,,,,,,,,,,,,,,1.0,,
136,0,,html-keyboard-response,136,449690,0.0-4.22-2.22,kk78jy37wrk,2022-09-16 18:30:20.320,5f033cc10aca931fff6d30a3,1,49,47,47,48,30,Female,,,"
  <table>
  <tr height=300>
    <td width=300 height=300><img src=""static/images/cards/1_of_red_bolts.svg"" width=""175px"" height=""250px""></img></td>
    <td width=300 height=300><img src=""static/images/cards/back_of_red_bolts.svg"" width=""175px"" height=""250px""></img></td>
  </tr>
  <tr height=200>
    <td width=300><img src=""static/images/keys/z.svg"" width=""35%"" height=""75%""></img></td>
    <td width=300><img src=""static/images/keys/m.svg"" width=""35%"" height=""75%""></img></td>
  </tr>
</table>
  ",,,,,,,,,,,,,,,,,,,,,,,,,,,,
137,0,,html-keyboard-response,137,451206,0.0-4.22-3.22,kk78jy37wrk,2022-09-16 18:30:20.320,5f033cc10aca931fff6d30a3,1,49,47,47,48,30,Female,,,"<p style=""font-size:50px"">You win!
+10 points this round!</p>",,,,,,,,,,,,,,,,,,,,,,,,,,,,
138,0,,html-keyboard-response,138,451726,0.0-4.22-4.22,kk78jy37wrk,2022-09-16 18:30:20.320,5f033cc10aca931fff6d30a3,1,49,47,47,48,30,Female,,,,,1.0,learning,22.0,Xc,,red,,bolts,,,,Xc,red,bolts,,1.0,0.0,NA,left,1393.5999999046,1.0,0.0,1.0,,,,
139,0,,html-keyboard-response,139,453228,0.0-4.23-0.23,kk78jy37wrk,2022-09-16 18:30:20.320,5f033cc10aca931fff6d30a3,1,49,47,47,48,30,Female,,,"<img src=""static/images/cards/stack_of_black_bolts.svg"" width=""175px"" height=""250px""></img>",,,,,,,,,,,,,,,,,,,,,,,,,,,,
140,0,,html-keyboard-response,140,455024,0.0-4.23-1.23,kk78jy37wrk,2022-09-16 18:30:20.320,5f033cc10aca931fff6d30a3,1,49,47,47,48,30,Female,1288.0,,"
  <table>
  <tr height=300>
    <td width=300 height=300><img src=""static/images/cards/back_of_black_bolts.svg"" width=""175px"" height=""250px""></img></td>
    <td width=300 height=300><img src=""static/images/cards/back_of_black_bolts.svg"" width=""175px"" height=""250px""></img></td>
  </tr>
  <tr height=200>
    <td width=300><img src=""static/images/keys/z.svg"" width=""35%"" height=""75%""></img></td>
    <td width=300></td>
  </tr>
</table>
  ",90.0,,,,,,,,,,,,,,,,,,,,,,,,,2.0,,
141,0,,html-keyboard-response,141,456535,0.0-4.23-2.23,kk78jy37wrk,2022-09-16 18:30:20.320,5f033cc10aca931fff6d30a3,1,49,47,47,48,30,Female,,,"
  <table>
  <tr height=300>
    <td width=300 height=300><img src=""static/images/cards/7_of_black_bolts.svg"" width=""175px"" height=""250px""></img></td>
    <td width=300 height=300><img src=""static/images/cards/back_of_black_bolts.svg"" width=""175px"" height=""250px""></img></td>
  </tr>
  <tr height=200>
    <td width=300><img src=""static/images/keys/z.svg"" width=""35%"" height=""75%""></img></td>
    <td width=300></td>
  </tr>
</table>
  ",,,,,,,,,,,,,,,,,,,,,,,,,,,,
142,0,,html-keyboard-response,142,458060,0.0-4.23-3.23,kk78jy37wrk,2022-09-16 18:30:20.320,5f033cc10aca931fff6d30a3,1,49,47,47,48,30,Female,,,"<p style=""font-size:50px"">You win!
+10 points this round!</p>",,,,,,,,,,,,,,,,,,,,,,,,,,,,
143,0,,html-keyboard-response,143,458572,0.0-4.23-4.23,kk78jy37wrk,2022-09-16 18:30:20.320,5f033cc10aca931fff6d30a3,1,49,47,47,48,30,Female,,,,,1.0,learning,23.0,Xnc,,black,,bolts,,,,Xnc,black,bolts,,0.0,0.0,1,left,1288.0,7.0,1.0,1.0,,,,
144,0,,call-function,144,458579,0.0-5.0,kk78jy37wrk,2022-09-16 18:30:20.320,5f033cc10aca931fff6d30a3,1,49,47,47,48,30,Female,,,,,,,,,,,,,,,,,,,,,,,,,,,,,,,
145,0,,image-keyboard-response,145,468186,0.0-6.0-0.0,kk78jy37wrk,2022-09-16 18:30:20.320,5f033cc10aca931fff6d30a3,1,49,47,47,48,30,Female,9606.0,,static/images/instructions_CB_1/Slide20.png,39.0,,,,,,,,,,,,,,,,,,,,,,,,,,,
146,0,,image-keyboard-response,146,476176,0.0-6.1-0.1,kk78jy37wrk,2022-09-16 18:30:20.320,5f033cc10aca931fff6d30a3,1,49,47,47,48,30,Female,7988.7000002861,,static/images/instructions_CB_1/Slide21.png,39.0,,,,,,,,,,,,,,,,,,,,,,,,,,,
147,0,,image-keyboard-response,147,486888,0.0-6.2-0.2,kk78jy37wrk,2022-09-16 18:30:20.320,5f033cc10aca931fff6d30a3,1,49,47,47,48,30,Female,10710.7000002861,,static/images/instructions_CB_1/Slide22.png,39.0,,,,,,,,,,,,,,,,,,,,,,,,,,,
148,0,,image-keyboard-response,148,490117,0.0-6.3-0.3,kk78jy37wrk,2022-09-16 18:30:20.320,5f033cc10aca931fff6d30a3,1,49,47,47,48,30,Female,3228.6000003815,,static/images/instructions_CB_1/Slide23.png,39.0,,,,,,,,,,,,,,,,,,,,,,,,,,,
149,0,,image-keyboard-response,149,501087,0.0-6.4-0.4,kk78jy37wrk,2022-09-16 18:30:20.320,5f033cc10aca931fff6d30a3,1,49,47,47,48,30,Female,10969.4000000954,,static/images/instructions_CB_1/Slide24.png,39.0,,,,,,,,,,,,,,,,,,,,,,,,,,,
150,0,,html-keyboard-response,150,504106,0.0-7.0-0.0,kk78jy37wrk,2022-09-16 18:30:20.320,5f033cc10aca931fff6d30a3,1,49,47,47,48,30,Female,3017.3999996185,,"
  <table>
  <tr height=300>
    <td width=300 height=300><img src=""static/images/cards/stack_of_red_moons.svg"" width=""175px"" height=""250px""></img></td>
    <td width=300 height=300><img src=""static/images/cards/stack_of_red_stars.svg"" width=""175px"" height=""250px""></img></td>
  </tr>
  <tr height=200>
    <td width=300><img src=""static/images/keys/w.svg"" width=""35%"" height=""75%""></img></td>
    <td width=300><img src=""static/images/keys/o.svg"" width=""35%"" height=""75%""></img></td>
  </tr>
</table>
  ",87.0,,,,,,,,,,,,,,,,,,,,,,,,,1.0,,
151,0,,html-keyboard-response,151,507032,0.0-7.0-1.0,kk78jy37wrk,2022-09-16 18:30:20.320,5f033cc10aca931fff6d30a3,1,49,47,47,48,30,Female,2422.3999996185,,"
  <table>
  <tr height=300>
    <td width=300 height=300><img src=""static/images/cards/back_of_red_moons.svg"" width=""175px"" height=""250px""></img></td>
    <td width=300 height=300><img src=""static/images/cards/back_of_red_moons.svg"" width=""175px"" height=""250px""></img></td>
  </tr>
  <tr height=200>
    <td width=300><img src=""static/images/keys/z.svg"" width=""35%"" height=""75%""></img></td>
    <td width=300><img src=""static/images/keys/m.svg"" width=""35%"" height=""75%""></img></td>
  </tr>
</table>
  ",77.0,,,,,,,,,,,,,,,,,,,,,,,,,1.0,,
152,0,,html-keyboard-response,152,508536,0.0-7.0-2.0,kk78jy37wrk,2022-09-16 18:30:20.320,5f033cc10aca931fff6d30a3,1,49,47,47,48,30,Female,,,"
  <table>
  <tr height=300>
    <td width=300 height=300><img src=""static/images/cards/back_of_red_moons.svg"" width=""175px"" height=""250px""></img></td>
    <td width=300 height=300><img src=""static/images/cards/10_of_red_moons.svg"" width=""175px"" height=""250px""></img></td>
  </tr>
  <tr height=200>
    <td width=300><img src=""static/images/keys/z.svg"" width=""35%"" height=""75%""></img></td>
    <td width=300><img src=""static/images/keys/m.svg"" width=""35%"" height=""75%""></img></td>
  </tr>
</table>
  ",,,,,,,,,,,,,,,,,,,,,,,,,,,,
153,0,,html-keyboard-response,153,510047,0.0-7.0-3.0,kk78jy37wrk,2022-09-16 18:30:20.320,5f033cc10aca931fff6d30a3,1,49,47,47,48,30,Female,,,"<p style=""font-size:50px"">You win!
+10 points this round!</p>",,,,,,,,,,,,,,,,,,,,,,,,,,,,
154,0,,html-keyboard-response,154,510554,0.0-7.0-4.0,kk78jy37wrk,2022-09-16 18:30:20.320,5f033cc10aca931fff6d30a3,1,49,47,47,48,30,Female,,,,,1.0,choice,0.0,A,C,red,red,moons,stars,A,C,A,red,moons,3017.3999996185,1.0,1.0,NA,right,2422.3999996185,10.0,1.0,1.0,,,,
155,0,,html-keyboard-response,155,511766,0.0-7.1-0.1,kk78jy37wrk,2022-09-16 18:30:20.320,5f033cc10aca931fff6d30a3,1,49,47,47,48,30,Female,1210.6999998093,,"
  <table>
  <tr height=300>
    <td width=300 height=300><img src=""static/images/cards/stack_of_red_moons.svg"" width=""175px"" height=""250px""></img></td>
    <td width=300 height=300><img src=""static/images/cards/stack_of_red_stars.svg"" width=""175px"" height=""250px""></img></td>
  </tr>
  <tr height=200>
    <td width=300><img src=""static/images/keys/w.svg"" width=""35%"" height=""75%""></img></td>
    <td width=300><img src=""static/images/keys/o.svg"" width=""35%"" height=""75%""></img></td>
  </tr>
</table>
  ",87.0,,,,,,,,,,,,,,,,,,,,,,,,,1.0,,
156,0,,html-keyboard-response,156,514196,0.0-7.1-1.1,kk78jy37wrk,2022-09-16 18:30:20.320,5f033cc10aca931fff6d30a3,1,49,47,47,48,30,Female,1925.4000000954,,"
  <table>
  <tr height=300>
    <td width=300 height=300><img src=""static/images/cards/back_of_red_moons.svg"" width=""175px"" height=""250px""></img></td>
    <td width=300 height=300><img src=""static/images/cards/back_of_red_moons.svg"" width=""175px"" height=""250px""></img></td>
  </tr>
  <tr height=200>
    <td width=300><img src=""static/images/keys/z.svg"" width=""35%"" height=""75%""></img></td>
    <td width=300><img src=""static/images/keys/m.svg"" width=""35%"" height=""75%""></img></td>
  </tr>
</table>
  ",77.0,,,,,,,,,,,,,,,,,,,,,,,,,1.0,,
157,0,,html-keyboard-response,157,515703,0.0-7.1-2.1,kk78jy37wrk,2022-09-16 18:30:20.320,5f033cc10aca931fff6d30a3,1,49,47,47,48,30,Female,,,"
  <table>
  <tr height=300>
    <td width=300 height=300><img src=""static/images/cards/back_of_red_moons.svg"" width=""175px"" height=""250px""></img></td>
    <td width=300 height=300><img src=""static/images/cards/4_of_red_moons.svg"" width=""175px"" height=""250px""></img></td>
  </tr>
  <tr height=200>
    <td width=300><img src=""static/images/keys/z.svg"" width=""35%"" height=""75%""></img></td>
    <td width=300><img src=""static/images/keys/m.svg"" width=""35%"" height=""75%""></img></td>
  </tr>
</table>
  ",,,,,,,,,,,,,,,,,,,,,,,,,,,,
158,0,,html-keyboard-response,158,517215,0.0-7.1-3.1,kk78jy37wrk,2022-09-16 18:30:20.320,5f033cc10aca931fff6d30a3,1,49,47,47,48,30,Female,,,"<p style=""font-size:50px"">You Lose!
No points this round.</p>",,,,,,,,,,,,,,,,,,,,,,,,,,,,
159,0,,html-keyboard-response,159,517731,0.0-7.1-4.1,kk78jy37wrk,2022-09-16 18:30:20.320,5f033cc10aca931fff6d30a3,1,49,47,47,48,30,Female,,,,,1.0,choice,1.0,A,C,red,red,moons,stars,A,C,A,red,moons,1210.6999998093,1.0,1.0,NA,right,1925.4000000954,4.0,0.0,0.0,,,,
160,0,,html-keyboard-response,160,519256,0.0-7.2-0.2,kk78jy37wrk,2022-09-16 18:30:20.320,5f033cc10aca931fff6d30a3,1,49,47,47,48,30,Female,1524.0999999046,,"
  <table>
  <tr height=300>
    <td width=300 height=300><img src=""static/images/cards/stack_of_black_stars.svg"" width=""175px"" height=""250px""></img></td>
    <td width=300 height=300><img src=""static/images/cards/stack_of_red_stars.svg"" width=""175px"" height=""250px""></img></td>
  </tr>
  <tr height=200>
    <td width=300><img src=""static/images/keys/w.svg"" width=""35%"" height=""75%""></img></td>
    <td width=300><img src=""static/images/keys/o.svg"" width=""35%"" height=""75%""></img></td>
  </tr>
</table>
  ",87.0,,,,,,,,,,,,,,,,,,,,,,,,,1.0,,
161,0,,html-keyboard-response,161,521866,0.0-7.2-1.2,kk78jy37wrk,2022-09-16 18:30:20.320,5f033cc10aca931fff6d30a3,1,49,47,47,48,30,Female,2104.1999998093,,"
  <table>
  <tr height=300>
    <td width=300 height=300><img src=""static/images/cards/back_of_black_stars.svg"" width=""175px"" height=""250px""></img></td>
    <td width=300 height=300><img src=""static/images/cards/back_of_black_stars.svg"" width=""175px"" height=""250px""></img></td>
  </tr>
  <tr height=200>
    <td width=300><img src=""static/images/keys/z.svg"" width=""35%"" height=""75%""></img></td>
    <td width=300></td>
  </tr>
</table>
  ",90.0,,,,,,,,,,,,,,,,,,,,,,,,,2.0,,
162,0,,html-keyboard-response,162,523381,0.0-7.2-2.2,kk78jy37wrk,2022-09-16 18:30:20.320,5f033cc10aca931fff6d30a3,1,49,47,47,48,30,Female,,,"
  <table>
  <tr height=300>
    <td width=300 height=300><img src=""static/images/cards/10_of_black_stars.svg"" width=""175px"" height=""250px""></img></td>
    <td width=300 height=300><img src=""static/images/cards/back_of_black_stars.svg"" width=""175px"" height=""250px""></img></td>
  </tr>
  <tr height=200>
    <td width=300><img src=""static/images/keys/z.svg"" width=""35%"" height=""75%""></img></td>
    <td width=300></td>
  </tr>
</table>
  ",,,,,,,,,,,,,,,,,,,,,,,,,,,,
163,0,,html-keyboard-response,163,524901,0.0-7.2-3.2,kk78jy37wrk,2022-09-16 18:30:20.320,5f033cc10aca931fff6d30a3,1,49,47,47,48,30,Female,,,"<p style=""font-size:50px"">You Lose!
No points this round.</p>",,,,,,,,,,,,,,,,,,,,,,,,,,,,
164,0,,html-keyboard-response,164,525413,0.0-7.2-4.2,kk78jy37wrk,2022-09-16 18:30:20.320,5f033cc10aca931fff6d30a3,1,49,47,47,48,30,Female,,,,,1.0,choice,2.0,C,D,black,red,stars,stars,D,C,D,black,stars,1524.0999999046,0.0,0.0,1,left,2104.1999998093,10.0,1.0,0.0,,,,
165,0,,html-keyboard-response,165,527656,0.0-7.3-0.3,kk78jy37wrk,2022-09-16 18:30:20.320,5f033cc10aca931fff6d30a3,1,49,47,47,48,30,Female,2242.0999999046,,"
  <table>
  <tr height=300>
    <td width=300 height=300><img src=""static/images/cards/stack_of_red_moons.svg"" width=""175px"" height=""250px""></img></td>
    <td width=300 height=300><img src=""static/images/cards/stack_of_black_moons.svg"" width=""175px"" height=""250px""></img></td>
  </tr>
  <tr height=200>
    <td width=300><img src=""static/images/keys/w.svg"" width=""35%"" height=""75%""></img></td>
    <td width=300><img src=""static/images/keys/o.svg"" width=""35%"" height=""75%""></img></td>
  </tr>
</table>
  ",79.0,,,,,,,,,,,,,,,,,,,,,,,,,1.0,,
166,0,,html-keyboard-response,166,529806,0.0-7.3-1.3,kk78jy37wrk,2022-09-16 18:30:20.320,5f033cc10aca931fff6d30a3,1,49,47,47,48,30,Female,1646.5,,"
  <table>
  <tr height=300>
    <td width=300 height=300><img src=""static/images/cards/back_of_black_moons.svg"" width=""175px"" height=""250px""></img></td>
    <td width=300 height=300><img src=""static/images/cards/back_of_black_moons.svg"" width=""175px"" height=""250px""></img></td>
  </tr>
  <tr height=200>
    <td width=300><img src=""static/images/keys/z.svg"" width=""35%"" height=""75%""></img></td>
    <td width=300></td>
  </tr>
</table>
  ",90.0,,,,,,,,,,,,,,,,,,,,,,,,,2.0,,
167,0,,html-keyboard-response,167,531318,0.0-7.3-2.3,kk78jy37wrk,2022-09-16 18:30:20.320,5f033cc10aca931fff6d30a3,1,49,47,47,48,30,Female,,,"
  <table>
  <tr height=300>
    <td width=300 height=300><img src=""static/images/cards/9_of_black_moons.svg"" width=""175px"" height=""250px""></img></td>
    <td width=300 height=300><img src=""static/images/cards/back_of_black_moons.svg"" width=""175px"" height=""250px""></img></td>
  </tr>
  <tr height=200>
    <td width=300><img src=""static/images/keys/z.svg"" width=""35%"" height=""75%""></img></td>
    <td width=300></td>
  </tr>
</table>
  ",,,,,,,,,,,,,,,,,,,,,,,,,,,,
168,0,,html-keyboard-response,168,532843,0.0-7.3-3.3,kk78jy37wrk,2022-09-16 18:30:20.320,5f033cc10aca931fff6d30a3,1,49,47,47,48,30,Female,,,"<p style=""font-size:50px"">You win!
+10 points this round!</p>",,,,,,,,,,,,,,,,,,,,,,,,,,,,
169,0,,html-keyboard-response,169,533359,0.0-7.3-4.3,kk78jy37wrk,2022-09-16 18:30:20.320,5f033cc10aca931fff6d30a3,1,49,47,47,48,30,Female,,,,,1.0,choice,3.0,A,B,red,black,moons,moons,A,B,B,black,moons,2242.0999999046,0.0,1.0,1,left,1646.5,9.0,1.0,1.0,,,,
170,0,,html-keyboard-response,170,534516,0.0-7.4-0.4,kk78jy37wrk,2022-09-16 18:30:20.320,5f033cc10aca931fff6d30a3,1,49,47,47,48,30,Female,1154.1999998093,,"
  <table>
  <tr height=300>
    <td width=300 height=300><img src=""static/images/cards/stack_of_red_moons.svg"" width=""175px"" height=""250px""></img></td>
    <td width=300 height=300><img src=""static/images/cards/stack_of_red_stars.svg"" width=""175px"" height=""250px""></img></td>
  </tr>
  <tr height=200>
    <td width=300><img src=""static/images/keys/w.svg"" width=""35%"" height=""75%""></img></td>
    <td width=300><img src=""static/images/keys/o.svg"" width=""35%"" height=""75%""></img></td>
  </tr>
</table>
  ",87.0,,,,,,,,,,,,,,,,,,,,,,,,,1.0,,
171,0,,html-keyboard-response,171,536536,0.0-7.4-1.4,kk78jy37wrk,2022-09-16 18:30:20.320,5f033cc10aca931fff6d30a3,1,49,47,47,48,30,Female,1510.7000002861,,"
  <table>
  <tr height=300>
    <td width=300 height=300><img src=""static/images/cards/back_of_red_moons.svg"" width=""175px"" height=""250px""></img></td>
    <td width=300 height=300><img src=""static/images/cards/back_of_red_moons.svg"" width=""175px"" height=""250px""></img></td>
  </tr>
  <tr height=200>
    <td width=300><img src=""static/images/keys/z.svg"" width=""35%"" height=""75%""></img></td>
    <td width=300><img src=""static/images/keys/m.svg"" width=""35%"" height=""75%""></img></td>
  </tr>
</table>
  ",77.0,,,,,,,,,,,,,,,,,,,,,,,,,1.0,,
172,0,,html-keyboard-response,172,538052,0.0-7.4-2.4,kk78jy37wrk,2022-09-16 18:30:20.320,5f033cc10aca931fff6d30a3,1,49,47,47,48,30,Female,,,"
  <table>
  <tr height=300>
    <td width=300 height=300><img src=""static/images/cards/back_of_red_moons.svg"" width=""175px"" height=""250px""></img></td>
    <td width=300 height=300><img src=""static/images/cards/10_of_red_moons.svg"" width=""175px"" height=""250px""></img></td>
  </tr>
  <tr height=200>
    <td width=300><img src=""static/images/keys/z.svg"" width=""35%"" height=""75%""></img></td>
    <td width=300><img src=""static/images/keys/m.svg"" width=""35%"" height=""75%""></img></td>
  </tr>
</table>
  ",,,,,,,,,,,,,,,,,,,,,,,,,,,,
173,0,,html-keyboard-response,173,539574,0.0-7.4-3.4,kk78jy37wrk,2022-09-16 18:30:20.320,5f033cc10aca931fff6d30a3,1,49,47,47,48,30,Female,,,"<p style=""font-size:50px"">You win!
+10 points this round!</p>",,,,,,,,,,,,,,,,,,,,,,,,,,,,
174,0,,html-keyboard-response,174,540087,0.0-7.4-4.4,kk78jy37wrk,2022-09-16 18:30:20.320,5f033cc10aca931fff6d30a3,1,49,47,47,48,30,Female,,,,,1.0,choice,4.0,A,C,red,red,moons,stars,A,C,A,red,moons,1154.1999998093,1.0,1.0,NA,right,1510.7000002861,10.0,1.0,1.0,,,,
175,0,,html-keyboard-response,175,541054,0.0-7.5-0.5,kk78jy37wrk,2022-09-16 18:30:20.320,5f033cc10aca931fff6d30a3,1,49,47,47,48,30,Female,965.0999999046,,"
  <table>
  <tr height=300>
    <td width=300 height=300><img src=""static/images/cards/stack_of_black_moons.svg"" width=""175px"" height=""250px""></img></td>
    <td width=300 height=300><img src=""static/images/cards/stack_of_black_stars.svg"" width=""175px"" height=""250px""></img></td>
  </tr>
  <tr height=200>
    <td width=300><img src=""static/images/keys/w.svg"" width=""35%"" height=""75%""></img></td>
    <td width=300><img src=""static/images/keys/o.svg"" width=""35%"" height=""75%""></img></td>
  </tr>
</table>
  ",87.0,,,,,,,,,,,,,,,,,,,,,,,,,1.0,,
176,0,,html-keyboard-response,176,543406,0.0-7.5-1.5,kk78jy37wrk,2022-09-16 18:30:20.320,5f033cc10aca931fff6d30a3,1,49,47,47,48,30,Female,1841.3999996185,,"
  <table>
  <tr height=300>
    <td width=300 height=300><img src=""static/images/cards/back_of_black_moons.svg"" width=""175px"" height=""250px""></img></td>
    <td width=300 height=300><img src=""static/images/cards/back_of_black_moons.svg"" width=""175px"" height=""250px""></img></td>
  </tr>
  <tr height=200>
    <td width=300><img src=""static/images/keys/z.svg"" width=""35%"" height=""75%""></img></td>
    <td width=300></td>
  </tr>
</table>
  ",90.0,,,,,,,,,,,,,,,,,,,,,,,,,3.0,,
177,0,,html-keyboard-response,177,544922,0.0-7.5-2.5,kk78jy37wrk,2022-09-16 18:30:20.320,5f033cc10aca931fff6d30a3,1,49,47,47,48,30,Female,,,"
  <table>
  <tr height=300>
    <td width=300 height=300><img src=""static/images/cards/3_of_black_moons.svg"" width=""175px"" height=""250px""></img></td>
    <td width=300 height=300><img src=""static/images/cards/back_of_black_moons.svg"" width=""175px"" height=""250px""></img></td>
  </tr>
  <tr height=200>
    <td width=300><img src=""static/images/keys/z.svg"" width=""35%"" height=""75%""></img></td>
    <td width=300></td>
  </tr>
</table>
  ",,,,,,,,,,,,,,,,,,,,,,,,,,,,
178,0,,html-keyboard-response,178,546442,0.0-7.5-3.5,kk78jy37wrk,2022-09-16 18:30:20.320,5f033cc10aca931fff6d30a3,1,49,47,47,48,30,Female,,,"<p style=""font-size:50px"">You Lose!
No points this round.</p>",,,,,,,,,,,,,,,,,,,,,,,,,,,,
179,0,,html-keyboard-response,179,546953,0.0-7.5-4.5,kk78jy37wrk,2022-09-16 18:30:20.320,5f033cc10aca931fff6d30a3,1,49,47,47,48,30,Female,,,,,1.0,choice,5.0,B,D,black,black,moons,stars,B,D,B,black,moons,965.0999999046,0.0,1.0,1,left,1841.3999996185,3.0,0.0,0.0,,,,
180,0,,html-keyboard-response,180,548486,0.0-7.6-0.6,kk78jy37wrk,2022-09-16 18:30:20.320,5f033cc10aca931fff6d30a3,1,49,47,47,48,30,Female,1531.7000002861,,"
  <table>
  <tr height=300>
    <td width=300 height=300><img src=""static/images/cards/stack_of_black_moons.svg"" width=""175px"" height=""250px""></img></td>
    <td width=300 height=300><img src=""static/images/cards/stack_of_red_moons.svg"" width=""175px"" height=""250px""></img></td>
  </tr>
  <tr height=200>
    <td width=300><img src=""static/images/keys/w.svg"" width=""35%"" height=""75%""></img></td>
    <td width=300><img src=""static/images/keys/o.svg"" width=""35%"" height=""75%""></img></td>
  </tr>
</table>
  ",79.0,,,,,,,,,,,,,,,,,,,,,,,,,1.0,,
181,0,,html-keyboard-response,181,549046,0.0-7.6-1.6,kk78jy37wrk,2022-09-16 18:30:20.320,5f033cc10aca931fff6d30a3,1,49,47,47,48,30,Female,53.5999999046,,"
  <table>
  <tr height=300>
    <td width=300 height=300><img src=""static/images/cards/back_of_red_moons.svg"" width=""175px"" height=""250px""></img></td>
    <td width=300 height=300><img src=""static/images/cards/back_of_red_moons.svg"" width=""175px"" height=""250px""></img></td>
  </tr>
  <tr height=200>
    <td width=300><img src=""static/images/keys/z.svg"" width=""35%"" height=""75%""></img></td>
    <td width=300><img src=""static/images/keys/m.svg"" width=""35%"" height=""75%""></img></td>
  </tr>
</table>
  ",77.0,,,,,,,,,,,,,,,,,,,,,,,,,1.0,,
182,0,,html-keyboard-response,182,550552,0.0-7.6-2.6,kk78jy37wrk,2022-09-16 18:30:20.320,5f033cc10aca931fff6d30a3,1,49,47,47,48,30,Female,,,"
  <table>
  <tr height=300>
    <td width=300 height=300><img src=""static/images/cards/back_of_red_moons.svg"" width=""175px"" height=""250px""></img></td>
    <td width=300 height=300><img src=""static/images/cards/10_of_red_moons.svg"" width=""175px"" height=""250px""></img></td>
  </tr>
  <tr height=200>
    <td width=300><img src=""static/images/keys/z.svg"" width=""35%"" height=""75%""></img></td>
    <td width=300><img src=""static/images/keys/m.svg"" width=""35%"" height=""75%""></img></td>
  </tr>
</table>
  ",,,,,,,,,,,,,,,,,,,,,,,,,,,,
183,0,,html-keyboard-response,183,552076,0.0-7.6-3.6,kk78jy37wrk,2022-09-16 18:30:20.320,5f033cc10aca931fff6d30a3,1,49,47,47,48,30,Female,,,"<p style=""font-size:50px"">You win!
+10 points this round!</p>",,,,,,,,,,,,,,,,,,,,,,,,,,,,
184,0,,html-keyboard-response,184,552588,0.0-7.6-4.6,kk78jy37wrk,2022-09-16 18:30:20.320,5f033cc10aca931fff6d30a3,1,49,47,47,48,30,Female,,,,,1.0,choice,6.0,A,B,black,red,moons,moons,B,A,A,red,moons,1531.7000002861,1.0,1.0,NA,right,53.5999999046,10.0,1.0,1.0,,,,
185,0,,html-keyboard-response,185,552951,0.0-7.7-0.7,kk78jy37wrk,2022-09-16 18:30:20.320,5f033cc10aca931fff6d30a3,1,49,47,47,48,30,Female,361.0,,"
  <table>
  <tr height=300>
    <td width=300 height=300><img src=""static/images/cards/stack_of_black_moons.svg"" width=""175px"" height=""250px""></img></td>
    <td width=300 height=300><img src=""static/images/cards/stack_of_black_stars.svg"" width=""175px"" height=""250px""></img></td>
  </tr>
  <tr height=200>
    <td width=300><img src=""static/images/keys/w.svg"" width=""35%"" height=""75%""></img></td>
    <td width=300><img src=""static/images/keys/o.svg"" width=""35%"" height=""75%""></img></td>
  </tr>
</table>
  ",87.0,,,,,,,,,,,,,,,,,,,,,,,,,1.0,,
186,0,,html-keyboard-response,186,556466,0.0-7.7-1.7,kk78jy37wrk,2022-09-16 18:30:20.320,5f033cc10aca931fff6d30a3,1,49,47,47,48,30,Female,,,"
  <table>
  <tr height=300>
    <td width=300 height=300><img src=""static/images/cards/back_of_black_moons.svg"" width=""175px"" height=""250px""></img></td>
    <td width=300 height=300><img src=""static/images/cards/back_of_black_moons.svg"" width=""175px"" height=""250px""></img></td>
  </tr>
  <tr height=200>
    <td width=300><img src=""static/images/keys/z.svg"" width=""35%"" height=""75%""></img></td>
    <td width=300></td>
  </tr>
</table>
  ",,,,,,,,,,,,,,,,,,,,,,,,,,,,
187,0,,html-keyboard-response,187,556467,0.0-7.7-2.7,kk78jy37wrk,2022-09-16 18:30:20.320,5f033cc10aca931fff6d30a3,1,49,47,47,48,30,Female,,,,,,,,,,,,,,,,,,,,,,,,,,,,,,,
188,0,,html-keyboard-response,188,557985,0.0-7.7-3.7,kk78jy37wrk,2022-09-16 18:30:20.320,5f033cc10aca931fff6d30a3,1,49,47,47,48,30,Female,,,"<p style=""font-size:50px"">Too slow!</p>",,,,,,,,,,,,,,,,,,,,,,,,,,,,
189,0,,html-keyboard-response,189,558492,0.0-7.7-4.7,kk78jy37wrk,2022-09-16 18:30:20.320,5f033cc10aca931fff6d30a3,1,49,47,47,48,30,Female,,,,,1.0,choice,7.0,B,D,black,black,moons,stars,B,D,B,black,moons,361.0,0.0,1.0,1,,,10.0,1.0,1.0,,,,
190,0,,html-keyboard-response,190,560309,0.0-7.8-0.8,kk78jy37wrk,2022-09-16 18:30:20.320,5f033cc10aca931fff6d30a3,1,49,47,47,48,30,Female,1815.7999997139,,"
  <table>
  <tr height=300>
    <td width=300 height=300><img src=""static/images/cards/stack_of_red_moons.svg"" width=""175px"" height=""250px""></img></td>
    <td width=300 height=300><img src=""static/images/cards/stack_of_black_moons.svg"" width=""175px"" height=""250px""></img></td>
  </tr>
  <tr height=200>
    <td width=300><img src=""static/images/keys/w.svg"" width=""35%"" height=""75%""></img></td>
    <td width=300><img src=""static/images/keys/o.svg"" width=""35%"" height=""75%""></img></td>
  </tr>
</table>
  ",87.0,,,,,,,,,,,,,,,,,,,,,,,,,1.0,,
191,0,,html-keyboard-response,191,562759,0.0-7.8-1.8,kk78jy37wrk,2022-09-16 18:30:20.320,5f033cc10aca931fff6d30a3,1,49,47,47,48,30,Female,1934.6999998093,,"
  <table>
  <tr height=300>
    <td width=300 height=300><img src=""static/images/cards/back_of_red_moons.svg"" width=""175px"" height=""250px""></img></td>
    <td width=300 height=300><img src=""static/images/cards/back_of_red_moons.svg"" width=""175px"" height=""250px""></img></td>
  </tr>
  <tr height=200>
    <td width=300><img src=""static/images/keys/z.svg"" width=""35%"" height=""75%""></img></td>
    <td width=300><img src=""static/images/keys/m.svg"" width=""35%"" height=""75%""></img></td>
  </tr>
</table>
  ",90.0,,,,,,,,,,,,,,,,,,,,,,,,,1.0,,
192,0,,html-keyboard-response,192,564261,0.0-7.8-2.8,kk78jy37wrk,2022-09-16 18:30:20.320,5f033cc10aca931fff6d30a3,1,49,47,47,48,30,Female,,,"
  <table>
  <tr height=300>
    <td width=300 height=300><img src=""static/images/cards/6_of_red_moons.svg"" width=""175px"" height=""250px""></img></td>
    <td width=300 height=300><img src=""static/images/cards/back_of_red_moons.svg"" width=""175px"" height=""250px""></img></td>
  </tr>
  <tr height=200>
    <td width=300><img src=""static/images/keys/z.svg"" width=""35%"" height=""75%""></img></td>
    <td width=300><img src=""static/images/keys/m.svg"" width=""35%"" height=""75%""></img></td>
  </tr>
</table>
  ",,,,,,,,,,,,,,,,,,,,,,,,,,,,
193,0,,html-keyboard-response,193,565779,0.0-7.8-3.8,kk78jy37wrk,2022-09-16 18:30:20.320,5f033cc10aca931fff6d30a3,1,49,47,47,48,30,Female,,,"<p style=""font-size:50px"">You win!
+10 points this round!</p>",,,,,,,,,,,,,,,,,,,,,,,,,,,,
194,0,,html-keyboard-response,194,566291,0.0-7.8-4.8,kk78jy37wrk,2022-09-16 18:30:20.320,5f033cc10aca931fff6d30a3,1,49,47,47,48,30,Female,,,,,1.0,choice,8.0,A,B,red,black,moons,moons,A,B,A,red,moons,1815.7999997139,1.0,1.0,NA,left,1934.6999998093,6.0,1.0,1.0,,,,
195,0,,html-keyboard-response,195,566549,0.0-7.9-0.9,kk78jy37wrk,2022-09-16 18:30:20.320,5f033cc10aca931fff6d30a3,1,49,47,47,48,30,Female,257.0,,"
  <table>
  <tr height=300>
    <td width=300 height=300><img src=""static/images/cards/stack_of_red_moons.svg"" width=""175px"" height=""250px""></img></td>
    <td width=300 height=300><img src=""static/images/cards/stack_of_black_moons.svg"" width=""175px"" height=""250px""></img></td>
  </tr>
  <tr height=200>
    <td width=300><img src=""static/images/keys/w.svg"" width=""35%"" height=""75%""></img></td>
    <td width=300><img src=""static/images/keys/o.svg"" width=""35%"" height=""75%""></img></td>
  </tr>
</table>
  ",79.0,,,,,,,,,,,,,,,,,,,,,,,,,1.0,,
196,0,,html-keyboard-response,196,568886,0.0-7.9-1.9,kk78jy37wrk,2022-09-16 18:30:20.320,5f033cc10aca931fff6d30a3,1,49,47,47,48,30,Female,1822.1999998093,,"
  <table>
  <tr height=300>
    <td width=300 height=300><img src=""static/images/cards/back_of_black_moons.svg"" width=""175px"" height=""250px""></img></td>
    <td width=300 height=300><img src=""static/images/cards/back_of_black_moons.svg"" width=""175px"" height=""250px""></img></td>
  </tr>
  <tr height=200>
    <td width=300><img src=""static/images/keys/z.svg"" width=""35%"" height=""75%""></img></td>
    <td width=300></td>
  </tr>
</table>
  ",90.0,,,,,,,,,,,,,,,,,,,,,,,,,2.0,,
197,0,,html-keyboard-response,197,570401,0.0-7.9-2.9,kk78jy37wrk,2022-09-16 18:30:20.320,5f033cc10aca931fff6d30a3,1,49,47,47,48,30,Female,,,"
  <table>
  <tr height=300>
    <td width=300 height=300><img src=""static/images/cards/9_of_black_moons.svg"" width=""175px"" height=""250px""></img></td>
    <td width=300 height=300><img src=""static/images/cards/back_of_black_moons.svg"" width=""175px"" height=""250px""></img></td>
  </tr>
  <tr height=200>
    <td width=300><img src=""static/images/keys/z.svg"" width=""35%"" height=""75%""></img></td>
    <td width=300></td>
  </tr>
</table>
  ",,,,,,,,,,,,,,,,,,,,,,,,,,,,
198,0,,html-keyboard-response,198,571913,0.0-7.9-3.9,kk78jy37wrk,2022-09-16 18:30:20.320,5f033cc10aca931fff6d30a3,1,49,47,47,48,30,Female,,,"<p style=""font-size:50px"">You win!
+10 points this round!</p>",,,,,,,,,,,,,,,,,,,,,,,,,,,,
199,0,,html-keyboard-response,199,572433,0.0-7.9-4.9,kk78jy37wrk,2022-09-16 18:30:20.320,5f033cc10aca931fff6d30a3,1,49,47,47,48,30,Female,,,,,1.0,choice,9.0,A,B,red,black,moons,moons,A,B,B,black,moons,257.0,0.0,1.0,1,left,1822.1999998093,9.0,1.0,1.0,,,,
200,0,,html-keyboard-response,200,572886,0.0-7.10-0.10,kk78jy37wrk,2022-09-16 18:30:20.320,5f033cc10aca931fff6d30a3,1,49,47,47,48,30,Female,451.7999997139,,"
  <table>
  <tr height=300>
    <td width=300 height=300><img src=""static/images/cards/stack_of_black_moons.svg"" width=""175px"" height=""250px""></img></td>
    <td width=300 height=300><img src=""static/images/cards/stack_of_red_stars.svg"" width=""175px"" height=""250px""></img></td>
  </tr>
  <tr height=200>
    <td width=300><img src=""static/images/keys/w.svg"" width=""35%"" height=""75%""></img></td>
    <td width=300><img src=""static/images/keys/o.svg"" width=""35%"" height=""75%""></img></td>
  </tr>
</table>
  ",87.0,,,,,,,,,,,,,,,,,,,,,,,,,1.0,,
201,0,,html-keyboard-response,201,573607,0.0-7.10-1.10,kk78jy37wrk,2022-09-16 18:30:20.320,5f033cc10aca931fff6d30a3,1,49,47,47,48,30,Female,212.6999998093,,"
  <table>
  <tr height=300>
    <td width=300 height=300><img src=""static/images/cards/back_of_black_moons.svg"" width=""175px"" height=""250px""></img></td>
    <td width=300 height=300><img src=""static/images/cards/back_of_black_moons.svg"" width=""175px"" height=""250px""></img></td>
  </tr>
  <tr height=200>
    <td width=300><img src=""static/images/keys/z.svg"" width=""35%"" height=""75%""></img></td>
    <td width=300></td>
  </tr>
</table>
  ",90.0,,,,,,,,,,,,,,,,,,,,,,,,,1.0,,
202,0,,html-keyboard-response,202,575120,0.0-7.10-2.10,kk78jy37wrk,2022-09-16 18:30:20.320,5f033cc10aca931fff6d30a3,1,49,47,47,48,30,Female,,,"
  <table>
  <tr height=300>
    <td width=300 height=300><img src=""static/images/cards/7_of_black_moons.svg"" width=""175px"" height=""250px""></img></td>
    <td width=300 height=300><img src=""static/images/cards/back_of_black_moons.svg"" width=""175px"" height=""250px""></img></td>
  </tr>
  <tr height=200>
    <td width=300><img src=""static/images/keys/z.svg"" width=""35%"" height=""75%""></img></td>
    <td width=300></td>
  </tr>
</table>
  ",,,,,,,,,,,,,,,,,,,,,,,,,,,,
203,0,,html-keyboard-response,203,576643,0.0-7.10-3.10,kk78jy37wrk,2022-09-16 18:30:20.320,5f033cc10aca931fff6d30a3,1,49,47,47,48,30,Female,,,"<p style=""font-size:50px"">You win!
+10 points this round!</p>",,,,,,,,,,,,,,,,,,,,,,,,,,,,
204,0,,html-keyboard-response,204,577152,0.0-7.10-4.10,kk78jy37wrk,2022-09-16 18:30:20.320,5f033cc10aca931fff6d30a3,1,49,47,47,48,30,Female,,,,,1.0,choice,10.0,B,C,black,red,moons,stars,B,C,B,black,moons,451.7999997139,0.0,1.0,1,left,212.6999998093,7.0,1.0,1.0,,,,
205,0,,html-keyboard-response,205,577639,0.0-7.11-0.11,kk78jy37wrk,2022-09-16 18:30:20.320,5f033cc10aca931fff6d30a3,1,49,47,47,48,30,Female,485.8000001907,,"
  <table>
  <tr height=300>
    <td width=300 height=300><img src=""static/images/cards/stack_of_black_stars.svg"" width=""175px"" height=""250px""></img></td>
    <td width=300 height=300><img src=""static/images/cards/stack_of_red_stars.svg"" width=""175px"" height=""250px""></img></td>
  </tr>
  <tr height=200>
    <td width=300><img src=""static/images/keys/w.svg"" width=""35%"" height=""75%""></img></td>
    <td width=300><img src=""static/images/keys/o.svg"" width=""35%"" height=""75%""></img></td>
  </tr>
</table>
  ",87.0,,,,,,,,,,,,,,,,,,,,,,,,,3.0,,
206,0,,html-keyboard-response,206,578759,0.0-7.11-1.11,kk78jy37wrk,2022-09-16 18:30:20.320,5f033cc10aca931fff6d30a3,1,49,47,47,48,30,Female,611.6000003815,,"
  <table>
  <tr height=300>
    <td width=300 height=300><img src=""static/images/cards/back_of_black_stars.svg"" width=""175px"" height=""250px""></img></td>
    <td width=300 height=300><img src=""static/images/cards/back_of_black_stars.svg"" width=""175px"" height=""250px""></img></td>
  </tr>
  <tr height=200>
    <td width=300></td>
    <td width=300><img src=""static/images/keys/m.svg"" width=""35%"" height=""75%""></img></td>
  </tr>
</table>
  ",77.0,,,,,,,,,,,,,,,,,,,,,,,,,3.0,,
207,0,,html-keyboard-response,207,580261,0.0-7.11-2.11,kk78jy37wrk,2022-09-16 18:30:20.320,5f033cc10aca931fff6d30a3,1,49,47,47,48,30,Female,,,"
  <table>
  <tr height=300>
    <td width=300 height=300><img src=""static/images/cards/back_of_black_stars.svg"" width=""175px"" height=""250px""></img></td>
    <td width=300 height=300><img src=""static/images/cards/3_of_black_stars.svg"" width=""175px"" height=""250px""></img></td>
  </tr>
  <tr height=200>
    <td width=300></td>
    <td width=300><img src=""static/images/keys/m.svg"" width=""35%"" height=""75%""></img></td>
  </tr>
</table>
  ",,,,,,,,,,,,,,,,,,,,,,,,,,,,
208,0,,html-keyboard-response,208,581775,0.0-7.11-3.11,kk78jy37wrk,2022-09-16 18:30:20.320,5f033cc10aca931fff6d30a3,1,49,47,47,48,30,Female,,,"<p style=""font-size:50px"">You win!
+10 points this round!</p>",,,,,,,,,,,,,,,,,,,,,,,,,,,,
209,0,,html-keyboard-response,209,582295,0.0-7.11-4.11,kk78jy37wrk,2022-09-16 18:30:20.320,5f033cc10aca931fff6d30a3,1,49,47,47,48,30,Female,,,,,1.0,choice,11.0,C,D,black,red,stars,stars,D,C,D,black,stars,485.8000001907,0.0,0.0,0,right,611.6000003815,3.0,0.0,1.0,,,,
210,0,,html-keyboard-response,210,582954,0.0-7.12-0.12,kk78jy37wrk,2022-09-16 18:30:20.320,5f033cc10aca931fff6d30a3,1,49,47,47,48,30,Female,657.2999997139,,"
  <table>
  <tr height=300>
    <td width=300 height=300><img src=""static/images/cards/stack_of_black_moons.svg"" width=""175px"" height=""250px""></img></td>
    <td width=300 height=300><img src=""static/images/cards/stack_of_black_stars.svg"" width=""175px"" height=""250px""></img></td>
  </tr>
  <tr height=200>
    <td width=300><img src=""static/images/keys/w.svg"" width=""35%"" height=""75%""></img></td>
    <td width=300><img src=""static/images/keys/o.svg"" width=""35%"" height=""75%""></img></td>
  </tr>
</table>
  ",79.0,,,,,,,,,,,,,,,,,,,,,,,,,1.0,,
211,0,,html-keyboard-response,211,584574,0.0-7.12-1.12,kk78jy37wrk,2022-09-16 18:30:20.320,5f033cc10aca931fff6d30a3,1,49,47,47,48,30,Female,1114.0,,"
  <table>
  <tr height=300>
    <td width=300 height=300><img src=""static/images/cards/back_of_black_stars.svg"" width=""175px"" height=""250px""></img></td>
    <td width=300 height=300><img src=""static/images/cards/back_of_black_stars.svg"" width=""175px"" height=""250px""></img></td>
  </tr>
  <tr height=200>
    <td width=300></td>
    <td width=300><img src=""static/images/keys/m.svg"" width=""35%"" height=""75%""></img></td>
  </tr>
</table>
  ",77.0,,,,,,,,,,,,,,,,,,,,,,,,,3.0,,
212,0,,html-keyboard-response,212,586080,0.0-7.12-2.12,kk78jy37wrk,2022-09-16 18:30:20.320,5f033cc10aca931fff6d30a3,1,49,47,47,48,30,Female,,,"
  <table>
  <tr height=300>
    <td width=300 height=300><img src=""static/images/cards/back_of_black_stars.svg"" width=""175px"" height=""250px""></img></td>
    <td width=300 height=300><img src=""static/images/cards/1_of_black_stars.svg"" width=""175px"" height=""250px""></img></td>
  </tr>
  <tr height=200>
    <td width=300></td>
    <td width=300><img src=""static/images/keys/m.svg"" width=""35%"" height=""75%""></img></td>
  </tr>
</table>
  ",,,,,,,,,,,,,,,,,,,,,,,,,,,,
213,0,,html-keyboard-response,213,587600,0.0-7.12-3.12,kk78jy37wrk,2022-09-16 18:30:20.320,5f033cc10aca931fff6d30a3,1,49,47,47,48,30,Female,,,"<p style=""font-size:50px"">You Lose!
No points this round.</p>",,,,,,,,,,,,,,,,,,,,,,,,,,,,
214,0,,html-keyboard-response,214,588109,0.0-7.12-4.12,kk78jy37wrk,2022-09-16 18:30:20.320,5f033cc10aca931fff6d30a3,1,49,47,47,48,30,Female,,,,,1.0,choice,12.0,B,D,black,black,moons,stars,B,D,D,black,stars,657.2999997139,0.0,0.0,0,right,1114.0,1.0,0.0,0.0,,,,
215,0,,html-keyboard-response,215,588199,0.0-7.13-0.13,kk78jy37wrk,2022-09-16 18:30:20.320,5f033cc10aca931fff6d30a3,1,49,47,47,48,30,Female,88.5999999046,,"
  <table>
  <tr height=300>
    <td width=300 height=300><img src=""static/images/cards/stack_of_red_stars.svg"" width=""175px"" height=""250px""></img></td>
    <td width=300 height=300><img src=""static/images/cards/stack_of_red_bolts.svg"" width=""175px"" height=""250px""></img></td>
  </tr>
  <tr height=200>
    <td width=300><img src=""static/images/keys/w.svg"" width=""35%"" height=""75%""></img></td>
    <td width=300><img src=""static/images/keys/o.svg"" width=""35%"" height=""75%""></img></td>
  </tr>
</table>
  ",87.0,,,,,,,,,,,,,,,,,,,,,,,,,1.0,,
216,0,,html-keyboard-response,216,589757,0.0-7.13-1.13,kk78jy37wrk,2022-09-16 18:30:20.320,5f033cc10aca931fff6d30a3,1,49,47,47,48,30,Female,1042.1999998093,,"
  <table>
  <tr height=300>
    <td width=300 height=300><img src=""static/images/cards/back_of_red_stars.svg"" width=""175px"" height=""250px""></img></td>
    <td width=300 height=300><img src=""static/images/cards/back_of_red_stars.svg"" width=""175px"" height=""250px""></img></td>
  </tr>
  <tr height=200>
    <td width=300><img src=""static/images/keys/z.svg"" width=""35%"" height=""75%""></img></td>
    <td width=300><img src=""static/images/keys/m.svg"" width=""35%"" height=""75%""></img></td>
  </tr>
</table>
  ",90.0,,,,,,,,,,,,,,,,,,,,,,,,,3.0,,
217,0,,html-keyboard-response,217,591266,0.0-7.13-2.13,kk78jy37wrk,2022-09-16 18:30:20.320,5f033cc10aca931fff6d30a3,1,49,47,47,48,30,Female,,,"
  <table>
  <tr height=300>
    <td width=300 height=300><img src=""static/images/cards/4_of_red_stars.svg"" width=""175px"" height=""250px""></img></td>
    <td width=300 height=300><img src=""static/images/cards/back_of_red_stars.svg"" width=""175px"" height=""250px""></img></td>
  </tr>
  <tr height=200>
    <td width=300><img src=""static/images/keys/z.svg"" width=""35%"" height=""75%""></img></td>
    <td width=300><img src=""static/images/keys/m.svg"" width=""35%"" height=""75%""></img></td>
  </tr>
</table>
  ",,,,,,,,,,,,,,,,,,,,,,,,,,,,
218,0,,html-keyboard-response,218,592782,0.0-7.13-3.13,kk78jy37wrk,2022-09-16 18:30:20.320,5f033cc10aca931fff6d30a3,1,49,47,47,48,30,Female,,,"<p style=""font-size:50px"">You Lose!
No points this round.</p>",,,,,,,,,,,,,,,,,,,,,,,,,,,,
219,0,,html-keyboard-response,219,593298,0.0-7.13-4.13,kk78jy37wrk,2022-09-16 18:30:20.320,5f033cc10aca931fff6d30a3,1,49,47,47,48,30,Female,,,,,1.0,choice,13.0,C,Xc,red,red,stars,bolts,C,Xc,C,red,stars,88.5999999046,1.0,0.0,NA,left,1042.1999998093,4.0,0.0,0.0,,,,
220,0,,html-keyboard-response,220,593766,0.0-7.14-0.14,kk78jy37wrk,2022-09-16 18:30:20.320,5f033cc10aca931fff6d30a3,1,49,47,47,48,30,Female,466.8000001907,,"
  <table>
  <tr height=300>
    <td width=300 height=300><img src=""static/images/cards/stack_of_black_stars.svg"" width=""175px"" height=""250px""></img></td>
    <td width=300 height=300><img src=""static/images/cards/stack_of_red_moons.svg"" width=""175px"" height=""250px""></img></td>
  </tr>
  <tr height=200>
    <td width=300><img src=""static/images/keys/w.svg"" width=""35%"" height=""75%""></img></td>
    <td width=300><img src=""static/images/keys/o.svg"" width=""35%"" height=""75%""></img></td>
  </tr>
</table>
  ",79.0,,,,,,,,,,,,,,,,,,,,,,,,,1.0,,
221,0,,html-keyboard-response,221,594336,0.0-7.14-1.14,kk78jy37wrk,2022-09-16 18:30:20.320,5f033cc10aca931fff6d30a3,1,49,47,47,48,30,Female,63.5999999046,,"
  <table>
  <tr height=300>
    <td width=300 height=300><img src=""static/images/cards/back_of_red_moons.svg"" width=""175px"" height=""250px""></img></td>
    <td width=300 height=300><img src=""static/images/cards/back_of_red_moons.svg"" width=""175px"" height=""250px""></img></td>
  </tr>
  <tr height=200>
    <td width=300><img src=""static/images/keys/z.svg"" width=""35%"" height=""75%""></img></td>
    <td width=300><img src=""static/images/keys/m.svg"" width=""35%"" height=""75%""></img></td>
  </tr>
</table>
  ",90.0,,,,,,,,,,,,,,,,,,,,,,,,,1.0,,
222,0,,html-keyboard-response,222,595844,0.0-7.14-2.14,kk78jy37wrk,2022-09-16 18:30:20.320,5f033cc10aca931fff6d30a3,1,49,47,47,48,30,Female,,,"
  <table>
  <tr height=300>
    <td width=300 height=300><img src=""static/images/cards/6_of_red_moons.svg"" width=""175px"" height=""250px""></img></td>
    <td width=300 height=300><img src=""static/images/cards/back_of_red_moons.svg"" width=""175px"" height=""250px""></img></td>
  </tr>
  <tr height=200>
    <td width=300><img src=""static/images/keys/z.svg"" width=""35%"" height=""75%""></img></td>
    <td width=300><img src=""static/images/keys/m.svg"" width=""35%"" height=""75%""></img></td>
  </tr>
</table>
  ",,,,,,,,,,,,,,,,,,,,,,,,,,,,
223,0,,html-keyboard-response,223,597362,0.0-7.14-3.14,kk78jy37wrk,2022-09-16 18:30:20.320,5f033cc10aca931fff6d30a3,1,49,47,47,48,30,Female,,,"<p style=""font-size:50px"">You win!
+10 points this round!</p>",,,,,,,,,,,,,,,,,,,,,,,,,,,,
224,0,,html-keyboard-response,224,597872,0.0-7.14-4.14,kk78jy37wrk,2022-09-16 18:30:20.320,5f033cc10aca931fff6d30a3,1,49,47,47,48,30,Female,,,,,1.0,choice,14.0,A,D,black,red,stars,moons,D,A,A,red,moons,466.8000001907,1.0,1.0,NA,left,63.5999999046,6.0,1.0,1.0,,,,
225,0,,html-keyboard-response,225,599196,0.0-7.15-0.15,kk78jy37wrk,2022-09-16 18:30:20.320,5f033cc10aca931fff6d30a3,1,49,47,47,48,30,Female,1322.5999999046,,"
  <table>
  <tr height=300>
    <td width=300 height=300><img src=""static/images/cards/stack_of_black_moons.svg"" width=""175px"" height=""250px""></img></td>
    <td width=300 height=300><img src=""static/images/cards/stack_of_red_moons.svg"" width=""175px"" height=""250px""></img></td>
  </tr>
  <tr height=200>
    <td width=300><img src=""static/images/keys/w.svg"" width=""35%"" height=""75%""></img></td>
    <td width=300><img src=""static/images/keys/o.svg"" width=""35%"" height=""75%""></img></td>
  </tr>
</table>
  ",87.0,,,,,,,,,,,,,,,,,,,,,,,,,1.0,,
226,0,,html-keyboard-response,226,600176,0.0-7.15-1.15,kk78jy37wrk,2022-09-16 18:30:20.320,5f033cc10aca931fff6d30a3,1,49,47,47,48,30,Female,474.5999999046,,"
  <table>
  <tr height=300>
    <td width=300 height=300><img src=""static/images/cards/back_of_black_moons.svg"" width=""175px"" height=""250px""></img></td>
    <td width=300 height=300><img src=""static/images/cards/back_of_black_moons.svg"" width=""175px"" height=""250px""></img></td>
  </tr>
  <tr height=200>
    <td width=300><img src=""static/images/keys/z.svg"" width=""35%"" height=""75%""></img></td>
    <td width=300></td>
  </tr>
</table>
  ",90.0,,,,,,,,,,,,,,,,,,,,,,,,,3.0,,
227,0,,html-keyboard-response,227,601681,0.0-7.15-2.15,kk78jy37wrk,2022-09-16 18:30:20.320,5f033cc10aca931fff6d30a3,1,49,47,47,48,30,Female,,,"
  <table>
  <tr height=300>
    <td width=300 height=300><img src=""static/images/cards/9_of_black_moons.svg"" width=""175px"" height=""250px""></img></td>
    <td width=300 height=300><img src=""static/images/cards/back_of_black_moons.svg"" width=""175px"" height=""250px""></img></td>
  </tr>
  <tr height=200>
    <td width=300><img src=""static/images/keys/z.svg"" width=""35%"" height=""75%""></img></td>
    <td width=300></td>
  </tr>
</table>
  ",,,,,,,,,,,,,,,,,,,,,,,,,,,,
228,0,,html-keyboard-response,228,603198,0.0-7.15-3.15,kk78jy37wrk,2022-09-16 18:30:20.320,5f033cc10aca931fff6d30a3,1,49,47,47,48,30,Female,,,"<p style=""font-size:50px"">You win!
+10 points this round!</p>",,,,,,,,,,,,,,,,,,,,,,,,,,,,
229,0,,html-keyboard-response,229,603708,0.0-7.15-4.15,kk78jy37wrk,2022-09-16 18:30:20.320,5f033cc10aca931fff6d30a3,1,49,47,47,48,30,Female,,,,,1.0,choice,15.0,A,B,black,red,moons,moons,B,A,B,black,moons,1322.5999999046,0.0,1.0,1,left,474.5999999046,9.0,1.0,1.0,,,,
230,0,,html-keyboard-response,230,603716,0.0-7.16-0.16,kk78jy37wrk,2022-09-16 18:30:20.320,5f033cc10aca931fff6d30a3,1,49,47,47,48,30,Female,6.5999999046,,"
  <table>
  <tr height=300>
    <td width=300 height=300><img src=""static/images/cards/stack_of_black_moons.svg"" width=""175px"" height=""250px""></img></td>
    <td width=300 height=300><img src=""static/images/cards/stack_of_red_bolts.svg"" width=""175px"" height=""250px""></img></td>
  </tr>
  <tr height=200>
    <td width=300><img src=""static/images/keys/w.svg"" width=""35%"" height=""75%""></img></td>
    <td width=300><img src=""static/images/keys/o.svg"" width=""35%"" height=""75%""></img></td>
  </tr>
</table>
  ",79.0,,,,,,,,,,,,,,,,,,,,,,,,,1.0,,
231,0,,html-keyboard-response,231,604756,0.0-7.16-1.16,kk78jy37wrk,2022-09-16 18:30:20.320,5f033cc10aca931fff6d30a3,1,49,47,47,48,30,Female,530.0,,"
  <table>
  <tr height=300>
    <td width=300 height=300><img src=""static/images/cards/back_of_red_bolts.svg"" width=""175px"" height=""250px""></img></td>
    <td width=300 height=300><img src=""static/images/cards/back_of_red_bolts.svg"" width=""175px"" height=""250px""></img></td>
  </tr>
  <tr height=200>
    <td width=300><img src=""static/images/keys/z.svg"" width=""35%"" height=""75%""></img></td>
    <td width=300><img src=""static/images/keys/m.svg"" width=""35%"" height=""75%""></img></td>
  </tr>
</table>
  ",77.0,,,,,,,,,,,,,,,,,,,,,,,,,3.0,,
232,0,,html-keyboard-response,232,606259,0.0-7.16-2.16,kk78jy37wrk,2022-09-16 18:30:20.320,5f033cc10aca931fff6d30a3,1,49,47,47,48,30,Female,,,"
  <table>
  <tr height=300>
    <td width=300 height=300><img src=""static/images/cards/back_of_red_bolts.svg"" width=""175px"" height=""250px""></img></td>
    <td width=300 height=300><img src=""static/images/cards/2_of_red_bolts.svg"" width=""175px"" height=""250px""></img></td>
  </tr>
  <tr height=200>
    <td width=300><img src=""static/images/keys/z.svg"" width=""35%"" height=""75%""></img></td>
    <td width=300><img src=""static/images/keys/m.svg"" width=""35%"" height=""75%""></img></td>
  </tr>
</table>
  ",,,,,,,,,,,,,,,,,,,,,,,,,,,,
233,0,,html-keyboard-response,233,607770,0.0-7.16-3.16,kk78jy37wrk,2022-09-16 18:30:20.320,5f033cc10aca931fff6d30a3,1,49,47,47,48,30,Female,,,"<p style=""font-size:50px"">You win!
+10 points this round!</p>",,,,,,,,,,,,,,,,,,,,,,,,,,,,
234,0,,html-keyboard-response,234,608279,0.0-7.16-4.16,kk78jy37wrk,2022-09-16 18:30:20.320,5f033cc10aca931fff6d30a3,1,49,47,47,48,30,Female,,,,,1.0,choice,16.0,B,Xc,black,red,moons,bolts,B,Xc,Xc,red,bolts,6.5999999046,1.0,0.0,NA,right,530.0,2.0,0.0,1.0,,,,
235,0,,html-keyboard-response,235,609135,0.0-7.17-0.17,kk78jy37wrk,2022-09-16 18:30:20.320,5f033cc10aca931fff6d30a3,1,49,47,47,48,30,Female,855.2000002861,,"
  <table>
  <tr height=300>
    <td width=300 height=300><img src=""static/images/cards/stack_of_red_bolts.svg"" width=""175px"" height=""250px""></img></td>
    <td width=300 height=300><img src=""static/images/cards/stack_of_red_moons.svg"" width=""175px"" height=""250px""></img></td>
  </tr>
  <tr height=200>
    <td width=300><img src=""static/images/keys/w.svg"" width=""35%"" height=""75%""></img></td>
    <td width=300><img src=""static/images/keys/o.svg"" width=""35%"" height=""75%""></img></td>
  </tr>
</table>
  ",79.0,,,,,,,,,,,,,,,,,,,,,,,,,3.0,,
236,0,,html-keyboard-response,236,609695,0.0-7.17-1.17,kk78jy37wrk,2022-09-16 18:30:20.320,5f033cc10aca931fff6d30a3,1,49,47,47,48,30,Female,44.5,,"
  <table>
  <tr height=300>
    <td width=300 height=300><img src=""static/images/cards/back_of_red_moons.svg"" width=""175px"" height=""250px""></img></td>
    <td width=300 height=300><img src=""static/images/cards/back_of_red_moons.svg"" width=""175px"" height=""250px""></img></td>
  </tr>
  <tr height=200>
    <td width=300><img src=""static/images/keys/z.svg"" width=""35%"" height=""75%""></img></td>
    <td width=300><img src=""static/images/keys/m.svg"" width=""35%"" height=""75%""></img></td>
  </tr>
</table>
  ",77.0,,,,,,,,,,,,,,,,,,,,,,,,,1.0,,
237,0,,html-keyboard-response,237,611198,0.0-7.17-2.17,kk78jy37wrk,2022-09-16 18:30:20.320,5f033cc10aca931fff6d30a3,1,49,47,47,48,30,Female,,,"
  <table>
  <tr height=300>
    <td width=300 height=300><img src=""static/images/cards/back_of_red_moons.svg"" width=""175px"" height=""250px""></img></td>
    <td width=300 height=300><img src=""static/images/cards/3_of_red_moons.svg"" width=""175px"" height=""250px""></img></td>
  </tr>
  <tr height=200>
    <td width=300><img src=""static/images/keys/z.svg"" width=""35%"" height=""75%""></img></td>
    <td width=300><img src=""static/images/keys/m.svg"" width=""35%"" height=""75%""></img></td>
  </tr>
</table>
  ",,,,,,,,,,,,,,,,,,,,,,,,,,,,
238,0,,html-keyboard-response,238,612722,0.0-7.17-3.17,kk78jy37wrk,2022-09-16 18:30:20.320,5f033cc10aca931fff6d30a3,1,49,47,47,48,30,Female,,,"<p style=""font-size:50px"">You Lose!
No points this round.</p>",,,,,,,,,,,,,,,,,,,,,,,,,,,,
239,0,,html-keyboard-response,239,613233,0.0-7.17-4.17,kk78jy37wrk,2022-09-16 18:30:20.320,5f033cc10aca931fff6d30a3,1,49,47,47,48,30,Female,,,,,1.0,choice,17.0,A,Xc,red,red,bolts,moons,Xc,A,A,red,moons,855.2000002861,1.0,1.0,NA,right,44.5,3.0,0.0,0.0,,,,
240,0,,html-keyboard-response,240,614195,0.0-7.18-0.18,kk78jy37wrk,2022-09-16 18:30:20.320,5f033cc10aca931fff6d30a3,1,49,47,47,48,30,Female,961.4000000954,,"
  <table>
  <tr height=300>
