,index,success,trial_type,trial_index,time_elapsed,internal_node_id,subject,date,prol_id,ctbl,sense_of_control_A,sense_of_control_B,sense_of_control_C,sense_of_control_D,age,gender,rt,url,stimulus,key_press,npress,is_data_trial,phase,trial,deck1,deck2,col1,col2,sym1,sym2,deck_l,deck_r,chosen_deck,chosen_col,chosen_sym,deck_rt,choose_choice,mutual_info,hidden_key,chosen_card,card_rt,player_num,win_card,outcome,mock_rating,response,responses
0,0,1.0,fullscreen,0,3492,0.0-0.0,crgktsu3p4a,2022-09-19 15:58:53.405,62b8cd151b5fd0f9be7d1f11,2,90,15,6,4,30,male,,,,,,,,,,,,,,,,,,,,,,,,,,,,,,,
1,0,,external-html,1,23119,0.0-1.0,crgktsu3p4a,2022-09-19 15:58:53.405,62b8cd151b5fd0f9be7d1f11,2,90,15,6,4,30,male,19507.0,static/js/sub/consent.html,,,,,,,,,,,,,,,,,,,,,,,,,,,,,
2,0,,call-function,2,23121,0.0-2.0,crgktsu3p4a,2022-09-19 15:58:53.405,62b8cd151b5fd0f9be7d1f11,2,90,15,6,4,30,male,,,,,,,,,,,,,,,,,,,,,,,,,,,,,,,
3,0,,image-keyboard-response,3,27282,0.0-3.0-0.0,crgktsu3p4a,2022-09-19 15:58:53.405,62b8cd151b5fd0f9be7d1f11,2,90,15,6,4,30,male,4161.0,,static/images/instructions_CB_2/Slide1.png,39.0,,,,,,,,,,,,,,,,,,,,,,,,,,,
4,0,,image-keyboard-response,4,36870,0.0-3.1-0.1,crgktsu3p4a,2022-09-19 15:58:53.405,62b8cd151b5fd0f9be7d1f11,2,90,15,6,4,30,male,9586.0,,static/images/instructions_CB_2/Slide2.png,39.0,,,,,,,,,,,,,,,,,,,,,,,,,,,
5,0,,image-keyboard-response,5,41878,0.0-3.2-0.2,crgktsu3p4a,2022-09-19 15:58:53.405,62b8cd151b5fd0f9be7d1f11,2,90,15,6,4,30,male,5008.0,,static/images/instructions_CB_2/Slide3.png,39.0,,,,,,,,,,,,,,,,,,,,,,,,,,,
6,0,,image-keyboard-response,6,47157,0.0-3.3-0.3,crgktsu3p4a,2022-09-19 15:58:53.405,62b8cd151b5fd0f9be7d1f11,2,90,15,6,4,30,male,5278.0,,static/images/instructions_CB_2/Slide4.png,39.0,,,,,,,,,,,,,,,,,,,,,,,,,,,
7,0,,image-keyboard-response,7,54818,0.0-3.4-0.4,crgktsu3p4a,2022-09-19 15:58:53.405,62b8cd151b5fd0f9be7d1f11,2,90,15,6,4,30,male,7659.0,,static/images/instructions_CB_2/Slide5.png,39.0,,,,,,,,,,,,,,,,,,,,,,,,,,,
8,0,,image-keyboard-response,8,56637,0.0-3.5-0.5,crgktsu3p4a,2022-09-19 15:58:53.405,62b8cd151b5fd0f9be7d1f11,2,90,15,6,4,30,male,1818.0,,static/images/instructions_CB_2/Slide6.png,39.0,,,,,,,,,,,,,,,,,,,,,,,,,,,
9,0,,image-keyboard-response,9,60809,0.0-3.6-0.6,crgktsu3p4a,2022-09-19 15:58:53.405,62b8cd151b5fd0f9be7d1f11,2,90,15,6,4,30,male,4172.0,,static/images/instructions_CB_2/Slide7.png,39.0,,,,,,,,,,,,,,,,,,,,,,,,,,,
10,0,,image-keyboard-response,10,70810,0.0-3.7-0.7,crgktsu3p4a,2022-09-19 15:58:53.405,62b8cd151b5fd0f9be7d1f11,2,90,15,6,4,30,male,10000.0,,static/images/instructions_CB_2/Slide8.png,39.0,,,,,,,,,,,,,,,,,,,,,,,,,,,
11,0,,image-keyboard-response,11,76085,0.0-3.8-0.8,crgktsu3p4a,2022-09-19 15:58:53.405,62b8cd151b5fd0f9be7d1f11,2,90,15,6,4,30,male,5274.0,,static/images/instructions_CB_2/Slide9.png,39.0,,,,,,,,,,,,,,,,,,,,,,,,,,,
12,0,,image-keyboard-response,12,86281,0.0-3.9-0.9,crgktsu3p4a,2022-09-19 15:58:53.405,62b8cd151b5fd0f9be7d1f11,2,90,15,6,4,30,male,10195.0,,static/images/instructions_CB_2/Slide10.png,39.0,,,,,,,,,,,,,,,,,,,,,,,,,,,
13,0,,image-keyboard-response,13,90580,0.0-3.10-0.10,crgktsu3p4a,2022-09-19 15:58:53.405,62b8cd151b5fd0f9be7d1f11,2,90,15,6,4,30,male,4298.0,,static/images/instructions_CB_2/Slide11.png,39.0,,,,,,,,,,,,,,,,,,,,,,,,,,,
14,0,,image-keyboard-response,14,105479,0.0-3.11-0.11,crgktsu3p4a,2022-09-19 15:58:53.405,62b8cd151b5fd0f9be7d1f11,2,90,15,6,4,30,male,14899.0,,static/images/instructions_CB_2/Slide12.png,39.0,,,,,,,,,,,,,,,,,,,,,,,,,,,
15,0,,image-keyboard-response,15,119631,0.0-3.12-0.12,crgktsu3p4a,2022-09-19 15:58:53.405,62b8cd151b5fd0f9be7d1f11,2,90,15,6,4,30,male,14150.0,,static/images/instructions_CB_2/Slide13.png,39.0,,,,,,,,,,,,,,,,,,,,,,,,,,,
16,0,,image-keyboard-response,16,124307,0.0-3.13-0.13,crgktsu3p4a,2022-09-19 15:58:53.405,62b8cd151b5fd0f9be7d1f11,2,90,15,6,4,30,male,4674.0,,static/images/instructions_CB_2/Slide14.png,39.0,,,,,,,,,,,,,,,,,,,,,,,,,,,
17,0,,image-keyboard-response,17,130582,0.0-3.14-0.14,crgktsu3p4a,2022-09-19 15:58:53.405,62b8cd151b5fd0f9be7d1f11,2,90,15,6,4,30,male,6275.0,,static/images/instructions_CB_2/Slide15.png,39.0,,,,,,,,,,,,,,,,,,,,,,,,,,,
18,0,,image-keyboard-response,18,159209,0.0-3.15-0.15,crgktsu3p4a,2022-09-19 15:58:53.405,62b8cd151b5fd0f9be7d1f11,2,90,15,6,4,30,male,28626.0,,static/images/instructions_CB_2/Slide16.png,39.0,,,,,,,,,,,,,,,,,,,,,,,,,,,
19,0,,image-keyboard-response,19,168694,0.0-3.16-0.16,crgktsu3p4a,2022-09-19 15:58:53.405,62b8cd151b5fd0f9be7d1f11,2,90,15,6,4,30,male,9483.0,,static/images/instructions_CB_2/Slide17.png,39.0,,,,,,,,,,,,,,,,,,,,,,,,,,,
20,0,,image-keyboard-response,20,186224,0.0-3.17-0.17,crgktsu3p4a,2022-09-19 15:58:53.405,62b8cd151b5fd0f9be7d1f11,2,90,15,6,4,30,male,17529.0,,static/images/instructions_CB_2/Slide18.png,39.0,,,,,,,,,,,,,,,,,,,,,,,,,,,
21,0,,image-keyboard-response,21,196873,0.0-3.18-0.18,crgktsu3p4a,2022-09-19 15:58:53.405,62b8cd151b5fd0f9be7d1f11,2,90,15,6,4,30,male,10648.0,,static/images/instructions_CB_2/Slide19.png,39.0,,,,,,,,,,,,,,,,,,,,,,,,,,,
22,0,,html-keyboard-response,22,198388,0.0-4.0-0.0,crgktsu3p4a,2022-09-19 15:58:53.405,62b8cd151b5fd0f9be7d1f11,2,90,15,6,4,30,male,,,"<img src=""static/images/cards/stack_of_black_stars.svg"" width=""175px"" height=""250px""></img>",,,,,,,,,,,,,,,,,,,,,,,,,,,,
23,0,,html-keyboard-response,23,200012,0.0-4.0-1.0,crgktsu3p4a,2022-09-19 15:58:53.405,62b8cd151b5fd0f9be7d1f11,2,90,15,6,4,30,male,1114.0,,"
  <table>
  <tr height=300>
    <td width=300 height=300><img src=""static/images/cards/back_of_black_stars.svg"" width=""175px"" height=""250px""></img></td>
    <td width=300 height=300><img src=""static/images/cards/back_of_black_stars.svg"" width=""175px"" height=""250px""></img></td>
  </tr>
  <tr height=200>
    <td width=300><img src=""static/images/keys/z.svg"" width=""35%"" height=""75%""></img></td>
    <td width=300><img src=""static/images/keys/m.svg"" width=""35%"" height=""75%""></img></td>
  </tr>
</table>
  ",90.0,1.0,,,,,,,,,,,,,,,,,,,,,,,,,,
24,0,,html-keyboard-response,24,201525,0.0-4.0-2.0,crgktsu3p4a,2022-09-19 15:58:53.405,62b8cd151b5fd0f9be7d1f11,2,90,15,6,4,30,male,,,"
  <table>
  <tr height=300>
    <td width=300 height=300><img src=""static/images/cards/1_of_black_stars.svg"" width=""175px"" height=""250px""></img></td>
    <td width=300 height=300><img src=""static/images/cards/back_of_black_stars.svg"" width=""175px"" height=""250px""></img></td>
  </tr>
  <tr height=200>
    <td width=300><img src=""static/images/keys/z.svg"" width=""35%"" height=""75%""></img></td>
    <td width=300><img src=""static/images/keys/m.svg"" width=""35%"" height=""75%""></img></td>
  </tr>
</table>
  ",,,,,,,,,,,,,,,,,,,,,,,,,,,,
25,0,,html-keyboard-response,25,203045,0.0-4.0-3.0,crgktsu3p4a,2022-09-19 15:58:53.405,62b8cd151b5fd0f9be7d1f11,2,90,15,6,4,30,male,,,"<p style=""font-size:50px"">You Lose!
No points this round.</p>",,,,,,,,,,,,,,,,,,,,,,,,,,,,
26,0,,html-keyboard-response,26,203570,0.0-4.0-4.0,crgktsu3p4a,2022-09-19 15:58:53.405,62b8cd151b5fd0f9be7d1f11,2,90,15,6,4,30,male,,,,,,1.0,learning,0.0,A,,black,,stars,,,,A,black,stars,,1.0,1.0,NA,left,1114.0,1.0,0.0,0.0,,,
27,0,,html-keyboard-response,27,205081,0.0-4.1-0.1,crgktsu3p4a,2022-09-19 15:58:53.405,62b8cd151b5fd0f9be7d1f11,2,90,15,6,4,30,male,,,"<img src=""static/images/cards/stack_of_red_stars.svg"" width=""175px"" height=""250px""></img>",,,,,,,,,,,,,,,,,,,,,,,,,,,,
28,0,,html-keyboard-response,28,206432,0.0-4.1-1.1,crgktsu3p4a,2022-09-19 15:58:53.405,62b8cd151b5fd0f9be7d1f11,2,90,15,6,4,30,male,844.0,,"
  <table>
  <tr height=300>
    <td width=300 height=300><img src=""static/images/cards/back_of_red_stars.svg"" width=""175px"" height=""250px""></img></td>
    <td width=300 height=300><img src=""static/images/cards/back_of_red_stars.svg"" width=""175px"" height=""250px""></img></td>
  </tr>
  <tr height=200>
    <td width=300><img src=""static/images/keys/z.svg"" width=""35%"" height=""75%""></img></td>
    <td width=300></td>
  </tr>
</table>
  ",90.0,1.0,,,,,,,,,,,,,,,,,,,,,,,,,,
29,0,,html-keyboard-response,29,207939,0.0-4.1-2.1,crgktsu3p4a,2022-09-19 15:58:53.405,62b8cd151b5fd0f9be7d1f11,2,90,15,6,4,30,male,,,"
  <table>
  <tr height=300>
    <td width=300 height=300><img src=""static/images/cards/3_of_red_stars.svg"" width=""175px"" height=""250px""></img></td>
    <td width=300 height=300><img src=""static/images/cards/back_of_red_stars.svg"" width=""175px"" height=""250px""></img></td>
  </tr>
  <tr height=200>
    <td width=300><img src=""static/images/keys/z.svg"" width=""35%"" height=""75%""></img></td>
    <td width=300></td>
  </tr>
</table>
  ",,,,,,,,,,,,,,,,,,,,,,,,,,,,
30,0,,html-keyboard-response,30,209455,0.0-4.1-3.1,crgktsu3p4a,2022-09-19 15:58:53.405,62b8cd151b5fd0f9be7d1f11,2,90,15,6,4,30,male,,,"<p style=""font-size:50px"">You Lose!
No points this round.</p>",,,,,,,,,,,,,,,,,,,,,,,,,,,,
31,0,,html-keyboard-response,31,209983,0.0-4.1-4.1,crgktsu3p4a,2022-09-19 15:58:53.405,62b8cd151b5fd0f9be7d1f11,2,90,15,6,4,30,male,,,,,,1.0,learning,1.0,B,,red,,stars,,,,B,red,stars,,0.0,1.0,1,left,844.0,3.0,0.0,0.0,,,
32,0,,html-keyboard-response,32,211485,0.0-4.2-0.2,crgktsu3p4a,2022-09-19 15:58:53.405,62b8cd151b5fd0f9be7d1f11,2,90,15,6,4,30,male,,,"<img src=""static/images/cards/stack_of_black_moons.svg"" width=""175px"" height=""250px""></img>",,,,,,,,,,,,,,,,,,,,,,,,,,,,
33,0,,html-keyboard-response,33,212763,0.0-4.2-1.2,crgktsu3p4a,2022-09-19 15:58:53.405,62b8cd151b5fd0f9be7d1f11,2,90,15,6,4,30,male,769.0,,"
  <table>
  <tr height=300>
    <td width=300 height=300><img src=""static/images/cards/back_of_black_moons.svg"" width=""175px"" height=""250px""></img></td>
    <td width=300 height=300><img src=""static/images/cards/back_of_black_moons.svg"" width=""175px"" height=""250px""></img></td>
  </tr>
  <tr height=200>
    <td width=300><img src=""static/images/keys/z.svg"" width=""35%"" height=""75%""></img></td>
    <td width=300><img src=""static/images/keys/m.svg"" width=""35%"" height=""75%""></img></td>
  </tr>
</table>
  ",77.0,1.0,,,,,,,,,,,,,,,,,,,,,,,,,,
34,0,,html-keyboard-response,34,214266,0.0-4.2-2.2,crgktsu3p4a,2022-09-19 15:58:53.405,62b8cd151b5fd0f9be7d1f11,2,90,15,6,4,30,male,,,"
  <table>
  <tr height=300>
    <td width=300 height=300><img src=""static/images/cards/back_of_black_moons.svg"" width=""175px"" height=""250px""></img></td>
    <td width=300 height=300><img src=""static/images/cards/1_of_black_moons.svg"" width=""175px"" height=""250px""></img></td>
  </tr>
  <tr height=200>
    <td width=300><img src=""static/images/keys/z.svg"" width=""35%"" height=""75%""></img></td>
    <td width=300><img src=""static/images/keys/m.svg"" width=""35%"" height=""75%""></img></td>
  </tr>
</table>
  ",,,,,,,,,,,,,,,,,,,,,,,,,,,,
35,0,,html-keyboard-response,35,215781,0.0-4.2-3.2,crgktsu3p4a,2022-09-19 15:58:53.405,62b8cd151b5fd0f9be7d1f11,2,90,15,6,4,30,male,,,"<p style=""font-size:50px"">You Lose!
No points this round.</p>",,,,,,,,,,,,,,,,,,,,,,,,,,,,
36,0,,html-keyboard-response,36,216307,0.0-4.2-4.2,crgktsu3p4a,2022-09-19 15:58:53.405,62b8cd151b5fd0f9be7d1f11,2,90,15,6,4,30,male,,,,,,1.0,learning,2.0,C,,black,,moons,,,,C,black,moons,,1.0,0.0,NA,right,769.0,1.0,0.0,0.0,,,
37,0,,html-keyboard-response,37,217810,0.0-4.3-0.3,crgktsu3p4a,2022-09-19 15:58:53.405,62b8cd151b5fd0f9be7d1f11,2,90,15,6,4,30,male,,,"<img src=""static/images/cards/stack_of_red_moons.svg"" width=""175px"" height=""250px""></img>",,,,,,,,,,,,,,,,,,,,,,,,,,,,
38,0,,html-keyboard-response,38,218907,0.0-4.3-1.3,crgktsu3p4a,2022-09-19 15:58:53.405,62b8cd151b5fd0f9be7d1f11,2,90,15,6,4,30,male,587.0,,"
  <table>
  <tr height=300>
    <td width=300 height=300><img src=""static/images/cards/back_of_red_moons.svg"" width=""175px"" height=""250px""></img></td>
    <td width=300 height=300><img src=""static/images/cards/back_of_red_moons.svg"" width=""175px"" height=""250px""></img></td>
  </tr>
  <tr height=200>
    <td width=300><img src=""static/images/keys/z.svg"" width=""35%"" height=""75%""></img></td>
    <td width=300></td>
  </tr>
</table>
  ",90.0,1.0,,,,,,,,,,,,,,,,,,,,,,,,,,
39,0,,html-keyboard-response,39,220411,0.0-4.3-2.3,crgktsu3p4a,2022-09-19 15:58:53.405,62b8cd151b5fd0f9be7d1f11,2,90,15,6,4,30,male,,,"
  <table>
  <tr height=300>
    <td width=300 height=300><img src=""static/images/cards/8_of_red_moons.svg"" width=""175px"" height=""250px""></img></td>
    <td width=300 height=300><img src=""static/images/cards/back_of_red_moons.svg"" width=""175px"" height=""250px""></img></td>
  </tr>
  <tr height=200>
    <td width=300><img src=""static/images/keys/z.svg"" width=""35%"" height=""75%""></img></td>
    <td width=300></td>
  </tr>
</table>
  ",,,,,,,,,,,,,,,,,,,,,,,,,,,,
40,0,,html-keyboard-response,40,221930,0.0-4.3-3.3,crgktsu3p4a,2022-09-19 15:58:53.405,62b8cd151b5fd0f9be7d1f11,2,90,15,6,4,30,male,,,"<p style=""font-size:50px"">You win!
+10 points this round!</p>",,,,,,,,,,,,,,,,,,,,,,,,,,,,
41,0,,html-keyboard-response,41,222455,0.0-4.3-4.3,crgktsu3p4a,2022-09-19 15:58:53.405,62b8cd151b5fd0f9be7d1f11,2,90,15,6,4,30,male,,,,,,1.0,learning,3.0,D,,red,,moons,,,,D,red,moons,,0.0,0.0,1,left,587.0,8.0,1.0,1.0,,,
42,0,,html-keyboard-response,42,223956,0.0-4.4-0.4,crgktsu3p4a,2022-09-19 15:58:53.405,62b8cd151b5fd0f9be7d1f11,2,90,15,6,4,30,male,,,"<img src=""static/images/cards/stack_of_red_bolts.svg"" width=""175px"" height=""250px""></img>",,,,,,,,,,,,,,,,,,,,,,,,,,,,
43,0,,html-keyboard-response,43,225226,0.0-4.4-1.4,crgktsu3p4a,2022-09-19 15:58:53.405,62b8cd151b5fd0f9be7d1f11,2,90,15,6,4,30,male,761.0,,"
  <table>
  <tr height=300>
    <td width=300 height=300><img src=""static/images/cards/back_of_red_bolts.svg"" width=""175px"" height=""250px""></img></td>
    <td width=300 height=300><img src=""static/images/cards/back_of_red_bolts.svg"" width=""175px"" height=""250px""></img></td>
  </tr>
  <tr height=200>
    <td width=300><img src=""static/images/keys/z.svg"" width=""35%"" height=""75%""></img></td>
    <td width=300><img src=""static/images/keys/m.svg"" width=""35%"" height=""75%""></img></td>
  </tr>
</table>
  ",77.0,1.0,,,,,,,,,,,,,,,,,,,,,,,,,,
44,0,,html-keyboard-response,44,226742,0.0-4.4-2.4,crgktsu3p4a,2022-09-19 15:58:53.405,62b8cd151b5fd0f9be7d1f11,2,90,15,6,4,30,male,,,"
  <table>
  <tr height=300>
    <td width=300 height=300><img src=""static/images/cards/back_of_red_bolts.svg"" width=""175px"" height=""250px""></img></td>
    <td width=300 height=300><img src=""static/images/cards/7_of_red_bolts.svg"" width=""175px"" height=""250px""></img></td>
  </tr>
  <tr height=200>
    <td width=300><img src=""static/images/keys/z.svg"" width=""35%"" height=""75%""></img></td>
    <td width=300><img src=""static/images/keys/m.svg"" width=""35%"" height=""75%""></img></td>
  </tr>
</table>
  ",,,,,,,,,,,,,,,,,,,,,,,,,,,,
45,0,,html-keyboard-response,45,228252,0.0-4.4-3.4,crgktsu3p4a,2022-09-19 15:58:53.405,62b8cd151b5fd0f9be7d1f11,2,90,15,6,4,30,male,,,"<p style=""font-size:50px"">You win!
+10 points this round!</p>",,,,,,,,,,,,,,,,,,,,,,,,,,,,
46,0,,html-keyboard-response,46,228780,0.0-4.4-4.4,crgktsu3p4a,2022-09-19 15:58:53.405,62b8cd151b5fd0f9be7d1f11,2,90,15,6,4,30,male,,,,,,1.0,learning,4.0,Xc,,red,,bolts,,,,Xc,red,bolts,,1.0,0.0,NA,right,761.0,7.0,1.0,1.0,,,
47,0,,html-keyboard-response,47,230294,0.0-4.5-0.5,crgktsu3p4a,2022-09-19 15:58:53.405,62b8cd151b5fd0f9be7d1f11,2,90,15,6,4,30,male,,,"<img src=""static/images/cards/stack_of_black_bolts.svg"" width=""175px"" height=""250px""></img>",,,,,,,,,,,,,,,,,,,,,,,,,,,,
48,0,,html-keyboard-response,48,231430,0.0-4.5-1.5,crgktsu3p4a,2022-09-19 15:58:53.405,62b8cd151b5fd0f9be7d1f11,2,90,15,6,4,30,male,623.0,,"
  <table>
  <tr height=300>
    <td width=300 height=300><img src=""static/images/cards/back_of_black_bolts.svg"" width=""175px"" height=""250px""></img></td>
    <td width=300 height=300><img src=""static/images/cards/back_of_black_bolts.svg"" width=""175px"" height=""250px""></img></td>
  </tr>
  <tr height=200>
    <td width=300><img src=""static/images/keys/z.svg"" width=""35%"" height=""75%""></img></td>
    <td width=300></td>
  </tr>
</table>
  ",90.0,1.0,,,,,,,,,,,,,,,,,,,,,,,,,,
49,0,,html-keyboard-response,49,232942,0.0-4.5-2.5,crgktsu3p4a,2022-09-19 15:58:53.405,62b8cd151b5fd0f9be7d1f11,2,90,15,6,4,30,male,,,"
  <table>
  <tr height=300>
    <td width=300 height=300><img src=""static/images/cards/9_of_black_bolts.svg"" width=""175px"" height=""250px""></img></td>
    <td width=300 height=300><img src=""static/images/cards/back_of_black_bolts.svg"" width=""175px"" height=""250px""></img></td>
  </tr>
  <tr height=200>
    <td width=300><img src=""static/images/keys/z.svg"" width=""35%"" height=""75%""></img></td>
    <td width=300></td>
  </tr>
</table>
  ",,,,,,,,,,,,,,,,,,,,,,,,,,,,
50,0,,html-keyboard-response,50,234465,0.0-4.5-3.5,crgktsu3p4a,2022-09-19 15:58:53.405,62b8cd151b5fd0f9be7d1f11,2,90,15,6,4,30,male,,,"<p style=""font-size:50px"">You win!
+10 points this round!</p>",,,,,,,,,,,,,,,,,,,,,,,,,,,,
51,0,,html-keyboard-response,51,234988,0.0-4.5-4.5,crgktsu3p4a,2022-09-19 15:58:53.405,62b8cd151b5fd0f9be7d1f11,2,90,15,6,4,30,male,,,,,,1.0,learning,5.0,Xnc,,black,,bolts,,,,Xnc,black,bolts,,0.0,0.0,1,left,623.0,9.0,1.0,1.0,,,
52,0,,html-keyboard-response,52,236504,0.0-4.6-0.6,crgktsu3p4a,2022-09-19 15:58:53.405,62b8cd151b5fd0f9be7d1f11,2,90,15,6,4,30,male,,,"<img src=""static/images/cards/stack_of_black_stars.svg"" width=""175px"" height=""250px""></img>",,,,,,,,,,,,,,,,,,,,,,,,,,,,
53,0,,html-keyboard-response,53,238050,0.0-4.6-1.6,crgktsu3p4a,2022-09-19 15:58:53.405,62b8cd151b5fd0f9be7d1f11,2,90,15,6,4,30,male,1037.0,,"
  <table>
  <tr height=300>
    <td width=300 height=300><img src=""static/images/cards/back_of_black_stars.svg"" width=""175px"" height=""250px""></img></td>
    <td width=300 height=300><img src=""static/images/cards/back_of_black_stars.svg"" width=""175px"" height=""250px""></img></td>
  </tr>
  <tr height=200>
    <td width=300><img src=""static/images/keys/z.svg"" width=""35%"" height=""75%""></img></td>
    <td width=300><img src=""static/images/keys/m.svg"" width=""35%"" height=""75%""></img></td>
  </tr>
</table>
  ",90.0,1.0,,,,,,,,,,,,,,,,,,,,,,,,,,
54,0,,html-keyboard-response,54,239551,0.0-4.6-2.6,crgktsu3p4a,2022-09-19 15:58:53.405,62b8cd151b5fd0f9be7d1f11,2,90,15,6,4,30,male,,,"
  <table>
  <tr height=300>
    <td width=300 height=300><img src=""static/images/cards/2_of_black_stars.svg"" width=""175px"" height=""250px""></img></td>
    <td width=300 height=300><img src=""static/images/cards/back_of_black_stars.svg"" width=""175px"" height=""250px""></img></td>
  </tr>
  <tr height=200>
    <td width=300><img src=""static/images/keys/z.svg"" width=""35%"" height=""75%""></img></td>
    <td width=300><img src=""static/images/keys/m.svg"" width=""35%"" height=""75%""></img></td>
  </tr>
</table>
  ",,,,,,,,,,,,,,,,,,,,,,,,,,,,
55,0,,html-keyboard-response,55,241068,0.0-4.6-3.6,crgktsu3p4a,2022-09-19 15:58:53.405,62b8cd151b5fd0f9be7d1f11,2,90,15,6,4,30,male,,,"<p style=""font-size:50px"">You Lose!
No points this round.</p>",,,,,,,,,,,,,,,,,,,,,,,,,,,,
56,0,,html-keyboard-response,56,241597,0.0-4.6-4.6,crgktsu3p4a,2022-09-19 15:58:53.405,62b8cd151b5fd0f9be7d1f11,2,90,15,6,4,30,male,,,,,,1.0,learning,6.0,A,,black,,stars,,,,A,black,stars,,1.0,1.0,NA,left,1037.0,2.0,0.0,0.0,,,
57,0,,html-keyboard-response,57,243111,0.0-4.7-0.7,crgktsu3p4a,2022-09-19 15:58:53.405,62b8cd151b5fd0f9be7d1f11,2,90,15,6,4,30,male,,,"<img src=""static/images/cards/stack_of_red_stars.svg"" width=""175px"" height=""250px""></img>",,,,,,,,,,,,,,,,,,,,,,,,,,,,
58,0,,html-keyboard-response,58,244214,0.0-4.7-1.7,crgktsu3p4a,2022-09-19 15:58:53.405,62b8cd151b5fd0f9be7d1f11,2,90,15,6,4,30,male,590.0,,"
  <table>
  <tr height=300>
    <td width=300 height=300><img src=""static/images/cards/back_of_red_stars.svg"" width=""175px"" height=""250px""></img></td>
    <td width=300 height=300><img src=""static/images/cards/back_of_red_stars.svg"" width=""175px"" height=""250px""></img></td>
  </tr>
  <tr height=200>
    <td width=300><img src=""static/images/keys/z.svg"" width=""35%"" height=""75%""></img></td>
    <td width=300></td>
  </tr>
</table>
  ",90.0,1.0,,,,,,,,,,,,,,,,,,,,,,,,,,
59,0,,html-keyboard-response,59,245727,0.0-4.7-2.7,crgktsu3p4a,2022-09-19 15:58:53.405,62b8cd151b5fd0f9be7d1f11,2,90,15,6,4,30,male,,,"
  <table>
  <tr height=300>
    <td width=300 height=300><img src=""static/images/cards/1_of_red_stars.svg"" width=""175px"" height=""250px""></img></td>
    <td width=300 height=300><img src=""static/images/cards/back_of_red_stars.svg"" width=""175px"" height=""250px""></img></td>
  </tr>
  <tr height=200>
    <td width=300><img src=""static/images/keys/z.svg"" width=""35%"" height=""75%""></img></td>
    <td width=300></td>
  </tr>
</table>
  ",,,,,,,,,,,,,,,,,,,,,,,,,,,,
60,0,,html-keyboard-response,60,247240,0.0-4.7-3.7,crgktsu3p4a,2022-09-19 15:58:53.405,62b8cd151b5fd0f9be7d1f11,2,90,15,6,4,30,male,,,"<p style=""font-size:50px"">You Lose!
No points this round.</p>",,,,,,,,,,,,,,,,,,,,,,,,,,,,
61,0,,html-keyboard-response,61,247767,0.0-4.7-4.7,crgktsu3p4a,2022-09-19 15:58:53.405,62b8cd151b5fd0f9be7d1f11,2,90,15,6,4,30,male,,,,,,1.0,learning,7.0,B,,red,,stars,,,,B,red,stars,,0.0,1.0,1,left,590.0,1.0,0.0,0.0,,,
62,0,,html-keyboard-response,62,249270,0.0-4.8-0.8,crgktsu3p4a,2022-09-19 15:58:53.405,62b8cd151b5fd0f9be7d1f11,2,90,15,6,4,30,male,,,"<img src=""static/images/cards/stack_of_black_moons.svg"" width=""175px"" height=""250px""></img>",,,,,,,,,,,,,,,,,,,,,,,,,,,,
63,0,,html-keyboard-response,63,250582,0.0-4.8-1.8,crgktsu3p4a,2022-09-19 15:58:53.405,62b8cd151b5fd0f9be7d1f11,2,90,15,6,4,30,male,805.0,,"
  <table>
  <tr height=300>
    <td width=300 height=300><img src=""static/images/cards/back_of_black_moons.svg"" width=""175px"" height=""250px""></img></td>
    <td width=300 height=300><img src=""static/images/cards/back_of_black_moons.svg"" width=""175px"" height=""250px""></img></td>
  </tr>
  <tr height=200>
    <td width=300><img src=""static/images/keys/z.svg"" width=""35%"" height=""75%""></img></td>
    <td width=300><img src=""static/images/keys/m.svg"" width=""35%"" height=""75%""></img></td>
  </tr>
</table>
  ",90.0,1.0,,,,,,,,,,,,,,,,,,,,,,,,,,
64,0,,html-keyboard-response,64,252086,0.0-4.8-2.8,crgktsu3p4a,2022-09-19 15:58:53.405,62b8cd151b5fd0f9be7d1f11,2,90,15,6,4,30,male,,,"
  <table>
  <tr height=300>
    <td width=300 height=300><img src=""static/images/cards/2_of_black_moons.svg"" width=""175px"" height=""250px""></img></td>
    <td width=300 height=300><img src=""static/images/cards/back_of_black_moons.svg"" width=""175px"" height=""250px""></img></td>
  </tr>
  <tr height=200>
    <td width=300><img src=""static/images/keys/z.svg"" width=""35%"" height=""75%""></img></td>
    <td width=300><img src=""static/images/keys/m.svg"" width=""35%"" height=""75%""></img></td>
  </tr>
</table>
  ",,,,,,,,,,,,,,,,,,,,,,,,,,,,
65,0,,html-keyboard-response,65,253604,0.0-4.8-3.8,crgktsu3p4a,2022-09-19 15:58:53.405,62b8cd151b5fd0f9be7d1f11,2,90,15,6,4,30,male,,,"<p style=""font-size:50px"">You win!
+10 points this round!</p>",,,,,,,,,,,,,,,,,,,,,,,,,,,,
66,0,,html-keyboard-response,66,254126,0.0-4.8-4.8,crgktsu3p4a,2022-09-19 15:58:53.405,62b8cd151b5fd0f9be7d1f11,2,90,15,6,4,30,male,,,,,,1.0,learning,8.0,C,,black,,moons,,,,C,black,moons,,1.0,0.0,NA,left,805.0,2.0,0.0,1.0,,,
67,0,,html-keyboard-response,67,255630,0.0-4.9-0.9,crgktsu3p4a,2022-09-19 15:58:53.405,62b8cd151b5fd0f9be7d1f11,2,90,15,6,4,30,male,,,"<img src=""static/images/cards/stack_of_red_moons.svg"" width=""175px"" height=""250px""></img>",,,,,,,,,,,,,,,,,,,,,,,,,,,,
68,0,,html-keyboard-response,68,256893,0.0-4.9-1.9,crgktsu3p4a,2022-09-19 15:58:53.405,62b8cd151b5fd0f9be7d1f11,2,90,15,6,4,30,male,755.0,,"
  <table>
  <tr height=300>
    <td width=300 height=300><img src=""static/images/cards/back_of_red_moons.svg"" width=""175px"" height=""250px""></img></td>
    <td width=300 height=300><img src=""static/images/cards/back_of_red_moons.svg"" width=""175px"" height=""250px""></img></td>
  </tr>
  <tr height=200>
    <td width=300></td>
    <td width=300><img src=""static/images/keys/m.svg"" width=""35%"" height=""75%""></img></td>
  </tr>
</table>
  ",77.0,1.0,,,,,,,,,,,,,,,,,,,,,,,,,,
69,0,,html-keyboard-response,69,258408,0.0-4.9-2.9,crgktsu3p4a,2022-09-19 15:58:53.405,62b8cd151b5fd0f9be7d1f11,2,90,15,6,4,30,male,,,"
  <table>
  <tr height=300>
    <td width=300 height=300><img src=""static/images/cards/back_of_red_moons.svg"" width=""175px"" height=""250px""></img></td>
    <td width=300 height=300><img src=""static/images/cards/8_of_red_moons.svg"" width=""175px"" height=""250px""></img></td>
  </tr>
  <tr height=200>
    <td width=300></td>
    <td width=300><img src=""static/images/keys/m.svg"" width=""35%"" height=""75%""></img></td>
  </tr>
</table>
  ",,,,,,,,,,,,,,,,,,,,,,,,,,,,
70,0,,html-keyboard-response,70,259924,0.0-4.9-3.9,crgktsu3p4a,2022-09-19 15:58:53.405,62b8cd151b5fd0f9be7d1f11,2,90,15,6,4,30,male,,,"<p style=""font-size:50px"">You Lose!
No points this round.</p>",,,,,,,,,,,,,,,,,,,,,,,,,,,,
71,0,,html-keyboard-response,71,260447,0.0-4.9-4.9,crgktsu3p4a,2022-09-19 15:58:53.405,62b8cd151b5fd0f9be7d1f11,2,90,15,6,4,30,male,,,,,,1.0,learning,9.0,D,,red,,moons,,,,D,red,moons,,0.0,0.0,0,right,755.0,8.0,1.0,0.0,,,
72,0,,html-keyboard-response,72,261950,0.0-4.10-0.10,crgktsu3p4a,2022-09-19 15:58:53.405,62b8cd151b5fd0f9be7d1f11,2,90,15,6,4,30,male,,,"<img src=""static/images/cards/stack_of_red_bolts.svg"" width=""175px"" height=""250px""></img>",,,,,,,,,,,,,,,,,,,,,,,,,,,,
73,0,,html-keyboard-response,73,262990,0.0-4.10-1.10,crgktsu3p4a,2022-09-19 15:58:53.405,62b8cd151b5fd0f9be7d1f11,2,90,15,6,4,30,male,529.0,,"
  <table>
  <tr height=300>
    <td width=300 height=300><img src=""static/images/cards/back_of_red_bolts.svg"" width=""175px"" height=""250px""></img></td>
    <td width=300 height=300><img src=""static/images/cards/back_of_red_bolts.svg"" width=""175px"" height=""250px""></img></td>
  </tr>
  <tr height=200>
    <td width=300><img src=""static/images/keys/z.svg"" width=""35%"" height=""75%""></img></td>
    <td width=300><img src=""static/images/keys/m.svg"" width=""35%"" height=""75%""></img></td>
  </tr>
</table>
  ",77.0,1.0,,,,,,,,,,,,,,,,,,,,,,,,,,
74,0,,html-keyboard-response,74,264505,0.0-4.10-2.10,crgktsu3p4a,2022-09-19 15:58:53.405,62b8cd151b5fd0f9be7d1f11,2,90,15,6,4,30,male,,,"
  <table>
  <tr height=300>
    <td width=300 height=300><img src=""static/images/cards/back_of_red_bolts.svg"" width=""175px"" height=""250px""></img></td>
    <td width=300 height=300><img src=""static/images/cards/4_of_red_bolts.svg"" width=""175px"" height=""250px""></img></td>
  </tr>
  <tr height=200>
    <td width=300><img src=""static/images/keys/z.svg"" width=""35%"" height=""75%""></img></td>
    <td width=300><img src=""static/images/keys/m.svg"" width=""35%"" height=""75%""></img></td>
  </tr>
</table>
  ",,,,,,,,,,,,,,,,,,,,,,,,,,,,
75,0,,html-keyboard-response,75,266019,0.0-4.10-3.10,crgktsu3p4a,2022-09-19 15:58:53.405,62b8cd151b5fd0f9be7d1f11,2,90,15,6,4,30,male,,,"<p style=""font-size:50px"">You win!
+10 points this round!</p>",,,,,,,,,,,,,,,,,,,,,,,,,,,,
76,0,,html-keyboard-response,76,266544,0.0-4.10-4.10,crgktsu3p4a,2022-09-19 15:58:53.405,62b8cd151b5fd0f9be7d1f11,2,90,15,6,4,30,male,,,,,,1.0,learning,10.0,Xc,,red,,bolts,,,,Xc,red,bolts,,1.0,0.0,NA,right,529.0,4.0,0.0,1.0,,,
77,0,,html-keyboard-response,77,268057,0.0-4.11-0.11,crgktsu3p4a,2022-09-19 15:58:53.405,62b8cd151b5fd0f9be7d1f11,2,90,15,6,4,30,male,,,"<img src=""static/images/cards/stack_of_black_bolts.svg"" width=""175px"" height=""250px""></img>",,,,,,,,,,,,,,,,,,,,,,,,,,,,
78,0,,html-keyboard-response,78,269121,0.0-4.11-1.11,crgktsu3p4a,2022-09-19 15:58:53.405,62b8cd151b5fd0f9be7d1f11,2,90,15,6,4,30,male,552.0,,"
  <table>
  <tr height=300>
    <td width=300 height=300><img src=""static/images/cards/back_of_black_bolts.svg"" width=""175px"" height=""250px""></img></td>
    <td width=300 height=300><img src=""static/images/cards/back_of_black_bolts.svg"" width=""175px"" height=""250px""></img></td>
  </tr>
  <tr height=200>
    <td width=300></td>
    <td width=300><img src=""static/images/keys/m.svg"" width=""35%"" height=""75%""></img></td>
  </tr>
</table>
  ",77.0,1.0,,,,,,,,,,,,,,,,,,,,,,,,,,
79,0,,html-keyboard-response,79,270637,0.0-4.11-2.11,crgktsu3p4a,2022-09-19 15:58:53.405,62b8cd151b5fd0f9be7d1f11,2,90,15,6,4,30,male,,,"
  <table>
  <tr height=300>
    <td width=300 height=300><img src=""static/images/cards/back_of_black_bolts.svg"" width=""175px"" height=""250px""></img></td>
    <td width=300 height=300><img src=""static/images/cards/9_of_black_bolts.svg"" width=""175px"" height=""250px""></img></td>
  </tr>
  <tr height=200>
    <td width=300></td>
    <td width=300><img src=""static/images/keys/m.svg"" width=""35%"" height=""75%""></img></td>
  </tr>
</table>
  ",,,,,,,,,,,,,,,,,,,,,,,,,,,,
80,0,,html-keyboard-response,80,272155,0.0-4.11-3.11,crgktsu3p4a,2022-09-19 15:58:53.405,62b8cd151b5fd0f9be7d1f11,2,90,15,6,4,30,male,,,"<p style=""font-size:50px"">You win!
+10 points this round!</p>",,,,,,,,,,,,,,,,,,,,,,,,,,,,
81,0,,html-keyboard-response,81,272684,0.0-4.11-4.11,crgktsu3p4a,2022-09-19 15:58:53.405,62b8cd151b5fd0f9be7d1f11,2,90,15,6,4,30,male,,,,,,1.0,learning,11.0,Xnc,,black,,bolts,,,,Xnc,black,bolts,,0.0,0.0,0,right,552.0,9.0,1.0,1.0,,,
82,0,,html-keyboard-response,82,274190,0.0-4.12-0.12,crgktsu3p4a,2022-09-19 15:58:53.405,62b8cd151b5fd0f9be7d1f11,2,90,15,6,4,30,male,,,"<img src=""static/images/cards/stack_of_black_stars.svg"" width=""175px"" height=""250px""></img>",,,,,,,,,,,,,,,,,,,,,,,,,,,,
83,0,,html-keyboard-response,83,275534,0.0-4.12-1.12,crgktsu3p4a,2022-09-19 15:58:53.405,62b8cd151b5fd0f9be7d1f11,2,90,15,6,4,30,male,835.0,,"
  <table>
  <tr height=300>
    <td width=300 height=300><img src=""static/images/cards/back_of_black_stars.svg"" width=""175px"" height=""250px""></img></td>
    <td width=300 height=300><img src=""static/images/cards/back_of_black_stars.svg"" width=""175px"" height=""250px""></img></td>
  </tr>
  <tr height=200>
    <td width=300><img src=""static/images/keys/z.svg"" width=""35%"" height=""75%""></img></td>
    <td width=300><img src=""static/images/keys/m.svg"" width=""35%"" height=""75%""></img></td>
  </tr>
</table>
  ",90.0,1.0,,,,,,,,,,,,,,,,,,,,,,,,,,
84,0,,html-keyboard-response,84,277039,0.0-4.12-2.12,crgktsu3p4a,2022-09-19 15:58:53.405,62b8cd151b5fd0f9be7d1f11,2,90,15,6,4,30,male,,,"
  <table>
  <tr height=300>
    <td width=300 height=300><img src=""static/images/cards/8_of_black_stars.svg"" width=""175px"" height=""250px""></img></td>
    <td width=300 height=300><img src=""static/images/cards/back_of_black_stars.svg"" width=""175px"" height=""250px""></img></td>
  </tr>
  <tr height=200>
    <td width=300><img src=""static/images/keys/z.svg"" width=""35%"" height=""75%""></img></td>
    <td width=300><img src=""static/images/keys/m.svg"" width=""35%"" height=""75%""></img></td>
  </tr>
</table>
  ",,,,,,,,,,,,,,,,,,,,,,,,,,,,
85,0,,html-keyboard-response,85,278553,0.0-4.12-3.12,crgktsu3p4a,2022-09-19 15:58:53.405,62b8cd151b5fd0f9be7d1f11,2,90,15,6,4,30,male,,,"<p style=""font-size:50px"">You win!
+10 points this round!</p>",,,,,,,,,,,,,,,,,,,,,,,,,,,,
86,0,,html-keyboard-response,86,279079,0.0-4.12-4.12,crgktsu3p4a,2022-09-19 15:58:53.405,62b8cd151b5fd0f9be7d1f11,2,90,15,6,4,30,male,,,,,,1.0,learning,12.0,A,,black,,stars,,,,A,black,stars,,1.0,1.0,NA,left,835.0,8.0,1.0,1.0,,,
87,0,,html-keyboard-response,87,280589,0.0-4.13-0.13,crgktsu3p4a,2022-09-19 15:58:53.405,62b8cd151b5fd0f9be7d1f11,2,90,15,6,4,30,male,,,"<img src=""static/images/cards/stack_of_red_stars.svg"" width=""175px"" height=""250px""></img>",,,,,,,,,,,,,,,,,,,,,,,,,,,,
88,0,,html-keyboard-response,88,281988,0.0-4.13-1.13,crgktsu3p4a,2022-09-19 15:58:53.405,62b8cd151b5fd0f9be7d1f11,2,90,15,6,4,30,male,885.0,,"
  <table>
  <tr height=300>
    <td width=300 height=300><img src=""static/images/cards/back_of_red_stars.svg"" width=""175px"" height=""250px""></img></td>
    <td width=300 height=300><img src=""static/images/cards/back_of_red_stars.svg"" width=""175px"" height=""250px""></img></td>
  </tr>
  <tr height=200>
    <td width=300></td>
    <td width=300><img src=""static/images/keys/m.svg"" width=""35%"" height=""75%""></img></td>
  </tr>
</table>
  ",77.0,1.0,,,,,,,,,,,,,,,,,,,,,,,,,,
89,0,,html-keyboard-response,89,283495,0.0-4.13-2.13,crgktsu3p4a,2022-09-19 15:58:53.405,62b8cd151b5fd0f9be7d1f11,2,90,15,6,4,30,male,,,"
  <table>
  <tr height=300>
    <td width=300 height=300><img src=""static/images/cards/back_of_red_stars.svg"" width=""175px"" height=""250px""></img></td>
    <td width=300 height=300><img src=""static/images/cards/10_of_red_stars.svg"" width=""175px"" height=""250px""></img></td>
  </tr>
  <tr height=200>
    <td width=300></td>
    <td width=300><img src=""static/images/keys/m.svg"" width=""35%"" height=""75%""></img></td>
  </tr>
</table>
  ",,,,,,,,,,,,,,,,,,,,,,,,,,,,
90,0,,html-keyboard-response,90,285009,0.0-4.13-3.13,crgktsu3p4a,2022-09-19 15:58:53.405,62b8cd151b5fd0f9be7d1f11,2,90,15,6,4,30,male,,,"<p style=""font-size:50px"">You win!
+10 points this round!</p>",,,,,,,,,,,,,,,,,,,,,,,,,,,,
91,0,,html-keyboard-response,91,285537,0.0-4.13-4.13,crgktsu3p4a,2022-09-19 15:58:53.405,62b8cd151b5fd0f9be7d1f11,2,90,15,6,4,30,male,,,,,,1.0,learning,13.0,B,,red,,stars,,,,B,red,stars,,0.0,1.0,0,right,885.0,10.0,1.0,1.0,,,
92,0,,html-keyboard-response,92,287040,0.0-4.14-0.14,crgktsu3p4a,2022-09-19 15:58:53.405,62b8cd151b5fd0f9be7d1f11,2,90,15,6,4,30,male,,,"<img src=""static/images/cards/stack_of_black_moons.svg"" width=""175px"" height=""250px""></img>",,,,,,,,,,,,,,,,,,,,,,,,,,,,
93,0,,html-keyboard-response,93,288381,0.0-4.14-1.14,crgktsu3p4a,2022-09-19 15:58:53.405,62b8cd151b5fd0f9be7d1f11,2,90,15,6,4,30,male,830.0,,"
  <table>
  <tr height=300>
    <td width=300 height=300><img src=""static/images/cards/back_of_black_moons.svg"" width=""175px"" height=""250px""></img></td>
    <td width=300 height=300><img src=""static/images/cards/back_of_black_moons.svg"" width=""175px"" height=""250px""></img></td>
  </tr>
  <tr height=200>
    <td width=300><img src=""static/images/keys/z.svg"" width=""35%"" height=""75%""></img></td>
    <td width=300><img src=""static/images/keys/m.svg"" width=""35%"" height=""75%""></img></td>
  </tr>
</table>
  ",90.0,1.0,,,,,,,,,,,,,,,,,,,,,,,,,,
94,0,,html-keyboard-response,94,289884,0.0-4.14-2.14,crgktsu3p4a,2022-09-19 15:58:53.405,62b8cd151b5fd0f9be7d1f11,2,90,15,6,4,30,male,,,"
  <table>
  <tr height=300>
    <td width=300 height=300><img src=""static/images/cards/7_of_black_moons.svg"" width=""175px"" height=""250px""></img></td>
    <td width=300 height=300><img src=""static/images/cards/back_of_black_moons.svg"" width=""175px"" height=""250px""></img></td>
  </tr>
  <tr height=200>
    <td width=300><img src=""static/images/keys/z.svg"" width=""35%"" height=""75%""></img></td>
    <td width=300><img src=""static/images/keys/m.svg"" width=""35%"" height=""75%""></img></td>
  </tr>
</table>
  ",,,,,,,,,,,,,,,,,,,,,,,,,,,,
95,0,,html-keyboard-response,95,291401,0.0-4.14-3.14,crgktsu3p4a,2022-09-19 15:58:53.405,62b8cd151b5fd0f9be7d1f11,2,90,15,6,4,30,male,,,"<p style=""font-size:50px"">You Lose!
No points this round.</p>",,,,,,,,,,,,,,,,,,,,,,,,,,,,
96,0,,html-keyboard-response,96,291926,0.0-4.14-4.14,crgktsu3p4a,2022-09-19 15:58:53.405,62b8cd151b5fd0f9be7d1f11,2,90,15,6,4,30,male,,,,,,1.0,learning,14.0,C,,black,,moons,,,,C,black,moons,,1.0,0.0,NA,left,830.0,7.0,1.0,0.0,,,
97,0,,html-keyboard-response,97,293427,0.0-4.15-0.15,crgktsu3p4a,2022-09-19 15:58:53.405,62b8cd151b5fd0f9be7d1f11,2,90,15,6,4,30,male,,,"<img src=""static/images/cards/stack_of_red_moons.svg"" width=""175px"" height=""250px""></img>",,,,,,,,,,,,,,,,,,,,,,,,,,,,
98,0,,html-keyboard-response,98,294513,0.0-4.15-1.15,crgktsu3p4a,2022-09-19 15:58:53.405,62b8cd151b5fd0f9be7d1f11,2,90,15,6,4,30,male,573.0,,"
  <table>
  <tr height=300>
    <td width=300 height=300><img src=""static/images/cards/back_of_red_moons.svg"" width=""175px"" height=""250px""></img></td>
    <td width=300 height=300><img src=""static/images/cards/back_of_red_moons.svg"" width=""175px"" height=""250px""></img></td>
  </tr>
  <tr height=200>
    <td width=300></td>
    <td width=300><img src=""static/images/keys/m.svg"" width=""35%"" height=""75%""></img></td>
  </tr>
</table>
  ",77.0,1.0,,,,,,,,,,,,,,,,,,,,,,,,,,
99,0,,html-keyboard-response,99,296021,0.0-4.15-2.15,crgktsu3p4a,2022-09-19 15:58:53.405,62b8cd151b5fd0f9be7d1f11,2,90,15,6,4,30,male,,,"
  <table>
  <tr height=300>
    <td width=300 height=300><img src=""static/images/cards/back_of_red_moons.svg"" width=""175px"" height=""250px""></img></td>
    <td width=300 height=300><img src=""static/images/cards/3_of_red_moons.svg"" width=""175px"" height=""250px""></img></td>
  </tr>
  <tr height=200>
    <td width=300></td>
    <td width=300><img src=""static/images/keys/m.svg"" width=""35%"" height=""75%""></img></td>
  </tr>
</table>
  ",,,,,,,,,,,,,,,,,,,,,,,,,,,,
100,0,,html-keyboard-response,100,297537,0.0-4.15-3.15,crgktsu3p4a,2022-09-19 15:58:53.405,62b8cd151b5fd0f9be7d1f11,2,90,15,6,4,30,male,,,"<p style=""font-size:50px"">You win!
+10 points this round!</p>",,,,,,,,,,,,,,,,,,,,,,,,,,,,
101,0,,html-keyboard-response,101,298061,0.0-4.15-4.15,crgktsu3p4a,2022-09-19 15:58:53.405,62b8cd151b5fd0f9be7d1f11,2,90,15,6,4,30,male,,,,,,1.0,learning,15.0,D,,red,,moons,,,,D,red,moons,,0.0,0.0,0,right,573.0,3.0,0.0,1.0,,,
102,0,,html-keyboard-response,102,299572,0.0-4.16-0.16,crgktsu3p4a,2022-09-19 15:58:53.405,62b8cd151b5fd0f9be7d1f11,2,90,15,6,4,30,male,,,"<img src=""static/images/cards/stack_of_red_bolts.svg"" width=""175px"" height=""250px""></img>",,,,,,,,,,,,,,,,,,,,,,,,,,,,
103,0,,html-keyboard-response,103,300857,0.0-4.16-1.16,crgktsu3p4a,2022-09-19 15:58:53.405,62b8cd151b5fd0f9be7d1f11,2,90,15,6,4,30,male,769.0,,"
  <table>
  <tr height=300>
    <td width=300 height=300><img src=""static/images/cards/back_of_red_bolts.svg"" width=""175px"" height=""250px""></img></td>
    <td width=300 height=300><img src=""static/images/cards/back_of_red_bolts.svg"" width=""175px"" height=""250px""></img></td>
  </tr>
  <tr height=200>
    <td width=300><img src=""static/images/keys/z.svg"" width=""35%"" height=""75%""></img></td>
    <td width=300><img src=""static/images/keys/m.svg"" width=""35%"" height=""75%""></img></td>
  </tr>
</table>
  ",90.0,1.0,,,,,,,,,,,,,,,,,,,,,,,,,,
104,0,,html-keyboard-response,104,302358,0.0-4.16-2.16,crgktsu3p4a,2022-09-19 15:58:53.405,62b8cd151b5fd0f9be7d1f11,2,90,15,6,4,30,male,,,"
  <table>
  <tr height=300>
    <td width=300 height=300><img src=""static/images/cards/6_of_red_bolts.svg"" width=""175px"" height=""250px""></img></td>
    <td width=300 height=300><img src=""static/images/cards/back_of_red_bolts.svg"" width=""175px"" height=""250px""></img></td>
  </tr>
  <tr height=200>
    <td width=300><img src=""static/images/keys/z.svg"" width=""35%"" height=""75%""></img></td>
    <td width=300><img src=""static/images/keys/m.svg"" width=""35%"" height=""75%""></img></td>
  </tr>
</table>
  ",,,,,,,,,,,,,,,,,,,,,,,,,,,,
105,0,,html-keyboard-response,105,303874,0.0-4.16-3.16,crgktsu3p4a,2022-09-19 15:58:53.405,62b8cd151b5fd0f9be7d1f11,2,90,15,6,4,30,male,,,"<p style=""font-size:50px"">You win!
+10 points this round!</p>",,,,,,,,,,,,,,,,,,,,,,,,,,,,
106,0,,html-keyboard-response,106,304402,0.0-4.16-4.16,crgktsu3p4a,2022-09-19 15:58:53.405,62b8cd151b5fd0f9be7d1f11,2,90,15,6,4,30,male,,,,,,1.0,learning,16.0,Xc,,red,,bolts,,,,Xc,red,bolts,,1.0,0.0,NA,left,769.0,6.0,1.0,1.0,,,
107,0,,html-keyboard-response,107,305903,0.0-4.17-0.17,crgktsu3p4a,2022-09-19 15:58:53.405,62b8cd151b5fd0f9be7d1f11,2,90,15,6,4,30,male,,,"<img src=""static/images/cards/stack_of_black_bolts.svg"" width=""175px"" height=""250px""></img>",,,,,,,,,,,,,,,,,,,,,,,,,,,,
108,0,,html-keyboard-response,108,306963,0.0-4.17-1.17,crgktsu3p4a,2022-09-19 15:58:53.405,62b8cd151b5fd0f9be7d1f11,2,90,15,6,4,30,male,548.0,,"
  <table>
  <tr height=300>
    <td width=300 height=300><img src=""static/images/cards/back_of_black_bolts.svg"" width=""175px"" height=""250px""></img></td>
    <td width=300 height=300><img src=""static/images/cards/back_of_black_bolts.svg"" width=""175px"" height=""250px""></img></td>
  </tr>
  <tr height=200>
    <td width=300><img src=""static/images/keys/z.svg"" width=""35%"" height=""75%""></img></td>
    <td width=300></td>
  </tr>
</table>
  ",90.0,1.0,,,,,,,,,,,,,,,,,,,,,,,,,,
109,0,,html-keyboard-response,109,308475,0.0-4.17-2.17,crgktsu3p4a,2022-09-19 15:58:53.405,62b8cd151b5fd0f9be7d1f11,2,90,15,6,4,30,male,,,"
  <table>
  <tr height=300>
    <td width=300 height=300><img src=""static/images/cards/2_of_black_bolts.svg"" width=""175px"" height=""250px""></img></td>
    <td width=300 height=300><img src=""static/images/cards/back_of_black_bolts.svg"" width=""175px"" height=""250px""></img></td>
  </tr>
  <tr height=200>
    <td width=300><img src=""static/images/keys/z.svg"" width=""35%"" height=""75%""></img></td>
    <td width=300></td>
  </tr>
</table>
  ",,,,,,,,,,,,,,,,,,,,,,,,,,,,
110,0,,html-keyboard-response,110,309990,0.0-4.17-3.17,crgktsu3p4a,2022-09-19 15:58:53.405,62b8cd151b5fd0f9be7d1f11,2,90,15,6,4,30,male,,,"<p style=""font-size:50px"">You win!
+10 points this round!</p>",,,,,,,,,,,,,,,,,,,,,,,,,,,,
111,0,,html-keyboard-response,111,310516,0.0-4.17-4.17,crgktsu3p4a,2022-09-19 15:58:53.405,62b8cd151b5fd0f9be7d1f11,2,90,15,6,4,30,male,,,,,,1.0,learning,17.0,Xnc,,black,,bolts,,,,Xnc,black,bolts,,0.0,0.0,1,left,548.0,2.0,0.0,1.0,,,
112,0,,html-keyboard-response,112,312029,0.0-4.18-0.18,crgktsu3p4a,2022-09-19 15:58:53.405,62b8cd151b5fd0f9be7d1f11,2,90,15,6,4,30,male,,,"<img src=""static/images/cards/stack_of_black_stars.svg"" width=""175px"" height=""250px""></img>",,,,,,,,,,,,,,,,,,,,,,,,,,,,
113,0,,html-keyboard-response,113,313208,0.0-4.18-1.18,crgktsu3p4a,2022-09-19 15:58:53.405,62b8cd151b5fd0f9be7d1f11,2,90,15,6,4,30,male,670.0,,"
  <table>
  <tr height=300>
    <td width=300 height=300><img src=""static/images/cards/back_of_black_stars.svg"" width=""175px"" height=""250px""></img></td>
    <td width=300 height=300><img src=""static/images/cards/back_of_black_stars.svg"" width=""175px"" height=""250px""></img></td>
  </tr>
  <tr height=200>
    <td width=300><img src=""static/images/keys/z.svg"" width=""35%"" height=""75%""></img></td>
    <td width=300><img src=""static/images/keys/m.svg"" width=""35%"" height=""75%""></img></td>
  </tr>
</table>
  ",90.0,1.0,,,,,,,,,,,,,,,,,,,,,,,,,,
114,0,,html-keyboard-response,114,314713,0.0-4.18-2.18,crgktsu3p4a,2022-09-19 15:58:53.405,62b8cd151b5fd0f9be7d1f11,2,90,15,6,4,30,male,,,"
  <table>
  <tr height=300>
    <td width=300 height=300><img src=""static/images/cards/8_of_black_stars.svg"" width=""175px"" height=""250px""></img></td>
    <td width=300 height=300><img src=""static/images/cards/back_of_black_stars.svg"" width=""175px"" height=""250px""></img></td>
  </tr>
  <tr height=200>
    <td width=300><img src=""static/images/keys/z.svg"" width=""35%"" height=""75%""></img></td>
    <td width=300><img src=""static/images/keys/m.svg"" width=""35%"" height=""75%""></img></td>
  </tr>
</table>
  ",,,,,,,,,,,,,,,,,,,,,,,,,,,,
115,0,,html-keyboard-response,115,316232,0.0-4.18-3.18,crgktsu3p4a,2022-09-19 15:58:53.405,62b8cd151b5fd0f9be7d1f11,2,90,15,6,4,30,male,,,"<p style=""font-size:50px"">You win!
+10 points this round!</p>",,,,,,,,,,,,,,,,,,,,,,,,,,,,
116,0,,html-keyboard-response,116,316756,0.0-4.18-4.18,crgktsu3p4a,2022-09-19 15:58:53.405,62b8cd151b5fd0f9be7d1f11,2,90,15,6,4,30,male,,,,,,1.0,learning,18.0,A,,black,,stars,,,,A,black,stars,,1.0,1.0,NA,left,670.0,8.0,1.0,1.0,,,
117,0,,html-keyboard-response,117,318270,0.0-4.19-0.19,crgktsu3p4a,2022-09-19 15:58:53.405,62b8cd151b5fd0f9be7d1f11,2,90,15,6,4,30,male,,,"<img src=""static/images/cards/stack_of_red_stars.svg"" width=""175px"" height=""250px""></img>",,,,,,,,,,,,,,,,,,,,,,,,,,,,
118,0,,html-keyboard-response,118,319268,0.0-4.19-1.19,crgktsu3p4a,2022-09-19 15:58:53.405,62b8cd151b5fd0f9be7d1f11,2,90,15,6,4,30,male,485.0,,"
  <table>
  <tr height=300>
    <td width=300 height=300><img src=""static/images/cards/back_of_red_stars.svg"" width=""175px"" height=""250px""></img></td>
    <td width=300 height=300><img src=""static/images/cards/back_of_red_stars.svg"" width=""175px"" height=""250px""></img></td>
  </tr>
  <tr height=200>
    <td width=300><img src=""static/images/keys/z.svg"" width=""35%"" height=""75%""></img></td>
    <td width=300></td>
  </tr>
</table>
  ",90.0,1.0,,,,,,,,,,,,,,,,,,,,,,,,,,
119,0,,html-keyboard-response,119,320773,0.0-4.19-2.19,crgktsu3p4a,2022-09-19 15:58:53.405,62b8cd151b5fd0f9be7d1f11,2,90,15,6,4,30,male,,,"
  <table>
  <tr height=300>
    <td width=300 height=300><img src=""static/images/cards/7_of_red_stars.svg"" width=""175px"" height=""250px""></img></td>
    <td width=300 height=300><img src=""static/images/cards/back_of_red_stars.svg"" width=""175px"" height=""250px""></img></td>
  </tr>
  <tr height=200>
    <td width=300><img src=""static/images/keys/z.svg"" width=""35%"" height=""75%""></img></td>
    <td width=300></td>
  </tr>
</table>
  ",,,,,,,,,,,,,,,,,,,,,,,,,,,,
120,0,,html-keyboard-response,120,322290,0.0-4.19-3.19,crgktsu3p4a,2022-09-19 15:58:53.405,62b8cd151b5fd0f9be7d1f11,2,90,15,6,4,30,male,,,"<p style=""font-size:50px"">You win!
+10 points this round!</p>",,,,,,,,,,,,,,,,,,,,,,,,,,,,
121,0,,html-keyboard-response,121,322815,0.0-4.19-4.19,crgktsu3p4a,2022-09-19 15:58:53.405,62b8cd151b5fd0f9be7d1f11,2,90,15,6,4,30,male,,,,,,1.0,learning,19.0,B,,red,,stars,,,,B,red,stars,,0.0,1.0,1,left,485.0,7.0,1.0,1.0,,,
122,0,,html-keyboard-response,122,324330,0.0-4.20-0.20,crgktsu3p4a,2022-09-19 15:58:53.405,62b8cd151b5fd0f9be7d1f11,2,90,15,6,4,30,male,,,"<img src=""static/images/cards/stack_of_black_moons.svg"" width=""175px"" height=""250px""></img>",,,,,,,,,,,,,,,,,,,,,,,,,,,,
123,0,,html-keyboard-response,123,325607,0.0-4.20-1.20,crgktsu3p4a,2022-09-19 15:58:53.405,62b8cd151b5fd0f9be7d1f11,2,90,15,6,4,30,male,765.0,,"
  <table>
  <tr height=300>
    <td width=300 height=300><img src=""static/images/cards/back_of_black_moons.svg"" width=""175px"" height=""250px""></img></td>
    <td width=300 height=300><img src=""static/images/cards/back_of_black_moons.svg"" width=""175px"" height=""250px""></img></td>
  </tr>
  <tr height=200>
    <td width=300><img src=""static/images/keys/z.svg"" width=""35%"" height=""75%""></img></td>
    <td width=300><img src=""static/images/keys/m.svg"" width=""35%"" height=""75%""></img></td>
  </tr>
</table>
  ",90.0,1.0,,,,,,,,,,,,,,,,,,,,,,,,,,
124,0,,html-keyboard-response,124,327113,0.0-4.20-2.20,crgktsu3p4a,2022-09-19 15:58:53.405,62b8cd151b5fd0f9be7d1f11,2,90,15,6,4,30,male,,,"
  <table>
  <tr height=300>
    <td width=300 height=300><img src=""static/images/cards/7_of_black_moons.svg"" width=""175px"" height=""250px""></img></td>
    <td width=300 height=300><img src=""static/images/cards/back_of_black_moons.svg"" width=""175px"" height=""250px""></img></td>
  </tr>
  <tr height=200>
    <td width=300><img src=""static/images/keys/z.svg"" width=""35%"" height=""75%""></img></td>
    <td width=300><img src=""static/images/keys/m.svg"" width=""35%"" height=""75%""></img></td>
  </tr>
</table>
  ",,,,,,,,,,,,,,,,,,,,,,,,,,,,
125,0,,html-keyboard-response,125,328627,0.0-4.20-3.20,crgktsu3p4a,2022-09-19 15:58:53.405,62b8cd151b5fd0f9be7d1f11,2,90,15,6,4,30,male,,,"<p style=""font-size:50px"">You win!
+10 points this round!</p>",,,,,,,,,,,,,,,,,,,,,,,,,,,,
126,0,,html-keyboard-response,126,329153,0.0-4.20-4.20,crgktsu3p4a,2022-09-19 15:58:53.405,62b8cd151b5fd0f9be7d1f11,2,90,15,6,4,30,male,,,,,,1.0,learning,20.0,C,,black,,moons,,,,C,black,moons,,1.0,0.0,NA,left,765.0,7.0,1.0,1.0,,,
127,0,,html-keyboard-response,127,330654,0.0-4.21-0.21,crgktsu3p4a,2022-09-19 15:58:53.405,62b8cd151b5fd0f9be7d1f11,2,90,15,6,4,30,male,,,"<img src=""static/images/cards/stack_of_red_moons.svg"" width=""175px"" height=""250px""></img>",,,,,,,,,,,,,,,,,,,,,,,,,,,,
128,0,,html-keyboard-response,128,331711,0.0-4.21-1.21,crgktsu3p4a,2022-09-19 15:58:53.405,62b8cd151b5fd0f9be7d1f11,2,90,15,6,4,30,male,545.0,,"
  <table>
  <tr height=300>
    <td width=300 height=300><img src=""static/images/cards/back_of_red_moons.svg"" width=""175px"" height=""250px""></img></td>
    <td width=300 height=300><img src=""static/images/cards/back_of_red_moons.svg"" width=""175px"" height=""250px""></img></td>
  </tr>
  <tr height=200>
    <td width=300><img src=""static/images/keys/z.svg"" width=""35%"" height=""75%""></img></td>
    <td width=300></td>
  </tr>
</table>
  ",90.0,1.0,,,,,,,,,,,,,,,,,,,,,,,,,,
129,0,,html-keyboard-response,129,333220,0.0-4.21-2.21,crgktsu3p4a,2022-09-19 15:58:53.405,62b8cd151b5fd0f9be7d1f11,2,90,15,6,4,30,male,,,"
  <table>
  <tr height=300>
    <td width=300 height=300><img src=""static/images/cards/1_of_red_moons.svg"" width=""175px"" height=""250px""></img></td>
    <td width=300 height=300><img src=""static/images/cards/back_of_red_moons.svg"" width=""175px"" height=""250px""></img></td>
  </tr>
  <tr height=200>
    <td width=300><img src=""static/images/keys/z.svg"" width=""35%"" height=""75%""></img></td>
    <td width=300></td>
  </tr>
</table>
  ",,,,,,,,,,,,,,,,,,,,,,,,,,,,
130,0,,html-keyboard-response,130,334735,0.0-4.21-3.21,crgktsu3p4a,2022-09-19 15:58:53.405,62b8cd151b5fd0f9be7d1f11,2,90,15,6,4,30,male,,,"<p style=""font-size:50px"">You Lose!
No points this round.</p>",,,,,,,,,,,,,,,,,,,,,,,,,,,,
131,0,,html-keyboard-response,131,335256,0.0-4.21-4.21,crgktsu3p4a,2022-09-19 15:58:53.405,62b8cd151b5fd0f9be7d1f11,2,90,15,6,4,30,male,,,,,,1.0,learning,21.0,D,,red,,moons,,,,D,red,moons,,0.0,0.0,1,left,545.0,1.0,0.0,0.0,,,
132,0,,html-keyboard-response,132,336771,0.0-4.22-0.22,crgktsu3p4a,2022-09-19 15:58:53.405,62b8cd151b5fd0f9be7d1f11,2,90,15,6,4,30,male,,,"<img src=""static/images/cards/stack_of_red_bolts.svg"" width=""175px"" height=""250px""></img>",,,,,,,,,,,,,,,,,,,,,,,,,,,,
133,0,,html-keyboard-response,133,337751,0.0-4.22-1.22,crgktsu3p4a,2022-09-19 15:58:53.405,62b8cd151b5fd0f9be7d1f11,2,90,15,6,4,30,male,469.0,,"
  <table>
  <tr height=300>
    <td width=300 height=300><img src=""static/images/cards/back_of_red_bolts.svg"" width=""175px"" height=""250px""></img></td>
    <td width=300 height=300><img src=""static/images/cards/back_of_red_bolts.svg"" width=""175px"" height=""250px""></img></td>
  </tr>
  <tr height=200>
    <td width=300><img src=""static/images/keys/z.svg"" width=""35%"" height=""75%""></img></td>
    <td width=300><img src=""static/images/keys/m.svg"" width=""35%"" height=""75%""></img></td>
  </tr>
</table>
  ",77.0,1.0,,,,,,,,,,,,,,,,,,,,,,,,,,
134,0,,html-keyboard-response,134,339259,0.0-4.22-2.22,crgktsu3p4a,2022-09-19 15:58:53.405,62b8cd151b5fd0f9be7d1f11,2,90,15,6,4,30,male,,,"
  <table>
  <tr height=300>
    <td width=300 height=300><img src=""static/images/cards/back_of_red_bolts.svg"" width=""175px"" height=""250px""></img></td>
    <td width=300 height=300><img src=""static/images/cards/3_of_red_bolts.svg"" width=""175px"" height=""250px""></img></td>
  </tr>
  <tr height=200>
    <td width=300><img src=""static/images/keys/z.svg"" width=""35%"" height=""75%""></img></td>
    <td width=300><img src=""static/images/keys/m.svg"" width=""35%"" height=""75%""></img></td>
  </tr>
</table>
  ",,,,,,,,,,,,,,,,,,,,,,,,,,,,
135,0,,html-keyboard-response,135,340774,0.0-4.22-3.22,crgktsu3p4a,2022-09-19 15:58:53.405,62b8cd151b5fd0f9be7d1f11,2,90,15,6,4,30,male,,,"<p style=""font-size:50px"">You win!
+10 points this round!</p>",,,,,,,,,,,,,,,,,,,,,,,,,,,,
136,0,,html-keyboard-response,136,341301,0.0-4.22-4.22,crgktsu3p4a,2022-09-19 15:58:53.405,62b8cd151b5fd0f9be7d1f11,2,90,15,6,4,30,male,,,,,,1.0,learning,22.0,Xc,,red,,bolts,,,,Xc,red,bolts,,1.0,0.0,NA,right,469.0,3.0,0.0,1.0,,,
137,0,,html-keyboard-response,137,342812,0.0-4.23-0.23,crgktsu3p4a,2022-09-19 15:58:53.405,62b8cd151b5fd0f9be7d1f11,2,90,15,6,4,30,male,,,"<img src=""static/images/cards/stack_of_black_bolts.svg"" width=""175px"" height=""250px""></img>",,,,,,,,,,,,,,,,,,,,,,,,,,,,
138,0,,html-keyboard-response,138,343822,0.0-4.23-1.23,crgktsu3p4a,2022-09-19 15:58:53.405,62b8cd151b5fd0f9be7d1f11,2,90,15,6,4,30,male,499.0,,"
  <table>
  <tr height=300>
    <td width=300 height=300><img src=""static/images/cards/back_of_black_bolts.svg"" width=""175px"" height=""250px""></img></td>
    <td width=300 height=300><img src=""static/images/cards/back_of_black_bolts.svg"" width=""175px"" height=""250px""></img></td>
  </tr>
  <tr height=200>
    <td width=300><img src=""static/images/keys/z.svg"" width=""35%"" height=""75%""></img></td>
    <td width=300></td>
  </tr>
</table>
  ",90.0,1.0,,,,,,,,,,,,,,,,,,,,,,,,,,
139,0,,html-keyboard-response,139,345332,0.0-4.23-2.23,crgktsu3p4a,2022-09-19 15:58:53.405,62b8cd151b5fd0f9be7d1f11,2,90,15,6,4,30,male,,,"
  <table>
  <tr height=300>
    <td width=300 height=300><img src=""static/images/cards/4_of_black_bolts.svg"" width=""175px"" height=""250px""></img></td>
    <td width=300 height=300><img src=""static/images/cards/back_of_black_bolts.svg"" width=""175px"" height=""250px""></img></td>
  </tr>
  <tr height=200>
    <td width=300><img src=""static/images/keys/z.svg"" width=""35%"" height=""75%""></img></td>
    <td width=300></td>
  </tr>
</table>
  ",,,,,,,,,,,,,,,,,,,,,,,,,,,,
140,0,,html-keyboard-response,140,346846,0.0-4.23-3.23,crgktsu3p4a,2022-09-19 15:58:53.405,62b8cd151b5fd0f9be7d1f11,2,90,15,6,4,30,male,,,"<p style=""font-size:50px"">You win!
+10 points this round!</p>",,,,,,,,,,,,,,,,,,,,,,,,,,,,
141,0,,html-keyboard-response,141,347374,0.0-4.23-4.23,crgktsu3p4a,2022-09-19 15:58:53.405,62b8cd151b5fd0f9be7d1f11,2,90,15,6,4,30,male,,,,,,1.0,learning,23.0,Xnc,,black,,bolts,,,,Xnc,black,bolts,,0.0,0.0,1,left,499.0,4.0,0.0,1.0,,,
142,0,,call-function,142,347376,0.0-5.0,crgktsu3p4a,2022-09-19 15:58:53.405,62b8cd151b5fd0f9be7d1f11,2,90,15,6,4,30,male,,,,,,,,,,,,,,,,,,,,,,,,,,,,,,,
143,0,,image-keyboard-response,143,354302,0.0-6.0-0.0,crgktsu3p4a,2022-09-19 15:58:53.405,62b8cd151b5fd0f9be7d1f11,2,90,15,6,4,30,male,6925.0,,static/images/instructions_CB_2/Slide20.png,39.0,,,,,,,,,,,,,,,,,,,,,,,,,,,
144,0,,image-keyboard-response,144,364693,0.0-6.1-0.1,crgktsu3p4a,2022-09-19 15:58:53.405,62b8cd151b5fd0f9be7d1f11,2,90,15,6,4,30,male,10392.0,,static/images/instructions_CB_2/Slide21.png,39.0,,,,,,,,,,,,,,,,,,,,,,,,,,,
145,0,,image-keyboard-response,145,373006,0.0-6.2-0.2,crgktsu3p4a,2022-09-19 15:58:53.405,62b8cd151b5fd0f9be7d1f11,2,90,15,6,4,30,male,8311.0,,static/images/instructions_CB_2/Slide22.png,39.0,,,,,,,,,,,,,,,,,,,,,,,,,,,
146,0,,image-keyboard-response,146,390940,0.0-6.3-0.3,crgktsu3p4a,2022-09-19 15:58:53.405,62b8cd151b5fd0f9be7d1f11,2,90,15,6,4,30,male,17935.0,,static/images/instructions_CB_2/Slide23.png,39.0,,,,,,,,,,,,,,,,,,,,,,,,,,,
147,0,,image-keyboard-response,147,395328,0.0-6.4-0.4,crgktsu3p4a,2022-09-19 15:58:53.405,62b8cd151b5fd0f9be7d1f11,2,90,15,6,4,30,male,4387.0,,static/images/instructions_CB_2/Slide24.png,39.0,,,,,,,,,,,,,,,,,,,,,,,,,,,
148,0,,html-keyboard-response,148,396936,0.0-7.0-0.0,crgktsu3p4a,2022-09-19 15:58:53.405,62b8cd151b5fd0f9be7d1f11,2,90,15,6,4,30,male,1606.0,,"
  <table>
  <tr height=300>
    <td width=300 height=300><img src=""static/images/cards/stack_of_black_stars.svg"" width=""175px"" height=""250px""></img></td>
    <td width=300 height=300><img src=""static/images/cards/stack_of_red_stars.svg"" width=""175px"" height=""250px""></img></td>
  </tr>
  <tr height=200>
    <td width=300><img src=""static/images/keys/w.svg"" width=""35%"" height=""75%""></img></td>
    <td width=300><img src=""static/images/keys/o.svg"" width=""35%"" height=""75%""></img></td>
  </tr>
</table>
  ",79.0,1.0,,,,,,,,,,,,,,,,,,,,,,,,,,
149,0,,html-keyboard-response,149,398193,0.0-7.0-1.0,crgktsu3p4a,2022-09-19 15:58:53.405,62b8cd151b5fd0f9be7d1f11,2,90,15,6,4,30,male,743.0,,"
  <table>
  <tr height=300>
    <td width=300 height=300><img src=""static/images/cards/back_of_red_stars.svg"" width=""175px"" height=""250px""></img></td>
    <td width=300 height=300><img src=""static/images/cards/back_of_red_stars.svg"" width=""175px"" height=""250px""></img></td>
  </tr>
  <tr height=200>
    <td width=300><img src=""static/images/keys/z.svg"" width=""35%"" height=""75%""></img></td>
    <td width=300></td>
  </tr>
</table>
  ",90.0,1.0,,,,,,,,,,,,,,,,,,,,,,,,,,
150,0,,html-keyboard-response,150,399695,0.0-7.0-2.0,crgktsu3p4a,2022-09-19 15:58:53.405,62b8cd151b5fd0f9be7d1f11,2,90,15,6,4,30,male,,,"
  <table>
  <tr height=300>
    <td width=300 height=300><img src=""static/images/cards/8_of_red_stars.svg"" width=""175px"" height=""250px""></img></td>
    <td width=300 height=300><img src=""static/images/cards/back_of_red_stars.svg"" width=""175px"" height=""250px""></img></td>
  </tr>
  <tr height=200>
    <td width=300><img src=""static/images/keys/z.svg"" width=""35%"" height=""75%""></img></td>
    <td width=300></td>
  </tr>
</table>
  ",,,,,,,,,,,,,,,,,,,,,,,,,,,,
151,0,,html-keyboard-response,151,401212,0.0-7.0-3.0,crgktsu3p4a,2022-09-19 15:58:53.405,62b8cd151b5fd0f9be7d1f11,2,90,15,6,4,30,male,,,"<p style=""font-size:50px"">You win!
+10 points this round!</p>",,,,,,,,,,,,,,,,,,,,,,,,,,,,
152,0,,html-keyboard-response,152,401737,0.0-7.0-4.0,crgktsu3p4a,2022-09-19 15:58:53.405,62b8cd151b5fd0f9be7d1f11,2,90,15,6,4,30,male,,,,,,1.0,choice,0.0,A,B,black,red,stars,stars,A,B,B,red,stars,1606.0,0.0,1.0,1,left,743.0,8.0,1.0,1.0,,,
153,0,,html-keyboard-response,153,403000,0.0-7.1-0.1,crgktsu3p4a,2022-09-19 15:58:53.405,62b8cd151b5fd0f9be7d1f11,2,90,15,6,4,30,male,1262.0,,"
  <table>
  <tr height=300>
    <td width=300 height=300><img src=""static/images/cards/stack_of_red_stars.svg"" width=""175px"" height=""250px""></img></td>
    <td width=300 height=300><img src=""static/images/cards/stack_of_black_stars.svg"" width=""175px"" height=""250px""></img></td>
  </tr>
  <tr height=200>
    <td width=300><img src=""static/images/keys/w.svg"" width=""35%"" height=""75%""></img></td>
    <td width=300><img src=""static/images/keys/o.svg"" width=""35%"" height=""75%""></img></td>
  </tr>
</table>
  ",87.0,1.0,,,,,,,,,,,,,,,,,,,,,,,,,,
154,0,,html-keyboard-response,154,404031,0.0-7.1-1.1,crgktsu3p4a,2022-09-19 15:58:53.405,62b8cd151b5fd0f9be7d1f11,2,90,15,6,4,30,male,530.0,,"
  <table>
  <tr height=300>
    <td width=300 height=300><img src=""static/images/cards/back_of_red_stars.svg"" width=""175px"" height=""250px""></img></td>
    <td width=300 height=300><img src=""static/images/cards/back_of_red_stars.svg"" width=""175px"" height=""250px""></img></td>
  </tr>
  <tr height=200>
    <td width=300><img src=""static/images/keys/z.svg"" width=""35%"" height=""75%""></img></td>
    <td width=300></td>
  </tr>
</table>
  ",90.0,1.0,,,,,,,,,,,,,,,,,,,,,,,,,,
155,0,,html-keyboard-response,155,405546,0.0-7.1-2.1,crgktsu3p4a,2022-09-19 15:58:53.405,62b8cd151b5fd0f9be7d1f11,2,90,15,6,4,30,male,,,"
  <table>
  <tr height=300>
    <td width=300 height=300><img src=""static/images/cards/1_of_red_stars.svg"" width=""175px"" height=""250px""></img></td>
    <td width=300 height=300><img src=""static/images/cards/back_of_red_stars.svg"" width=""175px"" height=""250px""></img></td>
  </tr>
  <tr height=200>
    <td width=300><img src=""static/images/keys/z.svg"" width=""35%"" height=""75%""></img></td>
    <td width=300></td>
  </tr>
</table>
  ",,,,,,,,,,,,,,,,,,,,,,,,,,,,
156,0,,html-keyboard-response,156,407065,0.0-7.1-3.1,crgktsu3p4a,2022-09-19 15:58:53.405,62b8cd151b5fd0f9be7d1f11,2,90,15,6,4,30,male,,,"<p style=""font-size:50px"">You Lose!
No points this round.</p>",,,,,,,,,,,,,,,,,,,,,,,,,,,,
157,0,,html-keyboard-response,157,407590,0.0-7.1-4.1,crgktsu3p4a,2022-09-19 15:58:53.405,62b8cd151b5fd0f9be7d1f11,2,90,15,6,4,30,male,,,,,,1.0,choice,1.0,A,B,red,black,stars,stars,B,A,B,red,stars,1262.0,0.0,1.0,1,left,530.0,1.0,0.0,0.0,,,
158,0,,html-keyboard-response,158,408811,0.0-7.2-0.2,crgktsu3p4a,2022-09-19 15:58:53.405,62b8cd151b5fd0f9be7d1f11,2,90,15,6,4,30,male,1221.0,,"
  <table>
  <tr height=300>
    <td width=300 height=300><img src=""static/images/cards/stack_of_black_moons.svg"" width=""175px"" height=""250px""></img></td>
    <td width=300 height=300><img src=""static/images/cards/stack_of_red_stars.svg"" width=""175px"" height=""250px""></img></td>
  </tr>
  <tr height=200>
    <td width=300><img src=""static/images/keys/w.svg"" width=""35%"" height=""75%""></img></td>
    <td width=300><img src=""static/images/keys/o.svg"" width=""35%"" height=""75%""></img></td>
  </tr>
</table>
  ",79.0,1.0,,,,,,,,,,,,,,,,,,,,,,,,,,
159,0,,html-keyboard-response,159,409819,0.0-7.2-1.2,crgktsu3p4a,2022-09-19 15:58:53.405,62b8cd151b5fd0f9be7d1f11,2,90,15,6,4,30,male,495.0,,"
  <table>
  <tr height=300>
    <td width=300 height=300><img src=""static/images/cards/back_of_red_stars.svg"" width=""175px"" height=""250px""></img></td>
    <td width=300 height=300><img src=""static/images/cards/back_of_red_stars.svg"" width=""175px"" height=""250px""></img></td>
  </tr>
  <tr height=200>
    <td width=300></td>
    <td width=300><img src=""static/images/keys/m.svg"" width=""35%"" height=""75%""></img></td>
  </tr>
</table>
  ",77.0,1.0,,,,,,,,,,,,,,,,,,,,,,,,,,
160,0,,html-keyboard-response,160,411333,0.0-7.2-2.2,crgktsu3p4a,2022-09-19 15:58:53.405,62b8cd151b5fd0f9be7d1f11,2,90,15,6,4,30,male,,,"
  <table>
  <tr height=300>
    <td width=300 height=300><img src=""static/images/cards/back_of_red_stars.svg"" width=""175px"" height=""250px""></img></td>
    <td width=300 height=300><img src=""static/images/cards/7_of_red_stars.svg"" width=""175px"" height=""250px""></img></td>
  </tr>
  <tr height=200>
    <td width=300></td>
    <td width=300><img src=""static/images/keys/m.svg"" width=""35%"" height=""75%""></img></td>
  </tr>
</table>
  ",,,,,,,,,,,,,,,,,,,,,,,,,,,,
161,0,,html-keyboard-response,161,412844,0.0-7.2-3.2,crgktsu3p4a,2022-09-19 15:58:53.405,62b8cd151b5fd0f9be7d1f11,2,90,15,6,4,30,male,,,"<p style=""font-size:50px"">You win!
+10 points this round!</p>",,,,,,,,,,,,,,,,,,,,,,,,,,,,
162,0,,html-keyboard-response,162,413370,0.0-7.2-4.2,crgktsu3p4a,2022-09-19 15:58:53.405,62b8cd151b5fd0f9be7d1f11,2,90,15,6,4,30,male,,,,,,1.0,choice,2.0,B,C,black,red,moons,stars,C,B,B,red,stars,1221.0,0.0,1.0,0,right,495.0,7.0,1.0,1.0,,,
163,0,,html-keyboard-response,163,415035,0.0-7.3-0.3,crgktsu3p4a,2022-09-19 15:58:53.405,62b8cd151b5fd0f9be7d1f11,2,90,15,6,4,30,male,1664.0,,"
  <table>
  <tr height=300>
    <td width=300 height=300><img src=""static/images/cards/stack_of_black_moons.svg"" width=""175px"" height=""250px""></img></td>
    <td width=300 height=300><img src=""static/images/cards/stack_of_red_moons.svg"" width=""175px"" height=""250px""></img></td>
  </tr>
  <tr height=200>
    <td width=300><img src=""static/images/keys/w.svg"" width=""35%"" height=""75%""></img></td>
    <td width=300><img src=""static/images/keys/o.svg"" width=""35%"" height=""75%""></img></td>
  </tr>
</table>
  ",79.0,1.0,,,,,,,,,,,,,,,,,,,,,,,,,,
164,0,,html-keyboard-response,164,416360,0.0-7.3-1.3,crgktsu3p4a,2022-09-19 15:58:53.405,62b8cd151b5fd0f9be7d1f11,2,90,15,6,4,30,male,823.0,,"
  <table>
  <tr height=300>
    <td width=300 height=300><img src=""static/images/cards/back_of_red_moons.svg"" width=""175px"" height=""250px""></img></td>
    <td width=300 height=300><img src=""static/images/cards/back_of_red_moons.svg"" width=""175px"" height=""250px""></img></td>
  </tr>
  <tr height=200>
    <td width=300></td>
    <td width=300><img src=""static/images/keys/m.svg"" width=""35%"" height=""75%""></img></td>
  </tr>
</table>
  ",77.0,1.0,,,,,,,,,,,,,,,,,,,,,,,,,,
165,0,,html-keyboard-response,165,417868,0.0-7.3-2.3,crgktsu3p4a,2022-09-19 15:58:53.405,62b8cd151b5fd0f9be7d1f11,2,90,15,6,4,30,male,,,"
  <table>
  <tr height=300>
    <td width=300 height=300><img src=""static/images/cards/back_of_red_moons.svg"" width=""175px"" height=""250px""></img></td>
    <td width=300 height=300><img src=""static/images/cards/3_of_red_moons.svg"" width=""175px"" height=""250px""></img></td>
  </tr>
  <tr height=200>
    <td width=300></td>
    <td width=300><img src=""static/images/keys/m.svg"" width=""35%"" height=""75%""></img></td>
  </tr>
</table>
  ",,,,,,,,,,,,,,,,,,,,,,,,,,,,
166,0,,html-keyboard-response,166,419393,0.0-7.3-3.3,crgktsu3p4a,2022-09-19 15:58:53.405,62b8cd151b5fd0f9be7d1f11,2,90,15,6,4,30,male,,,"<p style=""font-size:50px"">You win!
+10 points this round!</p>",,,,,,,,,,,,,,,,,,,,,,,,,,,,
167,0,,html-keyboard-response,167,419919,0.0-7.3-4.3,crgktsu3p4a,2022-09-19 15:58:53.405,62b8cd151b5fd0f9be7d1f11,2,90,15,6,4,30,male,,,,,,1.0,choice,3.0,C,D,black,red,moons,moons,C,D,D,red,moons,1664.0,0.0,0.0,0,right,823.0,3.0,0.0,1.0,,,
168,0,,html-keyboard-response,168,421352,0.0-7.4-0.4,crgktsu3p4a,2022-09-19 15:58:53.405,62b8cd151b5fd0f9be7d1f11,2,90,15,6,4,30,male,1431.0,,"
  <table>
  <tr height=300>
    <td width=300 height=300><img src=""static/images/cards/stack_of_red_moons.svg"" width=""175px"" height=""250px""></img></td>
    <td width=300 height=300><img src=""static/images/cards/stack_of_black_stars.svg"" width=""175px"" height=""250px""></img></td>
  </tr>
  <tr height=200>
    <td width=300><img src=""static/images/keys/w.svg"" width=""35%"" height=""75%""></img></td>
    <td width=300><img src=""static/images/keys/o.svg"" width=""35%"" height=""75%""></img></td>
  </tr>
</table>
  ",79.0,1.0,,,,,,,,,,,,,,,,,,,,,,,,,,
169,0,,html-keyboard-response,169,422623,0.0-7.4-1.4,crgktsu3p4a,2022-09-19 15:58:53.405,62b8cd151b5fd0f9be7d1f11,2,90,15,6,4,30,male,757.0,,"
  <table>
  <tr height=300>
    <td width=300 height=300><img src=""static/images/cards/back_of_black_stars.svg"" width=""175px"" height=""250px""></img></td>
    <td width=300 height=300><img src=""static/images/cards/back_of_black_stars.svg"" width=""175px"" height=""250px""></img></td>
  </tr>
  <tr height=200>
    <td width=300><img src=""static/images/keys/z.svg"" width=""35%"" height=""75%""></img></td>
    <td width=300><img src=""static/images/keys/m.svg"" width=""35%"" height=""75%""></img></td>
  </tr>
</table>
  ",90.0,1.0,,,,,,,,,,,,,,,,,,,,,,,,,,
170,0,,html-keyboard-response,170,424136,0.0-7.4-2.4,crgktsu3p4a,2022-09-19 15:58:53.405,62b8cd151b5fd0f9be7d1f11,2,90,15,6,4,30,male,,,"
  <table>
  <tr height=300>
    <td width=300 height=300><img src=""static/images/cards/8_of_black_stars.svg"" width=""175px"" height=""250px""></img></td>
    <td width=300 height=300><img src=""static/images/cards/back_of_black_stars.svg"" width=""175px"" height=""250px""></img></td>
  </tr>
  <tr height=200>
    <td width=300><img src=""static/images/keys/z.svg"" width=""35%"" height=""75%""></img></td>
    <td width=300><img src=""static/images/keys/m.svg"" width=""35%"" height=""75%""></img></td>
  </tr>
</table>
  ",,,,,,,,,,,,,,,,,,,,,,,,,,,,
171,0,,html-keyboard-response,171,425653,0.0-7.4-3.4,crgktsu3p4a,2022-09-19 15:58:53.405,62b8cd151b5fd0f9be7d1f11,2,90,15,6,4,30,male,,,"<p style=""font-size:50px"">You win!
+10 points this round!</p>",,,,,,,,,,,,,,,,,,,,,,,,,,,,
172,0,,html-keyboard-response,172,426176,0.0-7.4-4.4,crgktsu3p4a,2022-09-19 15:58:53.405,62b8cd151b5fd0f9be7d1f11,2,90,15,6,4,30,male,,,,,,1.0,choice,4.0,A,D,red,black,moons,stars,D,A,A,black,stars,1431.0,1.0,1.0,NA,left,757.0,8.0,1.0,1.0,,,
173,0,,html-keyboard-response,173,427450,0.0-7.5-0.5,crgktsu3p4a,2022-09-19 15:58:53.405,62b8cd151b5fd0f9be7d1f11,2,90,15,6,4,30,male,1273.0,,"
  <table>
  <tr height=300>
    <td width=300 height=300><img src=""static/images/cards/stack_of_red_stars.svg"" width=""175px"" height=""250px""></img></td>
    <td width=300 height=300><img src=""static/images/cards/stack_of_red_moons.svg"" width=""175px"" height=""250px""></img></td>
  </tr>
  <tr height=200>
    <td width=300><img src=""static/images/keys/w.svg"" width=""35%"" height=""75%""></img></td>
    <td width=300><img src=""static/images/keys/o.svg"" width=""35%"" height=""75%""></img></td>
  </tr>
</table>
  ",87.0,1.0,,,,,,,,,,,,,,,,,,,,,,,,,,
174,0,,html-keyboard-response,174,428542,0.0-7.5-1.5,crgktsu3p4a,2022-09-19 15:58:53.405,62b8cd151b5fd0f9be7d1f11,2,90,15,6,4,30,male,589.0,,"
  <table>
  <tr height=300>
    <td width=300 height=300><img src=""static/images/cards/back_of_red_stars.svg"" width=""175px"" height=""250px""></img></td>
    <td width=300 height=300><img src=""static/images/cards/back_of_red_stars.svg"" width=""175px"" height=""250px""></img></td>
  </tr>
  <tr height=200>
    <td width=300><img src=""static/images/keys/z.svg"" width=""35%"" height=""75%""></img></td>
    <td width=300></td>
  </tr>
</table>
  ",90.0,1.0,,,,,,,,,,,,,,,,,,,,,,,,,,
175,0,,html-keyboard-response,175,430055,0.0-7.5-2.5,crgktsu3p4a,2022-09-19 15:58:53.405,62b8cd151b5fd0f9be7d1f11,2,90,15,6,4,30,male,,,"
  <table>
  <tr height=300>
    <td width=300 height=300><img src=""static/images/cards/4_of_red_stars.svg"" width=""175px"" height=""250px""></img></td>
    <td width=300 height=300><img src=""static/images/cards/back_of_red_stars.svg"" width=""175px"" height=""250px""></img></td>
  </tr>
  <tr height=200>
    <td width=300><img src=""static/images/keys/z.svg"" width=""35%"" height=""75%""></img></td>
    <td width=300></td>
  </tr>
</table>
  ",,,,,,,,,,,,,,,,,,,,,,,,,,,,
176,0,,html-keyboard-response,176,431567,0.0-7.5-3.5,crgktsu3p4a,2022-09-19 15:58:53.405,62b8cd151b5fd0f9be7d1f11,2,90,15,6,4,30,male,,,"<p style=""font-size:50px"">You Lose!
No points this round.</p>",,,,,,,,,,,,,,,,,,,,,,,,,,,,
177,0,,html-keyboard-response,177,432095,0.0-7.5-4.5,crgktsu3p4a,2022-09-19 15:58:53.405,62b8cd151b5fd0f9be7d1f11,2,90,15,6,4,30,male,,,,,,1.0,choice,5.0,B,D,red,red,stars,moons,B,D,B,red,stars,1273.0,0.0,1.0,1,left,589.0,4.0,0.0,0.0,,,
178,0,,html-keyboard-response,178,433006,0.0-7.6-0.6,crgktsu3p4a,2022-09-19 15:58:53.405,62b8cd151b5fd0f9be7d1f11,2,90,15,6,4,30,male,910.0,,"
  <table>
  <tr height=300>
    <td width=300 height=300><img src=""static/images/cards/stack_of_red_moons.svg"" width=""175px"" height=""250px""></img></td>
    <td width=300 height=300><img src=""static/images/cards/stack_of_red_stars.svg"" width=""175px"" height=""250px""></img></td>
  </tr>
  <tr height=200>
    <td width=300><img src=""static/images/keys/w.svg"" width=""35%"" height=""75%""></img></td>
    <td width=300><img src=""static/images/keys/o.svg"" width=""35%"" height=""75%""></img></td>
  </tr>
</table>
  ",79.0,1.0,,,,,,,,,,,,,,,,,,,,,,,,,,
179,0,,html-keyboard-response,179,434323,0.0-7.6-1.6,crgktsu3p4a,2022-09-19 15:58:53.405,62b8cd151b5fd0f9be7d1f11,2,90,15,6,4,30,male,801.0,,"
  <table>
  <tr height=300>
    <td width=300 height=300><img src=""static/images/cards/back_of_red_stars.svg"" width=""175px"" height=""250px""></img></td>
    <td width=300 height=300><img src=""static/images/cards/back_of_red_stars.svg"" width=""175px"" height=""250px""></img></td>
  </tr>
  <tr height=200>
    <td width=300></td>
    <td width=300><img src=""static/images/keys/m.svg"" width=""35%"" height=""75%""></img></td>
  </tr>
</table>
  ",77.0,2.0,,,,,,,,,,,,,,,,,,,,,,,,,,
180,0,,html-keyboard-response,180,435839,0.0-7.6-2.6,crgktsu3p4a,2022-09-19 15:58:53.405,62b8cd151b5fd0f9be7d1f11,2,90,15,6,4,30,male,,,"
  <table>
  <tr height=300>
    <td width=300 height=300><img src=""static/images/cards/back_of_red_stars.svg"" width=""175px"" height=""250px""></img></td>
    <td width=300 height=300><img src=""static/images/cards/7_of_red_stars.svg"" width=""175px"" height=""250px""></img></td>
  </tr>
  <tr height=200>
    <td width=300></td>
    <td width=300><img src=""static/images/keys/m.svg"" width=""35%"" height=""75%""></img></td>
  </tr>
</table>
  ",,,,,,,,,,,,,,,,,,,,,,,,,,,,
181,0,,html-keyboard-response,181,437355,0.0-7.6-3.6,crgktsu3p4a,2022-09-19 15:58:53.405,62b8cd151b5fd0f9be7d1f11,2,90,15,6,4,30,male,,,"<p style=""font-size:50px"">You win!
+10 points this round!</p>",,,,,,,,,,,,,,,,,,,,,,,,,,,,
182,0,,html-keyboard-response,182,437884,0.0-7.6-4.6,crgktsu3p4a,2022-09-19 15:58:53.405,62b8cd151b5fd0f9be7d1f11,2,90,15,6,4,30,male,,,,,,1.0,choice,6.0,B,D,red,red,moons,stars,D,B,B,red,stars,910.0,0.0,1.0,0,right,801.0,7.0,1.0,1.0,,,
183,0,,html-keyboard-response,183,439928,0.0-7.7-0.7,crgktsu3p4a,2022-09-19 15:58:53.405,62b8cd151b5fd0f9be7d1f11,2,90,15,6,4,30,male,2043.0,,"
  <table>
  <tr height=300>
    <td width=300 height=300><img src=""static/images/cards/stack_of_black_moons.svg"" width=""175px"" height=""250px""></img></td>
    <td width=300 height=300><img src=""static/images/cards/stack_of_red_moons.svg"" width=""175px"" height=""250px""></img></td>
  </tr>
  <tr height=200>
    <td width=300><img src=""static/images/keys/w.svg"" width=""35%"" height=""75%""></img></td>
    <td width=300><img src=""static/images/keys/o.svg"" width=""35%"" height=""75%""></img></td>
  </tr>
</table>
  ",87.0,1.0,,,,,,,,,,,,,,,,,,,,,,,,,,
184,0,,html-keyboard-response,184,441467,0.0-7.7-1.7,crgktsu3p4a,2022-09-19 15:58:53.405,62b8cd151b5fd0f9be7d1f11,2,90,15,6,4,30,male,1035.0,,"
  <table>
  <tr height=300>
    <td width=300 height=300><img src=""static/images/cards/back_of_black_moons.svg"" width=""175px"" height=""250px""></img></td>
    <td width=300 height=300><img src=""static/images/cards/back_of_black_moons.svg"" width=""175px"" height=""250px""></img></td>
  </tr>
  <tr height=200>
    <td width=300><img src=""static/images/keys/z.svg"" width=""35%"" height=""75%""></img></td>
    <td width=300><img src=""static/images/keys/m.svg"" width=""35%"" height=""75%""></img></td>
  </tr>
</table>
  ",90.0,1.0,,,,,,,,,,,,,,,,,,,,,,,,,,
185,0,,html-keyboard-response,185,442982,0.0-7.7-2.7,crgktsu3p4a,2022-09-19 15:58:53.405,62b8cd151b5fd0f9be7d1f11,2,90,15,6,4,30,male,,,"
  <table>
  <tr height=300>
    <td width=300 height=300><img src=""static/images/cards/8_of_black_moons.svg"" width=""175px"" height=""250px""></img></td>
    <td width=300 height=300><img src=""static/images/cards/back_of_black_moons.svg"" width=""175px"" height=""250px""></img></td>
  </tr>
  <tr height=200>
    <td width=300><img src=""static/images/keys/z.svg"" width=""35%"" height=""75%""></img></td>
    <td width=300><img src=""static/images/keys/m.svg"" width=""35%"" height=""75%""></img></td>
  </tr>
</table>
  ",,,,,,,,,,,,,,,,,,,,,,,,,,,,
186,0,,html-keyboard-response,186,444499,0.0-7.7-3.7,crgktsu3p4a,2022-09-19 15:58:53.405,62b8cd151b5fd0f9be7d1f11,2,90,15,6,4,30,male,,,"<p style=""font-size:50px"">You Lose!
No points this round.</p>",,,,,,,,,,,,,,,,,,,,,,,,,,,,
187,0,,html-keyboard-response,187,445023,0.0-7.7-4.7,crgktsu3p4a,2022-09-19 15:58:53.405,62b8cd151b5fd0f9be7d1f11,2,90,15,6,4,30,male,,,,,,1.0,choice,7.0,C,D,black,red,moons,moons,C,D,C,black,moons,2043.0,1.0,0.0,NA,left,1035.0,8.0,1.0,0.0,,,
188,0,,html-keyboard-response,188,446387,0.0-7.8-0.8,crgktsu3p4a,2022-09-19 15:58:53.405,62b8cd151b5fd0f9be7d1f11,2,90,15,6,4,30,male,1363.0,,"
  <table>
  <tr height=300>
    <td width=300 height=300><img src=""static/images/cards/stack_of_red_stars.svg"" width=""175px"" height=""250px""></img></td>
    <td width=300 height=300><img src=""static/images/cards/stack_of_black_bolts.svg"" width=""175px"" height=""250px""></img></td>
  </tr>
  <tr height=200>
    <td width=300><img src=""static/images/keys/w.svg"" width=""35%"" height=""75%""></img></td>
    <td width=300><img src=""static/images/keys/o.svg"" width=""35%"" height=""75%""></img></td>
  </tr>
</table>
  ",79.0,1.0,,,,,,,,,,,,,,,,,,,,,,,,,,
189,0,,html-keyboard-response,189,447338,0.0-7.8-1.8,crgktsu3p4a,2022-09-19 15:58:53.405,62b8cd151b5fd0f9be7d1f11,2,90,15,6,4,30,male,443.0,,"
  <table>
  <tr height=300>
    <td width=300 height=300><img src=""static/images/cards/back_of_black_bolts.svg"" width=""175px"" height=""250px""></img></td>
    <td width=300 height=300><img src=""static/images/cards/back_of_black_bolts.svg"" width=""175px"" height=""250px""></img></td>
  </tr>
  <tr height=200>
    <td width=300></td>
    <td width=300><img src=""static/images/keys/m.svg"" width=""35%"" height=""75%""></img></td>
  </tr>
</table>
  ",77.0,1.0,,,,,,,,,,,,,,,,,,,,,,,,,,
190,0,,html-keyboard-response,190,448846,0.0-7.8-2.8,crgktsu3p4a,2022-09-19 15:58:53.405,62b8cd151b5fd0f9be7d1f11,2,90,15,6,4,30,male,,,"
  <table>
  <tr height=300>
    <td width=300 height=300><img src=""static/images/cards/back_of_black_bolts.svg"" width=""175px"" height=""250px""></img></td>
    <td width=300 height=300><img src=""static/images/cards/9_of_black_bolts.svg"" width=""175px"" height=""250px""></img></td>
  </tr>
  <tr height=200>
    <td width=300></td>
    <td width=300><img src=""static/images/keys/m.svg"" width=""35%"" height=""75%""></img></td>
  </tr>
</table>
  ",,,,,,,,,,,,,,,,,,,,,,,,,,,,
191,0,,html-keyboard-response,191,450353,0.0-7.8-3.8,crgktsu3p4a,2022-09-19 15:58:53.405,62b8cd151b5fd0f9be7d1f11,2,90,15,6,4,30,male,,,"<p style=""font-size:50px"">You win!
+10 points this round!</p>",,,,,,,,,,,,,,,,,,,,,,,,,,,,
192,0,,html-keyboard-response,192,450875,0.0-7.8-4.8,crgktsu3p4a,2022-09-19 15:58:53.405,62b8cd151b5fd0f9be7d1f11,2,90,15,6,4,30,male,,,,,,1.0,choice,8.0,B,Xnc,red,black,stars,bolts,B,Xnc,Xnc,black,bolts,1363.0,0.0,0.0,0,right,443.0,9.0,1.0,1.0,,,
193,0,,html-keyboard-response,193,452415,0.0-7.9-0.9,crgktsu3p4a,2022-09-19 15:58:53.405,62b8cd151b5fd0f9be7d1f11,2,90,15,6,4,30,male,1539.0,,"
  <table>
  <tr height=300>
    <td width=300 height=300><img src=""static/images/cards/stack_of_black_stars.svg"" width=""175px"" height=""250px""></img></td>
    <td width=300 height=300><img src=""static/images/cards/stack_of_black_moons.svg"" width=""175px"" height=""250px""></img></td>
  </tr>
  <tr height=200>
    <td width=300><img src=""static/images/keys/w.svg"" width=""35%"" height=""75%""></img></td>
    <td width=300><img src=""static/images/keys/o.svg"" width=""35%"" height=""75%""></img></td>
  </tr>
</table>
  ",87.0,1.0,,,,,,,,,,,,,,,,,,,,,,,,,,
194,0,,html-keyboard-response,194,454641,0.0-7.9-1.9,crgktsu3p4a,2022-09-19 15:58:53.405,62b8cd151b5fd0f9be7d1f11,2,90,15,6,4,30,male,1725.0,,"
  <table>
  <tr height=300>
    <td width=300 height=300><img src=""static/images/cards/back_of_black_stars.svg"" width=""175px"" height=""250px""></img></td>
    <td width=300 height=300><img src=""static/images/cards/back_of_black_stars.svg"" width=""175px"" height=""250px""></img></td>
  </tr>
  <tr height=200>
    <td width=300><img src=""static/images/keys/z.svg"" width=""35%"" height=""75%""></img></td>
    <td width=300><img src=""static/images/keys/m.svg"" width=""35%"" height=""75%""></img></td>
  </tr>
</table>
  ",90.0,1.0,,,,,,,,,,,,,,,,,,,,,,,,,,
195,0,,html-keyboard-response,195,456146,0.0-7.9-2.9,crgktsu3p4a,2022-09-19 15:58:53.405,62b8cd151b5fd0f9be7d1f11,2,90,15,6,4,30,male,,,"
  <table>
  <tr height=300>
    <td width=300 height=300><img src=""static/images/cards/3_of_black_stars.svg"" width=""175px"" height=""250px""></img></td>
    <td width=300 height=300><img src=""static/images/cards/back_of_black_stars.svg"" width=""175px"" height=""250px""></img></td>
  </tr>
  <tr height=200>
    <td width=300><img src=""static/images/keys/z.svg"" width=""35%"" height=""75%""></img></td>
    <td width=300><img src=""static/images/keys/m.svg"" width=""35%"" height=""75%""></img></td>
  </tr>
</table>
  ",,,,,,,,,,,,,,,,,,,,,,,,,,,,
196,0,,html-keyboard-response,196,457661,0.0-7.9-3.9,crgktsu3p4a,2022-09-19 15:58:53.405,62b8cd151b5fd0f9be7d1f11,2,90,15,6,4,30,male,,,"<p style=""font-size:50px"">You Lose!
No points this round.</p>",,,,,,,,,,,,,,,,,,,,,,,,,,,,
197,0,,html-keyboard-response,197,458186,0.0-7.9-4.9,crgktsu3p4a,2022-09-19 15:58:53.405,62b8cd151b5fd0f9be7d1f11,2,90,15,6,4,30,male,,,,,,1.0,choice,9.0,A,C,black,black,stars,moons,A,C,A,black,stars,1539.0,1.0,1.0,NA,left,1725.0,3.0,0.0,0.0,,,
198,0,,html-keyboard-response,198,459318,0.0-7.10-0.10,crgktsu3p4a,2022-09-19 15:58:53.405,62b8cd151b5fd0f9be7d1f11,2,90,15,6,4,30,male,1132.0,,"
  <table>
  <tr height=300>
    <td width=300 height=300><img src=""static/images/cards/stack_of_black_moons.svg"" width=""175px"" height=""250px""></img></td>
    <td width=300 height=300><img src=""static/images/cards/stack_of_red_stars.svg"" width=""175px"" height=""250px""></img></td>
  </tr>
  <tr height=200>
    <td width=300><img src=""static/images/keys/w.svg"" width=""35%"" height=""75%""></img></td>
    <td width=300><img src=""static/images/keys/o.svg"" width=""35%"" height=""75%""></img></td>
  </tr>
</table>
  ",79.0,1.0,,,,,,,,,,,,,,,,,,,,,,,,,,
199,0,,html-keyboard-response,199,460290,0.0-7.10-1.10,crgktsu3p4a,2022-09-19 15:58:53.405,62b8cd151b5fd0f9be7d1f11,2,90,15,6,4,30,male,467.0,,"
  <table>
  <tr height=300>
    <td width=300 height=300><img src=""static/images/cards/back_of_red_stars.svg"" width=""175px"" height=""250px""></img></td>
    <td width=300 height=300><img src=""static/images/cards/back_of_red_stars.svg"" width=""175px"" height=""250px""></img></td>
  </tr>
  <tr height=200>
    <td width=300></td>
    <td width=300><img src=""static/images/keys/m.svg"" width=""35%"" height=""75%""></img></td>
  </tr>
</table>
  ",77.0,1.0,,,,,,,,,,,,,,,,,,,,,,,,,,
200,0,,html-keyboard-response,200,461800,0.0-7.10-2.10,crgktsu3p4a,2022-09-19 15:58:53.405,62b8cd151b5fd0f9be7d1f11,2,90,15,6,4,30,male,,,"
  <table>
  <tr height=300>
    <td width=300 height=300><img src=""static/images/cards/back_of_red_stars.svg"" width=""175px"" height=""250px""></img></td>
    <td width=300 height=300><img src=""static/images/cards/8_of_red_stars.svg"" width=""175px"" height=""250px""></img></td>
  </tr>
  <tr height=200>
    <td width=300></td>
    <td width=300><img src=""static/images/keys/m.svg"" width=""35%"" height=""75%""></img></td>
  </tr>
</table>
  ",,,,,,,,,,,,,,,,,,,,,,,,,,,,
201,0,,html-keyboard-response,201,463312,0.0-7.10-3.10,crgktsu3p4a,2022-09-19 15:58:53.405,62b8cd151b5fd0f9be7d1f11,2,90,15,6,4,30,male,,,"<p style=""font-size:50px"">You win!
+10 points this round!</p>",,,,,,,,,,,,,,,,,,,,,,,,,,,,
202,0,,html-keyboard-response,202,463836,0.0-7.10-4.10,crgktsu3p4a,2022-09-19 15:58:53.405,62b8cd151b5fd0f9be7d1f11,2,90,15,6,4,30,male,,,,,,1.0,choice,10.0,B,C,black,red,moons,stars,C,B,B,red,stars,1132.0,0.0,1.0,0,right,467.0,8.0,1.0,1.0,,,
203,0,,html-keyboard-response,203,464805,0.0-7.11-0.11,crgktsu3p4a,2022-09-19 15:58:53.405,62b8cd151b5fd0f9be7d1f11,2,90,15,6,4,30,male,969.0,,"
  <table>
  <tr height=300>
    <td width=300 height=300><img src=""static/images/cards/stack_of_red_moons.svg"" width=""175px"" height=""250px""></img></td>
    <td width=300 height=300><img src=""static/images/cards/stack_of_red_stars.svg"" width=""175px"" height=""250px""></img></td>
  </tr>
  <tr height=200>
    <td width=300><img src=""static/images/keys/w.svg"" width=""35%"" height=""75%""></img></td>
    <td width=300><img src=""static/images/keys/o.svg"" width=""35%"" height=""75%""></img></td>
  </tr>
</table>
  ",79.0,1.0,,,,,,,,,,,,,,,,,,,,,,,,,,
204,0,,html-keyboard-response,204,465770,0.0-7.11-1.11,crgktsu3p4a,2022-09-19 15:58:53.405,62b8cd151b5fd0f9be7d1f11,2,90,15,6,4,30,male,450.0,,"
  <table>
  <tr height=300>
    <td width=300 height=300><img src=""static/images/cards/back_of_red_stars.svg"" width=""175px"" height=""250px""></img></td>
    <td width=300 height=300><img src=""static/images/cards/back_of_red_stars.svg"" width=""175px"" height=""250px""></img></td>
  </tr>
  <tr height=200>
    <td width=300></td>
    <td width=300><img src=""static/images/keys/m.svg"" width=""35%"" height=""75%""></img></td>
  </tr>
</table>
  ",77.0,1.0,,,,,,,,,,,,,,,,,,,,,,,,,,
205,0,,html-keyboard-response,205,467283,0.0-7.11-2.11,crgktsu3p4a,2022-09-19 15:58:53.405,62b8cd151b5fd0f9be7d1f11,2,90,15,6,4,30,male,,,"
  <table>
  <tr height=300>
    <td width=300 height=300><img src=""static/images/cards/back_of_red_stars.svg"" width=""175px"" height=""250px""></img></td>
    <td width=300 height=300><img src=""static/images/cards/8_of_red_stars.svg"" width=""175px"" height=""250px""></img></td>
  </tr>
  <tr height=200>
    <td width=300></td>
    <td width=300><img src=""static/images/keys/m.svg"" width=""35%"" height=""75%""></img></td>
  </tr>
</table>
  ",,,,,,,,,,,,,,,,,,,,,,,,,,,,
206,0,,html-keyboard-response,206,468794,0.0-7.11-3.11,crgktsu3p4a,2022-09-19 15:58:53.405,62b8cd151b5fd0f9be7d1f11,2,90,15,6,4,30,male,,,"<p style=""font-size:50px"">You win!
+10 points this round!</p>",,,,,,,,,,,,,,,,,,,,,,,,,,,,
207,0,,html-keyboard-response,207,469319,0.0-7.11-4.11,crgktsu3p4a,2022-09-19 15:58:53.405,62b8cd151b5fd0f9be7d1f11,2,90,15,6,4,30,male,,,,,,1.0,choice,11.0,B,D,red,red,moons,stars,D,B,B,red,stars,969.0,0.0,1.0,0,right,450.0,8.0,1.0,1.0,,,
208,0,,html-keyboard-response,208,470186,0.0-7.12-0.12,crgktsu3p4a,2022-09-19 15:58:53.405,62b8cd151b5fd0f9be7d1f11,2,90,15,6,4,30,male,865.0,,"
  <table>
  <tr height=300>
    <td width=300 height=300><img src=""static/images/cards/stack_of_black_moons.svg"" width=""175px"" height=""250px""></img></td>
    <td width=300 height=300><img src=""static/images/cards/stack_of_red_stars.svg"" width=""175px"" height=""250px""></img></td>
  </tr>
  <tr height=200>
    <td width=300><img src=""static/images/keys/w.svg"" width=""35%"" height=""75%""></img></td>
    <td width=300><img src=""static/images/keys/o.svg"" width=""35%"" height=""75%""></img></td>
  </tr>
</table>
  ",79.0,1.0,,,,,,,,,,,,,,,,,,,,,,,,,,
209,0,,html-keyboard-response,209,471118,0.0-7.12-1.12,crgktsu3p4a,2022-09-19 15:58:53.405,62b8cd151b5fd0f9be7d1f11,2,90,15,6,4,30,male,425.0,,"
  <table>
  <tr height=300>
    <td width=300 height=300><img src=""static/images/cards/back_of_red_stars.svg"" width=""175px"" height=""250px""></img></td>
    <td width=300 height=300><img src=""static/images/cards/back_of_red_stars.svg"" width=""175px"" height=""250px""></img></td>
  </tr>
  <tr height=200>
    <td width=300><img src=""static/images/keys/z.svg"" width=""35%"" height=""75%""></img></td>
    <td width=300></td>
  </tr>
</table>
  ",90.0,1.0,,,,,,,,,,,,,,,,,,,,,,,,,,
210,0,,html-keyboard-response,210,472629,0.0-7.12-2.12,crgktsu3p4a,2022-09-19 15:58:53.405,62b8cd151b5fd0f9be7d1f11,2,90,15,6,4,30,male,,,"
  <table>
  <tr height=300>
    <td width=300 height=300><img src=""static/images/cards/6_of_red_stars.svg"" width=""175px"" height=""250px""></img></td>
    <td width=300 height=300><img src=""static/images/cards/back_of_red_stars.svg"" width=""175px"" height=""250px""></img></td>
  </tr>
  <tr height=200>
    <td width=300><img src=""static/images/keys/z.svg"" width=""35%"" height=""75%""></img></td>
    <td width=300></td>
  </tr>
</table>
  ",,,,,,,,,,,,,,,,,,,,,,,,,,,,
211,0,,html-keyboard-response,211,474144,0.0-7.12-3.12,crgktsu3p4a,2022-09-19 15:58:53.405,62b8cd151b5fd0f9be7d1f11,2,90,15,6,4,30,male,,,"<p style=""font-size:50px"">You win!
+10 points this round!</p>",,,,,,,,,,,,,,,,,,,,,,,,,,,,
212,0,,html-keyboard-response,212,474671,0.0-7.12-4.12,crgktsu3p4a,2022-09-19 15:58:53.405,62b8cd151b5fd0f9be7d1f11,2,90,15,6,4,30,male,,,,,,1.0,choice,12.0,B,C,black,red,moons,stars,C,B,B,red,stars,865.0,0.0,1.0,1,left,425.0,6.0,1.0,1.0,,,
213,0,,html-keyboard-response,213,475626,0.0-7.13-0.13,crgktsu3p4a,2022-09-19 15:58:53.405,62b8cd151b5fd0f9be7d1f11,2,90,15,6,4,30,male,953.0,,"
  <table>
  <tr height=300>
    <td width=300 height=300><img src=""static/images/cards/stack_of_black_moons.svg"" width=""175px"" height=""250px""></img></td>
    <td width=300 height=300><img src=""static/images/cards/stack_of_black_stars.svg"" width=""175px"" height=""250px""></img></td>
  </tr>
  <tr height=200>
    <td width=300><img src=""static/images/keys/w.svg"" width=""35%"" height=""75%""></img></td>
    <td width=300><img src=""static/images/keys/o.svg"" width=""35%"" height=""75%""></img></td>
  </tr>
</table>
  ",79.0,1.0,,,,,,,,,,,,,,,,,,,,,,,,,,
214,0,,html-keyboard-response,214,476833,0.0-7.13-1.13,crgktsu3p4a,2022-09-19 15:58:53.405,62b8cd151b5fd0f9be7d1f11,2,90,15,6,4,30,male,705.0,,"
  <table>
  <tr height=300>
    <td width=300 height=300><img src=""static/images/cards/back_of_black_stars.svg"" width=""175px"" height=""250px""></img></td>
    <td width=300 height=300><img src=""static/images/cards/back_of_black_stars.svg"" width=""175px"" height=""250px""></img></td>
  </tr>
  <tr height=200>
    <td width=300><img src=""static/images/keys/z.svg"" width=""35%"" height=""75%""></img></td>
    <td width=300><img src=""static/images/keys/m.svg"" width=""35%"" height=""75%""></img></td>
  </tr>
</table>
  ",90.0,1.0,,,,,,,,,,,,,,,,,,,,,,,,,,
215,0,,html-keyboard-response,215,478337,0.0-7.13-2.13,crgktsu3p4a,2022-09-19 15:58:53.405,62b8cd151b5fd0f9be7d1f11,2,90,15,6,4,30,male,,,"
  <table>
  <tr height=300>
    <td width=300 height=300><img src=""static/images/cards/2_of_black_stars.svg"" width=""175px"" height=""250px""></img></td>
    <td width=300 height=300><img src=""static/images/cards/back_of_black_stars.svg"" width=""175px"" height=""250px""></img></td>
  </tr>
  <tr height=200>
    <td width=300><img src=""static/images/keys/z.svg"" width=""35%"" height=""75%""></img></td>
    <td width=300><img src=""static/images/keys/m.svg"" width=""35%"" height=""75%""></img></td>
  </tr>
</table>
  ",,,,,,,,,,,,,,,,,,,,,,,,,,,,
216,0,,html-keyboard-response,216,479852,0.0-7.13-3.13,crgktsu3p4a,2022-09-19 15:58:53.405,62b8cd151b5fd0f9be7d1f11,2,90,15,6,4,30,male,,,"<p style=""font-size:50px"">You Lose!
No points this round.</p>",,,,,,,,,,,,,,,,,,,,,,,,,,,,
217,0,,html-keyboard-response,217,480378,0.0-7.13-4.13,crgktsu3p4a,2022-09-19 15:58:53.405,62b8cd151b5fd0f9be7d1f11,2,90,15,6,4,30,male,,,,,,1.0,choice,13.0,A,C,black,black,moons,stars,C,A,A,black,stars,953.0,1.0,1.0,NA,left,705.0,2.0,0.0,0.0,,,
218,0,,html-keyboard-response,218,481653,0.0-7.14-0.14,crgktsu3p4a,2022-09-19 15:58:53.405,62b8cd151b5fd0f9be7d1f11,2,90,15,6,4,30,male,1274.0,,"
  <table>
  <tr height=300>
    <td width=300 height=300><img src=""static/images/cards/stack_of_red_stars.svg"" width=""175px"" height=""250px""></img></td>
    <td width=300 height=300><img src=""static/images/cards/stack_of_black_stars.svg"" width=""175px"" height=""250px""></img></td>
  </tr>
  <tr height=200>
    <td width=300><img src=""static/images/keys/w.svg"" width=""35%"" height=""75%""></img></td>
    <td width=300><img src=""static/images/keys/o.svg"" width=""35%"" height=""75%""></img></td>
  </tr>
</table>
  ",79.0,1.0,,,,,,,,,,,,,,,,,,,,,,,,,,
219,0,,html-keyboard-response,219,482597,0.0-7.14-1.14,crgktsu3p4a,2022-09-19 15:58:53.405,62b8cd151b5fd0f9be7d1f11,2,90,15,6,4,30,male,436.0,,"
  <table>
  <tr height=300>
    <td width=300 height=300><img src=""static/images/cards/back_of_black_stars.svg"" width=""175px"" height=""250px""></img></td>
    <td width=300 height=300><img src=""static/images/cards/back_of_black_stars.svg"" width=""175px"" height=""250px""></img></td>
  </tr>
  <tr height=200>
    <td width=300><img src=""static/images/keys/z.svg"" width=""35%"" height=""75%""></img></td>
    <td width=300><img src=""static/images/keys/m.svg"" width=""35%"" height=""75%""></img></td>
  </tr>
</table>
  ",77.0,1.0,,,,,,,,,,,,,,,,,,,,,,,,,,
220,0,,html-keyboard-response,220,484108,0.0-7.14-2.14,crgktsu3p4a,2022-09-19 15:58:53.405,62b8cd151b5fd0f9be7d1f11,2,90,15,6,4,30,male,,,"
  <table>
  <tr height=300>
    <td width=300 height=300><img src=""static/images/cards/back_of_black_stars.svg"" width=""175px"" height=""250px""></img></td>
    <td width=300 height=300><img src=""static/images/cards/4_of_black_stars.svg"" width=""175px"" height=""250px""></img></td>
  </tr>
  <tr height=200>
    <td width=300><img src=""static/images/keys/z.svg"" width=""35%"" height=""75%""></img></td>
    <td width=300><img src=""static/images/keys/m.svg"" width=""35%"" height=""75%""></img></td>
  </tr>
</table>
  ",,,,,,,,,,,,,,,,,,,,,,,,,,,,
221,0,,html-keyboard-response,221,485627,0.0-7.14-3.14,crgktsu3p4a,2022-09-19 15:58:53.405,62b8cd151b5fd0f9be7d1f11,2,90,15,6,4,30,male,,,"<p style=""font-size:50px"">You Lose!
No points this round.</p>",,,,,,,,,,,,,,,,,,,,,,,,,,,,
222,0,,html-keyboard-response,222,486154,0.0-7.14-4.14,crgktsu3p4a,2022-09-19 15:58:53.405,62b8cd151b5fd0f9be7d1f11,2,90,15,6,4,30,male,,,,,,1.0,choice,14.0,A,B,red,black,stars,stars,B,A,A,black,stars,1274.0,1.0,1.0,NA,right,436.0,4.0,0.0,0.0,,,
223,0,,html-keyboard-response,223,487005,0.0-7.15-0.15,crgktsu3p4a,2022-09-19 15:58:53.405,62b8cd151b5fd0f9be7d1f11,2,90,15,6,4,30,male,850.0,,"
  <table>
  <tr height=300>
    <td width=300 height=300><img src=""static/images/cards/stack_of_red_stars.svg"" width=""175px"" height=""250px""></img></td>
    <td width=300 height=300><img src=""static/images/cards/stack_of_red_moons.svg"" width=""175px"" height=""250px""></img></td>
  </tr>
  <tr height=200>
    <td width=300><img src=""static/images/keys/w.svg"" width=""35%"" height=""75%""></img></td>
    <td width=300><img src=""static/images/keys/o.svg"" width=""35%"" height=""75%""></img></td>
  </tr>
</table>
  ",87.0,1.0,,,,,,,,,,,,,,,,,,,,,,,,,,
224,0,,html-keyboard-response,224,487948,0.0-7.15-1.15,crgktsu3p4a,2022-09-19 15:58:53.405,62b8cd151b5fd0f9be7d1f11,2,90,15,6,4,30,male,431.0,,"
  <table>
  <tr height=300>
    <td width=300 height=300><img src=""static/images/cards/back_of_red_stars.svg"" width=""175px"" height=""250px""></img></td>
    <td width=300 height=300><img src=""static/images/cards/back_of_red_stars.svg"" width=""175px"" height=""250px""></img></td>
  </tr>
  <tr height=200>
    <td width=300><img src=""static/images/keys/z.svg"" width=""35%"" height=""75%""></img></td>
    <td width=300></td>
  </tr>
</table>
  ",90.0,1.0,,,,,,,,,,,,,,,,,,,,,,,,,,
225,0,,html-keyboard-response,225,489463,0.0-7.15-2.15,crgktsu3p4a,2022-09-19 15:58:53.405,62b8cd151b5fd0f9be7d1f11,2,90,15,6,4,30,male,,,"
  <table>
  <tr height=300>
    <td width=300 height=300><img src=""static/images/cards/3_of_red_stars.svg"" width=""175px"" height=""250px""></img></td>
    <td width=300 height=300><img src=""static/images/cards/back_of_red_stars.svg"" width=""175px"" height=""250px""></img></td>
  </tr>
  <tr height=200>
    <td width=300><img src=""static/images/keys/z.svg"" width=""35%"" height=""75%""></img></td>
    <td width=300></td>
  </tr>
</table>
  ",,,,,,,,,,,,,,,,,,,,,,,,,,,,
226,0,,html-keyboard-response,226,490977,0.0-7.15-3.15,crgktsu3p4a,2022-09-19 15:58:53.405,62b8cd151b5fd0f9be7d1f11,2,90,15,6,4,30,male,,,"<p style=""font-size:50px"">You Lose!
No points this round.</p>",,,,,,,,,,,,,,,,,,,,,,,,,,,,
227,0,,html-keyboard-response,227,491503,0.0-7.15-4.15,crgktsu3p4a,2022-09-19 15:58:53.405,62b8cd151b5fd0f9be7d1f11,2,90,15,6,4,30,male,,,,,,1.0,choice,15.0,B,D,red,red,stars,moons,B,D,B,red,stars,850.0,0.0,1.0,1,left,431.0,3.0,0.0,0.0,,,
228,0,,html-keyboard-response,228,492636,0.0-7.16-0.16,crgktsu3p4a,2022-09-19 15:58:53.405,62b8cd151b5fd0f9be7d1f11,2,90,15,6,4,30,male,1133.0,,"
  <table>
  <tr height=300>
    <td width=300 height=300><img src=""static/images/cards/stack_of_black_moons.svg"" width=""175px"" height=""250px""></img></td>
    <td width=300 height=300><img src=""static/images/cards/stack_of_red_moons.svg"" width=""175px"" height=""250px""></img></td>
  </tr>
  <tr height=200>
    <td width=300><img src=""static/images/keys/w.svg"" width=""35%"" height=""75%""></img></td>
    <td width=300><img src=""static/images/keys/o.svg"" width=""35%"" height=""75%""></img></td>
  </tr>
</table>
  ",87.0,1.0,,,,,,,,,,,,,,,,,,,,,,,,,,
229,0,,html-keyboard-response,229,493516,0.0-7.16-1.16,crgktsu3p4a,2022-09-19 15:58:53.405,62b8cd151b5fd0f9be7d1f11,2,90,15,6,4,30,male,378.0,,"
  <table>
  <tr height=300>
    <td width=300 height=300><img src=""static/images/cards/back_of_black_moons.svg"" width=""175px"" height=""250px""></img></td>
    <td width=300 height=300><img src=""static/images/cards/back_of_black_moons.svg"" width=""175px"" height=""250px""></img></td>
  </tr>
  <tr height=200>
    <td width=300><img src=""static/images/keys/z.svg"" width=""35%"" height=""75%""></img></td>
    <td width=300><img src=""static/images/keys/m.svg"" width=""35%"" height=""75%""></img></td>
  </tr>
</table>
  ",90.0,1.0,,,,,,,,,,,,,,,,,,,,,,,,,,
230,0,,html-keyboard-response,230,495027,0.0-7.16-2.16,crgktsu3p4a,2022-09-19 15:58:53.405,62b8cd151b5fd0f9be7d1f11,2,90,15,6,4,30,male,,,"
  <table>
  <tr height=300>
    <td width=300 height=300><img src=""static/images/cards/1_of_black_moons.svg"" width=""175px"" height=""250px""></img></td>
    <td width=300 height=300><img src=""static/images/cards/back_of_black_moons.svg"" width=""175px"" height=""250px""></img></td>
  </tr>
  <tr height=200>
    <td width=300><img src=""static/images/keys/z.svg"" width=""35%"" height=""75%""></img></td>
    <td width=300><img src=""static/images/keys/m.svg"" width=""35%"" height=""75%""></img></td>
  </tr>
</table>
  ",,,,,,,,,,,,,,,,,,,,,,,,,,,,
231,0,,html-keyboard-response,231,496540,0.0-7.16-3.16,crgktsu3p4a,2022-09-19 15:58:53.405,62b8cd151b5fd0f9be7d1f11,2,90,15,6,4,30,male,,,"<p style=""font-size:50px"">You win!
+10 points this round!</p>",,,,,,,,,,,,,,,,,,,,,,,,,,,,
232,0,,html-keyboard-response,232,497067,0.0-7.16-4.16,crgktsu3p4a,2022-09-19 15:58:53.405,62b8cd151b5fd0f9be7d1f11,2,90,15,6,4,30,male,,,,,,1.0,choice,16.0,C,D,black,red,moons,moons,C,D,C,black,moons,1133.0,1.0,0.0,NA,left,378.0,1.0,0.0,1.0,,,
233,0,,html-keyboard-response,233,498265,0.0-7.17-0.17,crgktsu3p4a,2022-09-19 15:58:53.405,62b8cd151b5fd0f9be7d1f11,2,90,15,6,4,30,male,1198.0,,"
  <table>
  <tr height=300>
    <td width=300 height=300><img src=""static/images/cards/stack_of_red_stars.svg"" width=""175px"" height=""250px""></img></td>
    <td width=300 height=300><img src=""static/images/cards/stack_of_black_moons.svg"" width=""175px"" height=""250px""></img></td>
  </tr>
  <tr height=200>
    <td width=300><img src=""static/images/keys/w.svg"" width=""35%"" height=""75%""></img></td>
    <td width=300><img src=""static/images/keys/o.svg"" width=""35%"" height=""75%""></img></td>
  </tr>
</table>
  ",87.0,1.0,,,,,,,,,,,,,,,,,,,,,,,,,,
234,0,,html-keyboard-response,234,499273,0.0-7.17-1.17,crgktsu3p4a,2022-09-19 15:58:53.405,62b8cd151b5fd0f9be7d1f11,2,90,15,6,4,30,male,493.0,,"
  <table>
  <tr height=300>
    <td width=300 height=300><img src=""static/images/cards/back_of_red_stars.svg"" width=""175px"" height=""250px""></img></td>
    <td width=300 height=300><img src=""static/images/cards/back_of_red_stars.svg"" width=""175px"" height=""250px""></img></td>
  </tr>
  <tr height=200>
    <td width=300></td>
    <td width=300><img src=""static/images/keys/m.svg"" width=""35%"" height=""75%""></img></td>
  </tr>
</table>
  ",77.0,1.0,,,,,,,,,,,,,,,,,,,,,,,,,,
235,0,,html-keyboard-response,235,500776,0.0-7.17-2.17,crgktsu3p4a,2022-09-19 15:58:53.405,62b8cd151b5fd0f9be7d1f11,2,90,15,6,4,30,male,,,"
  <table>
  <tr height=300>
    <td width=300 height=300><img src=""static/images/cards/back_of_red_stars.svg"" width=""175px"" height=""250px""></img></td>
    <td width=300 height=300><img src=""static/images/cards/2_of_red_stars.svg"" width=""175px"" height=""250px""></img></td>
  </tr>
  <tr height=200>
    <td width=300></td>
    <td width=300><img src=""static/images/keys/m.svg"" width=""35%"" height=""75%""></img></td>
  </tr>
</table>
  ",,,,,,,,,,,,,,,,,,,,,,,,,,,,
236,0,,html-keyboard-response,236,502290,0.0-7.17-3.17,crgktsu3p4a,2022-09-19 15:58:53.405,62b8cd151b5fd0f9be7d1f11,2,90,15,6,4,30,male,,,"<p style=""font-size:50px"">You Lose!
No points this round.</p>",,,,,,,,,,,,,,,,,,,,,,,,,,,,
