,index,success,trial_type,trial_index,time_elapsed,internal_node_id,subject,date,prol_id,ctbl,sense_of_control_A,sense_of_control_B,sense_of_control_C,sense_of_control_D,age,gender,rt,url,stimulus,key_press,npress,is_data_trial,phase,trial,deck1,deck2,col1,col2,sym1,sym2,deck_l,deck_r,chosen_deck,chosen_col,chosen_sym,deck_rt,choose_choice,mutual_info,hidden_key,chosen_card,card_rt,player_num,win_card,outcome,mock_rating,response,responses
0,0,1.0,fullscreen,0,7225,0.0-0.0,2zdekk7xuc8,2022-09-19 15:31:31.040,5f0ef1582a709a00093a8b86,1,36,38,66,77,28,male,,,,,,,,,,,,,,,,,,,,,,,,,,,,,,,
1,0,,external-html,1,18785,0.0-1.0,2zdekk7xuc8,2022-09-19 15:31:31.040,5f0ef1582a709a00093a8b86,1,36,38,66,77,28,male,11455.599999994,static/js/sub/consent.html,,,,,,,,,,,,,,,,,,,,,,,,,,,,,
2,0,,call-function,2,18790,0.0-2.0,2zdekk7xuc8,2022-09-19 15:31:31.040,5f0ef1582a709a00093a8b86,1,36,38,66,77,28,male,,,,,,,,,,,,,,,,,,,,,,,,,,,,,,,
3,0,,image-keyboard-response,3,33101,0.0-3.0-0.0,2zdekk7xuc8,2022-09-19 15:31:31.040,5f0ef1582a709a00093a8b86,1,36,38,66,77,28,male,14310.0,,static/images/instructions_CB_1/Slide1.png,39.0,,,,,,,,,,,,,,,,,,,,,,,,,,,
4,0,,image-keyboard-response,4,44423,0.0-3.1-0.1,2zdekk7xuc8,2022-09-19 15:31:31.040,5f0ef1582a709a00093a8b86,1,36,38,66,77,28,male,11320.7000000179,,static/images/instructions_CB_1/Slide2.png,39.0,,,,,,,,,,,,,,,,,,,,,,,,,,,
5,0,,image-keyboard-response,5,48320,0.0-3.2-0.2,2zdekk7xuc8,2022-09-19 15:31:31.040,5f0ef1582a709a00093a8b86,1,36,38,66,77,28,male,3896.400000006,,static/images/instructions_CB_1/Slide3.png,39.0,,,,,,,,,,,,,,,,,,,,,,,,,,,
6,0,,image-keyboard-response,6,53631,0.0-3.3-0.3,2zdekk7xuc8,2022-09-19 15:31:31.040,5f0ef1582a709a00093a8b86,1,36,38,66,77,28,male,5309.0,,static/images/instructions_CB_1/Slide4.png,39.0,,,,,,,,,,,,,,,,,,,,,,,,,,,
7,0,,image-keyboard-response,7,61043,0.0-3.4-0.4,2zdekk7xuc8,2022-09-19 15:31:31.040,5f0ef1582a709a00093a8b86,1,36,38,66,77,28,male,7412.0,,static/images/instructions_CB_1/Slide5.png,39.0,,,,,,,,,,,,,,,,,,,,,,,,,,,
8,0,,image-keyboard-response,8,65351,0.0-3.5-0.5,2zdekk7xuc8,2022-09-19 15:31:31.040,5f0ef1582a709a00093a8b86,1,36,38,66,77,28,male,4306.599999994,,static/images/instructions_CB_1/Slide6.png,39.0,,,,,,,,,,,,,,,,,,,,,,,,,,,
9,0,,image-keyboard-response,9,71977,0.0-3.6-0.6,2zdekk7xuc8,2022-09-19 15:31:31.040,5f0ef1582a709a00093a8b86,1,36,38,66,77,28,male,6626.099999994,,static/images/instructions_CB_1/Slide7.png,39.0,,,,,,,,,,,,,,,,,,,,,,,,,,,
10,0,,image-keyboard-response,10,89599,0.0-3.7-0.7,2zdekk7xuc8,2022-09-19 15:31:31.040,5f0ef1582a709a00093a8b86,1,36,38,66,77,28,male,17620.5,,static/images/instructions_CB_1/Slide8.png,39.0,,,,,,,,,,,,,,,,,,,,,,,,,,,
11,0,,image-keyboard-response,11,96627,0.0-3.8-0.8,2zdekk7xuc8,2022-09-19 15:31:31.040,5f0ef1582a709a00093a8b86,1,36,38,66,77,28,male,7028.0,,static/images/instructions_CB_1/Slide9.png,39.0,,,,,,,,,,,,,,,,,,,,,,,,,,,
12,0,,image-keyboard-response,12,108431,0.0-3.9-0.9,2zdekk7xuc8,2022-09-19 15:31:31.040,5f0ef1582a709a00093a8b86,1,36,38,66,77,28,male,11803.3000000119,,static/images/instructions_CB_1/Slide10.png,39.0,,,,,,,,,,,,,,,,,,,,,,,,,,,
13,0,,image-keyboard-response,13,112966,0.0-3.10-0.10,2zdekk7xuc8,2022-09-19 15:31:31.040,5f0ef1582a709a00093a8b86,1,36,38,66,77,28,male,4534.0,,static/images/instructions_CB_1/Slide11.png,39.0,,,,,,,,,,,,,,,,,,,,,,,,,,,
14,0,,image-keyboard-response,14,122379,0.0-3.11-0.11,2zdekk7xuc8,2022-09-19 15:31:31.040,5f0ef1582a709a00093a8b86,1,36,38,66,77,28,male,9411.7000000179,,static/images/instructions_CB_1/Slide12.png,39.0,,,,,,,,,,,,,,,,,,,,,,,,,,,
15,0,,image-keyboard-response,15,133996,0.0-3.12-0.12,2zdekk7xuc8,2022-09-19 15:31:31.040,5f0ef1582a709a00093a8b86,1,36,38,66,77,28,male,11616.7999999821,,static/images/instructions_CB_1/Slide13.png,39.0,,,,,,,,,,,,,,,,,,,,,,,,,,,
16,0,,image-keyboard-response,16,136606,0.0-3.13-0.13,2zdekk7xuc8,2022-09-19 15:31:31.040,5f0ef1582a709a00093a8b86,1,36,38,66,77,28,male,2609.6999999881,,static/images/instructions_CB_1/Slide14.png,39.0,,,,,,,,,,,,,,,,,,,,,,,,,,,
17,0,,image-keyboard-response,17,137032,0.0-3.14-0.14,2zdekk7xuc8,2022-09-19 15:31:31.040,5f0ef1582a709a00093a8b86,1,36,38,66,77,28,male,425.2999999821,,static/images/instructions_CB_1/Slide15.png,39.0,,,,,,,,,,,,,,,,,,,,,,,,,,,
18,0,,image-keyboard-response,18,142957,0.0-3.15-0.15,2zdekk7xuc8,2022-09-19 15:31:31.040,5f0ef1582a709a00093a8b86,1,36,38,66,77,28,male,5924.2000000179,,static/images/instructions_CB_1/Slide16.png,39.0,,,,,,,,,,,,,,,,,,,,,,,,,,,
19,0,,image-keyboard-response,19,153783,0.0-3.16-0.16,2zdekk7xuc8,2022-09-19 15:31:31.040,5f0ef1582a709a00093a8b86,1,36,38,66,77,28,male,10825.2000000179,,static/images/instructions_CB_1/Slide17.png,39.0,,,,,,,,,,,,,,,,,,,,,,,,,,,
20,0,,image-keyboard-response,20,166659,0.0-3.17-0.17,2zdekk7xuc8,2022-09-19 15:31:31.040,5f0ef1582a709a00093a8b86,1,36,38,66,77,28,male,12875.7000000179,,static/images/instructions_CB_1/Slide18.png,39.0,,,,,,,,,,,,,,,,,,,,,,,,,,,
21,0,,image-keyboard-response,21,167720,0.0-3.18-0.18,2zdekk7xuc8,2022-09-19 15:31:31.040,5f0ef1582a709a00093a8b86,1,36,38,66,77,28,male,1059.900000006,,static/images/instructions_CB_1/Slide19.png,37.0,,,,,,,,,,,,,,,,,,,,,,,,,,,
22,0,,image-keyboard-response,22,182826,0.0-3.19-0.19,2zdekk7xuc8,2022-09-19 15:31:31.040,5f0ef1582a709a00093a8b86,1,36,38,66,77,28,male,15104.7000000179,,static/images/instructions_CB_1/Slide18.png,39.0,,,,,,,,,,,,,,,,,,,,,,,,,,,
23,0,,image-keyboard-response,23,186855,0.0-3.20-0.20,2zdekk7xuc8,2022-09-19 15:31:31.040,5f0ef1582a709a00093a8b86,1,36,38,66,77,28,male,4028.1999999881,,static/images/instructions_CB_1/Slide19.png,39.0,,,,,,,,,,,,,,,,,,,,,,,,,,,
24,0,,html-keyboard-response,24,188358,0.0-4.0-0.0,2zdekk7xuc8,2022-09-19 15:31:31.040,5f0ef1582a709a00093a8b86,1,36,38,66,77,28,male,,,"<img src=""static/images/cards/stack_of_red_moons.svg"" width=""175px"" height=""250px""></img>",,,,,,,,,,,,,,,,,,,,,,,,,,,,
25,0,,html-keyboard-response,25,189083,0.0-4.0-1.0,2zdekk7xuc8,2022-09-19 15:31:31.040,5f0ef1582a709a00093a8b86,1,36,38,66,77,28,male,222.3999999762,,"
  <table>
  <tr height=300>
    <td width=300 height=300><img src=""static/images/cards/back_of_red_moons.svg"" width=""175px"" height=""250px""></img></td>
    <td width=300 height=300><img src=""static/images/cards/back_of_red_moons.svg"" width=""175px"" height=""250px""></img></td>
  </tr>
  <tr height=200>
    <td width=300><img src=""static/images/keys/z.svg"" width=""35%"" height=""75%""></img></td>
    <td width=300><img src=""static/images/keys/m.svg"" width=""35%"" height=""75%""></img></td>
  </tr>
</table>
  ",90.0,1.0,,,,,,,,,,,,,,,,,,,,,,,,,,
26,0,,html-keyboard-response,26,190590,0.0-4.0-2.0,2zdekk7xuc8,2022-09-19 15:31:31.040,5f0ef1582a709a00093a8b86,1,36,38,66,77,28,male,,,"
  <table>
  <tr height=300>
    <td width=300 height=300><img src=""static/images/cards/2_of_red_moons.svg"" width=""175px"" height=""250px""></img></td>
    <td width=300 height=300><img src=""static/images/cards/back_of_red_moons.svg"" width=""175px"" height=""250px""></img></td>
  </tr>
  <tr height=200>
    <td width=300><img src=""static/images/keys/z.svg"" width=""35%"" height=""75%""></img></td>
    <td width=300><img src=""static/images/keys/m.svg"" width=""35%"" height=""75%""></img></td>
  </tr>
</table>
  ",,,,,,,,,,,,,,,,,,,,,,,,,,,,
27,0,,html-keyboard-response,27,192097,0.0-4.0-3.0,2zdekk7xuc8,2022-09-19 15:31:31.040,5f0ef1582a709a00093a8b86,1,36,38,66,77,28,male,,,"<p style=""font-size:50px"">You Lose!
No points this round.</p>",,,,,,,,,,,,,,,,,,,,,,,,,,,,
28,0,,html-keyboard-response,28,192603,0.0-4.0-4.0,2zdekk7xuc8,2022-09-19 15:31:31.040,5f0ef1582a709a00093a8b86,1,36,38,66,77,28,male,,,,,,1.0,learning,0.0,A,,red,,moons,,,,A,red,moons,,1.0,1.0,NA,left,222.3999999762,2.0,0.0,0.0,,,
29,0,,html-keyboard-response,29,194105,0.0-4.1-0.1,2zdekk7xuc8,2022-09-19 15:31:31.040,5f0ef1582a709a00093a8b86,1,36,38,66,77,28,male,,,"<img src=""static/images/cards/stack_of_black_moons.svg"" width=""175px"" height=""250px""></img>",,,,,,,,,,,,,,,,,,,,,,,,,,,,
30,0,,html-keyboard-response,30,195606,0.0-4.1-1.1,2zdekk7xuc8,2022-09-19 15:31:31.040,5f0ef1582a709a00093a8b86,1,36,38,66,77,28,male,996.900000006,,"
  <table>
  <tr height=300>
    <td width=300 height=300><img src=""static/images/cards/back_of_black_moons.svg"" width=""175px"" height=""250px""></img></td>
    <td width=300 height=300><img src=""static/images/cards/back_of_black_moons.svg"" width=""175px"" height=""250px""></img></td>
  </tr>
  <tr height=200>
    <td width=300><img src=""static/images/keys/z.svg"" width=""35%"" height=""75%""></img></td>
    <td width=300></td>
  </tr>
</table>
  ",90.0,1.0,,,,,,,,,,,,,,,,,,,,,,,,,,
31,0,,html-keyboard-response,31,197109,0.0-4.1-2.1,2zdekk7xuc8,2022-09-19 15:31:31.040,5f0ef1582a709a00093a8b86,1,36,38,66,77,28,male,,,"
  <table>
  <tr height=300>
    <td width=300 height=300><img src=""static/images/cards/1_of_black_moons.svg"" width=""175px"" height=""250px""></img></td>
    <td width=300 height=300><img src=""static/images/cards/back_of_black_moons.svg"" width=""175px"" height=""250px""></img></td>
  </tr>
  <tr height=200>
    <td width=300><img src=""static/images/keys/z.svg"" width=""35%"" height=""75%""></img></td>
    <td width=300></td>
  </tr>
</table>
  ",,,,,,,,,,,,,,,,,,,,,,,,,,,,
32,0,,html-keyboard-response,32,198614,0.0-4.1-3.1,2zdekk7xuc8,2022-09-19 15:31:31.040,5f0ef1582a709a00093a8b86,1,36,38,66,77,28,male,,,"<p style=""font-size:50px"">You Lose!
No points this round.</p>",,,,,,,,,,,,,,,,,,,,,,,,,,,,
33,0,,html-keyboard-response,33,199124,0.0-4.1-4.1,2zdekk7xuc8,2022-09-19 15:31:31.040,5f0ef1582a709a00093a8b86,1,36,38,66,77,28,male,,,,,,1.0,learning,1.0,B,,black,,moons,,,,B,black,moons,,0.0,1.0,1,left,996.900000006,1.0,0.0,0.0,,,
34,0,,html-keyboard-response,34,200626,0.0-4.2-0.2,2zdekk7xuc8,2022-09-19 15:31:31.040,5f0ef1582a709a00093a8b86,1,36,38,66,77,28,male,,,"<img src=""static/images/cards/stack_of_red_stars.svg"" width=""175px"" height=""250px""></img>",,,,,,,,,,,,,,,,,,,,,,,,,,,,
35,0,,html-keyboard-response,35,202876,0.0-4.2-1.2,2zdekk7xuc8,2022-09-19 15:31:31.040,5f0ef1582a709a00093a8b86,1,36,38,66,77,28,male,1744.7000000179,,"
  <table>
  <tr height=300>
    <td width=300 height=300><img src=""static/images/cards/back_of_red_stars.svg"" width=""175px"" height=""250px""></img></td>
    <td width=300 height=300><img src=""static/images/cards/back_of_red_stars.svg"" width=""175px"" height=""250px""></img></td>
  </tr>
  <tr height=200>
    <td width=300><img src=""static/images/keys/z.svg"" width=""35%"" height=""75%""></img></td>
    <td width=300><img src=""static/images/keys/m.svg"" width=""35%"" height=""75%""></img></td>
  </tr>
</table>
  ",77.0,1.0,,,,,,,,,,,,,,,,,,,,,,,,,,
36,0,,html-keyboard-response,36,204379,0.0-4.2-2.2,2zdekk7xuc8,2022-09-19 15:31:31.040,5f0ef1582a709a00093a8b86,1,36,38,66,77,28,male,,,"
  <table>
  <tr height=300>
    <td width=300 height=300><img src=""static/images/cards/back_of_red_stars.svg"" width=""175px"" height=""250px""></img></td>
    <td width=300 height=300><img src=""static/images/cards/8_of_red_stars.svg"" width=""175px"" height=""250px""></img></td>
  </tr>
  <tr height=200>
    <td width=300><img src=""static/images/keys/z.svg"" width=""35%"" height=""75%""></img></td>
    <td width=300><img src=""static/images/keys/m.svg"" width=""35%"" height=""75%""></img></td>
  </tr>
</table>
  ",,,,,,,,,,,,,,,,,,,,,,,,,,,,
37,0,,html-keyboard-response,37,205888,0.0-4.2-3.2,2zdekk7xuc8,2022-09-19 15:31:31.040,5f0ef1582a709a00093a8b86,1,36,38,66,77,28,male,,,"<p style=""font-size:50px"">You Lose!
No points this round.</p>",,,,,,,,,,,,,,,,,,,,,,,,,,,,
38,0,,html-keyboard-response,38,206394,0.0-4.2-4.2,2zdekk7xuc8,2022-09-19 15:31:31.040,5f0ef1582a709a00093a8b86,1,36,38,66,77,28,male,,,,,,1.0,learning,2.0,C,,red,,stars,,,,C,red,stars,,1.0,0.0,NA,right,1744.7000000179,8.0,1.0,0.0,,,
39,0,,html-keyboard-response,39,207895,0.0-4.3-0.3,2zdekk7xuc8,2022-09-19 15:31:31.040,5f0ef1582a709a00093a8b86,1,36,38,66,77,28,male,,,"<img src=""static/images/cards/stack_of_black_stars.svg"" width=""175px"" height=""250px""></img>",,,,,,,,,,,,,,,,,,,,,,,,,,,,
40,0,,html-keyboard-response,40,209170,0.0-4.3-1.3,2zdekk7xuc8,2022-09-19 15:31:31.040,5f0ef1582a709a00093a8b86,1,36,38,66,77,28,male,769.400000006,,"
  <table>
  <tr height=300>
    <td width=300 height=300><img src=""static/images/cards/back_of_black_stars.svg"" width=""175px"" height=""250px""></img></td>
    <td width=300 height=300><img src=""static/images/cards/back_of_black_stars.svg"" width=""175px"" height=""250px""></img></td>
  </tr>
  <tr height=200>
    <td width=300><img src=""static/images/keys/z.svg"" width=""35%"" height=""75%""></img></td>
    <td width=300></td>
  </tr>
</table>
  ",90.0,1.0,,,,,,,,,,,,,,,,,,,,,,,,,,
41,0,,html-keyboard-response,41,210672,0.0-4.3-2.3,2zdekk7xuc8,2022-09-19 15:31:31.040,5f0ef1582a709a00093a8b86,1,36,38,66,77,28,male,,,"
  <table>
  <tr height=300>
    <td width=300 height=300><img src=""static/images/cards/4_of_black_stars.svg"" width=""175px"" height=""250px""></img></td>
    <td width=300 height=300><img src=""static/images/cards/back_of_black_stars.svg"" width=""175px"" height=""250px""></img></td>
  </tr>
  <tr height=200>
    <td width=300><img src=""static/images/keys/z.svg"" width=""35%"" height=""75%""></img></td>
    <td width=300></td>
  </tr>
</table>
  ",,,,,,,,,,,,,,,,,,,,,,,,,,,,
42,0,,html-keyboard-response,42,212176,0.0-4.3-3.3,2zdekk7xuc8,2022-09-19 15:31:31.040,5f0ef1582a709a00093a8b86,1,36,38,66,77,28,male,,,"<p style=""font-size:50px"">You Lose!
No points this round.</p>",,,,,,,,,,,,,,,,,,,,,,,,,,,,
43,0,,html-keyboard-response,43,212683,0.0-4.3-4.3,2zdekk7xuc8,2022-09-19 15:31:31.040,5f0ef1582a709a00093a8b86,1,36,38,66,77,28,male,,,,,,1.0,learning,3.0,D,,black,,stars,,,,D,black,stars,,0.0,0.0,1,left,769.400000006,4.0,0.0,0.0,,,
44,0,,html-keyboard-response,44,214184,0.0-4.4-0.4,2zdekk7xuc8,2022-09-19 15:31:31.040,5f0ef1582a709a00093a8b86,1,36,38,66,77,28,male,,,"<img src=""static/images/cards/stack_of_red_bolts.svg"" width=""175px"" height=""250px""></img>",,,,,,,,,,,,,,,,,,,,,,,,,,,,
45,0,,html-keyboard-response,45,215743,0.0-4.4-1.4,2zdekk7xuc8,2022-09-19 15:31:31.040,5f0ef1582a709a00093a8b86,1,36,38,66,77,28,male,1053.099999994,,"
  <table>
  <tr height=300>
    <td width=300 height=300><img src=""static/images/cards/back_of_red_bolts.svg"" width=""175px"" height=""250px""></img></td>
    <td width=300 height=300><img src=""static/images/cards/back_of_red_bolts.svg"" width=""175px"" height=""250px""></img></td>
  </tr>
  <tr height=200>
    <td width=300><img src=""static/images/keys/z.svg"" width=""35%"" height=""75%""></img></td>
    <td width=300><img src=""static/images/keys/m.svg"" width=""35%"" height=""75%""></img></td>
  </tr>
</table>
  ",90.0,1.0,,,,,,,,,,,,,,,,,,,,,,,,,,
46,0,,html-keyboard-response,46,217248,0.0-4.4-2.4,2zdekk7xuc8,2022-09-19 15:31:31.040,5f0ef1582a709a00093a8b86,1,36,38,66,77,28,male,,,"
  <table>
  <tr height=300>
    <td width=300 height=300><img src=""static/images/cards/10_of_red_bolts.svg"" width=""175px"" height=""250px""></img></td>
    <td width=300 height=300><img src=""static/images/cards/back_of_red_bolts.svg"" width=""175px"" height=""250px""></img></td>
  </tr>
  <tr height=200>
    <td width=300><img src=""static/images/keys/z.svg"" width=""35%"" height=""75%""></img></td>
    <td width=300><img src=""static/images/keys/m.svg"" width=""35%"" height=""75%""></img></td>
  </tr>
</table>
  ",,,,,,,,,,,,,,,,,,,,,,,,,,,,
47,0,,html-keyboard-response,47,218754,0.0-4.4-3.4,2zdekk7xuc8,2022-09-19 15:31:31.040,5f0ef1582a709a00093a8b86,1,36,38,66,77,28,male,,,"<p style=""font-size:50px"">You win!
+10 points this round!</p>",,,,,,,,,,,,,,,,,,,,,,,,,,,,
48,0,,html-keyboard-response,48,219263,0.0-4.4-4.4,2zdekk7xuc8,2022-09-19 15:31:31.040,5f0ef1582a709a00093a8b86,1,36,38,66,77,28,male,,,,,,1.0,learning,4.0,Xc,,red,,bolts,,,,Xc,red,bolts,,1.0,0.0,NA,left,1053.099999994,10.0,1.0,1.0,,,
49,0,,html-keyboard-response,49,220766,0.0-4.5-0.5,2zdekk7xuc8,2022-09-19 15:31:31.040,5f0ef1582a709a00093a8b86,1,36,38,66,77,28,male,,,"<img src=""static/images/cards/stack_of_black_bolts.svg"" width=""175px"" height=""250px""></img>",,,,,,,,,,,,,,,,,,,,,,,,,,,,
50,0,,html-keyboard-response,50,222218,0.0-4.5-1.5,2zdekk7xuc8,2022-09-19 15:31:31.040,5f0ef1582a709a00093a8b86,1,36,38,66,77,28,male,948.7999999821,,"
  <table>
  <tr height=300>
    <td width=300 height=300><img src=""static/images/cards/back_of_black_bolts.svg"" width=""175px"" height=""250px""></img></td>
    <td width=300 height=300><img src=""static/images/cards/back_of_black_bolts.svg"" width=""175px"" height=""250px""></img></td>
  </tr>
  <tr height=200>
    <td width=300></td>
    <td width=300><img src=""static/images/keys/m.svg"" width=""35%"" height=""75%""></img></td>
  </tr>
</table>
  ",77.0,1.0,,,,,,,,,,,,,,,,,,,,,,,,,,
51,0,,html-keyboard-response,51,223723,0.0-4.5-2.5,2zdekk7xuc8,2022-09-19 15:31:31.040,5f0ef1582a709a00093a8b86,1,36,38,66,77,28,male,,,"
  <table>
  <tr height=300>
    <td width=300 height=300><img src=""static/images/cards/back_of_black_bolts.svg"" width=""175px"" height=""250px""></img></td>
    <td width=300 height=300><img src=""static/images/cards/4_of_black_bolts.svg"" width=""175px"" height=""250px""></img></td>
  </tr>
  <tr height=200>
    <td width=300></td>
    <td width=300><img src=""static/images/keys/m.svg"" width=""35%"" height=""75%""></img></td>
  </tr>
</table>
  ",,,,,,,,,,,,,,,,,,,,,,,,,,,,
52,0,,html-keyboard-response,52,225227,0.0-4.5-3.5,2zdekk7xuc8,2022-09-19 15:31:31.040,5f0ef1582a709a00093a8b86,1,36,38,66,77,28,male,,,"<p style=""font-size:50px"">You win!
+10 points this round!</p>",,,,,,,,,,,,,,,,,,,,,,,,,,,,
53,0,,html-keyboard-response,53,225733,0.0-4.5-4.5,2zdekk7xuc8,2022-09-19 15:31:31.040,5f0ef1582a709a00093a8b86,1,36,38,66,77,28,male,,,,,,1.0,learning,5.0,Xnc,,black,,bolts,,,,Xnc,black,bolts,,0.0,0.0,0,right,948.7999999821,4.0,0.0,1.0,,,
54,0,,html-keyboard-response,54,227235,0.0-4.6-0.6,2zdekk7xuc8,2022-09-19 15:31:31.040,5f0ef1582a709a00093a8b86,1,36,38,66,77,28,male,,,"<img src=""static/images/cards/stack_of_red_moons.svg"" width=""175px"" height=""250px""></img>",,,,,,,,,,,,,,,,,,,,,,,,,,,,
55,0,,html-keyboard-response,55,228356,0.0-4.6-1.6,2zdekk7xuc8,2022-09-19 15:31:31.040,5f0ef1582a709a00093a8b86,1,36,38,66,77,28,male,615.3999999762,,"
  <table>
  <tr height=300>
    <td width=300 height=300><img src=""static/images/cards/back_of_red_moons.svg"" width=""175px"" height=""250px""></img></td>
    <td width=300 height=300><img src=""static/images/cards/back_of_red_moons.svg"" width=""175px"" height=""250px""></img></td>
  </tr>
  <tr height=200>
    <td width=300><img src=""static/images/keys/z.svg"" width=""35%"" height=""75%""></img></td>
    <td width=300><img src=""static/images/keys/m.svg"" width=""35%"" height=""75%""></img></td>
  </tr>
</table>
  ",90.0,1.0,,,,,,,,,,,,,,,,,,,,,,,,,,
56,0,,html-keyboard-response,56,229862,0.0-4.6-2.6,2zdekk7xuc8,2022-09-19 15:31:31.040,5f0ef1582a709a00093a8b86,1,36,38,66,77,28,male,,,"
  <table>
  <tr height=300>
    <td width=300 height=300><img src=""static/images/cards/7_of_red_moons.svg"" width=""175px"" height=""250px""></img></td>
    <td width=300 height=300><img src=""static/images/cards/back_of_red_moons.svg"" width=""175px"" height=""250px""></img></td>
  </tr>
  <tr height=200>
    <td width=300><img src=""static/images/keys/z.svg"" width=""35%"" height=""75%""></img></td>
    <td width=300><img src=""static/images/keys/m.svg"" width=""35%"" height=""75%""></img></td>
  </tr>
</table>
  ",,,,,,,,,,,,,,,,,,,,,,,,,,,,
57,0,,html-keyboard-response,57,231369,0.0-4.6-3.6,2zdekk7xuc8,2022-09-19 15:31:31.040,5f0ef1582a709a00093a8b86,1,36,38,66,77,28,male,,,"<p style=""font-size:50px"">You win!
+10 points this round!</p>",,,,,,,,,,,,,,,,,,,,,,,,,,,,
58,0,,html-keyboard-response,58,231878,0.0-4.6-4.6,2zdekk7xuc8,2022-09-19 15:31:31.040,5f0ef1582a709a00093a8b86,1,36,38,66,77,28,male,,,,,,1.0,learning,6.0,A,,red,,moons,,,,A,red,moons,,1.0,1.0,NA,left,615.3999999762,7.0,1.0,1.0,,,
59,0,,html-keyboard-response,59,233380,0.0-4.7-0.7,2zdekk7xuc8,2022-09-19 15:31:31.040,5f0ef1582a709a00093a8b86,1,36,38,66,77,28,male,,,"<img src=""static/images/cards/stack_of_black_moons.svg"" width=""175px"" height=""250px""></img>",,,,,,,,,,,,,,,,,,,,,,,,,,,,
60,0,,html-keyboard-response,60,234583,0.0-4.7-1.7,2zdekk7xuc8,2022-09-19 15:31:31.040,5f0ef1582a709a00093a8b86,1,36,38,66,77,28,male,699.0,,"
  <table>
  <tr height=300>
    <td width=300 height=300><img src=""static/images/cards/back_of_black_moons.svg"" width=""175px"" height=""250px""></img></td>
    <td width=300 height=300><img src=""static/images/cards/back_of_black_moons.svg"" width=""175px"" height=""250px""></img></td>
  </tr>
  <tr height=200>
    <td width=300><img src=""static/images/keys/z.svg"" width=""35%"" height=""75%""></img></td>
    <td width=300></td>
  </tr>
</table>
  ",90.0,1.0,,,,,,,,,,,,,,,,,,,,,,,,,,
61,0,,html-keyboard-response,61,236086,0.0-4.7-2.7,2zdekk7xuc8,2022-09-19 15:31:31.040,5f0ef1582a709a00093a8b86,1,36,38,66,77,28,male,,,"
  <table>
  <tr height=300>
    <td width=300 height=300><img src=""static/images/cards/7_of_black_moons.svg"" width=""175px"" height=""250px""></img></td>
    <td width=300 height=300><img src=""static/images/cards/back_of_black_moons.svg"" width=""175px"" height=""250px""></img></td>
  </tr>
  <tr height=200>
    <td width=300><img src=""static/images/keys/z.svg"" width=""35%"" height=""75%""></img></td>
    <td width=300></td>
  </tr>
</table>
  ",,,,,,,,,,,,,,,,,,,,,,,,,,,,
62,0,,html-keyboard-response,62,237595,0.0-4.7-3.7,2zdekk7xuc8,2022-09-19 15:31:31.040,5f0ef1582a709a00093a8b86,1,36,38,66,77,28,male,,,"<p style=""font-size:50px"">You win!
+10 points this round!</p>",,,,,,,,,,,,,,,,,,,,,,,,,,,,
63,0,,html-keyboard-response,63,238101,0.0-4.7-4.7,2zdekk7xuc8,2022-09-19 15:31:31.040,5f0ef1582a709a00093a8b86,1,36,38,66,77,28,male,,,,,,1.0,learning,7.0,B,,black,,moons,,,,B,black,moons,,0.0,1.0,1,left,699.0,7.0,1.0,1.0,,,
64,0,,html-keyboard-response,64,239602,0.0-4.8-0.8,2zdekk7xuc8,2022-09-19 15:31:31.040,5f0ef1582a709a00093a8b86,1,36,38,66,77,28,male,,,"<img src=""static/images/cards/stack_of_red_stars.svg"" width=""175px"" height=""250px""></img>",,,,,,,,,,,,,,,,,,,,,,,,,,,,
65,0,,html-keyboard-response,65,240889,0.0-4.8-1.8,2zdekk7xuc8,2022-09-19 15:31:31.040,5f0ef1582a709a00093a8b86,1,36,38,66,77,28,male,781.0,,"
  <table>
  <tr height=300>
    <td width=300 height=300><img src=""static/images/cards/back_of_red_stars.svg"" width=""175px"" height=""250px""></img></td>
    <td width=300 height=300><img src=""static/images/cards/back_of_red_stars.svg"" width=""175px"" height=""250px""></img></td>
  </tr>
  <tr height=200>
    <td width=300><img src=""static/images/keys/z.svg"" width=""35%"" height=""75%""></img></td>
    <td width=300><img src=""static/images/keys/m.svg"" width=""35%"" height=""75%""></img></td>
  </tr>
</table>
  ",77.0,1.0,,,,,,,,,,,,,,,,,,,,,,,,,,
66,0,,html-keyboard-response,66,242395,0.0-4.8-2.8,2zdekk7xuc8,2022-09-19 15:31:31.040,5f0ef1582a709a00093a8b86,1,36,38,66,77,28,male,,,"
  <table>
  <tr height=300>
    <td width=300 height=300><img src=""static/images/cards/back_of_red_stars.svg"" width=""175px"" height=""250px""></img></td>
    <td width=300 height=300><img src=""static/images/cards/6_of_red_stars.svg"" width=""175px"" height=""250px""></img></td>
  </tr>
  <tr height=200>
    <td width=300><img src=""static/images/keys/z.svg"" width=""35%"" height=""75%""></img></td>
    <td width=300><img src=""static/images/keys/m.svg"" width=""35%"" height=""75%""></img></td>
  </tr>
</table>
  ",,,,,,,,,,,,,,,,,,,,,,,,,,,,
67,0,,html-keyboard-response,67,243899,0.0-4.8-3.8,2zdekk7xuc8,2022-09-19 15:31:31.040,5f0ef1582a709a00093a8b86,1,36,38,66,77,28,male,,,"<p style=""font-size:50px"">You win!
+10 points this round!</p>",,,,,,,,,,,,,,,,,,,,,,,,,,,,
68,0,,html-keyboard-response,68,244405,0.0-4.8-4.8,2zdekk7xuc8,2022-09-19 15:31:31.040,5f0ef1582a709a00093a8b86,1,36,38,66,77,28,male,,,,,,1.0,learning,8.0,C,,red,,stars,,,,C,red,stars,,1.0,0.0,NA,right,781.0,6.0,1.0,1.0,,,
69,0,,html-keyboard-response,69,245907,0.0-4.9-0.9,2zdekk7xuc8,2022-09-19 15:31:31.040,5f0ef1582a709a00093a8b86,1,36,38,66,77,28,male,,,"<img src=""static/images/cards/stack_of_black_stars.svg"" width=""175px"" height=""250px""></img>",,,,,,,,,,,,,,,,,,,,,,,,,,,,
70,0,,html-keyboard-response,70,247324,0.0-4.9-1.9,2zdekk7xuc8,2022-09-19 15:31:31.040,5f0ef1582a709a00093a8b86,1,36,38,66,77,28,male,911.0,,"
  <table>
  <tr height=300>
    <td width=300 height=300><img src=""static/images/cards/back_of_black_stars.svg"" width=""175px"" height=""250px""></img></td>
    <td width=300 height=300><img src=""static/images/cards/back_of_black_stars.svg"" width=""175px"" height=""250px""></img></td>
  </tr>
  <tr height=200>
    <td width=300></td>
    <td width=300><img src=""static/images/keys/m.svg"" width=""35%"" height=""75%""></img></td>
  </tr>
</table>
  ",77.0,1.0,,,,,,,,,,,,,,,,,,,,,,,,,,
71,0,,html-keyboard-response,71,248830,0.0-4.9-2.9,2zdekk7xuc8,2022-09-19 15:31:31.040,5f0ef1582a709a00093a8b86,1,36,38,66,77,28,male,,,"
  <table>
  <tr height=300>
    <td width=300 height=300><img src=""static/images/cards/back_of_black_stars.svg"" width=""175px"" height=""250px""></img></td>
    <td width=300 height=300><img src=""static/images/cards/3_of_black_stars.svg"" width=""175px"" height=""250px""></img></td>
  </tr>
  <tr height=200>
    <td width=300></td>
    <td width=300><img src=""static/images/keys/m.svg"" width=""35%"" height=""75%""></img></td>
  </tr>
</table>
  ",,,,,,,,,,,,,,,,,,,,,,,,,,,,
72,0,,html-keyboard-response,72,250336,0.0-4.9-3.9,2zdekk7xuc8,2022-09-19 15:31:31.040,5f0ef1582a709a00093a8b86,1,36,38,66,77,28,male,,,"<p style=""font-size:50px"">You win!
+10 points this round!</p>",,,,,,,,,,,,,,,,,,,,,,,,,,,,
73,0,,html-keyboard-response,73,250842,0.0-4.9-4.9,2zdekk7xuc8,2022-09-19 15:31:31.040,5f0ef1582a709a00093a8b86,1,36,38,66,77,28,male,,,,,,1.0,learning,9.0,D,,black,,stars,,,,D,black,stars,,0.0,0.0,0,right,911.0,3.0,0.0,1.0,,,
74,0,,html-keyboard-response,74,252343,0.0-4.10-0.10,2zdekk7xuc8,2022-09-19 15:31:31.040,5f0ef1582a709a00093a8b86,1,36,38,66,77,28,male,,,"<img src=""static/images/cards/stack_of_red_bolts.svg"" width=""175px"" height=""250px""></img>",,,,,,,,,,,,,,,,,,,,,,,,,,,,
75,0,,html-keyboard-response,75,253196,0.0-4.10-1.10,2zdekk7xuc8,2022-09-19 15:31:31.040,5f0ef1582a709a00093a8b86,1,36,38,66,77,28,male,347.099999994,,"
  <table>
  <tr height=300>
    <td width=300 height=300><img src=""static/images/cards/back_of_red_bolts.svg"" width=""175px"" height=""250px""></img></td>
    <td width=300 height=300><img src=""static/images/cards/back_of_red_bolts.svg"" width=""175px"" height=""250px""></img></td>
  </tr>
  <tr height=200>
    <td width=300><img src=""static/images/keys/z.svg"" width=""35%"" height=""75%""></img></td>
    <td width=300><img src=""static/images/keys/m.svg"" width=""35%"" height=""75%""></img></td>
  </tr>
</table>
  ",77.0,1.0,,,,,,,,,,,,,,,,,,,,,,,,,,
76,0,,html-keyboard-response,76,254698,0.0-4.10-2.10,2zdekk7xuc8,2022-09-19 15:31:31.040,5f0ef1582a709a00093a8b86,1,36,38,66,77,28,male,,,"
  <table>
  <tr height=300>
    <td width=300 height=300><img src=""static/images/cards/back_of_red_bolts.svg"" width=""175px"" height=""250px""></img></td>
    <td width=300 height=300><img src=""static/images/cards/3_of_red_bolts.svg"" width=""175px"" height=""250px""></img></td>
  </tr>
  <tr height=200>
    <td width=300><img src=""static/images/keys/z.svg"" width=""35%"" height=""75%""></img></td>
    <td width=300><img src=""static/images/keys/m.svg"" width=""35%"" height=""75%""></img></td>
  </tr>
</table>
  ",,,,,,,,,,,,,,,,,,,,,,,,,,,,
77,0,,html-keyboard-response,77,256203,0.0-4.10-3.10,2zdekk7xuc8,2022-09-19 15:31:31.040,5f0ef1582a709a00093a8b86,1,36,38,66,77,28,male,,,"<p style=""font-size:50px"">You win!
+10 points this round!</p>",,,,,,,,,,,,,,,,,,,,,,,,,,,,
78,0,,html-keyboard-response,78,256708,0.0-4.10-4.10,2zdekk7xuc8,2022-09-19 15:31:31.040,5f0ef1582a709a00093a8b86,1,36,38,66,77,28,male,,,,,,1.0,learning,10.0,Xc,,red,,bolts,,,,Xc,red,bolts,,1.0,0.0,NA,right,347.099999994,3.0,0.0,1.0,,,
79,0,,html-keyboard-response,79,258212,0.0-4.11-0.11,2zdekk7xuc8,2022-09-19 15:31:31.040,5f0ef1582a709a00093a8b86,1,36,38,66,77,28,male,,,"<img src=""static/images/cards/stack_of_black_bolts.svg"" width=""175px"" height=""250px""></img>",,,,,,,,,,,,,,,,,,,,,,,,,,,,
80,0,,html-keyboard-response,80,259294,0.0-4.11-1.11,2zdekk7xuc8,2022-09-19 15:31:31.040,5f0ef1582a709a00093a8b86,1,36,38,66,77,28,male,578.099999994,,"
  <table>
  <tr height=300>
    <td width=300 height=300><img src=""static/images/cards/back_of_black_bolts.svg"" width=""175px"" height=""250px""></img></td>
    <td width=300 height=300><img src=""static/images/cards/back_of_black_bolts.svg"" width=""175px"" height=""250px""></img></td>
  </tr>
  <tr height=200>
    <td width=300><img src=""static/images/keys/z.svg"" width=""35%"" height=""75%""></img></td>
    <td width=300></td>
  </tr>
</table>
  ",90.0,1.0,,,,,,,,,,,,,,,,,,,,,,,,,,
81,0,,html-keyboard-response,81,260795,0.0-4.11-2.11,2zdekk7xuc8,2022-09-19 15:31:31.040,5f0ef1582a709a00093a8b86,1,36,38,66,77,28,male,,,"
  <table>
  <tr height=300>
    <td width=300 height=300><img src=""static/images/cards/9_of_black_bolts.svg"" width=""175px"" height=""250px""></img></td>
    <td width=300 height=300><img src=""static/images/cards/back_of_black_bolts.svg"" width=""175px"" height=""250px""></img></td>
  </tr>
  <tr height=200>
    <td width=300><img src=""static/images/keys/z.svg"" width=""35%"" height=""75%""></img></td>
    <td width=300></td>
  </tr>
</table>
  ",,,,,,,,,,,,,,,,,,,,,,,,,,,,
82,0,,html-keyboard-response,82,262299,0.0-4.11-3.11,2zdekk7xuc8,2022-09-19 15:31:31.040,5f0ef1582a709a00093a8b86,1,36,38,66,77,28,male,,,"<p style=""font-size:50px"">You win!
+10 points this round!</p>",,,,,,,,,,,,,,,,,,,,,,,,,,,,
83,0,,html-keyboard-response,83,262805,0.0-4.11-4.11,2zdekk7xuc8,2022-09-19 15:31:31.040,5f0ef1582a709a00093a8b86,1,36,38,66,77,28,male,,,,,,1.0,learning,11.0,Xnc,,black,,bolts,,,,Xnc,black,bolts,,0.0,0.0,1,left,578.099999994,9.0,1.0,1.0,,,
84,0,,html-keyboard-response,84,264307,0.0-4.12-0.12,2zdekk7xuc8,2022-09-19 15:31:31.040,5f0ef1582a709a00093a8b86,1,36,38,66,77,28,male,,,"<img src=""static/images/cards/stack_of_red_moons.svg"" width=""175px"" height=""250px""></img>",,,,,,,,,,,,,,,,,,,,,,,,,,,,
85,0,,html-keyboard-response,85,265070,0.0-4.12-1.12,2zdekk7xuc8,2022-09-19 15:31:31.040,5f0ef1582a709a00093a8b86,1,36,38,66,77,28,male,257.6999999881,,"
  <table>
  <tr height=300>
    <td width=300 height=300><img src=""static/images/cards/back_of_red_moons.svg"" width=""175px"" height=""250px""></img></td>
    <td width=300 height=300><img src=""static/images/cards/back_of_red_moons.svg"" width=""175px"" height=""250px""></img></td>
  </tr>
  <tr height=200>
    <td width=300><img src=""static/images/keys/z.svg"" width=""35%"" height=""75%""></img></td>
    <td width=300><img src=""static/images/keys/m.svg"" width=""35%"" height=""75%""></img></td>
  </tr>
</table>
  ",77.0,1.0,,,,,,,,,,,,,,,,,,,,,,,,,,
86,0,,html-keyboard-response,86,266572,0.0-4.12-2.12,2zdekk7xuc8,2022-09-19 15:31:31.040,5f0ef1582a709a00093a8b86,1,36,38,66,77,28,male,,,"
  <table>
  <tr height=300>
    <td width=300 height=300><img src=""static/images/cards/back_of_red_moons.svg"" width=""175px"" height=""250px""></img></td>
    <td width=300 height=300><img src=""static/images/cards/4_of_red_moons.svg"" width=""175px"" height=""250px""></img></td>
  </tr>
  <tr height=200>
    <td width=300><img src=""static/images/keys/z.svg"" width=""35%"" height=""75%""></img></td>
    <td width=300><img src=""static/images/keys/m.svg"" width=""35%"" height=""75%""></img></td>
  </tr>
</table>
  ",,,,,,,,,,,,,,,,,,,,,,,,,,,,
87,0,,html-keyboard-response,87,268076,0.0-4.12-3.12,2zdekk7xuc8,2022-09-19 15:31:31.040,5f0ef1582a709a00093a8b86,1,36,38,66,77,28,male,,,"<p style=""font-size:50px"">You Lose!
No points this round.</p>",,,,,,,,,,,,,,,,,,,,,,,,,,,,
88,0,,html-keyboard-response,88,268586,0.0-4.12-4.12,2zdekk7xuc8,2022-09-19 15:31:31.040,5f0ef1582a709a00093a8b86,1,36,38,66,77,28,male,,,,,,1.0,learning,12.0,A,,red,,moons,,,,A,red,moons,,1.0,1.0,NA,right,257.6999999881,4.0,0.0,0.0,,,
89,0,,html-keyboard-response,89,270088,0.0-4.13-0.13,2zdekk7xuc8,2022-09-19 15:31:31.040,5f0ef1582a709a00093a8b86,1,36,38,66,77,28,male,,,"<img src=""static/images/cards/stack_of_black_moons.svg"" width=""175px"" height=""250px""></img>",,,,,,,,,,,,,,,,,,,,,,,,,,,,
90,0,,html-keyboard-response,90,270729,0.0-4.13-1.13,2zdekk7xuc8,2022-09-19 15:31:31.040,5f0ef1582a709a00093a8b86,1,36,38,66,77,28,male,137.099999994,,"
  <table>
  <tr height=300>
    <td width=300 height=300><img src=""static/images/cards/back_of_black_moons.svg"" width=""175px"" height=""250px""></img></td>
    <td width=300 height=300><img src=""static/images/cards/back_of_black_moons.svg"" width=""175px"" height=""250px""></img></td>
  </tr>
  <tr height=200>
    <td width=300></td>
    <td width=300><img src=""static/images/keys/m.svg"" width=""35%"" height=""75%""></img></td>
  </tr>
</table>
  ",77.0,1.0,,,,,,,,,,,,,,,,,,,,,,,,,,
91,0,,html-keyboard-response,91,272231,0.0-4.13-2.13,2zdekk7xuc8,2022-09-19 15:31:31.040,5f0ef1582a709a00093a8b86,1,36,38,66,77,28,male,,,"
  <table>
  <tr height=300>
    <td width=300 height=300><img src=""static/images/cards/back_of_black_moons.svg"" width=""175px"" height=""250px""></img></td>
    <td width=300 height=300><img src=""static/images/cards/1_of_black_moons.svg"" width=""175px"" height=""250px""></img></td>
  </tr>
  <tr height=200>
    <td width=300></td>
    <td width=300><img src=""static/images/keys/m.svg"" width=""35%"" height=""75%""></img></td>
  </tr>
</table>
  ",,,,,,,,,,,,,,,,,,,,,,,,,,,,
92,0,,html-keyboard-response,92,273739,0.0-4.13-3.13,2zdekk7xuc8,2022-09-19 15:31:31.040,5f0ef1582a709a00093a8b86,1,36,38,66,77,28,male,,,"<p style=""font-size:50px"">You Lose!
No points this round.</p>",,,,,,,,,,,,,,,,,,,,,,,,,,,,
93,0,,html-keyboard-response,93,274244,0.0-4.13-4.13,2zdekk7xuc8,2022-09-19 15:31:31.040,5f0ef1582a709a00093a8b86,1,36,38,66,77,28,male,,,,,,1.0,learning,13.0,B,,black,,moons,,,,B,black,moons,,0.0,1.0,0,right,137.099999994,1.0,0.0,0.0,,,
94,0,,html-keyboard-response,94,275745,0.0-4.14-0.14,2zdekk7xuc8,2022-09-19 15:31:31.040,5f0ef1582a709a00093a8b86,1,36,38,66,77,28,male,,,"<img src=""static/images/cards/stack_of_red_stars.svg"" width=""175px"" height=""250px""></img>",,,,,,,,,,,,,,,,,,,,,,,,,,,,
95,0,,html-keyboard-response,95,276277,0.0-4.14-1.14,2zdekk7xuc8,2022-09-19 15:31:31.040,5f0ef1582a709a00093a8b86,1,36,38,66,77,28,male,27.3000000119,,"
  <table>
  <tr height=300>
    <td width=300 height=300><img src=""static/images/cards/back_of_red_stars.svg"" width=""175px"" height=""250px""></img></td>
    <td width=300 height=300><img src=""static/images/cards/back_of_red_stars.svg"" width=""175px"" height=""250px""></img></td>
  </tr>
  <tr height=200>
    <td width=300><img src=""static/images/keys/z.svg"" width=""35%"" height=""75%""></img></td>
    <td width=300><img src=""static/images/keys/m.svg"" width=""35%"" height=""75%""></img></td>
  </tr>
</table>
  ",90.0,1.0,,,,,,,,,,,,,,,,,,,,,,,,,,
96,0,,html-keyboard-response,96,277781,0.0-4.14-2.14,2zdekk7xuc8,2022-09-19 15:31:31.040,5f0ef1582a709a00093a8b86,1,36,38,66,77,28,male,,,"
  <table>
  <tr height=300>
    <td width=300 height=300><img src=""static/images/cards/4_of_red_stars.svg"" width=""175px"" height=""250px""></img></td>
    <td width=300 height=300><img src=""static/images/cards/back_of_red_stars.svg"" width=""175px"" height=""250px""></img></td>
  </tr>
  <tr height=200>
    <td width=300><img src=""static/images/keys/z.svg"" width=""35%"" height=""75%""></img></td>
    <td width=300><img src=""static/images/keys/m.svg"" width=""35%"" height=""75%""></img></td>
  </tr>
</table>
  ",,,,,,,,,,,,,,,,,,,,,,,,,,,,
97,0,,html-keyboard-response,97,279285,0.0-4.14-3.14,2zdekk7xuc8,2022-09-19 15:31:31.040,5f0ef1582a709a00093a8b86,1,36,38,66,77,28,male,,,"<p style=""font-size:50px"">You Lose!
No points this round.</p>",,,,,,,,,,,,,,,,,,,,,,,,,,,,
98,0,,html-keyboard-response,98,279792,0.0-4.14-4.14,2zdekk7xuc8,2022-09-19 15:31:31.040,5f0ef1582a709a00093a8b86,1,36,38,66,77,28,male,,,,,,1.0,learning,14.0,C,,red,,stars,,,,C,red,stars,,1.0,0.0,NA,left,27.3000000119,4.0,0.0,0.0,,,
99,0,,html-keyboard-response,99,281293,0.0-4.15-0.15,2zdekk7xuc8,2022-09-19 15:31:31.040,5f0ef1582a709a00093a8b86,1,36,38,66,77,28,male,,,"<img src=""static/images/cards/stack_of_black_stars.svg"" width=""175px"" height=""250px""></img>",,,,,,,,,,,,,,,,,,,,,,,,,,,,
100,0,,html-keyboard-response,100,282054,0.0-4.15-1.15,2zdekk7xuc8,2022-09-19 15:31:31.040,5f0ef1582a709a00093a8b86,1,36,38,66,77,28,male,255.8000000119,,"
  <table>
  <tr height=300>
    <td width=300 height=300><img src=""static/images/cards/back_of_black_stars.svg"" width=""175px"" height=""250px""></img></td>
    <td width=300 height=300><img src=""static/images/cards/back_of_black_stars.svg"" width=""175px"" height=""250px""></img></td>
  </tr>
  <tr height=200>
    <td width=300></td>
    <td width=300><img src=""static/images/keys/m.svg"" width=""35%"" height=""75%""></img></td>
  </tr>
</table>
  ",77.0,2.0,,,,,,,,,,,,,,,,,,,,,,,,,,
101,0,,html-keyboard-response,101,283557,0.0-4.15-2.15,2zdekk7xuc8,2022-09-19 15:31:31.040,5f0ef1582a709a00093a8b86,1,36,38,66,77,28,male,,,"
  <table>
  <tr height=300>
    <td width=300 height=300><img src=""static/images/cards/back_of_black_stars.svg"" width=""175px"" height=""250px""></img></td>
    <td width=300 height=300><img src=""static/images/cards/7_of_black_stars.svg"" width=""175px"" height=""250px""></img></td>
  </tr>
  <tr height=200>
    <td width=300></td>
    <td width=300><img src=""static/images/keys/m.svg"" width=""35%"" height=""75%""></img></td>
  </tr>
</table>
  ",,,,,,,,,,,,,,,,,,,,,,,,,,,,
102,0,,html-keyboard-response,102,285060,0.0-4.15-3.15,2zdekk7xuc8,2022-09-19 15:31:31.040,5f0ef1582a709a00093a8b86,1,36,38,66,77,28,male,,,"<p style=""font-size:50px"">You Lose!
No points this round.</p>",,,,,,,,,,,,,,,,,,,,,,,,,,,,
103,0,,html-keyboard-response,103,285567,0.0-4.15-4.15,2zdekk7xuc8,2022-09-19 15:31:31.040,5f0ef1582a709a00093a8b86,1,36,38,66,77,28,male,,,,,,1.0,learning,15.0,D,,black,,stars,,,,D,black,stars,,0.0,0.0,0,right,255.8000000119,7.0,1.0,0.0,,,
104,0,,html-keyboard-response,104,287069,0.0-4.16-0.16,2zdekk7xuc8,2022-09-19 15:31:31.040,5f0ef1582a709a00093a8b86,1,36,38,66,77,28,male,,,"<img src=""static/images/cards/stack_of_red_bolts.svg"" width=""175px"" height=""250px""></img>",,,,,,,,,,,,,,,,,,,,,,,,,,,,
105,0,,html-keyboard-response,105,287886,0.0-4.16-1.16,2zdekk7xuc8,2022-09-19 15:31:31.040,5f0ef1582a709a00093a8b86,1,36,38,66,77,28,male,311.1999999881,,"
  <table>
  <tr height=300>
    <td width=300 height=300><img src=""static/images/cards/back_of_red_bolts.svg"" width=""175px"" height=""250px""></img></td>
    <td width=300 height=300><img src=""static/images/cards/back_of_red_bolts.svg"" width=""175px"" height=""250px""></img></td>
  </tr>
  <tr height=200>
    <td width=300><img src=""static/images/keys/z.svg"" width=""35%"" height=""75%""></img></td>
    <td width=300><img src=""static/images/keys/m.svg"" width=""35%"" height=""75%""></img></td>
  </tr>
</table>
  ",90.0,1.0,,,,,,,,,,,,,,,,,,,,,,,,,,
106,0,,html-keyboard-response,106,289392,0.0-4.16-2.16,2zdekk7xuc8,2022-09-19 15:31:31.040,5f0ef1582a709a00093a8b86,1,36,38,66,77,28,male,,,"
  <table>
  <tr height=300>
    <td width=300 height=300><img src=""static/images/cards/3_of_red_bolts.svg"" width=""175px"" height=""250px""></img></td>
    <td width=300 height=300><img src=""static/images/cards/back_of_red_bolts.svg"" width=""175px"" height=""250px""></img></td>
  </tr>
  <tr height=200>
    <td width=300><img src=""static/images/keys/z.svg"" width=""35%"" height=""75%""></img></td>
    <td width=300><img src=""static/images/keys/m.svg"" width=""35%"" height=""75%""></img></td>
  </tr>
</table>
  ",,,,,,,,,,,,,,,,,,,,,,,,,,,,
107,0,,html-keyboard-response,107,290898,0.0-4.16-3.16,2zdekk7xuc8,2022-09-19 15:31:31.040,5f0ef1582a709a00093a8b86,1,36,38,66,77,28,male,,,"<p style=""font-size:50px"">You win!
+10 points this round!</p>",,,,,,,,,,,,,,,,,,,,,,,,,,,,
108,0,,html-keyboard-response,108,291408,0.0-4.16-4.16,2zdekk7xuc8,2022-09-19 15:31:31.040,5f0ef1582a709a00093a8b86,1,36,38,66,77,28,male,,,,,,1.0,learning,16.0,Xc,,red,,bolts,,,,Xc,red,bolts,,1.0,0.0,NA,left,311.1999999881,3.0,0.0,1.0,,,
109,0,,html-keyboard-response,109,292910,0.0-4.17-0.17,2zdekk7xuc8,2022-09-19 15:31:31.040,5f0ef1582a709a00093a8b86,1,36,38,66,77,28,male,,,"<img src=""static/images/cards/stack_of_black_bolts.svg"" width=""175px"" height=""250px""></img>",,,,,,,,,,,,,,,,,,,,,,,,,,,,
110,0,,html-keyboard-response,110,293914,0.0-4.17-1.17,2zdekk7xuc8,2022-09-19 15:31:31.040,5f0ef1582a709a00093a8b86,1,36,38,66,77,28,male,498.400000006,,"
  <table>
  <tr height=300>
    <td width=300 height=300><img src=""static/images/cards/back_of_black_bolts.svg"" width=""175px"" height=""250px""></img></td>
    <td width=300 height=300><img src=""static/images/cards/back_of_black_bolts.svg"" width=""175px"" height=""250px""></img></td>
  </tr>
  <tr height=200>
    <td width=300><img src=""static/images/keys/z.svg"" width=""35%"" height=""75%""></img></td>
    <td width=300></td>
  </tr>
</table>
  ",90.0,1.0,,,,,,,,,,,,,,,,,,,,,,,,,,
111,0,,html-keyboard-response,111,295418,0.0-4.17-2.17,2zdekk7xuc8,2022-09-19 15:31:31.040,5f0ef1582a709a00093a8b86,1,36,38,66,77,28,male,,,"
  <table>
  <tr height=300>
    <td width=300 height=300><img src=""static/images/cards/1_of_black_bolts.svg"" width=""175px"" height=""250px""></img></td>
    <td width=300 height=300><img src=""static/images/cards/back_of_black_bolts.svg"" width=""175px"" height=""250px""></img></td>
  </tr>
  <tr height=200>
    <td width=300><img src=""static/images/keys/z.svg"" width=""35%"" height=""75%""></img></td>
    <td width=300></td>
  </tr>
</table>
  ",,,,,,,,,,,,,,,,,,,,,,,,,,,,
112,0,,html-keyboard-response,112,296927,0.0-4.17-3.17,2zdekk7xuc8,2022-09-19 15:31:31.040,5f0ef1582a709a00093a8b86,1,36,38,66,77,28,male,,,"<p style=""font-size:50px"">You win!
+10 points this round!</p>",,,,,,,,,,,,,,,,,,,,,,,,,,,,
113,0,,html-keyboard-response,113,297433,0.0-4.17-4.17,2zdekk7xuc8,2022-09-19 15:31:31.040,5f0ef1582a709a00093a8b86,1,36,38,66,77,28,male,,,,,,1.0,learning,17.0,Xnc,,black,,bolts,,,,Xnc,black,bolts,,0.0,0.0,1,left,498.400000006,1.0,0.0,1.0,,,
114,0,,html-keyboard-response,114,298935,0.0-4.18-0.18,2zdekk7xuc8,2022-09-19 15:31:31.040,5f0ef1582a709a00093a8b86,1,36,38,66,77,28,male,,,"<img src=""static/images/cards/stack_of_red_moons.svg"" width=""175px"" height=""250px""></img>",,,,,,,,,,,,,,,,,,,,,,,,,,,,
115,0,,html-keyboard-response,115,299444,0.0-4.18-1.18,2zdekk7xuc8,2022-09-19 15:31:31.040,5f0ef1582a709a00093a8b86,1,36,38,66,77,28,male,3.099999994,,"
  <table>
  <tr height=300>
    <td width=300 height=300><img src=""static/images/cards/back_of_red_moons.svg"" width=""175px"" height=""250px""></img></td>
    <td width=300 height=300><img src=""static/images/cards/back_of_red_moons.svg"" width=""175px"" height=""250px""></img></td>
  </tr>
  <tr height=200>
    <td width=300><img src=""static/images/keys/z.svg"" width=""35%"" height=""75%""></img></td>
    <td width=300><img src=""static/images/keys/m.svg"" width=""35%"" height=""75%""></img></td>
  </tr>
</table>
  ",77.0,1.0,,,,,,,,,,,,,,,,,,,,,,,,,,
116,0,,html-keyboard-response,116,300949,0.0-4.18-2.18,2zdekk7xuc8,2022-09-19 15:31:31.040,5f0ef1582a709a00093a8b86,1,36,38,66,77,28,male,,,"
  <table>
  <tr height=300>
    <td width=300 height=300><img src=""static/images/cards/back_of_red_moons.svg"" width=""175px"" height=""250px""></img></td>
    <td width=300 height=300><img src=""static/images/cards/9_of_red_moons.svg"" width=""175px"" height=""250px""></img></td>
  </tr>
  <tr height=200>
    <td width=300><img src=""static/images/keys/z.svg"" width=""35%"" height=""75%""></img></td>
    <td width=300><img src=""static/images/keys/m.svg"" width=""35%"" height=""75%""></img></td>
  </tr>
</table>
  ",,,,,,,,,,,,,,,,,,,,,,,,,,,,
117,0,,html-keyboard-response,117,302456,0.0-4.18-3.18,2zdekk7xuc8,2022-09-19 15:31:31.040,5f0ef1582a709a00093a8b86,1,36,38,66,77,28,male,,,"<p style=""font-size:50px"">You win!
+10 points this round!</p>",,,,,,,,,,,,,,,,,,,,,,,,,,,,
118,0,,html-keyboard-response,118,302964,0.0-4.18-4.18,2zdekk7xuc8,2022-09-19 15:31:31.040,5f0ef1582a709a00093a8b86,1,36,38,66,77,28,male,,,,,,1.0,learning,18.0,A,,red,,moons,,,,A,red,moons,,1.0,1.0,NA,right,3.099999994,9.0,1.0,1.0,,,
119,0,,html-keyboard-response,119,304466,0.0-4.19-0.19,2zdekk7xuc8,2022-09-19 15:31:31.040,5f0ef1582a709a00093a8b86,1,36,38,66,77,28,male,,,"<img src=""static/images/cards/stack_of_black_moons.svg"" width=""175px"" height=""250px""></img>",,,,,,,,,,,,,,,,,,,,,,,,,,,,
120,0,,html-keyboard-response,120,305592,0.0-4.19-1.19,2zdekk7xuc8,2022-09-19 15:31:31.040,5f0ef1582a709a00093a8b86,1,36,38,66,77,28,male,621.2999999821,,"
  <table>
  <tr height=300>
    <td width=300 height=300><img src=""static/images/cards/back_of_black_moons.svg"" width=""175px"" height=""250px""></img></td>
    <td width=300 height=300><img src=""static/images/cards/back_of_black_moons.svg"" width=""175px"" height=""250px""></img></td>
  </tr>
  <tr height=200>
    <td width=300></td>
    <td width=300><img src=""static/images/keys/m.svg"" width=""35%"" height=""75%""></img></td>
  </tr>
</table>
  ",77.0,1.0,,,,,,,,,,,,,,,,,,,,,,,,,,
121,0,,html-keyboard-response,121,307098,0.0-4.19-2.19,2zdekk7xuc8,2022-09-19 15:31:31.040,5f0ef1582a709a00093a8b86,1,36,38,66,77,28,male,,,"
  <table>
  <tr height=300>
    <td width=300 height=300><img src=""static/images/cards/back_of_black_moons.svg"" width=""175px"" height=""250px""></img></td>
    <td width=300 height=300><img src=""static/images/cards/6_of_black_moons.svg"" width=""175px"" height=""250px""></img></td>
  </tr>
  <tr height=200>
    <td width=300></td>
    <td width=300><img src=""static/images/keys/m.svg"" width=""35%"" height=""75%""></img></td>
  </tr>
</table>
  ",,,,,,,,,,,,,,,,,,,,,,,,,,,,
122,0,,html-keyboard-response,122,308605,0.0-4.19-3.19,2zdekk7xuc8,2022-09-19 15:31:31.040,5f0ef1582a709a00093a8b86,1,36,38,66,77,28,male,,,"<p style=""font-size:50px"">You win!
+10 points this round!</p>",,,,,,,,,,,,,,,,,,,,,,,,,,,,
123,0,,html-keyboard-response,123,309113,0.0-4.19-4.19,2zdekk7xuc8,2022-09-19 15:31:31.040,5f0ef1582a709a00093a8b86,1,36,38,66,77,28,male,,,,,,1.0,learning,19.0,B,,black,,moons,,,,B,black,moons,,0.0,1.0,0,right,621.2999999821,6.0,1.0,1.0,,,
124,0,,html-keyboard-response,124,310615,0.0-4.20-0.20,2zdekk7xuc8,2022-09-19 15:31:31.040,5f0ef1582a709a00093a8b86,1,36,38,66,77,28,male,,,"<img src=""static/images/cards/stack_of_red_stars.svg"" width=""175px"" height=""250px""></img>",,,,,,,,,,,,,,,,,,,,,,,,,,,,
125,0,,html-keyboard-response,125,311731,0.0-4.20-1.20,2zdekk7xuc8,2022-09-19 15:31:31.040,5f0ef1582a709a00093a8b86,1,36,38,66,77,28,male,610.400000006,,"
  <table>
  <tr height=300>
    <td width=300 height=300><img src=""static/images/cards/back_of_red_stars.svg"" width=""175px"" height=""250px""></img></td>
    <td width=300 height=300><img src=""static/images/cards/back_of_red_stars.svg"" width=""175px"" height=""250px""></img></td>
  </tr>
  <tr height=200>
    <td width=300><img src=""static/images/keys/z.svg"" width=""35%"" height=""75%""></img></td>
    <td width=300><img src=""static/images/keys/m.svg"" width=""35%"" height=""75%""></img></td>
  </tr>
</table>
  ",77.0,1.0,,,,,,,,,,,,,,,,,,,,,,,,,,
126,0,,html-keyboard-response,126,313237,0.0-4.20-2.20,2zdekk7xuc8,2022-09-19 15:31:31.040,5f0ef1582a709a00093a8b86,1,36,38,66,77,28,male,,,"
  <table>
  <tr height=300>
    <td width=300 height=300><img src=""static/images/cards/back_of_red_stars.svg"" width=""175px"" height=""250px""></img></td>
    <td width=300 height=300><img src=""static/images/cards/2_of_red_stars.svg"" width=""175px"" height=""250px""></img></td>
  </tr>
  <tr height=200>
    <td width=300><img src=""static/images/keys/z.svg"" width=""35%"" height=""75%""></img></td>
    <td width=300><img src=""static/images/keys/m.svg"" width=""35%"" height=""75%""></img></td>
  </tr>
</table>
  ",,,,,,,,,,,,,,,,,,,,,,,,,,,,
127,0,,html-keyboard-response,127,314746,0.0-4.20-3.20,2zdekk7xuc8,2022-09-19 15:31:31.040,5f0ef1582a709a00093a8b86,1,36,38,66,77,28,male,,,"<p style=""font-size:50px"">You win!
+10 points this round!</p>",,,,,,,,,,,,,,,,,,,,,,,,,,,,
128,0,,html-keyboard-response,128,315256,0.0-4.20-4.20,2zdekk7xuc8,2022-09-19 15:31:31.040,5f0ef1582a709a00093a8b86,1,36,38,66,77,28,male,,,,,,1.0,learning,20.0,C,,red,,stars,,,,C,red,stars,,1.0,0.0,NA,right,610.400000006,2.0,0.0,1.0,,,
129,0,,html-keyboard-response,129,316758,0.0-4.21-0.21,2zdekk7xuc8,2022-09-19 15:31:31.040,5f0ef1582a709a00093a8b86,1,36,38,66,77,28,male,,,"<img src=""static/images/cards/stack_of_black_stars.svg"" width=""175px"" height=""250px""></img>",,,,,,,,,,,,,,,,,,,,,,,,,,,,
130,0,,html-keyboard-response,130,318566,0.0-4.21-1.21,2zdekk7xuc8,2022-09-19 15:31:31.040,5f0ef1582a709a00093a8b86,1,36,38,66,77,28,male,1306.1000000238,,"
  <table>
  <tr height=300>
    <td width=300 height=300><img src=""static/images/cards/back_of_black_stars.svg"" width=""175px"" height=""250px""></img></td>
    <td width=300 height=300><img src=""static/images/cards/back_of_black_stars.svg"" width=""175px"" height=""250px""></img></td>
  </tr>
  <tr height=200>
    <td width=300></td>
    <td width=300><img src=""static/images/keys/m.svg"" width=""35%"" height=""75%""></img></td>
  </tr>
</table>
  ",77.0,3.0,,,,,,,,,,,,,,,,,,,,,,,,,,
131,0,,html-keyboard-response,131,320069,0.0-4.21-2.21,2zdekk7xuc8,2022-09-19 15:31:31.040,5f0ef1582a709a00093a8b86,1,36,38,66,77,28,male,,,"
  <table>
  <tr height=300>
    <td width=300 height=300><img src=""static/images/cards/back_of_black_stars.svg"" width=""175px"" height=""250px""></img></td>
    <td width=300 height=300><img src=""static/images/cards/8_of_black_stars.svg"" width=""175px"" height=""250px""></img></td>
  </tr>
  <tr height=200>
    <td width=300></td>
    <td width=300><img src=""static/images/keys/m.svg"" width=""35%"" height=""75%""></img></td>
  </tr>
</table>
  ",,,,,,,,,,,,,,,,,,,,,,,,,,,,
132,0,,html-keyboard-response,132,321575,0.0-4.21-3.21,2zdekk7xuc8,2022-09-19 15:31:31.040,5f0ef1582a709a00093a8b86,1,36,38,66,77,28,male,,,"<p style=""font-size:50px"">You win!
+10 points this round!</p>",,,,,,,,,,,,,,,,,,,,,,,,,,,,
133,0,,html-keyboard-response,133,322084,0.0-4.21-4.21,2zdekk7xuc8,2022-09-19 15:31:31.040,5f0ef1582a709a00093a8b86,1,36,38,66,77,28,male,,,,,,1.0,learning,21.0,D,,black,,stars,,,,D,black,stars,,0.0,0.0,0,right,1306.1000000238,8.0,1.0,1.0,,,
134,0,,html-keyboard-response,134,323586,0.0-4.22-0.22,2zdekk7xuc8,2022-09-19 15:31:31.040,5f0ef1582a709a00093a8b86,1,36,38,66,77,28,male,,,"<img src=""static/images/cards/stack_of_red_bolts.svg"" width=""175px"" height=""250px""></img>",,,,,,,,,,,,,,,,,,,,,,,,,,,,
135,0,,html-keyboard-response,135,325052,0.0-4.22-1.22,2zdekk7xuc8,2022-09-19 15:31:31.040,5f0ef1582a709a00093a8b86,1,36,38,66,77,28,male,960.599999994,,"
  <table>
  <tr height=300>
    <td width=300 height=300><img src=""static/images/cards/back_of_red_bolts.svg"" width=""175px"" height=""250px""></img></td>
    <td width=300 height=300><img src=""static/images/cards/back_of_red_bolts.svg"" width=""175px"" height=""250px""></img></td>
  </tr>
  <tr height=200>
    <td width=300><img src=""static/images/keys/z.svg"" width=""35%"" height=""75%""></img></td>
    <td width=300><img src=""static/images/keys/m.svg"" width=""35%"" height=""75%""></img></td>
  </tr>
</table>
  ",77.0,1.0,,,,,,,,,,,,,,,,,,,,,,,,,,
136,0,,html-keyboard-response,136,326554,0.0-4.22-2.22,2zdekk7xuc8,2022-09-19 15:31:31.040,5f0ef1582a709a00093a8b86,1,36,38,66,77,28,male,,,"
  <table>
  <tr height=300>
    <td width=300 height=300><img src=""static/images/cards/back_of_red_bolts.svg"" width=""175px"" height=""250px""></img></td>
    <td width=300 height=300><img src=""static/images/cards/6_of_red_bolts.svg"" width=""175px"" height=""250px""></img></td>
  </tr>
  <tr height=200>
    <td width=300><img src=""static/images/keys/z.svg"" width=""35%"" height=""75%""></img></td>
    <td width=300><img src=""static/images/keys/m.svg"" width=""35%"" height=""75%""></img></td>
  </tr>
</table>
  ",,,,,,,,,,,,,,,,,,,,,,,,,,,,
137,0,,html-keyboard-response,137,328058,0.0-4.22-3.22,2zdekk7xuc8,2022-09-19 15:31:31.040,5f0ef1582a709a00093a8b86,1,36,38,66,77,28,male,,,"<p style=""font-size:50px"">You win!
+10 points this round!</p>",,,,,,,,,,,,,,,,,,,,,,,,,,,,
138,0,,html-keyboard-response,138,328568,0.0-4.22-4.22,2zdekk7xuc8,2022-09-19 15:31:31.040,5f0ef1582a709a00093a8b86,1,36,38,66,77,28,male,,,,,,1.0,learning,22.0,Xc,,red,,bolts,,,,Xc,red,bolts,,1.0,0.0,NA,right,960.599999994,6.0,1.0,1.0,,,
139,0,,html-keyboard-response,139,330069,0.0-4.23-0.23,2zdekk7xuc8,2022-09-19 15:31:31.040,5f0ef1582a709a00093a8b86,1,36,38,66,77,28,male,,,"<img src=""static/images/cards/stack_of_black_bolts.svg"" width=""175px"" height=""250px""></img>",,,,,,,,,,,,,,,,,,,,,,,,,,,,
140,0,,html-keyboard-response,140,330630,0.0-4.23-1.23,2zdekk7xuc8,2022-09-19 15:31:31.040,5f0ef1582a709a00093a8b86,1,36,38,66,77,28,male,55.7999999821,,"
  <table>
  <tr height=300>
    <td width=300 height=300><img src=""static/images/cards/back_of_black_bolts.svg"" width=""175px"" height=""250px""></img></td>
    <td width=300 height=300><img src=""static/images/cards/back_of_black_bolts.svg"" width=""175px"" height=""250px""></img></td>
  </tr>
  <tr height=200>
    <td width=300></td>
    <td width=300><img src=""static/images/keys/m.svg"" width=""35%"" height=""75%""></img></td>
  </tr>
</table>
  ",77.0,1.0,,,,,,,,,,,,,,,,,,,,,,,,,,
141,0,,html-keyboard-response,141,332132,0.0-4.23-2.23,2zdekk7xuc8,2022-09-19 15:31:31.040,5f0ef1582a709a00093a8b86,1,36,38,66,77,28,male,,,"
  <table>
  <tr height=300>
    <td width=300 height=300><img src=""static/images/cards/back_of_black_bolts.svg"" width=""175px"" height=""250px""></img></td>
    <td width=300 height=300><img src=""static/images/cards/6_of_black_bolts.svg"" width=""175px"" height=""250px""></img></td>
  </tr>
  <tr height=200>
    <td width=300></td>
    <td width=300><img src=""static/images/keys/m.svg"" width=""35%"" height=""75%""></img></td>
  </tr>
</table>
  ",,,,,,,,,,,,,,,,,,,,,,,,,,,,
142,0,,html-keyboard-response,142,333635,0.0-4.23-3.23,2zdekk7xuc8,2022-09-19 15:31:31.040,5f0ef1582a709a00093a8b86,1,36,38,66,77,28,male,,,"<p style=""font-size:50px"">You win!
+10 points this round!</p>",,,,,,,,,,,,,,,,,,,,,,,,,,,,
143,0,,html-keyboard-response,143,334142,0.0-4.23-4.23,2zdekk7xuc8,2022-09-19 15:31:31.040,5f0ef1582a709a00093a8b86,1,36,38,66,77,28,male,,,,,,1.0,learning,23.0,Xnc,,black,,bolts,,,,Xnc,black,bolts,,0.0,0.0,0,right,55.7999999821,6.0,1.0,1.0,,,
144,0,,call-function,144,334150,0.0-5.0,2zdekk7xuc8,2022-09-19 15:31:31.040,5f0ef1582a709a00093a8b86,1,36,38,66,77,28,male,,,,,,,,,,,,,,,,,,,,,,,,,,,,,,,
145,0,,image-keyboard-response,145,342399,0.0-6.0-0.0,2zdekk7xuc8,2022-09-19 15:31:31.040,5f0ef1582a709a00093a8b86,1,36,38,66,77,28,male,8249.099999994,,static/images/instructions_CB_1/Slide20.png,39.0,,,,,,,,,,,,,,,,,,,,,,,,,,,
146,0,,image-keyboard-response,146,357208,0.0-6.1-0.1,2zdekk7xuc8,2022-09-19 15:31:31.040,5f0ef1582a709a00093a8b86,1,36,38,66,77,28,male,14807.8000000119,,static/images/instructions_CB_1/Slide21.png,39.0,,,,,,,,,,,,,,,,,,,,,,,,,,,
147,0,,image-keyboard-response,147,365394,0.0-6.2-0.2,2zdekk7xuc8,2022-09-19 15:31:31.040,5f0ef1582a709a00093a8b86,1,36,38,66,77,28,male,8184.8999999762,,static/images/instructions_CB_1/Slide22.png,39.0,,,,,,,,,,,,,,,,,,,,,,,,,,,
148,0,,image-keyboard-response,148,366531,0.0-6.3-0.3,2zdekk7xuc8,2022-09-19 15:31:31.040,5f0ef1582a709a00093a8b86,1,36,38,66,77,28,male,1136.599999994,,static/images/instructions_CB_1/Slide23.png,39.0,,,,,,,,,,,,,,,,,,,,,,,,,,,
149,0,,image-keyboard-response,149,369151,0.0-6.4-0.4,2zdekk7xuc8,2022-09-19 15:31:31.040,5f0ef1582a709a00093a8b86,1,36,38,66,77,28,male,2618.8000000119,,static/images/instructions_CB_1/Slide24.png,39.0,,,,,,,,,,,,,,,,,,,,,,,,,,,
150,0,,html-keyboard-response,150,371304,0.0-7.0-0.0,2zdekk7xuc8,2022-09-19 15:31:31.040,5f0ef1582a709a00093a8b86,1,36,38,66,77,28,male,2151.400000006,,"
  <table>
  <tr height=300>
    <td width=300 height=300><img src=""static/images/cards/stack_of_black_moons.svg"" width=""175px"" height=""250px""></img></td>
    <td width=300 height=300><img src=""static/images/cards/stack_of_red_moons.svg"" width=""175px"" height=""250px""></img></td>
  </tr>
  <tr height=200>
    <td width=300><img src=""static/images/keys/w.svg"" width=""35%"" height=""75%""></img></td>
    <td width=300><img src=""static/images/keys/o.svg"" width=""35%"" height=""75%""></img></td>
  </tr>
</table>
  ",79.0,1.0,,,,,,,,,,,,,,,,,,,,,,,,,,
151,0,,html-keyboard-response,151,373540,0.0-7.0-1.0,2zdekk7xuc8,2022-09-19 15:31:31.040,5f0ef1582a709a00093a8b86,1,36,38,66,77,28,male,1731.599999994,,"
  <table>
  <tr height=300>
    <td width=300 height=300><img src=""static/images/cards/back_of_red_moons.svg"" width=""175px"" height=""250px""></img></td>
    <td width=300 height=300><img src=""static/images/cards/back_of_red_moons.svg"" width=""175px"" height=""250px""></img></td>
  </tr>
  <tr height=200>
    <td width=300><img src=""static/images/keys/z.svg"" width=""35%"" height=""75%""></img></td>
    <td width=300><img src=""static/images/keys/m.svg"" width=""35%"" height=""75%""></img></td>
  </tr>
</table>
  ",90.0,1.0,,,,,,,,,,,,,,,,,,,,,,,,,,
152,0,,html-keyboard-response,152,375044,0.0-7.0-2.0,2zdekk7xuc8,2022-09-19 15:31:31.040,5f0ef1582a709a00093a8b86,1,36,38,66,77,28,male,,,"
  <table>
  <tr height=300>
    <td width=300 height=300><img src=""static/images/cards/6_of_red_moons.svg"" width=""175px"" height=""250px""></img></td>
    <td width=300 height=300><img src=""static/images/cards/back_of_red_moons.svg"" width=""175px"" height=""250px""></img></td>
  </tr>
  <tr height=200>
    <td width=300><img src=""static/images/keys/z.svg"" width=""35%"" height=""75%""></img></td>
    <td width=300><img src=""static/images/keys/m.svg"" width=""35%"" height=""75%""></img></td>
  </tr>
</table>
  ",,,,,,,,,,,,,,,,,,,,,,,,,,,,
153,0,,html-keyboard-response,153,376548,0.0-7.0-3.0,2zdekk7xuc8,2022-09-19 15:31:31.040,5f0ef1582a709a00093a8b86,1,36,38,66,77,28,male,,,"<p style=""font-size:50px"">You win!
+10 points this round!</p>",,,,,,,,,,,,,,,,,,,,,,,,,,,,
154,0,,html-keyboard-response,154,377055,0.0-7.0-4.0,2zdekk7xuc8,2022-09-19 15:31:31.040,5f0ef1582a709a00093a8b86,1,36,38,66,77,28,male,,,,,,1.0,choice,0.0,A,B,black,red,moons,moons,B,A,A,red,moons,2151.400000006,1.0,1.0,NA,left,1731.599999994,6.0,1.0,1.0,,,
155,0,,html-keyboard-response,155,379494,0.0-7.1-0.1,2zdekk7xuc8,2022-09-19 15:31:31.040,5f0ef1582a709a00093a8b86,1,36,38,66,77,28,male,2437.3000000119,,"
  <table>
  <tr height=300>
    <td width=300 height=300><img src=""static/images/cards/stack_of_red_moons.svg"" width=""175px"" height=""250px""></img></td>
    <td width=300 height=300><img src=""static/images/cards/stack_of_black_stars.svg"" width=""175px"" height=""250px""></img></td>
  </tr>
  <tr height=200>
    <td width=300><img src=""static/images/keys/w.svg"" width=""35%"" height=""75%""></img></td>
    <td width=300><img src=""static/images/keys/o.svg"" width=""35%"" height=""75%""></img></td>
  </tr>
</table>
  ",87.0,1.0,,,,,,,,,,,,,,,,,,,,,,,,,,
156,0,,html-keyboard-response,156,380964,0.0-7.1-1.1,2zdekk7xuc8,2022-09-19 15:31:31.040,5f0ef1582a709a00093a8b86,1,36,38,66,77,28,male,968.900000006,,"
  <table>
  <tr height=300>
    <td width=300 height=300><img src=""static/images/cards/back_of_red_moons.svg"" width=""175px"" height=""250px""></img></td>
    <td width=300 height=300><img src=""static/images/cards/back_of_red_moons.svg"" width=""175px"" height=""250px""></img></td>
  </tr>
  <tr height=200>
    <td width=300><img src=""static/images/keys/z.svg"" width=""35%"" height=""75%""></img></td>
    <td width=300><img src=""static/images/keys/m.svg"" width=""35%"" height=""75%""></img></td>
  </tr>
</table>
  ",90.0,1.0,,,,,,,,,,,,,,,,,,,,,,,,,,
157,0,,html-keyboard-response,157,382468,0.0-7.1-2.1,2zdekk7xuc8,2022-09-19 15:31:31.040,5f0ef1582a709a00093a8b86,1,36,38,66,77,28,male,,,"
  <table>
  <tr height=300>
    <td width=300 height=300><img src=""static/images/cards/4_of_red_moons.svg"" width=""175px"" height=""250px""></img></td>
    <td width=300 height=300><img src=""static/images/cards/back_of_red_moons.svg"" width=""175px"" height=""250px""></img></td>
  </tr>
  <tr height=200>
    <td width=300><img src=""static/images/keys/z.svg"" width=""35%"" height=""75%""></img></td>
    <td width=300><img src=""static/images/keys/m.svg"" width=""35%"" height=""75%""></img></td>
  </tr>
</table>
  ",,,,,,,,,,,,,,,,,,,,,,,,,,,,
158,0,,html-keyboard-response,158,383972,0.0-7.1-3.1,2zdekk7xuc8,2022-09-19 15:31:31.040,5f0ef1582a709a00093a8b86,1,36,38,66,77,28,male,,,"<p style=""font-size:50px"">You Lose!
No points this round.</p>",,,,,,,,,,,,,,,,,,,,,,,,,,,,
159,0,,html-keyboard-response,159,384478,0.0-7.1-4.1,2zdekk7xuc8,2022-09-19 15:31:31.040,5f0ef1582a709a00093a8b86,1,36,38,66,77,28,male,,,,,,1.0,choice,1.0,A,D,red,black,moons,stars,A,D,A,red,moons,2437.3000000119,1.0,1.0,NA,left,968.900000006,4.0,0.0,0.0,,,
160,0,,html-keyboard-response,160,386059,0.0-7.2-0.2,2zdekk7xuc8,2022-09-19 15:31:31.040,5f0ef1582a709a00093a8b86,1,36,38,66,77,28,male,1579.6999999881,,"
  <table>
  <tr height=300>
    <td width=300 height=300><img src=""static/images/cards/stack_of_red_bolts.svg"" width=""175px"" height=""250px""></img></td>
    <td width=300 height=300><img src=""static/images/cards/stack_of_red_moons.svg"" width=""175px"" height=""250px""></img></td>
  </tr>
  <tr height=200>
    <td width=300><img src=""static/images/keys/w.svg"" width=""35%"" height=""75%""></img></td>
    <td width=300><img src=""static/images/keys/o.svg"" width=""35%"" height=""75%""></img></td>
  </tr>
</table>
  ",79.0,1.0,,,,,,,,,,,,,,,,,,,,,,,,,,
161,0,,html-keyboard-response,161,387818,0.0-7.2-1.2,2zdekk7xuc8,2022-09-19 15:31:31.040,5f0ef1582a709a00093a8b86,1,36,38,66,77,28,male,1252.400000006,,"
  <table>
  <tr height=300>
    <td width=300 height=300><img src=""static/images/cards/back_of_red_moons.svg"" width=""175px"" height=""250px""></img></td>
    <td width=300 height=300><img src=""static/images/cards/back_of_red_moons.svg"" width=""175px"" height=""250px""></img></td>
  </tr>
  <tr height=200>
    <td width=300><img src=""static/images/keys/z.svg"" width=""35%"" height=""75%""></img></td>
    <td width=300><img src=""static/images/keys/m.svg"" width=""35%"" height=""75%""></img></td>
  </tr>
</table>
  ",77.0,1.0,,,,,,,,,,,,,,,,,,,,,,,,,,
162,0,,html-keyboard-response,162,389322,0.0-7.2-2.2,2zdekk7xuc8,2022-09-19 15:31:31.040,5f0ef1582a709a00093a8b86,1,36,38,66,77,28,male,,,"
  <table>
  <tr height=300>
    <td width=300 height=300><img src=""static/images/cards/back_of_red_moons.svg"" width=""175px"" height=""250px""></img></td>
    <td width=300 height=300><img src=""static/images/cards/2_of_red_moons.svg"" width=""175px"" height=""250px""></img></td>
  </tr>
  <tr height=200>
    <td width=300><img src=""static/images/keys/z.svg"" width=""35%"" height=""75%""></img></td>
    <td width=300><img src=""static/images/keys/m.svg"" width=""35%"" height=""75%""></img></td>
  </tr>
</table>
  ",,,,,,,,,,,,,,,,,,,,,,,,,,,,
163,0,,html-keyboard-response,163,390827,0.0-7.2-3.2,2zdekk7xuc8,2022-09-19 15:31:31.040,5f0ef1582a709a00093a8b86,1,36,38,66,77,28,male,,,"<p style=""font-size:50px"">You Lose!
No points this round.</p>",,,,,,,,,,,,,,,,,,,,,,,,,,,,
164,0,,html-keyboard-response,164,391337,0.0-7.2-4.2,2zdekk7xuc8,2022-09-19 15:31:31.040,5f0ef1582a709a00093a8b86,1,36,38,66,77,28,male,,,,,,1.0,choice,2.0,A,Xc,red,red,bolts,moons,Xc,A,A,red,moons,1579.6999999881,1.0,1.0,NA,right,1252.400000006,2.0,0.0,0.0,,,
165,0,,html-keyboard-response,165,392049,0.0-7.3-0.3,2zdekk7xuc8,2022-09-19 15:31:31.040,5f0ef1582a709a00093a8b86,1,36,38,66,77,28,male,710.1999999881,,"
  <table>
  <tr height=300>
    <td width=300 height=300><img src=""static/images/cards/stack_of_black_stars.svg"" width=""175px"" height=""250px""></img></td>
    <td width=300 height=300><img src=""static/images/cards/stack_of_red_stars.svg"" width=""175px"" height=""250px""></img></td>
  </tr>
  <tr height=200>
    <td width=300><img src=""static/images/keys/w.svg"" width=""35%"" height=""75%""></img></td>
    <td width=300><img src=""static/images/keys/o.svg"" width=""35%"" height=""75%""></img></td>
  </tr>
</table>
  ",79.0,1.0,,,,,,,,,,,,,,,,,,,,,,,,,,
166,0,,html-keyboard-response,166,393612,0.0-7.3-1.3,2zdekk7xuc8,2022-09-19 15:31:31.040,5f0ef1582a709a00093a8b86,1,36,38,66,77,28,male,1057.3000000119,,"
  <table>
  <tr height=300>
    <td width=300 height=300><img src=""static/images/cards/back_of_red_stars.svg"" width=""175px"" height=""250px""></img></td>
    <td width=300 height=300><img src=""static/images/cards/back_of_red_stars.svg"" width=""175px"" height=""250px""></img></td>
  </tr>
  <tr height=200>
    <td width=300><img src=""static/images/keys/z.svg"" width=""35%"" height=""75%""></img></td>
    <td width=300><img src=""static/images/keys/m.svg"" width=""35%"" height=""75%""></img></td>
  </tr>
</table>
  ",77.0,1.0,,,,,,,,,,,,,,,,,,,,,,,,,,
167,0,,html-keyboard-response,167,395118,0.0-7.3-2.3,2zdekk7xuc8,2022-09-19 15:31:31.040,5f0ef1582a709a00093a8b86,1,36,38,66,77,28,male,,,"
  <table>
  <tr height=300>
    <td width=300 height=300><img src=""static/images/cards/back_of_red_stars.svg"" width=""175px"" height=""250px""></img></td>
    <td width=300 height=300><img src=""static/images/cards/8_of_red_stars.svg"" width=""175px"" height=""250px""></img></td>
  </tr>
  <tr height=200>
    <td width=300><img src=""static/images/keys/z.svg"" width=""35%"" height=""75%""></img></td>
    <td width=300><img src=""static/images/keys/m.svg"" width=""35%"" height=""75%""></img></td>
  </tr>
</table>
  ",,,,,,,,,,,,,,,,,,,,,,,,,,,,
168,0,,html-keyboard-response,168,396623,0.0-7.3-3.3,2zdekk7xuc8,2022-09-19 15:31:31.040,5f0ef1582a709a00093a8b86,1,36,38,66,77,28,male,,,"<p style=""font-size:50px"">You Lose!
No points this round.</p>",,,,,,,,,,,,,,,,,,,,,,,,,,,,
169,0,,html-keyboard-response,169,397129,0.0-7.3-4.3,2zdekk7xuc8,2022-09-19 15:31:31.040,5f0ef1582a709a00093a8b86,1,36,38,66,77,28,male,,,,,,1.0,choice,3.0,C,D,black,red,stars,stars,D,C,C,red,stars,710.1999999881,1.0,0.0,NA,right,1057.3000000119,8.0,1.0,0.0,,,
170,0,,html-keyboard-response,170,398402,0.0-7.4-0.4,2zdekk7xuc8,2022-09-19 15:31:31.040,5f0ef1582a709a00093a8b86,1,36,38,66,77,28,male,1271.0,,"
  <table>
  <tr height=300>
    <td width=300 height=300><img src=""static/images/cards/stack_of_black_moons.svg"" width=""175px"" height=""250px""></img></td>
    <td width=300 height=300><img src=""static/images/cards/stack_of_black_stars.svg"" width=""175px"" height=""250px""></img></td>
  </tr>
  <tr height=200>
    <td width=300><img src=""static/images/keys/w.svg"" width=""35%"" height=""75%""></img></td>
    <td width=300><img src=""static/images/keys/o.svg"" width=""35%"" height=""75%""></img></td>
  </tr>
</table>
  ",87.0,1.0,,,,,,,,,,,,,,,,,,,,,,,,,,
171,0,,html-keyboard-response,171,400428,0.0-7.4-1.4,2zdekk7xuc8,2022-09-19 15:31:31.040,5f0ef1582a709a00093a8b86,1,36,38,66,77,28,male,1520.8000000119,,"
  <table>
  <tr height=300>
    <td width=300 height=300><img src=""static/images/cards/back_of_black_moons.svg"" width=""175px"" height=""250px""></img></td>
    <td width=300 height=300><img src=""static/images/cards/back_of_black_moons.svg"" width=""175px"" height=""250px""></img></td>
  </tr>
  <tr height=200>
    <td width=300><img src=""static/images/keys/z.svg"" width=""35%"" height=""75%""></img></td>
    <td width=300></td>
  </tr>
</table>
  ",90.0,1.0,,,,,,,,,,,,,,,,,,,,,,,,,,
172,0,,html-keyboard-response,172,401933,0.0-7.4-2.4,2zdekk7xuc8,2022-09-19 15:31:31.040,5f0ef1582a709a00093a8b86,1,36,38,66,77,28,male,,,"
  <table>
  <tr height=300>
    <td width=300 height=300><img src=""static/images/cards/4_of_black_moons.svg"" width=""175px"" height=""250px""></img></td>
    <td width=300 height=300><img src=""static/images/cards/back_of_black_moons.svg"" width=""175px"" height=""250px""></img></td>
  </tr>
  <tr height=200>
    <td width=300><img src=""static/images/keys/z.svg"" width=""35%"" height=""75%""></img></td>
    <td width=300></td>
  </tr>
</table>
  ",,,,,,,,,,,,,,,,,,,,,,,,,,,,
173,0,,html-keyboard-response,173,403439,0.0-7.4-3.4,2zdekk7xuc8,2022-09-19 15:31:31.040,5f0ef1582a709a00093a8b86,1,36,38,66,77,28,male,,,"<p style=""font-size:50px"">You Lose!
No points this round.</p>",,,,,,,,,,,,,,,,,,,,,,,,,,,,
174,0,,html-keyboard-response,174,403945,0.0-7.4-4.4,2zdekk7xuc8,2022-09-19 15:31:31.040,5f0ef1582a709a00093a8b86,1,36,38,66,77,28,male,,,,,,1.0,choice,4.0,B,D,black,black,moons,stars,B,D,B,black,moons,1271.0,0.0,1.0,1,left,1520.8000000119,4.0,0.0,0.0,,,
175,0,,html-keyboard-response,175,405333,0.0-7.5-0.5,2zdekk7xuc8,2022-09-19 15:31:31.040,5f0ef1582a709a00093a8b86,1,36,38,66,77,28,male,1385.7999999821,,"
  <table>
  <tr height=300>
    <td width=300 height=300><img src=""static/images/cards/stack_of_red_moons.svg"" width=""175px"" height=""250px""></img></td>
    <td width=300 height=300><img src=""static/images/cards/stack_of_black_moons.svg"" width=""175px"" height=""250px""></img></td>
  </tr>
  <tr height=200>
    <td width=300><img src=""static/images/keys/w.svg"" width=""35%"" height=""75%""></img></td>
    <td width=300><img src=""static/images/keys/o.svg"" width=""35%"" height=""75%""></img></td>
  </tr>
</table>
  ",79.0,1.0,,,,,,,,,,,,,,,,,,,,,,,,,,
176,0,,html-keyboard-response,176,406900,0.0-7.5-1.5,2zdekk7xuc8,2022-09-19 15:31:31.040,5f0ef1582a709a00093a8b86,1,36,38,66,77,28,male,1065.8000000119,,"
  <table>
  <tr height=300>
    <td width=300 height=300><img src=""static/images/cards/back_of_black_moons.svg"" width=""175px"" height=""250px""></img></td>
    <td width=300 height=300><img src=""static/images/cards/back_of_black_moons.svg"" width=""175px"" height=""250px""></img></td>
  </tr>
  <tr height=200>
    <td width=300></td>
    <td width=300><img src=""static/images/keys/m.svg"" width=""35%"" height=""75%""></img></td>
  </tr>
</table>
  ",77.0,1.0,,,,,,,,,,,,,,,,,,,,,,,,,,
177,0,,html-keyboard-response,177,408404,0.0-7.5-2.5,2zdekk7xuc8,2022-09-19 15:31:31.040,5f0ef1582a709a00093a8b86,1,36,38,66,77,28,male,,,"
  <table>
  <tr height=300>
    <td width=300 height=300><img src=""static/images/cards/back_of_black_moons.svg"" width=""175px"" height=""250px""></img></td>
    <td width=300 height=300><img src=""static/images/cards/1_of_black_moons.svg"" width=""175px"" height=""250px""></img></td>
  </tr>
  <tr height=200>
    <td width=300></td>
    <td width=300><img src=""static/images/keys/m.svg"" width=""35%"" height=""75%""></img></td>
  </tr>
</table>
  ",,,,,,,,,,,,,,,,,,,,,,,,,,,,
178,0,,html-keyboard-response,178,409908,0.0-7.5-3.5,2zdekk7xuc8,2022-09-19 15:31:31.040,5f0ef1582a709a00093a8b86,1,36,38,66,77,28,male,,,"<p style=""font-size:50px"">You Lose!
No points this round.</p>",,,,,,,,,,,,,,,,,,,,,,,,,,,,
179,0,,html-keyboard-response,179,410414,0.0-7.5-4.5,2zdekk7xuc8,2022-09-19 15:31:31.040,5f0ef1582a709a00093a8b86,1,36,38,66,77,28,male,,,,,,1.0,choice,5.0,A,B,red,black,moons,moons,A,B,B,black,moons,1385.7999999821,0.0,1.0,0,right,1065.8000000119,1.0,0.0,0.0,,,
180,0,,html-keyboard-response,180,412817,0.0-7.6-0.6,2zdekk7xuc8,2022-09-19 15:31:31.040,5f0ef1582a709a00093a8b86,1,36,38,66,77,28,male,2400.6999999881,,"
  <table>
  <tr height=300>
    <td width=300 height=300><img src=""static/images/cards/stack_of_black_moons.svg"" width=""175px"" height=""250px""></img></td>
    <td width=300 height=300><img src=""static/images/cards/stack_of_red_stars.svg"" width=""175px"" height=""250px""></img></td>
  </tr>
  <tr height=200>
    <td width=300><img src=""static/images/keys/w.svg"" width=""35%"" height=""75%""></img></td>
    <td width=300><img src=""static/images/keys/o.svg"" width=""35%"" height=""75%""></img></td>
  </tr>
</table>
  ",87.0,1.0,,,,,,,,,,,,,,,,,,,,,,,,,,
181,0,,html-keyboard-response,181,414937,0.0-7.6-1.6,2zdekk7xuc8,2022-09-19 15:31:31.040,5f0ef1582a709a00093a8b86,1,36,38,66,77,28,male,1614.6999999881,,"
  <table>
  <tr height=300>
    <td width=300 height=300><img src=""static/images/cards/back_of_black_moons.svg"" width=""175px"" height=""250px""></img></td>
    <td width=300 height=300><img src=""static/images/cards/back_of_black_moons.svg"" width=""175px"" height=""250px""></img></td>
  </tr>
  <tr height=200>
    <td width=300></td>
    <td width=300><img src=""static/images/keys/m.svg"" width=""35%"" height=""75%""></img></td>
  </tr>
</table>
  ",77.0,1.0,,,,,,,,,,,,,,,,,,,,,,,,,,
182,0,,html-keyboard-response,182,416441,0.0-7.6-2.6,2zdekk7xuc8,2022-09-19 15:31:31.040,5f0ef1582a709a00093a8b86,1,36,38,66,77,28,male,,,"
  <table>
  <tr height=300>
    <td width=300 height=300><img src=""static/images/cards/back_of_black_moons.svg"" width=""175px"" height=""250px""></img></td>
    <td width=300 height=300><img src=""static/images/cards/6_of_black_moons.svg"" width=""175px"" height=""250px""></img></td>
  </tr>
  <tr height=200>
    <td width=300></td>
    <td width=300><img src=""static/images/keys/m.svg"" width=""35%"" height=""75%""></img></td>
  </tr>
</table>
  ",,,,,,,,,,,,,,,,,,,,,,,,,,,,
183,0,,html-keyboard-response,183,417949,0.0-7.6-3.6,2zdekk7xuc8,2022-09-19 15:31:31.040,5f0ef1582a709a00093a8b86,1,36,38,66,77,28,male,,,"<p style=""font-size:50px"">You win!
+10 points this round!</p>",,,,,,,,,,,,,,,,,,,,,,,,,,,,
184,0,,html-keyboard-response,184,418457,0.0-7.6-4.6,2zdekk7xuc8,2022-09-19 15:31:31.040,5f0ef1582a709a00093a8b86,1,36,38,66,77,28,male,,,,,,1.0,choice,6.0,B,C,black,red,moons,stars,B,C,B,black,moons,2400.6999999881,0.0,1.0,0,right,1614.6999999881,6.0,1.0,1.0,,,
185,0,,html-keyboard-response,185,421113,0.0-7.7-0.7,2zdekk7xuc8,2022-09-19 15:31:31.040,5f0ef1582a709a00093a8b86,1,36,38,66,77,28,male,2654.7000000179,,"
  <table>
  <tr height=300>
    <td width=300 height=300><img src=""static/images/cards/stack_of_black_moons.svg"" width=""175px"" height=""250px""></img></td>
    <td width=300 height=300><img src=""static/images/cards/stack_of_black_stars.svg"" width=""175px"" height=""250px""></img></td>
  </tr>
  <tr height=200>
    <td width=300><img src=""static/images/keys/w.svg"" width=""35%"" height=""75%""></img></td>
    <td width=300><img src=""static/images/keys/o.svg"" width=""35%"" height=""75%""></img></td>
  </tr>
</table>
  ",87.0,2.0,,,,,,,,,,,,,,,,,,,,,,,,,,
186,0,,html-keyboard-response,186,423050,0.0-7.7-1.7,2zdekk7xuc8,2022-09-19 15:31:31.040,5f0ef1582a709a00093a8b86,1,36,38,66,77,28,male,1434.599999994,,"
  <table>
  <tr height=300>
    <td width=300 height=300><img src=""static/images/cards/back_of_black_moons.svg"" width=""175px"" height=""250px""></img></td>
    <td width=300 height=300><img src=""static/images/cards/back_of_black_moons.svg"" width=""175px"" height=""250px""></img></td>
  </tr>
  <tr height=200>
    <td width=300><img src=""static/images/keys/z.svg"" width=""35%"" height=""75%""></img></td>
    <td width=300></td>
  </tr>
</table>
  ",90.0,1.0,,,,,,,,,,,,,,,,,,,,,,,,,,
187,0,,html-keyboard-response,187,424555,0.0-7.7-2.7,2zdekk7xuc8,2022-09-19 15:31:31.040,5f0ef1582a709a00093a8b86,1,36,38,66,77,28,male,,,"
  <table>
  <tr height=300>
    <td width=300 height=300><img src=""static/images/cards/10_of_black_moons.svg"" width=""175px"" height=""250px""></img></td>
    <td width=300 height=300><img src=""static/images/cards/back_of_black_moons.svg"" width=""175px"" height=""250px""></img></td>
  </tr>
  <tr height=200>
    <td width=300><img src=""static/images/keys/z.svg"" width=""35%"" height=""75%""></img></td>
    <td width=300></td>
  </tr>
</table>
  ",,,,,,,,,,,,,,,,,,,,,,,,,,,,
188,0,,html-keyboard-response,188,426063,0.0-7.7-3.7,2zdekk7xuc8,2022-09-19 15:31:31.040,5f0ef1582a709a00093a8b86,1,36,38,66,77,28,male,,,"<p style=""font-size:50px"">You win!
+10 points this round!</p>",,,,,,,,,,,,,,,,,,,,,,,,,,,,
189,0,,html-keyboard-response,189,426568,0.0-7.7-4.7,2zdekk7xuc8,2022-09-19 15:31:31.040,5f0ef1582a709a00093a8b86,1,36,38,66,77,28,male,,,,,,1.0,choice,7.0,B,D,black,black,moons,stars,B,D,B,black,moons,2654.7000000179,0.0,1.0,1,left,1434.599999994,10.0,1.0,1.0,,,
190,0,,html-keyboard-response,190,427968,0.0-7.8-0.8,2zdekk7xuc8,2022-09-19 15:31:31.040,5f0ef1582a709a00093a8b86,1,36,38,66,77,28,male,1398.099999994,,"
  <table>
  <tr height=300>
    <td width=300 height=300><img src=""static/images/cards/stack_of_red_moons.svg"" width=""175px"" height=""250px""></img></td>
    <td width=300 height=300><img src=""static/images/cards/stack_of_red_stars.svg"" width=""175px"" height=""250px""></img></td>
  </tr>
  <tr height=200>
    <td width=300><img src=""static/images/keys/w.svg"" width=""35%"" height=""75%""></img></td>
    <td width=300><img src=""static/images/keys/o.svg"" width=""35%"" height=""75%""></img></td>
  </tr>
</table>
  ",79.0,1.0,,,,,,,,,,,,,,,,,,,,,,,,,,
191,0,,html-keyboard-response,191,429718,0.0-7.8-1.8,2zdekk7xuc8,2022-09-19 15:31:31.040,5f0ef1582a709a00093a8b86,1,36,38,66,77,28,male,1243.8000000119,,"
  <table>
  <tr height=300>
    <td width=300 height=300><img src=""static/images/cards/back_of_red_stars.svg"" width=""175px"" height=""250px""></img></td>
    <td width=300 height=300><img src=""static/images/cards/back_of_red_stars.svg"" width=""175px"" height=""250px""></img></td>
  </tr>
  <tr height=200>
    <td width=300><img src=""static/images/keys/z.svg"" width=""35%"" height=""75%""></img></td>
    <td width=300><img src=""static/images/keys/m.svg"" width=""35%"" height=""75%""></img></td>
  </tr>
</table>
  ",77.0,1.0,,,,,,,,,,,,,,,,,,,,,,,,,,
192,0,,html-keyboard-response,192,431222,0.0-7.8-2.8,2zdekk7xuc8,2022-09-19 15:31:31.040,5f0ef1582a709a00093a8b86,1,36,38,66,77,28,male,,,"
  <table>
  <tr height=300>
    <td width=300 height=300><img src=""static/images/cards/back_of_red_stars.svg"" width=""175px"" height=""250px""></img></td>
    <td width=300 height=300><img src=""static/images/cards/1_of_red_stars.svg"" width=""175px"" height=""250px""></img></td>
  </tr>
  <tr height=200>
    <td width=300><img src=""static/images/keys/z.svg"" width=""35%"" height=""75%""></img></td>
    <td width=300><img src=""static/images/keys/m.svg"" width=""35%"" height=""75%""></img></td>
  </tr>
</table>
  ",,,,,,,,,,,,,,,,,,,,,,,,,,,,
193,0,,html-keyboard-response,193,432729,0.0-7.8-3.8,2zdekk7xuc8,2022-09-19 15:31:31.040,5f0ef1582a709a00093a8b86,1,36,38,66,77,28,male,,,"<p style=""font-size:50px"">You win!
+10 points this round!</p>",,,,,,,,,,,,,,,,,,,,,,,,,,,,
194,0,,html-keyboard-response,194,433236,0.0-7.8-4.8,2zdekk7xuc8,2022-09-19 15:31:31.040,5f0ef1582a709a00093a8b86,1,36,38,66,77,28,male,,,,,,1.0,choice,8.0,A,C,red,red,moons,stars,A,C,C,red,stars,1398.099999994,1.0,0.0,NA,right,1243.8000000119,1.0,0.0,1.0,,,
195,0,,html-keyboard-response,195,434635,0.0-7.9-0.9,2zdekk7xuc8,2022-09-19 15:31:31.040,5f0ef1582a709a00093a8b86,1,36,38,66,77,28,male,1397.900000006,,"
  <table>
  <tr height=300>
    <td width=300 height=300><img src=""static/images/cards/stack_of_red_moons.svg"" width=""175px"" height=""250px""></img></td>
    <td width=300 height=300><img src=""static/images/cards/stack_of_black_moons.svg"" width=""175px"" height=""250px""></img></td>
  </tr>
  <tr height=200>
    <td width=300><img src=""static/images/keys/w.svg"" width=""35%"" height=""75%""></img></td>
    <td width=300><img src=""static/images/keys/o.svg"" width=""35%"" height=""75%""></img></td>
  </tr>
</table>
  ",87.0,1.0,,,,,,,,,,,,,,,,,,,,,,,,,,
196,0,,html-keyboard-response,196,436211,0.0-7.9-1.9,2zdekk7xuc8,2022-09-19 15:31:31.040,5f0ef1582a709a00093a8b86,1,36,38,66,77,28,male,1069.8000000119,,"
  <table>
  <tr height=300>
    <td width=300 height=300><img src=""static/images/cards/back_of_red_moons.svg"" width=""175px"" height=""250px""></img></td>
    <td width=300 height=300><img src=""static/images/cards/back_of_red_moons.svg"" width=""175px"" height=""250px""></img></td>
  </tr>
  <tr height=200>
    <td width=300><img src=""static/images/keys/z.svg"" width=""35%"" height=""75%""></img></td>
    <td width=300><img src=""static/images/keys/m.svg"" width=""35%"" height=""75%""></img></td>
  </tr>
</table>
  ",90.0,1.0,,,,,,,,,,,,,,,,,,,,,,,,,,
197,0,,html-keyboard-response,197,437715,0.0-7.9-2.9,2zdekk7xuc8,2022-09-19 15:31:31.040,5f0ef1582a709a00093a8b86,1,36,38,66,77,28,male,,,"
  <table>
  <tr height=300>
    <td width=300 height=300><img src=""static/images/cards/2_of_red_moons.svg"" width=""175px"" height=""250px""></img></td>
    <td width=300 height=300><img src=""static/images/cards/back_of_red_moons.svg"" width=""175px"" height=""250px""></img></td>
  </tr>
  <tr height=200>
    <td width=300><img src=""static/images/keys/z.svg"" width=""35%"" height=""75%""></img></td>
    <td width=300><img src=""static/images/keys/m.svg"" width=""35%"" height=""75%""></img></td>
  </tr>
</table>
  ",,,,,,,,,,,,,,,,,,,,,,,,,,,,
198,0,,html-keyboard-response,198,439225,0.0-7.9-3.9,2zdekk7xuc8,2022-09-19 15:31:31.040,5f0ef1582a709a00093a8b86,1,36,38,66,77,28,male,,,"<p style=""font-size:50px"">You Lose!
No points this round.</p>",,,,,,,,,,,,,,,,,,,,,,,,,,,,
199,0,,html-keyboard-response,199,439731,0.0-7.9-4.9,2zdekk7xuc8,2022-09-19 15:31:31.040,5f0ef1582a709a00093a8b86,1,36,38,66,77,28,male,,,,,,1.0,choice,9.0,A,B,red,black,moons,moons,A,B,A,red,moons,1397.900000006,1.0,1.0,NA,left,1069.8000000119,2.0,0.0,0.0,,,
200,0,,html-keyboard-response,200,440867,0.0-7.10-0.10,2zdekk7xuc8,2022-09-19 15:31:31.040,5f0ef1582a709a00093a8b86,1,36,38,66,77,28,male,1134.400000006,,"
  <table>
  <tr height=300>
    <td width=300 height=300><img src=""static/images/cards/stack_of_red_stars.svg"" width=""175px"" height=""250px""></img></td>
    <td width=300 height=300><img src=""static/images/cards/stack_of_red_moons.svg"" width=""175px"" height=""250px""></img></td>
  </tr>
  <tr height=200>
    <td width=300><img src=""static/images/keys/w.svg"" width=""35%"" height=""75%""></img></td>
    <td width=300><img src=""static/images/keys/o.svg"" width=""35%"" height=""75%""></img></td>
  </tr>
</table>
  ",87.0,1.0,,,,,,,,,,,,,,,,,,,,,,,,,,
201,0,,html-keyboard-response,201,443473,0.0-7.10-1.10,2zdekk7xuc8,2022-09-19 15:31:31.040,5f0ef1582a709a00093a8b86,1,36,38,66,77,28,male,2101.1999999881,,"
  <table>
  <tr height=300>
    <td width=300 height=300><img src=""static/images/cards/back_of_red_stars.svg"" width=""175px"" height=""250px""></img></td>
    <td width=300 height=300><img src=""static/images/cards/back_of_red_stars.svg"" width=""175px"" height=""250px""></img></td>
  </tr>
  <tr height=200>
    <td width=300><img src=""static/images/keys/z.svg"" width=""35%"" height=""75%""></img></td>
    <td width=300><img src=""static/images/keys/m.svg"" width=""35%"" height=""75%""></img></td>
  </tr>
</table>
  ",90.0,1.0,,,,,,,,,,,,,,,,,,,,,,,,,,
202,0,,html-keyboard-response,202,444976,0.0-7.10-2.10,2zdekk7xuc8,2022-09-19 15:31:31.040,5f0ef1582a709a00093a8b86,1,36,38,66,77,28,male,,,"
  <table>
  <tr height=300>
    <td width=300 height=300><img src=""static/images/cards/2_of_red_stars.svg"" width=""175px"" height=""250px""></img></td>
    <td width=300 height=300><img src=""static/images/cards/back_of_red_stars.svg"" width=""175px"" height=""250px""></img></td>
  </tr>
  <tr height=200>
    <td width=300><img src=""static/images/keys/z.svg"" width=""35%"" height=""75%""></img></td>
    <td width=300><img src=""static/images/keys/m.svg"" width=""35%"" height=""75%""></img></td>
  </tr>
</table>
  ",,,,,,,,,,,,,,,,,,,,,,,,,,,,
203,0,,html-keyboard-response,203,446484,0.0-7.10-3.10,2zdekk7xuc8,2022-09-19 15:31:31.040,5f0ef1582a709a00093a8b86,1,36,38,66,77,28,male,,,"<p style=""font-size:50px"">You Lose!
No points this round.</p>",,,,,,,,,,,,,,,,,,,,,,,,,,,,
204,0,,html-keyboard-response,204,446990,0.0-7.10-4.10,2zdekk7xuc8,2022-09-19 15:31:31.040,5f0ef1582a709a00093a8b86,1,36,38,66,77,28,male,,,,,,1.0,choice,10.0,A,C,red,red,stars,moons,C,A,C,red,stars,1134.400000006,1.0,0.0,NA,left,2101.1999999881,2.0,0.0,0.0,,,
205,0,,html-keyboard-response,205,448287,0.0-7.11-0.11,2zdekk7xuc8,2022-09-19 15:31:31.040,5f0ef1582a709a00093a8b86,1,36,38,66,77,28,male,1295.1000000238,,"
  <table>
  <tr height=300>
    <td width=300 height=300><img src=""static/images/cards/stack_of_black_stars.svg"" width=""175px"" height=""250px""></img></td>
    <td width=300 height=300><img src=""static/images/cards/stack_of_red_stars.svg"" width=""175px"" height=""250px""></img></td>
  </tr>
  <tr height=200>
    <td width=300><img src=""static/images/keys/w.svg"" width=""35%"" height=""75%""></img></td>
    <td width=300><img src=""static/images/keys/o.svg"" width=""35%"" height=""75%""></img></td>
  </tr>
</table>
  ",79.0,1.0,,,,,,,,,,,,,,,,,,,,,,,,,,
206,0,,html-keyboard-response,206,449246,0.0-7.11-1.11,2zdekk7xuc8,2022-09-19 15:31:31.040,5f0ef1582a709a00093a8b86,1,36,38,66,77,28,male,453.1999999881,,"
  <table>
  <tr height=300>
    <td width=300 height=300><img src=""static/images/cards/back_of_red_stars.svg"" width=""175px"" height=""250px""></img></td>
    <td width=300 height=300><img src=""static/images/cards/back_of_red_stars.svg"" width=""175px"" height=""250px""></img></td>
  </tr>
  <tr height=200>
    <td width=300><img src=""static/images/keys/z.svg"" width=""35%"" height=""75%""></img></td>
    <td width=300><img src=""static/images/keys/m.svg"" width=""35%"" height=""75%""></img></td>
  </tr>
</table>
  ",77.0,1.0,,,,,,,,,,,,,,,,,,,,,,,,,,
207,0,,html-keyboard-response,207,450752,0.0-7.11-2.11,2zdekk7xuc8,2022-09-19 15:31:31.040,5f0ef1582a709a00093a8b86,1,36,38,66,77,28,male,,,"
  <table>
  <tr height=300>
    <td width=300 height=300><img src=""static/images/cards/back_of_red_stars.svg"" width=""175px"" height=""250px""></img></td>
    <td width=300 height=300><img src=""static/images/cards/7_of_red_stars.svg"" width=""175px"" height=""250px""></img></td>
  </tr>
  <tr height=200>
    <td width=300><img src=""static/images/keys/z.svg"" width=""35%"" height=""75%""></img></td>
    <td width=300><img src=""static/images/keys/m.svg"" width=""35%"" height=""75%""></img></td>
  </tr>
</table>
  ",,,,,,,,,,,,,,,,,,,,,,,,,,,,
208,0,,html-keyboard-response,208,452260,0.0-7.11-3.11,2zdekk7xuc8,2022-09-19 15:31:31.040,5f0ef1582a709a00093a8b86,1,36,38,66,77,28,male,,,"<p style=""font-size:50px"">You Lose!
No points this round.</p>",,,,,,,,,,,,,,,,,,,,,,,,,,,,
209,0,,html-keyboard-response,209,452766,0.0-7.11-4.11,2zdekk7xuc8,2022-09-19 15:31:31.040,5f0ef1582a709a00093a8b86,1,36,38,66,77,28,male,,,,,,1.0,choice,11.0,C,D,black,red,stars,stars,D,C,C,red,stars,1295.1000000238,1.0,0.0,NA,right,453.1999999881,7.0,1.0,0.0,,,
210,0,,html-keyboard-response,210,454228,0.0-7.12-0.12,2zdekk7xuc8,2022-09-19 15:31:31.040,5f0ef1582a709a00093a8b86,1,36,38,66,77,28,male,1460.099999994,,"
  <table>
  <tr height=300>
    <td width=300 height=300><img src=""static/images/cards/stack_of_red_stars.svg"" width=""175px"" height=""250px""></img></td>
    <td width=300 height=300><img src=""static/images/cards/stack_of_black_moons.svg"" width=""175px"" height=""250px""></img></td>
  </tr>
  <tr height=200>
    <td width=300><img src=""static/images/keys/w.svg"" width=""35%"" height=""75%""></img></td>
    <td width=300><img src=""static/images/keys/o.svg"" width=""35%"" height=""75%""></img></td>
  </tr>
</table>
  ",87.0,1.0,,,,,,,,,,,,,,,,,,,,,,,,,,
211,0,,html-keyboard-response,211,455326,0.0-7.12-1.12,2zdekk7xuc8,2022-09-19 15:31:31.040,5f0ef1582a709a00093a8b86,1,36,38,66,77,28,male,596.0,,"
  <table>
  <tr height=300>
    <td width=300 height=300><img src=""static/images/cards/back_of_red_stars.svg"" width=""175px"" height=""250px""></img></td>
    <td width=300 height=300><img src=""static/images/cards/back_of_red_stars.svg"" width=""175px"" height=""250px""></img></td>
  </tr>
  <tr height=200>
    <td width=300><img src=""static/images/keys/z.svg"" width=""35%"" height=""75%""></img></td>
    <td width=300><img src=""static/images/keys/m.svg"" width=""35%"" height=""75%""></img></td>
  </tr>
</table>
  ",77.0,1.0,,,,,,,,,,,,,,,,,,,,,,,,,,
212,0,,html-keyboard-response,212,456830,0.0-7.12-2.12,2zdekk7xuc8,2022-09-19 15:31:31.040,5f0ef1582a709a00093a8b86,1,36,38,66,77,28,male,,,"
  <table>
  <tr height=300>
    <td width=300 height=300><img src=""static/images/cards/back_of_red_stars.svg"" width=""175px"" height=""250px""></img></td>
    <td width=300 height=300><img src=""static/images/cards/10_of_red_stars.svg"" width=""175px"" height=""250px""></img></td>
  </tr>
  <tr height=200>
    <td width=300><img src=""static/images/keys/z.svg"" width=""35%"" height=""75%""></img></td>
    <td width=300><img src=""static/images/keys/m.svg"" width=""35%"" height=""75%""></img></td>
  </tr>
</table>
  ",,,,,,,,,,,,,,,,,,,,,,,,,,,,
213,0,,html-keyboard-response,213,458334,0.0-7.12-3.12,2zdekk7xuc8,2022-09-19 15:31:31.040,5f0ef1582a709a00093a8b86,1,36,38,66,77,28,male,,,"<p style=""font-size:50px"">You win!
+10 points this round!</p>",,,,,,,,,,,,,,,,,,,,,,,,,,,,
214,0,,html-keyboard-response,214,458840,0.0-7.12-4.12,2zdekk7xuc8,2022-09-19 15:31:31.040,5f0ef1582a709a00093a8b86,1,36,38,66,77,28,male,,,,,,1.0,choice,12.0,B,C,red,black,stars,moons,C,B,C,red,stars,1460.099999994,1.0,0.0,NA,right,596.0,10.0,1.0,1.0,,,
215,0,,html-keyboard-response,215,459705,0.0-7.13-0.13,2zdekk7xuc8,2022-09-19 15:31:31.040,5f0ef1582a709a00093a8b86,1,36,38,66,77,28,male,863.900000006,,"
  <table>
  <tr height=300>
    <td width=300 height=300><img src=""static/images/cards/stack_of_red_moons.svg"" width=""175px"" height=""250px""></img></td>
    <td width=300 height=300><img src=""static/images/cards/stack_of_black_moons.svg"" width=""175px"" height=""250px""></img></td>
  </tr>
  <tr height=200>
    <td width=300><img src=""static/images/keys/w.svg"" width=""35%"" height=""75%""></img></td>
    <td width=300><img src=""static/images/keys/o.svg"" width=""35%"" height=""75%""></img></td>
  </tr>
</table>
  ",87.0,1.0,,,,,,,,,,,,,,,,,,,,,,,,,,
216,0,,html-keyboard-response,216,460927,0.0-7.13-1.13,2zdekk7xuc8,2022-09-19 15:31:31.040,5f0ef1582a709a00093a8b86,1,36,38,66,77,28,male,719.6999999881,,"
  <table>
  <tr height=300>
    <td width=300 height=300><img src=""static/images/cards/back_of_red_moons.svg"" width=""175px"" height=""250px""></img></td>
    <td width=300 height=300><img src=""static/images/cards/back_of_red_moons.svg"" width=""175px"" height=""250px""></img></td>
  </tr>
  <tr height=200>
    <td width=300><img src=""static/images/keys/z.svg"" width=""35%"" height=""75%""></img></td>
    <td width=300><img src=""static/images/keys/m.svg"" width=""35%"" height=""75%""></img></td>
  </tr>
</table>
  ",77.0,1.0,,,,,,,,,,,,,,,,,,,,,,,,,,
217,0,,html-keyboard-response,217,462430,0.0-7.13-2.13,2zdekk7xuc8,2022-09-19 15:31:31.040,5f0ef1582a709a00093a8b86,1,36,38,66,77,28,male,,,"
  <table>
  <tr height=300>
    <td width=300 height=300><img src=""static/images/cards/back_of_red_moons.svg"" width=""175px"" height=""250px""></img></td>
    <td width=300 height=300><img src=""static/images/cards/1_of_red_moons.svg"" width=""175px"" height=""250px""></img></td>
  </tr>
  <tr height=200>
    <td width=300><img src=""static/images/keys/z.svg"" width=""35%"" height=""75%""></img></td>
    <td width=300><img src=""static/images/keys/m.svg"" width=""35%"" height=""75%""></img></td>
  </tr>
</table>
  ",,,,,,,,,,,,,,,,,,,,,,,,,,,,
218,0,,html-keyboard-response,218,463940,0.0-7.13-3.13,2zdekk7xuc8,2022-09-19 15:31:31.040,5f0ef1582a709a00093a8b86,1,36,38,66,77,28,male,,,"<p style=""font-size:50px"">You Lose!
No points this round.</p>",,,,,,,,,,,,,,,,,,,,,,,,,,,,
219,0,,html-keyboard-response,219,464446,0.0-7.13-4.13,2zdekk7xuc8,2022-09-19 15:31:31.040,5f0ef1582a709a00093a8b86,1,36,38,66,77,28,male,,,,,,1.0,choice,13.0,A,B,red,black,moons,moons,A,B,A,red,moons,863.900000006,1.0,1.0,NA,right,719.6999999881,1.0,0.0,0.0,,,
220,0,,html-keyboard-response,220,464448,0.0-7.14-0.14,2zdekk7xuc8,2022-09-19 15:31:31.040,5f0ef1582a709a00093a8b86,1,36,38,66,77,28,male,0.3999999762,,"
  <table>
  <tr height=300>
    <td width=300 height=300><img src=""static/images/cards/stack_of_black_moons.svg"" width=""175px"" height=""250px""></img></td>
    <td width=300 height=300><img src=""static/images/cards/stack_of_red_bolts.svg"" width=""175px"" height=""250px""></img></td>
  </tr>
  <tr height=200>
    <td width=300><img src=""static/images/keys/w.svg"" width=""35%"" height=""75%""></img></td>
    <td width=300><img src=""static/images/keys/o.svg"" width=""35%"" height=""75%""></img></td>
  </tr>
</table>
  ",87.0,1.0,,,,,,,,,,,,,,,,,,,,,,,,,,
221,0,,html-keyboard-response,221,465654,0.0-7.14-1.14,2zdekk7xuc8,2022-09-19 15:31:31.040,5f0ef1582a709a00093a8b86,1,36,38,66,77,28,male,704.900000006,,"
  <table>
  <tr height=300>
    <td width=300 height=300><img src=""static/images/cards/back_of_black_moons.svg"" width=""175px"" height=""250px""></img></td>
    <td width=300 height=300><img src=""static/images/cards/back_of_black_moons.svg"" width=""175px"" height=""250px""></img></td>
  </tr>
  <tr height=200>
    <td width=300></td>
    <td width=300><img src=""static/images/keys/m.svg"" width=""35%"" height=""75%""></img></td>
  </tr>
</table>
  ",77.0,2.0,,,,,,,,,,,,,,,,,,,,,,,,,,
222,0,,html-keyboard-response,222,467160,0.0-7.14-2.14,2zdekk7xuc8,2022-09-19 15:31:31.040,5f0ef1582a709a00093a8b86,1,36,38,66,77,28,male,,,"
  <table>
  <tr height=300>
    <td width=300 height=300><img src=""static/images/cards/back_of_black_moons.svg"" width=""175px"" height=""250px""></img></td>
    <td width=300 height=300><img src=""static/images/cards/6_of_black_moons.svg"" width=""175px"" height=""250px""></img></td>
  </tr>
  <tr height=200>
    <td width=300></td>
    <td width=300><img src=""static/images/keys/m.svg"" width=""35%"" height=""75%""></img></td>
  </tr>
</table>
  ",,,,,,,,,,,,,,,,,,,,,,,,,,,,
223,0,,html-keyboard-response,223,468665,0.0-7.14-3.14,2zdekk7xuc8,2022-09-19 15:31:31.040,5f0ef1582a709a00093a8b86,1,36,38,66,77,28,male,,,"<p style=""font-size:50px"">You win!
+10 points this round!</p>",,,,,,,,,,,,,,,,,,,,,,,,,,,,
224,0,,html-keyboard-response,224,469171,0.0-7.14-4.14,2zdekk7xuc8,2022-09-19 15:31:31.040,5f0ef1582a709a00093a8b86,1,36,38,66,77,28,male,,,,,,1.0,choice,14.0,B,Xc,black,red,moons,bolts,B,Xc,B,black,moons,0.3999999762,0.0,1.0,0,right,704.900000006,6.0,1.0,1.0,,,
225,0,,html-keyboard-response,225,469750,0.0-7.15-0.15,2zdekk7xuc8,2022-09-19 15:31:31.040,5f0ef1582a709a00093a8b86,1,36,38,66,77,28,male,578.099999994,,"
  <table>
  <tr height=300>
    <td width=300 height=300><img src=""static/images/cards/stack_of_red_stars.svg"" width=""175px"" height=""250px""></img></td>
    <td width=300 height=300><img src=""static/images/cards/stack_of_red_moons.svg"" width=""175px"" height=""250px""></img></td>
  </tr>
  <tr height=200>
    <td width=300><img src=""static/images/keys/w.svg"" width=""35%"" height=""75%""></img></td>
    <td width=300><img src=""static/images/keys/o.svg"" width=""35%"" height=""75%""></img></td>
  </tr>
</table>
  ",87.0,2.0,,,,,,,,,,,,,,,,,,,,,,,,,,
226,0,,html-keyboard-response,226,470262,0.0-7.15-1.15,2zdekk7xuc8,2022-09-19 15:31:31.040,5f0ef1582a709a00093a8b86,1,36,38,66,77,28,male,7.2000000179,,"
  <table>
  <tr height=300>
    <td width=300 height=300><img src=""static/images/cards/back_of_red_stars.svg"" width=""175px"" height=""250px""></img></td>
    <td width=300 height=300><img src=""static/images/cards/back_of_red_stars.svg"" width=""175px"" height=""250px""></img></td>
  </tr>
  <tr height=200>
    <td width=300><img src=""static/images/keys/z.svg"" width=""35%"" height=""75%""></img></td>
    <td width=300><img src=""static/images/keys/m.svg"" width=""35%"" height=""75%""></img></td>
  </tr>
</table>
  ",77.0,1.0,,,,,,,,,,,,,,,,,,,,,,,,,,
227,0,,html-keyboard-response,227,471767,0.0-7.15-2.15,2zdekk7xuc8,2022-09-19 15:31:31.040,5f0ef1582a709a00093a8b86,1,36,38,66,77,28,male,,,"
  <table>
  <tr height=300>
    <td width=300 height=300><img src=""static/images/cards/back_of_red_stars.svg"" width=""175px"" height=""250px""></img></td>
    <td width=300 height=300><img src=""static/images/cards/6_of_red_stars.svg"" width=""175px"" height=""250px""></img></td>
  </tr>
  <tr height=200>
    <td width=300><img src=""static/images/keys/z.svg"" width=""35%"" height=""75%""></img></td>
    <td width=300><img src=""static/images/keys/m.svg"" width=""35%"" height=""75%""></img></td>
  </tr>
</table>
  ",,,,,,,,,,,,,,,,,,,,,,,,,,,,
228,0,,html-keyboard-response,228,473273,0.0-7.15-3.15,2zdekk7xuc8,2022-09-19 15:31:31.040,5f0ef1582a709a00093a8b86,1,36,38,66,77,28,male,,,"<p style=""font-size:50px"">You Lose!
No points this round.</p>",,,,,,,,,,,,,,,,,,,,,,,,,,,,
229,0,,html-keyboard-response,229,473779,0.0-7.15-4.15,2zdekk7xuc8,2022-09-19 15:31:31.040,5f0ef1582a709a00093a8b86,1,36,38,66,77,28,male,,,,,,1.0,choice,15.0,A,C,red,red,stars,moons,C,A,C,red,stars,578.099999994,1.0,0.0,NA,right,7.2000000179,6.0,1.0,0.0,,,
230,0,,html-keyboard-response,230,473883,0.0-7.16-0.16,2zdekk7xuc8,2022-09-19 15:31:31.040,5f0ef1582a709a00093a8b86,1,36,38,66,77,28,male,102.2999999821,,"
  <table>
  <tr height=300>
    <td width=300 height=300><img src=""static/images/cards/stack_of_black_moons.svg"" width=""175px"" height=""250px""></img></td>
    <td width=300 height=300><img src=""static/images/cards/stack_of_red_stars.svg"" width=""175px"" height=""250px""></img></td>
  </tr>
  <tr height=200>
    <td width=300><img src=""static/images/keys/w.svg"" width=""35%"" height=""75%""></img></td>
    <td width=300><img src=""static/images/keys/o.svg"" width=""35%"" height=""75%""></img></td>
  </tr>
</table>
  ",87.0,1.0,,,,,,,,,,,,,,,,,,,,,,,,,,
231,0,,html-keyboard-response,231,476539,0.0-7.16-1.16,2zdekk7xuc8,2022-09-19 15:31:31.040,5f0ef1582a709a00093a8b86,1,36,38,66,77,28,male,2150.2999999821,,"
  <table>
  <tr height=300>
    <td width=300 height=300><img src=""static/images/cards/back_of_black_moons.svg"" width=""175px"" height=""250px""></img></td>
    <td width=300 height=300><img src=""static/images/cards/back_of_black_moons.svg"" width=""175px"" height=""250px""></img></td>
  </tr>
  <tr height=200>
    <td width=300><img src=""static/images/keys/z.svg"" width=""35%"" height=""75%""></img></td>
    <td width=300></td>
  </tr>
</table>
  ",90.0,13.0,,,,,,,,,,,,,,,,,,,,,,,,,,
232,0,,html-keyboard-response,232,478041,0.0-7.16-2.16,2zdekk7xuc8,2022-09-19 15:31:31.040,5f0ef1582a709a00093a8b86,1,36,38,66,77,28,male,,,"
  <table>
  <tr height=300>
    <td width=300 height=300><img src=""static/images/cards/10_of_black_moons.svg"" width=""175px"" height=""250px""></img></td>
    <td width=300 height=300><img src=""static/images/cards/back_of_black_moons.svg"" width=""175px"" height=""250px""></img></td>
  </tr>
  <tr height=200>
    <td width=300><img src=""static/images/keys/z.svg"" width=""35%"" height=""75%""></img></td>
    <td width=300></td>
  </tr>
</table>
  ",,,,,,,,,,,,,,,,,,,,,,,,,,,,
