,index,success,trial_type,trial_index,time_elapsed,internal_node_id,subject,date,prol_id,ctbl,sense_of_control_A,sense_of_control_B,sense_of_control_C,sense_of_control_D,age,gender,rt,url,stimulus,key_press,npress,is_data_trial,phase,trial,deck1,deck2,col1,col2,sym1,sym2,deck_l,deck_r,chosen_deck,chosen_col,chosen_sym,deck_rt,choose_choice,mutual_info,hidden_key,chosen_card,card_rt,player_num,win_card,outcome,mock_rating,response,responses
0,0,1.0,fullscreen,0,18119,0.0-0.0,zfwvlo8qpf,2022-09-19 17:56:46.192,56c113f6eb5b22000d5baa6f,2,63,42,32,11,56,female,,,,,,,,,,,,,,,,,,,,,,,,,,,,,,,
1,0,,external-html,1,193368,0.0-1.0,zfwvlo8qpf,2022-09-19 17:56:46.192,56c113f6eb5b22000d5baa6f,2,63,42,32,11,56,female,174122.5,static/js/sub/consent.html,,,,,,,,,,,,,,,,,,,,,,,,,,,,,
2,0,,call-function,2,193373,0.0-2.0,zfwvlo8qpf,2022-09-19 17:56:46.192,56c113f6eb5b22000d5baa6f,2,63,42,32,11,56,female,,,,,,,,,,,,,,,,,,,,,,,,,,,,,,,
3,0,,image-keyboard-response,3,200443,0.0-3.0-0.0,zfwvlo8qpf,2022-09-19 17:56:46.192,56c113f6eb5b22000d5baa6f,2,63,42,32,11,56,female,7060.7999999523,,static/images/instructions_CB_2/Slide1.png,39.0,,,,,,,,,,,,,,,,,,,,,,,,,,,
4,0,,image-keyboard-response,4,211059,0.0-3.1-0.1,zfwvlo8qpf,2022-09-19 17:56:46.192,56c113f6eb5b22000d5baa6f,2,63,42,32,11,56,female,10615.1999999881,,static/images/instructions_CB_2/Slide2.png,39.0,,,,,,,,,,,,,,,,,,,,,,,,,,,
5,0,,image-keyboard-response,5,219534,0.0-3.2-0.2,zfwvlo8qpf,2022-09-19 17:56:46.192,56c113f6eb5b22000d5baa6f,2,63,42,32,11,56,female,8472.3000000119,,static/images/instructions_CB_2/Slide3.png,39.0,,,,,,,,,,,,,,,,,,,,,,,,,,,
6,0,,image-keyboard-response,6,226998,0.0-3.3-0.3,zfwvlo8qpf,2022-09-19 17:56:46.192,56c113f6eb5b22000d5baa6f,2,63,42,32,11,56,female,7462.8000000119,,static/images/instructions_CB_2/Slide4.png,39.0,,,,,,,,,,,,,,,,,,,,,,,,,,,
7,0,,image-keyboard-response,7,237524,0.0-3.4-0.4,zfwvlo8qpf,2022-09-19 17:56:46.192,56c113f6eb5b22000d5baa6f,2,63,42,32,11,56,female,10524.8000000119,,static/images/instructions_CB_2/Slide5.png,39.0,,,,,,,,,,,,,,,,,,,,,,,,,,,
8,0,,image-keyboard-response,8,243372,0.0-3.5-0.5,zfwvlo8qpf,2022-09-19 17:56:46.192,56c113f6eb5b22000d5baa6f,2,63,42,32,11,56,female,5846.2000000477,,static/images/instructions_CB_2/Slide6.png,39.0,,,,,,,,,,,,,,,,,,,,,,,,,,,
9,0,,image-keyboard-response,9,249127,0.0-3.6-0.6,zfwvlo8qpf,2022-09-19 17:56:46.192,56c113f6eb5b22000d5baa6f,2,63,42,32,11,56,female,5752.7000000477,,static/images/instructions_CB_2/Slide7.png,39.0,,,,,,,,,,,,,,,,,,,,,,,,,,,
10,0,,image-keyboard-response,10,264389,0.0-3.7-0.7,zfwvlo8qpf,2022-09-19 17:56:46.192,56c113f6eb5b22000d5baa6f,2,63,42,32,11,56,female,15260.4000000358,,static/images/instructions_CB_2/Slide8.png,39.0,,,,,,,,,,,,,,,,,,,,,,,,,,,
11,0,,image-keyboard-response,11,268810,0.0-3.8-0.8,zfwvlo8qpf,2022-09-19 17:56:46.192,56c113f6eb5b22000d5baa6f,2,63,42,32,11,56,female,4419.0999999642,,static/images/instructions_CB_2/Slide9.png,39.0,,,,,,,,,,,,,,,,,,,,,,,,,,,
12,0,,image-keyboard-response,12,282958,0.0-3.9-0.9,zfwvlo8qpf,2022-09-19 17:56:46.192,56c113f6eb5b22000d5baa6f,2,63,42,32,11,56,female,14146.8000000119,,static/images/instructions_CB_2/Slide10.png,39.0,,,,,,,,,,,,,,,,,,,,,,,,,,,
13,0,,image-keyboard-response,13,287633,0.0-3.10-0.10,zfwvlo8qpf,2022-09-19 17:56:46.192,56c113f6eb5b22000d5baa6f,2,63,42,32,11,56,female,4673.4000000358,,static/images/instructions_CB_2/Slide11.png,39.0,,,,,,,,,,,,,,,,,,,,,,,,,,,
14,0,,image-keyboard-response,14,291850,0.0-3.11-0.11,zfwvlo8qpf,2022-09-19 17:56:46.192,56c113f6eb5b22000d5baa6f,2,63,42,32,11,56,female,4216.0999999642,,static/images/instructions_CB_2/Slide12.png,39.0,,,,,,,,,,,,,,,,,,,,,,,,,,,
15,0,,image-keyboard-response,15,307570,0.0-3.12-0.12,zfwvlo8qpf,2022-09-19 17:56:46.192,56c113f6eb5b22000d5baa6f,2,63,42,32,11,56,female,15718.8000000119,,static/images/instructions_CB_2/Slide13.png,39.0,,,,,,,,,,,,,,,,,,,,,,,,,,,
16,0,,image-keyboard-response,16,318566,0.0-3.13-0.13,zfwvlo8qpf,2022-09-19 17:56:46.192,56c113f6eb5b22000d5baa6f,2,63,42,32,11,56,female,10994.6999999881,,static/images/instructions_CB_2/Slide14.png,39.0,,,,,,,,,,,,,,,,,,,,,,,,,,,
17,0,,image-keyboard-response,17,329131,0.0-3.14-0.14,zfwvlo8qpf,2022-09-19 17:56:46.192,56c113f6eb5b22000d5baa6f,2,63,42,32,11,56,female,10563.5,,static/images/instructions_CB_2/Slide15.png,39.0,,,,,,,,,,,,,,,,,,,,,,,,,,,
18,0,,image-keyboard-response,18,332620,0.0-3.15-0.15,zfwvlo8qpf,2022-09-19 17:56:46.192,56c113f6eb5b22000d5baa6f,2,63,42,32,11,56,female,3486.5,,static/images/instructions_CB_2/Slide16.png,39.0,,,,,,,,,,,,,,,,,,,,,,,,,,,
19,0,,image-keyboard-response,19,336856,0.0-3.16-0.16,zfwvlo8qpf,2022-09-19 17:56:46.192,56c113f6eb5b22000d5baa6f,2,63,42,32,11,56,female,4233.5,,static/images/instructions_CB_2/Slide17.png,39.0,,,,,,,,,,,,,,,,,,,,,,,,,,,
20,0,,image-keyboard-response,20,349884,0.0-3.17-0.17,zfwvlo8qpf,2022-09-19 17:56:46.192,56c113f6eb5b22000d5baa6f,2,63,42,32,11,56,female,13026.7999999523,,static/images/instructions_CB_2/Slide18.png,39.0,,,,,,,,,,,,,,,,,,,,,,,,,,,
21,0,,image-keyboard-response,21,354338,0.0-3.18-0.18,zfwvlo8qpf,2022-09-19 17:56:46.192,56c113f6eb5b22000d5baa6f,2,63,42,32,11,56,female,4452.6000000238,,static/images/instructions_CB_2/Slide19.png,39.0,,,,,,,,,,,,,,,,,,,,,,,,,,,
22,0,,html-keyboard-response,22,355842,0.0-4.0-0.0,zfwvlo8qpf,2022-09-19 17:56:46.192,56c113f6eb5b22000d5baa6f,2,63,42,32,11,56,female,,,"<img src=""static/images/cards/stack_of_black_stars.svg"" width=""175px"" height=""250px""></img>",,,,,,,,,,,,,,,,,,,,,,,,,,,,
23,0,,html-keyboard-response,23,357480,0.0-4.0-1.0,zfwvlo8qpf,2022-09-19 17:56:46.192,56c113f6eb5b22000d5baa6f,2,63,42,32,11,56,female,1129.0,,"
  <table>
  <tr height=300>
    <td width=300 height=300><img src=""static/images/cards/back_of_black_stars.svg"" width=""175px"" height=""250px""></img></td>
    <td width=300 height=300><img src=""static/images/cards/back_of_black_stars.svg"" width=""175px"" height=""250px""></img></td>
  </tr>
  <tr height=200>
    <td width=300><img src=""static/images/keys/z.svg"" width=""35%"" height=""75%""></img></td>
    <td width=300><img src=""static/images/keys/m.svg"" width=""35%"" height=""75%""></img></td>
  </tr>
</table>
  ",77.0,1.0,,,,,,,,,,,,,,,,,,,,,,,,,,
24,0,,html-keyboard-response,24,358984,0.0-4.0-2.0,zfwvlo8qpf,2022-09-19 17:56:46.192,56c113f6eb5b22000d5baa6f,2,63,42,32,11,56,female,,,"
  <table>
  <tr height=300>
    <td width=300 height=300><img src=""static/images/cards/back_of_black_stars.svg"" width=""175px"" height=""250px""></img></td>
    <td width=300 height=300><img src=""static/images/cards/9_of_black_stars.svg"" width=""175px"" height=""250px""></img></td>
  </tr>
  <tr height=200>
    <td width=300><img src=""static/images/keys/z.svg"" width=""35%"" height=""75%""></img></td>
    <td width=300><img src=""static/images/keys/m.svg"" width=""35%"" height=""75%""></img></td>
  </tr>
</table>
  ",,,,,,,,,,,,,,,,,,,,,,,,,,,,
25,0,,html-keyboard-response,25,360491,0.0-4.0-3.0,zfwvlo8qpf,2022-09-19 17:56:46.192,56c113f6eb5b22000d5baa6f,2,63,42,32,11,56,female,,,"<p style=""font-size:50px"">You win!
+10 points this round!</p>",,,,,,,,,,,,,,,,,,,,,,,,,,,,
26,0,,html-keyboard-response,26,361001,0.0-4.0-4.0,zfwvlo8qpf,2022-09-19 17:56:46.192,56c113f6eb5b22000d5baa6f,2,63,42,32,11,56,female,,,,,,1.0,learning,0.0,A,,black,,stars,,,,A,black,stars,,1.0,1.0,NA,right,1129.0,9.0,1.0,1.0,,,
27,0,,html-keyboard-response,27,362508,0.0-4.1-0.1,zfwvlo8qpf,2022-09-19 17:56:46.192,56c113f6eb5b22000d5baa6f,2,63,42,32,11,56,female,,,"<img src=""static/images/cards/stack_of_red_stars.svg"" width=""175px"" height=""250px""></img>",,,,,,,,,,,,,,,,,,,,,,,,,,,,
28,0,,html-keyboard-response,28,363987,0.0-4.1-1.1,zfwvlo8qpf,2022-09-19 17:56:46.192,56c113f6eb5b22000d5baa6f,2,63,42,32,11,56,female,973.3000000119,,"
  <table>
  <tr height=300>
    <td width=300 height=300><img src=""static/images/cards/back_of_red_stars.svg"" width=""175px"" height=""250px""></img></td>
    <td width=300 height=300><img src=""static/images/cards/back_of_red_stars.svg"" width=""175px"" height=""250px""></img></td>
  </tr>
  <tr height=200>
    <td width=300></td>
    <td width=300><img src=""static/images/keys/m.svg"" width=""35%"" height=""75%""></img></td>
  </tr>
</table>
  ",77.0,1.0,,,,,,,,,,,,,,,,,,,,,,,,,,
29,0,,html-keyboard-response,29,365491,0.0-4.1-2.1,zfwvlo8qpf,2022-09-19 17:56:46.192,56c113f6eb5b22000d5baa6f,2,63,42,32,11,56,female,,,"
  <table>
  <tr height=300>
    <td width=300 height=300><img src=""static/images/cards/back_of_red_stars.svg"" width=""175px"" height=""250px""></img></td>
    <td width=300 height=300><img src=""static/images/cards/7_of_red_stars.svg"" width=""175px"" height=""250px""></img></td>
  </tr>
  <tr height=200>
    <td width=300></td>
    <td width=300><img src=""static/images/keys/m.svg"" width=""35%"" height=""75%""></img></td>
  </tr>
</table>
  ",,,,,,,,,,,,,,,,,,,,,,,,,,,,
30,0,,html-keyboard-response,30,366998,0.0-4.1-3.1,zfwvlo8qpf,2022-09-19 17:56:46.192,56c113f6eb5b22000d5baa6f,2,63,42,32,11,56,female,,,"<p style=""font-size:50px"">You win!
+10 points this round!</p>",,,,,,,,,,,,,,,,,,,,,,,,,,,,
31,0,,html-keyboard-response,31,367507,0.0-4.1-4.1,zfwvlo8qpf,2022-09-19 17:56:46.192,56c113f6eb5b22000d5baa6f,2,63,42,32,11,56,female,,,,,,1.0,learning,1.0,B,,red,,stars,,,,B,red,stars,,0.0,1.0,0,right,973.3000000119,7.0,1.0,1.0,,,
32,0,,html-keyboard-response,32,369010,0.0-4.2-0.2,zfwvlo8qpf,2022-09-19 17:56:46.192,56c113f6eb5b22000d5baa6f,2,63,42,32,11,56,female,,,"<img src=""static/images/cards/stack_of_black_moons.svg"" width=""175px"" height=""250px""></img>",,,,,,,,,,,,,,,,,,,,,,,,,,,,
33,0,,html-keyboard-response,33,370810,0.0-4.2-1.2,zfwvlo8qpf,2022-09-19 17:56:46.192,56c113f6eb5b22000d5baa6f,2,63,42,32,11,56,female,1296.0,,"
  <table>
  <tr height=300>
    <td width=300 height=300><img src=""static/images/cards/back_of_black_moons.svg"" width=""175px"" height=""250px""></img></td>
    <td width=300 height=300><img src=""static/images/cards/back_of_black_moons.svg"" width=""175px"" height=""250px""></img></td>
  </tr>
  <tr height=200>
    <td width=300><img src=""static/images/keys/z.svg"" width=""35%"" height=""75%""></img></td>
    <td width=300><img src=""static/images/keys/m.svg"" width=""35%"" height=""75%""></img></td>
  </tr>
</table>
  ",77.0,1.0,,,,,,,,,,,,,,,,,,,,,,,,,,
34,0,,html-keyboard-response,34,372314,0.0-4.2-2.2,zfwvlo8qpf,2022-09-19 17:56:46.192,56c113f6eb5b22000d5baa6f,2,63,42,32,11,56,female,,,"
  <table>
  <tr height=300>
    <td width=300 height=300><img src=""static/images/cards/back_of_black_moons.svg"" width=""175px"" height=""250px""></img></td>
    <td width=300 height=300><img src=""static/images/cards/7_of_black_moons.svg"" width=""175px"" height=""250px""></img></td>
  </tr>
  <tr height=200>
    <td width=300><img src=""static/images/keys/z.svg"" width=""35%"" height=""75%""></img></td>
    <td width=300><img src=""static/images/keys/m.svg"" width=""35%"" height=""75%""></img></td>
  </tr>
</table>
  ",,,,,,,,,,,,,,,,,,,,,,,,,,,,
35,0,,html-keyboard-response,35,373824,0.0-4.2-3.2,zfwvlo8qpf,2022-09-19 17:56:46.192,56c113f6eb5b22000d5baa6f,2,63,42,32,11,56,female,,,"<p style=""font-size:50px"">You Lose!
No points this round.</p>",,,,,,,,,,,,,,,,,,,,,,,,,,,,
36,0,,html-keyboard-response,36,374331,0.0-4.2-4.2,zfwvlo8qpf,2022-09-19 17:56:46.192,56c113f6eb5b22000d5baa6f,2,63,42,32,11,56,female,,,,,,1.0,learning,2.0,C,,black,,moons,,,,C,black,moons,,1.0,0.0,NA,right,1296.0,7.0,1.0,0.0,,,
37,0,,html-keyboard-response,37,375833,0.0-4.3-0.3,zfwvlo8qpf,2022-09-19 17:56:46.192,56c113f6eb5b22000d5baa6f,2,63,42,32,11,56,female,,,"<img src=""static/images/cards/stack_of_red_moons.svg"" width=""175px"" height=""250px""></img>",,,,,,,,,,,,,,,,,,,,,,,,,,,,
38,0,,html-keyboard-response,38,376889,0.0-4.3-1.3,zfwvlo8qpf,2022-09-19 17:56:46.192,56c113f6eb5b22000d5baa6f,2,63,42,32,11,56,female,553.1000000238,,"
  <table>
  <tr height=300>
    <td width=300 height=300><img src=""static/images/cards/back_of_red_moons.svg"" width=""175px"" height=""250px""></img></td>
    <td width=300 height=300><img src=""static/images/cards/back_of_red_moons.svg"" width=""175px"" height=""250px""></img></td>
  </tr>
  <tr height=200>
    <td width=300><img src=""static/images/keys/z.svg"" width=""35%"" height=""75%""></img></td>
    <td width=300></td>
  </tr>
</table>
  ",90.0,1.0,,,,,,,,,,,,,,,,,,,,,,,,,,
39,0,,html-keyboard-response,39,378396,0.0-4.3-2.3,zfwvlo8qpf,2022-09-19 17:56:46.192,56c113f6eb5b22000d5baa6f,2,63,42,32,11,56,female,,,"
  <table>
  <tr height=300>
    <td width=300 height=300><img src=""static/images/cards/2_of_red_moons.svg"" width=""175px"" height=""250px""></img></td>
    <td width=300 height=300><img src=""static/images/cards/back_of_red_moons.svg"" width=""175px"" height=""250px""></img></td>
  </tr>
  <tr height=200>
    <td width=300><img src=""static/images/keys/z.svg"" width=""35%"" height=""75%""></img></td>
    <td width=300></td>
  </tr>
</table>
  ",,,,,,,,,,,,,,,,,,,,,,,,,,,,
40,0,,html-keyboard-response,40,379900,0.0-4.3-3.3,zfwvlo8qpf,2022-09-19 17:56:46.192,56c113f6eb5b22000d5baa6f,2,63,42,32,11,56,female,,,"<p style=""font-size:50px"">You Lose!
No points this round.</p>",,,,,,,,,,,,,,,,,,,,,,,,,,,,
41,0,,html-keyboard-response,41,380407,0.0-4.3-4.3,zfwvlo8qpf,2022-09-19 17:56:46.192,56c113f6eb5b22000d5baa6f,2,63,42,32,11,56,female,,,,,,1.0,learning,3.0,D,,red,,moons,,,,D,red,moons,,0.0,0.0,1,left,553.1000000238,2.0,0.0,0.0,,,
42,0,,html-keyboard-response,42,381909,0.0-4.4-0.4,zfwvlo8qpf,2022-09-19 17:56:46.192,56c113f6eb5b22000d5baa6f,2,63,42,32,11,56,female,,,"<img src=""static/images/cards/stack_of_red_bolts.svg"" width=""175px"" height=""250px""></img>",,,,,,,,,,,,,,,,,,,,,,,,,,,,
43,0,,html-keyboard-response,43,382988,0.0-4.4-1.4,zfwvlo8qpf,2022-09-19 17:56:46.192,56c113f6eb5b22000d5baa6f,2,63,42,32,11,56,female,571.8999999762,,"
  <table>
  <tr height=300>
    <td width=300 height=300><img src=""static/images/cards/back_of_red_bolts.svg"" width=""175px"" height=""250px""></img></td>
    <td width=300 height=300><img src=""static/images/cards/back_of_red_bolts.svg"" width=""175px"" height=""250px""></img></td>
  </tr>
  <tr height=200>
    <td width=300><img src=""static/images/keys/z.svg"" width=""35%"" height=""75%""></img></td>
    <td width=300><img src=""static/images/keys/m.svg"" width=""35%"" height=""75%""></img></td>
  </tr>
</table>
  ",77.0,1.0,,,,,,,,,,,,,,,,,,,,,,,,,,
44,0,,html-keyboard-response,44,384493,0.0-4.4-2.4,zfwvlo8qpf,2022-09-19 17:56:46.192,56c113f6eb5b22000d5baa6f,2,63,42,32,11,56,female,,,"
  <table>
  <tr height=300>
    <td width=300 height=300><img src=""static/images/cards/back_of_red_bolts.svg"" width=""175px"" height=""250px""></img></td>
    <td width=300 height=300><img src=""static/images/cards/10_of_red_bolts.svg"" width=""175px"" height=""250px""></img></td>
  </tr>
  <tr height=200>
    <td width=300><img src=""static/images/keys/z.svg"" width=""35%"" height=""75%""></img></td>
    <td width=300><img src=""static/images/keys/m.svg"" width=""35%"" height=""75%""></img></td>
  </tr>
</table>
  ",,,,,,,,,,,,,,,,,,,,,,,,,,,,
45,0,,html-keyboard-response,45,386002,0.0-4.4-3.4,zfwvlo8qpf,2022-09-19 17:56:46.192,56c113f6eb5b22000d5baa6f,2,63,42,32,11,56,female,,,"<p style=""font-size:50px"">You win!
+10 points this round!</p>",,,,,,,,,,,,,,,,,,,,,,,,,,,,
46,0,,html-keyboard-response,46,386512,0.0-4.4-4.4,zfwvlo8qpf,2022-09-19 17:56:46.192,56c113f6eb5b22000d5baa6f,2,63,42,32,11,56,female,,,,,,1.0,learning,4.0,Xc,,red,,bolts,,,,Xc,red,bolts,,1.0,0.0,NA,right,571.8999999762,10.0,1.0,1.0,,,
47,0,,html-keyboard-response,47,388016,0.0-4.5-0.5,zfwvlo8qpf,2022-09-19 17:56:46.192,56c113f6eb5b22000d5baa6f,2,63,42,32,11,56,female,,,"<img src=""static/images/cards/stack_of_black_bolts.svg"" width=""175px"" height=""250px""></img>",,,,,,,,,,,,,,,,,,,,,,,,,,,,
48,0,,html-keyboard-response,48,389039,0.0-4.5-1.5,zfwvlo8qpf,2022-09-19 17:56:46.192,56c113f6eb5b22000d5baa6f,2,63,42,32,11,56,female,520.4000000358,,"
  <table>
  <tr height=300>
    <td width=300 height=300><img src=""static/images/cards/back_of_black_bolts.svg"" width=""175px"" height=""250px""></img></td>
    <td width=300 height=300><img src=""static/images/cards/back_of_black_bolts.svg"" width=""175px"" height=""250px""></img></td>
  </tr>
  <tr height=200>
    <td width=300><img src=""static/images/keys/z.svg"" width=""35%"" height=""75%""></img></td>
    <td width=300></td>
  </tr>
</table>
  ",90.0,1.0,,,,,,,,,,,,,,,,,,,,,,,,,,
49,0,,html-keyboard-response,49,390542,0.0-4.5-2.5,zfwvlo8qpf,2022-09-19 17:56:46.192,56c113f6eb5b22000d5baa6f,2,63,42,32,11,56,female,,,"
  <table>
  <tr height=300>
    <td width=300 height=300><img src=""static/images/cards/9_of_black_bolts.svg"" width=""175px"" height=""250px""></img></td>
    <td width=300 height=300><img src=""static/images/cards/back_of_black_bolts.svg"" width=""175px"" height=""250px""></img></td>
  </tr>
  <tr height=200>
    <td width=300><img src=""static/images/keys/z.svg"" width=""35%"" height=""75%""></img></td>
    <td width=300></td>
  </tr>
</table>
  ",,,,,,,,,,,,,,,,,,,,,,,,,,,,
50,0,,html-keyboard-response,50,392048,0.0-4.5-3.5,zfwvlo8qpf,2022-09-19 17:56:46.192,56c113f6eb5b22000d5baa6f,2,63,42,32,11,56,female,,,"<p style=""font-size:50px"">You win!
+10 points this round!</p>",,,,,,,,,,,,,,,,,,,,,,,,,,,,
51,0,,html-keyboard-response,51,392556,0.0-4.5-4.5,zfwvlo8qpf,2022-09-19 17:56:46.192,56c113f6eb5b22000d5baa6f,2,63,42,32,11,56,female,,,,,,1.0,learning,5.0,Xnc,,black,,bolts,,,,Xnc,black,bolts,,0.0,0.0,1,left,520.4000000358,9.0,1.0,1.0,,,
52,0,,html-keyboard-response,52,394061,0.0-4.6-0.6,zfwvlo8qpf,2022-09-19 17:56:46.192,56c113f6eb5b22000d5baa6f,2,63,42,32,11,56,female,,,"<img src=""static/images/cards/stack_of_black_stars.svg"" width=""175px"" height=""250px""></img>",,,,,,,,,,,,,,,,,,,,,,,,,,,,
53,0,,html-keyboard-response,53,395398,0.0-4.6-1.6,zfwvlo8qpf,2022-09-19 17:56:46.192,56c113f6eb5b22000d5baa6f,2,63,42,32,11,56,female,833.9000000358,,"
  <table>
  <tr height=300>
    <td width=300 height=300><img src=""static/images/cards/back_of_black_stars.svg"" width=""175px"" height=""250px""></img></td>
    <td width=300 height=300><img src=""static/images/cards/back_of_black_stars.svg"" width=""175px"" height=""250px""></img></td>
  </tr>
  <tr height=200>
    <td width=300><img src=""static/images/keys/z.svg"" width=""35%"" height=""75%""></img></td>
    <td width=300><img src=""static/images/keys/m.svg"" width=""35%"" height=""75%""></img></td>
  </tr>
</table>
  ",90.0,1.0,,,,,,,,,,,,,,,,,,,,,,,,,,
54,0,,html-keyboard-response,54,396900,0.0-4.6-2.6,zfwvlo8qpf,2022-09-19 17:56:46.192,56c113f6eb5b22000d5baa6f,2,63,42,32,11,56,female,,,"
  <table>
  <tr height=300>
    <td width=300 height=300><img src=""static/images/cards/2_of_black_stars.svg"" width=""175px"" height=""250px""></img></td>
    <td width=300 height=300><img src=""static/images/cards/back_of_black_stars.svg"" width=""175px"" height=""250px""></img></td>
  </tr>
  <tr height=200>
    <td width=300><img src=""static/images/keys/z.svg"" width=""35%"" height=""75%""></img></td>
    <td width=300><img src=""static/images/keys/m.svg"" width=""35%"" height=""75%""></img></td>
  </tr>
</table>
  ",,,,,,,,,,,,,,,,,,,,,,,,,,,,
55,0,,html-keyboard-response,55,398409,0.0-4.6-3.6,zfwvlo8qpf,2022-09-19 17:56:46.192,56c113f6eb5b22000d5baa6f,2,63,42,32,11,56,female,,,"<p style=""font-size:50px"">You Lose!
No points this round.</p>",,,,,,,,,,,,,,,,,,,,,,,,,,,,
56,0,,html-keyboard-response,56,398918,0.0-4.6-4.6,zfwvlo8qpf,2022-09-19 17:56:46.192,56c113f6eb5b22000d5baa6f,2,63,42,32,11,56,female,,,,,,1.0,learning,6.0,A,,black,,stars,,,,A,black,stars,,1.0,1.0,NA,left,833.9000000358,2.0,0.0,0.0,,,
57,0,,html-keyboard-response,57,400423,0.0-4.7-0.7,zfwvlo8qpf,2022-09-19 17:56:46.192,56c113f6eb5b22000d5baa6f,2,63,42,32,11,56,female,,,"<img src=""static/images/cards/stack_of_red_stars.svg"" width=""175px"" height=""250px""></img>",,,,,,,,,,,,,,,,,,,,,,,,,,,,
58,0,,html-keyboard-response,58,401411,0.0-4.7-1.7,zfwvlo8qpf,2022-09-19 17:56:46.192,56c113f6eb5b22000d5baa6f,2,63,42,32,11,56,female,484.0,,"
  <table>
  <tr height=300>
    <td width=300 height=300><img src=""static/images/cards/back_of_red_stars.svg"" width=""175px"" height=""250px""></img></td>
    <td width=300 height=300><img src=""static/images/cards/back_of_red_stars.svg"" width=""175px"" height=""250px""></img></td>
  </tr>
  <tr height=200>
    <td width=300><img src=""static/images/keys/z.svg"" width=""35%"" height=""75%""></img></td>
    <td width=300></td>
  </tr>
</table>
  ",90.0,1.0,,,,,,,,,,,,,,,,,,,,,,,,,,
59,0,,html-keyboard-response,59,402916,0.0-4.7-2.7,zfwvlo8qpf,2022-09-19 17:56:46.192,56c113f6eb5b22000d5baa6f,2,63,42,32,11,56,female,,,"
  <table>
  <tr height=300>
    <td width=300 height=300><img src=""static/images/cards/1_of_red_stars.svg"" width=""175px"" height=""250px""></img></td>
    <td width=300 height=300><img src=""static/images/cards/back_of_red_stars.svg"" width=""175px"" height=""250px""></img></td>
  </tr>
  <tr height=200>
    <td width=300><img src=""static/images/keys/z.svg"" width=""35%"" height=""75%""></img></td>
    <td width=300></td>
  </tr>
</table>
  ",,,,,,,,,,,,,,,,,,,,,,,,,,,,
60,0,,html-keyboard-response,60,404421,0.0-4.7-3.7,zfwvlo8qpf,2022-09-19 17:56:46.192,56c113f6eb5b22000d5baa6f,2,63,42,32,11,56,female,,,"<p style=""font-size:50px"">You Lose!
No points this round.</p>",,,,,,,,,,,,,,,,,,,,,,,,,,,,
61,0,,html-keyboard-response,61,404930,0.0-4.7-4.7,zfwvlo8qpf,2022-09-19 17:56:46.192,56c113f6eb5b22000d5baa6f,2,63,42,32,11,56,female,,,,,,1.0,learning,7.0,B,,red,,stars,,,,B,red,stars,,0.0,1.0,1,left,484.0,1.0,0.0,0.0,,,
62,0,,html-keyboard-response,62,406435,0.0-4.8-0.8,zfwvlo8qpf,2022-09-19 17:56:46.192,56c113f6eb5b22000d5baa6f,2,63,42,32,11,56,female,,,"<img src=""static/images/cards/stack_of_black_moons.svg"" width=""175px"" height=""250px""></img>",,,,,,,,,,,,,,,,,,,,,,,,,,,,
63,0,,html-keyboard-response,63,407369,0.0-4.8-1.8,zfwvlo8qpf,2022-09-19 17:56:46.192,56c113f6eb5b22000d5baa6f,2,63,42,32,11,56,female,427.8999999762,,"
  <table>
  <tr height=300>
    <td width=300 height=300><img src=""static/images/cards/back_of_black_moons.svg"" width=""175px"" height=""250px""></img></td>
    <td width=300 height=300><img src=""static/images/cards/back_of_black_moons.svg"" width=""175px"" height=""250px""></img></td>
  </tr>
  <tr height=200>
    <td width=300><img src=""static/images/keys/z.svg"" width=""35%"" height=""75%""></img></td>
    <td width=300><img src=""static/images/keys/m.svg"" width=""35%"" height=""75%""></img></td>
  </tr>
</table>
  ",77.0,1.0,,,,,,,,,,,,,,,,,,,,,,,,,,
64,0,,html-keyboard-response,64,408876,0.0-4.8-2.8,zfwvlo8qpf,2022-09-19 17:56:46.192,56c113f6eb5b22000d5baa6f,2,63,42,32,11,56,female,,,"
  <table>
  <tr height=300>
    <td width=300 height=300><img src=""static/images/cards/back_of_black_moons.svg"" width=""175px"" height=""250px""></img></td>
    <td width=300 height=300><img src=""static/images/cards/2_of_black_moons.svg"" width=""175px"" height=""250px""></img></td>
  </tr>
  <tr height=200>
    <td width=300><img src=""static/images/keys/z.svg"" width=""35%"" height=""75%""></img></td>
    <td width=300><img src=""static/images/keys/m.svg"" width=""35%"" height=""75%""></img></td>
  </tr>
</table>
  ",,,,,,,,,,,,,,,,,,,,,,,,,,,,
65,0,,html-keyboard-response,65,410384,0.0-4.8-3.8,zfwvlo8qpf,2022-09-19 17:56:46.192,56c113f6eb5b22000d5baa6f,2,63,42,32,11,56,female,,,"<p style=""font-size:50px"">You Lose!
No points this round.</p>",,,,,,,,,,,,,,,,,,,,,,,,,,,,
66,0,,html-keyboard-response,66,410894,0.0-4.8-4.8,zfwvlo8qpf,2022-09-19 17:56:46.192,56c113f6eb5b22000d5baa6f,2,63,42,32,11,56,female,,,,,,1.0,learning,8.0,C,,black,,moons,,,,C,black,moons,,1.0,0.0,NA,right,427.8999999762,2.0,0.0,0.0,,,
67,0,,html-keyboard-response,67,412400,0.0-4.9-0.9,zfwvlo8qpf,2022-09-19 17:56:46.192,56c113f6eb5b22000d5baa6f,2,63,42,32,11,56,female,,,"<img src=""static/images/cards/stack_of_red_moons.svg"" width=""175px"" height=""250px""></img>",,,,,,,,,,,,,,,,,,,,,,,,,,,,
68,0,,html-keyboard-response,68,413441,0.0-4.9-1.9,zfwvlo8qpf,2022-09-19 17:56:46.192,56c113f6eb5b22000d5baa6f,2,63,42,32,11,56,female,538.6999999881,,"
  <table>
  <tr height=300>
    <td width=300 height=300><img src=""static/images/cards/back_of_red_moons.svg"" width=""175px"" height=""250px""></img></td>
    <td width=300 height=300><img src=""static/images/cards/back_of_red_moons.svg"" width=""175px"" height=""250px""></img></td>
  </tr>
  <tr height=200>
    <td width=300></td>
    <td width=300><img src=""static/images/keys/m.svg"" width=""35%"" height=""75%""></img></td>
  </tr>
</table>
  ",77.0,1.0,,,,,,,,,,,,,,,,,,,,,,,,,,
69,0,,html-keyboard-response,69,414947,0.0-4.9-2.9,zfwvlo8qpf,2022-09-19 17:56:46.192,56c113f6eb5b22000d5baa6f,2,63,42,32,11,56,female,,,"
  <table>
  <tr height=300>
    <td width=300 height=300><img src=""static/images/cards/back_of_red_moons.svg"" width=""175px"" height=""250px""></img></td>
    <td width=300 height=300><img src=""static/images/cards/9_of_red_moons.svg"" width=""175px"" height=""250px""></img></td>
  </tr>
  <tr height=200>
    <td width=300></td>
    <td width=300><img src=""static/images/keys/m.svg"" width=""35%"" height=""75%""></img></td>
  </tr>
</table>
  ",,,,,,,,,,,,,,,,,,,,,,,,,,,,
70,0,,html-keyboard-response,70,416450,0.0-4.9-3.9,zfwvlo8qpf,2022-09-19 17:56:46.192,56c113f6eb5b22000d5baa6f,2,63,42,32,11,56,female,,,"<p style=""font-size:50px"">You Lose!
No points this round.</p>",,,,,,,,,,,,,,,,,,,,,,,,,,,,
71,0,,html-keyboard-response,71,416959,0.0-4.9-4.9,zfwvlo8qpf,2022-09-19 17:56:46.192,56c113f6eb5b22000d5baa6f,2,63,42,32,11,56,female,,,,,,1.0,learning,9.0,D,,red,,moons,,,,D,red,moons,,0.0,0.0,0,right,538.6999999881,9.0,1.0,0.0,,,
72,0,,html-keyboard-response,72,418462,0.0-4.10-0.10,zfwvlo8qpf,2022-09-19 17:56:46.192,56c113f6eb5b22000d5baa6f,2,63,42,32,11,56,female,,,"<img src=""static/images/cards/stack_of_red_bolts.svg"" width=""175px"" height=""250px""></img>",,,,,,,,,,,,,,,,,,,,,,,,,,,,
73,0,,html-keyboard-response,73,419637,0.0-4.10-1.10,zfwvlo8qpf,2022-09-19 17:56:46.192,56c113f6eb5b22000d5baa6f,2,63,42,32,11,56,female,672.1999999881,,"
  <table>
  <tr height=300>
    <td width=300 height=300><img src=""static/images/cards/back_of_red_bolts.svg"" width=""175px"" height=""250px""></img></td>
    <td width=300 height=300><img src=""static/images/cards/back_of_red_bolts.svg"" width=""175px"" height=""250px""></img></td>
  </tr>
  <tr height=200>
    <td width=300><img src=""static/images/keys/z.svg"" width=""35%"" height=""75%""></img></td>
    <td width=300><img src=""static/images/keys/m.svg"" width=""35%"" height=""75%""></img></td>
  </tr>
</table>
  ",90.0,1.0,,,,,,,,,,,,,,,,,,,,,,,,,,
74,0,,html-keyboard-response,74,421145,0.0-4.10-2.10,zfwvlo8qpf,2022-09-19 17:56:46.192,56c113f6eb5b22000d5baa6f,2,63,42,32,11,56,female,,,"
  <table>
  <tr height=300>
    <td width=300 height=300><img src=""static/images/cards/3_of_red_bolts.svg"" width=""175px"" height=""250px""></img></td>
    <td width=300 height=300><img src=""static/images/cards/back_of_red_bolts.svg"" width=""175px"" height=""250px""></img></td>
  </tr>
  <tr height=200>
    <td width=300><img src=""static/images/keys/z.svg"" width=""35%"" height=""75%""></img></td>
    <td width=300><img src=""static/images/keys/m.svg"" width=""35%"" height=""75%""></img></td>
  </tr>
</table>
  ",,,,,,,,,,,,,,,,,,,,,,,,,,,,
75,0,,html-keyboard-response,75,422651,0.0-4.10-3.10,zfwvlo8qpf,2022-09-19 17:56:46.192,56c113f6eb5b22000d5baa6f,2,63,42,32,11,56,female,,,"<p style=""font-size:50px"">You win!
+10 points this round!</p>",,,,,,,,,,,,,,,,,,,,,,,,,,,,
76,0,,html-keyboard-response,76,423161,0.0-4.10-4.10,zfwvlo8qpf,2022-09-19 17:56:46.192,56c113f6eb5b22000d5baa6f,2,63,42,32,11,56,female,,,,,,1.0,learning,10.0,Xc,,red,,bolts,,,,Xc,red,bolts,,1.0,0.0,NA,left,672.1999999881,3.0,0.0,1.0,,,
77,0,,html-keyboard-response,77,424664,0.0-4.11-0.11,zfwvlo8qpf,2022-09-19 17:56:46.192,56c113f6eb5b22000d5baa6f,2,63,42,32,11,56,female,,,"<img src=""static/images/cards/stack_of_black_bolts.svg"" width=""175px"" height=""250px""></img>",,,,,,,,,,,,,,,,,,,,,,,,,,,,
78,0,,html-keyboard-response,78,425639,0.0-4.11-1.11,zfwvlo8qpf,2022-09-19 17:56:46.192,56c113f6eb5b22000d5baa6f,2,63,42,32,11,56,female,468.4000000358,,"
  <table>
  <tr height=300>
    <td width=300 height=300><img src=""static/images/cards/back_of_black_bolts.svg"" width=""175px"" height=""250px""></img></td>
    <td width=300 height=300><img src=""static/images/cards/back_of_black_bolts.svg"" width=""175px"" height=""250px""></img></td>
  </tr>
  <tr height=200>
    <td width=300><img src=""static/images/keys/z.svg"" width=""35%"" height=""75%""></img></td>
    <td width=300></td>
  </tr>
</table>
  ",90.0,1.0,,,,,,,,,,,,,,,,,,,,,,,,,,
79,0,,html-keyboard-response,79,427142,0.0-4.11-2.11,zfwvlo8qpf,2022-09-19 17:56:46.192,56c113f6eb5b22000d5baa6f,2,63,42,32,11,56,female,,,"
  <table>
  <tr height=300>
    <td width=300 height=300><img src=""static/images/cards/2_of_black_bolts.svg"" width=""175px"" height=""250px""></img></td>
    <td width=300 height=300><img src=""static/images/cards/back_of_black_bolts.svg"" width=""175px"" height=""250px""></img></td>
  </tr>
  <tr height=200>
    <td width=300><img src=""static/images/keys/z.svg"" width=""35%"" height=""75%""></img></td>
    <td width=300></td>
  </tr>
</table>
  ",,,,,,,,,,,,,,,,,,,,,,,,,,,,
80,0,,html-keyboard-response,80,428646,0.0-4.11-3.11,zfwvlo8qpf,2022-09-19 17:56:46.192,56c113f6eb5b22000d5baa6f,2,63,42,32,11,56,female,,,"<p style=""font-size:50px"">You win!
+10 points this round!</p>",,,,,,,,,,,,,,,,,,,,,,,,,,,,
81,0,,html-keyboard-response,81,429156,0.0-4.11-4.11,zfwvlo8qpf,2022-09-19 17:56:46.192,56c113f6eb5b22000d5baa6f,2,63,42,32,11,56,female,,,,,,1.0,learning,11.0,Xnc,,black,,bolts,,,,Xnc,black,bolts,,0.0,0.0,1,left,468.4000000358,2.0,0.0,1.0,,,
82,0,,html-keyboard-response,82,430659,0.0-4.12-0.12,zfwvlo8qpf,2022-09-19 17:56:46.192,56c113f6eb5b22000d5baa6f,2,63,42,32,11,56,female,,,"<img src=""static/images/cards/stack_of_black_stars.svg"" width=""175px"" height=""250px""></img>",,,,,,,,,,,,,,,,,,,,,,,,,,,,
83,0,,html-keyboard-response,83,431654,0.0-4.12-1.12,zfwvlo8qpf,2022-09-19 17:56:46.192,56c113f6eb5b22000d5baa6f,2,63,42,32,11,56,female,491.0,,"
  <table>
  <tr height=300>
    <td width=300 height=300><img src=""static/images/cards/back_of_black_stars.svg"" width=""175px"" height=""250px""></img></td>
    <td width=300 height=300><img src=""static/images/cards/back_of_black_stars.svg"" width=""175px"" height=""250px""></img></td>
  </tr>
  <tr height=200>
    <td width=300><img src=""static/images/keys/z.svg"" width=""35%"" height=""75%""></img></td>
    <td width=300><img src=""static/images/keys/m.svg"" width=""35%"" height=""75%""></img></td>
  </tr>
</table>
  ",77.0,1.0,,,,,,,,,,,,,,,,,,,,,,,,,,
84,0,,html-keyboard-response,84,433161,0.0-4.12-2.12,zfwvlo8qpf,2022-09-19 17:56:46.192,56c113f6eb5b22000d5baa6f,2,63,42,32,11,56,female,,,"
  <table>
  <tr height=300>
    <td width=300 height=300><img src=""static/images/cards/back_of_black_stars.svg"" width=""175px"" height=""250px""></img></td>
    <td width=300 height=300><img src=""static/images/cards/7_of_black_stars.svg"" width=""175px"" height=""250px""></img></td>
  </tr>
  <tr height=200>
    <td width=300><img src=""static/images/keys/z.svg"" width=""35%"" height=""75%""></img></td>
    <td width=300><img src=""static/images/keys/m.svg"" width=""35%"" height=""75%""></img></td>
  </tr>
</table>
  ",,,,,,,,,,,,,,,,,,,,,,,,,,,,
85,0,,html-keyboard-response,85,434669,0.0-4.12-3.12,zfwvlo8qpf,2022-09-19 17:56:46.192,56c113f6eb5b22000d5baa6f,2,63,42,32,11,56,female,,,"<p style=""font-size:50px"">You win!
+10 points this round!</p>",,,,,,,,,,,,,,,,,,,,,,,,,,,,
86,0,,html-keyboard-response,86,435177,0.0-4.12-4.12,zfwvlo8qpf,2022-09-19 17:56:46.192,56c113f6eb5b22000d5baa6f,2,63,42,32,11,56,female,,,,,,1.0,learning,12.0,A,,black,,stars,,,,A,black,stars,,1.0,1.0,NA,right,491.0,7.0,1.0,1.0,,,
87,0,,html-keyboard-response,87,436682,0.0-4.13-0.13,zfwvlo8qpf,2022-09-19 17:56:46.192,56c113f6eb5b22000d5baa6f,2,63,42,32,11,56,female,,,"<img src=""static/images/cards/stack_of_red_stars.svg"" width=""175px"" height=""250px""></img>",,,,,,,,,,,,,,,,,,,,,,,,,,,,
88,0,,html-keyboard-response,88,437598,0.0-4.13-1.13,zfwvlo8qpf,2022-09-19 17:56:46.192,56c113f6eb5b22000d5baa6f,2,63,42,32,11,56,female,409.3999999762,,"
  <table>
  <tr height=300>
    <td width=300 height=300><img src=""static/images/cards/back_of_red_stars.svg"" width=""175px"" height=""250px""></img></td>
    <td width=300 height=300><img src=""static/images/cards/back_of_red_stars.svg"" width=""175px"" height=""250px""></img></td>
  </tr>
  <tr height=200>
    <td width=300></td>
    <td width=300><img src=""static/images/keys/m.svg"" width=""35%"" height=""75%""></img></td>
  </tr>
</table>
  ",77.0,1.0,,,,,,,,,,,,,,,,,,,,,,,,,,
89,0,,html-keyboard-response,89,439103,0.0-4.13-2.13,zfwvlo8qpf,2022-09-19 17:56:46.192,56c113f6eb5b22000d5baa6f,2,63,42,32,11,56,female,,,"
  <table>
  <tr height=300>
    <td width=300 height=300><img src=""static/images/cards/back_of_red_stars.svg"" width=""175px"" height=""250px""></img></td>
    <td width=300 height=300><img src=""static/images/cards/2_of_red_stars.svg"" width=""175px"" height=""250px""></img></td>
  </tr>
  <tr height=200>
    <td width=300></td>
    <td width=300><img src=""static/images/keys/m.svg"" width=""35%"" height=""75%""></img></td>
  </tr>
</table>
  ",,,,,,,,,,,,,,,,,,,,,,,,,,,,
90,0,,html-keyboard-response,90,440607,0.0-4.13-3.13,zfwvlo8qpf,2022-09-19 17:56:46.192,56c113f6eb5b22000d5baa6f,2,63,42,32,11,56,female,,,"<p style=""font-size:50px"">You Lose!
No points this round.</p>",,,,,,,,,,,,,,,,,,,,,,,,,,,,
91,0,,html-keyboard-response,91,441117,0.0-4.13-4.13,zfwvlo8qpf,2022-09-19 17:56:46.192,56c113f6eb5b22000d5baa6f,2,63,42,32,11,56,female,,,,,,1.0,learning,13.0,B,,red,,stars,,,,B,red,stars,,0.0,1.0,0,right,409.3999999762,2.0,0.0,0.0,,,
92,0,,html-keyboard-response,92,442621,0.0-4.14-0.14,zfwvlo8qpf,2022-09-19 17:56:46.192,56c113f6eb5b22000d5baa6f,2,63,42,32,11,56,female,,,"<img src=""static/images/cards/stack_of_black_moons.svg"" width=""175px"" height=""250px""></img>",,,,,,,,,,,,,,,,,,,,,,,,,,,,
93,0,,html-keyboard-response,93,443558,0.0-4.14-1.14,zfwvlo8qpf,2022-09-19 17:56:46.192,56c113f6eb5b22000d5baa6f,2,63,42,32,11,56,female,434.1999999881,,"
  <table>
  <tr height=300>
    <td width=300 height=300><img src=""static/images/cards/back_of_black_moons.svg"" width=""175px"" height=""250px""></img></td>
    <td width=300 height=300><img src=""static/images/cards/back_of_black_moons.svg"" width=""175px"" height=""250px""></img></td>
  </tr>
  <tr height=200>
    <td width=300><img src=""static/images/keys/z.svg"" width=""35%"" height=""75%""></img></td>
    <td width=300><img src=""static/images/keys/m.svg"" width=""35%"" height=""75%""></img></td>
  </tr>
</table>
  ",90.0,1.0,,,,,,,,,,,,,,,,,,,,,,,,,,
94,0,,html-keyboard-response,94,445062,0.0-4.14-2.14,zfwvlo8qpf,2022-09-19 17:56:46.192,56c113f6eb5b22000d5baa6f,2,63,42,32,11,56,female,,,"
  <table>
  <tr height=300>
    <td width=300 height=300><img src=""static/images/cards/1_of_black_moons.svg"" width=""175px"" height=""250px""></img></td>
    <td width=300 height=300><img src=""static/images/cards/back_of_black_moons.svg"" width=""175px"" height=""250px""></img></td>
  </tr>
  <tr height=200>
    <td width=300><img src=""static/images/keys/z.svg"" width=""35%"" height=""75%""></img></td>
    <td width=300><img src=""static/images/keys/m.svg"" width=""35%"" height=""75%""></img></td>
  </tr>
</table>
  ",,,,,,,,,,,,,,,,,,,,,,,,,,,,
95,0,,html-keyboard-response,95,446570,0.0-4.14-3.14,zfwvlo8qpf,2022-09-19 17:56:46.192,56c113f6eb5b22000d5baa6f,2,63,42,32,11,56,female,,,"<p style=""font-size:50px"">You Lose!
No points this round.</p>",,,,,,,,,,,,,,,,,,,,,,,,,,,,
96,0,,html-keyboard-response,96,447078,0.0-4.14-4.14,zfwvlo8qpf,2022-09-19 17:56:46.192,56c113f6eb5b22000d5baa6f,2,63,42,32,11,56,female,,,,,,1.0,learning,14.0,C,,black,,moons,,,,C,black,moons,,1.0,0.0,NA,left,434.1999999881,1.0,0.0,0.0,,,
97,0,,html-keyboard-response,97,448581,0.0-4.15-0.15,zfwvlo8qpf,2022-09-19 17:56:46.192,56c113f6eb5b22000d5baa6f,2,63,42,32,11,56,female,,,"<img src=""static/images/cards/stack_of_red_moons.svg"" width=""175px"" height=""250px""></img>",,,,,,,,,,,,,,,,,,,,,,,,,,,,
98,0,,html-keyboard-response,98,449511,0.0-4.15-1.15,zfwvlo8qpf,2022-09-19 17:56:46.192,56c113f6eb5b22000d5baa6f,2,63,42,32,11,56,female,425.3000000119,,"
  <table>
  <tr height=300>
    <td width=300 height=300><img src=""static/images/cards/back_of_red_moons.svg"" width=""175px"" height=""250px""></img></td>
    <td width=300 height=300><img src=""static/images/cards/back_of_red_moons.svg"" width=""175px"" height=""250px""></img></td>
  </tr>
  <tr height=200>
    <td width=300><img src=""static/images/keys/z.svg"" width=""35%"" height=""75%""></img></td>
    <td width=300></td>
  </tr>
</table>
  ",90.0,1.0,,,,,,,,,,,,,,,,,,,,,,,,,,
99,0,,html-keyboard-response,99,451019,0.0-4.15-2.15,zfwvlo8qpf,2022-09-19 17:56:46.192,56c113f6eb5b22000d5baa6f,2,63,42,32,11,56,female,,,"
  <table>
  <tr height=300>
    <td width=300 height=300><img src=""static/images/cards/6_of_red_moons.svg"" width=""175px"" height=""250px""></img></td>
    <td width=300 height=300><img src=""static/images/cards/back_of_red_moons.svg"" width=""175px"" height=""250px""></img></td>
  </tr>
  <tr height=200>
    <td width=300><img src=""static/images/keys/z.svg"" width=""35%"" height=""75%""></img></td>
    <td width=300></td>
  </tr>
</table>
  ",,,,,,,,,,,,,,,,,,,,,,,,,,,,
100,0,,html-keyboard-response,100,452522,0.0-4.15-3.15,zfwvlo8qpf,2022-09-19 17:56:46.192,56c113f6eb5b22000d5baa6f,2,63,42,32,11,56,female,,,"<p style=""font-size:50px"">You win!
+10 points this round!</p>",,,,,,,,,,,,,,,,,,,,,,,,,,,,
101,0,,html-keyboard-response,101,453031,0.0-4.15-4.15,zfwvlo8qpf,2022-09-19 17:56:46.192,56c113f6eb5b22000d5baa6f,2,63,42,32,11,56,female,,,,,,1.0,learning,15.0,D,,red,,moons,,,,D,red,moons,,0.0,0.0,1,left,425.3000000119,6.0,1.0,1.0,,,
102,0,,html-keyboard-response,102,454537,0.0-4.16-0.16,zfwvlo8qpf,2022-09-19 17:56:46.192,56c113f6eb5b22000d5baa6f,2,63,42,32,11,56,female,,,"<img src=""static/images/cards/stack_of_red_bolts.svg"" width=""175px"" height=""250px""></img>",,,,,,,,,,,,,,,,,,,,,,,,,,,,
103,0,,html-keyboard-response,103,455481,0.0-4.16-1.16,zfwvlo8qpf,2022-09-19 17:56:46.192,56c113f6eb5b22000d5baa6f,2,63,42,32,11,56,female,438.0,,"
  <table>
  <tr height=300>
    <td width=300 height=300><img src=""static/images/cards/back_of_red_bolts.svg"" width=""175px"" height=""250px""></img></td>
    <td width=300 height=300><img src=""static/images/cards/back_of_red_bolts.svg"" width=""175px"" height=""250px""></img></td>
  </tr>
  <tr height=200>
    <td width=300><img src=""static/images/keys/z.svg"" width=""35%"" height=""75%""></img></td>
    <td width=300><img src=""static/images/keys/m.svg"" width=""35%"" height=""75%""></img></td>
  </tr>
</table>
  ",77.0,1.0,,,,,,,,,,,,,,,,,,,,,,,,,,
104,0,,html-keyboard-response,104,456988,0.0-4.16-2.16,zfwvlo8qpf,2022-09-19 17:56:46.192,56c113f6eb5b22000d5baa6f,2,63,42,32,11,56,female,,,"
  <table>
  <tr height=300>
    <td width=300 height=300><img src=""static/images/cards/back_of_red_bolts.svg"" width=""175px"" height=""250px""></img></td>
    <td width=300 height=300><img src=""static/images/cards/8_of_red_bolts.svg"" width=""175px"" height=""250px""></img></td>
  </tr>
  <tr height=200>
    <td width=300><img src=""static/images/keys/z.svg"" width=""35%"" height=""75%""></img></td>
    <td width=300><img src=""static/images/keys/m.svg"" width=""35%"" height=""75%""></img></td>
  </tr>
</table>
  ",,,,,,,,,,,,,,,,,,,,,,,,,,,,
105,0,,html-keyboard-response,105,458493,0.0-4.16-3.16,zfwvlo8qpf,2022-09-19 17:56:46.192,56c113f6eb5b22000d5baa6f,2,63,42,32,11,56,female,,,"<p style=""font-size:50px"">You win!
+10 points this round!</p>",,,,,,,,,,,,,,,,,,,,,,,,,,,,
106,0,,html-keyboard-response,106,459001,0.0-4.16-4.16,zfwvlo8qpf,2022-09-19 17:56:46.192,56c113f6eb5b22000d5baa6f,2,63,42,32,11,56,female,,,,,,1.0,learning,16.0,Xc,,red,,bolts,,,,Xc,red,bolts,,1.0,0.0,NA,right,438.0,8.0,1.0,1.0,,,
107,0,,html-keyboard-response,107,460505,0.0-4.17-0.17,zfwvlo8qpf,2022-09-19 17:56:46.192,56c113f6eb5b22000d5baa6f,2,63,42,32,11,56,female,,,"<img src=""static/images/cards/stack_of_black_bolts.svg"" width=""175px"" height=""250px""></img>",,,,,,,,,,,,,,,,,,,,,,,,,,,,
108,0,,html-keyboard-response,108,461389,0.0-4.17-1.17,zfwvlo8qpf,2022-09-19 17:56:46.192,56c113f6eb5b22000d5baa6f,2,63,42,32,11,56,female,379.3999999762,,"
  <table>
  <tr height=300>
    <td width=300 height=300><img src=""static/images/cards/back_of_black_bolts.svg"" width=""175px"" height=""250px""></img></td>
    <td width=300 height=300><img src=""static/images/cards/back_of_black_bolts.svg"" width=""175px"" height=""250px""></img></td>
  </tr>
  <tr height=200>
    <td width=300><img src=""static/images/keys/z.svg"" width=""35%"" height=""75%""></img></td>
    <td width=300></td>
  </tr>
</table>
  ",90.0,1.0,,,,,,,,,,,,,,,,,,,,,,,,,,
109,0,,html-keyboard-response,109,462895,0.0-4.17-2.17,zfwvlo8qpf,2022-09-19 17:56:46.192,56c113f6eb5b22000d5baa6f,2,63,42,32,11,56,female,,,"
  <table>
  <tr height=300>
    <td width=300 height=300><img src=""static/images/cards/3_of_black_bolts.svg"" width=""175px"" height=""250px""></img></td>
    <td width=300 height=300><img src=""static/images/cards/back_of_black_bolts.svg"" width=""175px"" height=""250px""></img></td>
  </tr>
  <tr height=200>
    <td width=300><img src=""static/images/keys/z.svg"" width=""35%"" height=""75%""></img></td>
    <td width=300></td>
  </tr>
</table>
  ",,,,,,,,,,,,,,,,,,,,,,,,,,,,
110,0,,html-keyboard-response,110,464402,0.0-4.17-3.17,zfwvlo8qpf,2022-09-19 17:56:46.192,56c113f6eb5b22000d5baa6f,2,63,42,32,11,56,female,,,"<p style=""font-size:50px"">You win!
+10 points this round!</p>",,,,,,,,,,,,,,,,,,,,,,,,,,,,
111,0,,html-keyboard-response,111,464911,0.0-4.17-4.17,zfwvlo8qpf,2022-09-19 17:56:46.192,56c113f6eb5b22000d5baa6f,2,63,42,32,11,56,female,,,,,,1.0,learning,17.0,Xnc,,black,,bolts,,,,Xnc,black,bolts,,0.0,0.0,1,left,379.3999999762,3.0,0.0,1.0,,,
112,0,,html-keyboard-response,112,466416,0.0-4.18-0.18,zfwvlo8qpf,2022-09-19 17:56:46.192,56c113f6eb5b22000d5baa6f,2,63,42,32,11,56,female,,,"<img src=""static/images/cards/stack_of_black_stars.svg"" width=""175px"" height=""250px""></img>",,,,,,,,,,,,,,,,,,,,,,,,,,,,
113,0,,html-keyboard-response,113,467282,0.0-4.18-1.18,zfwvlo8qpf,2022-09-19 17:56:46.192,56c113f6eb5b22000d5baa6f,2,63,42,32,11,56,female,362.0,,"
  <table>
  <tr height=300>
    <td width=300 height=300><img src=""static/images/cards/back_of_black_stars.svg"" width=""175px"" height=""250px""></img></td>
    <td width=300 height=300><img src=""static/images/cards/back_of_black_stars.svg"" width=""175px"" height=""250px""></img></td>
  </tr>
  <tr height=200>
    <td width=300><img src=""static/images/keys/z.svg"" width=""35%"" height=""75%""></img></td>
    <td width=300><img src=""static/images/keys/m.svg"" width=""35%"" height=""75%""></img></td>
  </tr>
</table>
  ",90.0,1.0,,,,,,,,,,,,,,,,,,,,,,,,,,
114,0,,html-keyboard-response,114,468788,0.0-4.18-2.18,zfwvlo8qpf,2022-09-19 17:56:46.192,56c113f6eb5b22000d5baa6f,2,63,42,32,11,56,female,,,"
  <table>
  <tr height=300>
    <td width=300 height=300><img src=""static/images/cards/1_of_black_stars.svg"" width=""175px"" height=""250px""></img></td>
    <td width=300 height=300><img src=""static/images/cards/back_of_black_stars.svg"" width=""175px"" height=""250px""></img></td>
  </tr>
  <tr height=200>
    <td width=300><img src=""static/images/keys/z.svg"" width=""35%"" height=""75%""></img></td>
    <td width=300><img src=""static/images/keys/m.svg"" width=""35%"" height=""75%""></img></td>
  </tr>
</table>
  ",,,,,,,,,,,,,,,,,,,,,,,,,,,,
115,0,,html-keyboard-response,115,470294,0.0-4.18-3.18,zfwvlo8qpf,2022-09-19 17:56:46.192,56c113f6eb5b22000d5baa6f,2,63,42,32,11,56,female,,,"<p style=""font-size:50px"">You Lose!
No points this round.</p>",,,,,,,,,,,,,,,,,,,,,,,,,,,,
116,0,,html-keyboard-response,116,470802,0.0-4.18-4.18,zfwvlo8qpf,2022-09-19 17:56:46.192,56c113f6eb5b22000d5baa6f,2,63,42,32,11,56,female,,,,,,1.0,learning,18.0,A,,black,,stars,,,,A,black,stars,,1.0,1.0,NA,left,362.0,1.0,0.0,0.0,,,
117,0,,html-keyboard-response,117,472306,0.0-4.19-0.19,zfwvlo8qpf,2022-09-19 17:56:46.192,56c113f6eb5b22000d5baa6f,2,63,42,32,11,56,female,,,"<img src=""static/images/cards/stack_of_red_stars.svg"" width=""175px"" height=""250px""></img>",,,,,,,,,,,,,,,,,,,,,,,,,,,,
118,0,,html-keyboard-response,118,473219,0.0-4.19-1.19,zfwvlo8qpf,2022-09-19 17:56:46.192,56c113f6eb5b22000d5baa6f,2,63,42,32,11,56,female,406.8000000119,,"
  <table>
  <tr height=300>
    <td width=300 height=300><img src=""static/images/cards/back_of_red_stars.svg"" width=""175px"" height=""250px""></img></td>
    <td width=300 height=300><img src=""static/images/cards/back_of_red_stars.svg"" width=""175px"" height=""250px""></img></td>
  </tr>
  <tr height=200>
    <td width=300></td>
    <td width=300><img src=""static/images/keys/m.svg"" width=""35%"" height=""75%""></img></td>
  </tr>
</table>
  ",77.0,1.0,,,,,,,,,,,,,,,,,,,,,,,,,,
119,0,,html-keyboard-response,119,474726,0.0-4.19-2.19,zfwvlo8qpf,2022-09-19 17:56:46.192,56c113f6eb5b22000d5baa6f,2,63,42,32,11,56,female,,,"
  <table>
  <tr height=300>
    <td width=300 height=300><img src=""static/images/cards/back_of_red_stars.svg"" width=""175px"" height=""250px""></img></td>
    <td width=300 height=300><img src=""static/images/cards/6_of_red_stars.svg"" width=""175px"" height=""250px""></img></td>
  </tr>
  <tr height=200>
    <td width=300></td>
    <td width=300><img src=""static/images/keys/m.svg"" width=""35%"" height=""75%""></img></td>
  </tr>
</table>
  ",,,,,,,,,,,,,,,,,,,,,,,,,,,,
120,0,,html-keyboard-response,120,476231,0.0-4.19-3.19,zfwvlo8qpf,2022-09-19 17:56:46.192,56c113f6eb5b22000d5baa6f,2,63,42,32,11,56,female,,,"<p style=""font-size:50px"">You win!
+10 points this round!</p>",,,,,,,,,,,,,,,,,,,,,,,,,,,,
121,0,,html-keyboard-response,121,476737,0.0-4.19-4.19,zfwvlo8qpf,2022-09-19 17:56:46.192,56c113f6eb5b22000d5baa6f,2,63,42,32,11,56,female,,,,,,1.0,learning,19.0,B,,red,,stars,,,,B,red,stars,,0.0,1.0,0,right,406.8000000119,6.0,1.0,1.0,,,
122,0,,html-keyboard-response,122,478239,0.0-4.20-0.20,zfwvlo8qpf,2022-09-19 17:56:46.192,56c113f6eb5b22000d5baa6f,2,63,42,32,11,56,female,,,"<img src=""static/images/cards/stack_of_black_moons.svg"" width=""175px"" height=""250px""></img>",,,,,,,,,,,,,,,,,,,,,,,,,,,,
123,0,,html-keyboard-response,123,479103,0.0-4.20-1.20,zfwvlo8qpf,2022-09-19 17:56:46.192,56c113f6eb5b22000d5baa6f,2,63,42,32,11,56,female,359.1999999881,,"
  <table>
  <tr height=300>
    <td width=300 height=300><img src=""static/images/cards/back_of_black_moons.svg"" width=""175px"" height=""250px""></img></td>
    <td width=300 height=300><img src=""static/images/cards/back_of_black_moons.svg"" width=""175px"" height=""250px""></img></td>
  </tr>
  <tr height=200>
    <td width=300><img src=""static/images/keys/z.svg"" width=""35%"" height=""75%""></img></td>
    <td width=300><img src=""static/images/keys/m.svg"" width=""35%"" height=""75%""></img></td>
  </tr>
</table>
  ",77.0,1.0,,,,,,,,,,,,,,,,,,,,,,,,,,
124,0,,html-keyboard-response,124,480611,0.0-4.20-2.20,zfwvlo8qpf,2022-09-19 17:56:46.192,56c113f6eb5b22000d5baa6f,2,63,42,32,11,56,female,,,"
  <table>
  <tr height=300>
    <td width=300 height=300><img src=""static/images/cards/back_of_black_moons.svg"" width=""175px"" height=""250px""></img></td>
    <td width=300 height=300><img src=""static/images/cards/9_of_black_moons.svg"" width=""175px"" height=""250px""></img></td>
  </tr>
  <tr height=200>
    <td width=300><img src=""static/images/keys/z.svg"" width=""35%"" height=""75%""></img></td>
    <td width=300><img src=""static/images/keys/m.svg"" width=""35%"" height=""75%""></img></td>
  </tr>
</table>
  ",,,,,,,,,,,,,,,,,,,,,,,,,,,,
125,0,,html-keyboard-response,125,482116,0.0-4.20-3.20,zfwvlo8qpf,2022-09-19 17:56:46.192,56c113f6eb5b22000d5baa6f,2,63,42,32,11,56,female,,,"<p style=""font-size:50px"">You Lose!
No points this round.</p>",,,,,,,,,,,,,,,,,,,,,,,,,,,,
126,0,,html-keyboard-response,126,482626,0.0-4.20-4.20,zfwvlo8qpf,2022-09-19 17:56:46.192,56c113f6eb5b22000d5baa6f,2,63,42,32,11,56,female,,,,,,1.0,learning,20.0,C,,black,,moons,,,,C,black,moons,,1.0,0.0,NA,right,359.1999999881,9.0,1.0,0.0,,,
127,0,,html-keyboard-response,127,484131,0.0-4.21-0.21,zfwvlo8qpf,2022-09-19 17:56:46.192,56c113f6eb5b22000d5baa6f,2,63,42,32,11,56,female,,,"<img src=""static/images/cards/stack_of_red_moons.svg"" width=""175px"" height=""250px""></img>",,,,,,,,,,,,,,,,,,,,,,,,,,,,
128,0,,html-keyboard-response,128,485061,0.0-4.21-1.21,zfwvlo8qpf,2022-09-19 17:56:46.192,56c113f6eb5b22000d5baa6f,2,63,42,32,11,56,female,426.8999999762,,"
  <table>
  <tr height=300>
    <td width=300 height=300><img src=""static/images/cards/back_of_red_moons.svg"" width=""175px"" height=""250px""></img></td>
    <td width=300 height=300><img src=""static/images/cards/back_of_red_moons.svg"" width=""175px"" height=""250px""></img></td>
  </tr>
  <tr height=200>
    <td width=300></td>
    <td width=300><img src=""static/images/keys/m.svg"" width=""35%"" height=""75%""></img></td>
  </tr>
</table>
  ",77.0,1.0,,,,,,,,,,,,,,,,,,,,,,,,,,
129,0,,html-keyboard-response,129,486568,0.0-4.21-2.21,zfwvlo8qpf,2022-09-19 17:56:46.192,56c113f6eb5b22000d5baa6f,2,63,42,32,11,56,female,,,"
  <table>
  <tr height=300>
    <td width=300 height=300><img src=""static/images/cards/back_of_red_moons.svg"" width=""175px"" height=""250px""></img></td>
    <td width=300 height=300><img src=""static/images/cards/2_of_red_moons.svg"" width=""175px"" height=""250px""></img></td>
  </tr>
  <tr height=200>
    <td width=300></td>
    <td width=300><img src=""static/images/keys/m.svg"" width=""35%"" height=""75%""></img></td>
  </tr>
</table>
  ",,,,,,,,,,,,,,,,,,,,,,,,,,,,
130,0,,html-keyboard-response,130,488072,0.0-4.21-3.21,zfwvlo8qpf,2022-09-19 17:56:46.192,56c113f6eb5b22000d5baa6f,2,63,42,32,11,56,female,,,"<p style=""font-size:50px"">You win!
+10 points this round!</p>",,,,,,,,,,,,,,,,,,,,,,,,,,,,
131,0,,html-keyboard-response,131,488578,0.0-4.21-4.21,zfwvlo8qpf,2022-09-19 17:56:46.192,56c113f6eb5b22000d5baa6f,2,63,42,32,11,56,female,,,,,,1.0,learning,21.0,D,,red,,moons,,,,D,red,moons,,0.0,0.0,0,right,426.8999999762,2.0,0.0,1.0,,,
132,0,,html-keyboard-response,132,490080,0.0-4.22-0.22,zfwvlo8qpf,2022-09-19 17:56:46.192,56c113f6eb5b22000d5baa6f,2,63,42,32,11,56,female,,,"<img src=""static/images/cards/stack_of_red_bolts.svg"" width=""175px"" height=""250px""></img>",,,,,,,,,,,,,,,,,,,,,,,,,,,,
133,0,,html-keyboard-response,133,490940,0.0-4.22-1.22,zfwvlo8qpf,2022-09-19 17:56:46.192,56c113f6eb5b22000d5baa6f,2,63,42,32,11,56,female,354.4000000358,,"
  <table>
  <tr height=300>
    <td width=300 height=300><img src=""static/images/cards/back_of_red_bolts.svg"" width=""175px"" height=""250px""></img></td>
    <td width=300 height=300><img src=""static/images/cards/back_of_red_bolts.svg"" width=""175px"" height=""250px""></img></td>
  </tr>
  <tr height=200>
    <td width=300><img src=""static/images/keys/z.svg"" width=""35%"" height=""75%""></img></td>
    <td width=300><img src=""static/images/keys/m.svg"" width=""35%"" height=""75%""></img></td>
  </tr>
</table>
  ",77.0,1.0,,,,,,,,,,,,,,,,,,,,,,,,,,
134,0,,html-keyboard-response,134,492443,0.0-4.22-2.22,zfwvlo8qpf,2022-09-19 17:56:46.192,56c113f6eb5b22000d5baa6f,2,63,42,32,11,56,female,,,"
  <table>
  <tr height=300>
    <td width=300 height=300><img src=""static/images/cards/back_of_red_bolts.svg"" width=""175px"" height=""250px""></img></td>
    <td width=300 height=300><img src=""static/images/cards/2_of_red_bolts.svg"" width=""175px"" height=""250px""></img></td>
  </tr>
  <tr height=200>
    <td width=300><img src=""static/images/keys/z.svg"" width=""35%"" height=""75%""></img></td>
    <td width=300><img src=""static/images/keys/m.svg"" width=""35%"" height=""75%""></img></td>
  </tr>
</table>
  ",,,,,,,,,,,,,,,,,,,,,,,,,,,,
135,0,,html-keyboard-response,135,493951,0.0-4.22-3.22,zfwvlo8qpf,2022-09-19 17:56:46.192,56c113f6eb5b22000d5baa6f,2,63,42,32,11,56,female,,,"<p style=""font-size:50px"">You win!
+10 points this round!</p>",,,,,,,,,,,,,,,,,,,,,,,,,,,,
136,0,,html-keyboard-response,136,494459,0.0-4.22-4.22,zfwvlo8qpf,2022-09-19 17:56:46.192,56c113f6eb5b22000d5baa6f,2,63,42,32,11,56,female,,,,,,1.0,learning,22.0,Xc,,red,,bolts,,,,Xc,red,bolts,,1.0,0.0,NA,right,354.4000000358,2.0,0.0,1.0,,,
137,0,,html-keyboard-response,137,495960,0.0-4.23-0.23,zfwvlo8qpf,2022-09-19 17:56:46.192,56c113f6eb5b22000d5baa6f,2,63,42,32,11,56,female,,,"<img src=""static/images/cards/stack_of_black_bolts.svg"" width=""175px"" height=""250px""></img>",,,,,,,,,,,,,,,,,,,,,,,,,,,,
138,0,,html-keyboard-response,138,496852,0.0-4.23-1.23,zfwvlo8qpf,2022-09-19 17:56:46.192,56c113f6eb5b22000d5baa6f,2,63,42,32,11,56,female,387.8000000119,,"
  <table>
  <tr height=300>
    <td width=300 height=300><img src=""static/images/cards/back_of_black_bolts.svg"" width=""175px"" height=""250px""></img></td>
    <td width=300 height=300><img src=""static/images/cards/back_of_black_bolts.svg"" width=""175px"" height=""250px""></img></td>
  </tr>
  <tr height=200>
    <td width=300><img src=""static/images/keys/z.svg"" width=""35%"" height=""75%""></img></td>
    <td width=300></td>
  </tr>
</table>
  ",90.0,1.0,,,,,,,,,,,,,,,,,,,,,,,,,,
139,0,,html-keyboard-response,139,498356,0.0-4.23-2.23,zfwvlo8qpf,2022-09-19 17:56:46.192,56c113f6eb5b22000d5baa6f,2,63,42,32,11,56,female,,,"
  <table>
  <tr height=300>
    <td width=300 height=300><img src=""static/images/cards/10_of_black_bolts.svg"" width=""175px"" height=""250px""></img></td>
    <td width=300 height=300><img src=""static/images/cards/back_of_black_bolts.svg"" width=""175px"" height=""250px""></img></td>
  </tr>
  <tr height=200>
    <td width=300><img src=""static/images/keys/z.svg"" width=""35%"" height=""75%""></img></td>
    <td width=300></td>
  </tr>
</table>
  ",,,,,,,,,,,,,,,,,,,,,,,,,,,,
140,0,,html-keyboard-response,140,499858,0.0-4.23-3.23,zfwvlo8qpf,2022-09-19 17:56:46.192,56c113f6eb5b22000d5baa6f,2,63,42,32,11,56,female,,,"<p style=""font-size:50px"">You win!
+10 points this round!</p>",,,,,,,,,,,,,,,,,,,,,,,,,,,,
141,0,,html-keyboard-response,141,500368,0.0-4.23-4.23,zfwvlo8qpf,2022-09-19 17:56:46.192,56c113f6eb5b22000d5baa6f,2,63,42,32,11,56,female,,,,,,1.0,learning,23.0,Xnc,,black,,bolts,,,,Xnc,black,bolts,,0.0,0.0,1,left,387.8000000119,10.0,1.0,1.0,,,
142,0,,call-function,142,500378,0.0-5.0,zfwvlo8qpf,2022-09-19 17:56:46.192,56c113f6eb5b22000d5baa6f,2,63,42,32,11,56,female,,,,,,,,,,,,,,,,,,,,,,,,,,,,,,,
143,0,,image-keyboard-response,143,517528,0.0-6.0-0.0,zfwvlo8qpf,2022-09-19 17:56:46.192,56c113f6eb5b22000d5baa6f,2,63,42,32,11,56,female,17150.5,,static/images/instructions_CB_2/Slide20.png,39.0,,,,,,,,,,,,,,,,,,,,,,,,,,,
144,0,,image-keyboard-response,144,527462,0.0-6.1-0.1,zfwvlo8qpf,2022-09-19 17:56:46.192,56c113f6eb5b22000d5baa6f,2,63,42,32,11,56,female,9933.3000000119,,static/images/instructions_CB_2/Slide21.png,39.0,,,,,,,,,,,,,,,,,,,,,,,,,,,
145,0,,image-keyboard-response,145,537800,0.0-6.2-0.2,zfwvlo8qpf,2022-09-19 17:56:46.192,56c113f6eb5b22000d5baa6f,2,63,42,32,11,56,female,10336.1000000238,,static/images/instructions_CB_2/Slide22.png,39.0,,,,,,,,,,,,,,,,,,,,,,,,,,,
146,0,,image-keyboard-response,146,546193,0.0-6.3-0.3,zfwvlo8qpf,2022-09-19 17:56:46.192,56c113f6eb5b22000d5baa6f,2,63,42,32,11,56,female,8391.1999999881,,static/images/instructions_CB_2/Slide23.png,39.0,,,,,,,,,,,,,,,,,,,,,,,,,,,
147,0,,image-keyboard-response,147,547778,0.0-6.4-0.4,zfwvlo8qpf,2022-09-19 17:56:46.192,56c113f6eb5b22000d5baa6f,2,63,42,32,11,56,female,1583.6999999881,,static/images/instructions_CB_2/Slide24.png,39.0,,,,,,,,,,,,,,,,,,,,,,,,,,,
148,0,,html-keyboard-response,148,549012,0.0-7.0-0.0,zfwvlo8qpf,2022-09-19 17:56:46.192,56c113f6eb5b22000d5baa6f,2,63,42,32,11,56,female,1230.9000000358,,"
  <table>
  <tr height=300>
    <td width=300 height=300><img src=""static/images/cards/stack_of_black_moons.svg"" width=""175px"" height=""250px""></img></td>
    <td width=300 height=300><img src=""static/images/cards/stack_of_red_moons.svg"" width=""175px"" height=""250px""></img></td>
  </tr>
  <tr height=200>
    <td width=300><img src=""static/images/keys/w.svg"" width=""35%"" height=""75%""></img></td>
    <td width=300><img src=""static/images/keys/o.svg"" width=""35%"" height=""75%""></img></td>
  </tr>
</table>
  ",87.0,1.0,,,,,,,,,,,,,,,,,,,,,,,,,,
149,0,,html-keyboard-response,149,551940,0.0-7.0-1.0,zfwvlo8qpf,2022-09-19 17:56:46.192,56c113f6eb5b22000d5baa6f,2,63,42,32,11,56,female,2425.3999999762,,"
  <table>
  <tr height=300>
    <td width=300 height=300><img src=""static/images/cards/back_of_black_moons.svg"" width=""175px"" height=""250px""></img></td>
    <td width=300 height=300><img src=""static/images/cards/back_of_black_moons.svg"" width=""175px"" height=""250px""></img></td>
  </tr>
  <tr height=200>
    <td width=300><img src=""static/images/keys/z.svg"" width=""35%"" height=""75%""></img></td>
    <td width=300><img src=""static/images/keys/m.svg"" width=""35%"" height=""75%""></img></td>
  </tr>
</table>
  ",90.0,1.0,,,,,,,,,,,,,,,,,,,,,,,,,,
150,0,,html-keyboard-response,150,553441,0.0-7.0-2.0,zfwvlo8qpf,2022-09-19 17:56:46.192,56c113f6eb5b22000d5baa6f,2,63,42,32,11,56,female,,,"
  <table>
  <tr height=300>
    <td width=300 height=300><img src=""static/images/cards/10_of_black_moons.svg"" width=""175px"" height=""250px""></img></td>
    <td width=300 height=300><img src=""static/images/cards/back_of_black_moons.svg"" width=""175px"" height=""250px""></img></td>
  </tr>
  <tr height=200>
    <td width=300><img src=""static/images/keys/z.svg"" width=""35%"" height=""75%""></img></td>
    <td width=300><img src=""static/images/keys/m.svg"" width=""35%"" height=""75%""></img></td>
  </tr>
</table>
  ",,,,,,,,,,,,,,,,,,,,,,,,,,,,
151,0,,html-keyboard-response,151,554944,0.0-7.0-3.0,zfwvlo8qpf,2022-09-19 17:56:46.192,56c113f6eb5b22000d5baa6f,2,63,42,32,11,56,female,,,"<p style=""font-size:50px"">You Lose!
No points this round.</p>",,,,,,,,,,,,,,,,,,,,,,,,,,,,
152,0,,html-keyboard-response,152,555451,0.0-7.0-4.0,zfwvlo8qpf,2022-09-19 17:56:46.192,56c113f6eb5b22000d5baa6f,2,63,42,32,11,56,female,,,,,,1.0,choice,0.0,C,D,black,red,moons,moons,C,D,C,black,moons,1230.9000000358,1.0,0.0,NA,left,2425.3999999762,10.0,1.0,0.0,,,
153,0,,html-keyboard-response,153,558543,0.0-7.1-0.1,zfwvlo8qpf,2022-09-19 17:56:46.192,56c113f6eb5b22000d5baa6f,2,63,42,32,11,56,female,3089.5,,"
  <table>
  <tr height=300>
    <td width=300 height=300><img src=""static/images/cards/stack_of_red_moons.svg"" width=""175px"" height=""250px""></img></td>
    <td width=300 height=300><img src=""static/images/cards/stack_of_black_stars.svg"" width=""175px"" height=""250px""></img></td>
  </tr>
  <tr height=200>
    <td width=300><img src=""static/images/keys/w.svg"" width=""35%"" height=""75%""></img></td>
    <td width=300><img src=""static/images/keys/o.svg"" width=""35%"" height=""75%""></img></td>
  </tr>
</table>
  ",79.0,3.0,,,,,,,,,,,,,,,,,,,,,,,,,,
154,0,,html-keyboard-response,154,560569,0.0-7.1-1.1,zfwvlo8qpf,2022-09-19 17:56:46.192,56c113f6eb5b22000d5baa6f,2,63,42,32,11,56,female,1520.6999999881,,"
  <table>
  <tr height=300>
    <td width=300 height=300><img src=""static/images/cards/back_of_black_stars.svg"" width=""175px"" height=""250px""></img></td>
    <td width=300 height=300><img src=""static/images/cards/back_of_black_stars.svg"" width=""175px"" height=""250px""></img></td>
  </tr>
  <tr height=200>
    <td width=300><img src=""static/images/keys/z.svg"" width=""35%"" height=""75%""></img></td>
    <td width=300><img src=""static/images/keys/m.svg"" width=""35%"" height=""75%""></img></td>
  </tr>
</table>
  ",90.0,1.0,,,,,,,,,,,,,,,,,,,,,,,,,,
155,0,,html-keyboard-response,155,562074,0.0-7.1-2.1,zfwvlo8qpf,2022-09-19 17:56:46.192,56c113f6eb5b22000d5baa6f,2,63,42,32,11,56,female,,,"
  <table>
  <tr height=300>
    <td width=300 height=300><img src=""static/images/cards/3_of_black_stars.svg"" width=""175px"" height=""250px""></img></td>
    <td width=300 height=300><img src=""static/images/cards/back_of_black_stars.svg"" width=""175px"" height=""250px""></img></td>
  </tr>
  <tr height=200>
    <td width=300><img src=""static/images/keys/z.svg"" width=""35%"" height=""75%""></img></td>
    <td width=300><img src=""static/images/keys/m.svg"" width=""35%"" height=""75%""></img></td>
  </tr>
</table>
  ",,,,,,,,,,,,,,,,,,,,,,,,,,,,
156,0,,html-keyboard-response,156,563581,0.0-7.1-3.1,zfwvlo8qpf,2022-09-19 17:56:46.192,56c113f6eb5b22000d5baa6f,2,63,42,32,11,56,female,,,"<p style=""font-size:50px"">You Lose!
No points this round.</p>",,,,,,,,,,,,,,,,,,,,,,,,,,,,
157,0,,html-keyboard-response,157,564091,0.0-7.1-4.1,zfwvlo8qpf,2022-09-19 17:56:46.192,56c113f6eb5b22000d5baa6f,2,63,42,32,11,56,female,,,,,,1.0,choice,1.0,A,D,red,black,moons,stars,D,A,A,black,stars,3089.5,1.0,1.0,NA,left,1520.6999999881,3.0,0.0,0.0,,,
158,0,,html-keyboard-response,158,565337,0.0-7.2-0.2,zfwvlo8qpf,2022-09-19 17:56:46.192,56c113f6eb5b22000d5baa6f,2,63,42,32,11,56,female,1243.3999999762,,"
  <table>
  <tr height=300>
    <td width=300 height=300><img src=""static/images/cards/stack_of_black_stars.svg"" width=""175px"" height=""250px""></img></td>
    <td width=300 height=300><img src=""static/images/cards/stack_of_red_moons.svg"" width=""175px"" height=""250px""></img></td>
  </tr>
  <tr height=200>
    <td width=300><img src=""static/images/keys/w.svg"" width=""35%"" height=""75%""></img></td>
    <td width=300><img src=""static/images/keys/o.svg"" width=""35%"" height=""75%""></img></td>
  </tr>
</table>
  ",87.0,1.0,,,,,,,,,,,,,,,,,,,,,,,,,,
159,0,,html-keyboard-response,159,567049,0.0-7.2-1.2,zfwvlo8qpf,2022-09-19 17:56:46.192,56c113f6eb5b22000d5baa6f,2,63,42,32,11,56,female,1207.2000000477,,"
  <table>
  <tr height=300>
    <td width=300 height=300><img src=""static/images/cards/back_of_black_stars.svg"" width=""175px"" height=""250px""></img></td>
    <td width=300 height=300><img src=""static/images/cards/back_of_black_stars.svg"" width=""175px"" height=""250px""></img></td>
  </tr>
  <tr height=200>
    <td width=300><img src=""static/images/keys/z.svg"" width=""35%"" height=""75%""></img></td>
    <td width=300><img src=""static/images/keys/m.svg"" width=""35%"" height=""75%""></img></td>
  </tr>
</table>
  ",77.0,1.0,,,,,,,,,,,,,,,,,,,,,,,,,,
160,0,,html-keyboard-response,160,568556,0.0-7.2-2.2,zfwvlo8qpf,2022-09-19 17:56:46.192,56c113f6eb5b22000d5baa6f,2,63,42,32,11,56,female,,,"
  <table>
  <tr height=300>
    <td width=300 height=300><img src=""static/images/cards/back_of_black_stars.svg"" width=""175px"" height=""250px""></img></td>
    <td width=300 height=300><img src=""static/images/cards/2_of_black_stars.svg"" width=""175px"" height=""250px""></img></td>
  </tr>
  <tr height=200>
    <td width=300><img src=""static/images/keys/z.svg"" width=""35%"" height=""75%""></img></td>
    <td width=300><img src=""static/images/keys/m.svg"" width=""35%"" height=""75%""></img></td>
  </tr>
</table>
  ",,,,,,,,,,,,,,,,,,,,,,,,,,,,
161,0,,html-keyboard-response,161,570067,0.0-7.2-3.2,zfwvlo8qpf,2022-09-19 17:56:46.192,56c113f6eb5b22000d5baa6f,2,63,42,32,11,56,female,,,"<p style=""font-size:50px"">You Lose!
No points this round.</p>",,,,,,,,,,,,,,,,,,,,,,,,,,,,
162,0,,html-keyboard-response,162,570577,0.0-7.2-4.2,zfwvlo8qpf,2022-09-19 17:56:46.192,56c113f6eb5b22000d5baa6f,2,63,42,32,11,56,female,,,,,,1.0,choice,2.0,A,D,black,red,stars,moons,A,D,A,black,stars,1243.3999999762,1.0,1.0,NA,right,1207.2000000477,2.0,0.0,0.0,,,
163,0,,html-keyboard-response,163,572840,0.0-7.3-0.3,zfwvlo8qpf,2022-09-19 17:56:46.192,56c113f6eb5b22000d5baa6f,2,63,42,32,11,56,female,2261.0,,"
  <table>
  <tr height=300>
    <td width=300 height=300><img src=""static/images/cards/stack_of_red_stars.svg"" width=""175px"" height=""250px""></img></td>
    <td width=300 height=300><img src=""static/images/cards/stack_of_black_moons.svg"" width=""175px"" height=""250px""></img></td>
  </tr>
  <tr height=200>
    <td width=300><img src=""static/images/keys/w.svg"" width=""35%"" height=""75%""></img></td>
    <td width=300><img src=""static/images/keys/o.svg"" width=""35%"" height=""75%""></img></td>
  </tr>
</table>
  ",79.0,1.0,,,,,,,,,,,,,,,,,,,,,,,,,,
164,0,,html-keyboard-response,164,574662,0.0-7.3-1.3,zfwvlo8qpf,2022-09-19 17:56:46.192,56c113f6eb5b22000d5baa6f,2,63,42,32,11,56,female,1316.8999999762,,"
  <table>
  <tr height=300>
    <td width=300 height=300><img src=""static/images/cards/back_of_black_moons.svg"" width=""175px"" height=""250px""></img></td>
    <td width=300 height=300><img src=""static/images/cards/back_of_black_moons.svg"" width=""175px"" height=""250px""></img></td>
  </tr>
  <tr height=200>
    <td width=300><img src=""static/images/keys/z.svg"" width=""35%"" height=""75%""></img></td>
    <td width=300><img src=""static/images/keys/m.svg"" width=""35%"" height=""75%""></img></td>
  </tr>
</table>
  ",90.0,1.0,,,,,,,,,,,,,,,,,,,,,,,,,,
165,0,,html-keyboard-response,165,576168,0.0-7.3-2.3,zfwvlo8qpf,2022-09-19 17:56:46.192,56c113f6eb5b22000d5baa6f,2,63,42,32,11,56,female,,,"
  <table>
  <tr height=300>
    <td width=300 height=300><img src=""static/images/cards/1_of_black_moons.svg"" width=""175px"" height=""250px""></img></td>
    <td width=300 height=300><img src=""static/images/cards/back_of_black_moons.svg"" width=""175px"" height=""250px""></img></td>
  </tr>
  <tr height=200>
    <td width=300><img src=""static/images/keys/z.svg"" width=""35%"" height=""75%""></img></td>
    <td width=300><img src=""static/images/keys/m.svg"" width=""35%"" height=""75%""></img></td>
  </tr>
</table>
  ",,,,,,,,,,,,,,,,,,,,,,,,,,,,
166,0,,html-keyboard-response,166,577678,0.0-7.3-3.3,zfwvlo8qpf,2022-09-19 17:56:46.192,56c113f6eb5b22000d5baa6f,2,63,42,32,11,56,female,,,"<p style=""font-size:50px"">You Lose!
No points this round.</p>",,,,,,,,,,,,,,,,,,,,,,,,,,,,
167,0,,html-keyboard-response,167,578189,0.0-7.3-4.3,zfwvlo8qpf,2022-09-19 17:56:46.192,56c113f6eb5b22000d5baa6f,2,63,42,32,11,56,female,,,,,,1.0,choice,3.0,B,C,red,black,stars,moons,B,C,C,black,moons,2261.0,1.0,0.0,NA,left,1316.8999999762,1.0,0.0,0.0,,,
168,0,,html-keyboard-response,168,579930,0.0-7.4-0.4,zfwvlo8qpf,2022-09-19 17:56:46.192,56c113f6eb5b22000d5baa6f,2,63,42,32,11,56,female,1738.9000000358,,"
  <table>
  <tr height=300>
    <td width=300 height=300><img src=""static/images/cards/stack_of_black_stars.svg"" width=""175px"" height=""250px""></img></td>
    <td width=300 height=300><img src=""static/images/cards/stack_of_red_moons.svg"" width=""175px"" height=""250px""></img></td>
  </tr>
  <tr height=200>
    <td width=300><img src=""static/images/keys/w.svg"" width=""35%"" height=""75%""></img></td>
    <td width=300><img src=""static/images/keys/o.svg"" width=""35%"" height=""75%""></img></td>
  </tr>
</table>
  ",87.0,1.0,,,,,,,,,,,,,,,,,,,,,,,,,,
169,0,,html-keyboard-response,169,581044,0.0-7.4-1.4,zfwvlo8qpf,2022-09-19 17:56:46.192,56c113f6eb5b22000d5baa6f,2,63,42,32,11,56,female,608.1999999881,,"
  <table>
  <tr height=300>
    <td width=300 height=300><img src=""static/images/cards/back_of_black_stars.svg"" width=""175px"" height=""250px""></img></td>
    <td width=300 height=300><img src=""static/images/cards/back_of_black_stars.svg"" width=""175px"" height=""250px""></img></td>
  </tr>
  <tr height=200>
    <td width=300><img src=""static/images/keys/z.svg"" width=""35%"" height=""75%""></img></td>
    <td width=300><img src=""static/images/keys/m.svg"" width=""35%"" height=""75%""></img></td>
  </tr>
</table>
  ",90.0,1.0,,,,,,,,,,,,,,,,,,,,,,,,,,
170,0,,html-keyboard-response,170,582549,0.0-7.4-2.4,zfwvlo8qpf,2022-09-19 17:56:46.192,56c113f6eb5b22000d5baa6f,2,63,42,32,11,56,female,,,"
  <table>
  <tr height=300>
    <td width=300 height=300><img src=""static/images/cards/1_of_black_stars.svg"" width=""175px"" height=""250px""></img></td>
    <td width=300 height=300><img src=""static/images/cards/back_of_black_stars.svg"" width=""175px"" height=""250px""></img></td>
  </tr>
  <tr height=200>
    <td width=300><img src=""static/images/keys/z.svg"" width=""35%"" height=""75%""></img></td>
    <td width=300><img src=""static/images/keys/m.svg"" width=""35%"" height=""75%""></img></td>
  </tr>
</table>
  ",,,,,,,,,,,,,,,,,,,,,,,,,,,,
171,0,,html-keyboard-response,171,584059,0.0-7.4-3.4,zfwvlo8qpf,2022-09-19 17:56:46.192,56c113f6eb5b22000d5baa6f,2,63,42,32,11,56,female,,,"<p style=""font-size:50px"">You Lose!
No points this round.</p>",,,,,,,,,,,,,,,,,,,,,,,,,,,,
172,0,,html-keyboard-response,172,584570,0.0-7.4-4.4,zfwvlo8qpf,2022-09-19 17:56:46.192,56c113f6eb5b22000d5baa6f,2,63,42,32,11,56,female,,,,,,1.0,choice,4.0,A,D,black,red,stars,moons,A,D,A,black,stars,1738.9000000358,1.0,1.0,NA,left,608.1999999881,1.0,0.0,0.0,,,
173,0,,html-keyboard-response,173,586246,0.0-7.5-0.5,zfwvlo8qpf,2022-09-19 17:56:46.192,56c113f6eb5b22000d5baa6f,2,63,42,32,11,56,female,1674.3000000119,,"
  <table>
  <tr height=300>
    <td width=300 height=300><img src=""static/images/cards/stack_of_black_stars.svg"" width=""175px"" height=""250px""></img></td>
    <td width=300 height=300><img src=""static/images/cards/stack_of_red_stars.svg"" width=""175px"" height=""250px""></img></td>
  </tr>
  <tr height=200>
    <td width=300><img src=""static/images/keys/w.svg"" width=""35%"" height=""75%""></img></td>
    <td width=300><img src=""static/images/keys/o.svg"" width=""35%"" height=""75%""></img></td>
  </tr>
</table>
  ",79.0,1.0,,,,,,,,,,,,,,,,,,,,,,,,,,
174,0,,html-keyboard-response,174,587673,0.0-7.5-1.5,zfwvlo8qpf,2022-09-19 17:56:46.192,56c113f6eb5b22000d5baa6f,2,63,42,32,11,56,female,920.8000000119,,"
  <table>
  <tr height=300>
    <td width=300 height=300><img src=""static/images/cards/back_of_red_stars.svg"" width=""175px"" height=""250px""></img></td>
    <td width=300 height=300><img src=""static/images/cards/back_of_red_stars.svg"" width=""175px"" height=""250px""></img></td>
  </tr>
  <tr height=200>
    <td width=300></td>
    <td width=300><img src=""static/images/keys/m.svg"" width=""35%"" height=""75%""></img></td>
  </tr>
</table>
  ",77.0,1.0,,,,,,,,,,,,,,,,,,,,,,,,,,
175,0,,html-keyboard-response,175,589177,0.0-7.5-2.5,zfwvlo8qpf,2022-09-19 17:56:46.192,56c113f6eb5b22000d5baa6f,2,63,42,32,11,56,female,,,"
  <table>
  <tr height=300>
    <td width=300 height=300><img src=""static/images/cards/back_of_red_stars.svg"" width=""175px"" height=""250px""></img></td>
    <td width=300 height=300><img src=""static/images/cards/8_of_red_stars.svg"" width=""175px"" height=""250px""></img></td>
  </tr>
  <tr height=200>
    <td width=300></td>
    <td width=300><img src=""static/images/keys/m.svg"" width=""35%"" height=""75%""></img></td>
  </tr>
</table>
  ",,,,,,,,,,,,,,,,,,,,,,,,,,,,
176,0,,html-keyboard-response,176,590684,0.0-7.5-3.5,zfwvlo8qpf,2022-09-19 17:56:46.192,56c113f6eb5b22000d5baa6f,2,63,42,32,11,56,female,,,"<p style=""font-size:50px"">You win!
+10 points this round!</p>",,,,,,,,,,,,,,,,,,,,,,,,,,,,
177,0,,html-keyboard-response,177,591194,0.0-7.5-4.5,zfwvlo8qpf,2022-09-19 17:56:46.192,56c113f6eb5b22000d5baa6f,2,63,42,32,11,56,female,,,,,,1.0,choice,5.0,A,B,black,red,stars,stars,A,B,B,red,stars,1674.3000000119,0.0,1.0,0,right,920.8000000119,8.0,1.0,1.0,,,
178,0,,html-keyboard-response,178,592912,0.0-7.6-0.6,zfwvlo8qpf,2022-09-19 17:56:46.192,56c113f6eb5b22000d5baa6f,2,63,42,32,11,56,female,1716.2999999523,,"
  <table>
  <tr height=300>
    <td width=300 height=300><img src=""static/images/cards/stack_of_black_moons.svg"" width=""175px"" height=""250px""></img></td>
    <td width=300 height=300><img src=""static/images/cards/stack_of_black_stars.svg"" width=""175px"" height=""250px""></img></td>
  </tr>
  <tr height=200>
    <td width=300><img src=""static/images/keys/w.svg"" width=""35%"" height=""75%""></img></td>
    <td width=300><img src=""static/images/keys/o.svg"" width=""35%"" height=""75%""></img></td>
  </tr>
</table>
  ",87.0,1.0,,,,,,,,,,,,,,,,,,,,,,,,,,
179,0,,html-keyboard-response,179,594672,0.0-7.6-1.6,zfwvlo8qpf,2022-09-19 17:56:46.192,56c113f6eb5b22000d5baa6f,2,63,42,32,11,56,female,1257.4000000358,,"
  <table>
  <tr height=300>
    <td width=300 height=300><img src=""static/images/cards/back_of_black_moons.svg"" width=""175px"" height=""250px""></img></td>
    <td width=300 height=300><img src=""static/images/cards/back_of_black_moons.svg"" width=""175px"" height=""250px""></img></td>
  </tr>
  <tr height=200>
    <td width=300><img src=""static/images/keys/z.svg"" width=""35%"" height=""75%""></img></td>
    <td width=300><img src=""static/images/keys/m.svg"" width=""35%"" height=""75%""></img></td>
  </tr>
</table>
  ",77.0,1.0,,,,,,,,,,,,,,,,,,,,,,,,,,
180,0,,html-keyboard-response,180,596177,0.0-7.6-2.6,zfwvlo8qpf,2022-09-19 17:56:46.192,56c113f6eb5b22000d5baa6f,2,63,42,32,11,56,female,,,"
  <table>
  <tr height=300>
    <td width=300 height=300><img src=""static/images/cards/back_of_black_moons.svg"" width=""175px"" height=""250px""></img></td>
    <td width=300 height=300><img src=""static/images/cards/6_of_black_moons.svg"" width=""175px"" height=""250px""></img></td>
  </tr>
  <tr height=200>
    <td width=300><img src=""static/images/keys/z.svg"" width=""35%"" height=""75%""></img></td>
    <td width=300><img src=""static/images/keys/m.svg"" width=""35%"" height=""75%""></img></td>
  </tr>
</table>
  ",,,,,,,,,,,,,,,,,,,,,,,,,,,,
181,0,,html-keyboard-response,181,597683,0.0-7.6-3.6,zfwvlo8qpf,2022-09-19 17:56:46.192,56c113f6eb5b22000d5baa6f,2,63,42,32,11,56,female,,,"<p style=""font-size:50px"">You win!
+10 points this round!</p>",,,,,,,,,,,,,,,,,,,,,,,,,,,,
182,0,,html-keyboard-response,182,598193,0.0-7.6-4.6,zfwvlo8qpf,2022-09-19 17:56:46.192,56c113f6eb5b22000d5baa6f,2,63,42,32,11,56,female,,,,,,1.0,choice,6.0,A,C,black,black,moons,stars,C,A,C,black,moons,1716.2999999523,1.0,0.0,NA,right,1257.4000000358,6.0,1.0,1.0,,,
183,0,,html-keyboard-response,183,599284,0.0-7.7-0.7,zfwvlo8qpf,2022-09-19 17:56:46.192,56c113f6eb5b22000d5baa6f,2,63,42,32,11,56,female,1087.8000000119,,"
  <table>
  <tr height=300>
    <td width=300 height=300><img src=""static/images/cards/stack_of_red_moons.svg"" width=""175px"" height=""250px""></img></td>
    <td width=300 height=300><img src=""static/images/cards/stack_of_black_moons.svg"" width=""175px"" height=""250px""></img></td>
  </tr>
  <tr height=200>
    <td width=300><img src=""static/images/keys/w.svg"" width=""35%"" height=""75%""></img></td>
    <td width=300><img src=""static/images/keys/o.svg"" width=""35%"" height=""75%""></img></td>
  </tr>
</table>
  ",87.0,1.0,,,,,,,,,,,,,,,,,,,,,,,,,,
184,0,,html-keyboard-response,184,600668,0.0-7.7-1.7,zfwvlo8qpf,2022-09-19 17:56:46.192,56c113f6eb5b22000d5baa6f,2,63,42,32,11,56,female,881.5999999642,,"
  <table>
  <tr height=300>
    <td width=300 height=300><img src=""static/images/cards/back_of_red_moons.svg"" width=""175px"" height=""250px""></img></td>
    <td width=300 height=300><img src=""static/images/cards/back_of_red_moons.svg"" width=""175px"" height=""250px""></img></td>
  </tr>
  <tr height=200>
    <td width=300><img src=""static/images/keys/z.svg"" width=""35%"" height=""75%""></img></td>
    <td width=300></td>
  </tr>
</table>
  ",90.0,1.0,,,,,,,,,,,,,,,,,,,,,,,,,,
185,0,,html-keyboard-response,185,602172,0.0-7.7-2.7,zfwvlo8qpf,2022-09-19 17:56:46.192,56c113f6eb5b22000d5baa6f,2,63,42,32,11,56,female,,,"
  <table>
  <tr height=300>
    <td width=300 height=300><img src=""static/images/cards/1_of_red_moons.svg"" width=""175px"" height=""250px""></img></td>
    <td width=300 height=300><img src=""static/images/cards/back_of_red_moons.svg"" width=""175px"" height=""250px""></img></td>
  </tr>
  <tr height=200>
    <td width=300><img src=""static/images/keys/z.svg"" width=""35%"" height=""75%""></img></td>
    <td width=300></td>
  </tr>
</table>
  ",,,,,,,,,,,,,,,,,,,,,,,,,,,,
186,0,,html-keyboard-response,186,603678,0.0-7.7-3.7,zfwvlo8qpf,2022-09-19 17:56:46.192,56c113f6eb5b22000d5baa6f,2,63,42,32,11,56,female,,,"<p style=""font-size:50px"">You Lose!
No points this round.</p>",,,,,,,,,,,,,,,,,,,,,,,,,,,,
187,0,,html-keyboard-response,187,604187,0.0-7.7-4.7,zfwvlo8qpf,2022-09-19 17:56:46.192,56c113f6eb5b22000d5baa6f,2,63,42,32,11,56,female,,,,,,1.0,choice,7.0,C,D,red,black,moons,moons,D,C,D,red,moons,1087.8000000119,0.0,0.0,1,left,881.5999999642,1.0,0.0,0.0,,,
188,0,,html-keyboard-response,188,606071,0.0-7.8-0.8,zfwvlo8qpf,2022-09-19 17:56:46.192,56c113f6eb5b22000d5baa6f,2,63,42,32,11,56,female,1882.2000000477,,"
  <table>
  <tr height=300>
    <td width=300 height=300><img src=""static/images/cards/stack_of_red_stars.svg"" width=""175px"" height=""250px""></img></td>
    <td width=300 height=300><img src=""static/images/cards/stack_of_red_moons.svg"" width=""175px"" height=""250px""></img></td>
  </tr>
  <tr height=200>
    <td width=300><img src=""static/images/keys/w.svg"" width=""35%"" height=""75%""></img></td>
    <td width=300><img src=""static/images/keys/o.svg"" width=""35%"" height=""75%""></img></td>
  </tr>
</table>
  ",87.0,1.0,,,,,,,,,,,,,,,,,,,,,,,,,,
189,0,,html-keyboard-response,189,607601,0.0-7.8-1.8,zfwvlo8qpf,2022-09-19 17:56:46.192,56c113f6eb5b22000d5baa6f,2,63,42,32,11,56,female,1027.1999999881,,"
  <table>
  <tr height=300>
    <td width=300 height=300><img src=""static/images/cards/back_of_red_stars.svg"" width=""175px"" height=""250px""></img></td>
    <td width=300 height=300><img src=""static/images/cards/back_of_red_stars.svg"" width=""175px"" height=""250px""></img></td>
  </tr>
  <tr height=200>
    <td width=300><img src=""static/images/keys/z.svg"" width=""35%"" height=""75%""></img></td>
    <td width=300></td>
  </tr>
</table>
  ",90.0,1.0,,,,,,,,,,,,,,,,,,,,,,,,,,
190,0,,html-keyboard-response,190,609106,0.0-7.8-2.8,zfwvlo8qpf,2022-09-19 17:56:46.192,56c113f6eb5b22000d5baa6f,2,63,42,32,11,56,female,,,"
  <table>
  <tr height=300>
    <td width=300 height=300><img src=""static/images/cards/9_of_red_stars.svg"" width=""175px"" height=""250px""></img></td>
    <td width=300 height=300><img src=""static/images/cards/back_of_red_stars.svg"" width=""175px"" height=""250px""></img></td>
  </tr>
  <tr height=200>
    <td width=300><img src=""static/images/keys/z.svg"" width=""35%"" height=""75%""></img></td>
    <td width=300></td>
  </tr>
</table>
  ",,,,,,,,,,,,,,,,,,,,,,,,,,,,
191,0,,html-keyboard-response,191,610615,0.0-7.8-3.8,zfwvlo8qpf,2022-09-19 17:56:46.192,56c113f6eb5b22000d5baa6f,2,63,42,32,11,56,female,,,"<p style=""font-size:50px"">You win!
+10 points this round!</p>",,,,,,,,,,,,,,,,,,,,,,,,,,,,
192,0,,html-keyboard-response,192,611122,0.0-7.8-4.8,zfwvlo8qpf,2022-09-19 17:56:46.192,56c113f6eb5b22000d5baa6f,2,63,42,32,11,56,female,,,,,,1.0,choice,8.0,B,D,red,red,stars,moons,B,D,B,red,stars,1882.2000000477,0.0,1.0,1,left,1027.1999999881,9.0,1.0,1.0,,,
193,0,,html-keyboard-response,193,612700,0.0-7.9-0.9,zfwvlo8qpf,2022-09-19 17:56:46.192,56c113f6eb5b22000d5baa6f,2,63,42,32,11,56,female,1576.6999999881,,"
  <table>
  <tr height=300>
    <td width=300 height=300><img src=""static/images/cards/stack_of_red_moons.svg"" width=""175px"" height=""250px""></img></td>
    <td width=300 height=300><img src=""static/images/cards/stack_of_red_stars.svg"" width=""175px"" height=""250px""></img></td>
  </tr>
  <tr height=200>
    <td width=300><img src=""static/images/keys/w.svg"" width=""35%"" height=""75%""></img></td>
    <td width=300><img src=""static/images/keys/o.svg"" width=""35%"" height=""75%""></img></td>
  </tr>
</table>
  ",79.0,1.0,,,,,,,,,,,,,,,,,,,,,,,,,,
194,0,,html-keyboard-response,194,614121,0.0-7.9-1.9,zfwvlo8qpf,2022-09-19 17:56:46.192,56c113f6eb5b22000d5baa6f,2,63,42,32,11,56,female,915.2000000477,,"
  <table>
  <tr height=300>
    <td width=300 height=300><img src=""static/images/cards/back_of_red_stars.svg"" width=""175px"" height=""250px""></img></td>
    <td width=300 height=300><img src=""static/images/cards/back_of_red_stars.svg"" width=""175px"" height=""250px""></img></td>
  </tr>
  <tr height=200>
    <td width=300></td>
    <td width=300><img src=""static/images/keys/m.svg"" width=""35%"" height=""75%""></img></td>
  </tr>
</table>
  ",77.0,1.0,,,,,,,,,,,,,,,,,,,,,,,,,,
195,0,,html-keyboard-response,195,615623,0.0-7.9-2.9,zfwvlo8qpf,2022-09-19 17:56:46.192,56c113f6eb5b22000d5baa6f,2,63,42,32,11,56,female,,,"
  <table>
  <tr height=300>
    <td width=300 height=300><img src=""static/images/cards/back_of_red_stars.svg"" width=""175px"" height=""250px""></img></td>
    <td width=300 height=300><img src=""static/images/cards/7_of_red_stars.svg"" width=""175px"" height=""250px""></img></td>
  </tr>
  <tr height=200>
    <td width=300></td>
    <td width=300><img src=""static/images/keys/m.svg"" width=""35%"" height=""75%""></img></td>
  </tr>
</table>
  ",,,,,,,,,,,,,,,,,,,,,,,,,,,,
196,0,,html-keyboard-response,196,617130,0.0-7.9-3.9,zfwvlo8qpf,2022-09-19 17:56:46.192,56c113f6eb5b22000d5baa6f,2,63,42,32,11,56,female,,,"<p style=""font-size:50px"">You win!
+10 points this round!</p>",,,,,,,,,,,,,,,,,,,,,,,,,,,,
197,0,,html-keyboard-response,197,617637,0.0-7.9-4.9,zfwvlo8qpf,2022-09-19 17:56:46.192,56c113f6eb5b22000d5baa6f,2,63,42,32,11,56,female,,,,,,1.0,choice,9.0,B,D,red,red,moons,stars,D,B,B,red,stars,1576.6999999881,0.0,1.0,0,right,915.2000000477,7.0,1.0,1.0,,,
198,0,,html-keyboard-response,198,619567,0.0-7.10-0.10,zfwvlo8qpf,2022-09-19 17:56:46.192,56c113f6eb5b22000d5baa6f,2,63,42,32,11,56,female,1928.0,,"
  <table>
  <tr height=300>
    <td width=300 height=300><img src=""static/images/cards/stack_of_red_moons.svg"" width=""175px"" height=""250px""></img></td>
    <td width=300 height=300><img src=""static/images/cards/stack_of_black_moons.svg"" width=""175px"" height=""250px""></img></td>
  </tr>
  <tr height=200>
    <td width=300><img src=""static/images/keys/w.svg"" width=""35%"" height=""75%""></img></td>
    <td width=300><img src=""static/images/keys/o.svg"" width=""35%"" height=""75%""></img></td>
  </tr>
</table>
  ",79.0,1.0,,,,,,,,,,,,,,,,,,,,,,,,,,
199,0,,html-keyboard-response,199,620921,0.0-7.10-1.10,zfwvlo8qpf,2022-09-19 17:56:46.192,56c113f6eb5b22000d5baa6f,2,63,42,32,11,56,female,851.0999999642,,"
  <table>
  <tr height=300>
    <td width=300 height=300><img src=""static/images/cards/back_of_black_moons.svg"" width=""175px"" height=""250px""></img></td>
    <td width=300 height=300><img src=""static/images/cards/back_of_black_moons.svg"" width=""175px"" height=""250px""></img></td>
  </tr>
  <tr height=200>
    <td width=300><img src=""static/images/keys/z.svg"" width=""35%"" height=""75%""></img></td>
    <td width=300><img src=""static/images/keys/m.svg"" width=""35%"" height=""75%""></img></td>
  </tr>
</table>
  ",90.0,1.0,,,,,,,,,,,,,,,,,,,,,,,,,,
200,0,,html-keyboard-response,200,622425,0.0-7.10-2.10,zfwvlo8qpf,2022-09-19 17:56:46.192,56c113f6eb5b22000d5baa6f,2,63,42,32,11,56,female,,,"
  <table>
  <tr height=300>
    <td width=300 height=300><img src=""static/images/cards/8_of_black_moons.svg"" width=""175px"" height=""250px""></img></td>
    <td width=300 height=300><img src=""static/images/cards/back_of_black_moons.svg"" width=""175px"" height=""250px""></img></td>
  </tr>
  <tr height=200>
    <td width=300><img src=""static/images/keys/z.svg"" width=""35%"" height=""75%""></img></td>
    <td width=300><img src=""static/images/keys/m.svg"" width=""35%"" height=""75%""></img></td>
  </tr>
</table>
  ",,,,,,,,,,,,,,,,,,,,,,,,,,,,
201,0,,html-keyboard-response,201,623928,0.0-7.10-3.10,zfwvlo8qpf,2022-09-19 17:56:46.192,56c113f6eb5b22000d5baa6f,2,63,42,32,11,56,female,,,"<p style=""font-size:50px"">You Lose!
No points this round.</p>",,,,,,,,,,,,,,,,,,,,,,,,,,,,
202,0,,html-keyboard-response,202,624435,0.0-7.10-4.10,zfwvlo8qpf,2022-09-19 17:56:46.192,56c113f6eb5b22000d5baa6f,2,63,42,32,11,56,female,,,,,,1.0,choice,10.0,C,D,red,black,moons,moons,D,C,C,black,moons,1928.0,1.0,0.0,NA,left,851.0999999642,8.0,1.0,0.0,,,
203,0,,html-keyboard-response,203,625967,0.0-7.11-0.11,zfwvlo8qpf,2022-09-19 17:56:46.192,56c113f6eb5b22000d5baa6f,2,63,42,32,11,56,female,1529.8000000119,,"
  <table>
  <tr height=300>
    <td width=300 height=300><img src=""static/images/cards/stack_of_black_moons.svg"" width=""175px"" height=""250px""></img></td>
    <td width=300 height=300><img src=""static/images/cards/stack_of_black_stars.svg"" width=""175px"" height=""250px""></img></td>
  </tr>
  <tr height=200>
    <td width=300><img src=""static/images/keys/w.svg"" width=""35%"" height=""75%""></img></td>
    <td width=300><img src=""static/images/keys/o.svg"" width=""35%"" height=""75%""></img></td>
  </tr>
</table>
  ",87.0,1.0,,,,,,,,,,,,,,,,,,,,,,,,,,
204,0,,html-keyboard-response,204,626877,0.0-7.11-1.11,zfwvlo8qpf,2022-09-19 17:56:46.192,56c113f6eb5b22000d5baa6f,2,63,42,32,11,56,female,407.3999999762,,"
  <table>
  <tr height=300>
    <td width=300 height=300><img src=""static/images/cards/back_of_black_moons.svg"" width=""175px"" height=""250px""></img></td>
    <td width=300 height=300><img src=""static/images/cards/back_of_black_moons.svg"" width=""175px"" height=""250px""></img></td>
  </tr>
  <tr height=200>
    <td width=300><img src=""static/images/keys/z.svg"" width=""35%"" height=""75%""></img></td>
    <td width=300><img src=""static/images/keys/m.svg"" width=""35%"" height=""75%""></img></td>
  </tr>
</table>
  ",77.0,1.0,,,,,,,,,,,,,,,,,,,,,,,,,,
205,0,,html-keyboard-response,205,628383,0.0-7.11-2.11,zfwvlo8qpf,2022-09-19 17:56:46.192,56c113f6eb5b22000d5baa6f,2,63,42,32,11,56,female,,,"
  <table>
  <tr height=300>
    <td width=300 height=300><img src=""static/images/cards/back_of_black_moons.svg"" width=""175px"" height=""250px""></img></td>
    <td width=300 height=300><img src=""static/images/cards/3_of_black_moons.svg"" width=""175px"" height=""250px""></img></td>
  </tr>
  <tr height=200>
    <td width=300><img src=""static/images/keys/z.svg"" width=""35%"" height=""75%""></img></td>
    <td width=300><img src=""static/images/keys/m.svg"" width=""35%"" height=""75%""></img></td>
  </tr>
</table>
  ",,,,,,,,,,,,,,,,,,,,,,,,,,,,
206,0,,html-keyboard-response,206,629893,0.0-7.11-3.11,zfwvlo8qpf,2022-09-19 17:56:46.192,56c113f6eb5b22000d5baa6f,2,63,42,32,11,56,female,,,"<p style=""font-size:50px"">You win!
+10 points this round!</p>",,,,,,,,,,,,,,,,,,,,,,,,,,,,
207,0,,html-keyboard-response,207,630402,0.0-7.11-4.11,zfwvlo8qpf,2022-09-19 17:56:46.192,56c113f6eb5b22000d5baa6f,2,63,42,32,11,56,female,,,,,,1.0,choice,11.0,A,C,black,black,moons,stars,C,A,C,black,moons,1529.8000000119,1.0,0.0,NA,right,407.3999999762,3.0,0.0,1.0,,,
208,0,,html-keyboard-response,208,631904,0.0-7.12-0.12,zfwvlo8qpf,2022-09-19 17:56:46.192,56c113f6eb5b22000d5baa6f,2,63,42,32,11,56,female,1499.6000000238,,"
  <table>
  <tr height=300>
    <td width=300 height=300><img src=""static/images/cards/stack_of_black_moons.svg"" width=""175px"" height=""250px""></img></td>
    <td width=300 height=300><img src=""static/images/cards/stack_of_red_stars.svg"" width=""175px"" height=""250px""></img></td>
  </tr>
  <tr height=200>
    <td width=300><img src=""static/images/keys/w.svg"" width=""35%"" height=""75%""></img></td>
    <td width=300><img src=""static/images/keys/o.svg"" width=""35%"" height=""75%""></img></td>
  </tr>
</table>
  ",79.0,1.0,,,,,,,,,,,,,,,,,,,,,,,,,,
209,0,,html-keyboard-response,209,632850,0.0-7.12-1.12,zfwvlo8qpf,2022-09-19 17:56:46.192,56c113f6eb5b22000d5baa6f,2,63,42,32,11,56,female,441.6000000238,,"
  <table>
  <tr height=300>
    <td width=300 height=300><img src=""static/images/cards/back_of_red_stars.svg"" width=""175px"" height=""250px""></img></td>
    <td width=300 height=300><img src=""static/images/cards/back_of_red_stars.svg"" width=""175px"" height=""250px""></img></td>
  </tr>
  <tr height=200>
    <td width=300></td>
    <td width=300><img src=""static/images/keys/m.svg"" width=""35%"" height=""75%""></img></td>
  </tr>
</table>
  ",77.0,1.0,,,,,,,,,,,,,,,,,,,,,,,,,,
210,0,,html-keyboard-response,210,634353,0.0-7.12-2.12,zfwvlo8qpf,2022-09-19 17:56:46.192,56c113f6eb5b22000d5baa6f,2,63,42,32,11,56,female,,,"
  <table>
  <tr height=300>
    <td width=300 height=300><img src=""static/images/cards/back_of_red_stars.svg"" width=""175px"" height=""250px""></img></td>
    <td width=300 height=300><img src=""static/images/cards/2_of_red_stars.svg"" width=""175px"" height=""250px""></img></td>
  </tr>
  <tr height=200>
    <td width=300></td>
    <td width=300><img src=""static/images/keys/m.svg"" width=""35%"" height=""75%""></img></td>
  </tr>
</table>
  ",,,,,,,,,,,,,,,,,,,,,,,,,,,,
211,0,,html-keyboard-response,211,635857,0.0-7.12-3.12,zfwvlo8qpf,2022-09-19 17:56:46.192,56c113f6eb5b22000d5baa6f,2,63,42,32,11,56,female,,,"<p style=""font-size:50px"">You Lose!
No points this round.</p>",,,,,,,,,,,,,,,,,,,,,,,,,,,,
212,0,,html-keyboard-response,212,636365,0.0-7.12-4.12,zfwvlo8qpf,2022-09-19 17:56:46.192,56c113f6eb5b22000d5baa6f,2,63,42,32,11,56,female,,,,,,1.0,choice,12.0,B,C,black,red,moons,stars,C,B,B,red,stars,1499.6000000238,0.0,1.0,0,right,441.6000000238,2.0,0.0,0.0,,,
213,0,,html-keyboard-response,213,638080,0.0-7.13-0.13,zfwvlo8qpf,2022-09-19 17:56:46.192,56c113f6eb5b22000d5baa6f,2,63,42,32,11,56,female,1712.3000000119,,"
  <table>
  <tr height=300>
    <td width=300 height=300><img src=""static/images/cards/stack_of_red_bolts.svg"" width=""175px"" height=""250px""></img></td>
    <td width=300 height=300><img src=""static/images/cards/stack_of_black_stars.svg"" width=""175px"" height=""250px""></img></td>
  </tr>
  <tr height=200>
    <td width=300><img src=""static/images/keys/w.svg"" width=""35%"" height=""75%""></img></td>
    <td width=300><img src=""static/images/keys/o.svg"" width=""35%"" height=""75%""></img></td>
  </tr>
</table>
  ",87.0,1.0,,,,,,,,,,,,,,,,,,,,,,,,,,
214,0,,html-keyboard-response,214,639051,0.0-7.13-1.13,zfwvlo8qpf,2022-09-19 17:56:46.192,56c113f6eb5b22000d5baa6f,2,63,42,32,11,56,female,464.5,,"
  <table>
  <tr height=300>
    <td width=300 height=300><img src=""static/images/cards/back_of_red_bolts.svg"" width=""175px"" height=""250px""></img></td>
    <td width=300 height=300><img src=""static/images/cards/back_of_red_bolts.svg"" width=""175px"" height=""250px""></img></td>
  </tr>
  <tr height=200>
    <td width=300><img src=""static/images/keys/z.svg"" width=""35%"" height=""75%""></img></td>
    <td width=300><img src=""static/images/keys/m.svg"" width=""35%"" height=""75%""></img></td>
  </tr>
</table>
  ",77.0,1.0,,,,,,,,,,,,,,,,,,,,,,,,,,
215,0,,html-keyboard-response,215,640556,0.0-7.13-2.13,zfwvlo8qpf,2022-09-19 17:56:46.192,56c113f6eb5b22000d5baa6f,2,63,42,32,11,56,female,,,"
  <table>
  <tr height=300>
    <td width=300 height=300><img src=""static/images/cards/back_of_red_bolts.svg"" width=""175px"" height=""250px""></img></td>
    <td width=300 height=300><img src=""static/images/cards/9_of_red_bolts.svg"" width=""175px"" height=""250px""></img></td>
  </tr>
  <tr height=200>
    <td width=300><img src=""static/images/keys/z.svg"" width=""35%"" height=""75%""></img></td>
    <td width=300><img src=""static/images/keys/m.svg"" width=""35%"" height=""75%""></img></td>
  </tr>
</table>
  ",,,,,,,,,,,,,,,,,,,,,,,,,,,,
216,0,,html-keyboard-response,216,642064,0.0-7.13-3.13,zfwvlo8qpf,2022-09-19 17:56:46.192,56c113f6eb5b22000d5baa6f,2,63,42,32,11,56,female,,,"<p style=""font-size:50px"">You win!
+10 points this round!</p>",,,,,,,,,,,,,,,,,,,,,,,,,,,,
217,0,,html-keyboard-response,217,642573,0.0-7.13-4.13,zfwvlo8qpf,2022-09-19 17:56:46.192,56c113f6eb5b22000d5baa6f,2,63,42,32,11,56,female,,,,,,1.0,choice,13.0,A,Xc,red,black,bolts,stars,Xc,A,Xc,red,bolts,1712.3000000119,1.0,0.0,NA,right,464.5,9.0,1.0,1.0,,,
218,0,,html-keyboard-response,218,643193,0.0-7.14-0.14,zfwvlo8qpf,2022-09-19 17:56:46.192,56c113f6eb5b22000d5baa6f,2,63,42,32,11,56,female,618.9000000358,,"
  <table>
  <tr height=300>
    <td width=300 height=300><img src=""static/images/cards/stack_of_black_moons.svg"" width=""175px"" height=""250px""></img></td>
    <td width=300 height=300><img src=""static/images/cards/stack_of_red_stars.svg"" width=""175px"" height=""250px""></img></td>
  </tr>
  <tr height=200>
    <td width=300><img src=""static/images/keys/w.svg"" width=""35%"" height=""75%""></img></td>
    <td width=300><img src=""static/images/keys/o.svg"" width=""35%"" height=""75%""></img></td>
  </tr>
</table>
  ",79.0,1.0,,,,,,,,,,,,,,,,,,,,,,,,,,
219,0,,html-keyboard-response,219,644238,0.0-7.14-1.14,zfwvlo8qpf,2022-09-19 17:56:46.192,56c113f6eb5b22000d5baa6f,2,63,42,32,11,56,female,541.3999999762,,"
  <table>
  <tr height=300>
    <td width=300 height=300><img src=""static/images/cards/back_of_red_stars.svg"" width=""175px"" height=""250px""></img></td>
    <td width=300 height=300><img src=""static/images/cards/back_of_red_stars.svg"" width=""175px"" height=""250px""></img></td>
  </tr>
  <tr height=200>
    <td width=300></td>
    <td width=300><img src=""static/images/keys/m.svg"" width=""35%"" height=""75%""></img></td>
  </tr>
</table>
  ",77.0,1.0,,,,,,,,,,,,,,,,,,,,,,,,,,
220,0,,html-keyboard-response,220,645745,0.0-7.14-2.14,zfwvlo8qpf,2022-09-19 17:56:46.192,56c113f6eb5b22000d5baa6f,2,63,42,32,11,56,female,,,"
  <table>
  <tr height=300>
    <td width=300 height=300><img src=""static/images/cards/back_of_red_stars.svg"" width=""175px"" height=""250px""></img></td>
    <td width=300 height=300><img src=""static/images/cards/7_of_red_stars.svg"" width=""175px"" height=""250px""></img></td>
  </tr>
  <tr height=200>
    <td width=300></td>
    <td width=300><img src=""static/images/keys/m.svg"" width=""35%"" height=""75%""></img></td>
  </tr>
</table>
  ",,,,,,,,,,,,,,,,,,,,,,,,,,,,
221,0,,html-keyboard-response,221,647252,0.0-7.14-3.14,zfwvlo8qpf,2022-09-19 17:56:46.192,56c113f6eb5b22000d5baa6f,2,63,42,32,11,56,female,,,"<p style=""font-size:50px"">You win!
+10 points this round!</p>",,,,,,,,,,,,,,,,,,,,,,,,,,,,
222,0,,html-keyboard-response,222,647761,0.0-7.14-4.14,zfwvlo8qpf,2022-09-19 17:56:46.192,56c113f6eb5b22000d5baa6f,2,63,42,32,11,56,female,,,,,,1.0,choice,14.0,B,C,black,red,moons,stars,C,B,B,red,stars,618.9000000358,0.0,1.0,0,right,541.3999999762,7.0,1.0,1.0,,,
223,0,,html-keyboard-response,223,648643,0.0-7.15-0.15,zfwvlo8qpf,2022-09-19 17:56:46.192,56c113f6eb5b22000d5baa6f,2,63,42,32,11,56,female,879.8000000119,,"
  <table>
  <tr height=300>
    <td width=300 height=300><img src=""static/images/cards/stack_of_black_stars.svg"" width=""175px"" height=""250px""></img></td>
    <td width=300 height=300><img src=""static/images/cards/stack_of_black_moons.svg"" width=""175px"" height=""250px""></img></td>
  </tr>
  <tr height=200>
    <td width=300><img src=""static/images/keys/w.svg"" width=""35%"" height=""75%""></img></td>
    <td width=300><img src=""static/images/keys/o.svg"" width=""35%"" height=""75%""></img></td>
  </tr>
</table>
  ",87.0,1.0,,,,,,,,,,,,,,,,,,,,,,,,,,
224,0,,html-keyboard-response,224,649643,0.0-7.15-1.15,zfwvlo8qpf,2022-09-19 17:56:46.192,56c113f6eb5b22000d5baa6f,2,63,42,32,11,56,female,497.0999999642,,"
  <table>
  <tr height=300>
    <td width=300 height=300><img src=""static/images/cards/back_of_black_stars.svg"" width=""175px"" height=""250px""></img></td>
    <td width=300 height=300><img src=""static/images/cards/back_of_black_stars.svg"" width=""175px"" height=""250px""></img></td>
  </tr>
  <tr height=200>
    <td width=300><img src=""static/images/keys/z.svg"" width=""35%"" height=""75%""></img></td>
    <td width=300><img src=""static/images/keys/m.svg"" width=""35%"" height=""75%""></img></td>
  </tr>
</table>
  ",77.0,1.0,,,,,,,,,,,,,,,,,,,,,,,,,,
225,0,,html-keyboard-response,225,651149,0.0-7.15-2.15,zfwvlo8qpf,2022-09-19 17:56:46.192,56c113f6eb5b22000d5baa6f,2,63,42,32,11,56,female,,,"
  <table>
  <tr height=300>
    <td width=300 height=300><img src=""static/images/cards/back_of_black_stars.svg"" width=""175px"" height=""250px""></img></td>
    <td width=300 height=300><img src=""static/images/cards/1_of_black_stars.svg"" width=""175px"" height=""250px""></img></td>
  </tr>
  <tr height=200>
    <td width=300><img src=""static/images/keys/z.svg"" width=""35%"" height=""75%""></img></td>
    <td width=300><img src=""static/images/keys/m.svg"" width=""35%"" height=""75%""></img></td>
  </tr>
</table>
  ",,,,,,,,,,,,,,,,,,,,,,,,,,,,
226,0,,html-keyboard-response,226,652657,0.0-7.15-3.15,zfwvlo8qpf,2022-09-19 17:56:46.192,56c113f6eb5b22000d5baa6f,2,63,42,32,11,56,female,,,"<p style=""font-size:50px"">You Lose!
No points this round.</p>",,,,,,,,,,,,,,,,,,,,,,,,,,,,
227,0,,html-keyboard-response,227,653167,0.0-7.15-4.15,zfwvlo8qpf,2022-09-19 17:56:46.192,56c113f6eb5b22000d5baa6f,2,63,42,32,11,56,female,,,,,,1.0,choice,15.0,A,C,black,black,stars,moons,A,C,A,black,stars,879.8000000119,1.0,1.0,NA,right,497.0999999642,1.0,0.0,0.0,,,
228,0,,html-keyboard-response,228,653990,0.0-7.16-0.16,zfwvlo8qpf,2022-09-19 17:56:46.192,56c113f6eb5b22000d5baa6f,2,63,42,32,11,56,female,821.1999999881,,"
  <table>
  <tr height=300>
    <td width=300 height=300><img src=""static/images/cards/stack_of_red_stars.svg"" width=""175px"" height=""250px""></img></td>
    <td width=300 height=300><img src=""static/images/cards/stack_of_red_moons.svg"" width=""175px"" height=""250px""></img></td>
  </tr>
  <tr height=200>
    <td width=300><img src=""static/images/keys/w.svg"" width=""35%"" height=""75%""></img></td>
    <td width=300><img src=""static/images/keys/o.svg"" width=""35%"" height=""75%""></img></td>
  </tr>
</table>
  ",79.0,1.0,,,,,,,,,,,,,,,,,,,,,,,,,,
229,0,,html-keyboard-response,229,654929,0.0-7.16-1.16,zfwvlo8qpf,2022-09-19 17:56:46.192,56c113f6eb5b22000d5baa6f,2,63,42,32,11,56,female,434.5,,"
  <table>
  <tr height=300>
    <td width=300 height=300><img src=""static/images/cards/back_of_red_moons.svg"" width=""175px"" height=""250px""></img></td>
    <td width=300 height=300><img src=""static/images/cards/back_of_red_moons.svg"" width=""175px"" height=""250px""></img></td>
  </tr>
  <tr height=200>
    <td width=300></td>
    <td width=300><img src=""static/images/keys/m.svg"" width=""35%"" height=""75%""></img></td>
  </tr>
</table>
  ",77.0,1.0,,,,,,,,,,,,,,,,,,,,,,,,,,
230,0,,html-keyboard-response,230,656433,0.0-7.16-2.16,zfwvlo8qpf,2022-09-19 17:56:46.192,56c113f6eb5b22000d5baa6f,2,63,42,32,11,56,female,,,"
  <table>
  <tr height=300>
    <td width=300 height=300><img src=""static/images/cards/back_of_red_moons.svg"" width=""175px"" height=""250px""></img></td>
    <td width=300 height=300><img src=""static/images/cards/9_of_red_moons.svg"" width=""175px"" height=""250px""></img></td>
  </tr>
  <tr height=200>
    <td width=300></td>
    <td width=300><img src=""static/images/keys/m.svg"" width=""35%"" height=""75%""></img></td>
  </tr>
</table>
  ",,,,,,,,,,,,,,,,,,,,,,,,,,,,
231,0,,html-keyboard-response,231,657940,0.0-7.16-3.16,zfwvlo8qpf,2022-09-19 17:56:46.192,56c113f6eb5b22000d5baa6f,2,63,42,32,11,56,female,,,"<p style=""font-size:50px"">You Lose!
No points this round.</p>",,,,,,,,,,,,,,,,,,,,,,,,,,,,
