,index,success,trial_type,trial_index,time_elapsed,internal_node_id,subject,date,prol_id,ctbl,sense_of_control_A,sense_of_control_B,sense_of_control_C,sense_of_control_D,age,gender,rt,url,stimulus,key_press,npress,is_data_trial,phase,trial,deck1,deck2,col1,col2,sym1,sym2,deck_l,deck_r,chosen_deck,chosen_col,chosen_sym,deck_rt,choose_choice,mutual_info,hidden_key,chosen_card,card_rt,player_num,win_card,outcome,mock_rating,response,responses
0,0,1.0,fullscreen,0,37027,0.0-0.0,eynutr133fc,2022-09-19 17:36:36.478,629a87179882a45bdf017f24,2,99,33,80,27,26,male,,,,,,,,,,,,,,,,,,,,,,,,,,,,,,,
1,0,,external-html,1,82971,0.0-1.0,eynutr133fc,2022-09-19 17:36:36.478,629a87179882a45bdf017f24,2,99,33,80,27,26,male,45617.1000000238,static/js/sub/consent.html,,,,,,,,,,,,,,,,,,,,,,,,,,,,,
2,0,,call-function,2,82971,0.0-2.0,eynutr133fc,2022-09-19 17:36:36.478,629a87179882a45bdf017f24,2,99,33,80,27,26,male,,,,,,,,,,,,,,,,,,,,,,,,,,,,,,,
3,0,,image-keyboard-response,3,138524,0.0-3.0-0.0,eynutr133fc,2022-09-19 17:36:36.478,629a87179882a45bdf017f24,2,99,33,80,27,26,male,55553.1999999285,,static/images/instructions_CB_2/Slide1.png,39.0,,,,,,,,,,,,,,,,,,,,,,,,,,,
4,0,,image-keyboard-response,4,143994,0.0-3.1-0.1,eynutr133fc,2022-09-19 17:36:36.478,629a87179882a45bdf017f24,2,99,33,80,27,26,male,5468.8999999762,,static/images/instructions_CB_2/Slide2.png,39.0,,,,,,,,,,,,,,,,,,,,,,,,,,,
5,0,,image-keyboard-response,5,150952,0.0-3.2-0.2,eynutr133fc,2022-09-19 17:36:36.478,629a87179882a45bdf017f24,2,99,33,80,27,26,male,6956.7999999523,,static/images/instructions_CB_2/Slide3.png,39.0,,,,,,,,,,,,,,,,,,,,,,,,,,,
6,0,,image-keyboard-response,6,154201,0.0-3.3-0.3,eynutr133fc,2022-09-19 17:36:36.478,629a87179882a45bdf017f24,2,99,33,80,27,26,male,3247.9000000954,,static/images/instructions_CB_2/Slide4.png,39.0,,,,,,,,,,,,,,,,,,,,,,,,,,,
7,0,,image-keyboard-response,7,158928,0.0-3.4-0.4,eynutr133fc,2022-09-19 17:36:36.478,629a87179882a45bdf017f24,2,99,33,80,27,26,male,4726.0,,static/images/instructions_CB_2/Slide5.png,39.0,,,,,,,,,,,,,,,,,,,,,,,,,,,
8,0,,image-keyboard-response,8,196021,0.0-3.5-0.5,eynutr133fc,2022-09-19 17:36:36.478,629a87179882a45bdf017f24,2,99,33,80,27,26,male,37089.7000000477,,static/images/instructions_CB_2/Slide6.png,39.0,,,,,,,,,,,,,,,,,,,,,,,,,,,
9,0,,image-keyboard-response,9,200301,0.0-3.6-0.6,eynutr133fc,2022-09-19 17:36:36.478,629a87179882a45bdf017f24,2,99,33,80,27,26,male,4279.2999999523,,static/images/instructions_CB_2/Slide7.png,39.0,,,,,,,,,,,,,,,,,,,,,,,,,,,
10,0,,image-keyboard-response,10,240317,0.0-3.7-0.7,eynutr133fc,2022-09-19 17:36:36.478,629a87179882a45bdf017f24,2,99,33,80,27,26,male,40015.2000000477,,static/images/instructions_CB_2/Slide8.png,37.0,,,,,,,,,,,,,,,,,,,,,,,,,,,
11,0,,image-keyboard-response,11,240702,0.0-3.8-0.8,eynutr133fc,2022-09-19 17:36:36.478,629a87179882a45bdf017f24,2,99,33,80,27,26,male,383.6000000238,,static/images/instructions_CB_2/Slide7.png,39.0,,,,,,,,,,,,,,,,,,,,,,,,,,,
12,0,,image-keyboard-response,12,243250,0.0-3.9-0.9,eynutr133fc,2022-09-19 17:36:36.478,629a87179882a45bdf017f24,2,99,33,80,27,26,male,2547.2000000477,,static/images/instructions_CB_2/Slide8.png,39.0,,,,,,,,,,,,,,,,,,,,,,,,,,,
13,0,,image-keyboard-response,13,245272,0.0-3.10-0.10,eynutr133fc,2022-09-19 17:36:36.478,629a87179882a45bdf017f24,2,99,33,80,27,26,male,2021.3000000715,,static/images/instructions_CB_2/Slide9.png,39.0,,,,,,,,,,,,,,,,,,,,,,,,,,,
14,0,,image-keyboard-response,14,247413,0.0-3.11-0.11,eynutr133fc,2022-09-19 17:36:36.478,629a87179882a45bdf017f24,2,99,33,80,27,26,male,2140.3000000715,,static/images/instructions_CB_2/Slide10.png,39.0,,,,,,,,,,,,,,,,,,,,,,,,,,,
15,0,,image-keyboard-response,15,250407,0.0-3.12-0.12,eynutr133fc,2022-09-19 17:36:36.478,629a87179882a45bdf017f24,2,99,33,80,27,26,male,2993.2999999523,,static/images/instructions_CB_2/Slide11.png,39.0,,,,,,,,,,,,,,,,,,,,,,,,,,,
16,0,,image-keyboard-response,16,257982,0.0-3.13-0.13,eynutr133fc,2022-09-19 17:36:36.478,629a87179882a45bdf017f24,2,99,33,80,27,26,male,7574.2999999523,,static/images/instructions_CB_2/Slide12.png,39.0,,,,,,,,,,,,,,,,,,,,,,,,,,,
17,0,,image-keyboard-response,17,264391,0.0-3.14-0.14,eynutr133fc,2022-09-19 17:36:36.478,629a87179882a45bdf017f24,2,99,33,80,27,26,male,6408.5,,static/images/instructions_CB_2/Slide13.png,39.0,,,,,,,,,,,,,,,,,,,,,,,,,,,
18,0,,image-keyboard-response,18,266494,0.0-3.15-0.15,eynutr133fc,2022-09-19 17:36:36.478,629a87179882a45bdf017f24,2,99,33,80,27,26,male,2102.6000000238,,static/images/instructions_CB_2/Slide14.png,39.0,,,,,,,,,,,,,,,,,,,,,,,,,,,
19,0,,image-keyboard-response,19,269934,0.0-3.16-0.16,eynutr133fc,2022-09-19 17:36:36.478,629a87179882a45bdf017f24,2,99,33,80,27,26,male,3438.6000000238,,static/images/instructions_CB_2/Slide15.png,39.0,,,,,,,,,,,,,,,,,,,,,,,,,,,
20,0,,image-keyboard-response,20,275015,0.0-3.17-0.17,eynutr133fc,2022-09-19 17:36:36.478,629a87179882a45bdf017f24,2,99,33,80,27,26,male,5080.8999999762,,static/images/instructions_CB_2/Slide16.png,39.0,,,,,,,,,,,,,,,,,,,,,,,,,,,
21,0,,image-keyboard-response,21,277812,0.0-3.18-0.18,eynutr133fc,2022-09-19 17:36:36.478,629a87179882a45bdf017f24,2,99,33,80,27,26,male,2795.7000000477,,static/images/instructions_CB_2/Slide17.png,39.0,,,,,,,,,,,,,,,,,,,,,,,,,,,
22,0,,image-keyboard-response,22,293937,0.0-3.19-0.19,eynutr133fc,2022-09-19 17:36:36.478,629a87179882a45bdf017f24,2,99,33,80,27,26,male,16124.4000000954,,static/images/instructions_CB_2/Slide18.png,39.0,,,,,,,,,,,,,,,,,,,,,,,,,,,
23,0,,image-keyboard-response,23,295535,0.0-3.20-0.20,eynutr133fc,2022-09-19 17:36:36.478,629a87179882a45bdf017f24,2,99,33,80,27,26,male,1597.7000000477,,static/images/instructions_CB_2/Slide19.png,39.0,,,,,,,,,,,,,,,,,,,,,,,,,,,
24,0,,html-keyboard-response,24,297037,0.0-4.0-0.0,eynutr133fc,2022-09-19 17:36:36.478,629a87179882a45bdf017f24,2,99,33,80,27,26,male,,,"<img src=""static/images/cards/stack_of_black_stars.svg"" width=""175px"" height=""250px""></img>",,,,,,,,,,,,,,,,,,,,,,,,,,,,
25,0,,html-keyboard-response,25,299010,0.0-4.0-1.0,eynutr133fc,2022-09-19 17:36:36.478,629a87179882a45bdf017f24,2,99,33,80,27,26,male,1470.7999999523,,"
  <table>
  <tr height=300>
    <td width=300 height=300><img src=""static/images/cards/back_of_black_stars.svg"" width=""175px"" height=""250px""></img></td>
    <td width=300 height=300><img src=""static/images/cards/back_of_black_stars.svg"" width=""175px"" height=""250px""></img></td>
  </tr>
  <tr height=200>
    <td width=300><img src=""static/images/keys/z.svg"" width=""35%"" height=""75%""></img></td>
    <td width=300><img src=""static/images/keys/m.svg"" width=""35%"" height=""75%""></img></td>
  </tr>
</table>
  ",77.0,1.0,,,,,,,,,,,,,,,,,,,,,,,,,,
26,0,,html-keyboard-response,26,300512,0.0-4.0-2.0,eynutr133fc,2022-09-19 17:36:36.478,629a87179882a45bdf017f24,2,99,33,80,27,26,male,,,"
  <table>
  <tr height=300>
    <td width=300 height=300><img src=""static/images/cards/back_of_black_stars.svg"" width=""175px"" height=""250px""></img></td>
    <td width=300 height=300><img src=""static/images/cards/2_of_black_stars.svg"" width=""175px"" height=""250px""></img></td>
  </tr>
  <tr height=200>
    <td width=300><img src=""static/images/keys/z.svg"" width=""35%"" height=""75%""></img></td>
    <td width=300><img src=""static/images/keys/m.svg"" width=""35%"" height=""75%""></img></td>
  </tr>
</table>
  ",,,,,,,,,,,,,,,,,,,,,,,,,,,,
27,0,,html-keyboard-response,27,302015,0.0-4.0-3.0,eynutr133fc,2022-09-19 17:36:36.478,629a87179882a45bdf017f24,2,99,33,80,27,26,male,,,"<p style=""font-size:50px"">You Lose!
No points this round.</p>",,,,,,,,,,,,,,,,,,,,,,,,,,,,
28,0,,html-keyboard-response,28,302521,0.0-4.0-4.0,eynutr133fc,2022-09-19 17:36:36.478,629a87179882a45bdf017f24,2,99,33,80,27,26,male,,,,,,1.0,learning,0.0,A,,black,,stars,,,,A,black,stars,,1.0,1.0,NA,right,1470.7999999523,2.0,0.0,0.0,,,
29,0,,html-keyboard-response,29,304023,0.0-4.1-0.1,eynutr133fc,2022-09-19 17:36:36.478,629a87179882a45bdf017f24,2,99,33,80,27,26,male,,,"<img src=""static/images/cards/stack_of_red_stars.svg"" width=""175px"" height=""250px""></img>",,,,,,,,,,,,,,,,,,,,,,,,,,,,
30,0,,html-keyboard-response,30,305010,0.0-4.1-1.1,eynutr133fc,2022-09-19 17:36:36.478,629a87179882a45bdf017f24,2,99,33,80,27,26,male,484.2999999523,,"
  <table>
  <tr height=300>
    <td width=300 height=300><img src=""static/images/cards/back_of_red_stars.svg"" width=""175px"" height=""250px""></img></td>
    <td width=300 height=300><img src=""static/images/cards/back_of_red_stars.svg"" width=""175px"" height=""250px""></img></td>
  </tr>
  <tr height=200>
    <td width=300><img src=""static/images/keys/z.svg"" width=""35%"" height=""75%""></img></td>
    <td width=300></td>
  </tr>
</table>
  ",90.0,1.0,,,,,,,,,,,,,,,,,,,,,,,,,,
31,0,,html-keyboard-response,31,306512,0.0-4.1-2.1,eynutr133fc,2022-09-19 17:36:36.478,629a87179882a45bdf017f24,2,99,33,80,27,26,male,,,"
  <table>
  <tr height=300>
    <td width=300 height=300><img src=""static/images/cards/2_of_red_stars.svg"" width=""175px"" height=""250px""></img></td>
    <td width=300 height=300><img src=""static/images/cards/back_of_red_stars.svg"" width=""175px"" height=""250px""></img></td>
  </tr>
  <tr height=200>
    <td width=300><img src=""static/images/keys/z.svg"" width=""35%"" height=""75%""></img></td>
    <td width=300></td>
  </tr>
</table>
  ",,,,,,,,,,,,,,,,,,,,,,,,,,,,
32,0,,html-keyboard-response,32,308014,0.0-4.1-3.1,eynutr133fc,2022-09-19 17:36:36.478,629a87179882a45bdf017f24,2,99,33,80,27,26,male,,,"<p style=""font-size:50px"">You Lose!
No points this round.</p>",,,,,,,,,,,,,,,,,,,,,,,,,,,,
33,0,,html-keyboard-response,33,308521,0.0-4.1-4.1,eynutr133fc,2022-09-19 17:36:36.478,629a87179882a45bdf017f24,2,99,33,80,27,26,male,,,,,,1.0,learning,1.0,B,,red,,stars,,,,B,red,stars,,0.0,1.0,1,left,484.2999999523,2.0,0.0,0.0,,,
34,0,,html-keyboard-response,34,310023,0.0-4.2-0.2,eynutr133fc,2022-09-19 17:36:36.478,629a87179882a45bdf017f24,2,99,33,80,27,26,male,,,"<img src=""static/images/cards/stack_of_black_moons.svg"" width=""175px"" height=""250px""></img>",,,,,,,,,,,,,,,,,,,,,,,,,,,,
35,0,,html-keyboard-response,35,311566,0.0-4.2-1.2,eynutr133fc,2022-09-19 17:36:36.478,629a87179882a45bdf017f24,2,99,33,80,27,26,male,1040.8000000715,,"
  <table>
  <tr height=300>
    <td width=300 height=300><img src=""static/images/cards/back_of_black_moons.svg"" width=""175px"" height=""250px""></img></td>
    <td width=300 height=300><img src=""static/images/cards/back_of_black_moons.svg"" width=""175px"" height=""250px""></img></td>
  </tr>
  <tr height=200>
    <td width=300><img src=""static/images/keys/z.svg"" width=""35%"" height=""75%""></img></td>
    <td width=300><img src=""static/images/keys/m.svg"" width=""35%"" height=""75%""></img></td>
  </tr>
</table>
  ",90.0,1.0,,,,,,,,,,,,,,,,,,,,,,,,,,
36,0,,html-keyboard-response,36,313068,0.0-4.2-2.2,eynutr133fc,2022-09-19 17:36:36.478,629a87179882a45bdf017f24,2,99,33,80,27,26,male,,,"
  <table>
  <tr height=300>
    <td width=300 height=300><img src=""static/images/cards/4_of_black_moons.svg"" width=""175px"" height=""250px""></img></td>
    <td width=300 height=300><img src=""static/images/cards/back_of_black_moons.svg"" width=""175px"" height=""250px""></img></td>
  </tr>
  <tr height=200>
    <td width=300><img src=""static/images/keys/z.svg"" width=""35%"" height=""75%""></img></td>
    <td width=300><img src=""static/images/keys/m.svg"" width=""35%"" height=""75%""></img></td>
  </tr>
</table>
  ",,,,,,,,,,,,,,,,,,,,,,,,,,,,
37,0,,html-keyboard-response,37,314570,0.0-4.2-3.2,eynutr133fc,2022-09-19 17:36:36.478,629a87179882a45bdf017f24,2,99,33,80,27,26,male,,,"<p style=""font-size:50px"">You Lose!
No points this round.</p>",,,,,,,,,,,,,,,,,,,,,,,,,,,,
38,0,,html-keyboard-response,38,315077,0.0-4.2-4.2,eynutr133fc,2022-09-19 17:36:36.478,629a87179882a45bdf017f24,2,99,33,80,27,26,male,,,,,,1.0,learning,2.0,C,,black,,moons,,,,C,black,moons,,1.0,0.0,NA,left,1040.8000000715,4.0,0.0,0.0,,,
39,0,,html-keyboard-response,39,316578,0.0-4.3-0.3,eynutr133fc,2022-09-19 17:36:36.478,629a87179882a45bdf017f24,2,99,33,80,27,26,male,,,"<img src=""static/images/cards/stack_of_red_moons.svg"" width=""175px"" height=""250px""></img>",,,,,,,,,,,,,,,,,,,,,,,,,,,,
40,0,,html-keyboard-response,40,317667,0.0-4.3-1.3,eynutr133fc,2022-09-19 17:36:36.478,629a87179882a45bdf017f24,2,99,33,80,27,26,male,586.8000000715,,"
  <table>
  <tr height=300>
    <td width=300 height=300><img src=""static/images/cards/back_of_red_moons.svg"" width=""175px"" height=""250px""></img></td>
    <td width=300 height=300><img src=""static/images/cards/back_of_red_moons.svg"" width=""175px"" height=""250px""></img></td>
  </tr>
  <tr height=200>
    <td width=300><img src=""static/images/keys/z.svg"" width=""35%"" height=""75%""></img></td>
    <td width=300></td>
  </tr>
</table>
  ",90.0,1.0,,,,,,,,,,,,,,,,,,,,,,,,,,
41,0,,html-keyboard-response,41,319169,0.0-4.3-2.3,eynutr133fc,2022-09-19 17:36:36.478,629a87179882a45bdf017f24,2,99,33,80,27,26,male,,,"
  <table>
  <tr height=300>
    <td width=300 height=300><img src=""static/images/cards/10_of_red_moons.svg"" width=""175px"" height=""250px""></img></td>
    <td width=300 height=300><img src=""static/images/cards/back_of_red_moons.svg"" width=""175px"" height=""250px""></img></td>
  </tr>
  <tr height=200>
    <td width=300><img src=""static/images/keys/z.svg"" width=""35%"" height=""75%""></img></td>
    <td width=300></td>
  </tr>
</table>
  ",,,,,,,,,,,,,,,,,,,,,,,,,,,,
42,0,,html-keyboard-response,42,320671,0.0-4.3-3.3,eynutr133fc,2022-09-19 17:36:36.478,629a87179882a45bdf017f24,2,99,33,80,27,26,male,,,"<p style=""font-size:50px"">You win!
+10 points this round!</p>",,,,,,,,,,,,,,,,,,,,,,,,,,,,
43,0,,html-keyboard-response,43,321177,0.0-4.3-4.3,eynutr133fc,2022-09-19 17:36:36.478,629a87179882a45bdf017f24,2,99,33,80,27,26,male,,,,,,1.0,learning,3.0,D,,red,,moons,,,,D,red,moons,,0.0,0.0,1,left,586.8000000715,10.0,1.0,1.0,,,
44,0,,html-keyboard-response,44,322679,0.0-4.4-0.4,eynutr133fc,2022-09-19 17:36:36.478,629a87179882a45bdf017f24,2,99,33,80,27,26,male,,,"<img src=""static/images/cards/stack_of_red_bolts.svg"" width=""175px"" height=""250px""></img>",,,,,,,,,,,,,,,,,,,,,,,,,,,,
45,0,,html-keyboard-response,45,323475,0.0-4.4-1.4,eynutr133fc,2022-09-19 17:36:36.478,629a87179882a45bdf017f24,2,99,33,80,27,26,male,294.0999999046,,"
  <table>
  <tr height=300>
    <td width=300 height=300><img src=""static/images/cards/back_of_red_bolts.svg"" width=""175px"" height=""250px""></img></td>
    <td width=300 height=300><img src=""static/images/cards/back_of_red_bolts.svg"" width=""175px"" height=""250px""></img></td>
  </tr>
  <tr height=200>
    <td width=300><img src=""static/images/keys/z.svg"" width=""35%"" height=""75%""></img></td>
    <td width=300><img src=""static/images/keys/m.svg"" width=""35%"" height=""75%""></img></td>
  </tr>
</table>
  ",77.0,1.0,,,,,,,,,,,,,,,,,,,,,,,,,,
46,0,,html-keyboard-response,46,324977,0.0-4.4-2.4,eynutr133fc,2022-09-19 17:36:36.478,629a87179882a45bdf017f24,2,99,33,80,27,26,male,,,"
  <table>
  <tr height=300>
    <td width=300 height=300><img src=""static/images/cards/back_of_red_bolts.svg"" width=""175px"" height=""250px""></img></td>
    <td width=300 height=300><img src=""static/images/cards/7_of_red_bolts.svg"" width=""175px"" height=""250px""></img></td>
  </tr>
  <tr height=200>
    <td width=300><img src=""static/images/keys/z.svg"" width=""35%"" height=""75%""></img></td>
    <td width=300><img src=""static/images/keys/m.svg"" width=""35%"" height=""75%""></img></td>
  </tr>
</table>
  ",,,,,,,,,,,,,,,,,,,,,,,,,,,,
47,0,,html-keyboard-response,47,326479,0.0-4.4-3.4,eynutr133fc,2022-09-19 17:36:36.478,629a87179882a45bdf017f24,2,99,33,80,27,26,male,,,"<p style=""font-size:50px"">You win!
+10 points this round!</p>",,,,,,,,,,,,,,,,,,,,,,,,,,,,
48,0,,html-keyboard-response,48,326985,0.0-4.4-4.4,eynutr133fc,2022-09-19 17:36:36.478,629a87179882a45bdf017f24,2,99,33,80,27,26,male,,,,,,1.0,learning,4.0,Xc,,red,,bolts,,,,Xc,red,bolts,,1.0,0.0,NA,right,294.0999999046,7.0,1.0,1.0,,,
49,0,,html-keyboard-response,49,328487,0.0-4.5-0.5,eynutr133fc,2022-09-19 17:36:36.478,629a87179882a45bdf017f24,2,99,33,80,27,26,male,,,"<img src=""static/images/cards/stack_of_black_bolts.svg"" width=""175px"" height=""250px""></img>",,,,,,,,,,,,,,,,,,,,,,,,,,,,
50,0,,html-keyboard-response,50,329221,0.0-4.5-1.5,eynutr133fc,2022-09-19 17:36:36.478,629a87179882a45bdf017f24,2,99,33,80,27,26,male,232.7000000477,,"
  <table>
  <tr height=300>
    <td width=300 height=300><img src=""static/images/cards/back_of_black_bolts.svg"" width=""175px"" height=""250px""></img></td>
    <td width=300 height=300><img src=""static/images/cards/back_of_black_bolts.svg"" width=""175px"" height=""250px""></img></td>
  </tr>
  <tr height=200>
    <td width=300><img src=""static/images/keys/z.svg"" width=""35%"" height=""75%""></img></td>
    <td width=300></td>
  </tr>
</table>
  ",90.0,1.0,,,,,,,,,,,,,,,,,,,,,,,,,,
51,0,,html-keyboard-response,51,330723,0.0-4.5-2.5,eynutr133fc,2022-09-19 17:36:36.478,629a87179882a45bdf017f24,2,99,33,80,27,26,male,,,"
  <table>
  <tr height=300>
    <td width=300 height=300><img src=""static/images/cards/1_of_black_bolts.svg"" width=""175px"" height=""250px""></img></td>
    <td width=300 height=300><img src=""static/images/cards/back_of_black_bolts.svg"" width=""175px"" height=""250px""></img></td>
  </tr>
  <tr height=200>
    <td width=300><img src=""static/images/keys/z.svg"" width=""35%"" height=""75%""></img></td>
    <td width=300></td>
  </tr>
</table>
  ",,,,,,,,,,,,,,,,,,,,,,,,,,,,
52,0,,html-keyboard-response,52,332226,0.0-4.5-3.5,eynutr133fc,2022-09-19 17:36:36.478,629a87179882a45bdf017f24,2,99,33,80,27,26,male,,,"<p style=""font-size:50px"">You win!
+10 points this round!</p>",,,,,,,,,,,,,,,,,,,,,,,,,,,,
53,0,,html-keyboard-response,53,332732,0.0-4.5-4.5,eynutr133fc,2022-09-19 17:36:36.478,629a87179882a45bdf017f24,2,99,33,80,27,26,male,,,,,,1.0,learning,5.0,Xnc,,black,,bolts,,,,Xnc,black,bolts,,0.0,0.0,1,left,232.7000000477,1.0,0.0,1.0,,,
54,0,,html-keyboard-response,54,334234,0.0-4.6-0.6,eynutr133fc,2022-09-19 17:36:36.478,629a87179882a45bdf017f24,2,99,33,80,27,26,male,,,"<img src=""static/images/cards/stack_of_black_stars.svg"" width=""175px"" height=""250px""></img>",,,,,,,,,,,,,,,,,,,,,,,,,,,,
55,0,,html-keyboard-response,55,335720,0.0-4.6-1.6,eynutr133fc,2022-09-19 17:36:36.478,629a87179882a45bdf017f24,2,99,33,80,27,26,male,984.8000000715,,"
  <table>
  <tr height=300>
    <td width=300 height=300><img src=""static/images/cards/back_of_black_stars.svg"" width=""175px"" height=""250px""></img></td>
    <td width=300 height=300><img src=""static/images/cards/back_of_black_stars.svg"" width=""175px"" height=""250px""></img></td>
  </tr>
  <tr height=200>
    <td width=300><img src=""static/images/keys/z.svg"" width=""35%"" height=""75%""></img></td>
    <td width=300><img src=""static/images/keys/m.svg"" width=""35%"" height=""75%""></img></td>
  </tr>
</table>
  ",77.0,1.0,,,,,,,,,,,,,,,,,,,,,,,,,,
56,0,,html-keyboard-response,56,337222,0.0-4.6-2.6,eynutr133fc,2022-09-19 17:36:36.478,629a87179882a45bdf017f24,2,99,33,80,27,26,male,,,"
  <table>
  <tr height=300>
    <td width=300 height=300><img src=""static/images/cards/back_of_black_stars.svg"" width=""175px"" height=""250px""></img></td>
    <td width=300 height=300><img src=""static/images/cards/7_of_black_stars.svg"" width=""175px"" height=""250px""></img></td>
  </tr>
  <tr height=200>
    <td width=300><img src=""static/images/keys/z.svg"" width=""35%"" height=""75%""></img></td>
    <td width=300><img src=""static/images/keys/m.svg"" width=""35%"" height=""75%""></img></td>
  </tr>
</table>
  ",,,,,,,,,,,,,,,,,,,,,,,,,,,,
57,0,,html-keyboard-response,57,338724,0.0-4.6-3.6,eynutr133fc,2022-09-19 17:36:36.478,629a87179882a45bdf017f24,2,99,33,80,27,26,male,,,"<p style=""font-size:50px"">You win!
+10 points this round!</p>",,,,,,,,,,,,,,,,,,,,,,,,,,,,
58,0,,html-keyboard-response,58,339231,0.0-4.6-4.6,eynutr133fc,2022-09-19 17:36:36.478,629a87179882a45bdf017f24,2,99,33,80,27,26,male,,,,,,1.0,learning,6.0,A,,black,,stars,,,,A,black,stars,,1.0,1.0,NA,right,984.8000000715,7.0,1.0,1.0,,,
59,0,,html-keyboard-response,59,340733,0.0-4.7-0.7,eynutr133fc,2022-09-19 17:36:36.478,629a87179882a45bdf017f24,2,99,33,80,27,26,male,,,"<img src=""static/images/cards/stack_of_red_stars.svg"" width=""175px"" height=""250px""></img>",,,,,,,,,,,,,,,,,,,,,,,,,,,,
60,0,,html-keyboard-response,60,341975,0.0-4.7-1.7,eynutr133fc,2022-09-19 17:36:36.478,629a87179882a45bdf017f24,2,99,33,80,27,26,male,741.1000000238,,"
  <table>
  <tr height=300>
    <td width=300 height=300><img src=""static/images/cards/back_of_red_stars.svg"" width=""175px"" height=""250px""></img></td>
    <td width=300 height=300><img src=""static/images/cards/back_of_red_stars.svg"" width=""175px"" height=""250px""></img></td>
  </tr>
  <tr height=200>
    <td width=300></td>
    <td width=300><img src=""static/images/keys/m.svg"" width=""35%"" height=""75%""></img></td>
  </tr>
</table>
  ",77.0,1.0,,,,,,,,,,,,,,,,,,,,,,,,,,
61,0,,html-keyboard-response,61,343477,0.0-4.7-2.7,eynutr133fc,2022-09-19 17:36:36.478,629a87179882a45bdf017f24,2,99,33,80,27,26,male,,,"
  <table>
  <tr height=300>
    <td width=300 height=300><img src=""static/images/cards/back_of_red_stars.svg"" width=""175px"" height=""250px""></img></td>
    <td width=300 height=300><img src=""static/images/cards/4_of_red_stars.svg"" width=""175px"" height=""250px""></img></td>
  </tr>
  <tr height=200>
    <td width=300></td>
    <td width=300><img src=""static/images/keys/m.svg"" width=""35%"" height=""75%""></img></td>
  </tr>
</table>
  ",,,,,,,,,,,,,,,,,,,,,,,,,,,,
62,0,,html-keyboard-response,62,344980,0.0-4.7-3.7,eynutr133fc,2022-09-19 17:36:36.478,629a87179882a45bdf017f24,2,99,33,80,27,26,male,,,"<p style=""font-size:50px"">You Lose!
No points this round.</p>",,,,,,,,,,,,,,,,,,,,,,,,,,,,
63,0,,html-keyboard-response,63,345487,0.0-4.7-4.7,eynutr133fc,2022-09-19 17:36:36.478,629a87179882a45bdf017f24,2,99,33,80,27,26,male,,,,,,1.0,learning,7.0,B,,red,,stars,,,,B,red,stars,,0.0,1.0,0,right,741.1000000238,4.0,0.0,0.0,,,
64,0,,html-keyboard-response,64,346989,0.0-4.8-0.8,eynutr133fc,2022-09-19 17:36:36.478,629a87179882a45bdf017f24,2,99,33,80,27,26,male,,,"<img src=""static/images/cards/stack_of_black_moons.svg"" width=""175px"" height=""250px""></img>",,,,,,,,,,,,,,,,,,,,,,,,,,,,
65,0,,html-keyboard-response,65,348269,0.0-4.8-1.8,eynutr133fc,2022-09-19 17:36:36.478,629a87179882a45bdf017f24,2,99,33,80,27,26,male,778.0,,"
  <table>
  <tr height=300>
    <td width=300 height=300><img src=""static/images/cards/back_of_black_moons.svg"" width=""175px"" height=""250px""></img></td>
    <td width=300 height=300><img src=""static/images/cards/back_of_black_moons.svg"" width=""175px"" height=""250px""></img></td>
  </tr>
  <tr height=200>
    <td width=300><img src=""static/images/keys/z.svg"" width=""35%"" height=""75%""></img></td>
    <td width=300><img src=""static/images/keys/m.svg"" width=""35%"" height=""75%""></img></td>
  </tr>
</table>
  ",90.0,1.0,,,,,,,,,,,,,,,,,,,,,,,,,,
66,0,,html-keyboard-response,66,349770,0.0-4.8-2.8,eynutr133fc,2022-09-19 17:36:36.478,629a87179882a45bdf017f24,2,99,33,80,27,26,male,,,"
  <table>
  <tr height=300>
    <td width=300 height=300><img src=""static/images/cards/10_of_black_moons.svg"" width=""175px"" height=""250px""></img></td>
    <td width=300 height=300><img src=""static/images/cards/back_of_black_moons.svg"" width=""175px"" height=""250px""></img></td>
  </tr>
  <tr height=200>
    <td width=300><img src=""static/images/keys/z.svg"" width=""35%"" height=""75%""></img></td>
    <td width=300><img src=""static/images/keys/m.svg"" width=""35%"" height=""75%""></img></td>
  </tr>
</table>
  ",,,,,,,,,,,,,,,,,,,,,,,,,,,,
67,0,,html-keyboard-response,67,351273,0.0-4.8-3.8,eynutr133fc,2022-09-19 17:36:36.478,629a87179882a45bdf017f24,2,99,33,80,27,26,male,,,"<p style=""font-size:50px"">You Lose!
No points this round.</p>",,,,,,,,,,,,,,,,,,,,,,,,,,,,
68,0,,html-keyboard-response,68,351780,0.0-4.8-4.8,eynutr133fc,2022-09-19 17:36:36.478,629a87179882a45bdf017f24,2,99,33,80,27,26,male,,,,,,1.0,learning,8.0,C,,black,,moons,,,,C,black,moons,,1.0,0.0,NA,left,778.0,10.0,1.0,0.0,,,
69,0,,html-keyboard-response,69,353282,0.0-4.9-0.9,eynutr133fc,2022-09-19 17:36:36.478,629a87179882a45bdf017f24,2,99,33,80,27,26,male,,,"<img src=""static/images/cards/stack_of_red_moons.svg"" width=""175px"" height=""250px""></img>",,,,,,,,,,,,,,,,,,,,,,,,,,,,
70,0,,html-keyboard-response,70,354166,0.0-4.9-1.9,eynutr133fc,2022-09-19 17:36:36.478,629a87179882a45bdf017f24,2,99,33,80,27,26,male,382.7000000477,,"
  <table>
  <tr height=300>
    <td width=300 height=300><img src=""static/images/cards/back_of_red_moons.svg"" width=""175px"" height=""250px""></img></td>
    <td width=300 height=300><img src=""static/images/cards/back_of_red_moons.svg"" width=""175px"" height=""250px""></img></td>
  </tr>
  <tr height=200>
    <td width=300></td>
    <td width=300><img src=""static/images/keys/m.svg"" width=""35%"" height=""75%""></img></td>
  </tr>
</table>
  ",77.0,1.0,,,,,,,,,,,,,,,,,,,,,,,,,,
71,0,,html-keyboard-response,71,355668,0.0-4.9-2.9,eynutr133fc,2022-09-19 17:36:36.478,629a87179882a45bdf017f24,2,99,33,80,27,26,male,,,"
  <table>
  <tr height=300>
    <td width=300 height=300><img src=""static/images/cards/back_of_red_moons.svg"" width=""175px"" height=""250px""></img></td>
    <td width=300 height=300><img src=""static/images/cards/3_of_red_moons.svg"" width=""175px"" height=""250px""></img></td>
  </tr>
  <tr height=200>
    <td width=300></td>
    <td width=300><img src=""static/images/keys/m.svg"" width=""35%"" height=""75%""></img></td>
  </tr>
</table>
  ",,,,,,,,,,,,,,,,,,,,,,,,,,,,
72,0,,html-keyboard-response,72,357169,0.0-4.9-3.9,eynutr133fc,2022-09-19 17:36:36.478,629a87179882a45bdf017f24,2,99,33,80,27,26,male,,,"<p style=""font-size:50px"">You win!
+10 points this round!</p>",,,,,,,,,,,,,,,,,,,,,,,,,,,,
73,0,,html-keyboard-response,73,357677,0.0-4.9-4.9,eynutr133fc,2022-09-19 17:36:36.478,629a87179882a45bdf017f24,2,99,33,80,27,26,male,,,,,,1.0,learning,9.0,D,,red,,moons,,,,D,red,moons,,0.0,0.0,0,right,382.7000000477,3.0,0.0,1.0,,,
74,0,,html-keyboard-response,74,359177,0.0-4.10-0.10,eynutr133fc,2022-09-19 17:36:36.478,629a87179882a45bdf017f24,2,99,33,80,27,26,male,,,"<img src=""static/images/cards/stack_of_red_bolts.svg"" width=""175px"" height=""250px""></img>",,,,,,,,,,,,,,,,,,,,,,,,,,,,
75,0,,html-keyboard-response,75,360056,0.0-4.10-1.10,eynutr133fc,2022-09-19 17:36:36.478,629a87179882a45bdf017f24,2,99,33,80,27,26,male,377.1000000238,,"
  <table>
  <tr height=300>
    <td width=300 height=300><img src=""static/images/cards/back_of_red_bolts.svg"" width=""175px"" height=""250px""></img></td>
    <td width=300 height=300><img src=""static/images/cards/back_of_red_bolts.svg"" width=""175px"" height=""250px""></img></td>
  </tr>
  <tr height=200>
    <td width=300><img src=""static/images/keys/z.svg"" width=""35%"" height=""75%""></img></td>
    <td width=300><img src=""static/images/keys/m.svg"" width=""35%"" height=""75%""></img></td>
  </tr>
</table>
  ",77.0,1.0,,,,,,,,,,,,,,,,,,,,,,,,,,
76,0,,html-keyboard-response,76,361558,0.0-4.10-2.10,eynutr133fc,2022-09-19 17:36:36.478,629a87179882a45bdf017f24,2,99,33,80,27,26,male,,,"
  <table>
  <tr height=300>
    <td width=300 height=300><img src=""static/images/cards/back_of_red_bolts.svg"" width=""175px"" height=""250px""></img></td>
    <td width=300 height=300><img src=""static/images/cards/4_of_red_bolts.svg"" width=""175px"" height=""250px""></img></td>
  </tr>
  <tr height=200>
    <td width=300><img src=""static/images/keys/z.svg"" width=""35%"" height=""75%""></img></td>
    <td width=300><img src=""static/images/keys/m.svg"" width=""35%"" height=""75%""></img></td>
  </tr>
</table>
  ",,,,,,,,,,,,,,,,,,,,,,,,,,,,
77,0,,html-keyboard-response,77,363060,0.0-4.10-3.10,eynutr133fc,2022-09-19 17:36:36.478,629a87179882a45bdf017f24,2,99,33,80,27,26,male,,,"<p style=""font-size:50px"">You win!
+10 points this round!</p>",,,,,,,,,,,,,,,,,,,,,,,,,,,,
78,0,,html-keyboard-response,78,363566,0.0-4.10-4.10,eynutr133fc,2022-09-19 17:36:36.478,629a87179882a45bdf017f24,2,99,33,80,27,26,male,,,,,,1.0,learning,10.0,Xc,,red,,bolts,,,,Xc,red,bolts,,1.0,0.0,NA,right,377.1000000238,4.0,0.0,1.0,,,
79,0,,html-keyboard-response,79,365068,0.0-4.11-0.11,eynutr133fc,2022-09-19 17:36:36.478,629a87179882a45bdf017f24,2,99,33,80,27,26,male,,,"<img src=""static/images/cards/stack_of_black_bolts.svg"" width=""175px"" height=""250px""></img>",,,,,,,,,,,,,,,,,,,,,,,,,,,,
80,0,,html-keyboard-response,80,365937,0.0-4.11-1.11,eynutr133fc,2022-09-19 17:36:36.478,629a87179882a45bdf017f24,2,99,33,80,27,26,male,366.2999999523,,"
  <table>
  <tr height=300>
    <td width=300 height=300><img src=""static/images/cards/back_of_black_bolts.svg"" width=""175px"" height=""250px""></img></td>
    <td width=300 height=300><img src=""static/images/cards/back_of_black_bolts.svg"" width=""175px"" height=""250px""></img></td>
  </tr>
  <tr height=200>
    <td width=300><img src=""static/images/keys/z.svg"" width=""35%"" height=""75%""></img></td>
    <td width=300></td>
  </tr>
</table>
  ",90.0,1.0,,,,,,,,,,,,,,,,,,,,,,,,,,
81,0,,html-keyboard-response,81,367438,0.0-4.11-2.11,eynutr133fc,2022-09-19 17:36:36.478,629a87179882a45bdf017f24,2,99,33,80,27,26,male,,,"
  <table>
  <tr height=300>
    <td width=300 height=300><img src=""static/images/cards/8_of_black_bolts.svg"" width=""175px"" height=""250px""></img></td>
    <td width=300 height=300><img src=""static/images/cards/back_of_black_bolts.svg"" width=""175px"" height=""250px""></img></td>
  </tr>
  <tr height=200>
    <td width=300><img src=""static/images/keys/z.svg"" width=""35%"" height=""75%""></img></td>
    <td width=300></td>
  </tr>
</table>
  ",,,,,,,,,,,,,,,,,,,,,,,,,,,,
82,0,,html-keyboard-response,82,368939,0.0-4.11-3.11,eynutr133fc,2022-09-19 17:36:36.478,629a87179882a45bdf017f24,2,99,33,80,27,26,male,,,"<p style=""font-size:50px"">You win!
+10 points this round!</p>",,,,,,,,,,,,,,,,,,,,,,,,,,,,
83,0,,html-keyboard-response,83,369445,0.0-4.11-4.11,eynutr133fc,2022-09-19 17:36:36.478,629a87179882a45bdf017f24,2,99,33,80,27,26,male,,,,,,1.0,learning,11.0,Xnc,,black,,bolts,,,,Xnc,black,bolts,,0.0,0.0,1,left,366.2999999523,8.0,1.0,1.0,,,
84,0,,html-keyboard-response,84,370946,0.0-4.12-0.12,eynutr133fc,2022-09-19 17:36:36.478,629a87179882a45bdf017f24,2,99,33,80,27,26,male,,,"<img src=""static/images/cards/stack_of_black_stars.svg"" width=""175px"" height=""250px""></img>",,,,,,,,,,,,,,,,,,,,,,,,,,,,
85,0,,html-keyboard-response,85,371818,0.0-4.12-1.12,eynutr133fc,2022-09-19 17:36:36.478,629a87179882a45bdf017f24,2,99,33,80,27,26,male,370.7000000477,,"
  <table>
  <tr height=300>
    <td width=300 height=300><img src=""static/images/cards/back_of_black_stars.svg"" width=""175px"" height=""250px""></img></td>
    <td width=300 height=300><img src=""static/images/cards/back_of_black_stars.svg"" width=""175px"" height=""250px""></img></td>
  </tr>
  <tr height=200>
    <td width=300><img src=""static/images/keys/z.svg"" width=""35%"" height=""75%""></img></td>
    <td width=300><img src=""static/images/keys/m.svg"" width=""35%"" height=""75%""></img></td>
  </tr>
</table>
  ",77.0,1.0,,,,,,,,,,,,,,,,,,,,,,,,,,
86,0,,html-keyboard-response,86,373320,0.0-4.12-2.12,eynutr133fc,2022-09-19 17:36:36.478,629a87179882a45bdf017f24,2,99,33,80,27,26,male,,,"
  <table>
  <tr height=300>
    <td width=300 height=300><img src=""static/images/cards/back_of_black_stars.svg"" width=""175px"" height=""250px""></img></td>
    <td width=300 height=300><img src=""static/images/cards/4_of_black_stars.svg"" width=""175px"" height=""250px""></img></td>
  </tr>
  <tr height=200>
    <td width=300><img src=""static/images/keys/z.svg"" width=""35%"" height=""75%""></img></td>
    <td width=300><img src=""static/images/keys/m.svg"" width=""35%"" height=""75%""></img></td>
  </tr>
</table>
  ",,,,,,,,,,,,,,,,,,,,,,,,,,,,
87,0,,html-keyboard-response,87,374822,0.0-4.12-3.12,eynutr133fc,2022-09-19 17:36:36.478,629a87179882a45bdf017f24,2,99,33,80,27,26,male,,,"<p style=""font-size:50px"">You Lose!
No points this round.</p>",,,,,,,,,,,,,,,,,,,,,,,,,,,,
88,0,,html-keyboard-response,88,375329,0.0-4.12-4.12,eynutr133fc,2022-09-19 17:36:36.478,629a87179882a45bdf017f24,2,99,33,80,27,26,male,,,,,,1.0,learning,12.0,A,,black,,stars,,,,A,black,stars,,1.0,1.0,NA,right,370.7000000477,4.0,0.0,0.0,,,
89,0,,html-keyboard-response,89,376831,0.0-4.13-0.13,eynutr133fc,2022-09-19 17:36:36.478,629a87179882a45bdf017f24,2,99,33,80,27,26,male,,,"<img src=""static/images/cards/stack_of_red_stars.svg"" width=""175px"" height=""250px""></img>",,,,,,,,,,,,,,,,,,,,,,,,,,,,
90,0,,html-keyboard-response,90,377697,0.0-4.13-1.13,eynutr133fc,2022-09-19 17:36:36.478,629a87179882a45bdf017f24,2,99,33,80,27,26,male,363.8999999762,,"
  <table>
  <tr height=300>
    <td width=300 height=300><img src=""static/images/cards/back_of_red_stars.svg"" width=""175px"" height=""250px""></img></td>
    <td width=300 height=300><img src=""static/images/cards/back_of_red_stars.svg"" width=""175px"" height=""250px""></img></td>
  </tr>
  <tr height=200>
    <td width=300><img src=""static/images/keys/z.svg"" width=""35%"" height=""75%""></img></td>
    <td width=300></td>
  </tr>
</table>
  ",90.0,1.0,,,,,,,,,,,,,,,,,,,,,,,,,,
91,0,,html-keyboard-response,91,379198,0.0-4.13-2.13,eynutr133fc,2022-09-19 17:36:36.478,629a87179882a45bdf017f24,2,99,33,80,27,26,male,,,"
  <table>
  <tr height=300>
    <td width=300 height=300><img src=""static/images/cards/10_of_red_stars.svg"" width=""175px"" height=""250px""></img></td>
    <td width=300 height=300><img src=""static/images/cards/back_of_red_stars.svg"" width=""175px"" height=""250px""></img></td>
  </tr>
  <tr height=200>
    <td width=300><img src=""static/images/keys/z.svg"" width=""35%"" height=""75%""></img></td>
    <td width=300></td>
  </tr>
</table>
  ",,,,,,,,,,,,,,,,,,,,,,,,,,,,
92,0,,html-keyboard-response,92,380700,0.0-4.13-3.13,eynutr133fc,2022-09-19 17:36:36.478,629a87179882a45bdf017f24,2,99,33,80,27,26,male,,,"<p style=""font-size:50px"">You win!
+10 points this round!</p>",,,,,,,,,,,,,,,,,,,,,,,,,,,,
93,0,,html-keyboard-response,93,381206,0.0-4.13-4.13,eynutr133fc,2022-09-19 17:36:36.478,629a87179882a45bdf017f24,2,99,33,80,27,26,male,,,,,,1.0,learning,13.0,B,,red,,stars,,,,B,red,stars,,0.0,1.0,1,left,363.8999999762,10.0,1.0,1.0,,,
94,0,,html-keyboard-response,94,382707,0.0-4.14-0.14,eynutr133fc,2022-09-19 17:36:36.478,629a87179882a45bdf017f24,2,99,33,80,27,26,male,,,"<img src=""static/images/cards/stack_of_black_moons.svg"" width=""175px"" height=""250px""></img>",,,,,,,,,,,,,,,,,,,,,,,,,,,,
95,0,,html-keyboard-response,95,383619,0.0-4.14-1.14,eynutr133fc,2022-09-19 17:36:36.478,629a87179882a45bdf017f24,2,99,33,80,27,26,male,409.1999999285,,"
  <table>
  <tr height=300>
    <td width=300 height=300><img src=""static/images/cards/back_of_black_moons.svg"" width=""175px"" height=""250px""></img></td>
    <td width=300 height=300><img src=""static/images/cards/back_of_black_moons.svg"" width=""175px"" height=""250px""></img></td>
  </tr>
  <tr height=200>
    <td width=300><img src=""static/images/keys/z.svg"" width=""35%"" height=""75%""></img></td>
    <td width=300><img src=""static/images/keys/m.svg"" width=""35%"" height=""75%""></img></td>
  </tr>
</table>
  ",77.0,1.0,,,,,,,,,,,,,,,,,,,,,,,,,,
96,0,,html-keyboard-response,96,385120,0.0-4.14-2.14,eynutr133fc,2022-09-19 17:36:36.478,629a87179882a45bdf017f24,2,99,33,80,27,26,male,,,"
  <table>
  <tr height=300>
    <td width=300 height=300><img src=""static/images/cards/back_of_black_moons.svg"" width=""175px"" height=""250px""></img></td>
    <td width=300 height=300><img src=""static/images/cards/8_of_black_moons.svg"" width=""175px"" height=""250px""></img></td>
  </tr>
  <tr height=200>
    <td width=300><img src=""static/images/keys/z.svg"" width=""35%"" height=""75%""></img></td>
    <td width=300><img src=""static/images/keys/m.svg"" width=""35%"" height=""75%""></img></td>
  </tr>
</table>
  ",,,,,,,,,,,,,,,,,,,,,,,,,,,,
97,0,,html-keyboard-response,97,386622,0.0-4.14-3.14,eynutr133fc,2022-09-19 17:36:36.478,629a87179882a45bdf017f24,2,99,33,80,27,26,male,,,"<p style=""font-size:50px"">You win!
+10 points this round!</p>",,,,,,,,,,,,,,,,,,,,,,,,,,,,
98,0,,html-keyboard-response,98,387129,0.0-4.14-4.14,eynutr133fc,2022-09-19 17:36:36.478,629a87179882a45bdf017f24,2,99,33,80,27,26,male,,,,,,1.0,learning,14.0,C,,black,,moons,,,,C,black,moons,,1.0,0.0,NA,right,409.1999999285,8.0,1.0,1.0,,,
99,0,,html-keyboard-response,99,388630,0.0-4.15-0.15,eynutr133fc,2022-09-19 17:36:36.478,629a87179882a45bdf017f24,2,99,33,80,27,26,male,,,"<img src=""static/images/cards/stack_of_red_moons.svg"" width=""175px"" height=""250px""></img>",,,,,,,,,,,,,,,,,,,,,,,,,,,,
100,0,,html-keyboard-response,100,389521,0.0-4.15-1.15,eynutr133fc,2022-09-19 17:36:36.478,629a87179882a45bdf017f24,2,99,33,80,27,26,male,389.3999999762,,"
  <table>
  <tr height=300>
    <td width=300 height=300><img src=""static/images/cards/back_of_red_moons.svg"" width=""175px"" height=""250px""></img></td>
    <td width=300 height=300><img src=""static/images/cards/back_of_red_moons.svg"" width=""175px"" height=""250px""></img></td>
  </tr>
  <tr height=200>
    <td width=300></td>
    <td width=300><img src=""static/images/keys/m.svg"" width=""35%"" height=""75%""></img></td>
  </tr>
</table>
  ",77.0,1.0,,,,,,,,,,,,,,,,,,,,,,,,,,
101,0,,html-keyboard-response,101,391023,0.0-4.15-2.15,eynutr133fc,2022-09-19 17:36:36.478,629a87179882a45bdf017f24,2,99,33,80,27,26,male,,,"
  <table>
  <tr height=300>
    <td width=300 height=300><img src=""static/images/cards/back_of_red_moons.svg"" width=""175px"" height=""250px""></img></td>
    <td width=300 height=300><img src=""static/images/cards/8_of_red_moons.svg"" width=""175px"" height=""250px""></img></td>
  </tr>
  <tr height=200>
    <td width=300></td>
    <td width=300><img src=""static/images/keys/m.svg"" width=""35%"" height=""75%""></img></td>
  </tr>
</table>
  ",,,,,,,,,,,,,,,,,,,,,,,,,,,,
102,0,,html-keyboard-response,102,392524,0.0-4.15-3.15,eynutr133fc,2022-09-19 17:36:36.478,629a87179882a45bdf017f24,2,99,33,80,27,26,male,,,"<p style=""font-size:50px"">You Lose!
No points this round.</p>",,,,,,,,,,,,,,,,,,,,,,,,,,,,
103,0,,html-keyboard-response,103,393031,0.0-4.15-4.15,eynutr133fc,2022-09-19 17:36:36.478,629a87179882a45bdf017f24,2,99,33,80,27,26,male,,,,,,1.0,learning,15.0,D,,red,,moons,,,,D,red,moons,,0.0,0.0,0,right,389.3999999762,8.0,1.0,0.0,,,
104,0,,html-keyboard-response,104,394533,0.0-4.16-0.16,eynutr133fc,2022-09-19 17:36:36.478,629a87179882a45bdf017f24,2,99,33,80,27,26,male,,,"<img src=""static/images/cards/stack_of_red_bolts.svg"" width=""175px"" height=""250px""></img>",,,,,,,,,,,,,,,,,,,,,,,,,,,,
105,0,,html-keyboard-response,105,395204,0.0-4.16-1.16,eynutr133fc,2022-09-19 17:36:36.478,629a87179882a45bdf017f24,2,99,33,80,27,26,male,169.5,,"
  <table>
  <tr height=300>
    <td width=300 height=300><img src=""static/images/cards/back_of_red_bolts.svg"" width=""175px"" height=""250px""></img></td>
    <td width=300 height=300><img src=""static/images/cards/back_of_red_bolts.svg"" width=""175px"" height=""250px""></img></td>
  </tr>
  <tr height=200>
    <td width=300><img src=""static/images/keys/z.svg"" width=""35%"" height=""75%""></img></td>
    <td width=300><img src=""static/images/keys/m.svg"" width=""35%"" height=""75%""></img></td>
  </tr>
</table>
  ",90.0,1.0,,,,,,,,,,,,,,,,,,,,,,,,,,
106,0,,html-keyboard-response,106,396705,0.0-4.16-2.16,eynutr133fc,2022-09-19 17:36:36.478,629a87179882a45bdf017f24,2,99,33,80,27,26,male,,,"
  <table>
  <tr height=300>
    <td width=300 height=300><img src=""static/images/cards/8_of_red_bolts.svg"" width=""175px"" height=""250px""></img></td>
    <td width=300 height=300><img src=""static/images/cards/back_of_red_bolts.svg"" width=""175px"" height=""250px""></img></td>
  </tr>
  <tr height=200>
    <td width=300><img src=""static/images/keys/z.svg"" width=""35%"" height=""75%""></img></td>
    <td width=300><img src=""static/images/keys/m.svg"" width=""35%"" height=""75%""></img></td>
  </tr>
</table>
  ",,,,,,,,,,,,,,,,,,,,,,,,,,,,
107,0,,html-keyboard-response,107,398207,0.0-4.16-3.16,eynutr133fc,2022-09-19 17:36:36.478,629a87179882a45bdf017f24,2,99,33,80,27,26,male,,,"<p style=""font-size:50px"">You win!
+10 points this round!</p>",,,,,,,,,,,,,,,,,,,,,,,,,,,,
108,0,,html-keyboard-response,108,398714,0.0-4.16-4.16,eynutr133fc,2022-09-19 17:36:36.478,629a87179882a45bdf017f24,2,99,33,80,27,26,male,,,,,,1.0,learning,16.0,Xc,,red,,bolts,,,,Xc,red,bolts,,1.0,0.0,NA,left,169.5,8.0,1.0,1.0,,,
109,0,,html-keyboard-response,109,400215,0.0-4.17-0.17,eynutr133fc,2022-09-19 17:36:36.478,629a87179882a45bdf017f24,2,99,33,80,27,26,male,,,"<img src=""static/images/cards/stack_of_black_bolts.svg"" width=""175px"" height=""250px""></img>",,,,,,,,,,,,,,,,,,,,,,,,,,,,
110,0,,html-keyboard-response,110,401079,0.0-4.17-1.17,eynutr133fc,2022-09-19 17:36:36.478,629a87179882a45bdf017f24,2,99,33,80,27,26,male,362.1000000238,,"
  <table>
  <tr height=300>
    <td width=300 height=300><img src=""static/images/cards/back_of_black_bolts.svg"" width=""175px"" height=""250px""></img></td>
    <td width=300 height=300><img src=""static/images/cards/back_of_black_bolts.svg"" width=""175px"" height=""250px""></img></td>
  </tr>
  <tr height=200>
    <td width=300><img src=""static/images/keys/z.svg"" width=""35%"" height=""75%""></img></td>
    <td width=300></td>
  </tr>
</table>
  ",90.0,1.0,,,,,,,,,,,,,,,,,,,,,,,,,,
111,0,,html-keyboard-response,111,402581,0.0-4.17-2.17,eynutr133fc,2022-09-19 17:36:36.478,629a87179882a45bdf017f24,2,99,33,80,27,26,male,,,"
  <table>
  <tr height=300>
    <td width=300 height=300><img src=""static/images/cards/1_of_black_bolts.svg"" width=""175px"" height=""250px""></img></td>
    <td width=300 height=300><img src=""static/images/cards/back_of_black_bolts.svg"" width=""175px"" height=""250px""></img></td>
  </tr>
  <tr height=200>
    <td width=300><img src=""static/images/keys/z.svg"" width=""35%"" height=""75%""></img></td>
    <td width=300></td>
  </tr>
</table>
  ",,,,,,,,,,,,,,,,,,,,,,,,,,,,
112,0,,html-keyboard-response,112,404083,0.0-4.17-3.17,eynutr133fc,2022-09-19 17:36:36.478,629a87179882a45bdf017f24,2,99,33,80,27,26,male,,,"<p style=""font-size:50px"">You win!
+10 points this round!</p>",,,,,,,,,,,,,,,,,,,,,,,,,,,,
113,0,,html-keyboard-response,113,404589,0.0-4.17-4.17,eynutr133fc,2022-09-19 17:36:36.478,629a87179882a45bdf017f24,2,99,33,80,27,26,male,,,,,,1.0,learning,17.0,Xnc,,black,,bolts,,,,Xnc,black,bolts,,0.0,0.0,1,left,362.1000000238,1.0,0.0,1.0,,,
114,0,,html-keyboard-response,114,406089,0.0-4.18-0.18,eynutr133fc,2022-09-19 17:36:36.478,629a87179882a45bdf017f24,2,99,33,80,27,26,male,,,"<img src=""static/images/cards/stack_of_black_stars.svg"" width=""175px"" height=""250px""></img>",,,,,,,,,,,,,,,,,,,,,,,,,,,,
115,0,,html-keyboard-response,115,406993,0.0-4.18-1.18,eynutr133fc,2022-09-19 17:36:36.478,629a87179882a45bdf017f24,2,99,33,80,27,26,male,400.6000000238,,"
  <table>
  <tr height=300>
    <td width=300 height=300><img src=""static/images/cards/back_of_black_stars.svg"" width=""175px"" height=""250px""></img></td>
    <td width=300 height=300><img src=""static/images/cards/back_of_black_stars.svg"" width=""175px"" height=""250px""></img></td>
  </tr>
  <tr height=200>
    <td width=300><img src=""static/images/keys/z.svg"" width=""35%"" height=""75%""></img></td>
    <td width=300><img src=""static/images/keys/m.svg"" width=""35%"" height=""75%""></img></td>
  </tr>
</table>
  ",77.0,1.0,,,,,,,,,,,,,,,,,,,,,,,,,,
116,0,,html-keyboard-response,116,408494,0.0-4.18-2.18,eynutr133fc,2022-09-19 17:36:36.478,629a87179882a45bdf017f24,2,99,33,80,27,26,male,,,"
  <table>
  <tr height=300>
    <td width=300 height=300><img src=""static/images/cards/back_of_black_stars.svg"" width=""175px"" height=""250px""></img></td>
    <td width=300 height=300><img src=""static/images/cards/7_of_black_stars.svg"" width=""175px"" height=""250px""></img></td>
  </tr>
  <tr height=200>
    <td width=300><img src=""static/images/keys/z.svg"" width=""35%"" height=""75%""></img></td>
    <td width=300><img src=""static/images/keys/m.svg"" width=""35%"" height=""75%""></img></td>
  </tr>
</table>
  ",,,,,,,,,,,,,,,,,,,,,,,,,,,,
117,0,,html-keyboard-response,117,409996,0.0-4.18-3.18,eynutr133fc,2022-09-19 17:36:36.478,629a87179882a45bdf017f24,2,99,33,80,27,26,male,,,"<p style=""font-size:50px"">You win!
+10 points this round!</p>",,,,,,,,,,,,,,,,,,,,,,,,,,,,
118,0,,html-keyboard-response,118,410501,0.0-4.18-4.18,eynutr133fc,2022-09-19 17:36:36.478,629a87179882a45bdf017f24,2,99,33,80,27,26,male,,,,,,1.0,learning,18.0,A,,black,,stars,,,,A,black,stars,,1.0,1.0,NA,right,400.6000000238,7.0,1.0,1.0,,,
119,0,,html-keyboard-response,119,412002,0.0-4.19-0.19,eynutr133fc,2022-09-19 17:36:36.478,629a87179882a45bdf017f24,2,99,33,80,27,26,male,,,"<img src=""static/images/cards/stack_of_red_stars.svg"" width=""175px"" height=""250px""></img>",,,,,,,,,,,,,,,,,,,,,,,,,,,,
120,0,,html-keyboard-response,120,413022,0.0-4.19-1.19,eynutr133fc,2022-09-19 17:36:36.478,629a87179882a45bdf017f24,2,99,33,80,27,26,male,518.5,,"
  <table>
  <tr height=300>
    <td width=300 height=300><img src=""static/images/cards/back_of_red_stars.svg"" width=""175px"" height=""250px""></img></td>
    <td width=300 height=300><img src=""static/images/cards/back_of_red_stars.svg"" width=""175px"" height=""250px""></img></td>
  </tr>
  <tr height=200>
    <td width=300></td>
    <td width=300><img src=""static/images/keys/m.svg"" width=""35%"" height=""75%""></img></td>
  </tr>
</table>
  ",77.0,1.0,,,,,,,,,,,,,,,,,,,,,,,,,,
121,0,,html-keyboard-response,121,414524,0.0-4.19-2.19,eynutr133fc,2022-09-19 17:36:36.478,629a87179882a45bdf017f24,2,99,33,80,27,26,male,,,"
  <table>
  <tr height=300>
    <td width=300 height=300><img src=""static/images/cards/back_of_red_stars.svg"" width=""175px"" height=""250px""></img></td>
    <td width=300 height=300><img src=""static/images/cards/10_of_red_stars.svg"" width=""175px"" height=""250px""></img></td>
  </tr>
  <tr height=200>
    <td width=300></td>
    <td width=300><img src=""static/images/keys/m.svg"" width=""35%"" height=""75%""></img></td>
  </tr>
</table>
  ",,,,,,,,,,,,,,,,,,,,,,,,,,,,
122,0,,html-keyboard-response,122,416027,0.0-4.19-3.19,eynutr133fc,2022-09-19 17:36:36.478,629a87179882a45bdf017f24,2,99,33,80,27,26,male,,,"<p style=""font-size:50px"">You win!
+10 points this round!</p>",,,,,,,,,,,,,,,,,,,,,,,,,,,,
123,0,,html-keyboard-response,123,416533,0.0-4.19-4.19,eynutr133fc,2022-09-19 17:36:36.478,629a87179882a45bdf017f24,2,99,33,80,27,26,male,,,,,,1.0,learning,19.0,B,,red,,stars,,,,B,red,stars,,0.0,1.0,0,right,518.5,10.0,1.0,1.0,,,
124,0,,html-keyboard-response,124,418034,0.0-4.20-0.20,eynutr133fc,2022-09-19 17:36:36.478,629a87179882a45bdf017f24,2,99,33,80,27,26,male,,,"<img src=""static/images/cards/stack_of_black_moons.svg"" width=""175px"" height=""250px""></img>",,,,,,,,,,,,,,,,,,,,,,,,,,,,
125,0,,html-keyboard-response,125,418889,0.0-4.20-1.20,eynutr133fc,2022-09-19 17:36:36.478,629a87179882a45bdf017f24,2,99,33,80,27,26,male,353.6999999285,,"
  <table>
  <tr height=300>
    <td width=300 height=300><img src=""static/images/cards/back_of_black_moons.svg"" width=""175px"" height=""250px""></img></td>
    <td width=300 height=300><img src=""static/images/cards/back_of_black_moons.svg"" width=""175px"" height=""250px""></img></td>
  </tr>
  <tr height=200>
    <td width=300><img src=""static/images/keys/z.svg"" width=""35%"" height=""75%""></img></td>
    <td width=300><img src=""static/images/keys/m.svg"" width=""35%"" height=""75%""></img></td>
  </tr>
</table>
  ",90.0,1.0,,,,,,,,,,,,,,,,,,,,,,,,,,
126,0,,html-keyboard-response,126,420390,0.0-4.20-2.20,eynutr133fc,2022-09-19 17:36:36.478,629a87179882a45bdf017f24,2,99,33,80,27,26,male,,,"
  <table>
  <tr height=300>
    <td width=300 height=300><img src=""static/images/cards/4_of_black_moons.svg"" width=""175px"" height=""250px""></img></td>
    <td width=300 height=300><img src=""static/images/cards/back_of_black_moons.svg"" width=""175px"" height=""250px""></img></td>
  </tr>
  <tr height=200>
    <td width=300><img src=""static/images/keys/z.svg"" width=""35%"" height=""75%""></img></td>
    <td width=300><img src=""static/images/keys/m.svg"" width=""35%"" height=""75%""></img></td>
  </tr>
</table>
  ",,,,,,,,,,,,,,,,,,,,,,,,,,,,
127,0,,html-keyboard-response,127,421893,0.0-4.20-3.20,eynutr133fc,2022-09-19 17:36:36.478,629a87179882a45bdf017f24,2,99,33,80,27,26,male,,,"<p style=""font-size:50px"">You win!
+10 points this round!</p>",,,,,,,,,,,,,,,,,,,,,,,,,,,,
128,0,,html-keyboard-response,128,422399,0.0-4.20-4.20,eynutr133fc,2022-09-19 17:36:36.478,629a87179882a45bdf017f24,2,99,33,80,27,26,male,,,,,,1.0,learning,20.0,C,,black,,moons,,,,C,black,moons,,1.0,0.0,NA,left,353.6999999285,4.0,0.0,1.0,,,
129,0,,html-keyboard-response,129,423900,0.0-4.21-0.21,eynutr133fc,2022-09-19 17:36:36.478,629a87179882a45bdf017f24,2,99,33,80,27,26,male,,,"<img src=""static/images/cards/stack_of_red_moons.svg"" width=""175px"" height=""250px""></img>",,,,,,,,,,,,,,,,,,,,,,,,,,,,
130,0,,html-keyboard-response,130,424759,0.0-4.21-1.21,eynutr133fc,2022-09-19 17:36:36.478,629a87179882a45bdf017f24,2,99,33,80,27,26,male,357.3999999762,,"
  <table>
  <tr height=300>
    <td width=300 height=300><img src=""static/images/cards/back_of_red_moons.svg"" width=""175px"" height=""250px""></img></td>
    <td width=300 height=300><img src=""static/images/cards/back_of_red_moons.svg"" width=""175px"" height=""250px""></img></td>
  </tr>
  <tr height=200>
    <td width=300></td>
    <td width=300><img src=""static/images/keys/m.svg"" width=""35%"" height=""75%""></img></td>
  </tr>
</table>
  ",77.0,1.0,,,,,,,,,,,,,,,,,,,,,,,,,,
131,0,,html-keyboard-response,131,426261,0.0-4.21-2.21,eynutr133fc,2022-09-19 17:36:36.478,629a87179882a45bdf017f24,2,99,33,80,27,26,male,,,"
  <table>
  <tr height=300>
    <td width=300 height=300><img src=""static/images/cards/back_of_red_moons.svg"" width=""175px"" height=""250px""></img></td>
    <td width=300 height=300><img src=""static/images/cards/3_of_red_moons.svg"" width=""175px"" height=""250px""></img></td>
  </tr>
  <tr height=200>
    <td width=300></td>
    <td width=300><img src=""static/images/keys/m.svg"" width=""35%"" height=""75%""></img></td>
  </tr>
</table>
  ",,,,,,,,,,,,,,,,,,,,,,,,,,,,
132,0,,html-keyboard-response,132,427764,0.0-4.21-3.21,eynutr133fc,2022-09-19 17:36:36.478,629a87179882a45bdf017f24,2,99,33,80,27,26,male,,,"<p style=""font-size:50px"">You Lose!
No points this round.</p>",,,,,,,,,,,,,,,,,,,,,,,,,,,,
133,0,,html-keyboard-response,133,428270,0.0-4.21-4.21,eynutr133fc,2022-09-19 17:36:36.478,629a87179882a45bdf017f24,2,99,33,80,27,26,male,,,,,,1.0,learning,21.0,D,,red,,moons,,,,D,red,moons,,0.0,0.0,0,right,357.3999999762,3.0,0.0,0.0,,,
134,0,,html-keyboard-response,134,429770,0.0-4.22-0.22,eynutr133fc,2022-09-19 17:36:36.478,629a87179882a45bdf017f24,2,99,33,80,27,26,male,,,"<img src=""static/images/cards/stack_of_red_bolts.svg"" width=""175px"" height=""250px""></img>",,,,,,,,,,,,,,,,,,,,,,,,,,,,
135,0,,html-keyboard-response,135,430293,0.0-4.22-1.22,eynutr133fc,2022-09-19 17:36:36.478,629a87179882a45bdf017f24,2,99,33,80,27,26,male,21.6000000238,,"
  <table>
  <tr height=300>
    <td width=300 height=300><img src=""static/images/cards/back_of_red_bolts.svg"" width=""175px"" height=""250px""></img></td>
    <td width=300 height=300><img src=""static/images/cards/back_of_red_bolts.svg"" width=""175px"" height=""250px""></img></td>
  </tr>
  <tr height=200>
    <td width=300><img src=""static/images/keys/z.svg"" width=""35%"" height=""75%""></img></td>
    <td width=300><img src=""static/images/keys/m.svg"" width=""35%"" height=""75%""></img></td>
  </tr>
</table>
  ",90.0,1.0,,,,,,,,,,,,,,,,,,,,,,,,,,
136,0,,html-keyboard-response,136,431796,0.0-4.22-2.22,eynutr133fc,2022-09-19 17:36:36.478,629a87179882a45bdf017f24,2,99,33,80,27,26,male,,,"
  <table>
  <tr height=300>
    <td width=300 height=300><img src=""static/images/cards/1_of_red_bolts.svg"" width=""175px"" height=""250px""></img></td>
    <td width=300 height=300><img src=""static/images/cards/back_of_red_bolts.svg"" width=""175px"" height=""250px""></img></td>
  </tr>
  <tr height=200>
    <td width=300><img src=""static/images/keys/z.svg"" width=""35%"" height=""75%""></img></td>
    <td width=300><img src=""static/images/keys/m.svg"" width=""35%"" height=""75%""></img></td>
  </tr>
</table>
  ",,,,,,,,,,,,,,,,,,,,,,,,,,,,
137,0,,html-keyboard-response,137,433298,0.0-4.22-3.22,eynutr133fc,2022-09-19 17:36:36.478,629a87179882a45bdf017f24,2,99,33,80,27,26,male,,,"<p style=""font-size:50px"">You win!
+10 points this round!</p>",,,,,,,,,,,,,,,,,,,,,,,,,,,,
138,0,,html-keyboard-response,138,433804,0.0-4.22-4.22,eynutr133fc,2022-09-19 17:36:36.478,629a87179882a45bdf017f24,2,99,33,80,27,26,male,,,,,,1.0,learning,22.0,Xc,,red,,bolts,,,,Xc,red,bolts,,1.0,0.0,NA,left,21.6000000238,1.0,0.0,1.0,,,
139,0,,html-keyboard-response,139,435306,0.0-4.23-0.23,eynutr133fc,2022-09-19 17:36:36.478,629a87179882a45bdf017f24,2,99,33,80,27,26,male,,,"<img src=""static/images/cards/stack_of_black_bolts.svg"" width=""175px"" height=""250px""></img>",,,,,,,,,,,,,,,,,,,,,,,,,,,,
140,0,,html-keyboard-response,140,436250,0.0-4.23-1.23,eynutr133fc,2022-09-19 17:36:36.478,629a87179882a45bdf017f24,2,99,33,80,27,26,male,442.0,,"
  <table>
  <tr height=300>
    <td width=300 height=300><img src=""static/images/cards/back_of_black_bolts.svg"" width=""175px"" height=""250px""></img></td>
    <td width=300 height=300><img src=""static/images/cards/back_of_black_bolts.svg"" width=""175px"" height=""250px""></img></td>
  </tr>
  <tr height=200>
    <td width=300><img src=""static/images/keys/z.svg"" width=""35%"" height=""75%""></img></td>
    <td width=300></td>
  </tr>
</table>
  ",90.0,1.0,,,,,,,,,,,,,,,,,,,,,,,,,,
141,0,,html-keyboard-response,141,437751,0.0-4.23-2.23,eynutr133fc,2022-09-19 17:36:36.478,629a87179882a45bdf017f24,2,99,33,80,27,26,male,,,"
  <table>
  <tr height=300>
    <td width=300 height=300><img src=""static/images/cards/8_of_black_bolts.svg"" width=""175px"" height=""250px""></img></td>
    <td width=300 height=300><img src=""static/images/cards/back_of_black_bolts.svg"" width=""175px"" height=""250px""></img></td>
  </tr>
  <tr height=200>
    <td width=300><img src=""static/images/keys/z.svg"" width=""35%"" height=""75%""></img></td>
    <td width=300></td>
  </tr>
</table>
  ",,,,,,,,,,,,,,,,,,,,,,,,,,,,
142,0,,html-keyboard-response,142,439265,0.0-4.23-3.23,eynutr133fc,2022-09-19 17:36:36.478,629a87179882a45bdf017f24,2,99,33,80,27,26,male,,,"<p style=""font-size:50px"">You win!
+10 points this round!</p>",,,,,,,,,,,,,,,,,,,,,,,,,,,,
143,0,,html-keyboard-response,143,439771,0.0-4.23-4.23,eynutr133fc,2022-09-19 17:36:36.478,629a87179882a45bdf017f24,2,99,33,80,27,26,male,,,,,,1.0,learning,23.0,Xnc,,black,,bolts,,,,Xnc,black,bolts,,0.0,0.0,1,left,442.0,8.0,1.0,1.0,,,
144,0,,call-function,144,439776,0.0-5.0,eynutr133fc,2022-09-19 17:36:36.478,629a87179882a45bdf017f24,2,99,33,80,27,26,male,,,,,,,,,,,,,,,,,,,,,,,,,,,,,,,
145,0,,image-keyboard-response,145,515790,0.0-6.0-0.0,eynutr133fc,2022-09-19 17:36:36.478,629a87179882a45bdf017f24,2,99,33,80,27,26,male,76013.2999999523,,static/images/instructions_CB_2/Slide20.png,39.0,,,,,,,,,,,,,,,,,,,,,,,,,,,
146,0,,image-keyboard-response,146,518091,0.0-6.1-0.1,eynutr133fc,2022-09-19 17:36:36.478,629a87179882a45bdf017f24,2,99,33,80,27,26,male,2300.8999999762,,static/images/instructions_CB_2/Slide21.png,39.0,,,,,,,,,,,,,,,,,,,,,,,,,,,
147,0,,image-keyboard-response,147,555157,0.0-6.2-0.2,eynutr133fc,2022-09-19 17:36:36.478,629a87179882a45bdf017f24,2,99,33,80,27,26,male,37064.7000000477,,static/images/instructions_CB_2/Slide22.png,39.0,,,,,,,,,,,,,,,,,,,,,,,,,,,
148,0,,image-keyboard-response,148,557671,0.0-6.3-0.3,eynutr133fc,2022-09-19 17:36:36.478,629a87179882a45bdf017f24,2,99,33,80,27,26,male,2513.2000000477,,static/images/instructions_CB_2/Slide23.png,39.0,,,,,,,,,,,,,,,,,,,,,,,,,,,
149,0,,image-keyboard-response,149,558976,0.0-6.4-0.4,eynutr133fc,2022-09-19 17:36:36.478,629a87179882a45bdf017f24,2,99,33,80,27,26,male,1304.1000000238,,static/images/instructions_CB_2/Slide24.png,39.0,,,,,,,,,,,,,,,,,,,,,,,,,,,
150,0,,html-keyboard-response,150,561681,0.0-7.0-0.0,eynutr133fc,2022-09-19 17:36:36.478,629a87179882a45bdf017f24,2,99,33,80,27,26,male,2703.7999999523,,"
  <table>
  <tr height=300>
    <td width=300 height=300><img src=""static/images/cards/stack_of_black_stars.svg"" width=""175px"" height=""250px""></img></td>
    <td width=300 height=300><img src=""static/images/cards/stack_of_red_stars.svg"" width=""175px"" height=""250px""></img></td>
  </tr>
  <tr height=200>
    <td width=300><img src=""static/images/keys/w.svg"" width=""35%"" height=""75%""></img></td>
    <td width=300><img src=""static/images/keys/o.svg"" width=""35%"" height=""75%""></img></td>
  </tr>
</table>
  ",79.0,1.0,,,,,,,,,,,,,,,,,,,,,,,,,,
151,0,,html-keyboard-response,151,563195,0.0-7.0-1.0,eynutr133fc,2022-09-19 17:36:36.478,629a87179882a45bdf017f24,2,99,33,80,27,26,male,1012.6000000238,,"
  <table>
  <tr height=300>
    <td width=300 height=300><img src=""static/images/cards/back_of_red_stars.svg"" width=""175px"" height=""250px""></img></td>
    <td width=300 height=300><img src=""static/images/cards/back_of_red_stars.svg"" width=""175px"" height=""250px""></img></td>
  </tr>
  <tr height=200>
    <td width=300><img src=""static/images/keys/z.svg"" width=""35%"" height=""75%""></img></td>
    <td width=300></td>
  </tr>
</table>
  ",90.0,1.0,,,,,,,,,,,,,,,,,,,,,,,,,,
152,0,,html-keyboard-response,152,564697,0.0-7.0-2.0,eynutr133fc,2022-09-19 17:36:36.478,629a87179882a45bdf017f24,2,99,33,80,27,26,male,,,"
  <table>
  <tr height=300>
    <td width=300 height=300><img src=""static/images/cards/7_of_red_stars.svg"" width=""175px"" height=""250px""></img></td>
    <td width=300 height=300><img src=""static/images/cards/back_of_red_stars.svg"" width=""175px"" height=""250px""></img></td>
  </tr>
  <tr height=200>
    <td width=300><img src=""static/images/keys/z.svg"" width=""35%"" height=""75%""></img></td>
    <td width=300></td>
  </tr>
</table>
  ",,,,,,,,,,,,,,,,,,,,,,,,,,,,
153,0,,html-keyboard-response,153,566199,0.0-7.0-3.0,eynutr133fc,2022-09-19 17:36:36.478,629a87179882a45bdf017f24,2,99,33,80,27,26,male,,,"<p style=""font-size:50px"">You win!
+10 points this round!</p>",,,,,,,,,,,,,,,,,,,,,,,,,,,,
154,0,,html-keyboard-response,154,566706,0.0-7.0-4.0,eynutr133fc,2022-09-19 17:36:36.478,629a87179882a45bdf017f24,2,99,33,80,27,26,male,,,,,,1.0,choice,0.0,A,B,black,red,stars,stars,A,B,B,red,stars,2703.7999999523,0.0,1.0,1,left,1012.6000000238,7.0,1.0,1.0,,,
155,0,,html-keyboard-response,155,567278,0.0-7.1-0.1,eynutr133fc,2022-09-19 17:36:36.478,629a87179882a45bdf017f24,2,99,33,80,27,26,male,570.6999999285,,"
  <table>
  <tr height=300>
    <td width=300 height=300><img src=""static/images/cards/stack_of_red_stars.svg"" width=""175px"" height=""250px""></img></td>
    <td width=300 height=300><img src=""static/images/cards/stack_of_red_moons.svg"" width=""175px"" height=""250px""></img></td>
  </tr>
  <tr height=200>
    <td width=300><img src=""static/images/keys/w.svg"" width=""35%"" height=""75%""></img></td>
    <td width=300><img src=""static/images/keys/o.svg"" width=""35%"" height=""75%""></img></td>
  </tr>
</table>
  ",87.0,1.0,,,,,,,,,,,,,,,,,,,,,,,,,,
156,0,,html-keyboard-response,156,568183,0.0-7.1-1.1,eynutr133fc,2022-09-19 17:36:36.478,629a87179882a45bdf017f24,2,99,33,80,27,26,male,403.7999999523,,"
  <table>
  <tr height=300>
    <td width=300 height=300><img src=""static/images/cards/back_of_red_stars.svg"" width=""175px"" height=""250px""></img></td>
    <td width=300 height=300><img src=""static/images/cards/back_of_red_stars.svg"" width=""175px"" height=""250px""></img></td>
  </tr>
  <tr height=200>
    <td width=300></td>
    <td width=300><img src=""static/images/keys/m.svg"" width=""35%"" height=""75%""></img></td>
  </tr>
</table>
  ",77.0,1.0,,,,,,,,,,,,,,,,,,,,,,,,,,
157,0,,html-keyboard-response,157,569685,0.0-7.1-2.1,eynutr133fc,2022-09-19 17:36:36.478,629a87179882a45bdf017f24,2,99,33,80,27,26,male,,,"
  <table>
  <tr height=300>
    <td width=300 height=300><img src=""static/images/cards/back_of_red_stars.svg"" width=""175px"" height=""250px""></img></td>
    <td width=300 height=300><img src=""static/images/cards/7_of_red_stars.svg"" width=""175px"" height=""250px""></img></td>
  </tr>
  <tr height=200>
    <td width=300></td>
    <td width=300><img src=""static/images/keys/m.svg"" width=""35%"" height=""75%""></img></td>
  </tr>
</table>
  ",,,,,,,,,,,,,,,,,,,,,,,,,,,,
158,0,,html-keyboard-response,158,571186,0.0-7.1-3.1,eynutr133fc,2022-09-19 17:36:36.478,629a87179882a45bdf017f24,2,99,33,80,27,26,male,,,"<p style=""font-size:50px"">You win!
+10 points this round!</p>",,,,,,,,,,,,,,,,,,,,,,,,,,,,
159,0,,html-keyboard-response,159,571691,0.0-7.1-4.1,eynutr133fc,2022-09-19 17:36:36.478,629a87179882a45bdf017f24,2,99,33,80,27,26,male,,,,,,1.0,choice,1.0,B,D,red,red,stars,moons,B,D,B,red,stars,570.6999999285,0.0,1.0,0,right,403.7999999523,7.0,1.0,1.0,,,
160,0,,html-keyboard-response,160,572215,0.0-7.2-0.2,eynutr133fc,2022-09-19 17:36:36.478,629a87179882a45bdf017f24,2,99,33,80,27,26,male,523.4000000954,,"
  <table>
  <tr height=300>
    <td width=300 height=300><img src=""static/images/cards/stack_of_black_stars.svg"" width=""175px"" height=""250px""></img></td>
    <td width=300 height=300><img src=""static/images/cards/stack_of_red_stars.svg"" width=""175px"" height=""250px""></img></td>
  </tr>
  <tr height=200>
    <td width=300><img src=""static/images/keys/w.svg"" width=""35%"" height=""75%""></img></td>
    <td width=300><img src=""static/images/keys/o.svg"" width=""35%"" height=""75%""></img></td>
  </tr>
</table>
  ",79.0,1.0,,,,,,,,,,,,,,,,,,,,,,,,,,
161,0,,html-keyboard-response,161,573108,0.0-7.2-1.2,eynutr133fc,2022-09-19 17:36:36.478,629a87179882a45bdf017f24,2,99,33,80,27,26,male,391.4000000954,,"
  <table>
  <tr height=300>
    <td width=300 height=300><img src=""static/images/cards/back_of_red_stars.svg"" width=""175px"" height=""250px""></img></td>
    <td width=300 height=300><img src=""static/images/cards/back_of_red_stars.svg"" width=""175px"" height=""250px""></img></td>
  </tr>
  <tr height=200>
    <td width=300></td>
    <td width=300><img src=""static/images/keys/m.svg"" width=""35%"" height=""75%""></img></td>
  </tr>
</table>
  ",77.0,1.0,,,,,,,,,,,,,,,,,,,,,,,,,,
162,0,,html-keyboard-response,162,574609,0.0-7.2-2.2,eynutr133fc,2022-09-19 17:36:36.478,629a87179882a45bdf017f24,2,99,33,80,27,26,male,,,"
  <table>
  <tr height=300>
    <td width=300 height=300><img src=""static/images/cards/back_of_red_stars.svg"" width=""175px"" height=""250px""></img></td>
    <td width=300 height=300><img src=""static/images/cards/6_of_red_stars.svg"" width=""175px"" height=""250px""></img></td>
  </tr>
  <tr height=200>
    <td width=300></td>
    <td width=300><img src=""static/images/keys/m.svg"" width=""35%"" height=""75%""></img></td>
  </tr>
</table>
  ",,,,,,,,,,,,,,,,,,,,,,,,,,,,
163,0,,html-keyboard-response,163,576111,0.0-7.2-3.2,eynutr133fc,2022-09-19 17:36:36.478,629a87179882a45bdf017f24,2,99,33,80,27,26,male,,,"<p style=""font-size:50px"">You win!
+10 points this round!</p>",,,,,,,,,,,,,,,,,,,,,,,,,,,,
164,0,,html-keyboard-response,164,576617,0.0-7.2-4.2,eynutr133fc,2022-09-19 17:36:36.478,629a87179882a45bdf017f24,2,99,33,80,27,26,male,,,,,,1.0,choice,2.0,A,B,black,red,stars,stars,A,B,B,red,stars,523.4000000954,0.0,1.0,0,right,391.4000000954,6.0,1.0,1.0,,,
165,0,,html-keyboard-response,165,577814,0.0-7.3-0.3,eynutr133fc,2022-09-19 17:36:36.478,629a87179882a45bdf017f24,2,99,33,80,27,26,male,1196.2000000477,,"
  <table>
  <tr height=300>
    <td width=300 height=300><img src=""static/images/cards/stack_of_black_stars.svg"" width=""175px"" height=""250px""></img></td>
    <td width=300 height=300><img src=""static/images/cards/stack_of_red_moons.svg"" width=""175px"" height=""250px""></img></td>
  </tr>
  <tr height=200>
    <td width=300><img src=""static/images/keys/w.svg"" width=""35%"" height=""75%""></img></td>
    <td width=300><img src=""static/images/keys/o.svg"" width=""35%"" height=""75%""></img></td>
  </tr>
</table>
  ",87.0,1.0,,,,,,,,,,,,,,,,,,,,,,,,,,
166,0,,html-keyboard-response,166,578954,0.0-7.3-1.3,eynutr133fc,2022-09-19 17:36:36.478,629a87179882a45bdf017f24,2,99,33,80,27,26,male,626.2000000477,,"
  <table>
  <tr height=300>
    <td width=300 height=300><img src=""static/images/cards/back_of_black_stars.svg"" width=""175px"" height=""250px""></img></td>
    <td width=300 height=300><img src=""static/images/cards/back_of_black_stars.svg"" width=""175px"" height=""250px""></img></td>
  </tr>
  <tr height=200>
    <td width=300><img src=""static/images/keys/z.svg"" width=""35%"" height=""75%""></img></td>
    <td width=300><img src=""static/images/keys/m.svg"" width=""35%"" height=""75%""></img></td>
  </tr>
</table>
  ",77.0,1.0,,,,,,,,,,,,,,,,,,,,,,,,,,
167,0,,html-keyboard-response,167,580455,0.0-7.3-2.3,eynutr133fc,2022-09-19 17:36:36.478,629a87179882a45bdf017f24,2,99,33,80,27,26,male,,,"
  <table>
  <tr height=300>
    <td width=300 height=300><img src=""static/images/cards/back_of_black_stars.svg"" width=""175px"" height=""250px""></img></td>
    <td width=300 height=300><img src=""static/images/cards/10_of_black_stars.svg"" width=""175px"" height=""250px""></img></td>
  </tr>
  <tr height=200>
    <td width=300><img src=""static/images/keys/z.svg"" width=""35%"" height=""75%""></img></td>
    <td width=300><img src=""static/images/keys/m.svg"" width=""35%"" height=""75%""></img></td>
  </tr>
</table>
  ",,,,,,,,,,,,,,,,,,,,,,,,,,,,
168,0,,html-keyboard-response,168,581958,0.0-7.3-3.3,eynutr133fc,2022-09-19 17:36:36.478,629a87179882a45bdf017f24,2,99,33,80,27,26,male,,,"<p style=""font-size:50px"">You win!
+10 points this round!</p>",,,,,,,,,,,,,,,,,,,,,,,,,,,,
169,0,,html-keyboard-response,169,582464,0.0-7.3-4.3,eynutr133fc,2022-09-19 17:36:36.478,629a87179882a45bdf017f24,2,99,33,80,27,26,male,,,,,,1.0,choice,3.0,A,D,black,red,stars,moons,A,D,A,black,stars,1196.2000000477,1.0,1.0,NA,right,626.2000000477,10.0,1.0,1.0,,,
170,0,,html-keyboard-response,170,583455,0.0-7.4-0.4,eynutr133fc,2022-09-19 17:36:36.478,629a87179882a45bdf017f24,2,99,33,80,27,26,male,990.0,,"
  <table>
  <tr height=300>
    <td width=300 height=300><img src=""static/images/cards/stack_of_red_stars.svg"" width=""175px"" height=""250px""></img></td>
    <td width=300 height=300><img src=""static/images/cards/stack_of_black_moons.svg"" width=""175px"" height=""250px""></img></td>
  </tr>
  <tr height=200>
    <td width=300><img src=""static/images/keys/w.svg"" width=""35%"" height=""75%""></img></td>
    <td width=300><img src=""static/images/keys/o.svg"" width=""35%"" height=""75%""></img></td>
  </tr>
</table>
  ",87.0,1.0,,,,,,,,,,,,,,,,,,,,,,,,,,
171,0,,html-keyboard-response,171,584383,0.0-7.4-1.4,eynutr133fc,2022-09-19 17:36:36.478,629a87179882a45bdf017f24,2,99,33,80,27,26,male,415.0,,"
  <table>
  <tr height=300>
    <td width=300 height=300><img src=""static/images/cards/back_of_red_stars.svg"" width=""175px"" height=""250px""></img></td>
    <td width=300 height=300><img src=""static/images/cards/back_of_red_stars.svg"" width=""175px"" height=""250px""></img></td>
  </tr>
  <tr height=200>
    <td width=300></td>
    <td width=300><img src=""static/images/keys/m.svg"" width=""35%"" height=""75%""></img></td>
  </tr>
</table>
  ",77.0,1.0,,,,,,,,,,,,,,,,,,,,,,,,,,
172,0,,html-keyboard-response,172,585885,0.0-7.4-2.4,eynutr133fc,2022-09-19 17:36:36.478,629a87179882a45bdf017f24,2,99,33,80,27,26,male,,,"
  <table>
  <tr height=300>
    <td width=300 height=300><img src=""static/images/cards/back_of_red_stars.svg"" width=""175px"" height=""250px""></img></td>
    <td width=300 height=300><img src=""static/images/cards/4_of_red_stars.svg"" width=""175px"" height=""250px""></img></td>
  </tr>
  <tr height=200>
    <td width=300></td>
    <td width=300><img src=""static/images/keys/m.svg"" width=""35%"" height=""75%""></img></td>
  </tr>
</table>
  ",,,,,,,,,,,,,,,,,,,,,,,,,,,,
173,0,,html-keyboard-response,173,587386,0.0-7.4-3.4,eynutr133fc,2022-09-19 17:36:36.478,629a87179882a45bdf017f24,2,99,33,80,27,26,male,,,"<p style=""font-size:50px"">You Lose!
No points this round.</p>",,,,,,,,,,,,,,,,,,,,,,,,,,,,
174,0,,html-keyboard-response,174,587893,0.0-7.4-4.4,eynutr133fc,2022-09-19 17:36:36.478,629a87179882a45bdf017f24,2,99,33,80,27,26,male,,,,,,1.0,choice,4.0,B,C,red,black,stars,moons,B,C,B,red,stars,990.0,0.0,1.0,0,right,415.0,4.0,0.0,0.0,,,
175,0,,html-keyboard-response,175,589508,0.0-7.5-0.5,eynutr133fc,2022-09-19 17:36:36.478,629a87179882a45bdf017f24,2,99,33,80,27,26,male,1613.6000000238,,"
  <table>
  <tr height=300>
    <td width=300 height=300><img src=""static/images/cards/stack_of_black_stars.svg"" width=""175px"" height=""250px""></img></td>
    <td width=300 height=300><img src=""static/images/cards/stack_of_black_moons.svg"" width=""175px"" height=""250px""></img></td>
  </tr>
  <tr height=200>
    <td width=300><img src=""static/images/keys/w.svg"" width=""35%"" height=""75%""></img></td>
    <td width=300><img src=""static/images/keys/o.svg"" width=""35%"" height=""75%""></img></td>
  </tr>
</table>
  ",79.0,1.0,,,,,,,,,,,,,,,,,,,,,,,,,,
176,0,,html-keyboard-response,176,590470,0.0-7.5-1.5,eynutr133fc,2022-09-19 17:36:36.478,629a87179882a45bdf017f24,2,99,33,80,27,26,male,460.8000000715,,"
  <table>
  <tr height=300>
    <td width=300 height=300><img src=""static/images/cards/back_of_black_moons.svg"" width=""175px"" height=""250px""></img></td>
    <td width=300 height=300><img src=""static/images/cards/back_of_black_moons.svg"" width=""175px"" height=""250px""></img></td>
  </tr>
  <tr height=200>
    <td width=300><img src=""static/images/keys/z.svg"" width=""35%"" height=""75%""></img></td>
    <td width=300><img src=""static/images/keys/m.svg"" width=""35%"" height=""75%""></img></td>
  </tr>
</table>
  ",90.0,1.0,,,,,,,,,,,,,,,,,,,,,,,,,,
177,0,,html-keyboard-response,177,591972,0.0-7.5-2.5,eynutr133fc,2022-09-19 17:36:36.478,629a87179882a45bdf017f24,2,99,33,80,27,26,male,,,"
  <table>
  <tr height=300>
    <td width=300 height=300><img src=""static/images/cards/9_of_black_moons.svg"" width=""175px"" height=""250px""></img></td>
    <td width=300 height=300><img src=""static/images/cards/back_of_black_moons.svg"" width=""175px"" height=""250px""></img></td>
  </tr>
  <tr height=200>
    <td width=300><img src=""static/images/keys/z.svg"" width=""35%"" height=""75%""></img></td>
    <td width=300><img src=""static/images/keys/m.svg"" width=""35%"" height=""75%""></img></td>
  </tr>
</table>
  ",,,,,,,,,,,,,,,,,,,,,,,,,,,,
178,0,,html-keyboard-response,178,593475,0.0-7.5-3.5,eynutr133fc,2022-09-19 17:36:36.478,629a87179882a45bdf017f24,2,99,33,80,27,26,male,,,"<p style=""font-size:50px"">You win!
+10 points this round!</p>",,,,,,,,,,,,,,,,,,,,,,,,,,,,
179,0,,html-keyboard-response,179,593982,0.0-7.5-4.5,eynutr133fc,2022-09-19 17:36:36.478,629a87179882a45bdf017f24,2,99,33,80,27,26,male,,,,,,1.0,choice,5.0,A,C,black,black,stars,moons,A,C,C,black,moons,1613.6000000238,1.0,0.0,NA,left,460.8000000715,9.0,1.0,1.0,,,
180,0,,html-keyboard-response,180,595284,0.0-7.6-0.6,eynutr133fc,2022-09-19 17:36:36.478,629a87179882a45bdf017f24,2,99,33,80,27,26,male,1300.5999999046,,"
  <table>
  <tr height=300>
    <td width=300 height=300><img src=""static/images/cards/stack_of_red_stars.svg"" width=""175px"" height=""250px""></img></td>
    <td width=300 height=300><img src=""static/images/cards/stack_of_black_stars.svg"" width=""175px"" height=""250px""></img></td>
  </tr>
  <tr height=200>
    <td width=300><img src=""static/images/keys/w.svg"" width=""35%"" height=""75%""></img></td>
    <td width=300><img src=""static/images/keys/o.svg"" width=""35%"" height=""75%""></img></td>
  </tr>
</table>
  ",87.0,1.0,,,,,,,,,,,,,,,,,,,,,,,,,,
181,0,,html-keyboard-response,181,596263,0.0-7.6-1.6,eynutr133fc,2022-09-19 17:36:36.478,629a87179882a45bdf017f24,2,99,33,80,27,26,male,477.5,,"
  <table>
  <tr height=300>
    <td width=300 height=300><img src=""static/images/cards/back_of_red_stars.svg"" width=""175px"" height=""250px""></img></td>
    <td width=300 height=300><img src=""static/images/cards/back_of_red_stars.svg"" width=""175px"" height=""250px""></img></td>
  </tr>
  <tr height=200>
    <td width=300><img src=""static/images/keys/z.svg"" width=""35%"" height=""75%""></img></td>
    <td width=300></td>
  </tr>
</table>
  ",90.0,1.0,,,,,,,,,,,,,,,,,,,,,,,,,,
182,0,,html-keyboard-response,182,597765,0.0-7.6-2.6,eynutr133fc,2022-09-19 17:36:36.478,629a87179882a45bdf017f24,2,99,33,80,27,26,male,,,"
  <table>
  <tr height=300>
    <td width=300 height=300><img src=""static/images/cards/6_of_red_stars.svg"" width=""175px"" height=""250px""></img></td>
    <td width=300 height=300><img src=""static/images/cards/back_of_red_stars.svg"" width=""175px"" height=""250px""></img></td>
  </tr>
  <tr height=200>
    <td width=300><img src=""static/images/keys/z.svg"" width=""35%"" height=""75%""></img></td>
    <td width=300></td>
  </tr>
</table>
  ",,,,,,,,,,,,,,,,,,,,,,,,,,,,
183,0,,html-keyboard-response,183,599267,0.0-7.6-3.6,eynutr133fc,2022-09-19 17:36:36.478,629a87179882a45bdf017f24,2,99,33,80,27,26,male,,,"<p style=""font-size:50px"">You win!
+10 points this round!</p>",,,,,,,,,,,,,,,,,,,,,,,,,,,,
184,0,,html-keyboard-response,184,599774,0.0-7.6-4.6,eynutr133fc,2022-09-19 17:36:36.478,629a87179882a45bdf017f24,2,99,33,80,27,26,male,,,,,,1.0,choice,6.0,A,B,red,black,stars,stars,B,A,B,red,stars,1300.5999999046,0.0,1.0,1,left,477.5,6.0,1.0,1.0,,,
185,0,,html-keyboard-response,185,601426,0.0-7.7-0.7,eynutr133fc,2022-09-19 17:36:36.478,629a87179882a45bdf017f24,2,99,33,80,27,26,male,1651.1999999285,,"
  <table>
  <tr height=300>
    <td width=300 height=300><img src=""static/images/cards/stack_of_red_stars.svg"" width=""175px"" height=""250px""></img></td>
    <td width=300 height=300><img src=""static/images/cards/stack_of_red_moons.svg"" width=""175px"" height=""250px""></img></td>
  </tr>
  <tr height=200>
    <td width=300><img src=""static/images/keys/w.svg"" width=""35%"" height=""75%""></img></td>
    <td width=300><img src=""static/images/keys/o.svg"" width=""35%"" height=""75%""></img></td>
  </tr>
</table>
  ",87.0,1.0,,,,,,,,,,,,,,,,,,,,,,,,,,
186,0,,html-keyboard-response,186,602326,0.0-7.7-1.7,eynutr133fc,2022-09-19 17:36:36.478,629a87179882a45bdf017f24,2,99,33,80,27,26,male,398.1000000238,,"
  <table>
  <tr height=300>
    <td width=300 height=300><img src=""static/images/cards/back_of_red_stars.svg"" width=""175px"" height=""250px""></img></td>
    <td width=300 height=300><img src=""static/images/cards/back_of_red_stars.svg"" width=""175px"" height=""250px""></img></td>
  </tr>
  <tr height=200>
    <td width=300></td>
    <td width=300><img src=""static/images/keys/m.svg"" width=""35%"" height=""75%""></img></td>
  </tr>
</table>
  ",77.0,1.0,,,,,,,,,,,,,,,,,,,,,,,,,,
187,0,,html-keyboard-response,187,603828,0.0-7.7-2.7,eynutr133fc,2022-09-19 17:36:36.478,629a87179882a45bdf017f24,2,99,33,80,27,26,male,,,"
  <table>
  <tr height=300>
    <td width=300 height=300><img src=""static/images/cards/back_of_red_stars.svg"" width=""175px"" height=""250px""></img></td>
    <td width=300 height=300><img src=""static/images/cards/3_of_red_stars.svg"" width=""175px"" height=""250px""></img></td>
  </tr>
  <tr height=200>
    <td width=300></td>
    <td width=300><img src=""static/images/keys/m.svg"" width=""35%"" height=""75%""></img></td>
  </tr>
</table>
  ",,,,,,,,,,,,,,,,,,,,,,,,,,,,
188,0,,html-keyboard-response,188,605330,0.0-7.7-3.7,eynutr133fc,2022-09-19 17:36:36.478,629a87179882a45bdf017f24,2,99,33,80,27,26,male,,,"<p style=""font-size:50px"">You Lose!
No points this round.</p>",,,,,,,,,,,,,,,,,,,,,,,,,,,,
189,0,,html-keyboard-response,189,605835,0.0-7.7-4.7,eynutr133fc,2022-09-19 17:36:36.478,629a87179882a45bdf017f24,2,99,33,80,27,26,male,,,,,,1.0,choice,7.0,B,D,red,red,stars,moons,B,D,B,red,stars,1651.1999999285,0.0,1.0,0,right,398.1000000238,3.0,0.0,0.0,,,
190,0,,html-keyboard-response,190,607519,0.0-7.8-0.8,eynutr133fc,2022-09-19 17:36:36.478,629a87179882a45bdf017f24,2,99,33,80,27,26,male,1682.1999999285,,"
  <table>
  <tr height=300>
    <td width=300 height=300><img src=""static/images/cards/stack_of_black_bolts.svg"" width=""175px"" height=""250px""></img></td>
    <td width=300 height=300><img src=""static/images/cards/stack_of_black_stars.svg"" width=""175px"" height=""250px""></img></td>
  </tr>
  <tr height=200>
    <td width=300><img src=""static/images/keys/w.svg"" width=""35%"" height=""75%""></img></td>
    <td width=300><img src=""static/images/keys/o.svg"" width=""35%"" height=""75%""></img></td>
  </tr>
</table>
  ",87.0,2.0,,,,,,,,,,,,,,,,,,,,,,,,,,
191,0,,html-keyboard-response,191,608381,0.0-7.8-1.8,eynutr133fc,2022-09-19 17:36:36.478,629a87179882a45bdf017f24,2,99,33,80,27,26,male,361.5,,"
  <table>
  <tr height=300>
    <td width=300 height=300><img src=""static/images/cards/back_of_black_bolts.svg"" width=""175px"" height=""250px""></img></td>
    <td width=300 height=300><img src=""static/images/cards/back_of_black_bolts.svg"" width=""175px"" height=""250px""></img></td>
  </tr>
  <tr height=200>
    <td width=300></td>
    <td width=300><img src=""static/images/keys/m.svg"" width=""35%"" height=""75%""></img></td>
  </tr>
</table>
  ",77.0,1.0,,,,,,,,,,,,,,,,,,,,,,,,,,
192,0,,html-keyboard-response,192,609883,0.0-7.8-2.8,eynutr133fc,2022-09-19 17:36:36.478,629a87179882a45bdf017f24,2,99,33,80,27,26,male,,,"
  <table>
  <tr height=300>
    <td width=300 height=300><img src=""static/images/cards/back_of_black_bolts.svg"" width=""175px"" height=""250px""></img></td>
    <td width=300 height=300><img src=""static/images/cards/2_of_black_bolts.svg"" width=""175px"" height=""250px""></img></td>
  </tr>
  <tr height=200>
    <td width=300></td>
    <td width=300><img src=""static/images/keys/m.svg"" width=""35%"" height=""75%""></img></td>
  </tr>
</table>
  ",,,,,,,,,,,,,,,,,,,,,,,,,,,,
193,0,,html-keyboard-response,193,611385,0.0-7.8-3.8,eynutr133fc,2022-09-19 17:36:36.478,629a87179882a45bdf017f24,2,99,33,80,27,26,male,,,"<p style=""font-size:50px"">You win!
+10 points this round!</p>",,,,,,,,,,,,,,,,,,,,,,,,,,,,
194,0,,html-keyboard-response,194,611891,0.0-7.8-4.8,eynutr133fc,2022-09-19 17:36:36.478,629a87179882a45bdf017f24,2,99,33,80,27,26,male,,,,,,1.0,choice,8.0,A,Xnc,black,black,bolts,stars,Xnc,A,Xnc,black,bolts,1682.1999999285,0.0,0.0,0,right,361.5,2.0,0.0,1.0,,,
195,0,,html-keyboard-response,195,613359,0.0-7.9-0.9,eynutr133fc,2022-09-19 17:36:36.478,629a87179882a45bdf017f24,2,99,33,80,27,26,male,1466.3999999762,,"
  <table>
  <tr height=300>
    <td width=300 height=300><img src=""static/images/cards/stack_of_red_moons.svg"" width=""175px"" height=""250px""></img></td>
    <td width=300 height=300><img src=""static/images/cards/stack_of_black_moons.svg"" width=""175px"" height=""250px""></img></td>
  </tr>
  <tr height=200>
    <td width=300><img src=""static/images/keys/w.svg"" width=""35%"" height=""75%""></img></td>
    <td width=300><img src=""static/images/keys/o.svg"" width=""35%"" height=""75%""></img></td>
  </tr>
</table>
  ",79.0,1.0,,,,,,,,,,,,,,,,,,,,,,,,,,
196,0,,html-keyboard-response,196,614195,0.0-7.9-1.9,eynutr133fc,2022-09-19 17:36:36.478,629a87179882a45bdf017f24,2,99,33,80,27,26,male,334.5,,"
  <table>
  <tr height=300>
    <td width=300 height=300><img src=""static/images/cards/back_of_black_moons.svg"" width=""175px"" height=""250px""></img></td>
    <td width=300 height=300><img src=""static/images/cards/back_of_black_moons.svg"" width=""175px"" height=""250px""></img></td>
  </tr>
  <tr height=200>
    <td width=300><img src=""static/images/keys/z.svg"" width=""35%"" height=""75%""></img></td>
    <td width=300><img src=""static/images/keys/m.svg"" width=""35%"" height=""75%""></img></td>
  </tr>
</table>
  ",77.0,1.0,,,,,,,,,,,,,,,,,,,,,,,,,,
197,0,,html-keyboard-response,197,615696,0.0-7.9-2.9,eynutr133fc,2022-09-19 17:36:36.478,629a87179882a45bdf017f24,2,99,33,80,27,26,male,,,"
  <table>
  <tr height=300>
    <td width=300 height=300><img src=""static/images/cards/back_of_black_moons.svg"" width=""175px"" height=""250px""></img></td>
    <td width=300 height=300><img src=""static/images/cards/7_of_black_moons.svg"" width=""175px"" height=""250px""></img></td>
  </tr>
  <tr height=200>
    <td width=300><img src=""static/images/keys/z.svg"" width=""35%"" height=""75%""></img></td>
    <td width=300><img src=""static/images/keys/m.svg"" width=""35%"" height=""75%""></img></td>
  </tr>
</table>
  ",,,,,,,,,,,,,,,,,,,,,,,,,,,,
198,0,,html-keyboard-response,198,617197,0.0-7.9-3.9,eynutr133fc,2022-09-19 17:36:36.478,629a87179882a45bdf017f24,2,99,33,80,27,26,male,,,"<p style=""font-size:50px"">You win!
+10 points this round!</p>",,,,,,,,,,,,,,,,,,,,,,,,,,,,
199,0,,html-keyboard-response,199,617702,0.0-7.9-4.9,eynutr133fc,2022-09-19 17:36:36.478,629a87179882a45bdf017f24,2,99,33,80,27,26,male,,,,,,1.0,choice,9.0,C,D,red,black,moons,moons,D,C,C,black,moons,1466.3999999762,1.0,0.0,NA,right,334.5,7.0,1.0,1.0,,,
200,0,,html-keyboard-response,200,619066,0.0-7.10-0.10,eynutr133fc,2022-09-19 17:36:36.478,629a87179882a45bdf017f24,2,99,33,80,27,26,male,1363.0999999046,,"
  <table>
  <tr height=300>
    <td width=300 height=300><img src=""static/images/cards/stack_of_red_moons.svg"" width=""175px"" height=""250px""></img></td>
    <td width=300 height=300><img src=""static/images/cards/stack_of_red_stars.svg"" width=""175px"" height=""250px""></img></td>
  </tr>
  <tr height=200>
    <td width=300><img src=""static/images/keys/w.svg"" width=""35%"" height=""75%""></img></td>
    <td width=300><img src=""static/images/keys/o.svg"" width=""35%"" height=""75%""></img></td>
  </tr>
</table>
  ",79.0,1.0,,,,,,,,,,,,,,,,,,,,,,,,,,
201,0,,html-keyboard-response,201,620020,0.0-7.10-1.10,eynutr133fc,2022-09-19 17:36:36.478,629a87179882a45bdf017f24,2,99,33,80,27,26,male,452.5,,"
  <table>
  <tr height=300>
    <td width=300 height=300><img src=""static/images/cards/back_of_red_stars.svg"" width=""175px"" height=""250px""></img></td>
    <td width=300 height=300><img src=""static/images/cards/back_of_red_stars.svg"" width=""175px"" height=""250px""></img></td>
  </tr>
  <tr height=200>
    <td width=300></td>
    <td width=300><img src=""static/images/keys/m.svg"" width=""35%"" height=""75%""></img></td>
  </tr>
</table>
  ",77.0,1.0,,,,,,,,,,,,,,,,,,,,,,,,,,
202,0,,html-keyboard-response,202,621522,0.0-7.10-2.10,eynutr133fc,2022-09-19 17:36:36.478,629a87179882a45bdf017f24,2,99,33,80,27,26,male,,,"
  <table>
  <tr height=300>
    <td width=300 height=300><img src=""static/images/cards/back_of_red_stars.svg"" width=""175px"" height=""250px""></img></td>
    <td width=300 height=300><img src=""static/images/cards/8_of_red_stars.svg"" width=""175px"" height=""250px""></img></td>
  </tr>
  <tr height=200>
    <td width=300></td>
    <td width=300><img src=""static/images/keys/m.svg"" width=""35%"" height=""75%""></img></td>
  </tr>
</table>
  ",,,,,,,,,,,,,,,,,,,,,,,,,,,,
203,0,,html-keyboard-response,203,623023,0.0-7.10-3.10,eynutr133fc,2022-09-19 17:36:36.478,629a87179882a45bdf017f24,2,99,33,80,27,26,male,,,"<p style=""font-size:50px"">You win!
+10 points this round!</p>",,,,,,,,,,,,,,,,,,,,,,,,,,,,
204,0,,html-keyboard-response,204,623529,0.0-7.10-4.10,eynutr133fc,2022-09-19 17:36:36.478,629a87179882a45bdf017f24,2,99,33,80,27,26,male,,,,,,1.0,choice,10.0,B,D,red,red,moons,stars,D,B,B,red,stars,1363.0999999046,0.0,1.0,0,right,452.5,8.0,1.0,1.0,,,
205,0,,html-keyboard-response,205,625190,0.0-7.11-0.11,eynutr133fc,2022-09-19 17:36:36.478,629a87179882a45bdf017f24,2,99,33,80,27,26,male,1660.1000000238,,"
  <table>
  <tr height=300>
    <td width=300 height=300><img src=""static/images/cards/stack_of_black_moons.svg"" width=""175px"" height=""250px""></img></td>
    <td width=300 height=300><img src=""static/images/cards/stack_of_black_stars.svg"" width=""175px"" height=""250px""></img></td>
  </tr>
  <tr height=200>
    <td width=300><img src=""static/images/keys/w.svg"" width=""35%"" height=""75%""></img></td>
    <td width=300><img src=""static/images/keys/o.svg"" width=""35%"" height=""75%""></img></td>
  </tr>
</table>
  ",79.0,1.0,,,,,,,,,,,,,,,,,,,,,,,,,,
206,0,,html-keyboard-response,206,626448,0.0-7.11-1.11,eynutr133fc,2022-09-19 17:36:36.478,629a87179882a45bdf017f24,2,99,33,80,27,26,male,756.5,,"
  <table>
  <tr height=300>
    <td width=300 height=300><img src=""static/images/cards/back_of_black_stars.svg"" width=""175px"" height=""250px""></img></td>
    <td width=300 height=300><img src=""static/images/cards/back_of_black_stars.svg"" width=""175px"" height=""250px""></img></td>
  </tr>
  <tr height=200>
    <td width=300><img src=""static/images/keys/z.svg"" width=""35%"" height=""75%""></img></td>
    <td width=300><img src=""static/images/keys/m.svg"" width=""35%"" height=""75%""></img></td>
  </tr>
</table>
  ",90.0,1.0,,,,,,,,,,,,,,,,,,,,,,,,,,
207,0,,html-keyboard-response,207,627950,0.0-7.11-2.11,eynutr133fc,2022-09-19 17:36:36.478,629a87179882a45bdf017f24,2,99,33,80,27,26,male,,,"
  <table>
  <tr height=300>
    <td width=300 height=300><img src=""static/images/cards/10_of_black_stars.svg"" width=""175px"" height=""250px""></img></td>
    <td width=300 height=300><img src=""static/images/cards/back_of_black_stars.svg"" width=""175px"" height=""250px""></img></td>
  </tr>
  <tr height=200>
    <td width=300><img src=""static/images/keys/z.svg"" width=""35%"" height=""75%""></img></td>
    <td width=300><img src=""static/images/keys/m.svg"" width=""35%"" height=""75%""></img></td>
  </tr>
</table>
  ",,,,,,,,,,,,,,,,,,,,,,,,,,,,
208,0,,html-keyboard-response,208,629453,0.0-7.11-3.11,eynutr133fc,2022-09-19 17:36:36.478,629a87179882a45bdf017f24,2,99,33,80,27,26,male,,,"<p style=""font-size:50px"">You win!
+10 points this round!</p>",,,,,,,,,,,,,,,,,,,,,,,,,,,,
209,0,,html-keyboard-response,209,629958,0.0-7.11-4.11,eynutr133fc,2022-09-19 17:36:36.478,629a87179882a45bdf017f24,2,99,33,80,27,26,male,,,,,,1.0,choice,11.0,A,C,black,black,moons,stars,C,A,A,black,stars,1660.1000000238,1.0,1.0,NA,left,756.5,10.0,1.0,1.0,,,
210,0,,html-keyboard-response,210,631524,0.0-7.12-0.12,eynutr133fc,2022-09-19 17:36:36.478,629a87179882a45bdf017f24,2,99,33,80,27,26,male,1564.7999999523,,"
  <table>
  <tr height=300>
    <td width=300 height=300><img src=""static/images/cards/stack_of_black_moons.svg"" width=""175px"" height=""250px""></img></td>
    <td width=300 height=300><img src=""static/images/cards/stack_of_red_stars.svg"" width=""175px"" height=""250px""></img></td>
  </tr>
  <tr height=200>
    <td width=300><img src=""static/images/keys/w.svg"" width=""35%"" height=""75%""></img></td>
    <td width=300><img src=""static/images/keys/o.svg"" width=""35%"" height=""75%""></img></td>
  </tr>
</table>
  ",79.0,1.0,,,,,,,,,,,,,,,,,,,,,,,,,,
211,0,,html-keyboard-response,211,632478,0.0-7.12-1.12,eynutr133fc,2022-09-19 17:36:36.478,629a87179882a45bdf017f24,2,99,33,80,27,26,male,452.3999999762,,"
  <table>
  <tr height=300>
    <td width=300 height=300><img src=""static/images/cards/back_of_red_stars.svg"" width=""175px"" height=""250px""></img></td>
    <td width=300 height=300><img src=""static/images/cards/back_of_red_stars.svg"" width=""175px"" height=""250px""></img></td>
  </tr>
  <tr height=200>
    <td width=300><img src=""static/images/keys/z.svg"" width=""35%"" height=""75%""></img></td>
    <td width=300></td>
  </tr>
</table>
  ",90.0,1.0,,,,,,,,,,,,,,,,,,,,,,,,,,
212,0,,html-keyboard-response,212,633979,0.0-7.12-2.12,eynutr133fc,2022-09-19 17:36:36.478,629a87179882a45bdf017f24,2,99,33,80,27,26,male,,,"
  <table>
  <tr height=300>
    <td width=300 height=300><img src=""static/images/cards/9_of_red_stars.svg"" width=""175px"" height=""250px""></img></td>
    <td width=300 height=300><img src=""static/images/cards/back_of_red_stars.svg"" width=""175px"" height=""250px""></img></td>
  </tr>
  <tr height=200>
    <td width=300><img src=""static/images/keys/z.svg"" width=""35%"" height=""75%""></img></td>
    <td width=300></td>
  </tr>
</table>
  ",,,,,,,,,,,,,,,,,,,,,,,,,,,,
213,0,,html-keyboard-response,213,635480,0.0-7.12-3.12,eynutr133fc,2022-09-19 17:36:36.478,629a87179882a45bdf017f24,2,99,33,80,27,26,male,,,"<p style=""font-size:50px"">You win!
+10 points this round!</p>",,,,,,,,,,,,,,,,,,,,,,,,,,,,
214,0,,html-keyboard-response,214,635986,0.0-7.12-4.12,eynutr133fc,2022-09-19 17:36:36.478,629a87179882a45bdf017f24,2,99,33,80,27,26,male,,,,,,1.0,choice,12.0,B,C,black,red,moons,stars,C,B,B,red,stars,1564.7999999523,0.0,1.0,1,left,452.3999999762,9.0,1.0,1.0,,,
215,0,,html-keyboard-response,215,636819,0.0-7.13-0.13,eynutr133fc,2022-09-19 17:36:36.478,629a87179882a45bdf017f24,2,99,33,80,27,26,male,832.1000000238,,"
  <table>
  <tr height=300>
    <td width=300 height=300><img src=""static/images/cards/stack_of_red_moons.svg"" width=""175px"" height=""250px""></img></td>
    <td width=300 height=300><img src=""static/images/cards/stack_of_black_stars.svg"" width=""175px"" height=""250px""></img></td>
  </tr>
  <tr height=200>
    <td width=300><img src=""static/images/keys/w.svg"" width=""35%"" height=""75%""></img></td>
    <td width=300><img src=""static/images/keys/o.svg"" width=""35%"" height=""75%""></img></td>
  </tr>
</table>
  ",79.0,1.0,,,,,,,,,,,,,,,,,,,,,,,,,,
216,0,,html-keyboard-response,216,638237,0.0-7.13-1.13,eynutr133fc,2022-09-19 17:36:36.478,629a87179882a45bdf017f24,2,99,33,80,27,26,male,916.2999999523,,"
  <table>
  <tr height=300>
    <td width=300 height=300><img src=""static/images/cards/back_of_black_stars.svg"" width=""175px"" height=""250px""></img></td>
    <td width=300 height=300><img src=""static/images/cards/back_of_black_stars.svg"" width=""175px"" height=""250px""></img></td>
  </tr>
  <tr height=200>
    <td width=300><img src=""static/images/keys/z.svg"" width=""35%"" height=""75%""></img></td>
    <td width=300><img src=""static/images/keys/m.svg"" width=""35%"" height=""75%""></img></td>
  </tr>
</table>
  ",90.0,1.0,,,,,,,,,,,,,,,,,,,,,,,,,,
217,0,,html-keyboard-response,217,639739,0.0-7.13-2.13,eynutr133fc,2022-09-19 17:36:36.478,629a87179882a45bdf017f24,2,99,33,80,27,26,male,,,"
  <table>
  <tr height=300>
    <td width=300 height=300><img src=""static/images/cards/4_of_black_stars.svg"" width=""175px"" height=""250px""></img></td>
    <td width=300 height=300><img src=""static/images/cards/back_of_black_stars.svg"" width=""175px"" height=""250px""></img></td>
  </tr>
  <tr height=200>
    <td width=300><img src=""static/images/keys/z.svg"" width=""35%"" height=""75%""></img></td>
    <td width=300><img src=""static/images/keys/m.svg"" width=""35%"" height=""75%""></img></td>
  </tr>
</table>
  ",,,,,,,,,,,,,,,,,,,,,,,,,,,,
218,0,,html-keyboard-response,218,641241,0.0-7.13-3.13,eynutr133fc,2022-09-19 17:36:36.478,629a87179882a45bdf017f24,2,99,33,80,27,26,male,,,"<p style=""font-size:50px"">You Lose!
No points this round.</p>",,,,,,,,,,,,,,,,,,,,,,,,,,,,
219,0,,html-keyboard-response,219,641748,0.0-7.13-4.13,eynutr133fc,2022-09-19 17:36:36.478,629a87179882a45bdf017f24,2,99,33,80,27,26,male,,,,,,1.0,choice,13.0,A,D,red,black,moons,stars,D,A,A,black,stars,832.1000000238,1.0,1.0,NA,left,916.2999999523,4.0,0.0,0.0,,,
220,0,,html-keyboard-response,220,643235,0.0-7.14-0.14,eynutr133fc,2022-09-19 17:36:36.478,629a87179882a45bdf017f24,2,99,33,80,27,26,male,1485.8999999762,,"
  <table>
  <tr height=300>
    <td width=300 height=300><img src=""static/images/cards/stack_of_black_stars.svg"" width=""175px"" height=""250px""></img></td>
    <td width=300 height=300><img src=""static/images/cards/stack_of_black_moons.svg"" width=""175px"" height=""250px""></img></td>
  </tr>
  <tr height=200>
    <td width=300><img src=""static/images/keys/w.svg"" width=""35%"" height=""75%""></img></td>
    <td width=300><img src=""static/images/keys/o.svg"" width=""35%"" height=""75%""></img></td>
  </tr>
</table>
  ",87.0,1.0,,,,,,,,,,,,,,,,,,,,,,,,,,
221,0,,html-keyboard-response,221,643870,0.0-7.14-1.14,eynutr133fc,2022-09-19 17:36:36.478,629a87179882a45bdf017f24,2,99,33,80,27,26,male,134.1000000238,,"
  <table>
  <tr height=300>
    <td width=300 height=300><img src=""static/images/cards/back_of_black_stars.svg"" width=""175px"" height=""250px""></img></td>
    <td width=300 height=300><img src=""static/images/cards/back_of_black_stars.svg"" width=""175px"" height=""250px""></img></td>
  </tr>
  <tr height=200>
    <td width=300><img src=""static/images/keys/z.svg"" width=""35%"" height=""75%""></img></td>
    <td width=300><img src=""static/images/keys/m.svg"" width=""35%"" height=""75%""></img></td>
  </tr>
</table>
  ",77.0,1.0,,,,,,,,,,,,,,,,,,,,,,,,,,
222,0,,html-keyboard-response,222,645373,0.0-7.14-2.14,eynutr133fc,2022-09-19 17:36:36.478,629a87179882a45bdf017f24,2,99,33,80,27,26,male,,,"
  <table>
  <tr height=300>
    <td width=300 height=300><img src=""static/images/cards/back_of_black_stars.svg"" width=""175px"" height=""250px""></img></td>
    <td width=300 height=300><img src=""static/images/cards/2_of_black_stars.svg"" width=""175px"" height=""250px""></img></td>
  </tr>
  <tr height=200>
    <td width=300><img src=""static/images/keys/z.svg"" width=""35%"" height=""75%""></img></td>
    <td width=300><img src=""static/images/keys/m.svg"" width=""35%"" height=""75%""></img></td>
  </tr>
</table>
  ",,,,,,,,,,,,,,,,,,,,,,,,,,,,
223,0,,html-keyboard-response,223,646875,0.0-7.14-3.14,eynutr133fc,2022-09-19 17:36:36.478,629a87179882a45bdf017f24,2,99,33,80,27,26,male,,,"<p style=""font-size:50px"">You Lose!
No points this round.</p>",,,,,,,,,,,,,,,,,,,,,,,,,,,,
224,0,,html-keyboard-response,224,647381,0.0-7.14-4.14,eynutr133fc,2022-09-19 17:36:36.478,629a87179882a45bdf017f24,2,99,33,80,27,26,male,,,,,,1.0,choice,14.0,A,C,black,black,stars,moons,A,C,A,black,stars,1485.8999999762,1.0,1.0,NA,right,134.1000000238,2.0,0.0,0.0,,,
225,0,,html-keyboard-response,225,649268,0.0-7.15-0.15,eynutr133fc,2022-09-19 17:36:36.478,629a87179882a45bdf017f24,2,99,33,80,27,26,male,1886.5,,"
  <table>
  <tr height=300>
    <td width=300 height=300><img src=""static/images/cards/stack_of_black_stars.svg"" width=""175px"" height=""250px""></img></td>
    <td width=300 height=300><img src=""static/images/cards/stack_of_red_stars.svg"" width=""175px"" height=""250px""></img></td>
  </tr>
  <tr height=200>
    <td width=300><img src=""static/images/keys/w.svg"" width=""35%"" height=""75%""></img></td>
    <td width=300><img src=""static/images/keys/o.svg"" width=""35%"" height=""75%""></img></td>
  </tr>
</table>
  ",87.0,1.0,,,,,,,,,,,,,,,,,,,,,,,,,,
226,0,,html-keyboard-response,226,650654,0.0-7.15-1.15,eynutr133fc,2022-09-19 17:36:36.478,629a87179882a45bdf017f24,2,99,33,80,27,26,male,884.7999999523,,"
  <table>
  <tr height=300>
    <td width=300 height=300><img src=""static/images/cards/back_of_black_stars.svg"" width=""175px"" height=""250px""></img></td>
    <td width=300 height=300><img src=""static/images/cards/back_of_black_stars.svg"" width=""175px"" height=""250px""></img></td>
  </tr>
  <tr height=200>
    <td width=300><img src=""static/images/keys/z.svg"" width=""35%"" height=""75%""></img></td>
    <td width=300><img src=""static/images/keys/m.svg"" width=""35%"" height=""75%""></img></td>
  </tr>
</table>
  ",90.0,1.0,,,,,,,,,,,,,,,,,,,,,,,,,,
227,0,,html-keyboard-response,227,652156,0.0-7.15-2.15,eynutr133fc,2022-09-19 17:36:36.478,629a87179882a45bdf017f24,2,99,33,80,27,26,male,,,"
  <table>
  <tr height=300>
    <td width=300 height=300><img src=""static/images/cards/10_of_black_stars.svg"" width=""175px"" height=""250px""></img></td>
    <td width=300 height=300><img src=""static/images/cards/back_of_black_stars.svg"" width=""175px"" height=""250px""></img></td>
  </tr>
  <tr height=200>
    <td width=300><img src=""static/images/keys/z.svg"" width=""35%"" height=""75%""></img></td>
    <td width=300><img src=""static/images/keys/m.svg"" width=""35%"" height=""75%""></img></td>
  </tr>
</table>
  ",,,,,,,,,,,,,,,,,,,,,,,,,,,,
228,0,,html-keyboard-response,228,653658,0.0-7.15-3.15,eynutr133fc,2022-09-19 17:36:36.478,629a87179882a45bdf017f24,2,99,33,80,27,26,male,,,"<p style=""font-size:50px"">You win!
+10 points this round!</p>",,,,,,,,,,,,,,,,,,,,,,,,,,,,
229,0,,html-keyboard-response,229,654164,0.0-7.15-4.15,eynutr133fc,2022-09-19 17:36:36.478,629a87179882a45bdf017f24,2,99,33,80,27,26,male,,,,,,1.0,choice,15.0,A,B,black,red,stars,stars,A,B,A,black,stars,1886.5,1.0,1.0,NA,left,884.7999999523,10.0,1.0,1.0,,,
230,0,,html-keyboard-response,230,654822,0.0-7.16-0.16,eynutr133fc,2022-09-19 17:36:36.478,629a87179882a45bdf017f24,2,99,33,80,27,26,male,656.7000000477,,"
  <table>
  <tr height=300>
    <td width=300 height=300><img src=""static/images/cards/stack_of_red_moons.svg"" width=""175px"" height=""250px""></img></td>
    <td width=300 height=300><img src=""static/images/cards/stack_of_black_stars.svg"" width=""175px"" height=""250px""></img></td>
  </tr>
  <tr height=200>
    <td width=300><img src=""static/images/keys/w.svg"" width=""35%"" height=""75%""></img></td>
    <td width=300><img src=""static/images/keys/o.svg"" width=""35%"" height=""75%""></img></td>
  </tr>
</table>
  ",79.0,1.0,,,,,,,,,,,,,,,,,,,,,,,,,,
231,0,,html-keyboard-response,231,655841,0.0-7.16-1.16,eynutr133fc,2022-09-19 17:36:36.478,629a87179882a45bdf017f24,2,99,33,80,27,26,male,516.6000000238,,"
  <table>
  <tr height=300>
    <td width=300 height=300><img src=""static/images/cards/back_of_black_stars.svg"" width=""175px"" height=""250px""></img></td>
    <td width=300 height=300><img src=""static/images/cards/back_of_black_stars.svg"" width=""175px"" height=""250px""></img></td>
  </tr>
  <tr height=200>
    <td width=300><img src=""static/images/keys/z.svg"" width=""35%"" height=""75%""></img></td>
    <td width=300><img src=""static/images/keys/m.svg"" width=""35%"" height=""75%""></img></td>
  </tr>
</table>
  ",77.0,1.0,,,,,,,,,,,,,,,,,,,,,,,,,,
232,0,,html-keyboard-response,232,657342,0.0-7.16-2.16,eynutr133fc,2022-09-19 17:36:36.478,629a87179882a45bdf017f24,2,99,33,80,27,26,male,,,"
  <table>
  <tr height=300>
    <td width=300 height=300><img src=""static/images/cards/back_of_black_stars.svg"" width=""175px"" height=""250px""></img></td>
    <td width=300 height=300><img src=""static/images/cards/7_of_black_stars.svg"" width=""175px"" height=""250px""></img></td>
  </tr>
  <tr height=200>
    <td width=300><img src=""static/images/keys/z.svg"" width=""35%"" height=""75%""></img></td>
    <td width=300><img src=""static/images/keys/m.svg"" width=""35%"" height=""75%""></img></td>
  </tr>
</table>
  ",,,,,,,,,,,,,,,,,,,,,,,,,,,,
233,0,,html-keyboard-response,233,658844,0.0-7.16-3.16,eynutr133fc,2022-09-19 17:36:36.478,629a87179882a45bdf017f24,2,99,33,80,27,26,male,,,"<p style=""font-size:50px"">You win!
+10 points this round!</p>",,,,,,,,,,,,,,,,,,,,,,,,,,,,
234,0,,html-keyboard-response,234,659349,0.0-7.16-4.16,eynutr133fc,2022-09-19 17:36:36.478,629a87179882a45bdf017f24,2,99,33,80,27,26,male,,,,,,1.0,choice,16.0,A,D,red,black,moons,stars,D,A,A,black,stars,656.7000000477,1.0,1.0,NA,right,516.6000000238,7.0,1.0,1.0,,,
