,index,success,trial_type,trial_index,time_elapsed,internal_node_id,subject,date,prol_id,ctbl,sense_of_control_A,sense_of_control_B,sense_of_control_C,sense_of_control_D,age,gender,rt,url,stimulus,key_press,is_data_trial,phase,trial,deck1,deck2,col1,col2,sym1,sym2,deck_l,deck_r,chosen_deck,chosen_col,chosen_sym,deck_rt,choose_choice,mutual_info,hidden_key,chosen_card,card_rt,player_num,win_card,outcome,mock_rating,npress,response,responses
0,0,1.0,fullscreen,0,4090,0.0-0.0,3s2nekuzz8a,2022-09-19 15:31:45.028,5fc74b5900f0a5079e03dbae,3,67,42,37,40,52,Male,,,,,,,,,,,,,,,,,,,,,,,,,,,,,,,
1,0,,external-html,1,14317,0.0-1.0,3s2nekuzz8a,2022-09-19 15:31:45.028,5fc74b5900f0a5079e03dbae,3,67,42,37,40,52,Male,10129.0,static/js/sub/consent.html,,,,,,,,,,,,,,,,,,,,,,,,,,,,,
2,0,,call-function,2,14318,0.0-2.0,3s2nekuzz8a,2022-09-19 15:31:45.028,5fc74b5900f0a5079e03dbae,3,67,42,37,40,52,Male,,,,,,,,,,,,,,,,,,,,,,,,,,,,,,,
3,0,,image-keyboard-response,3,26431,0.0-3.0-0.0,3s2nekuzz8a,2022-09-19 15:31:45.028,5fc74b5900f0a5079e03dbae,3,67,42,37,40,52,Male,12112.1999999993,,static/images/instructions_CB_3/Slide1.png,39.0,,,,,,,,,,,,,,,,,,,,,,,,,,,
4,0,,image-keyboard-response,4,41247,0.0-3.1-0.1,3s2nekuzz8a,2022-09-19 15:31:45.028,5fc74b5900f0a5079e03dbae,3,67,42,37,40,52,Male,14815.0,,static/images/instructions_CB_3/Slide2.png,39.0,,,,,,,,,,,,,,,,,,,,,,,,,,,
5,0,,image-keyboard-response,5,48307,0.0-3.2-0.2,3s2nekuzz8a,2022-09-19 15:31:45.028,5fc74b5900f0a5079e03dbae,3,67,42,37,40,52,Male,7058.3000000007,,static/images/instructions_CB_3/Slide3.png,39.0,,,,,,,,,,,,,,,,,,,,,,,,,,,
6,0,,image-keyboard-response,6,61322,0.0-3.3-0.3,3s2nekuzz8a,2022-09-19 15:31:45.028,5fc74b5900f0a5079e03dbae,3,67,42,37,40,52,Male,13014.5,,static/images/instructions_CB_3/Slide4.png,39.0,,,,,,,,,,,,,,,,,,,,,,,,,,,
7,0,,image-keyboard-response,7,71582,0.0-3.4-0.4,3s2nekuzz8a,2022-09-19 15:31:45.028,5fc74b5900f0a5079e03dbae,3,67,42,37,40,52,Male,10259.2999999989,,static/images/instructions_CB_3/Slide5.png,39.0,,,,,,,,,,,,,,,,,,,,,,,,,,,
8,0,,image-keyboard-response,8,74404,0.0-3.5-0.5,3s2nekuzz8a,2022-09-19 15:31:45.028,5fc74b5900f0a5079e03dbae,3,67,42,37,40,52,Male,2820.8999999985,,static/images/instructions_CB_3/Slide6.png,39.0,,,,,,,,,,,,,,,,,,,,,,,,,,,
9,0,,image-keyboard-response,9,80525,0.0-3.6-0.6,3s2nekuzz8a,2022-09-19 15:31:45.028,5fc74b5900f0a5079e03dbae,3,67,42,37,40,52,Male,6120.5,,static/images/instructions_CB_3/Slide7.png,39.0,,,,,,,,,,,,,,,,,,,,,,,,,,,
10,0,,image-keyboard-response,10,113432,0.0-3.7-0.7,3s2nekuzz8a,2022-09-19 15:31:45.028,5fc74b5900f0a5079e03dbae,3,67,42,37,40,52,Male,32906.5,,static/images/instructions_CB_3/Slide8.png,39.0,,,,,,,,,,,,,,,,,,,,,,,,,,,
11,0,,image-keyboard-response,11,122233,0.0-3.8-0.8,3s2nekuzz8a,2022-09-19 15:31:45.028,5fc74b5900f0a5079e03dbae,3,67,42,37,40,52,Male,8800.5999999996,,static/images/instructions_CB_3/Slide9.png,39.0,,,,,,,,,,,,,,,,,,,,,,,,,,,
12,0,,image-keyboard-response,12,139738,0.0-3.9-0.9,3s2nekuzz8a,2022-09-19 15:31:45.028,5fc74b5900f0a5079e03dbae,3,67,42,37,40,52,Male,17503.8000000007,,static/images/instructions_CB_3/Slide10.png,39.0,,,,,,,,,,,,,,,,,,,,,,,,,,,
13,0,,image-keyboard-response,13,148232,0.0-3.10-0.10,3s2nekuzz8a,2022-09-19 15:31:45.028,5fc74b5900f0a5079e03dbae,3,67,42,37,40,52,Male,8493.5999999996,,static/images/instructions_CB_3/Slide11.png,39.0,,,,,,,,,,,,,,,,,,,,,,,,,,,
14,0,,image-keyboard-response,14,164361,0.0-3.11-0.11,3s2nekuzz8a,2022-09-19 15:31:45.028,5fc74b5900f0a5079e03dbae,3,67,42,37,40,52,Male,16127.6999999993,,static/images/instructions_CB_3/Slide12.png,39.0,,,,,,,,,,,,,,,,,,,,,,,,,,,
15,0,,image-keyboard-response,15,179313,0.0-3.12-0.12,3s2nekuzz8a,2022-09-19 15:31:45.028,5fc74b5900f0a5079e03dbae,3,67,42,37,40,52,Male,14952.0999999996,,static/images/instructions_CB_3/Slide13.png,39.0,,,,,,,,,,,,,,,,,,,,,,,,,,,
16,0,,image-keyboard-response,16,188878,0.0-3.13-0.13,3s2nekuzz8a,2022-09-19 15:31:45.028,5fc74b5900f0a5079e03dbae,3,67,42,37,40,52,Male,9565.0999999996,,static/images/instructions_CB_3/Slide14.png,39.0,,,,,,,,,,,,,,,,,,,,,,,,,,,
17,0,,image-keyboard-response,17,197216,0.0-3.14-0.14,3s2nekuzz8a,2022-09-19 15:31:45.028,5fc74b5900f0a5079e03dbae,3,67,42,37,40,52,Male,8336.7000000011,,static/images/instructions_CB_3/Slide15.png,39.0,,,,,,,,,,,,,,,,,,,,,,,,,,,
18,0,,image-keyboard-response,18,207092,0.0-3.15-0.15,3s2nekuzz8a,2022-09-19 15:31:45.028,5fc74b5900f0a5079e03dbae,3,67,42,37,40,52,Male,9875.9000000004,,static/images/instructions_CB_3/Slide16.png,39.0,,,,,,,,,,,,,,,,,,,,,,,,,,,
19,0,,image-keyboard-response,19,215691,0.0-3.16-0.16,3s2nekuzz8a,2022-09-19 15:31:45.028,5fc74b5900f0a5079e03dbae,3,67,42,37,40,52,Male,8598.4000000004,,static/images/instructions_CB_3/Slide17.png,39.0,,,,,,,,,,,,,,,,,,,,,,,,,,,
20,0,,image-keyboard-response,20,242151,0.0-3.17-0.17,3s2nekuzz8a,2022-09-19 15:31:45.028,5fc74b5900f0a5079e03dbae,3,67,42,37,40,52,Male,26459.0,,static/images/instructions_CB_3/Slide18.png,39.0,,,,,,,,,,,,,,,,,,,,,,,,,,,
21,0,,image-keyboard-response,21,248095,0.0-3.18-0.18,3s2nekuzz8a,2022-09-19 15:31:45.028,5fc74b5900f0a5079e03dbae,3,67,42,37,40,52,Male,5943.6999999993,,static/images/instructions_CB_3/Slide19.png,39.0,,,,,,,,,,,,,,,,,,,,,,,,,,,
22,0,,html-keyboard-response,22,249600,0.0-4.0-0.0,3s2nekuzz8a,2022-09-19 15:31:45.028,5fc74b5900f0a5079e03dbae,3,67,42,37,40,52,Male,,,"<img src=""static/images/cards/stack_of_black_moons.svg"" width=""175px"" height=""250px""></img>",,,,,,,,,,,,,,,,,,,,,,,,,,,,
23,0,,html-keyboard-response,23,253106,0.0-4.0-1.0,3s2nekuzz8a,2022-09-19 15:31:45.028,5fc74b5900f0a5079e03dbae,3,67,42,37,40,52,Male,,,"
  <table>
  <tr height=300>
    <td width=300 height=300><img src=""static/images/cards/back_of_black_moons.svg"" width=""175px"" height=""250px""></img></td>
    <td width=300 height=300><img src=""static/images/cards/back_of_black_moons.svg"" width=""175px"" height=""250px""></img></td>
  </tr>
  <tr height=200>
    <td width=300><img src=""static/images/keys/z.svg"" width=""35%"" height=""75%""></img></td>
    <td width=300><img src=""static/images/keys/m.svg"" width=""35%"" height=""75%""></img></td>
  </tr>
</table>
  ",,,,,,,,,,,,,,,,,,,,,,,,,,,,
24,0,,html-keyboard-response,24,253107,0.0-4.0-2.0,3s2nekuzz8a,2022-09-19 15:31:45.028,5fc74b5900f0a5079e03dbae,3,67,42,37,40,52,Male,,,,,,,,,,,,,,,,,,,,,,,,,,,,,,,
25,0,,html-keyboard-response,25,254626,0.0-4.0-3.0,3s2nekuzz8a,2022-09-19 15:31:45.028,5fc74b5900f0a5079e03dbae,3,67,42,37,40,52,Male,,,"<p style=""font-size:50px"">Too slow!</p>",,,,,,,,,,,,,,,,,,,,,,,,,,,,
26,0,,html-keyboard-response,26,255147,0.0-4.0-4.0,3s2nekuzz8a,2022-09-19 15:31:45.028,5fc74b5900f0a5079e03dbae,3,67,42,37,40,52,Male,,,,,1.0,learning,0.0,A,,black,,moons,,,,A,black,moons,,1.0,1.0,NA,,,,,,,,,
27,0,,html-keyboard-response,27,256648,0.0-4.1-0.1,3s2nekuzz8a,2022-09-19 15:31:45.028,5fc74b5900f0a5079e03dbae,3,67,42,37,40,52,Male,,,"<img src=""static/images/cards/stack_of_red_moons.svg"" width=""175px"" height=""250px""></img>",,,,,,,,,,,,,,,,,,,,,,,,,,,,
28,0,,html-keyboard-response,28,258229,0.0-4.1-1.1,3s2nekuzz8a,2022-09-19 15:31:45.028,5fc74b5900f0a5079e03dbae,3,67,42,37,40,52,Male,1077.5,,"
  <table>
  <tr height=300>
    <td width=300 height=300><img src=""static/images/cards/back_of_red_moons.svg"" width=""175px"" height=""250px""></img></td>
    <td width=300 height=300><img src=""static/images/cards/back_of_red_moons.svg"" width=""175px"" height=""250px""></img></td>
  </tr>
  <tr height=200>
    <td width=300><img src=""static/images/keys/z.svg"" width=""35%"" height=""75%""></img></td>
    <td width=300></td>
  </tr>
</table>
  ",90.0,,,,,,,,,,,,,,,,,,,,,,,,,1.0,,
29,0,,html-keyboard-response,29,259740,0.0-4.1-2.1,3s2nekuzz8a,2022-09-19 15:31:45.028,5fc74b5900f0a5079e03dbae,3,67,42,37,40,52,Male,,,"
  <table>
  <tr height=300>
    <td width=300 height=300><img src=""static/images/cards/1_of_red_moons.svg"" width=""175px"" height=""250px""></img></td>
    <td width=300 height=300><img src=""static/images/cards/back_of_red_moons.svg"" width=""175px"" height=""250px""></img></td>
  </tr>
  <tr height=200>
    <td width=300><img src=""static/images/keys/z.svg"" width=""35%"" height=""75%""></img></td>
    <td width=300></td>
  </tr>
</table>
  ",,,,,,,,,,,,,,,,,,,,,,,,,,,,
30,0,,html-keyboard-response,30,261243,0.0-4.1-3.1,3s2nekuzz8a,2022-09-19 15:31:45.028,5fc74b5900f0a5079e03dbae,3,67,42,37,40,52,Male,,,"<p style=""font-size:50px"">You Lose!
No points this round.</p>",,,,,,,,,,,,,,,,,,,,,,,,,,,,
31,0,,html-keyboard-response,31,261758,0.0-4.1-4.1,3s2nekuzz8a,2022-09-19 15:31:45.028,5fc74b5900f0a5079e03dbae,3,67,42,37,40,52,Male,,,,,1.0,learning,1.0,B,,red,,moons,,,,B,red,moons,,0.0,1.0,1,left,1077.5,1.0,0.0,0.0,,,,
32,0,,html-keyboard-response,32,263274,0.0-4.2-0.2,3s2nekuzz8a,2022-09-19 15:31:45.028,5fc74b5900f0a5079e03dbae,3,67,42,37,40,52,Male,,,"<img src=""static/images/cards/stack_of_black_stars.svg"" width=""175px"" height=""250px""></img>",,,,,,,,,,,,,,,,,,,,,,,,,,,,
33,0,,html-keyboard-response,33,264448,0.0-4.2-1.2,3s2nekuzz8a,2022-09-19 15:31:45.028,5fc74b5900f0a5079e03dbae,3,67,42,37,40,52,Male,667.2000000011,,"
  <table>
  <tr height=300>
    <td width=300 height=300><img src=""static/images/cards/back_of_black_stars.svg"" width=""175px"" height=""250px""></img></td>
    <td width=300 height=300><img src=""static/images/cards/back_of_black_stars.svg"" width=""175px"" height=""250px""></img></td>
  </tr>
  <tr height=200>
    <td width=300><img src=""static/images/keys/z.svg"" width=""35%"" height=""75%""></img></td>
    <td width=300><img src=""static/images/keys/m.svg"" width=""35%"" height=""75%""></img></td>
  </tr>
</table>
  ",77.0,,,,,,,,,,,,,,,,,,,,,,,,,1.0,,
34,0,,html-keyboard-response,34,265958,0.0-4.2-2.2,3s2nekuzz8a,2022-09-19 15:31:45.028,5fc74b5900f0a5079e03dbae,3,67,42,37,40,52,Male,,,"
  <table>
  <tr height=300>
    <td width=300 height=300><img src=""static/images/cards/back_of_black_stars.svg"" width=""175px"" height=""250px""></img></td>
    <td width=300 height=300><img src=""static/images/cards/1_of_black_stars.svg"" width=""175px"" height=""250px""></img></td>
  </tr>
  <tr height=200>
    <td width=300><img src=""static/images/keys/z.svg"" width=""35%"" height=""75%""></img></td>
    <td width=300><img src=""static/images/keys/m.svg"" width=""35%"" height=""75%""></img></td>
  </tr>
</table>
  ",,,,,,,,,,,,,,,,,,,,,,,,,,,,
35,0,,html-keyboard-response,35,267466,0.0-4.2-3.2,3s2nekuzz8a,2022-09-19 15:31:45.028,5fc74b5900f0a5079e03dbae,3,67,42,37,40,52,Male,,,"<p style=""font-size:50px"">You Lose!
No points this round.</p>",,,,,,,,,,,,,,,,,,,,,,,,,,,,
36,0,,html-keyboard-response,36,267975,0.0-4.2-4.2,3s2nekuzz8a,2022-09-19 15:31:45.028,5fc74b5900f0a5079e03dbae,3,67,42,37,40,52,Male,,,,,1.0,learning,2.0,C,,black,,stars,,,,C,black,stars,,1.0,0.0,NA,right,667.2000000011,1.0,0.0,0.0,,,,
37,0,,html-keyboard-response,37,269477,0.0-4.3-0.3,3s2nekuzz8a,2022-09-19 15:31:45.028,5fc74b5900f0a5079e03dbae,3,67,42,37,40,52,Male,,,"<img src=""static/images/cards/stack_of_red_stars.svg"" width=""175px"" height=""250px""></img>",,,,,,,,,,,,,,,,,,,,,,,,,,,,
38,0,,html-keyboard-response,38,271376,0.0-4.3-1.3,3s2nekuzz8a,2022-09-19 15:31:45.028,5fc74b5900f0a5079e03dbae,3,67,42,37,40,52,Male,1391.8000000007,,"
  <table>
  <tr height=300>
    <td width=300 height=300><img src=""static/images/cards/back_of_red_stars.svg"" width=""175px"" height=""250px""></img></td>
    <td width=300 height=300><img src=""static/images/cards/back_of_red_stars.svg"" width=""175px"" height=""250px""></img></td>
  </tr>
  <tr height=200>
    <td width=300></td>
    <td width=300><img src=""static/images/keys/m.svg"" width=""35%"" height=""75%""></img></td>
  </tr>
</table>
  ",77.0,,,,,,,,,,,,,,,,,,,,,,,,,1.0,,
39,0,,html-keyboard-response,39,272894,0.0-4.3-2.3,3s2nekuzz8a,2022-09-19 15:31:45.028,5fc74b5900f0a5079e03dbae,3,67,42,37,40,52,Male,,,"
  <table>
  <tr height=300>
    <td width=300 height=300><img src=""static/images/cards/back_of_red_stars.svg"" width=""175px"" height=""250px""></img></td>
    <td width=300 height=300><img src=""static/images/cards/2_of_red_stars.svg"" width=""175px"" height=""250px""></img></td>
  </tr>
  <tr height=200>
    <td width=300></td>
    <td width=300><img src=""static/images/keys/m.svg"" width=""35%"" height=""75%""></img></td>
  </tr>
</table>
  ",,,,,,,,,,,,,,,,,,,,,,,,,,,,
40,0,,html-keyboard-response,40,274409,0.0-4.3-3.3,3s2nekuzz8a,2022-09-19 15:31:45.028,5fc74b5900f0a5079e03dbae,3,67,42,37,40,52,Male,,,"<p style=""font-size:50px"">You win!
+10 points this round!</p>",,,,,,,,,,,,,,,,,,,,,,,,,,,,
41,0,,html-keyboard-response,41,274918,0.0-4.3-4.3,3s2nekuzz8a,2022-09-19 15:31:45.028,5fc74b5900f0a5079e03dbae,3,67,42,37,40,52,Male,,,,,1.0,learning,3.0,D,,red,,stars,,,,D,red,stars,,0.0,0.0,0,right,1391.8000000007,2.0,0.0,1.0,,,,
42,0,,html-keyboard-response,42,276427,0.0-4.4-0.4,3s2nekuzz8a,2022-09-19 15:31:45.028,5fc74b5900f0a5079e03dbae,3,67,42,37,40,52,Male,,,"<img src=""static/images/cards/stack_of_red_bolts.svg"" width=""175px"" height=""250px""></img>",,,,,,,,,,,,,,,,,,,,,,,,,,,,
43,0,,html-keyboard-response,43,277842,0.0-4.4-1.4,3s2nekuzz8a,2022-09-19 15:31:45.028,5fc74b5900f0a5079e03dbae,3,67,42,37,40,52,Male,907.6999999993,,"
  <table>
  <tr height=300>
    <td width=300 height=300><img src=""static/images/cards/back_of_red_bolts.svg"" width=""175px"" height=""250px""></img></td>
    <td width=300 height=300><img src=""static/images/cards/back_of_red_bolts.svg"" width=""175px"" height=""250px""></img></td>
  </tr>
  <tr height=200>
    <td width=300><img src=""static/images/keys/z.svg"" width=""35%"" height=""75%""></img></td>
    <td width=300><img src=""static/images/keys/m.svg"" width=""35%"" height=""75%""></img></td>
  </tr>
</table>
  ",90.0,,,,,,,,,,,,,,,,,,,,,,,,,1.0,,
44,0,,html-keyboard-response,44,279345,0.0-4.4-2.4,3s2nekuzz8a,2022-09-19 15:31:45.028,5fc74b5900f0a5079e03dbae,3,67,42,37,40,52,Male,,,"
  <table>
  <tr height=300>
    <td width=300 height=300><img src=""static/images/cards/2_of_red_bolts.svg"" width=""175px"" height=""250px""></img></td>
    <td width=300 height=300><img src=""static/images/cards/back_of_red_bolts.svg"" width=""175px"" height=""250px""></img></td>
  </tr>
  <tr height=200>
    <td width=300><img src=""static/images/keys/z.svg"" width=""35%"" height=""75%""></img></td>
    <td width=300><img src=""static/images/keys/m.svg"" width=""35%"" height=""75%""></img></td>
  </tr>
</table>
  ",,,,,,,,,,,,,,,,,,,,,,,,,,,,
45,0,,html-keyboard-response,45,280858,0.0-4.4-3.4,3s2nekuzz8a,2022-09-19 15:31:45.028,5fc74b5900f0a5079e03dbae,3,67,42,37,40,52,Male,,,"<p style=""font-size:50px"">You win!
+10 points this round!</p>",,,,,,,,,,,,,,,,,,,,,,,,,,,,
46,0,,html-keyboard-response,46,281367,0.0-4.4-4.4,3s2nekuzz8a,2022-09-19 15:31:45.028,5fc74b5900f0a5079e03dbae,3,67,42,37,40,52,Male,,,,,1.0,learning,4.0,Xc,,red,,bolts,,,,Xc,red,bolts,,1.0,0.0,NA,left,907.6999999993,2.0,0.0,1.0,,,,
47,0,,html-keyboard-response,47,282871,0.0-4.5-0.5,3s2nekuzz8a,2022-09-19 15:31:45.028,5fc74b5900f0a5079e03dbae,3,67,42,37,40,52,Male,,,"<img src=""static/images/cards/stack_of_black_bolts.svg"" width=""175px"" height=""250px""></img>",,,,,,,,,,,,,,,,,,,,,,,,,,,,
48,0,,html-keyboard-response,48,283992,0.0-4.5-1.5,3s2nekuzz8a,2022-09-19 15:31:45.028,5fc74b5900f0a5079e03dbae,3,67,42,37,40,52,Male,616.4000000004,,"
  <table>
  <tr height=300>
    <td width=300 height=300><img src=""static/images/cards/back_of_black_bolts.svg"" width=""175px"" height=""250px""></img></td>
    <td width=300 height=300><img src=""static/images/cards/back_of_black_bolts.svg"" width=""175px"" height=""250px""></img></td>
  </tr>
  <tr height=200>
    <td width=300><img src=""static/images/keys/z.svg"" width=""35%"" height=""75%""></img></td>
    <td width=300></td>
  </tr>
</table>
  ",90.0,,,,,,,,,,,,,,,,,,,,,,,,,1.0,,
49,0,,html-keyboard-response,49,285508,0.0-4.5-2.5,3s2nekuzz8a,2022-09-19 15:31:45.028,5fc74b5900f0a5079e03dbae,3,67,42,37,40,52,Male,,,"
  <table>
  <tr height=300>
    <td width=300 height=300><img src=""static/images/cards/6_of_black_bolts.svg"" width=""175px"" height=""250px""></img></td>
    <td width=300 height=300><img src=""static/images/cards/back_of_black_bolts.svg"" width=""175px"" height=""250px""></img></td>
  </tr>
  <tr height=200>
    <td width=300><img src=""static/images/keys/z.svg"" width=""35%"" height=""75%""></img></td>
    <td width=300></td>
  </tr>
</table>
  ",,,,,,,,,,,,,,,,,,,,,,,,,,,,
50,0,,html-keyboard-response,50,287019,0.0-4.5-3.5,3s2nekuzz8a,2022-09-19 15:31:45.028,5fc74b5900f0a5079e03dbae,3,67,42,37,40,52,Male,,,"<p style=""font-size:50px"">You win!
+10 points this round!</p>",,,,,,,,,,,,,,,,,,,,,,,,,,,,
51,0,,html-keyboard-response,51,287528,0.0-4.5-4.5,3s2nekuzz8a,2022-09-19 15:31:45.028,5fc74b5900f0a5079e03dbae,3,67,42,37,40,52,Male,,,,,1.0,learning,5.0,Xnc,,black,,bolts,,,,Xnc,black,bolts,,0.0,0.0,1,left,616.4000000004,6.0,1.0,1.0,,,,
52,0,,html-keyboard-response,52,289032,0.0-4.6-0.6,3s2nekuzz8a,2022-09-19 15:31:45.028,5fc74b5900f0a5079e03dbae,3,67,42,37,40,52,Male,,,"<img src=""static/images/cards/stack_of_black_moons.svg"" width=""175px"" height=""250px""></img>",,,,,,,,,,,,,,,,,,,,,,,,,,,,
53,0,,html-keyboard-response,53,290808,0.0-4.6-1.6,3s2nekuzz8a,2022-09-19 15:31:45.028,5fc74b5900f0a5079e03dbae,3,67,42,37,40,52,Male,1271.5999999996,,"
  <table>
  <tr height=300>
    <td width=300 height=300><img src=""static/images/cards/back_of_black_moons.svg"" width=""175px"" height=""250px""></img></td>
    <td width=300 height=300><img src=""static/images/cards/back_of_black_moons.svg"" width=""175px"" height=""250px""></img></td>
  </tr>
  <tr height=200>
    <td width=300><img src=""static/images/keys/z.svg"" width=""35%"" height=""75%""></img></td>
    <td width=300><img src=""static/images/keys/m.svg"" width=""35%"" height=""75%""></img></td>
  </tr>
</table>
  ",77.0,,,,,,,,,,,,,,,,,,,,,,,,,1.0,,
54,0,,html-keyboard-response,54,292319,0.0-4.6-2.6,3s2nekuzz8a,2022-09-19 15:31:45.028,5fc74b5900f0a5079e03dbae,3,67,42,37,40,52,Male,,,"
  <table>
  <tr height=300>
    <td width=300 height=300><img src=""static/images/cards/back_of_black_moons.svg"" width=""175px"" height=""250px""></img></td>
    <td width=300 height=300><img src=""static/images/cards/8_of_black_moons.svg"" width=""175px"" height=""250px""></img></td>
  </tr>
  <tr height=200>
    <td width=300><img src=""static/images/keys/z.svg"" width=""35%"" height=""75%""></img></td>
    <td width=300><img src=""static/images/keys/m.svg"" width=""35%"" height=""75%""></img></td>
  </tr>
</table>
  ",,,,,,,,,,,,,,,,,,,,,,,,,,,,
55,0,,html-keyboard-response,55,293832,0.0-4.6-3.6,3s2nekuzz8a,2022-09-19 15:31:45.028,5fc74b5900f0a5079e03dbae,3,67,42,37,40,52,Male,,,"<p style=""font-size:50px"">You win!
+10 points this round!</p>",,,,,,,,,,,,,,,,,,,,,,,,,,,,
56,0,,html-keyboard-response,56,294340,0.0-4.6-4.6,3s2nekuzz8a,2022-09-19 15:31:45.028,5fc74b5900f0a5079e03dbae,3,67,42,37,40,52,Male,,,,,1.0,learning,6.0,A,,black,,moons,,,,A,black,moons,,1.0,1.0,NA,right,1271.5999999996,8.0,1.0,1.0,,,,
57,0,,html-keyboard-response,57,295843,0.0-4.7-0.7,3s2nekuzz8a,2022-09-19 15:31:45.028,5fc74b5900f0a5079e03dbae,3,67,42,37,40,52,Male,,,"<img src=""static/images/cards/stack_of_red_moons.svg"" width=""175px"" height=""250px""></img>",,,,,,,,,,,,,,,,,,,,,,,,,,,,
58,0,,html-keyboard-response,58,297305,0.0-4.7-1.7,3s2nekuzz8a,2022-09-19 15:31:45.028,5fc74b5900f0a5079e03dbae,3,67,42,37,40,52,Male,959.6999999993,,"
  <table>
  <tr height=300>
    <td width=300 height=300><img src=""static/images/cards/back_of_red_moons.svg"" width=""175px"" height=""250px""></img></td>
    <td width=300 height=300><img src=""static/images/cards/back_of_red_moons.svg"" width=""175px"" height=""250px""></img></td>
  </tr>
  <tr height=200>
    <td width=300><img src=""static/images/keys/z.svg"" width=""35%"" height=""75%""></img></td>
    <td width=300></td>
  </tr>
</table>
  ",90.0,,,,,,,,,,,,,,,,,,,,,,,,,1.0,,
59,0,,html-keyboard-response,59,298813,0.0-4.7-2.7,3s2nekuzz8a,2022-09-19 15:31:45.028,5fc74b5900f0a5079e03dbae,3,67,42,37,40,52,Male,,,"
  <table>
  <tr height=300>
    <td width=300 height=300><img src=""static/images/cards/4_of_red_moons.svg"" width=""175px"" height=""250px""></img></td>
    <td width=300 height=300><img src=""static/images/cards/back_of_red_moons.svg"" width=""175px"" height=""250px""></img></td>
  </tr>
  <tr height=200>
    <td width=300><img src=""static/images/keys/z.svg"" width=""35%"" height=""75%""></img></td>
    <td width=300></td>
  </tr>
</table>
  ",,,,,,,,,,,,,,,,,,,,,,,,,,,,
60,0,,html-keyboard-response,60,300326,0.0-4.7-3.7,3s2nekuzz8a,2022-09-19 15:31:45.028,5fc74b5900f0a5079e03dbae,3,67,42,37,40,52,Male,,,"<p style=""font-size:50px"">You Lose!
No points this round.</p>",,,,,,,,,,,,,,,,,,,,,,,,,,,,
61,0,,html-keyboard-response,61,300833,0.0-4.7-4.7,3s2nekuzz8a,2022-09-19 15:31:45.028,5fc74b5900f0a5079e03dbae,3,67,42,37,40,52,Male,,,,,1.0,learning,7.0,B,,red,,moons,,,,B,red,moons,,0.0,1.0,1,left,959.6999999993,4.0,0.0,0.0,,,,
62,0,,html-keyboard-response,62,302336,0.0-4.8-0.8,3s2nekuzz8a,2022-09-19 15:31:45.028,5fc74b5900f0a5079e03dbae,3,67,42,37,40,52,Male,,,"<img src=""static/images/cards/stack_of_black_stars.svg"" width=""175px"" height=""250px""></img>",,,,,,,,,,,,,,,,,,,,,,,,,,,,
63,0,,html-keyboard-response,63,303936,0.0-4.8-1.8,3s2nekuzz8a,2022-09-19 15:31:45.028,5fc74b5900f0a5079e03dbae,3,67,42,37,40,52,Male,1095.7999999989,,"
  <table>
  <tr height=300>
    <td width=300 height=300><img src=""static/images/cards/back_of_black_stars.svg"" width=""175px"" height=""250px""></img></td>
    <td width=300 height=300><img src=""static/images/cards/back_of_black_stars.svg"" width=""175px"" height=""250px""></img></td>
  </tr>
  <tr height=200>
    <td width=300><img src=""static/images/keys/z.svg"" width=""35%"" height=""75%""></img></td>
    <td width=300><img src=""static/images/keys/m.svg"" width=""35%"" height=""75%""></img></td>
  </tr>
</table>
  ",77.0,,,,,,,,,,,,,,,,,,,,,,,,,1.0,,
64,0,,html-keyboard-response,64,305450,0.0-4.8-2.8,3s2nekuzz8a,2022-09-19 15:31:45.028,5fc74b5900f0a5079e03dbae,3,67,42,37,40,52,Male,,,"
  <table>
  <tr height=300>
    <td width=300 height=300><img src=""static/images/cards/back_of_black_stars.svg"" width=""175px"" height=""250px""></img></td>
    <td width=300 height=300><img src=""static/images/cards/6_of_black_stars.svg"" width=""175px"" height=""250px""></img></td>
  </tr>
  <tr height=200>
    <td width=300><img src=""static/images/keys/z.svg"" width=""35%"" height=""75%""></img></td>
    <td width=300><img src=""static/images/keys/m.svg"" width=""35%"" height=""75%""></img></td>
  </tr>
</table>
  ",,,,,,,,,,,,,,,,,,,,,,,,,,,,
65,0,,html-keyboard-response,65,306967,0.0-4.8-3.8,3s2nekuzz8a,2022-09-19 15:31:45.028,5fc74b5900f0a5079e03dbae,3,67,42,37,40,52,Male,,,"<p style=""font-size:50px"">You Lose!
No points this round.</p>",,,,,,,,,,,,,,,,,,,,,,,,,,,,
66,0,,html-keyboard-response,66,307475,0.0-4.8-4.8,3s2nekuzz8a,2022-09-19 15:31:45.028,5fc74b5900f0a5079e03dbae,3,67,42,37,40,52,Male,,,,,1.0,learning,8.0,C,,black,,stars,,,,C,black,stars,,1.0,0.0,NA,right,1095.7999999989,6.0,1.0,0.0,,,,
67,0,,html-keyboard-response,67,308982,0.0-4.9-0.9,3s2nekuzz8a,2022-09-19 15:31:45.028,5fc74b5900f0a5079e03dbae,3,67,42,37,40,52,Male,,,"<img src=""static/images/cards/stack_of_red_stars.svg"" width=""175px"" height=""250px""></img>",,,,,,,,,,,,,,,,,,,,,,,,,,,,
68,0,,html-keyboard-response,68,310708,0.0-4.9-1.9,3s2nekuzz8a,2022-09-19 15:31:45.028,5fc74b5900f0a5079e03dbae,3,67,42,37,40,52,Male,1220.9000000004,,"
  <table>
  <tr height=300>
    <td width=300 height=300><img src=""static/images/cards/back_of_red_stars.svg"" width=""175px"" height=""250px""></img></td>
    <td width=300 height=300><img src=""static/images/cards/back_of_red_stars.svg"" width=""175px"" height=""250px""></img></td>
  </tr>
  <tr height=200>
    <td width=300><img src=""static/images/keys/z.svg"" width=""35%"" height=""75%""></img></td>
    <td width=300></td>
  </tr>
</table>
  ",90.0,,,,,,,,,,,,,,,,,,,,,,,,,1.0,,
69,0,,html-keyboard-response,69,312211,0.0-4.9-2.9,3s2nekuzz8a,2022-09-19 15:31:45.028,5fc74b5900f0a5079e03dbae,3,67,42,37,40,52,Male,,,"
  <table>
  <tr height=300>
    <td width=300 height=300><img src=""static/images/cards/3_of_red_stars.svg"" width=""175px"" height=""250px""></img></td>
    <td width=300 height=300><img src=""static/images/cards/back_of_red_stars.svg"" width=""175px"" height=""250px""></img></td>
  </tr>
  <tr height=200>
    <td width=300><img src=""static/images/keys/z.svg"" width=""35%"" height=""75%""></img></td>
    <td width=300></td>
  </tr>
</table>
  ",,,,,,,,,,,,,,,,,,,,,,,,,,,,
70,0,,html-keyboard-response,70,313719,0.0-4.9-3.9,3s2nekuzz8a,2022-09-19 15:31:45.028,5fc74b5900f0a5079e03dbae,3,67,42,37,40,52,Male,,,"<p style=""font-size:50px"">You Lose!
No points this round.</p>",,,,,,,,,,,,,,,,,,,,,,,,,,,,
71,0,,html-keyboard-response,71,314227,0.0-4.9-4.9,3s2nekuzz8a,2022-09-19 15:31:45.028,5fc74b5900f0a5079e03dbae,3,67,42,37,40,52,Male,,,,,1.0,learning,9.0,D,,red,,stars,,,,D,red,stars,,0.0,0.0,1,left,1220.9000000004,3.0,0.0,0.0,,,,
72,0,,html-keyboard-response,72,315735,0.0-4.10-0.10,3s2nekuzz8a,2022-09-19 15:31:45.028,5fc74b5900f0a5079e03dbae,3,67,42,37,40,52,Male,,,"<img src=""static/images/cards/stack_of_red_bolts.svg"" width=""175px"" height=""250px""></img>",,,,,,,,,,,,,,,,,,,,,,,,,,,,
73,0,,html-keyboard-response,73,317345,0.0-4.10-1.10,3s2nekuzz8a,2022-09-19 15:31:45.028,5fc74b5900f0a5079e03dbae,3,67,42,37,40,52,Male,1103.7999999989,,"
  <table>
  <tr height=300>
    <td width=300 height=300><img src=""static/images/cards/back_of_red_bolts.svg"" width=""175px"" height=""250px""></img></td>
    <td width=300 height=300><img src=""static/images/cards/back_of_red_bolts.svg"" width=""175px"" height=""250px""></img></td>
  </tr>
  <tr height=200>
    <td width=300><img src=""static/images/keys/z.svg"" width=""35%"" height=""75%""></img></td>
    <td width=300><img src=""static/images/keys/m.svg"" width=""35%"" height=""75%""></img></td>
  </tr>
</table>
  ",77.0,,,,,,,,,,,,,,,,,,,,,,,,,1.0,,
74,0,,html-keyboard-response,74,318850,0.0-4.10-2.10,3s2nekuzz8a,2022-09-19 15:31:45.028,5fc74b5900f0a5079e03dbae,3,67,42,37,40,52,Male,,,"
  <table>
  <tr height=300>
    <td width=300 height=300><img src=""static/images/cards/back_of_red_bolts.svg"" width=""175px"" height=""250px""></img></td>
    <td width=300 height=300><img src=""static/images/cards/2_of_red_bolts.svg"" width=""175px"" height=""250px""></img></td>
  </tr>
  <tr height=200>
    <td width=300><img src=""static/images/keys/z.svg"" width=""35%"" height=""75%""></img></td>
    <td width=300><img src=""static/images/keys/m.svg"" width=""35%"" height=""75%""></img></td>
  </tr>
</table>
  ",,,,,,,,,,,,,,,,,,,,,,,,,,,,
75,0,,html-keyboard-response,75,320365,0.0-4.10-3.10,3s2nekuzz8a,2022-09-19 15:31:45.028,5fc74b5900f0a5079e03dbae,3,67,42,37,40,52,Male,,,"<p style=""font-size:50px"">You win!
+10 points this round!</p>",,,,,,,,,,,,,,,,,,,,,,,,,,,,
76,0,,html-keyboard-response,76,320875,0.0-4.10-4.10,3s2nekuzz8a,2022-09-19 15:31:45.028,5fc74b5900f0a5079e03dbae,3,67,42,37,40,52,Male,,,,,1.0,learning,10.0,Xc,,red,,bolts,,,,Xc,red,bolts,,1.0,0.0,NA,right,1103.7999999989,2.0,0.0,1.0,,,,
77,0,,html-keyboard-response,77,322383,0.0-4.11-0.11,3s2nekuzz8a,2022-09-19 15:31:45.028,5fc74b5900f0a5079e03dbae,3,67,42,37,40,52,Male,,,"<img src=""static/images/cards/stack_of_black_bolts.svg"" width=""175px"" height=""250px""></img>",,,,,,,,,,,,,,,,,,,,,,,,,,,,
78,0,,html-keyboard-response,78,323798,0.0-4.11-1.11,3s2nekuzz8a,2022-09-19 15:31:45.028,5fc74b5900f0a5079e03dbae,3,67,42,37,40,52,Male,910.2999999989,,"
  <table>
  <tr height=300>
    <td width=300 height=300><img src=""static/images/cards/back_of_black_bolts.svg"" width=""175px"" height=""250px""></img></td>
    <td width=300 height=300><img src=""static/images/cards/back_of_black_bolts.svg"" width=""175px"" height=""250px""></img></td>
  </tr>
  <tr height=200>
    <td width=300></td>
    <td width=300><img src=""static/images/keys/m.svg"" width=""35%"" height=""75%""></img></td>
  </tr>
</table>
  ",77.0,,,,,,,,,,,,,,,,,,,,,,,,,1.0,,
79,0,,html-keyboard-response,79,325309,0.0-4.11-2.11,3s2nekuzz8a,2022-09-19 15:31:45.028,5fc74b5900f0a5079e03dbae,3,67,42,37,40,52,Male,,,"
  <table>
  <tr height=300>
    <td width=300 height=300><img src=""static/images/cards/back_of_black_bolts.svg"" width=""175px"" height=""250px""></img></td>
    <td width=300 height=300><img src=""static/images/cards/2_of_black_bolts.svg"" width=""175px"" height=""250px""></img></td>
  </tr>
  <tr height=200>
    <td width=300></td>
    <td width=300><img src=""static/images/keys/m.svg"" width=""35%"" height=""75%""></img></td>
  </tr>
</table>
  ",,,,,,,,,,,,,,,,,,,,,,,,,,,,
80,0,,html-keyboard-response,80,326818,0.0-4.11-3.11,3s2nekuzz8a,2022-09-19 15:31:45.028,5fc74b5900f0a5079e03dbae,3,67,42,37,40,52,Male,,,"<p style=""font-size:50px"">You win!
+10 points this round!</p>",,,,,,,,,,,,,,,,,,,,,,,,,,,,
81,0,,html-keyboard-response,81,327327,0.0-4.11-4.11,3s2nekuzz8a,2022-09-19 15:31:45.028,5fc74b5900f0a5079e03dbae,3,67,42,37,40,52,Male,,,,,1.0,learning,11.0,Xnc,,black,,bolts,,,,Xnc,black,bolts,,0.0,0.0,0,right,910.2999999989,2.0,0.0,1.0,,,,
82,0,,html-keyboard-response,82,328836,0.0-4.12-0.12,3s2nekuzz8a,2022-09-19 15:31:45.028,5fc74b5900f0a5079e03dbae,3,67,42,37,40,52,Male,,,"<img src=""static/images/cards/stack_of_black_moons.svg"" width=""175px"" height=""250px""></img>",,,,,,,,,,,,,,,,,,,,,,,,,,,,
83,0,,html-keyboard-response,83,330780,0.0-4.12-1.12,3s2nekuzz8a,2022-09-19 15:31:45.028,5fc74b5900f0a5079e03dbae,3,67,42,37,40,52,Male,1438.0,,"
  <table>
  <tr height=300>
    <td width=300 height=300><img src=""static/images/cards/back_of_black_moons.svg"" width=""175px"" height=""250px""></img></td>
    <td width=300 height=300><img src=""static/images/cards/back_of_black_moons.svg"" width=""175px"" height=""250px""></img></td>
  </tr>
  <tr height=200>
    <td width=300><img src=""static/images/keys/z.svg"" width=""35%"" height=""75%""></img></td>
    <td width=300><img src=""static/images/keys/m.svg"" width=""35%"" height=""75%""></img></td>
  </tr>
</table>
  ",77.0,,,,,,,,,,,,,,,,,,,,,,,,,1.0,,
84,0,,html-keyboard-response,84,332295,0.0-4.12-2.12,3s2nekuzz8a,2022-09-19 15:31:45.028,5fc74b5900f0a5079e03dbae,3,67,42,37,40,52,Male,,,"
  <table>
  <tr height=300>
    <td width=300 height=300><img src=""static/images/cards/back_of_black_moons.svg"" width=""175px"" height=""250px""></img></td>
    <td width=300 height=300><img src=""static/images/cards/3_of_black_moons.svg"" width=""175px"" height=""250px""></img></td>
  </tr>
  <tr height=200>
    <td width=300><img src=""static/images/keys/z.svg"" width=""35%"" height=""75%""></img></td>
    <td width=300><img src=""static/images/keys/m.svg"" width=""35%"" height=""75%""></img></td>
  </tr>
</table>
  ",,,,,,,,,,,,,,,,,,,,,,,,,,,,
85,0,,html-keyboard-response,85,333804,0.0-4.12-3.12,3s2nekuzz8a,2022-09-19 15:31:45.028,5fc74b5900f0a5079e03dbae,3,67,42,37,40,52,Male,,,"<p style=""font-size:50px"">You Lose!
No points this round.</p>",,,,,,,,,,,,,,,,,,,,,,,,,,,,
86,0,,html-keyboard-response,86,334314,0.0-4.12-4.12,3s2nekuzz8a,2022-09-19 15:31:45.028,5fc74b5900f0a5079e03dbae,3,67,42,37,40,52,Male,,,,,1.0,learning,12.0,A,,black,,moons,,,,A,black,moons,,1.0,1.0,NA,right,1438.0,3.0,0.0,0.0,,,,
87,0,,html-keyboard-response,87,335818,0.0-4.13-0.13,3s2nekuzz8a,2022-09-19 15:31:45.028,5fc74b5900f0a5079e03dbae,3,67,42,37,40,52,Male,,,"<img src=""static/images/cards/stack_of_red_moons.svg"" width=""175px"" height=""250px""></img>",,,,,,,,,,,,,,,,,,,,,,,,,,,,
88,0,,html-keyboard-response,88,337365,0.0-4.13-1.13,3s2nekuzz8a,2022-09-19 15:31:45.028,5fc74b5900f0a5079e03dbae,3,67,42,37,40,52,Male,1043.0,,"
  <table>
  <tr height=300>
    <td width=300 height=300><img src=""static/images/cards/back_of_red_moons.svg"" width=""175px"" height=""250px""></img></td>
    <td width=300 height=300><img src=""static/images/cards/back_of_red_moons.svg"" width=""175px"" height=""250px""></img></td>
  </tr>
  <tr height=200>
    <td width=300></td>
    <td width=300><img src=""static/images/keys/m.svg"" width=""35%"" height=""75%""></img></td>
  </tr>
</table>
  ",77.0,,,,,,,,,,,,,,,,,,,,,,,,,1.0,,
89,0,,html-keyboard-response,89,338871,0.0-4.13-2.13,3s2nekuzz8a,2022-09-19 15:31:45.028,5fc74b5900f0a5079e03dbae,3,67,42,37,40,52,Male,,,"
  <table>
  <tr height=300>
    <td width=300 height=300><img src=""static/images/cards/back_of_red_moons.svg"" width=""175px"" height=""250px""></img></td>
    <td width=300 height=300><img src=""static/images/cards/6_of_red_moons.svg"" width=""175px"" height=""250px""></img></td>
  </tr>
  <tr height=200>
    <td width=300></td>
    <td width=300><img src=""static/images/keys/m.svg"" width=""35%"" height=""75%""></img></td>
  </tr>
</table>
  ",,,,,,,,,,,,,,,,,,,,,,,,,,,,
90,0,,html-keyboard-response,90,340382,0.0-4.13-3.13,3s2nekuzz8a,2022-09-19 15:31:45.028,5fc74b5900f0a5079e03dbae,3,67,42,37,40,52,Male,,,"<p style=""font-size:50px"">You win!
+10 points this round!</p>",,,,,,,,,,,,,,,,,,,,,,,,,,,,
91,0,,html-keyboard-response,91,340891,0.0-4.13-4.13,3s2nekuzz8a,2022-09-19 15:31:45.028,5fc74b5900f0a5079e03dbae,3,67,42,37,40,52,Male,,,,,1.0,learning,13.0,B,,red,,moons,,,,B,red,moons,,0.0,1.0,0,right,1043.0,6.0,1.0,1.0,,,,
92,0,,html-keyboard-response,92,342398,0.0-4.14-0.14,3s2nekuzz8a,2022-09-19 15:31:45.028,5fc74b5900f0a5079e03dbae,3,67,42,37,40,52,Male,,,"<img src=""static/images/cards/stack_of_black_stars.svg"" width=""175px"" height=""250px""></img>",,,,,,,,,,,,,,,,,,,,,,,,,,,,
93,0,,html-keyboard-response,93,343648,0.0-4.14-1.14,3s2nekuzz8a,2022-09-19 15:31:45.028,5fc74b5900f0a5079e03dbae,3,67,42,37,40,52,Male,746.8000000007,,"
  <table>
  <tr height=300>
    <td width=300 height=300><img src=""static/images/cards/back_of_black_stars.svg"" width=""175px"" height=""250px""></img></td>
    <td width=300 height=300><img src=""static/images/cards/back_of_black_stars.svg"" width=""175px"" height=""250px""></img></td>
  </tr>
  <tr height=200>
    <td width=300><img src=""static/images/keys/z.svg"" width=""35%"" height=""75%""></img></td>
    <td width=300><img src=""static/images/keys/m.svg"" width=""35%"" height=""75%""></img></td>
  </tr>
</table>
  ",90.0,,,,,,,,,,,,,,,,,,,,,,,,,1.0,,
94,0,,html-keyboard-response,94,345164,0.0-4.14-2.14,3s2nekuzz8a,2022-09-19 15:31:45.028,5fc74b5900f0a5079e03dbae,3,67,42,37,40,52,Male,,,"
  <table>
  <tr height=300>
    <td width=300 height=300><img src=""static/images/cards/3_of_black_stars.svg"" width=""175px"" height=""250px""></img></td>
    <td width=300 height=300><img src=""static/images/cards/back_of_black_stars.svg"" width=""175px"" height=""250px""></img></td>
  </tr>
  <tr height=200>
    <td width=300><img src=""static/images/keys/z.svg"" width=""35%"" height=""75%""></img></td>
    <td width=300><img src=""static/images/keys/m.svg"" width=""35%"" height=""75%""></img></td>
  </tr>
</table>
  ",,,,,,,,,,,,,,,,,,,,,,,,,,,,
95,0,,html-keyboard-response,95,346674,0.0-4.14-3.14,3s2nekuzz8a,2022-09-19 15:31:45.028,5fc74b5900f0a5079e03dbae,3,67,42,37,40,52,Male,,,"<p style=""font-size:50px"">You win!
+10 points this round!</p>",,,,,,,,,,,,,,,,,,,,,,,,,,,,
96,0,,html-keyboard-response,96,347180,0.0-4.14-4.14,3s2nekuzz8a,2022-09-19 15:31:45.028,5fc74b5900f0a5079e03dbae,3,67,42,37,40,52,Male,,,,,1.0,learning,14.0,C,,black,,stars,,,,C,black,stars,,1.0,0.0,NA,left,746.8000000007,3.0,0.0,1.0,,,,
97,0,,html-keyboard-response,97,348686,0.0-4.15-0.15,3s2nekuzz8a,2022-09-19 15:31:45.028,5fc74b5900f0a5079e03dbae,3,67,42,37,40,52,Male,,,"<img src=""static/images/cards/stack_of_red_stars.svg"" width=""175px"" height=""250px""></img>",,,,,,,,,,,,,,,,,,,,,,,,,,,,
98,0,,html-keyboard-response,98,349892,0.0-4.15-1.15,3s2nekuzz8a,2022-09-19 15:31:45.028,5fc74b5900f0a5079e03dbae,3,67,42,37,40,52,Male,703.3000000007,,"
  <table>
  <tr height=300>
    <td width=300 height=300><img src=""static/images/cards/back_of_red_stars.svg"" width=""175px"" height=""250px""></img></td>
    <td width=300 height=300><img src=""static/images/cards/back_of_red_stars.svg"" width=""175px"" height=""250px""></img></td>
  </tr>
  <tr height=200>
    <td width=300><img src=""static/images/keys/z.svg"" width=""35%"" height=""75%""></img></td>
    <td width=300></td>
  </tr>
</table>
  ",90.0,,,,,,,,,,,,,,,,,,,,,,,,,1.0,,
99,0,,html-keyboard-response,99,351404,0.0-4.15-2.15,3s2nekuzz8a,2022-09-19 15:31:45.028,5fc74b5900f0a5079e03dbae,3,67,42,37,40,52,Male,,,"
  <table>
  <tr height=300>
    <td width=300 height=300><img src=""static/images/cards/8_of_red_stars.svg"" width=""175px"" height=""250px""></img></td>
    <td width=300 height=300><img src=""static/images/cards/back_of_red_stars.svg"" width=""175px"" height=""250px""></img></td>
  </tr>
  <tr height=200>
    <td width=300><img src=""static/images/keys/z.svg"" width=""35%"" height=""75%""></img></td>
    <td width=300></td>
  </tr>
</table>
  ",,,,,,,,,,,,,,,,,,,,,,,,,,,,
100,0,,html-keyboard-response,100,352915,0.0-4.15-3.15,3s2nekuzz8a,2022-09-19 15:31:45.028,5fc74b5900f0a5079e03dbae,3,67,42,37,40,52,Male,,,"<p style=""font-size:50px"">You Lose!
No points this round.</p>",,,,,,,,,,,,,,,,,,,,,,,,,,,,
101,0,,html-keyboard-response,101,353423,0.0-4.15-4.15,3s2nekuzz8a,2022-09-19 15:31:45.028,5fc74b5900f0a5079e03dbae,3,67,42,37,40,52,Male,,,,,1.0,learning,15.0,D,,red,,stars,,,,D,red,stars,,0.0,0.0,1,left,703.3000000007,8.0,1.0,0.0,,,,
102,0,,html-keyboard-response,102,354929,0.0-4.16-0.16,3s2nekuzz8a,2022-09-19 15:31:45.028,5fc74b5900f0a5079e03dbae,3,67,42,37,40,52,Male,,,"<img src=""static/images/cards/stack_of_red_bolts.svg"" width=""175px"" height=""250px""></img>",,,,,,,,,,,,,,,,,,,,,,,,,,,,
103,0,,html-keyboard-response,103,357467,0.0-4.16-1.16,3s2nekuzz8a,2022-09-19 15:31:45.028,5fc74b5900f0a5079e03dbae,3,67,42,37,40,52,Male,2032.4000000004,,"
  <table>
  <tr height=300>
    <td width=300 height=300><img src=""static/images/cards/back_of_red_bolts.svg"" width=""175px"" height=""250px""></img></td>
    <td width=300 height=300><img src=""static/images/cards/back_of_red_bolts.svg"" width=""175px"" height=""250px""></img></td>
  </tr>
  <tr height=200>
    <td width=300><img src=""static/images/keys/z.svg"" width=""35%"" height=""75%""></img></td>
    <td width=300><img src=""static/images/keys/m.svg"" width=""35%"" height=""75%""></img></td>
  </tr>
</table>
  ",90.0,,,,,,,,,,,,,,,,,,,,,,,,,1.0,,
104,0,,html-keyboard-response,104,358971,0.0-4.16-2.16,3s2nekuzz8a,2022-09-19 15:31:45.028,5fc74b5900f0a5079e03dbae,3,67,42,37,40,52,Male,,,"
  <table>
  <tr height=300>
    <td width=300 height=300><img src=""static/images/cards/7_of_red_bolts.svg"" width=""175px"" height=""250px""></img></td>
    <td width=300 height=300><img src=""static/images/cards/back_of_red_bolts.svg"" width=""175px"" height=""250px""></img></td>
  </tr>
  <tr height=200>
    <td width=300><img src=""static/images/keys/z.svg"" width=""35%"" height=""75%""></img></td>
    <td width=300><img src=""static/images/keys/m.svg"" width=""35%"" height=""75%""></img></td>
  </tr>
</table>
  ",,,,,,,,,,,,,,,,,,,,,,,,,,,,
105,0,,html-keyboard-response,105,360482,0.0-4.16-3.16,3s2nekuzz8a,2022-09-19 15:31:45.028,5fc74b5900f0a5079e03dbae,3,67,42,37,40,52,Male,,,"<p style=""font-size:50px"">You win!
+10 points this round!</p>",,,,,,,,,,,,,,,,,,,,,,,,,,,,
106,0,,html-keyboard-response,106,360992,0.0-4.16-4.16,3s2nekuzz8a,2022-09-19 15:31:45.028,5fc74b5900f0a5079e03dbae,3,67,42,37,40,52,Male,,,,,1.0,learning,16.0,Xc,,red,,bolts,,,,Xc,red,bolts,,1.0,0.0,NA,left,2032.4000000004,7.0,1.0,1.0,,,,
107,0,,html-keyboard-response,107,362506,0.0-4.17-0.17,3s2nekuzz8a,2022-09-19 15:31:45.028,5fc74b5900f0a5079e03dbae,3,67,42,37,40,52,Male,,,"<img src=""static/images/cards/stack_of_black_bolts.svg"" width=""175px"" height=""250px""></img>",,,,,,,,,,,,,,,,,,,,,,,,,,,,
108,0,,html-keyboard-response,108,363835,0.0-4.17-1.17,3s2nekuzz8a,2022-09-19 15:31:45.028,5fc74b5900f0a5079e03dbae,3,67,42,37,40,52,Male,822.3000000007,,"
  <table>
  <tr height=300>
    <td width=300 height=300><img src=""static/images/cards/back_of_black_bolts.svg"" width=""175px"" height=""250px""></img></td>
    <td width=300 height=300><img src=""static/images/cards/back_of_black_bolts.svg"" width=""175px"" height=""250px""></img></td>
  </tr>
  <tr height=200>
    <td width=300></td>
    <td width=300><img src=""static/images/keys/m.svg"" width=""35%"" height=""75%""></img></td>
  </tr>
</table>
  ",77.0,,,,,,,,,,,,,,,,,,,,,,,,,1.0,,
109,0,,html-keyboard-response,109,365340,0.0-4.17-2.17,3s2nekuzz8a,2022-09-19 15:31:45.028,5fc74b5900f0a5079e03dbae,3,67,42,37,40,52,Male,,,"
  <table>
  <tr height=300>
    <td width=300 height=300><img src=""static/images/cards/back_of_black_bolts.svg"" width=""175px"" height=""250px""></img></td>
    <td width=300 height=300><img src=""static/images/cards/3_of_black_bolts.svg"" width=""175px"" height=""250px""></img></td>
  </tr>
  <tr height=200>
    <td width=300></td>
    <td width=300><img src=""static/images/keys/m.svg"" width=""35%"" height=""75%""></img></td>
  </tr>
</table>
  ",,,,,,,,,,,,,,,,,,,,,,,,,,,,
110,0,,html-keyboard-response,110,366848,0.0-4.17-3.17,3s2nekuzz8a,2022-09-19 15:31:45.028,5fc74b5900f0a5079e03dbae,3,67,42,37,40,52,Male,,,"<p style=""font-size:50px"">You win!
+10 points this round!</p>",,,,,,,,,,,,,,,,,,,,,,,,,,,,
111,0,,html-keyboard-response,111,367358,0.0-4.17-4.17,3s2nekuzz8a,2022-09-19 15:31:45.028,5fc74b5900f0a5079e03dbae,3,67,42,37,40,52,Male,,,,,1.0,learning,17.0,Xnc,,black,,bolts,,,,Xnc,black,bolts,,0.0,0.0,0,right,822.3000000007,3.0,0.0,1.0,,,,
112,0,,html-keyboard-response,112,368864,0.0-4.18-0.18,3s2nekuzz8a,2022-09-19 15:31:45.028,5fc74b5900f0a5079e03dbae,3,67,42,37,40,52,Male,,,"<img src=""static/images/cards/stack_of_black_moons.svg"" width=""175px"" height=""250px""></img>",,,,,,,,,,,,,,,,,,,,,,,,,,,,
113,0,,html-keyboard-response,113,370477,0.0-4.18-1.18,3s2nekuzz8a,2022-09-19 15:31:45.028,5fc74b5900f0a5079e03dbae,3,67,42,37,40,52,Male,1106.0,,"
  <table>
  <tr height=300>
    <td width=300 height=300><img src=""static/images/cards/back_of_black_moons.svg"" width=""175px"" height=""250px""></img></td>
    <td width=300 height=300><img src=""static/images/cards/back_of_black_moons.svg"" width=""175px"" height=""250px""></img></td>
  </tr>
  <tr height=200>
    <td width=300><img src=""static/images/keys/z.svg"" width=""35%"" height=""75%""></img></td>
    <td width=300><img src=""static/images/keys/m.svg"" width=""35%"" height=""75%""></img></td>
  </tr>
</table>
  ",90.0,,,,,,,,,,,,,,,,,,,,,,,,,1.0,,
114,0,,html-keyboard-response,114,371987,0.0-4.18-2.18,3s2nekuzz8a,2022-09-19 15:31:45.028,5fc74b5900f0a5079e03dbae,3,67,42,37,40,52,Male,,,"
  <table>
  <tr height=300>
    <td width=300 height=300><img src=""static/images/cards/8_of_black_moons.svg"" width=""175px"" height=""250px""></img></td>
    <td width=300 height=300><img src=""static/images/cards/back_of_black_moons.svg"" width=""175px"" height=""250px""></img></td>
  </tr>
  <tr height=200>
    <td width=300><img src=""static/images/keys/z.svg"" width=""35%"" height=""75%""></img></td>
    <td width=300><img src=""static/images/keys/m.svg"" width=""35%"" height=""75%""></img></td>
  </tr>
</table>
  ",,,,,,,,,,,,,,,,,,,,,,,,,,,,
115,0,,html-keyboard-response,115,373493,0.0-4.18-3.18,3s2nekuzz8a,2022-09-19 15:31:45.028,5fc74b5900f0a5079e03dbae,3,67,42,37,40,52,Male,,,"<p style=""font-size:50px"">You win!
+10 points this round!</p>",,,,,,,,,,,,,,,,,,,,,,,,,,,,
116,0,,html-keyboard-response,116,374000,0.0-4.18-4.18,3s2nekuzz8a,2022-09-19 15:31:45.028,5fc74b5900f0a5079e03dbae,3,67,42,37,40,52,Male,,,,,1.0,learning,18.0,A,,black,,moons,,,,A,black,moons,,1.0,1.0,NA,left,1106.0,8.0,1.0,1.0,,,,
117,0,,html-keyboard-response,117,375506,0.0-4.19-0.19,3s2nekuzz8a,2022-09-19 15:31:45.028,5fc74b5900f0a5079e03dbae,3,67,42,37,40,52,Male,,,"<img src=""static/images/cards/stack_of_red_moons.svg"" width=""175px"" height=""250px""></img>",,,,,,,,,,,,,,,,,,,,,,,,,,,,
118,0,,html-keyboard-response,118,376880,0.0-4.19-1.19,3s2nekuzz8a,2022-09-19 15:31:45.028,5fc74b5900f0a5079e03dbae,3,67,42,37,40,52,Male,869.7999999989,,"
  <table>
  <tr height=300>
    <td width=300 height=300><img src=""static/images/cards/back_of_red_moons.svg"" width=""175px"" height=""250px""></img></td>
    <td width=300 height=300><img src=""static/images/cards/back_of_red_moons.svg"" width=""175px"" height=""250px""></img></td>
  </tr>
  <tr height=200>
    <td width=300></td>
    <td width=300><img src=""static/images/keys/m.svg"" width=""35%"" height=""75%""></img></td>
  </tr>
</table>
  ",77.0,,,,,,,,,,,,,,,,,,,,,,,,,1.0,,
119,0,,html-keyboard-response,119,378386,0.0-4.19-2.19,3s2nekuzz8a,2022-09-19 15:31:45.028,5fc74b5900f0a5079e03dbae,3,67,42,37,40,52,Male,,,"
  <table>
  <tr height=300>
    <td width=300 height=300><img src=""static/images/cards/back_of_red_moons.svg"" width=""175px"" height=""250px""></img></td>
    <td width=300 height=300><img src=""static/images/cards/7_of_red_moons.svg"" width=""175px"" height=""250px""></img></td>
  </tr>
  <tr height=200>
    <td width=300></td>
    <td width=300><img src=""static/images/keys/m.svg"" width=""35%"" height=""75%""></img></td>
  </tr>
</table>
  ",,,,,,,,,,,,,,,,,,,,,,,,,,,,
120,0,,html-keyboard-response,120,379894,0.0-4.19-3.19,3s2nekuzz8a,2022-09-19 15:31:45.028,5fc74b5900f0a5079e03dbae,3,67,42,37,40,52,Male,,,"<p style=""font-size:50px"">You win!
+10 points this round!</p>",,,,,,,,,,,,,,,,,,,,,,,,,,,,
121,0,,html-keyboard-response,121,380402,0.0-4.19-4.19,3s2nekuzz8a,2022-09-19 15:31:45.028,5fc74b5900f0a5079e03dbae,3,67,42,37,40,52,Male,,,,,1.0,learning,19.0,B,,red,,moons,,,,B,red,moons,,0.0,1.0,0,right,869.7999999989,7.0,1.0,1.0,,,,
122,0,,html-keyboard-response,122,381904,0.0-4.20-0.20,3s2nekuzz8a,2022-09-19 15:31:45.028,5fc74b5900f0a5079e03dbae,3,67,42,37,40,52,Male,,,"<img src=""static/images/cards/stack_of_black_stars.svg"" width=""175px"" height=""250px""></img>",,,,,,,,,,,,,,,,,,,,,,,,,,,,
123,0,,html-keyboard-response,123,383637,0.0-4.20-1.20,3s2nekuzz8a,2022-09-19 15:31:45.028,5fc74b5900f0a5079e03dbae,3,67,42,37,40,52,Male,1226.9000000004,,"
  <table>
  <tr height=300>
    <td width=300 height=300><img src=""static/images/cards/back_of_black_stars.svg"" width=""175px"" height=""250px""></img></td>
    <td width=300 height=300><img src=""static/images/cards/back_of_black_stars.svg"" width=""175px"" height=""250px""></img></td>
  </tr>
  <tr height=200>
    <td width=300><img src=""static/images/keys/z.svg"" width=""35%"" height=""75%""></img></td>
    <td width=300><img src=""static/images/keys/m.svg"" width=""35%"" height=""75%""></img></td>
  </tr>
</table>
  ",90.0,,,,,,,,,,,,,,,,,,,,,,,,,1.0,,
124,0,,html-keyboard-response,124,385148,0.0-4.20-2.20,3s2nekuzz8a,2022-09-19 15:31:45.028,5fc74b5900f0a5079e03dbae,3,67,42,37,40,52,Male,,,"
  <table>
  <tr height=300>
    <td width=300 height=300><img src=""static/images/cards/8_of_black_stars.svg"" width=""175px"" height=""250px""></img></td>
    <td width=300 height=300><img src=""static/images/cards/back_of_black_stars.svg"" width=""175px"" height=""250px""></img></td>
  </tr>
  <tr height=200>
    <td width=300><img src=""static/images/keys/z.svg"" width=""35%"" height=""75%""></img></td>
    <td width=300><img src=""static/images/keys/m.svg"" width=""35%"" height=""75%""></img></td>
  </tr>
</table>
  ",,,,,,,,,,,,,,,,,,,,,,,,,,,,
125,0,,html-keyboard-response,125,386656,0.0-4.20-3.20,3s2nekuzz8a,2022-09-19 15:31:45.028,5fc74b5900f0a5079e03dbae,3,67,42,37,40,52,Male,,,"<p style=""font-size:50px"">You win!
+10 points this round!</p>",,,,,,,,,,,,,,,,,,,,,,,,,,,,
126,0,,html-keyboard-response,126,387165,0.0-4.20-4.20,3s2nekuzz8a,2022-09-19 15:31:45.028,5fc74b5900f0a5079e03dbae,3,67,42,37,40,52,Male,,,,,1.0,learning,20.0,C,,black,,stars,,,,C,black,stars,,1.0,0.0,NA,left,1226.9000000004,8.0,1.0,1.0,,,,
127,0,,html-keyboard-response,127,388670,0.0-4.21-0.21,3s2nekuzz8a,2022-09-19 15:31:45.028,5fc74b5900f0a5079e03dbae,3,67,42,37,40,52,Male,,,"<img src=""static/images/cards/stack_of_red_stars.svg"" width=""175px"" height=""250px""></img>",,,,,,,,,,,,,,,,,,,,,,,,,,,,
128,0,,html-keyboard-response,128,389693,0.0-4.21-1.21,3s2nekuzz8a,2022-09-19 15:31:45.028,5fc74b5900f0a5079e03dbae,3,67,42,37,40,52,Male,517.0,,"
  <table>
  <tr height=300>
    <td width=300 height=300><img src=""static/images/cards/back_of_red_stars.svg"" width=""175px"" height=""250px""></img></td>
    <td width=300 height=300><img src=""static/images/cards/back_of_red_stars.svg"" width=""175px"" height=""250px""></img></td>
  </tr>
  <tr height=200>
    <td width=300></td>
    <td width=300><img src=""static/images/keys/m.svg"" width=""35%"" height=""75%""></img></td>
  </tr>
</table>
  ",77.0,,,,,,,,,,,,,,,,,,,,,,,,,1.0,,
129,0,,html-keyboard-response,129,391209,0.0-4.21-2.21,3s2nekuzz8a,2022-09-19 15:31:45.028,5fc74b5900f0a5079e03dbae,3,67,42,37,40,52,Male,,,"
  <table>
  <tr height=300>
    <td width=300 height=300><img src=""static/images/cards/back_of_red_stars.svg"" width=""175px"" height=""250px""></img></td>
    <td width=300 height=300><img src=""static/images/cards/10_of_red_stars.svg"" width=""175px"" height=""250px""></img></td>
  </tr>
  <tr height=200>
    <td width=300></td>
    <td width=300><img src=""static/images/keys/m.svg"" width=""35%"" height=""75%""></img></td>
  </tr>
</table>
  ",,,,,,,,,,,,,,,,,,,,,,,,,,,,
130,0,,html-keyboard-response,130,392719,0.0-4.21-3.21,3s2nekuzz8a,2022-09-19 15:31:45.028,5fc74b5900f0a5079e03dbae,3,67,42,37,40,52,Male,,,"<p style=""font-size:50px"">You win!
+10 points this round!</p>",,,,,,,,,,,,,,,,,,,,,,,,,,,,
131,0,,html-keyboard-response,131,393225,0.0-4.21-4.21,3s2nekuzz8a,2022-09-19 15:31:45.028,5fc74b5900f0a5079e03dbae,3,67,42,37,40,52,Male,,,,,1.0,learning,21.0,D,,red,,stars,,,,D,red,stars,,0.0,0.0,0,right,517.0,10.0,1.0,1.0,,,,
132,0,,html-keyboard-response,132,394730,0.0-4.22-0.22,3s2nekuzz8a,2022-09-19 15:31:45.028,5fc74b5900f0a5079e03dbae,3,67,42,37,40,52,Male,,,"<img src=""static/images/cards/stack_of_red_bolts.svg"" width=""175px"" height=""250px""></img>",,,,,,,,,,,,,,,,,,,,,,,,,,,,
133,0,,html-keyboard-response,133,395869,0.0-4.22-1.22,3s2nekuzz8a,2022-09-19 15:31:45.028,5fc74b5900f0a5079e03dbae,3,67,42,37,40,52,Male,636.7000000011,,"
  <table>
  <tr height=300>
    <td width=300 height=300><img src=""static/images/cards/back_of_red_bolts.svg"" width=""175px"" height=""250px""></img></td>
    <td width=300 height=300><img src=""static/images/cards/back_of_red_bolts.svg"" width=""175px"" height=""250px""></img></td>
  </tr>
  <tr height=200>
    <td width=300><img src=""static/images/keys/z.svg"" width=""35%"" height=""75%""></img></td>
    <td width=300><img src=""static/images/keys/m.svg"" width=""35%"" height=""75%""></img></td>
  </tr>
</table>
  ",90.0,,,,,,,,,,,,,,,,,,,,,,,,,1.0,,
134,0,,html-keyboard-response,134,397371,0.0-4.22-2.22,3s2nekuzz8a,2022-09-19 15:31:45.028,5fc74b5900f0a5079e03dbae,3,67,42,37,40,52,Male,,,"
  <table>
  <tr height=300>
    <td width=300 height=300><img src=""static/images/cards/7_of_red_bolts.svg"" width=""175px"" height=""250px""></img></td>
    <td width=300 height=300><img src=""static/images/cards/back_of_red_bolts.svg"" width=""175px"" height=""250px""></img></td>
  </tr>
  <tr height=200>
    <td width=300><img src=""static/images/keys/z.svg"" width=""35%"" height=""75%""></img></td>
    <td width=300><img src=""static/images/keys/m.svg"" width=""35%"" height=""75%""></img></td>
  </tr>
</table>
  ",,,,,,,,,,,,,,,,,,,,,,,,,,,,
135,0,,html-keyboard-response,135,398879,0.0-4.22-3.22,3s2nekuzz8a,2022-09-19 15:31:45.028,5fc74b5900f0a5079e03dbae,3,67,42,37,40,52,Male,,,"<p style=""font-size:50px"">You win!
+10 points this round!</p>",,,,,,,,,,,,,,,,,,,,,,,,,,,,
136,0,,html-keyboard-response,136,399386,0.0-4.22-4.22,3s2nekuzz8a,2022-09-19 15:31:45.028,5fc74b5900f0a5079e03dbae,3,67,42,37,40,52,Male,,,,,1.0,learning,22.0,Xc,,red,,bolts,,,,Xc,red,bolts,,1.0,0.0,NA,left,636.7000000011,7.0,1.0,1.0,,,,
137,0,,html-keyboard-response,137,400889,0.0-4.23-0.23,3s2nekuzz8a,2022-09-19 15:31:45.028,5fc74b5900f0a5079e03dbae,3,67,42,37,40,52,Male,,,"<img src=""static/images/cards/stack_of_black_bolts.svg"" width=""175px"" height=""250px""></img>",,,,,,,,,,,,,,,,,,,,,,,,,,,,
138,0,,html-keyboard-response,138,401876,0.0-4.23-1.23,3s2nekuzz8a,2022-09-19 15:31:45.028,5fc74b5900f0a5079e03dbae,3,67,42,37,40,52,Male,483.7999999989,,"
  <table>
  <tr height=300>
    <td width=300 height=300><img src=""static/images/cards/back_of_black_bolts.svg"" width=""175px"" height=""250px""></img></td>
    <td width=300 height=300><img src=""static/images/cards/back_of_black_bolts.svg"" width=""175px"" height=""250px""></img></td>
  </tr>
  <tr height=200>
    <td width=300></td>
    <td width=300><img src=""static/images/keys/m.svg"" width=""35%"" height=""75%""></img></td>
  </tr>
</table>
  ",77.0,,,,,,,,,,,,,,,,,,,,,,,,,1.0,,
139,0,,html-keyboard-response,139,403385,0.0-4.23-2.23,3s2nekuzz8a,2022-09-19 15:31:45.028,5fc74b5900f0a5079e03dbae,3,67,42,37,40,52,Male,,,"
  <table>
  <tr height=300>
    <td width=300 height=300><img src=""static/images/cards/back_of_black_bolts.svg"" width=""175px"" height=""250px""></img></td>
    <td width=300 height=300><img src=""static/images/cards/7_of_black_bolts.svg"" width=""175px"" height=""250px""></img></td>
  </tr>
  <tr height=200>
    <td width=300></td>
    <td width=300><img src=""static/images/keys/m.svg"" width=""35%"" height=""75%""></img></td>
  </tr>
</table>
  ",,,,,,,,,,,,,,,,,,,,,,,,,,,,
140,0,,html-keyboard-response,140,404900,0.0-4.23-3.23,3s2nekuzz8a,2022-09-19 15:31:45.028,5fc74b5900f0a5079e03dbae,3,67,42,37,40,52,Male,,,"<p style=""font-size:50px"">You win!
+10 points this round!</p>",,,,,,,,,,,,,,,,,,,,,,,,,,,,
141,0,,html-keyboard-response,141,405408,0.0-4.23-4.23,3s2nekuzz8a,2022-09-19 15:31:45.028,5fc74b5900f0a5079e03dbae,3,67,42,37,40,52,Male,,,,,1.0,learning,23.0,Xnc,,black,,bolts,,,,Xnc,black,bolts,,0.0,0.0,0,right,483.7999999989,7.0,1.0,1.0,,,,
142,0,,call-function,142,405413,0.0-5.0,3s2nekuzz8a,2022-09-19 15:31:45.028,5fc74b5900f0a5079e03dbae,3,67,42,37,40,52,Male,,,,,,,,,,,,,,,,,,,,,,,,,,,,,,,
143,0,,image-keyboard-response,143,410758,0.0-6.0-0.0,3s2nekuzz8a,2022-09-19 15:31:45.028,5fc74b5900f0a5079e03dbae,3,67,42,37,40,52,Male,5344.8000000007,,static/images/instructions_CB_3/Slide20.png,39.0,,,,,,,,,,,,,,,,,,,,,,,,,,,
144,0,,image-keyboard-response,144,422333,0.0-6.1-0.1,3s2nekuzz8a,2022-09-19 15:31:45.028,5fc74b5900f0a5079e03dbae,3,67,42,37,40,52,Male,11574.0999999996,,static/images/instructions_CB_3/Slide21.png,39.0,,,,,,,,,,,,,,,,,,,,,,,,,,,
145,0,,image-keyboard-response,145,433893,0.0-6.2-0.2,3s2nekuzz8a,2022-09-19 15:31:45.028,5fc74b5900f0a5079e03dbae,3,67,42,37,40,52,Male,11559.1999999993,,static/images/instructions_CB_3/Slide22.png,39.0,,,,,,,,,,,,,,,,,,,,,,,,,,,
146,0,,image-keyboard-response,146,438930,0.0-6.3-0.3,3s2nekuzz8a,2022-09-19 15:31:45.028,5fc74b5900f0a5079e03dbae,3,67,42,37,40,52,Male,5036.8000000007,,static/images/instructions_CB_3/Slide23.png,39.0,,,,,,,,,,,,,,,,,,,,,,,,,,,
147,0,,image-keyboard-response,147,443011,0.0-6.4-0.4,3s2nekuzz8a,2022-09-19 15:31:45.028,5fc74b5900f0a5079e03dbae,3,67,42,37,40,52,Male,4079.5999999996,,static/images/instructions_CB_3/Slide24.png,39.0,,,,,,,,,,,,,,,,,,,,,,,,,,,
148,0,,html-keyboard-response,148,446326,0.0-7.0-0.0,3s2nekuzz8a,2022-09-19 15:31:45.028,5fc74b5900f0a5079e03dbae,3,67,42,37,40,52,Male,3314.0999999996,,"
  <table>
  <tr height=300>
    <td width=300 height=300><img src=""static/images/cards/stack_of_red_moons.svg"" width=""175px"" height=""250px""></img></td>
    <td width=300 height=300><img src=""static/images/cards/stack_of_red_stars.svg"" width=""175px"" height=""250px""></img></td>
  </tr>
  <tr height=200>
    <td width=300><img src=""static/images/keys/w.svg"" width=""35%"" height=""75%""></img></td>
    <td width=300><img src=""static/images/keys/o.svg"" width=""35%"" height=""75%""></img></td>
  </tr>
</table>
  ",87.0,,,,,,,,,,,,,,,,,,,,,,,,,1.0,,
149,0,,html-keyboard-response,149,448240,0.0-7.0-1.0,3s2nekuzz8a,2022-09-19 15:31:45.028,5fc74b5900f0a5079e03dbae,3,67,42,37,40,52,Male,1410.8000000007,,"
  <table>
  <tr height=300>
    <td width=300 height=300><img src=""static/images/cards/back_of_red_moons.svg"" width=""175px"" height=""250px""></img></td>
    <td width=300 height=300><img src=""static/images/cards/back_of_red_moons.svg"" width=""175px"" height=""250px""></img></td>
  </tr>
  <tr height=200>
    <td width=300><img src=""static/images/keys/z.svg"" width=""35%"" height=""75%""></img></td>
    <td width=300></td>
  </tr>
</table>
  ",90.0,,,,,,,,,,,,,,,,,,,,,,,,,1.0,,
150,0,,html-keyboard-response,150,449754,0.0-7.0-2.0,3s2nekuzz8a,2022-09-19 15:31:45.028,5fc74b5900f0a5079e03dbae,3,67,42,37,40,52,Male,,,"
  <table>
  <tr height=300>
    <td width=300 height=300><img src=""static/images/cards/3_of_red_moons.svg"" width=""175px"" height=""250px""></img></td>
    <td width=300 height=300><img src=""static/images/cards/back_of_red_moons.svg"" width=""175px"" height=""250px""></img></td>
  </tr>
  <tr height=200>
    <td width=300><img src=""static/images/keys/z.svg"" width=""35%"" height=""75%""></img></td>
    <td width=300></td>
  </tr>
</table>
  ",,,,,,,,,,,,,,,,,,,,,,,,,,,,
151,0,,html-keyboard-response,151,451260,0.0-7.0-3.0,3s2nekuzz8a,2022-09-19 15:31:45.028,5fc74b5900f0a5079e03dbae,3,67,42,37,40,52,Male,,,"<p style=""font-size:50px"">You Lose!
No points this round.</p>",,,,,,,,,,,,,,,,,,,,,,,,,,,,
152,0,,html-keyboard-response,152,451766,0.0-7.0-4.0,3s2nekuzz8a,2022-09-19 15:31:45.028,5fc74b5900f0a5079e03dbae,3,67,42,37,40,52,Male,,,,,1.0,choice,0.0,B,D,red,red,moons,stars,B,D,B,red,moons,3314.0999999996,0.0,1.0,1,left,1410.8000000007,3.0,0.0,0.0,,,,
153,0,,html-keyboard-response,153,454264,0.0-7.1-0.1,3s2nekuzz8a,2022-09-19 15:31:45.028,5fc74b5900f0a5079e03dbae,3,67,42,37,40,52,Male,2496.8000000007,,"
  <table>
  <tr height=300>
    <td width=300 height=300><img src=""static/images/cards/stack_of_red_moons.svg"" width=""175px"" height=""250px""></img></td>
    <td width=300 height=300><img src=""static/images/cards/stack_of_red_stars.svg"" width=""175px"" height=""250px""></img></td>
  </tr>
  <tr height=200>
    <td width=300><img src=""static/images/keys/w.svg"" width=""35%"" height=""75%""></img></td>
    <td width=300><img src=""static/images/keys/o.svg"" width=""35%"" height=""75%""></img></td>
  </tr>
</table>
  ",87.0,,,,,,,,,,,,,,,,,,,,,,,,,1.0,,
154,0,,html-keyboard-response,154,456400,0.0-7.1-1.1,3s2nekuzz8a,2022-09-19 15:31:45.028,5fc74b5900f0a5079e03dbae,3,67,42,37,40,52,Male,1634.7000000011,,"
  <table>
  <tr height=300>
    <td width=300 height=300><img src=""static/images/cards/back_of_red_moons.svg"" width=""175px"" height=""250px""></img></td>
    <td width=300 height=300><img src=""static/images/cards/back_of_red_moons.svg"" width=""175px"" height=""250px""></img></td>
  </tr>
  <tr height=200>
    <td width=300></td>
    <td width=300><img src=""static/images/keys/m.svg"" width=""35%"" height=""75%""></img></td>
  </tr>
</table>
  ",77.0,,,,,,,,,,,,,,,,,,,,,,,,,1.0,,
155,0,,html-keyboard-response,155,457904,0.0-7.1-2.1,3s2nekuzz8a,2022-09-19 15:31:45.028,5fc74b5900f0a5079e03dbae,3,67,42,37,40,52,Male,,,"
  <table>
  <tr height=300>
    <td width=300 height=300><img src=""static/images/cards/back_of_red_moons.svg"" width=""175px"" height=""250px""></img></td>
    <td width=300 height=300><img src=""static/images/cards/2_of_red_moons.svg"" width=""175px"" height=""250px""></img></td>
  </tr>
  <tr height=200>
    <td width=300></td>
    <td width=300><img src=""static/images/keys/m.svg"" width=""35%"" height=""75%""></img></td>
  </tr>
</table>
  ",,,,,,,,,,,,,,,,,,,,,,,,,,,,
156,0,,html-keyboard-response,156,459411,0.0-7.1-3.1,3s2nekuzz8a,2022-09-19 15:31:45.028,5fc74b5900f0a5079e03dbae,3,67,42,37,40,52,Male,,,"<p style=""font-size:50px"">You Lose!
No points this round.</p>",,,,,,,,,,,,,,,,,,,,,,,,,,,,
157,0,,html-keyboard-response,157,459920,0.0-7.1-4.1,3s2nekuzz8a,2022-09-19 15:31:45.028,5fc74b5900f0a5079e03dbae,3,67,42,37,40,52,Male,,,,,1.0,choice,1.0,B,D,red,red,moons,stars,B,D,B,red,moons,2496.8000000007,0.0,1.0,0,right,1634.7000000011,2.0,0.0,0.0,,,,
158,0,,html-keyboard-response,158,462241,0.0-7.2-0.2,3s2nekuzz8a,2022-09-19 15:31:45.028,5fc74b5900f0a5079e03dbae,3,67,42,37,40,52,Male,2319.6999999993,,"
  <table>
  <tr height=300>
    <td width=300 height=300><img src=""static/images/cards/stack_of_red_moons.svg"" width=""175px"" height=""250px""></img></td>
    <td width=300 height=300><img src=""static/images/cards/stack_of_red_stars.svg"" width=""175px"" height=""250px""></img></td>
  </tr>
  <tr height=200>
    <td width=300><img src=""static/images/keys/w.svg"" width=""35%"" height=""75%""></img></td>
    <td width=300><img src=""static/images/keys/o.svg"" width=""35%"" height=""75%""></img></td>
  </tr>
</table>
  ",87.0,,,,,,,,,,,,,,,,,,,,,,,,,1.0,,
159,0,,html-keyboard-response,159,463865,0.0-7.2-1.2,3s2nekuzz8a,2022-09-19 15:31:45.028,5fc74b5900f0a5079e03dbae,3,67,42,37,40,52,Male,1117.5999999996,,"
  <table>
  <tr height=300>
    <td width=300 height=300><img src=""static/images/cards/back_of_red_moons.svg"" width=""175px"" height=""250px""></img></td>
    <td width=300 height=300><img src=""static/images/cards/back_of_red_moons.svg"" width=""175px"" height=""250px""></img></td>
  </tr>
  <tr height=200>
    <td width=300><img src=""static/images/keys/z.svg"" width=""35%"" height=""75%""></img></td>
    <td width=300></td>
  </tr>
</table>
  ",90.0,,,,,,,,,,,,,,,,,,,,,,,,,1.0,,
160,0,,html-keyboard-response,160,465375,0.0-7.2-2.2,3s2nekuzz8a,2022-09-19 15:31:45.028,5fc74b5900f0a5079e03dbae,3,67,42,37,40,52,Male,,,"
  <table>
  <tr height=300>
    <td width=300 height=300><img src=""static/images/cards/9_of_red_moons.svg"" width=""175px"" height=""250px""></img></td>
    <td width=300 height=300><img src=""static/images/cards/back_of_red_moons.svg"" width=""175px"" height=""250px""></img></td>
  </tr>
  <tr height=200>
    <td width=300><img src=""static/images/keys/z.svg"" width=""35%"" height=""75%""></img></td>
    <td width=300></td>
  </tr>
</table>
  ",,,,,,,,,,,,,,,,,,,,,,,,,,,,
161,0,,html-keyboard-response,161,466880,0.0-7.2-3.2,3s2nekuzz8a,2022-09-19 15:31:45.028,5fc74b5900f0a5079e03dbae,3,67,42,37,40,52,Male,,,"<p style=""font-size:50px"">You win!
+10 points this round!</p>",,,,,,,,,,,,,,,,,,,,,,,,,,,,
162,0,,html-keyboard-response,162,467390,0.0-7.2-4.2,3s2nekuzz8a,2022-09-19 15:31:45.028,5fc74b5900f0a5079e03dbae,3,67,42,37,40,52,Male,,,,,1.0,choice,2.0,B,D,red,red,moons,stars,B,D,B,red,moons,2319.6999999993,0.0,1.0,1,left,1117.5999999996,9.0,1.0,1.0,,,,
163,0,,html-keyboard-response,163,468909,0.0-7.3-0.3,3s2nekuzz8a,2022-09-19 15:31:45.028,5fc74b5900f0a5079e03dbae,3,67,42,37,40,52,Male,1517.5,,"
  <table>
  <tr height=300>
    <td width=300 height=300><img src=""static/images/cards/stack_of_black_stars.svg"" width=""175px"" height=""250px""></img></td>
    <td width=300 height=300><img src=""static/images/cards/stack_of_red_moons.svg"" width=""175px"" height=""250px""></img></td>
  </tr>
  <tr height=200>
    <td width=300><img src=""static/images/keys/w.svg"" width=""35%"" height=""75%""></img></td>
    <td width=300><img src=""static/images/keys/o.svg"" width=""35%"" height=""75%""></img></td>
  </tr>
</table>
  ",79.0,,,,,,,,,,,,,,,,,,,,,,,,,1.0,,
164,0,,html-keyboard-response,164,470721,0.0-7.3-1.3,3s2nekuzz8a,2022-09-19 15:31:45.028,5fc74b5900f0a5079e03dbae,3,67,42,37,40,52,Male,1308.8999999985,,"
  <table>
  <tr height=300>
    <td width=300 height=300><img src=""static/images/cards/back_of_red_moons.svg"" width=""175px"" height=""250px""></img></td>
    <td width=300 height=300><img src=""static/images/cards/back_of_red_moons.svg"" width=""175px"" height=""250px""></img></td>
  </tr>
  <tr height=200>
    <td width=300></td>
    <td width=300><img src=""static/images/keys/m.svg"" width=""35%"" height=""75%""></img></td>
  </tr>
</table>
  ",77.0,,,,,,,,,,,,,,,,,,,,,,,,,1.0,,
165,0,,html-keyboard-response,165,472229,0.0-7.3-2.3,3s2nekuzz8a,2022-09-19 15:31:45.028,5fc74b5900f0a5079e03dbae,3,67,42,37,40,52,Male,,,"
  <table>
  <tr height=300>
    <td width=300 height=300><img src=""static/images/cards/back_of_red_moons.svg"" width=""175px"" height=""250px""></img></td>
    <td width=300 height=300><img src=""static/images/cards/4_of_red_moons.svg"" width=""175px"" height=""250px""></img></td>
  </tr>
  <tr height=200>
    <td width=300></td>
    <td width=300><img src=""static/images/keys/m.svg"" width=""35%"" height=""75%""></img></td>
  </tr>
</table>
  ",,,,,,,,,,,,,,,,,,,,,,,,,,,,
166,0,,html-keyboard-response,166,473735,0.0-7.3-3.3,3s2nekuzz8a,2022-09-19 15:31:45.028,5fc74b5900f0a5079e03dbae,3,67,42,37,40,52,Male,,,"<p style=""font-size:50px"">You Lose!
No points this round.</p>",,,,,,,,,,,,,,,,,,,,,,,,,,,,
167,0,,html-keyboard-response,167,474244,0.0-7.3-4.3,3s2nekuzz8a,2022-09-19 15:31:45.028,5fc74b5900f0a5079e03dbae,3,67,42,37,40,52,Male,,,,,1.0,choice,3.0,B,C,black,red,stars,moons,C,B,B,red,moons,1517.5,0.0,1.0,0,right,1308.8999999985,4.0,0.0,0.0,,,,
168,0,,html-keyboard-response,168,477243,0.0-7.4-0.4,3s2nekuzz8a,2022-09-19 15:31:45.028,5fc74b5900f0a5079e03dbae,3,67,42,37,40,52,Male,2996.9000000004,,"
  <table>
  <tr height=300>
    <td width=300 height=300><img src=""static/images/cards/stack_of_red_stars.svg"" width=""175px"" height=""250px""></img></td>
    <td width=300 height=300><img src=""static/images/cards/stack_of_red_moons.svg"" width=""175px"" height=""250px""></img></td>
  </tr>
  <tr height=200>
    <td width=300><img src=""static/images/keys/w.svg"" width=""35%"" height=""75%""></img></td>
    <td width=300><img src=""static/images/keys/o.svg"" width=""35%"" height=""75%""></img></td>
  </tr>
</table>
  ",79.0,,,,,,,,,,,,,,,,,,,,,,,,,1.0,,
169,0,,html-keyboard-response,169,478519,0.0-7.4-1.4,3s2nekuzz8a,2022-09-19 15:31:45.028,5fc74b5900f0a5079e03dbae,3,67,42,37,40,52,Male,767.5,,"
  <table>
  <tr height=300>
    <td width=300 height=300><img src=""static/images/cards/back_of_red_moons.svg"" width=""175px"" height=""250px""></img></td>
    <td width=300 height=300><img src=""static/images/cards/back_of_red_moons.svg"" width=""175px"" height=""250px""></img></td>
  </tr>
  <tr height=200>
    <td width=300><img src=""static/images/keys/z.svg"" width=""35%"" height=""75%""></img></td>
    <td width=300></td>
  </tr>
</table>
  ",90.0,,,,,,,,,,,,,,,,,,,,,,,,,1.0,,
170,0,,html-keyboard-response,170,480030,0.0-7.4-2.4,3s2nekuzz8a,2022-09-19 15:31:45.028,5fc74b5900f0a5079e03dbae,3,67,42,37,40,52,Male,,,"
  <table>
  <tr height=300>
    <td width=300 height=300><img src=""static/images/cards/2_of_red_moons.svg"" width=""175px"" height=""250px""></img></td>
    <td width=300 height=300><img src=""static/images/cards/back_of_red_moons.svg"" width=""175px"" height=""250px""></img></td>
  </tr>
  <tr height=200>
    <td width=300><img src=""static/images/keys/z.svg"" width=""35%"" height=""75%""></img></td>
    <td width=300></td>
  </tr>
</table>
  ",,,,,,,,,,,,,,,,,,,,,,,,,,,,
171,0,,html-keyboard-response,171,481537,0.0-7.4-3.4,3s2nekuzz8a,2022-09-19 15:31:45.028,5fc74b5900f0a5079e03dbae,3,67,42,37,40,52,Male,,,"<p style=""font-size:50px"">You Lose!
No points this round.</p>",,,,,,,,,,,,,,,,,,,,,,,,,,,,
172,0,,html-keyboard-response,172,482047,0.0-7.4-4.4,3s2nekuzz8a,2022-09-19 15:31:45.028,5fc74b5900f0a5079e03dbae,3,67,42,37,40,52,Male,,,,,1.0,choice,4.0,B,D,red,red,stars,moons,D,B,B,red,moons,2996.9000000004,0.0,1.0,1,left,767.5,2.0,0.0,0.0,,,,
173,0,,html-keyboard-response,173,484681,0.0-7.5-0.5,3s2nekuzz8a,2022-09-19 15:31:45.028,5fc74b5900f0a5079e03dbae,3,67,42,37,40,52,Male,2632.4000000004,,"
  <table>
  <tr height=300>
    <td width=300 height=300><img src=""static/images/cards/stack_of_black_stars.svg"" width=""175px"" height=""250px""></img></td>
    <td width=300 height=300><img src=""static/images/cards/stack_of_red_stars.svg"" width=""175px"" height=""250px""></img></td>
  </tr>
  <tr height=200>
    <td width=300><img src=""static/images/keys/w.svg"" width=""35%"" height=""75%""></img></td>
    <td width=300><img src=""static/images/keys/o.svg"" width=""35%"" height=""75%""></img></td>
  </tr>
</table>
  ",79.0,,,,,,,,,,,,,,,,,,,,,,,,,1.0,,
174,0,,html-keyboard-response,174,486821,0.0-7.5-1.5,3s2nekuzz8a,2022-09-19 15:31:45.028,5fc74b5900f0a5079e03dbae,3,67,42,37,40,52,Male,1626.5,,"
  <table>
  <tr height=300>
    <td width=300 height=300><img src=""static/images/cards/back_of_red_stars.svg"" width=""175px"" height=""250px""></img></td>
    <td width=300 height=300><img src=""static/images/cards/back_of_red_stars.svg"" width=""175px"" height=""250px""></img></td>
  </tr>
  <tr height=200>
    <td width=300></td>
    <td width=300><img src=""static/images/keys/m.svg"" width=""35%"" height=""75%""></img></td>
  </tr>
</table>
  ",77.0,,,,,,,,,,,,,,,,,,,,,,,,,1.0,,
175,0,,html-keyboard-response,175,488335,0.0-7.5-2.5,3s2nekuzz8a,2022-09-19 15:31:45.028,5fc74b5900f0a5079e03dbae,3,67,42,37,40,52,Male,,,"
  <table>
  <tr height=300>
    <td width=300 height=300><img src=""static/images/cards/back_of_red_stars.svg"" width=""175px"" height=""250px""></img></td>
    <td width=300 height=300><img src=""static/images/cards/2_of_red_stars.svg"" width=""175px"" height=""250px""></img></td>
  </tr>
  <tr height=200>
    <td width=300></td>
    <td width=300><img src=""static/images/keys/m.svg"" width=""35%"" height=""75%""></img></td>
  </tr>
</table>
  ",,,,,,,,,,,,,,,,,,,,,,,,,,,,
176,0,,html-keyboard-response,176,489846,0.0-7.5-3.5,3s2nekuzz8a,2022-09-19 15:31:45.028,5fc74b5900f0a5079e03dbae,3,67,42,37,40,52,Male,,,"<p style=""font-size:50px"">You win!
+10 points this round!</p>",,,,,,,,,,,,,,,,,,,,,,,,,,,,
177,0,,html-keyboard-response,177,490354,0.0-7.5-4.5,3s2nekuzz8a,2022-09-19 15:31:45.028,5fc74b5900f0a5079e03dbae,3,67,42,37,40,52,Male,,,,,1.0,choice,5.0,C,D,black,red,stars,stars,C,D,D,red,stars,2632.4000000004,0.0,0.0,0,right,1626.5,2.0,0.0,1.0,,,,
178,0,,html-keyboard-response,178,492514,0.0-7.6-0.6,3s2nekuzz8a,2022-09-19 15:31:45.028,5fc74b5900f0a5079e03dbae,3,67,42,37,40,52,Male,2158.0999999996,,"
  <table>
  <tr height=300>
    <td width=300 height=300><img src=""static/images/cards/stack_of_red_moons.svg"" width=""175px"" height=""250px""></img></td>
    <td width=300 height=300><img src=""static/images/cards/stack_of_red_bolts.svg"" width=""175px"" height=""250px""></img></td>
  </tr>
  <tr height=200>
    <td width=300><img src=""static/images/keys/w.svg"" width=""35%"" height=""75%""></img></td>
    <td width=300><img src=""static/images/keys/o.svg"" width=""35%"" height=""75%""></img></td>
  </tr>
</table>
  ",87.0,,,,,,,,,,,,,,,,,,,,,,,,,1.0,,
179,0,,html-keyboard-response,179,494338,0.0-7.6-1.6,3s2nekuzz8a,2022-09-19 15:31:45.028,5fc74b5900f0a5079e03dbae,3,67,42,37,40,52,Male,1315.2000000011,,"
  <table>
  <tr height=300>
    <td width=300 height=300><img src=""static/images/cards/back_of_red_moons.svg"" width=""175px"" height=""250px""></img></td>
    <td width=300 height=300><img src=""static/images/cards/back_of_red_moons.svg"" width=""175px"" height=""250px""></img></td>
  </tr>
  <tr height=200>
    <td width=300></td>
    <td width=300><img src=""static/images/keys/m.svg"" width=""35%"" height=""75%""></img></td>
  </tr>
</table>
  ",77.0,,,,,,,,,,,,,,,,,,,,,,,,,1.0,,
180,0,,html-keyboard-response,180,495853,0.0-7.6-2.6,3s2nekuzz8a,2022-09-19 15:31:45.028,5fc74b5900f0a5079e03dbae,3,67,42,37,40,52,Male,,,"
  <table>
  <tr height=300>
    <td width=300 height=300><img src=""static/images/cards/back_of_red_moons.svg"" width=""175px"" height=""250px""></img></td>
    <td width=300 height=300><img src=""static/images/cards/10_of_red_moons.svg"" width=""175px"" height=""250px""></img></td>
  </tr>
  <tr height=200>
    <td width=300></td>
    <td width=300><img src=""static/images/keys/m.svg"" width=""35%"" height=""75%""></img></td>
  </tr>
</table>
  ",,,,,,,,,,,,,,,,,,,,,,,,,,,,
181,0,,html-keyboard-response,181,497362,0.0-7.6-3.6,3s2nekuzz8a,2022-09-19 15:31:45.028,5fc74b5900f0a5079e03dbae,3,67,42,37,40,52,Male,,,"<p style=""font-size:50px"">You win!
+10 points this round!</p>",,,,,,,,,,,,,,,,,,,,,,,,,,,,
182,0,,html-keyboard-response,182,497874,0.0-7.6-4.6,3s2nekuzz8a,2022-09-19 15:31:45.028,5fc74b5900f0a5079e03dbae,3,67,42,37,40,52,Male,,,,,1.0,choice,6.0,B,Xc,red,red,moons,bolts,B,Xc,B,red,moons,2158.0999999996,0.0,1.0,0,right,1315.2000000011,10.0,1.0,1.0,,,,
183,0,,html-keyboard-response,183,499597,0.0-7.7-0.7,3s2nekuzz8a,2022-09-19 15:31:45.028,5fc74b5900f0a5079e03dbae,3,67,42,37,40,52,Male,1721.9000000004,,"
  <table>
  <tr height=300>
    <td width=300 height=300><img src=""static/images/cards/stack_of_black_moons.svg"" width=""175px"" height=""250px""></img></td>
    <td width=300 height=300><img src=""static/images/cards/stack_of_red_stars.svg"" width=""175px"" height=""250px""></img></td>
  </tr>
  <tr height=200>
    <td width=300><img src=""static/images/keys/w.svg"" width=""35%"" height=""75%""></img></td>
    <td width=300><img src=""static/images/keys/o.svg"" width=""35%"" height=""75%""></img></td>
  </tr>
</table>
  ",87.0,,,,,,,,,,,,,,,,,,,,,,,,,1.0,,
184,0,,html-keyboard-response,184,502139,0.0-7.7-1.7,3s2nekuzz8a,2022-09-19 15:31:45.028,5fc74b5900f0a5079e03dbae,3,67,42,37,40,52,Male,2034.0,,"
  <table>
  <tr height=300>
    <td width=300 height=300><img src=""static/images/cards/back_of_black_moons.svg"" width=""175px"" height=""250px""></img></td>
    <td width=300 height=300><img src=""static/images/cards/back_of_black_moons.svg"" width=""175px"" height=""250px""></img></td>
  </tr>
  <tr height=200>
    <td width=300><img src=""static/images/keys/z.svg"" width=""35%"" height=""75%""></img></td>
    <td width=300><img src=""static/images/keys/m.svg"" width=""35%"" height=""75%""></img></td>
  </tr>
</table>
  ",90.0,,,,,,,,,,,,,,,,,,,,,,,,,1.0,,
185,0,,html-keyboard-response,185,503647,0.0-7.7-2.7,3s2nekuzz8a,2022-09-19 15:31:45.028,5fc74b5900f0a5079e03dbae,3,67,42,37,40,52,Male,,,"
  <table>
  <tr height=300>
    <td width=300 height=300><img src=""static/images/cards/3_of_black_moons.svg"" width=""175px"" height=""250px""></img></td>
    <td width=300 height=300><img src=""static/images/cards/back_of_black_moons.svg"" width=""175px"" height=""250px""></img></td>
  </tr>
  <tr height=200>
    <td width=300><img src=""static/images/keys/z.svg"" width=""35%"" height=""75%""></img></td>
    <td width=300><img src=""static/images/keys/m.svg"" width=""35%"" height=""75%""></img></td>
  </tr>
</table>
  ",,,,,,,,,,,,,,,,,,,,,,,,,,,,
186,0,,html-keyboard-response,186,505156,0.0-7.7-3.7,3s2nekuzz8a,2022-09-19 15:31:45.028,5fc74b5900f0a5079e03dbae,3,67,42,37,40,52,Male,,,"<p style=""font-size:50px"">You Lose!
No points this round.</p>",,,,,,,,,,,,,,,,,,,,,,,,,,,,
187,0,,html-keyboard-response,187,505679,0.0-7.7-4.7,3s2nekuzz8a,2022-09-19 15:31:45.028,5fc74b5900f0a5079e03dbae,3,67,42,37,40,52,Male,,,,,1.0,choice,7.0,A,D,black,red,moons,stars,A,D,A,black,moons,1721.9000000004,1.0,1.0,NA,left,2034.0,3.0,0.0,0.0,,,,
188,0,,html-keyboard-response,188,507916,0.0-7.8-0.8,3s2nekuzz8a,2022-09-19 15:31:45.028,5fc74b5900f0a5079e03dbae,3,67,42,37,40,52,Male,2236.5999999996,,"
  <table>
  <tr height=300>
    <td width=300 height=300><img src=""static/images/cards/stack_of_red_moons.svg"" width=""175px"" height=""250px""></img></td>
    <td width=300 height=300><img src=""static/images/cards/stack_of_black_moons.svg"" width=""175px"" height=""250px""></img></td>
  </tr>
  <tr height=200>
    <td width=300><img src=""static/images/keys/w.svg"" width=""35%"" height=""75%""></img></td>
    <td width=300><img src=""static/images/keys/o.svg"" width=""35%"" height=""75%""></img></td>
  </tr>
</table>
  ",79.0,,,,,,,,,,,,,,,,,,,,,,,,,1.0,,
189,0,,html-keyboard-response,189,509525,0.0-7.8-1.8,3s2nekuzz8a,2022-09-19 15:31:45.028,5fc74b5900f0a5079e03dbae,3,67,42,37,40,52,Male,1101.1999999993,,"
  <table>
  <tr height=300>
    <td width=300 height=300><img src=""static/images/cards/back_of_black_moons.svg"" width=""175px"" height=""250px""></img></td>
    <td width=300 height=300><img src=""static/images/cards/back_of_black_moons.svg"" width=""175px"" height=""250px""></img></td>
  </tr>
  <tr height=200>
    <td width=300><img src=""static/images/keys/z.svg"" width=""35%"" height=""75%""></img></td>
    <td width=300><img src=""static/images/keys/m.svg"" width=""35%"" height=""75%""></img></td>
  </tr>
</table>
  ",77.0,,,,,,,,,,,,,,,,,,,,,,,,,1.0,,
190,0,,html-keyboard-response,190,511036,0.0-7.8-2.8,3s2nekuzz8a,2022-09-19 15:31:45.028,5fc74b5900f0a5079e03dbae,3,67,42,37,40,52,Male,,,"
  <table>
  <tr height=300>
    <td width=300 height=300><img src=""static/images/cards/back_of_black_moons.svg"" width=""175px"" height=""250px""></img></td>
    <td width=300 height=300><img src=""static/images/cards/10_of_black_moons.svg"" width=""175px"" height=""250px""></img></td>
  </tr>
  <tr height=200>
    <td width=300><img src=""static/images/keys/z.svg"" width=""35%"" height=""75%""></img></td>
    <td width=300><img src=""static/images/keys/m.svg"" width=""35%"" height=""75%""></img></td>
  </tr>
</table>
  ",,,,,,,,,,,,,,,,,,,,,,,,,,,,
191,0,,html-keyboard-response,191,512547,0.0-7.8-3.8,3s2nekuzz8a,2022-09-19 15:31:45.028,5fc74b5900f0a5079e03dbae,3,67,42,37,40,52,Male,,,"<p style=""font-size:50px"">You win!
+10 points this round!</p>",,,,,,,,,,,,,,,,,,,,,,,,,,,,
192,0,,html-keyboard-response,192,513056,0.0-7.8-4.8,3s2nekuzz8a,2022-09-19 15:31:45.028,5fc74b5900f0a5079e03dbae,3,67,42,37,40,52,Male,,,,,1.0,choice,8.0,A,B,red,black,moons,moons,B,A,A,black,moons,2236.5999999996,1.0,1.0,NA,right,1101.1999999993,10.0,1.0,1.0,,,,
193,0,,html-keyboard-response,193,515032,0.0-7.9-0.9,3s2nekuzz8a,2022-09-19 15:31:45.028,5fc74b5900f0a5079e03dbae,3,67,42,37,40,52,Male,1975.4000000004,,"
  <table>
  <tr height=300>
    <td width=300 height=300><img src=""static/images/cards/stack_of_black_bolts.svg"" width=""175px"" height=""250px""></img></td>
    <td width=300 height=300><img src=""static/images/cards/stack_of_red_moons.svg"" width=""175px"" height=""250px""></img></td>
  </tr>
  <tr height=200>
    <td width=300><img src=""static/images/keys/w.svg"" width=""35%"" height=""75%""></img></td>
    <td width=300><img src=""static/images/keys/o.svg"" width=""35%"" height=""75%""></img></td>
  </tr>
</table>
  ",79.0,,,,,,,,,,,,,,,,,,,,,,,,,1.0,,
194,0,,html-keyboard-response,194,516307,0.0-7.9-1.9,3s2nekuzz8a,2022-09-19 15:31:45.028,5fc74b5900f0a5079e03dbae,3,67,42,37,40,52,Male,770.7000000011,,"
  <table>
  <tr height=300>
    <td width=300 height=300><img src=""static/images/cards/back_of_red_moons.svg"" width=""175px"" height=""250px""></img></td>
    <td width=300 height=300><img src=""static/images/cards/back_of_red_moons.svg"" width=""175px"" height=""250px""></img></td>
  </tr>
  <tr height=200>
    <td width=300><img src=""static/images/keys/z.svg"" width=""35%"" height=""75%""></img></td>
    <td width=300></td>
  </tr>
</table>
  ",90.0,,,,,,,,,,,,,,,,,,,,,,,,,1.0,,
195,0,,html-keyboard-response,195,517809,0.0-7.9-2.9,3s2nekuzz8a,2022-09-19 15:31:45.028,5fc74b5900f0a5079e03dbae,3,67,42,37,40,52,Male,,,"
  <table>
  <tr height=300>
    <td width=300 height=300><img src=""static/images/cards/2_of_red_moons.svg"" width=""175px"" height=""250px""></img></td>
    <td width=300 height=300><img src=""static/images/cards/back_of_red_moons.svg"" width=""175px"" height=""250px""></img></td>
  </tr>
  <tr height=200>
    <td width=300><img src=""static/images/keys/z.svg"" width=""35%"" height=""75%""></img></td>
    <td width=300></td>
  </tr>
</table>
  ",,,,,,,,,,,,,,,,,,,,,,,,,,,,
196,0,,html-keyboard-response,196,519320,0.0-7.9-3.9,3s2nekuzz8a,2022-09-19 15:31:45.028,5fc74b5900f0a5079e03dbae,3,67,42,37,40,52,Male,,,"<p style=""font-size:50px"">You Lose!
No points this round.</p>",,,,,,,,,,,,,,,,,,,,,,,,,,,,
197,0,,html-keyboard-response,197,519831,0.0-7.9-4.9,3s2nekuzz8a,2022-09-19 15:31:45.028,5fc74b5900f0a5079e03dbae,3,67,42,37,40,52,Male,,,,,1.0,choice,9.0,B,Xnc,black,red,bolts,moons,Xnc,B,B,red,moons,1975.4000000004,0.0,1.0,1,left,770.7000000011,2.0,0.0,0.0,,,,
198,0,,html-keyboard-response,198,521824,0.0-7.10-0.10,3s2nekuzz8a,2022-09-19 15:31:45.028,5fc74b5900f0a5079e03dbae,3,67,42,37,40,52,Male,1991.9000000004,,"
  <table>
  <tr height=300>
    <td width=300 height=300><img src=""static/images/cards/stack_of_red_moons.svg"" width=""175px"" height=""250px""></img></td>
    <td width=300 height=300><img src=""static/images/cards/stack_of_black_stars.svg"" width=""175px"" height=""250px""></img></td>
  </tr>
  <tr height=200>
    <td width=300><img src=""static/images/keys/w.svg"" width=""35%"" height=""75%""></img></td>
    <td width=300><img src=""static/images/keys/o.svg"" width=""35%"" height=""75%""></img></td>
  </tr>
</table>
  ",87.0,,,,,,,,,,,,,,,,,,,,,,,,,1.0,,
199,0,,html-keyboard-response,199,522864,0.0-7.10-1.10,3s2nekuzz8a,2022-09-19 15:31:45.028,5fc74b5900f0a5079e03dbae,3,67,42,37,40,52,Male,535.6999999993,,"
  <table>
  <tr height=300>
    <td width=300 height=300><img src=""static/images/cards/back_of_red_moons.svg"" width=""175px"" height=""250px""></img></td>
    <td width=300 height=300><img src=""static/images/cards/back_of_red_moons.svg"" width=""175px"" height=""250px""></img></td>
  </tr>
  <tr height=200>
    <td width=300><img src=""static/images/keys/z.svg"" width=""35%"" height=""75%""></img></td>
    <td width=300></td>
  </tr>
</table>
  ",90.0,,,,,,,,,,,,,,,,,,,,,,,,,1.0,,
200,0,,html-keyboard-response,200,524371,0.0-7.10-2.10,3s2nekuzz8a,2022-09-19 15:31:45.028,5fc74b5900f0a5079e03dbae,3,67,42,37,40,52,Male,,,"
  <table>
  <tr height=300>
    <td width=300 height=300><img src=""static/images/cards/2_of_red_moons.svg"" width=""175px"" height=""250px""></img></td>
    <td width=300 height=300><img src=""static/images/cards/back_of_red_moons.svg"" width=""175px"" height=""250px""></img></td>
  </tr>
  <tr height=200>
    <td width=300><img src=""static/images/keys/z.svg"" width=""35%"" height=""75%""></img></td>
    <td width=300></td>
  </tr>
</table>
  ",,,,,,,,,,,,,,,,,,,,,,,,,,,,
201,0,,html-keyboard-response,201,525886,0.0-7.10-3.10,3s2nekuzz8a,2022-09-19 15:31:45.028,5fc74b5900f0a5079e03dbae,3,67,42,37,40,52,Male,,,"<p style=""font-size:50px"">You Lose!
No points this round.</p>",,,,,,,,,,,,,,,,,,,,,,,,,,,,
202,0,,html-keyboard-response,202,526396,0.0-7.10-4.10,3s2nekuzz8a,2022-09-19 15:31:45.028,5fc74b5900f0a5079e03dbae,3,67,42,37,40,52,Male,,,,,1.0,choice,10.0,B,C,red,black,moons,stars,B,C,B,red,moons,1991.9000000004,0.0,1.0,1,left,535.6999999993,2.0,0.0,0.0,,,,
203,0,,html-keyboard-response,203,527815,0.0-7.11-0.11,3s2nekuzz8a,2022-09-19 15:31:45.028,5fc74b5900f0a5079e03dbae,3,67,42,37,40,52,Male,1418.0999999996,,"
  <table>
  <tr height=300>
    <td width=300 height=300><img src=""static/images/cards/stack_of_red_stars.svg"" width=""175px"" height=""250px""></img></td>
    <td width=300 height=300><img src=""static/images/cards/stack_of_red_moons.svg"" width=""175px"" height=""250px""></img></td>
  </tr>
  <tr height=200>
    <td width=300><img src=""static/images/keys/w.svg"" width=""35%"" height=""75%""></img></td>
    <td width=300><img src=""static/images/keys/o.svg"" width=""35%"" height=""75%""></img></td>
  </tr>
</table>
  ",79.0,,,,,,,,,,,,,,,,,,,,,,,,,1.0,,
204,0,,html-keyboard-response,204,529316,0.0-7.11-1.11,3s2nekuzz8a,2022-09-19 15:31:45.028,5fc74b5900f0a5079e03dbae,3,67,42,37,40,52,Male,988.5,,"
  <table>
  <tr height=300>
    <td width=300 height=300><img src=""static/images/cards/back_of_red_moons.svg"" width=""175px"" height=""250px""></img></td>
    <td width=300 height=300><img src=""static/images/cards/back_of_red_moons.svg"" width=""175px"" height=""250px""></img></td>
  </tr>
  <tr height=200>
    <td width=300></td>
    <td width=300><img src=""static/images/keys/m.svg"" width=""35%"" height=""75%""></img></td>
  </tr>
</table>
  ",77.0,,,,,,,,,,,,,,,,,,,,,,,,,1.0,,
205,0,,html-keyboard-response,205,530826,0.0-7.11-2.11,3s2nekuzz8a,2022-09-19 15:31:45.028,5fc74b5900f0a5079e03dbae,3,67,42,37,40,52,Male,,,"
  <table>
  <tr height=300>
    <td width=300 height=300><img src=""static/images/cards/back_of_red_moons.svg"" width=""175px"" height=""250px""></img></td>
    <td width=300 height=300><img src=""static/images/cards/10_of_red_moons.svg"" width=""175px"" height=""250px""></img></td>
  </tr>
  <tr height=200>
    <td width=300></td>
    <td width=300><img src=""static/images/keys/m.svg"" width=""35%"" height=""75%""></img></td>
  </tr>
</table>
  ",,,,,,,,,,,,,,,,,,,,,,,,,,,,
206,0,,html-keyboard-response,206,532342,0.0-7.11-3.11,3s2nekuzz8a,2022-09-19 15:31:45.028,5fc74b5900f0a5079e03dbae,3,67,42,37,40,52,Male,,,"<p style=""font-size:50px"">You win!
+10 points this round!</p>",,,,,,,,,,,,,,,,,,,,,,,,,,,,
207,0,,html-keyboard-response,207,532851,0.0-7.11-4.11,3s2nekuzz8a,2022-09-19 15:31:45.028,5fc74b5900f0a5079e03dbae,3,67,42,37,40,52,Male,,,,,1.0,choice,11.0,B,D,red,red,stars,moons,D,B,B,red,moons,1418.0999999996,0.0,1.0,0,right,988.5,10.0,1.0,1.0,,,,
208,0,,html-keyboard-response,208,534298,0.0-7.12-0.12,3s2nekuzz8a,2022-09-19 15:31:45.028,5fc74b5900f0a5079e03dbae,3,67,42,37,40,52,Male,1445.6000000015,,"
  <table>
  <tr height=300>
    <td width=300 height=300><img src=""static/images/cards/stack_of_red_stars.svg"" width=""175px"" height=""250px""></img></td>
    <td width=300 height=300><img src=""static/images/cards/stack_of_red_moons.svg"" width=""175px"" height=""250px""></img></td>
  </tr>
  <tr height=200>
    <td width=300><img src=""static/images/keys/w.svg"" width=""35%"" height=""75%""></img></td>
    <td width=300><img src=""static/images/keys/o.svg"" width=""35%"" height=""75%""></img></td>
  </tr>
</table>
  ",79.0,,,,,,,,,,,,,,,,,,,,,,,,,1.0,,
209,0,,html-keyboard-response,209,535694,0.0-7.12-1.12,3s2nekuzz8a,2022-09-19 15:31:45.028,5fc74b5900f0a5079e03dbae,3,67,42,37,40,52,Male,892.0,,"
  <table>
  <tr height=300>
    <td width=300 height=300><img src=""static/images/cards/back_of_red_moons.svg"" width=""175px"" height=""250px""></img></td>
    <td width=300 height=300><img src=""static/images/cards/back_of_red_moons.svg"" width=""175px"" height=""250px""></img></td>
  </tr>
  <tr height=200>
    <td width=300></td>
    <td width=300><img src=""static/images/keys/m.svg"" width=""35%"" height=""75%""></img></td>
  </tr>
</table>
  ",77.0,,,,,,,,,,,,,,,,,,,,,,,,,1.0,,
210,0,,html-keyboard-response,210,537208,0.0-7.12-2.12,3s2nekuzz8a,2022-09-19 15:31:45.028,5fc74b5900f0a5079e03dbae,3,67,42,37,40,52,Male,,,"
  <table>
  <tr height=300>
    <td width=300 height=300><img src=""static/images/cards/back_of_red_moons.svg"" width=""175px"" height=""250px""></img></td>
    <td width=300 height=300><img src=""static/images/cards/3_of_red_moons.svg"" width=""175px"" height=""250px""></img></td>
  </tr>
  <tr height=200>
    <td width=300></td>
    <td width=300><img src=""static/images/keys/m.svg"" width=""35%"" height=""75%""></img></td>
  </tr>
</table>
  ",,,,,,,,,,,,,,,,,,,,,,,,,,,,
211,0,,html-keyboard-response,211,538725,0.0-7.12-3.12,3s2nekuzz8a,2022-09-19 15:31:45.028,5fc74b5900f0a5079e03dbae,3,67,42,37,40,52,Male,,,"<p style=""font-size:50px"">You Lose!
No points this round.</p>",,,,,,,,,,,,,,,,,,,,,,,,,,,,
212,0,,html-keyboard-response,212,539233,0.0-7.12-4.12,3s2nekuzz8a,2022-09-19 15:31:45.028,5fc74b5900f0a5079e03dbae,3,67,42,37,40,52,Male,,,,,1.0,choice,12.0,B,D,red,red,stars,moons,D,B,B,red,moons,1445.6000000015,0.0,1.0,0,right,892.0,3.0,0.0,0.0,,,,
213,0,,html-keyboard-response,213,541701,0.0-7.13-0.13,3s2nekuzz8a,2022-09-19 15:31:45.028,5fc74b5900f0a5079e03dbae,3,67,42,37,40,52,Male,2467.0999999996,,"
  <table>
  <tr height=300>
    <td width=300 height=300><img src=""static/images/cards/stack_of_black_moons.svg"" width=""175px"" height=""250px""></img></td>
    <td width=300 height=300><img src=""static/images/cards/stack_of_black_bolts.svg"" width=""175px"" height=""250px""></img></td>
  </tr>
  <tr height=200>
    <td width=300><img src=""static/images/keys/w.svg"" width=""35%"" height=""75%""></img></td>
    <td width=300><img src=""static/images/keys/o.svg"" width=""35%"" height=""75%""></img></td>
  </tr>
</table>
  ",79.0,,,,,,,,,,,,,,,,,,,,,,,,,1.0,,
214,0,,html-keyboard-response,214,543016,0.0-7.13-1.13,3s2nekuzz8a,2022-09-19 15:31:45.028,5fc74b5900f0a5079e03dbae,3,67,42,37,40,52,Male,809.6000000015,,"
  <table>
  <tr height=300>
    <td width=300 height=300><img src=""static/images/cards/back_of_black_bolts.svg"" width=""175px"" height=""250px""></img></td>
    <td width=300 height=300><img src=""static/images/cards/back_of_black_bolts.svg"" width=""175px"" height=""250px""></img></td>
  </tr>
  <tr height=200>
    <td width=300></td>
    <td width=300><img src=""static/images/keys/m.svg"" width=""35%"" height=""75%""></img></td>
  </tr>
</table>
  ",77.0,,,,,,,,,,,,,,,,,,,,,,,,,1.0,,
215,0,,html-keyboard-response,215,544531,0.0-7.13-2.13,3s2nekuzz8a,2022-09-19 15:31:45.028,5fc74b5900f0a5079e03dbae,3,67,42,37,40,52,Male,,,"
  <table>
  <tr height=300>
    <td width=300 height=300><img src=""static/images/cards/back_of_black_bolts.svg"" width=""175px"" height=""250px""></img></td>
    <td width=300 height=300><img src=""static/images/cards/3_of_black_bolts.svg"" width=""175px"" height=""250px""></img></td>
  </tr>
  <tr height=200>
    <td width=300></td>
    <td width=300><img src=""static/images/keys/m.svg"" width=""35%"" height=""75%""></img></td>
  </tr>
</table>
  ",,,,,,,,,,,,,,,,,,,,,,,,,,,,
216,0,,html-keyboard-response,216,546041,0.0-7.13-3.13,3s2nekuzz8a,2022-09-19 15:31:45.028,5fc74b5900f0a5079e03dbae,3,67,42,37,40,52,Male,,,"<p style=""font-size:50px"">You win!
+10 points this round!</p>",,,,,,,,,,,,,,,,,,,,,,,,,,,,
217,0,,html-keyboard-response,217,546547,0.0-7.13-4.13,3s2nekuzz8a,2022-09-19 15:31:45.028,5fc74b5900f0a5079e03dbae,3,67,42,37,40,52,Male,,,,,1.0,choice,13.0,A,Xnc,black,black,moons,bolts,A,Xnc,Xnc,black,bolts,2467.0999999996,0.0,0.0,0,right,809.6000000015,3.0,0.0,1.0,,,,
218,0,,html-keyboard-response,218,548339,0.0-7.14-0.14,3s2nekuzz8a,2022-09-19 15:31:45.028,5fc74b5900f0a5079e03dbae,3,67,42,37,40,52,Male,1790.1999999993,,"
  <table>
  <tr height=300>
    <td width=300 height=300><img src=""static/images/cards/stack_of_red_stars.svg"" width=""175px"" height=""250px""></img></td>
    <td width=300 height=300><img src=""static/images/cards/stack_of_black_stars.svg"" width=""175px"" height=""250px""></img></td>
  </tr>
  <tr height=200>
    <td width=300><img src=""static/images/keys/w.svg"" width=""35%"" height=""75%""></img></td>
    <td width=300><img src=""static/images/keys/o.svg"" width=""35%"" height=""75%""></img></td>
  </tr>
</table>
  ",87.0,,,,,,,,,,,,,,,,,,,,,,,,,1.0,,
219,0,,html-keyboard-response,219,549672,0.0-7.14-1.14,3s2nekuzz8a,2022-09-19 15:31:45.028,5fc74b5900f0a5079e03dbae,3,67,42,37,40,52,Male,819.7999999989,,"
  <table>
  <tr height=300>
    <td width=300 height=300><img src=""static/images/cards/back_of_red_stars.svg"" width=""175px"" height=""250px""></img></td>
    <td width=300 height=300><img src=""static/images/cards/back_of_red_stars.svg"" width=""175px"" height=""250px""></img></td>
  </tr>
  <tr height=200>
    <td width=300></td>
    <td width=300><img src=""static/images/keys/m.svg"" width=""35%"" height=""75%""></img></td>
  </tr>
</table>
  ",77.0,,,,,,,,,,,,,,,,,,,,,,,,,1.0,,
220,0,,html-keyboard-response,220,551184,0.0-7.14-2.14,3s2nekuzz8a,2022-09-19 15:31:45.028,5fc74b5900f0a5079e03dbae,3,67,42,37,40,52,Male,,,"
  <table>
  <tr height=300>
    <td width=300 height=300><img src=""static/images/cards/back_of_red_stars.svg"" width=""175px"" height=""250px""></img></td>
    <td width=300 height=300><img src=""static/images/cards/3_of_red_stars.svg"" width=""175px"" height=""250px""></img></td>
  </tr>
  <tr height=200>
    <td width=300></td>
    <td width=300><img src=""static/images/keys/m.svg"" width=""35%"" height=""75%""></img></td>
  </tr>
</table>
  ",,,,,,,,,,,,,,,,,,,,,,,,,,,,
221,0,,html-keyboard-response,221,552694,0.0-7.14-3.14,3s2nekuzz8a,2022-09-19 15:31:45.028,5fc74b5900f0a5079e03dbae,3,67,42,37,40,52,Male,,,"<p style=""font-size:50px"">You win!
+10 points this round!</p>",,,,,,,,,,,,,,,,,,,,,,,,,,,,
222,0,,html-keyboard-response,222,553201,0.0-7.14-4.14,3s2nekuzz8a,2022-09-19 15:31:45.028,5fc74b5900f0a5079e03dbae,3,67,42,37,40,52,Male,,,,,1.0,choice,14.0,C,D,red,black,stars,stars,D,C,D,red,stars,1790.1999999993,0.0,0.0,0,right,819.7999999989,3.0,0.0,1.0,,,,
223,0,,html-keyboard-response,223,554095,0.0-7.15-0.15,3s2nekuzz8a,2022-09-19 15:31:45.028,5fc74b5900f0a5079e03dbae,3,67,42,37,40,52,Male,893.0,,"
  <table>
  <tr height=300>
    <td width=300 height=300><img src=""static/images/cards/stack_of_red_moons.svg"" width=""175px"" height=""250px""></img></td>
    <td width=300 height=300><img src=""static/images/cards/stack_of_black_moons.svg"" width=""175px"" height=""250px""></img></td>
  </tr>
  <tr height=200>
    <td width=300><img src=""static/images/keys/w.svg"" width=""35%"" height=""75%""></img></td>
    <td width=300><img src=""static/images/keys/o.svg"" width=""35%"" height=""75%""></img></td>
  </tr>
</table>
  ",79.0,,,,,,,,,,,,,,,,,,,,,,,,,1.0,,
224,0,,html-keyboard-response,224,555417,0.0-7.15-1.15,3s2nekuzz8a,2022-09-19 15:31:45.028,5fc74b5900f0a5079e03dbae,3,67,42,37,40,52,Male,806.1999999993,,"
  <table>
  <tr height=300>
    <td width=300 height=300><img src=""static/images/cards/back_of_black_moons.svg"" width=""175px"" height=""250px""></img></td>
    <td width=300 height=300><img src=""static/images/cards/back_of_black_moons.svg"" width=""175px"" height=""250px""></img></td>
  </tr>
  <tr height=200>
    <td width=300><img src=""static/images/keys/z.svg"" width=""35%"" height=""75%""></img></td>
    <td width=300><img src=""static/images/keys/m.svg"" width=""35%"" height=""75%""></img></td>
  </tr>
</table>
  ",77.0,,,,,,,,,,,,,,,,,,,,,,,,,1.0,,
225,0,,html-keyboard-response,225,556922,0.0-7.15-2.15,3s2nekuzz8a,2022-09-19 15:31:45.028,5fc74b5900f0a5079e03dbae,3,67,42,37,40,52,Male,,,"
  <table>
  <tr height=300>
    <td width=300 height=300><img src=""static/images/cards/back_of_black_moons.svg"" width=""175px"" height=""250px""></img></td>
    <td width=300 height=300><img src=""static/images/cards/8_of_black_moons.svg"" width=""175px"" height=""250px""></img></td>
  </tr>
  <tr height=200>
    <td width=300><img src=""static/images/keys/z.svg"" width=""35%"" height=""75%""></img></td>
    <td width=300><img src=""static/images/keys/m.svg"" width=""35%"" height=""75%""></img></td>
  </tr>
</table>
  ",,,,,,,,,,,,,,,,,,,,,,,,,,,,
226,0,,html-keyboard-response,226,558431,0.0-7.15-3.15,3s2nekuzz8a,2022-09-19 15:31:45.028,5fc74b5900f0a5079e03dbae,3,67,42,37,40,52,Male,,,"<p style=""font-size:50px"">You win!
+10 points this round!</p>",,,,,,,,,,,,,,,,,,,,,,,,,,,,
227,0,,html-keyboard-response,227,558939,0.0-7.15-4.15,3s2nekuzz8a,2022-09-19 15:31:45.028,5fc74b5900f0a5079e03dbae,3,67,42,37,40,52,Male,,,,,1.0,choice,15.0,A,B,red,black,moons,moons,B,A,A,black,moons,893.0,1.0,1.0,NA,right,806.1999999993,8.0,1.0,1.0,,,,
228,0,,html-keyboard-response,228,560497,0.0-7.16-0.16,3s2nekuzz8a,2022-09-19 15:31:45.028,5fc74b5900f0a5079e03dbae,3,67,42,37,40,52,Male,1556.5999999996,,"
  <table>
  <tr height=300>
    <td width=300 height=300><img src=""static/images/cards/stack_of_black_moons.svg"" width=""175px"" height=""250px""></img></td>
    <td width=300 height=300><img src=""static/images/cards/stack_of_black_stars.svg"" width=""175px"" height=""250px""></img></td>
  </tr>
  <tr height=200>
    <td width=300><img src=""static/images/keys/w.svg"" width=""35%"" height=""75%""></img></td>
    <td width=300><img src=""static/images/keys/o.svg"" width=""35%"" height=""75%""></img></td>
  </tr>
</table>
  ",87.0,,,,,,,,,,,,,,,,,,,,,,,,,1.0,,
229,0,,html-keyboard-response,229,562307,0.0-7.16-1.16,3s2nekuzz8a,2022-09-19 15:31:45.028,5fc74b5900f0a5079e03dbae,3,67,42,37,40,52,Male,1299.2000000011,,"
  <table>
  <tr height=300>
    <td width=300 height=300><img src=""static/images/cards/back_of_black_moons.svg"" width=""175px"" height=""250px""></img></td>
    <td width=300 height=300><img src=""static/images/cards/back_of_black_moons.svg"" width=""175px"" height=""250px""></img></td>
  </tr>
  <tr height=200>
    <td width=300><img src=""static/images/keys/z.svg"" width=""35%"" height=""75%""></img></td>
    <td width=300><img src=""static/images/keys/m.svg"" width=""35%"" height=""75%""></img></td>
  </tr>
</table>
  ",90.0,,,,,,,,,,,,,,,,,,,,,,,,,1.0,,
230,0,,html-keyboard-response,230,563810,0.0-7.16-2.16,3s2nekuzz8a,2022-09-19 15:31:45.028,5fc74b5900f0a5079e03dbae,3,67,42,37,40,52,Male,,,"
  <table>
  <tr height=300>
    <td width=300 height=300><img src=""static/images/cards/8_of_black_moons.svg"" width=""175px"" height=""250px""></img></td>
    <td width=300 height=300><img src=""static/images/cards/back_of_black_moons.svg"" width=""175px"" height=""250px""></img></td>
  </tr>
  <tr height=200>
    <td width=300><img src=""static/images/keys/z.svg"" width=""35%"" height=""75%""></img></td>
    <td width=300><img src=""static/images/keys/m.svg"" width=""35%"" height=""75%""></img></td>
  </tr>
</table>
  ",,,,,,,,,,,,,,,,,,,,,,,,,,,,
231,0,,html-keyboard-response,231,565332,0.0-7.16-3.16,3s2nekuzz8a,2022-09-19 15:31:45.028,5fc74b5900f0a5079e03dbae,3,67,42,37,40,52,Male,,,"<p style=""font-size:50px"">You win!
+10 points this round!</p>",,,,,,,,,,,,,,,,,,,,,,,,,,,,
232,0,,html-keyboard-response,232,565843,0.0-7.16-4.16,3s2nekuzz8a,2022-09-19 15:31:45.028,5fc74b5900f0a5079e03dbae,3,67,42,37,40,52,Male,,,,,1.0,choice,16.0,A,C,black,black,moons,stars,A,C,A,black,moons,1556.5999999996,1.0,1.0,NA,left,1299.2000000011,8.0,1.0,1.0,,,,
233,0,,html-keyboard-response,233,567706,0.0-7.17-0.17,3s2nekuzz8a,2022-09-19 15:31:45.028,5fc74b5900f0a5079e03dbae,3,67,42,37,40,52,Male,1862.4000000004,,"
  <table>
  <tr height=300>
    <td width=300 height=300><img src=""static/images/cards/stack_of_black_moons.svg"" width=""175px"" height=""250px""></img></td>
    <td width=300 height=300><img src=""static/images/cards/stack_of_red_stars.svg"" width=""175px"" height=""250px""></img></td>
  </tr>
  <tr height=200>
    <td width=300><img src=""static/images/keys/w.svg"" width=""35%"" height=""75%""></img></td>
    <td width=300><img src=""static/images/keys/o.svg"" width=""35%"" height=""75%""></img></td>
  </tr>
</table>
  ",87.0,,,,,,,,,,,,,,,,,,,,,,,,,1.0,,
234,0,,html-keyboard-response,234,569327,0.0-7.17-1.17,3s2nekuzz8a,2022-09-19 15:31:45.028,5fc74b5900f0a5079e03dbae,3,67,42,37,40,52,Male,1111.7000000011,,"
  <table>
  <tr height=300>
    <td width=300 height=300><img src=""static/images/cards/back_of_black_moons.svg"" width=""175px"" height=""250px""></img></td>
    <td width=300 height=300><img src=""static/images/cards/back_of_black_moons.svg"" width=""175px"" height=""250px""></img></td>
  </tr>
  <tr height=200>
    <td width=300><img src=""static/images/keys/z.svg"" width=""35%"" height=""75%""></img></td>
    <td width=300><img src=""static/images/keys/m.svg"" width=""35%"" height=""75%""></img></td>
  </tr>
</table>
  ",90.0,,,,,,,,,,,,,,,,,,,,,,,,,1.0,,
235,0,,html-keyboard-response,235,570831,0.0-7.17-2.17,3s2nekuzz8a,2022-09-19 15:31:45.028,5fc74b5900f0a5079e03dbae,3,67,42,37,40,52,Male,,,"
  <table>
  <tr height=300>
