,index,success,trial_type,trial_index,time_elapsed,internal_node_id,subject,date,prol_id,ctbl,sense_of_control_A,sense_of_control_B,sense_of_control_C,sense_of_control_D,age,gender,rt,url,stimulus,key_press,npress,is_data_trial,phase,trial,deck1,deck2,col1,col2,sym1,sym2,deck_l,deck_r,chosen_deck,chosen_col,chosen_sym,deck_rt,choose_choice,mutual_info,hidden_key,chosen_card,card_rt,player_num,win_card,outcome,mock_rating,response,responses
0,0,1.0,fullscreen,0,22461,0.0-0.0,v2rlf75t1ut,2022-09-19 13:29:24.238,5d51a96b5054110015905fd9,1,86,6,85,7,52,Male,,,,,,,,,,,,,,,,,,,,,,,,,,,,,,,
1,0,,external-html,1,53657,0.0-1.0,v2rlf75t1ut,2022-09-19 13:29:24.238,5d51a96b5054110015905fd9,1,86,6,85,7,52,Male,31049.0,static/js/sub/consent.html,,,,,,,,,,,,,,,,,,,,,,,,,,,,,
2,0,,call-function,2,53659,0.0-2.0,v2rlf75t1ut,2022-09-19 13:29:24.238,5d51a96b5054110015905fd9,1,86,6,85,7,52,Male,,,,,,,,,,,,,,,,,,,,,,,,,,,,,,,
3,0,,image-keyboard-response,3,70251,0.0-3.0-0.0,v2rlf75t1ut,2022-09-19 13:29:24.238,5d51a96b5054110015905fd9,1,86,6,85,7,52,Male,16592.0,,static/images/instructions_CB_1/Slide1.png,39.0,,,,,,,,,,,,,,,,,,,,,,,,,,,
4,0,,image-keyboard-response,4,90782,0.0-3.1-0.1,v2rlf75t1ut,2022-09-19 13:29:24.238,5d51a96b5054110015905fd9,1,86,6,85,7,52,Male,20528.0,,static/images/instructions_CB_1/Slide2.png,39.0,,,,,,,,,,,,,,,,,,,,,,,,,,,
5,0,,image-keyboard-response,5,98438,0.0-3.2-0.2,v2rlf75t1ut,2022-09-19 13:29:24.238,5d51a96b5054110015905fd9,1,86,6,85,7,52,Male,7656.0,,static/images/instructions_CB_1/Slide3.png,39.0,,,,,,,,,,,,,,,,,,,,,,,,,,,
6,0,,image-keyboard-response,6,112504,0.0-3.3-0.3,v2rlf75t1ut,2022-09-19 13:29:24.238,5d51a96b5054110015905fd9,1,86,6,85,7,52,Male,14064.0,,static/images/instructions_CB_1/Slide4.png,39.0,,,,,,,,,,,,,,,,,,,,,,,,,,,
7,0,,image-keyboard-response,7,122322,0.0-3.4-0.4,v2rlf75t1ut,2022-09-19 13:29:24.238,5d51a96b5054110015905fd9,1,86,6,85,7,52,Male,9816.0,,static/images/instructions_CB_1/Slide5.png,39.0,,,,,,,,,,,,,,,,,,,,,,,,,,,
8,0,,image-keyboard-response,8,124873,0.0-3.5-0.5,v2rlf75t1ut,2022-09-19 13:29:24.238,5d51a96b5054110015905fd9,1,86,6,85,7,52,Male,2552.0,,static/images/instructions_CB_1/Slide6.png,39.0,,,,,,,,,,,,,,,,,,,,,,,,,,,
9,0,,image-keyboard-response,9,130546,0.0-3.6-0.6,v2rlf75t1ut,2022-09-19 13:29:24.238,5d51a96b5054110015905fd9,1,86,6,85,7,52,Male,5672.0,,static/images/instructions_CB_1/Slide7.png,39.0,,,,,,,,,,,,,,,,,,,,,,,,,,,
10,0,,image-keyboard-response,10,157525,0.0-3.7-0.7,v2rlf75t1ut,2022-09-19 13:29:24.238,5d51a96b5054110015905fd9,1,86,6,85,7,52,Male,26978.0,,static/images/instructions_CB_1/Slide8.png,39.0,,,,,,,,,,,,,,,,,,,,,,,,,,,
11,0,,image-keyboard-response,11,167855,0.0-3.8-0.8,v2rlf75t1ut,2022-09-19 13:29:24.238,5d51a96b5054110015905fd9,1,86,6,85,7,52,Male,10329.0,,static/images/instructions_CB_1/Slide9.png,39.0,,,,,,,,,,,,,,,,,,,,,,,,,,,
12,0,,image-keyboard-response,12,195378,0.0-3.9-0.9,v2rlf75t1ut,2022-09-19 13:29:24.238,5d51a96b5054110015905fd9,1,86,6,85,7,52,Male,27523.0,,static/images/instructions_CB_1/Slide10.png,39.0,,,,,,,,,,,,,,,,,,,,,,,,,,,
13,0,,image-keyboard-response,13,207067,0.0-3.10-0.10,v2rlf75t1ut,2022-09-19 13:29:24.238,5d51a96b5054110015905fd9,1,86,6,85,7,52,Male,11687.0,,static/images/instructions_CB_1/Slide11.png,39.0,,,,,,,,,,,,,,,,,,,,,,,,,,,
14,0,,image-keyboard-response,14,232319,0.0-3.11-0.11,v2rlf75t1ut,2022-09-19 13:29:24.238,5d51a96b5054110015905fd9,1,86,6,85,7,52,Male,25250.0,,static/images/instructions_CB_1/Slide12.png,39.0,,,,,,,,,,,,,,,,,,,,,,,,,,,
15,0,,image-keyboard-response,15,266818,0.0-3.12-0.12,v2rlf75t1ut,2022-09-19 13:29:24.238,5d51a96b5054110015905fd9,1,86,6,85,7,52,Male,34500.0,,static/images/instructions_CB_1/Slide13.png,39.0,,,,,,,,,,,,,,,,,,,,,,,,,,,
16,0,,image-keyboard-response,16,275587,0.0-3.13-0.13,v2rlf75t1ut,2022-09-19 13:29:24.238,5d51a96b5054110015905fd9,1,86,6,85,7,52,Male,8768.0,,static/images/instructions_CB_1/Slide14.png,37.0,,,,,,,,,,,,,,,,,,,,,,,,,,,
17,0,,image-keyboard-response,17,282508,0.0-3.14-0.14,v2rlf75t1ut,2022-09-19 13:29:24.238,5d51a96b5054110015905fd9,1,86,6,85,7,52,Male,6920.0,,static/images/instructions_CB_1/Slide13.png,39.0,,,,,,,,,,,,,,,,,,,,,,,,,,,
18,0,,image-keyboard-response,18,285156,0.0-3.15-0.15,v2rlf75t1ut,2022-09-19 13:29:24.238,5d51a96b5054110015905fd9,1,86,6,85,7,52,Male,2647.0,,static/images/instructions_CB_1/Slide14.png,39.0,,,,,,,,,,,,,,,,,,,,,,,,,,,
19,0,,image-keyboard-response,19,300318,0.0-3.16-0.16,v2rlf75t1ut,2022-09-19 13:29:24.238,5d51a96b5054110015905fd9,1,86,6,85,7,52,Male,15160.0,,static/images/instructions_CB_1/Slide15.png,39.0,,,,,,,,,,,,,,,,,,,,,,,,,,,
20,0,,image-keyboard-response,20,313272,0.0-3.17-0.17,v2rlf75t1ut,2022-09-19 13:29:24.238,5d51a96b5054110015905fd9,1,86,6,85,7,52,Male,12953.0,,static/images/instructions_CB_1/Slide16.png,39.0,,,,,,,,,,,,,,,,,,,,,,,,,,,
21,0,,image-keyboard-response,21,322666,0.0-3.18-0.18,v2rlf75t1ut,2022-09-19 13:29:24.238,5d51a96b5054110015905fd9,1,86,6,85,7,52,Male,9392.0,,static/images/instructions_CB_1/Slide17.png,39.0,,,,,,,,,,,,,,,,,,,,,,,,,,,
22,0,,image-keyboard-response,22,371367,0.0-3.19-0.19,v2rlf75t1ut,2022-09-19 13:29:24.238,5d51a96b5054110015905fd9,1,86,6,85,7,52,Male,48701.0,,static/images/instructions_CB_1/Slide18.png,37.0,,,,,,,,,,,,,,,,,,,,,,,,,,,
23,0,,image-keyboard-response,23,371886,0.0-3.20-0.20,v2rlf75t1ut,2022-09-19 13:29:24.238,5d51a96b5054110015905fd9,1,86,6,85,7,52,Male,520.0,,static/images/instructions_CB_1/Slide17.png,37.0,,,,,,,,,,,,,,,,,,,,,,,,,,,
24,0,,image-keyboard-response,24,372318,0.0-3.21-0.21,v2rlf75t1ut,2022-09-19 13:29:24.238,5d51a96b5054110015905fd9,1,86,6,85,7,52,Male,431.0,,static/images/instructions_CB_1/Slide16.png,37.0,,,,,,,,,,,,,,,,,,,,,,,,,,,
25,0,,image-keyboard-response,25,372959,0.0-3.22-0.22,v2rlf75t1ut,2022-09-19 13:29:24.238,5d51a96b5054110015905fd9,1,86,6,85,7,52,Male,639.0,,static/images/instructions_CB_1/Slide15.png,37.0,,,,,,,,,,,,,,,,,,,,,,,,,,,
26,0,,image-keyboard-response,26,376224,0.0-3.23-0.23,v2rlf75t1ut,2022-09-19 13:29:24.238,5d51a96b5054110015905fd9,1,86,6,85,7,52,Male,3263.0,,static/images/instructions_CB_1/Slide14.png,37.0,,,,,,,,,,,,,,,,,,,,,,,,,,,
27,0,,image-keyboard-response,27,378936,0.0-3.24-0.24,v2rlf75t1ut,2022-09-19 13:29:24.238,5d51a96b5054110015905fd9,1,86,6,85,7,52,Male,2712.0,,static/images/instructions_CB_1/Slide13.png,39.0,,,,,,,,,,,,,,,,,,,,,,,,,,,
28,0,,image-keyboard-response,28,382696,0.0-3.25-0.25,v2rlf75t1ut,2022-09-19 13:29:24.238,5d51a96b5054110015905fd9,1,86,6,85,7,52,Male,3760.0,,static/images/instructions_CB_1/Slide14.png,39.0,,,,,,,,,,,,,,,,,,,,,,,,,,,
29,0,,image-keyboard-response,29,383400,0.0-3.26-0.26,v2rlf75t1ut,2022-09-19 13:29:24.238,5d51a96b5054110015905fd9,1,86,6,85,7,52,Male,703.0,,static/images/instructions_CB_1/Slide15.png,39.0,,,,,,,,,,,,,,,,,,,,,,,,,,,
30,0,,image-keyboard-response,30,384433,0.0-3.27-0.27,v2rlf75t1ut,2022-09-19 13:29:24.238,5d51a96b5054110015905fd9,1,86,6,85,7,52,Male,1031.0,,static/images/instructions_CB_1/Slide16.png,39.0,,,,,,,,,,,,,,,,,,,,,,,,,,,
31,0,,image-keyboard-response,31,385048,0.0-3.28-0.28,v2rlf75t1ut,2022-09-19 13:29:24.238,5d51a96b5054110015905fd9,1,86,6,85,7,52,Male,616.0,,static/images/instructions_CB_1/Slide17.png,39.0,,,,,,,,,,,,,,,,,,,,,,,,,,,
32,0,,image-keyboard-response,32,397514,0.0-3.29-0.29,v2rlf75t1ut,2022-09-19 13:29:24.238,5d51a96b5054110015905fd9,1,86,6,85,7,52,Male,12464.0,,static/images/instructions_CB_1/Slide18.png,39.0,,,,,,,,,,,,,,,,,,,,,,,,,,,
33,0,,image-keyboard-response,33,406459,0.0-3.30-0.30,v2rlf75t1ut,2022-09-19 13:29:24.238,5d51a96b5054110015905fd9,1,86,6,85,7,52,Male,8943.0,,static/images/instructions_CB_1/Slide19.png,39.0,,,,,,,,,,,,,,,,,,,,,,,,,,,
34,0,,html-keyboard-response,34,407965,0.0-4.0-0.0,v2rlf75t1ut,2022-09-19 13:29:24.238,5d51a96b5054110015905fd9,1,86,6,85,7,52,Male,,,"<img src=""static/images/cards/stack_of_red_moons.svg"" width=""175px"" height=""250px""></img>",,,,,,,,,,,,,,,,,,,,,,,,,,,,
35,0,,html-keyboard-response,35,410204,0.0-4.0-1.0,v2rlf75t1ut,2022-09-19 13:29:24.238,5d51a96b5054110015905fd9,1,86,6,85,7,52,Male,1726.0,,"
  <table>
  <tr height=300>
    <td width=300 height=300><img src=""static/images/cards/back_of_red_moons.svg"" width=""175px"" height=""250px""></img></td>
    <td width=300 height=300><img src=""static/images/cards/back_of_red_moons.svg"" width=""175px"" height=""250px""></img></td>
  </tr>
  <tr height=200>
    <td width=300><img src=""static/images/keys/z.svg"" width=""35%"" height=""75%""></img></td>
    <td width=300><img src=""static/images/keys/m.svg"" width=""35%"" height=""75%""></img></td>
  </tr>
</table>
  ",77.0,1.0,,,,,,,,,,,,,,,,,,,,,,,,,,
36,0,,html-keyboard-response,36,411710,0.0-4.0-2.0,v2rlf75t1ut,2022-09-19 13:29:24.238,5d51a96b5054110015905fd9,1,86,6,85,7,52,Male,,,"
  <table>
  <tr height=300>
    <td width=300 height=300><img src=""static/images/cards/back_of_red_moons.svg"" width=""175px"" height=""250px""></img></td>
    <td width=300 height=300><img src=""static/images/cards/3_of_red_moons.svg"" width=""175px"" height=""250px""></img></td>
  </tr>
  <tr height=200>
    <td width=300><img src=""static/images/keys/z.svg"" width=""35%"" height=""75%""></img></td>
    <td width=300><img src=""static/images/keys/m.svg"" width=""35%"" height=""75%""></img></td>
  </tr>
</table>
  ",,,,,,,,,,,,,,,,,,,,,,,,,,,,
37,0,,html-keyboard-response,37,413222,0.0-4.0-3.0,v2rlf75t1ut,2022-09-19 13:29:24.238,5d51a96b5054110015905fd9,1,86,6,85,7,52,Male,,,"<p style=""font-size:50px"">You Lose!
No points this round.</p>",,,,,,,,,,,,,,,,,,,,,,,,,,,,
38,0,,html-keyboard-response,38,413747,0.0-4.0-4.0,v2rlf75t1ut,2022-09-19 13:29:24.238,5d51a96b5054110015905fd9,1,86,6,85,7,52,Male,,,,,,1.0,learning,0.0,A,,red,,moons,,,,A,red,moons,,1.0,1.0,NA,right,1726.0,3.0,0.0,0.0,,,
39,0,,html-keyboard-response,39,415259,0.0-4.1-0.1,v2rlf75t1ut,2022-09-19 13:29:24.238,5d51a96b5054110015905fd9,1,86,6,85,7,52,Male,,,"<img src=""static/images/cards/stack_of_black_moons.svg"" width=""175px"" height=""250px""></img>",,,,,,,,,,,,,,,,,,,,,,,,,,,,
40,0,,html-keyboard-response,40,416548,0.0-4.1-1.1,v2rlf75t1ut,2022-09-19 13:29:24.238,5d51a96b5054110015905fd9,1,86,6,85,7,52,Male,778.0,,"
  <table>
  <tr height=300>
    <td width=300 height=300><img src=""static/images/cards/back_of_black_moons.svg"" width=""175px"" height=""250px""></img></td>
    <td width=300 height=300><img src=""static/images/cards/back_of_black_moons.svg"" width=""175px"" height=""250px""></img></td>
  </tr>
  <tr height=200>
    <td width=300><img src=""static/images/keys/z.svg"" width=""35%"" height=""75%""></img></td>
    <td width=300></td>
  </tr>
</table>
  ",90.0,1.0,,,,,,,,,,,,,,,,,,,,,,,,,,
41,0,,html-keyboard-response,41,418051,0.0-4.1-2.1,v2rlf75t1ut,2022-09-19 13:29:24.238,5d51a96b5054110015905fd9,1,86,6,85,7,52,Male,,,"
  <table>
  <tr height=300>
    <td width=300 height=300><img src=""static/images/cards/4_of_black_moons.svg"" width=""175px"" height=""250px""></img></td>
    <td width=300 height=300><img src=""static/images/cards/back_of_black_moons.svg"" width=""175px"" height=""250px""></img></td>
  </tr>
  <tr height=200>
    <td width=300><img src=""static/images/keys/z.svg"" width=""35%"" height=""75%""></img></td>
    <td width=300></td>
  </tr>
</table>
  ",,,,,,,,,,,,,,,,,,,,,,,,,,,,
42,0,,html-keyboard-response,42,419563,0.0-4.1-3.1,v2rlf75t1ut,2022-09-19 13:29:24.238,5d51a96b5054110015905fd9,1,86,6,85,7,52,Male,,,"<p style=""font-size:50px"">You Lose!
No points this round.</p>",,,,,,,,,,,,,,,,,,,,,,,,,,,,
43,0,,html-keyboard-response,43,420088,0.0-4.1-4.1,v2rlf75t1ut,2022-09-19 13:29:24.238,5d51a96b5054110015905fd9,1,86,6,85,7,52,Male,,,,,,1.0,learning,1.0,B,,black,,moons,,,,B,black,moons,,0.0,1.0,1,left,778.0,4.0,0.0,0.0,,,
44,0,,html-keyboard-response,44,421593,0.0-4.2-0.2,v2rlf75t1ut,2022-09-19 13:29:24.238,5d51a96b5054110015905fd9,1,86,6,85,7,52,Male,,,"<img src=""static/images/cards/stack_of_red_stars.svg"" width=""175px"" height=""250px""></img>",,,,,,,,,,,,,,,,,,,,,,,,,,,,
45,0,,html-keyboard-response,45,423085,0.0-4.2-1.2,v2rlf75t1ut,2022-09-19 13:29:24.238,5d51a96b5054110015905fd9,1,86,6,85,7,52,Male,981.0,,"
  <table>
  <tr height=300>
    <td width=300 height=300><img src=""static/images/cards/back_of_red_stars.svg"" width=""175px"" height=""250px""></img></td>
    <td width=300 height=300><img src=""static/images/cards/back_of_red_stars.svg"" width=""175px"" height=""250px""></img></td>
  </tr>
  <tr height=200>
    <td width=300><img src=""static/images/keys/z.svg"" width=""35%"" height=""75%""></img></td>
    <td width=300><img src=""static/images/keys/m.svg"" width=""35%"" height=""75%""></img></td>
  </tr>
</table>
  ",77.0,1.0,,,,,,,,,,,,,,,,,,,,,,,,,,
46,0,,html-keyboard-response,46,424597,0.0-4.2-2.2,v2rlf75t1ut,2022-09-19 13:29:24.238,5d51a96b5054110015905fd9,1,86,6,85,7,52,Male,,,"
  <table>
  <tr height=300>
    <td width=300 height=300><img src=""static/images/cards/back_of_red_stars.svg"" width=""175px"" height=""250px""></img></td>
    <td width=300 height=300><img src=""static/images/cards/4_of_red_stars.svg"" width=""175px"" height=""250px""></img></td>
  </tr>
  <tr height=200>
    <td width=300><img src=""static/images/keys/z.svg"" width=""35%"" height=""75%""></img></td>
    <td width=300><img src=""static/images/keys/m.svg"" width=""35%"" height=""75%""></img></td>
  </tr>
</table>
  ",,,,,,,,,,,,,,,,,,,,,,,,,,,,
47,0,,html-keyboard-response,47,426101,0.0-4.2-3.2,v2rlf75t1ut,2022-09-19 13:29:24.238,5d51a96b5054110015905fd9,1,86,6,85,7,52,Male,,,"<p style=""font-size:50px"">You Lose!
No points this round.</p>",,,,,,,,,,,,,,,,,,,,,,,,,,,,
48,0,,html-keyboard-response,48,426624,0.0-4.2-4.2,v2rlf75t1ut,2022-09-19 13:29:24.238,5d51a96b5054110015905fd9,1,86,6,85,7,52,Male,,,,,,1.0,learning,2.0,C,,red,,stars,,,,C,red,stars,,1.0,0.0,NA,right,981.0,4.0,0.0,0.0,,,
49,0,,html-keyboard-response,49,428128,0.0-4.3-0.3,v2rlf75t1ut,2022-09-19 13:29:24.238,5d51a96b5054110015905fd9,1,86,6,85,7,52,Male,,,"<img src=""static/images/cards/stack_of_black_stars.svg"" width=""175px"" height=""250px""></img>",,,,,,,,,,,,,,,,,,,,,,,,,,,,
50,0,,html-keyboard-response,50,429606,0.0-4.3-1.3,v2rlf75t1ut,2022-09-19 13:29:24.238,5d51a96b5054110015905fd9,1,86,6,85,7,52,Male,975.0,,"
  <table>
  <tr height=300>
    <td width=300 height=300><img src=""static/images/cards/back_of_black_stars.svg"" width=""175px"" height=""250px""></img></td>
    <td width=300 height=300><img src=""static/images/cards/back_of_black_stars.svg"" width=""175px"" height=""250px""></img></td>
  </tr>
  <tr height=200>
    <td width=300><img src=""static/images/keys/z.svg"" width=""35%"" height=""75%""></img></td>
    <td width=300></td>
  </tr>
</table>
  ",90.0,1.0,,,,,,,,,,,,,,,,,,,,,,,,,,
51,0,,html-keyboard-response,51,431114,0.0-4.3-2.3,v2rlf75t1ut,2022-09-19 13:29:24.238,5d51a96b5054110015905fd9,1,86,6,85,7,52,Male,,,"
  <table>
  <tr height=300>
    <td width=300 height=300><img src=""static/images/cards/1_of_black_stars.svg"" width=""175px"" height=""250px""></img></td>
    <td width=300 height=300><img src=""static/images/cards/back_of_black_stars.svg"" width=""175px"" height=""250px""></img></td>
  </tr>
  <tr height=200>
    <td width=300><img src=""static/images/keys/z.svg"" width=""35%"" height=""75%""></img></td>
    <td width=300></td>
  </tr>
</table>
  ",,,,,,,,,,,,,,,,,,,,,,,,,,,,
52,0,,html-keyboard-response,52,432618,0.0-4.3-3.3,v2rlf75t1ut,2022-09-19 13:29:24.238,5d51a96b5054110015905fd9,1,86,6,85,7,52,Male,,,"<p style=""font-size:50px"">You Lose!
No points this round.</p>",,,,,,,,,,,,,,,,,,,,,,,,,,,,
53,0,,html-keyboard-response,53,433142,0.0-4.3-4.3,v2rlf75t1ut,2022-09-19 13:29:24.238,5d51a96b5054110015905fd9,1,86,6,85,7,52,Male,,,,,,1.0,learning,3.0,D,,black,,stars,,,,D,black,stars,,0.0,0.0,1,left,975.0,1.0,0.0,0.0,,,
54,0,,html-keyboard-response,54,434645,0.0-4.4-0.4,v2rlf75t1ut,2022-09-19 13:29:24.238,5d51a96b5054110015905fd9,1,86,6,85,7,52,Male,,,"<img src=""static/images/cards/stack_of_red_bolts.svg"" width=""175px"" height=""250px""></img>",,,,,,,,,,,,,,,,,,,,,,,,,,,,
55,0,,html-keyboard-response,55,435870,0.0-4.4-1.4,v2rlf75t1ut,2022-09-19 13:29:24.238,5d51a96b5054110015905fd9,1,86,6,85,7,52,Male,723.0,,"
  <table>
  <tr height=300>
    <td width=300 height=300><img src=""static/images/cards/back_of_red_bolts.svg"" width=""175px"" height=""250px""></img></td>
    <td width=300 height=300><img src=""static/images/cards/back_of_red_bolts.svg"" width=""175px"" height=""250px""></img></td>
  </tr>
  <tr height=200>
    <td width=300><img src=""static/images/keys/z.svg"" width=""35%"" height=""75%""></img></td>
    <td width=300><img src=""static/images/keys/m.svg"" width=""35%"" height=""75%""></img></td>
  </tr>
</table>
  ",90.0,1.0,,,,,,,,,,,,,,,,,,,,,,,,,,
56,0,,html-keyboard-response,56,437374,0.0-4.4-2.4,v2rlf75t1ut,2022-09-19 13:29:24.238,5d51a96b5054110015905fd9,1,86,6,85,7,52,Male,,,"
  <table>
  <tr height=300>
    <td width=300 height=300><img src=""static/images/cards/2_of_red_bolts.svg"" width=""175px"" height=""250px""></img></td>
    <td width=300 height=300><img src=""static/images/cards/back_of_red_bolts.svg"" width=""175px"" height=""250px""></img></td>
  </tr>
  <tr height=200>
    <td width=300><img src=""static/images/keys/z.svg"" width=""35%"" height=""75%""></img></td>
    <td width=300><img src=""static/images/keys/m.svg"" width=""35%"" height=""75%""></img></td>
  </tr>
</table>
  ",,,,,,,,,,,,,,,,,,,,,,,,,,,,
57,0,,html-keyboard-response,57,438879,0.0-4.4-3.4,v2rlf75t1ut,2022-09-19 13:29:24.238,5d51a96b5054110015905fd9,1,86,6,85,7,52,Male,,,"<p style=""font-size:50px"">You win!
+10 points this round!</p>",,,,,,,,,,,,,,,,,,,,,,,,,,,,
58,0,,html-keyboard-response,58,439391,0.0-4.4-4.4,v2rlf75t1ut,2022-09-19 13:29:24.238,5d51a96b5054110015905fd9,1,86,6,85,7,52,Male,,,,,,1.0,learning,4.0,Xc,,red,,bolts,,,,Xc,red,bolts,,1.0,0.0,NA,left,723.0,2.0,0.0,1.0,,,
59,0,,html-keyboard-response,59,440903,0.0-4.5-0.5,v2rlf75t1ut,2022-09-19 13:29:24.238,5d51a96b5054110015905fd9,1,86,6,85,7,52,Male,,,"<img src=""static/images/cards/stack_of_black_bolts.svg"" width=""175px"" height=""250px""></img>",,,,,,,,,,,,,,,,,,,,,,,,,,,,
60,0,,html-keyboard-response,60,442344,0.0-4.5-1.5,v2rlf75t1ut,2022-09-19 13:29:24.238,5d51a96b5054110015905fd9,1,86,6,85,7,52,Male,931.0,,"
  <table>
  <tr height=300>
    <td width=300 height=300><img src=""static/images/cards/back_of_black_bolts.svg"" width=""175px"" height=""250px""></img></td>
    <td width=300 height=300><img src=""static/images/cards/back_of_black_bolts.svg"" width=""175px"" height=""250px""></img></td>
  </tr>
  <tr height=200>
    <td width=300></td>
    <td width=300><img src=""static/images/keys/m.svg"" width=""35%"" height=""75%""></img></td>
  </tr>
</table>
  ",77.0,1.0,,,,,,,,,,,,,,,,,,,,,,,,,,
61,0,,html-keyboard-response,61,443852,0.0-4.5-2.5,v2rlf75t1ut,2022-09-19 13:29:24.238,5d51a96b5054110015905fd9,1,86,6,85,7,52,Male,,,"
  <table>
  <tr height=300>
    <td width=300 height=300><img src=""static/images/cards/back_of_black_bolts.svg"" width=""175px"" height=""250px""></img></td>
    <td width=300 height=300><img src=""static/images/cards/10_of_black_bolts.svg"" width=""175px"" height=""250px""></img></td>
  </tr>
  <tr height=200>
    <td width=300></td>
    <td width=300><img src=""static/images/keys/m.svg"" width=""35%"" height=""75%""></img></td>
  </tr>
</table>
  ",,,,,,,,,,,,,,,,,,,,,,,,,,,,
62,0,,html-keyboard-response,62,445368,0.0-4.5-3.5,v2rlf75t1ut,2022-09-19 13:29:24.238,5d51a96b5054110015905fd9,1,86,6,85,7,52,Male,,,"<p style=""font-size:50px"">You win!
+10 points this round!</p>",,,,,,,,,,,,,,,,,,,,,,,,,,,,
63,0,,html-keyboard-response,63,445893,0.0-4.5-4.5,v2rlf75t1ut,2022-09-19 13:29:24.238,5d51a96b5054110015905fd9,1,86,6,85,7,52,Male,,,,,,1.0,learning,5.0,Xnc,,black,,bolts,,,,Xnc,black,bolts,,0.0,0.0,0,right,931.0,10.0,1.0,1.0,,,
64,0,,html-keyboard-response,64,447398,0.0-4.6-0.6,v2rlf75t1ut,2022-09-19 13:29:24.238,5d51a96b5054110015905fd9,1,86,6,85,7,52,Male,,,"<img src=""static/images/cards/stack_of_red_moons.svg"" width=""175px"" height=""250px""></img>",,,,,,,,,,,,,,,,,,,,,,,,,,,,
65,0,,html-keyboard-response,65,448632,0.0-4.6-1.6,v2rlf75t1ut,2022-09-19 13:29:24.238,5d51a96b5054110015905fd9,1,86,6,85,7,52,Male,722.0,,"
  <table>
  <tr height=300>
    <td width=300 height=300><img src=""static/images/cards/back_of_red_moons.svg"" width=""175px"" height=""250px""></img></td>
    <td width=300 height=300><img src=""static/images/cards/back_of_red_moons.svg"" width=""175px"" height=""250px""></img></td>
  </tr>
  <tr height=200>
    <td width=300><img src=""static/images/keys/z.svg"" width=""35%"" height=""75%""></img></td>
    <td width=300><img src=""static/images/keys/m.svg"" width=""35%"" height=""75%""></img></td>
  </tr>
</table>
  ",90.0,1.0,,,,,,,,,,,,,,,,,,,,,,,,,,
66,0,,html-keyboard-response,66,450146,0.0-4.6-2.6,v2rlf75t1ut,2022-09-19 13:29:24.238,5d51a96b5054110015905fd9,1,86,6,85,7,52,Male,,,"
  <table>
  <tr height=300>
    <td width=300 height=300><img src=""static/images/cards/7_of_red_moons.svg"" width=""175px"" height=""250px""></img></td>
    <td width=300 height=300><img src=""static/images/cards/back_of_red_moons.svg"" width=""175px"" height=""250px""></img></td>
  </tr>
  <tr height=200>
    <td width=300><img src=""static/images/keys/z.svg"" width=""35%"" height=""75%""></img></td>
    <td width=300><img src=""static/images/keys/m.svg"" width=""35%"" height=""75%""></img></td>
  </tr>
</table>
  ",,,,,,,,,,,,,,,,,,,,,,,,,,,,
67,0,,html-keyboard-response,67,451666,0.0-4.6-3.6,v2rlf75t1ut,2022-09-19 13:29:24.238,5d51a96b5054110015905fd9,1,86,6,85,7,52,Male,,,"<p style=""font-size:50px"">You win!
+10 points this round!</p>",,,,,,,,,,,,,,,,,,,,,,,,,,,,
68,0,,html-keyboard-response,68,452194,0.0-4.6-4.6,v2rlf75t1ut,2022-09-19 13:29:24.238,5d51a96b5054110015905fd9,1,86,6,85,7,52,Male,,,,,,1.0,learning,6.0,A,,red,,moons,,,,A,red,moons,,1.0,1.0,NA,left,722.0,7.0,1.0,1.0,,,
69,0,,html-keyboard-response,69,453707,0.0-4.7-0.7,v2rlf75t1ut,2022-09-19 13:29:24.238,5d51a96b5054110015905fd9,1,86,6,85,7,52,Male,,,"<img src=""static/images/cards/stack_of_black_moons.svg"" width=""175px"" height=""250px""></img>",,,,,,,,,,,,,,,,,,,,,,,,,,,,
70,0,,html-keyboard-response,70,454921,0.0-4.7-1.7,v2rlf75t1ut,2022-09-19 13:29:24.238,5d51a96b5054110015905fd9,1,86,6,85,7,52,Male,701.0,,"
  <table>
  <tr height=300>
    <td width=300 height=300><img src=""static/images/cards/back_of_black_moons.svg"" width=""175px"" height=""250px""></img></td>
    <td width=300 height=300><img src=""static/images/cards/back_of_black_moons.svg"" width=""175px"" height=""250px""></img></td>
  </tr>
  <tr height=200>
    <td width=300></td>
    <td width=300><img src=""static/images/keys/m.svg"" width=""35%"" height=""75%""></img></td>
  </tr>
</table>
  ",77.0,1.0,,,,,,,,,,,,,,,,,,,,,,,,,,
71,0,,html-keyboard-response,71,456428,0.0-4.7-2.7,v2rlf75t1ut,2022-09-19 13:29:24.238,5d51a96b5054110015905fd9,1,86,6,85,7,52,Male,,,"
  <table>
  <tr height=300>
    <td width=300 height=300><img src=""static/images/cards/back_of_black_moons.svg"" width=""175px"" height=""250px""></img></td>
    <td width=300 height=300><img src=""static/images/cards/2_of_black_moons.svg"" width=""175px"" height=""250px""></img></td>
  </tr>
  <tr height=200>
    <td width=300></td>
    <td width=300><img src=""static/images/keys/m.svg"" width=""35%"" height=""75%""></img></td>
  </tr>
</table>
  ",,,,,,,,,,,,,,,,,,,,,,,,,,,,
72,0,,html-keyboard-response,72,457948,0.0-4.7-3.7,v2rlf75t1ut,2022-09-19 13:29:24.238,5d51a96b5054110015905fd9,1,86,6,85,7,52,Male,,,"<p style=""font-size:50px"">You Lose!
No points this round.</p>",,,,,,,,,,,,,,,,,,,,,,,,,,,,
73,0,,html-keyboard-response,73,458476,0.0-4.7-4.7,v2rlf75t1ut,2022-09-19 13:29:24.238,5d51a96b5054110015905fd9,1,86,6,85,7,52,Male,,,,,,1.0,learning,7.0,B,,black,,moons,,,,B,black,moons,,0.0,1.0,0,right,701.0,2.0,0.0,0.0,,,
74,0,,html-keyboard-response,74,459985,0.0-4.8-0.8,v2rlf75t1ut,2022-09-19 13:29:24.238,5d51a96b5054110015905fd9,1,86,6,85,7,52,Male,,,"<img src=""static/images/cards/stack_of_red_stars.svg"" width=""175px"" height=""250px""></img>",,,,,,,,,,,,,,,,,,,,,,,,,,,,
75,0,,html-keyboard-response,75,461265,0.0-4.8-1.8,v2rlf75t1ut,2022-09-19 13:29:24.238,5d51a96b5054110015905fd9,1,86,6,85,7,52,Male,772.0,,"
  <table>
  <tr height=300>
    <td width=300 height=300><img src=""static/images/cards/back_of_red_stars.svg"" width=""175px"" height=""250px""></img></td>
    <td width=300 height=300><img src=""static/images/cards/back_of_red_stars.svg"" width=""175px"" height=""250px""></img></td>
  </tr>
  <tr height=200>
    <td width=300><img src=""static/images/keys/z.svg"" width=""35%"" height=""75%""></img></td>
    <td width=300><img src=""static/images/keys/m.svg"" width=""35%"" height=""75%""></img></td>
  </tr>
</table>
  ",90.0,1.0,,,,,,,,,,,,,,,,,,,,,,,,,,
76,0,,html-keyboard-response,76,462781,0.0-4.8-2.8,v2rlf75t1ut,2022-09-19 13:29:24.238,5d51a96b5054110015905fd9,1,86,6,85,7,52,Male,,,"
  <table>
  <tr height=300>
    <td width=300 height=300><img src=""static/images/cards/8_of_red_stars.svg"" width=""175px"" height=""250px""></img></td>
    <td width=300 height=300><img src=""static/images/cards/back_of_red_stars.svg"" width=""175px"" height=""250px""></img></td>
  </tr>
  <tr height=200>
    <td width=300><img src=""static/images/keys/z.svg"" width=""35%"" height=""75%""></img></td>
    <td width=300><img src=""static/images/keys/m.svg"" width=""35%"" height=""75%""></img></td>
  </tr>
</table>
  ",,,,,,,,,,,,,,,,,,,,,,,,,,,,
77,0,,html-keyboard-response,77,464294,0.0-4.8-3.8,v2rlf75t1ut,2022-09-19 13:29:24.238,5d51a96b5054110015905fd9,1,86,6,85,7,52,Male,,,"<p style=""font-size:50px"">You Lose!
No points this round.</p>",,,,,,,,,,,,,,,,,,,,,,,,,,,,
78,0,,html-keyboard-response,78,464822,0.0-4.8-4.8,v2rlf75t1ut,2022-09-19 13:29:24.238,5d51a96b5054110015905fd9,1,86,6,85,7,52,Male,,,,,,1.0,learning,8.0,C,,red,,stars,,,,C,red,stars,,1.0,0.0,NA,left,772.0,8.0,1.0,0.0,,,
79,0,,html-keyboard-response,79,466322,0.0-4.9-0.9,v2rlf75t1ut,2022-09-19 13:29:24.238,5d51a96b5054110015905fd9,1,86,6,85,7,52,Male,,,"<img src=""static/images/cards/stack_of_black_stars.svg"" width=""175px"" height=""250px""></img>",,,,,,,,,,,,,,,,,,,,,,,,,,,,
80,0,,html-keyboard-response,80,467500,0.0-4.9-1.9,v2rlf75t1ut,2022-09-19 13:29:24.238,5d51a96b5054110015905fd9,1,86,6,85,7,52,Male,665.0,,"
  <table>
  <tr height=300>
    <td width=300 height=300><img src=""static/images/cards/back_of_black_stars.svg"" width=""175px"" height=""250px""></img></td>
    <td width=300 height=300><img src=""static/images/cards/back_of_black_stars.svg"" width=""175px"" height=""250px""></img></td>
  </tr>
  <tr height=200>
    <td width=300></td>
    <td width=300><img src=""static/images/keys/m.svg"" width=""35%"" height=""75%""></img></td>
  </tr>
</table>
  ",77.0,1.0,,,,,,,,,,,,,,,,,,,,,,,,,,
81,0,,html-keyboard-response,81,469005,0.0-4.9-2.9,v2rlf75t1ut,2022-09-19 13:29:24.238,5d51a96b5054110015905fd9,1,86,6,85,7,52,Male,,,"
  <table>
  <tr height=300>
    <td width=300 height=300><img src=""static/images/cards/back_of_black_stars.svg"" width=""175px"" height=""250px""></img></td>
    <td width=300 height=300><img src=""static/images/cards/3_of_black_stars.svg"" width=""175px"" height=""250px""></img></td>
  </tr>
  <tr height=200>
    <td width=300></td>
    <td width=300><img src=""static/images/keys/m.svg"" width=""35%"" height=""75%""></img></td>
  </tr>
</table>
  ",,,,,,,,,,,,,,,,,,,,,,,,,,,,
82,0,,html-keyboard-response,82,470511,0.0-4.9-3.9,v2rlf75t1ut,2022-09-19 13:29:24.238,5d51a96b5054110015905fd9,1,86,6,85,7,52,Male,,,"<p style=""font-size:50px"">You win!
+10 points this round!</p>",,,,,,,,,,,,,,,,,,,,,,,,,,,,
83,0,,html-keyboard-response,83,471041,0.0-4.9-4.9,v2rlf75t1ut,2022-09-19 13:29:24.238,5d51a96b5054110015905fd9,1,86,6,85,7,52,Male,,,,,,1.0,learning,9.0,D,,black,,stars,,,,D,black,stars,,0.0,0.0,0,right,665.0,3.0,0.0,1.0,,,
84,0,,html-keyboard-response,84,472545,0.0-4.10-0.10,v2rlf75t1ut,2022-09-19 13:29:24.238,5d51a96b5054110015905fd9,1,86,6,85,7,52,Male,,,"<img src=""static/images/cards/stack_of_red_bolts.svg"" width=""175px"" height=""250px""></img>",,,,,,,,,,,,,,,,,,,,,,,,,,,,
85,0,,html-keyboard-response,85,474355,0.0-4.10-1.10,v2rlf75t1ut,2022-09-19 13:29:24.238,5d51a96b5054110015905fd9,1,86,6,85,7,52,Male,1308.0,,"
  <table>
  <tr height=300>
    <td width=300 height=300><img src=""static/images/cards/back_of_red_bolts.svg"" width=""175px"" height=""250px""></img></td>
    <td width=300 height=300><img src=""static/images/cards/back_of_red_bolts.svg"" width=""175px"" height=""250px""></img></td>
  </tr>
  <tr height=200>
    <td width=300><img src=""static/images/keys/z.svg"" width=""35%"" height=""75%""></img></td>
    <td width=300><img src=""static/images/keys/m.svg"" width=""35%"" height=""75%""></img></td>
  </tr>
</table>
  ",90.0,1.0,,,,,,,,,,,,,,,,,,,,,,,,,,
86,0,,html-keyboard-response,86,475870,0.0-4.10-2.10,v2rlf75t1ut,2022-09-19 13:29:24.238,5d51a96b5054110015905fd9,1,86,6,85,7,52,Male,,,"
  <table>
  <tr height=300>
    <td width=300 height=300><img src=""static/images/cards/8_of_red_bolts.svg"" width=""175px"" height=""250px""></img></td>
    <td width=300 height=300><img src=""static/images/cards/back_of_red_bolts.svg"" width=""175px"" height=""250px""></img></td>
  </tr>
  <tr height=200>
    <td width=300><img src=""static/images/keys/z.svg"" width=""35%"" height=""75%""></img></td>
    <td width=300><img src=""static/images/keys/m.svg"" width=""35%"" height=""75%""></img></td>
  </tr>
</table>
  ",,,,,,,,,,,,,,,,,,,,,,,,,,,,
87,0,,html-keyboard-response,87,477373,0.0-4.10-3.10,v2rlf75t1ut,2022-09-19 13:29:24.238,5d51a96b5054110015905fd9,1,86,6,85,7,52,Male,,,"<p style=""font-size:50px"">You win!
+10 points this round!</p>",,,,,,,,,,,,,,,,,,,,,,,,,,,,
88,0,,html-keyboard-response,88,477897,0.0-4.10-4.10,v2rlf75t1ut,2022-09-19 13:29:24.238,5d51a96b5054110015905fd9,1,86,6,85,7,52,Male,,,,,,1.0,learning,10.0,Xc,,red,,bolts,,,,Xc,red,bolts,,1.0,0.0,NA,left,1308.0,8.0,1.0,1.0,,,
89,0,,html-keyboard-response,89,479401,0.0-4.11-0.11,v2rlf75t1ut,2022-09-19 13:29:24.238,5d51a96b5054110015905fd9,1,86,6,85,7,52,Male,,,"<img src=""static/images/cards/stack_of_black_bolts.svg"" width=""175px"" height=""250px""></img>",,,,,,,,,,,,,,,,,,,,,,,,,,,,
90,0,,html-keyboard-response,90,480556,0.0-4.11-1.11,v2rlf75t1ut,2022-09-19 13:29:24.238,5d51a96b5054110015905fd9,1,86,6,85,7,52,Male,652.0,,"
  <table>
  <tr height=300>
    <td width=300 height=300><img src=""static/images/cards/back_of_black_bolts.svg"" width=""175px"" height=""250px""></img></td>
    <td width=300 height=300><img src=""static/images/cards/back_of_black_bolts.svg"" width=""175px"" height=""250px""></img></td>
  </tr>
  <tr height=200>
    <td width=300><img src=""static/images/keys/z.svg"" width=""35%"" height=""75%""></img></td>
    <td width=300></td>
  </tr>
</table>
  ",90.0,1.0,,,,,,,,,,,,,,,,,,,,,,,,,,
91,0,,html-keyboard-response,91,482071,0.0-4.11-2.11,v2rlf75t1ut,2022-09-19 13:29:24.238,5d51a96b5054110015905fd9,1,86,6,85,7,52,Male,,,"
  <table>
  <tr height=300>
    <td width=300 height=300><img src=""static/images/cards/6_of_black_bolts.svg"" width=""175px"" height=""250px""></img></td>
    <td width=300 height=300><img src=""static/images/cards/back_of_black_bolts.svg"" width=""175px"" height=""250px""></img></td>
  </tr>
  <tr height=200>
    <td width=300><img src=""static/images/keys/z.svg"" width=""35%"" height=""75%""></img></td>
    <td width=300></td>
  </tr>
</table>
  ",,,,,,,,,,,,,,,,,,,,,,,,,,,,
92,0,,html-keyboard-response,92,483575,0.0-4.11-3.11,v2rlf75t1ut,2022-09-19 13:29:24.238,5d51a96b5054110015905fd9,1,86,6,85,7,52,Male,,,"<p style=""font-size:50px"">You win!
+10 points this round!</p>",,,,,,,,,,,,,,,,,,,,,,,,,,,,
93,0,,html-keyboard-response,93,484092,0.0-4.11-4.11,v2rlf75t1ut,2022-09-19 13:29:24.238,5d51a96b5054110015905fd9,1,86,6,85,7,52,Male,,,,,,1.0,learning,11.0,Xnc,,black,,bolts,,,,Xnc,black,bolts,,0.0,0.0,1,left,652.0,6.0,1.0,1.0,,,
94,0,,html-keyboard-response,94,485597,0.0-4.12-0.12,v2rlf75t1ut,2022-09-19 13:29:24.238,5d51a96b5054110015905fd9,1,86,6,85,7,52,Male,,,"<img src=""static/images/cards/stack_of_red_moons.svg"" width=""175px"" height=""250px""></img>",,,,,,,,,,,,,,,,,,,,,,,,,,,,
95,0,,html-keyboard-response,95,486701,0.0-4.12-1.12,v2rlf75t1ut,2022-09-19 13:29:24.238,5d51a96b5054110015905fd9,1,86,6,85,7,52,Male,603.0,,"
  <table>
  <tr height=300>
    <td width=300 height=300><img src=""static/images/cards/back_of_red_moons.svg"" width=""175px"" height=""250px""></img></td>
    <td width=300 height=300><img src=""static/images/cards/back_of_red_moons.svg"" width=""175px"" height=""250px""></img></td>
  </tr>
  <tr height=200>
    <td width=300><img src=""static/images/keys/z.svg"" width=""35%"" height=""75%""></img></td>
    <td width=300><img src=""static/images/keys/m.svg"" width=""35%"" height=""75%""></img></td>
  </tr>
</table>
  ",90.0,1.0,,,,,,,,,,,,,,,,,,,,,,,,,,
96,0,,html-keyboard-response,96,488203,0.0-4.12-2.12,v2rlf75t1ut,2022-09-19 13:29:24.238,5d51a96b5054110015905fd9,1,86,6,85,7,52,Male,,,"
  <table>
  <tr height=300>
    <td width=300 height=300><img src=""static/images/cards/1_of_red_moons.svg"" width=""175px"" height=""250px""></img></td>
    <td width=300 height=300><img src=""static/images/cards/back_of_red_moons.svg"" width=""175px"" height=""250px""></img></td>
  </tr>
  <tr height=200>
    <td width=300><img src=""static/images/keys/z.svg"" width=""35%"" height=""75%""></img></td>
    <td width=300><img src=""static/images/keys/m.svg"" width=""35%"" height=""75%""></img></td>
  </tr>
</table>
  ",,,,,,,,,,,,,,,,,,,,,,,,,,,,
97,0,,html-keyboard-response,97,489707,0.0-4.12-3.12,v2rlf75t1ut,2022-09-19 13:29:24.238,5d51a96b5054110015905fd9,1,86,6,85,7,52,Male,,,"<p style=""font-size:50px"">You Lose!
No points this round.</p>",,,,,,,,,,,,,,,,,,,,,,,,,,,,
98,0,,html-keyboard-response,98,490231,0.0-4.12-4.12,v2rlf75t1ut,2022-09-19 13:29:24.238,5d51a96b5054110015905fd9,1,86,6,85,7,52,Male,,,,,,1.0,learning,12.0,A,,red,,moons,,,,A,red,moons,,1.0,1.0,NA,left,603.0,1.0,0.0,0.0,,,
99,0,,html-keyboard-response,99,491734,0.0-4.13-0.13,v2rlf75t1ut,2022-09-19 13:29:24.238,5d51a96b5054110015905fd9,1,86,6,85,7,52,Male,,,"<img src=""static/images/cards/stack_of_black_moons.svg"" width=""175px"" height=""250px""></img>",,,,,,,,,,,,,,,,,,,,,,,,,,,,
100,0,,html-keyboard-response,100,492774,0.0-4.13-1.13,v2rlf75t1ut,2022-09-19 13:29:24.238,5d51a96b5054110015905fd9,1,86,6,85,7,52,Male,536.0,,"
  <table>
  <tr height=300>
    <td width=300 height=300><img src=""static/images/cards/back_of_black_moons.svg"" width=""175px"" height=""250px""></img></td>
    <td width=300 height=300><img src=""static/images/cards/back_of_black_moons.svg"" width=""175px"" height=""250px""></img></td>
  </tr>
  <tr height=200>
    <td width=300></td>
    <td width=300><img src=""static/images/keys/m.svg"" width=""35%"" height=""75%""></img></td>
  </tr>
</table>
  ",77.0,1.0,,,,,,,,,,,,,,,,,,,,,,,,,,
101,0,,html-keyboard-response,101,494288,0.0-4.13-2.13,v2rlf75t1ut,2022-09-19 13:29:24.238,5d51a96b5054110015905fd9,1,86,6,85,7,52,Male,,,"
  <table>
  <tr height=300>
    <td width=300 height=300><img src=""static/images/cards/back_of_black_moons.svg"" width=""175px"" height=""250px""></img></td>
    <td width=300 height=300><img src=""static/images/cards/6_of_black_moons.svg"" width=""175px"" height=""250px""></img></td>
  </tr>
  <tr height=200>
    <td width=300></td>
    <td width=300><img src=""static/images/keys/m.svg"" width=""35%"" height=""75%""></img></td>
  </tr>
</table>
  ",,,,,,,,,,,,,,,,,,,,,,,,,,,,
102,0,,html-keyboard-response,102,495792,0.0-4.13-3.13,v2rlf75t1ut,2022-09-19 13:29:24.238,5d51a96b5054110015905fd9,1,86,6,85,7,52,Male,,,"<p style=""font-size:50px"">You win!
+10 points this round!</p>",,,,,,,,,,,,,,,,,,,,,,,,,,,,
103,0,,html-keyboard-response,103,496309,0.0-4.13-4.13,v2rlf75t1ut,2022-09-19 13:29:24.238,5d51a96b5054110015905fd9,1,86,6,85,7,52,Male,,,,,,1.0,learning,13.0,B,,black,,moons,,,,B,black,moons,,0.0,1.0,0,right,536.0,6.0,1.0,1.0,,,
104,0,,html-keyboard-response,104,497812,0.0-4.14-0.14,v2rlf75t1ut,2022-09-19 13:29:24.238,5d51a96b5054110015905fd9,1,86,6,85,7,52,Male,,,"<img src=""static/images/cards/stack_of_red_stars.svg"" width=""175px"" height=""250px""></img>",,,,,,,,,,,,,,,,,,,,,,,,,,,,
105,0,,html-keyboard-response,105,498958,0.0-4.14-1.14,v2rlf75t1ut,2022-09-19 13:29:24.238,5d51a96b5054110015905fd9,1,86,6,85,7,52,Male,643.0,,"
  <table>
  <tr height=300>
    <td width=300 height=300><img src=""static/images/cards/back_of_red_stars.svg"" width=""175px"" height=""250px""></img></td>
    <td width=300 height=300><img src=""static/images/cards/back_of_red_stars.svg"" width=""175px"" height=""250px""></img></td>
  </tr>
  <tr height=200>
    <td width=300><img src=""static/images/keys/z.svg"" width=""35%"" height=""75%""></img></td>
    <td width=300><img src=""static/images/keys/m.svg"" width=""35%"" height=""75%""></img></td>
  </tr>
</table>
  ",90.0,1.0,,,,,,,,,,,,,,,,,,,,,,,,,,
106,0,,html-keyboard-response,106,500473,0.0-4.14-2.14,v2rlf75t1ut,2022-09-19 13:29:24.238,5d51a96b5054110015905fd9,1,86,6,85,7,52,Male,,,"
  <table>
  <tr height=300>
    <td width=300 height=300><img src=""static/images/cards/6_of_red_stars.svg"" width=""175px"" height=""250px""></img></td>
    <td width=300 height=300><img src=""static/images/cards/back_of_red_stars.svg"" width=""175px"" height=""250px""></img></td>
  </tr>
  <tr height=200>
    <td width=300><img src=""static/images/keys/z.svg"" width=""35%"" height=""75%""></img></td>
    <td width=300><img src=""static/images/keys/m.svg"" width=""35%"" height=""75%""></img></td>
  </tr>
</table>
  ",,,,,,,,,,,,,,,,,,,,,,,,,,,,
107,0,,html-keyboard-response,107,501976,0.0-4.14-3.14,v2rlf75t1ut,2022-09-19 13:29:24.238,5d51a96b5054110015905fd9,1,86,6,85,7,52,Male,,,"<p style=""font-size:50px"">You win!
+10 points this round!</p>",,,,,,,,,,,,,,,,,,,,,,,,,,,,
108,0,,html-keyboard-response,108,502494,0.0-4.14-4.14,v2rlf75t1ut,2022-09-19 13:29:24.238,5d51a96b5054110015905fd9,1,86,6,85,7,52,Male,,,,,,1.0,learning,14.0,C,,red,,stars,,,,C,red,stars,,1.0,0.0,NA,left,643.0,6.0,1.0,1.0,,,
109,0,,html-keyboard-response,109,503998,0.0-4.15-0.15,v2rlf75t1ut,2022-09-19 13:29:24.238,5d51a96b5054110015905fd9,1,86,6,85,7,52,Male,,,"<img src=""static/images/cards/stack_of_black_stars.svg"" width=""175px"" height=""250px""></img>",,,,,,,,,,,,,,,,,,,,,,,,,,,,
110,0,,html-keyboard-response,110,505087,0.0-4.15-1.15,v2rlf75t1ut,2022-09-19 13:29:24.238,5d51a96b5054110015905fd9,1,86,6,85,7,52,Male,587.0,,"
  <table>
  <tr height=300>
    <td width=300 height=300><img src=""static/images/cards/back_of_black_stars.svg"" width=""175px"" height=""250px""></img></td>
    <td width=300 height=300><img src=""static/images/cards/back_of_black_stars.svg"" width=""175px"" height=""250px""></img></td>
  </tr>
  <tr height=200>
    <td width=300></td>
    <td width=300><img src=""static/images/keys/m.svg"" width=""35%"" height=""75%""></img></td>
  </tr>
</table>
  ",77.0,1.0,,,,,,,,,,,,,,,,,,,,,,,,,,
111,0,,html-keyboard-response,111,506589,0.0-4.15-2.15,v2rlf75t1ut,2022-09-19 13:29:24.238,5d51a96b5054110015905fd9,1,86,6,85,7,52,Male,,,"
  <table>
  <tr height=300>
    <td width=300 height=300><img src=""static/images/cards/back_of_black_stars.svg"" width=""175px"" height=""250px""></img></td>
    <td width=300 height=300><img src=""static/images/cards/8_of_black_stars.svg"" width=""175px"" height=""250px""></img></td>
  </tr>
  <tr height=200>
    <td width=300></td>
    <td width=300><img src=""static/images/keys/m.svg"" width=""35%"" height=""75%""></img></td>
  </tr>
</table>
  ",,,,,,,,,,,,,,,,,,,,,,,,,,,,
112,0,,html-keyboard-response,112,508093,0.0-4.15-3.15,v2rlf75t1ut,2022-09-19 13:29:24.238,5d51a96b5054110015905fd9,1,86,6,85,7,52,Male,,,"<p style=""font-size:50px"">You win!
+10 points this round!</p>",,,,,,,,,,,,,,,,,,,,,,,,,,,,
113,0,,html-keyboard-response,113,508609,0.0-4.15-4.15,v2rlf75t1ut,2022-09-19 13:29:24.238,5d51a96b5054110015905fd9,1,86,6,85,7,52,Male,,,,,,1.0,learning,15.0,D,,black,,stars,,,,D,black,stars,,0.0,0.0,0,right,587.0,8.0,1.0,1.0,,,
114,0,,html-keyboard-response,114,510114,0.0-4.16-0.16,v2rlf75t1ut,2022-09-19 13:29:24.238,5d51a96b5054110015905fd9,1,86,6,85,7,52,Male,,,"<img src=""static/images/cards/stack_of_red_bolts.svg"" width=""175px"" height=""250px""></img>",,,,,,,,,,,,,,,,,,,,,,,,,,,,
115,0,,html-keyboard-response,115,511240,0.0-4.16-1.16,v2rlf75t1ut,2022-09-19 13:29:24.238,5d51a96b5054110015905fd9,1,86,6,85,7,52,Male,623.0,,"
  <table>
  <tr height=300>
    <td width=300 height=300><img src=""static/images/cards/back_of_red_bolts.svg"" width=""175px"" height=""250px""></img></td>
    <td width=300 height=300><img src=""static/images/cards/back_of_red_bolts.svg"" width=""175px"" height=""250px""></img></td>
  </tr>
  <tr height=200>
    <td width=300><img src=""static/images/keys/z.svg"" width=""35%"" height=""75%""></img></td>
    <td width=300><img src=""static/images/keys/m.svg"" width=""35%"" height=""75%""></img></td>
  </tr>
</table>
  ",77.0,1.0,,,,,,,,,,,,,,,,,,,,,,,,,,
116,0,,html-keyboard-response,116,512752,0.0-4.16-2.16,v2rlf75t1ut,2022-09-19 13:29:24.238,5d51a96b5054110015905fd9,1,86,6,85,7,52,Male,,,"
  <table>
  <tr height=300>
    <td width=300 height=300><img src=""static/images/cards/back_of_red_bolts.svg"" width=""175px"" height=""250px""></img></td>
    <td width=300 height=300><img src=""static/images/cards/1_of_red_bolts.svg"" width=""175px"" height=""250px""></img></td>
  </tr>
  <tr height=200>
    <td width=300><img src=""static/images/keys/z.svg"" width=""35%"" height=""75%""></img></td>
    <td width=300><img src=""static/images/keys/m.svg"" width=""35%"" height=""75%""></img></td>
  </tr>
</table>
  ",,,,,,,,,,,,,,,,,,,,,,,,,,,,
117,0,,html-keyboard-response,117,514256,0.0-4.16-3.16,v2rlf75t1ut,2022-09-19 13:29:24.238,5d51a96b5054110015905fd9,1,86,6,85,7,52,Male,,,"<p style=""font-size:50px"">You win!
+10 points this round!</p>",,,,,,,,,,,,,,,,,,,,,,,,,,,,
118,0,,html-keyboard-response,118,514773,0.0-4.16-4.16,v2rlf75t1ut,2022-09-19 13:29:24.238,5d51a96b5054110015905fd9,1,86,6,85,7,52,Male,,,,,,1.0,learning,16.0,Xc,,red,,bolts,,,,Xc,red,bolts,,1.0,0.0,NA,right,623.0,1.0,0.0,1.0,,,
119,0,,html-keyboard-response,119,516277,0.0-4.17-0.17,v2rlf75t1ut,2022-09-19 13:29:24.238,5d51a96b5054110015905fd9,1,86,6,85,7,52,Male,,,"<img src=""static/images/cards/stack_of_black_bolts.svg"" width=""175px"" height=""250px""></img>",,,,,,,,,,,,,,,,,,,,,,,,,,,,
120,0,,html-keyboard-response,120,517512,0.0-4.17-1.17,v2rlf75t1ut,2022-09-19 13:29:24.238,5d51a96b5054110015905fd9,1,86,6,85,7,52,Male,734.0,,"
  <table>
  <tr height=300>
    <td width=300 height=300><img src=""static/images/cards/back_of_black_bolts.svg"" width=""175px"" height=""250px""></img></td>
    <td width=300 height=300><img src=""static/images/cards/back_of_black_bolts.svg"" width=""175px"" height=""250px""></img></td>
  </tr>
  <tr height=200>
    <td width=300><img src=""static/images/keys/z.svg"" width=""35%"" height=""75%""></img></td>
    <td width=300></td>
  </tr>
</table>
  ",90.0,1.0,,,,,,,,,,,,,,,,,,,,,,,,,,
121,0,,html-keyboard-response,121,519021,0.0-4.17-2.17,v2rlf75t1ut,2022-09-19 13:29:24.238,5d51a96b5054110015905fd9,1,86,6,85,7,52,Male,,,"
  <table>
  <tr height=300>
    <td width=300 height=300><img src=""static/images/cards/4_of_black_bolts.svg"" width=""175px"" height=""250px""></img></td>
    <td width=300 height=300><img src=""static/images/cards/back_of_black_bolts.svg"" width=""175px"" height=""250px""></img></td>
  </tr>
  <tr height=200>
    <td width=300><img src=""static/images/keys/z.svg"" width=""35%"" height=""75%""></img></td>
    <td width=300></td>
  </tr>
</table>
  ",,,,,,,,,,,,,,,,,,,,,,,,,,,,
122,0,,html-keyboard-response,122,520526,0.0-4.17-3.17,v2rlf75t1ut,2022-09-19 13:29:24.238,5d51a96b5054110015905fd9,1,86,6,85,7,52,Male,,,"<p style=""font-size:50px"">You win!
+10 points this round!</p>",,,,,,,,,,,,,,,,,,,,,,,,,,,,
123,0,,html-keyboard-response,123,521042,0.0-4.17-4.17,v2rlf75t1ut,2022-09-19 13:29:24.238,5d51a96b5054110015905fd9,1,86,6,85,7,52,Male,,,,,,1.0,learning,17.0,Xnc,,black,,bolts,,,,Xnc,black,bolts,,0.0,0.0,1,left,734.0,4.0,0.0,1.0,,,
124,0,,html-keyboard-response,124,522547,0.0-4.18-0.18,v2rlf75t1ut,2022-09-19 13:29:24.238,5d51a96b5054110015905fd9,1,86,6,85,7,52,Male,,,"<img src=""static/images/cards/stack_of_red_moons.svg"" width=""175px"" height=""250px""></img>",,,,,,,,,,,,,,,,,,,,,,,,,,,,
125,0,,html-keyboard-response,125,523666,0.0-4.18-1.18,v2rlf75t1ut,2022-09-19 13:29:24.238,5d51a96b5054110015905fd9,1,86,6,85,7,52,Male,617.0,,"
  <table>
  <tr height=300>
    <td width=300 height=300><img src=""static/images/cards/back_of_red_moons.svg"" width=""175px"" height=""250px""></img></td>
    <td width=300 height=300><img src=""static/images/cards/back_of_red_moons.svg"" width=""175px"" height=""250px""></img></td>
  </tr>
  <tr height=200>
    <td width=300><img src=""static/images/keys/z.svg"" width=""35%"" height=""75%""></img></td>
    <td width=300><img src=""static/images/keys/m.svg"" width=""35%"" height=""75%""></img></td>
  </tr>
</table>
  ",90.0,1.0,,,,,,,,,,,,,,,,,,,,,,,,,,
126,0,,html-keyboard-response,126,525169,0.0-4.18-2.18,v2rlf75t1ut,2022-09-19 13:29:24.238,5d51a96b5054110015905fd9,1,86,6,85,7,52,Male,,,"
  <table>
  <tr height=300>
    <td width=300 height=300><img src=""static/images/cards/6_of_red_moons.svg"" width=""175px"" height=""250px""></img></td>
    <td width=300 height=300><img src=""static/images/cards/back_of_red_moons.svg"" width=""175px"" height=""250px""></img></td>
  </tr>
  <tr height=200>
    <td width=300><img src=""static/images/keys/z.svg"" width=""35%"" height=""75%""></img></td>
    <td width=300><img src=""static/images/keys/m.svg"" width=""35%"" height=""75%""></img></td>
  </tr>
</table>
  ",,,,,,,,,,,,,,,,,,,,,,,,,,,,
127,0,,html-keyboard-response,127,526673,0.0-4.18-3.18,v2rlf75t1ut,2022-09-19 13:29:24.238,5d51a96b5054110015905fd9,1,86,6,85,7,52,Male,,,"<p style=""font-size:50px"">You win!
+10 points this round!</p>",,,,,,,,,,,,,,,,,,,,,,,,,,,,
128,0,,html-keyboard-response,128,527190,0.0-4.18-4.18,v2rlf75t1ut,2022-09-19 13:29:24.238,5d51a96b5054110015905fd9,1,86,6,85,7,52,Male,,,,,,1.0,learning,18.0,A,,red,,moons,,,,A,red,moons,,1.0,1.0,NA,left,617.0,6.0,1.0,1.0,,,
129,0,,html-keyboard-response,129,528696,0.0-4.19-0.19,v2rlf75t1ut,2022-09-19 13:29:24.238,5d51a96b5054110015905fd9,1,86,6,85,7,52,Male,,,"<img src=""static/images/cards/stack_of_black_moons.svg"" width=""175px"" height=""250px""></img>",,,,,,,,,,,,,,,,,,,,,,,,,,,,
130,0,,html-keyboard-response,130,529778,0.0-4.19-1.19,v2rlf75t1ut,2022-09-19 13:29:24.238,5d51a96b5054110015905fd9,1,86,6,85,7,52,Male,578.0,,"
  <table>
  <tr height=300>
    <td width=300 height=300><img src=""static/images/cards/back_of_black_moons.svg"" width=""175px"" height=""250px""></img></td>
    <td width=300 height=300><img src=""static/images/cards/back_of_black_moons.svg"" width=""175px"" height=""250px""></img></td>
  </tr>
  <tr height=200>
    <td width=300><img src=""static/images/keys/z.svg"" width=""35%"" height=""75%""></img></td>
    <td width=300></td>
  </tr>
</table>
  ",90.0,1.0,,,,,,,,,,,,,,,,,,,,,,,,,,
131,0,,html-keyboard-response,131,531288,0.0-4.19-2.19,v2rlf75t1ut,2022-09-19 13:29:24.238,5d51a96b5054110015905fd9,1,86,6,85,7,52,Male,,,"
  <table>
  <tr height=300>
    <td width=300 height=300><img src=""static/images/cards/9_of_black_moons.svg"" width=""175px"" height=""250px""></img></td>
    <td width=300 height=300><img src=""static/images/cards/back_of_black_moons.svg"" width=""175px"" height=""250px""></img></td>
  </tr>
  <tr height=200>
    <td width=300><img src=""static/images/keys/z.svg"" width=""35%"" height=""75%""></img></td>
    <td width=300></td>
  </tr>
</table>
  ",,,,,,,,,,,,,,,,,,,,,,,,,,,,
132,0,,html-keyboard-response,132,532792,0.0-4.19-3.19,v2rlf75t1ut,2022-09-19 13:29:24.238,5d51a96b5054110015905fd9,1,86,6,85,7,52,Male,,,"<p style=""font-size:50px"">You win!
+10 points this round!</p>",,,,,,,,,,,,,,,,,,,,,,,,,,,,
133,0,,html-keyboard-response,133,533308,0.0-4.19-4.19,v2rlf75t1ut,2022-09-19 13:29:24.238,5d51a96b5054110015905fd9,1,86,6,85,7,52,Male,,,,,,1.0,learning,19.0,B,,black,,moons,,,,B,black,moons,,0.0,1.0,1,left,578.0,9.0,1.0,1.0,,,
134,0,,html-keyboard-response,134,534813,0.0-4.20-0.20,v2rlf75t1ut,2022-09-19 13:29:24.238,5d51a96b5054110015905fd9,1,86,6,85,7,52,Male,,,"<img src=""static/images/cards/stack_of_red_stars.svg"" width=""175px"" height=""250px""></img>",,,,,,,,,,,,,,,,,,,,,,,,,,,,
135,0,,html-keyboard-response,135,536012,0.0-4.20-1.20,v2rlf75t1ut,2022-09-19 13:29:24.238,5d51a96b5054110015905fd9,1,86,6,85,7,52,Male,697.0,,"
  <table>
  <tr height=300>
    <td width=300 height=300><img src=""static/images/cards/back_of_red_stars.svg"" width=""175px"" height=""250px""></img></td>
    <td width=300 height=300><img src=""static/images/cards/back_of_red_stars.svg"" width=""175px"" height=""250px""></img></td>
  </tr>
  <tr height=200>
    <td width=300><img src=""static/images/keys/z.svg"" width=""35%"" height=""75%""></img></td>
    <td width=300><img src=""static/images/keys/m.svg"" width=""35%"" height=""75%""></img></td>
  </tr>
</table>
  ",90.0,1.0,,,,,,,,,,,,,,,,,,,,,,,,,,
136,0,,html-keyboard-response,136,537520,0.0-4.20-2.20,v2rlf75t1ut,2022-09-19 13:29:24.238,5d51a96b5054110015905fd9,1,86,6,85,7,52,Male,,,"
  <table>
  <tr height=300>
    <td width=300 height=300><img src=""static/images/cards/3_of_red_stars.svg"" width=""175px"" height=""250px""></img></td>
    <td width=300 height=300><img src=""static/images/cards/back_of_red_stars.svg"" width=""175px"" height=""250px""></img></td>
  </tr>
  <tr height=200>
    <td width=300><img src=""static/images/keys/z.svg"" width=""35%"" height=""75%""></img></td>
    <td width=300><img src=""static/images/keys/m.svg"" width=""35%"" height=""75%""></img></td>
  </tr>
</table>
  ",,,,,,,,,,,,,,,,,,,,,,,,,,,,
137,0,,html-keyboard-response,137,539024,0.0-4.20-3.20,v2rlf75t1ut,2022-09-19 13:29:24.238,5d51a96b5054110015905fd9,1,86,6,85,7,52,Male,,,"<p style=""font-size:50px"">You win!
+10 points this round!</p>",,,,,,,,,,,,,,,,,,,,,,,,,,,,
138,0,,html-keyboard-response,138,539540,0.0-4.20-4.20,v2rlf75t1ut,2022-09-19 13:29:24.238,5d51a96b5054110015905fd9,1,86,6,85,7,52,Male,,,,,,1.0,learning,20.0,C,,red,,stars,,,,C,red,stars,,1.0,0.0,NA,left,697.0,3.0,0.0,1.0,,,
139,0,,html-keyboard-response,139,541045,0.0-4.21-0.21,v2rlf75t1ut,2022-09-19 13:29:24.238,5d51a96b5054110015905fd9,1,86,6,85,7,52,Male,,,"<img src=""static/images/cards/stack_of_black_stars.svg"" width=""175px"" height=""250px""></img>",,,,,,,,,,,,,,,,,,,,,,,,,,,,
140,0,,html-keyboard-response,140,542083,0.0-4.21-1.21,v2rlf75t1ut,2022-09-19 13:29:24.238,5d51a96b5054110015905fd9,1,86,6,85,7,52,Male,536.0,,"
  <table>
  <tr height=300>
    <td width=300 height=300><img src=""static/images/cards/back_of_black_stars.svg"" width=""175px"" height=""250px""></img></td>
    <td width=300 height=300><img src=""static/images/cards/back_of_black_stars.svg"" width=""175px"" height=""250px""></img></td>
  </tr>
  <tr height=200>
    <td width=300><img src=""static/images/keys/z.svg"" width=""35%"" height=""75%""></img></td>
    <td width=300></td>
  </tr>
</table>
  ",90.0,1.0,,,,,,,,,,,,,,,,,,,,,,,,,,
141,0,,html-keyboard-response,141,543589,0.0-4.21-2.21,v2rlf75t1ut,2022-09-19 13:29:24.238,5d51a96b5054110015905fd9,1,86,6,85,7,52,Male,,,"
  <table>
  <tr height=300>
    <td width=300 height=300><img src=""static/images/cards/7_of_black_stars.svg"" width=""175px"" height=""250px""></img></td>
    <td width=300 height=300><img src=""static/images/cards/back_of_black_stars.svg"" width=""175px"" height=""250px""></img></td>
  </tr>
  <tr height=200>
    <td width=300><img src=""static/images/keys/z.svg"" width=""35%"" height=""75%""></img></td>
    <td width=300></td>
  </tr>
</table>
  ",,,,,,,,,,,,,,,,,,,,,,,,,,,,
142,0,,html-keyboard-response,142,545093,0.0-4.21-3.21,v2rlf75t1ut,2022-09-19 13:29:24.238,5d51a96b5054110015905fd9,1,86,6,85,7,52,Male,,,"<p style=""font-size:50px"">You Lose!
No points this round.</p>",,,,,,,,,,,,,,,,,,,,,,,,,,,,
143,0,,html-keyboard-response,143,545610,0.0-4.21-4.21,v2rlf75t1ut,2022-09-19 13:29:24.238,5d51a96b5054110015905fd9,1,86,6,85,7,52,Male,,,,,,1.0,learning,21.0,D,,black,,stars,,,,D,black,stars,,0.0,0.0,1,left,536.0,7.0,1.0,0.0,,,
144,0,,html-keyboard-response,144,547114,0.0-4.22-0.22,v2rlf75t1ut,2022-09-19 13:29:24.238,5d51a96b5054110015905fd9,1,86,6,85,7,52,Male,,,"<img src=""static/images/cards/stack_of_red_bolts.svg"" width=""175px"" height=""250px""></img>",,,,,,,,,,,,,,,,,,,,,,,,,,,,
145,0,,html-keyboard-response,145,548356,0.0-4.22-1.22,v2rlf75t1ut,2022-09-19 13:29:24.238,5d51a96b5054110015905fd9,1,86,6,85,7,52,Male,739.0,,"
  <table>
  <tr height=300>
    <td width=300 height=300><img src=""static/images/cards/back_of_red_bolts.svg"" width=""175px"" height=""250px""></img></td>
    <td width=300 height=300><img src=""static/images/cards/back_of_red_bolts.svg"" width=""175px"" height=""250px""></img></td>
  </tr>
  <tr height=200>
    <td width=300><img src=""static/images/keys/z.svg"" width=""35%"" height=""75%""></img></td>
    <td width=300><img src=""static/images/keys/m.svg"" width=""35%"" height=""75%""></img></td>
  </tr>
</table>
  ",77.0,1.0,,,,,,,,,,,,,,,,,,,,,,,,,,
146,0,,html-keyboard-response,146,549868,0.0-4.22-2.22,v2rlf75t1ut,2022-09-19 13:29:24.238,5d51a96b5054110015905fd9,1,86,6,85,7,52,Male,,,"
  <table>
  <tr height=300>
    <td width=300 height=300><img src=""static/images/cards/back_of_red_bolts.svg"" width=""175px"" height=""250px""></img></td>
    <td width=300 height=300><img src=""static/images/cards/9_of_red_bolts.svg"" width=""175px"" height=""250px""></img></td>
  </tr>
  <tr height=200>
    <td width=300><img src=""static/images/keys/z.svg"" width=""35%"" height=""75%""></img></td>
    <td width=300><img src=""static/images/keys/m.svg"" width=""35%"" height=""75%""></img></td>
  </tr>
</table>
  ",,,,,,,,,,,,,,,,,,,,,,,,,,,,
147,0,,html-keyboard-response,147,551372,0.0-4.22-3.22,v2rlf75t1ut,2022-09-19 13:29:24.238,5d51a96b5054110015905fd9,1,86,6,85,7,52,Male,,,"<p style=""font-size:50px"">You win!
+10 points this round!</p>",,,,,,,,,,,,,,,,,,,,,,,,,,,,
148,0,,html-keyboard-response,148,551895,0.0-4.22-4.22,v2rlf75t1ut,2022-09-19 13:29:24.238,5d51a96b5054110015905fd9,1,86,6,85,7,52,Male,,,,,,1.0,learning,22.0,Xc,,red,,bolts,,,,Xc,red,bolts,,1.0,0.0,NA,right,739.0,9.0,1.0,1.0,,,
149,0,,html-keyboard-response,149,553400,0.0-4.23-0.23,v2rlf75t1ut,2022-09-19 13:29:24.238,5d51a96b5054110015905fd9,1,86,6,85,7,52,Male,,,"<img src=""static/images/cards/stack_of_black_bolts.svg"" width=""175px"" height=""250px""></img>",,,,,,,,,,,,,,,,,,,,,,,,,,,,
150,0,,html-keyboard-response,150,554381,0.0-4.23-1.23,v2rlf75t1ut,2022-09-19 13:29:24.238,5d51a96b5054110015905fd9,1,86,6,85,7,52,Male,479.0,,"
  <table>
  <tr height=300>
    <td width=300 height=300><img src=""static/images/cards/back_of_black_bolts.svg"" width=""175px"" height=""250px""></img></td>
    <td width=300 height=300><img src=""static/images/cards/back_of_black_bolts.svg"" width=""175px"" height=""250px""></img></td>
  </tr>
  <tr height=200>
    <td width=300><img src=""static/images/keys/z.svg"" width=""35%"" height=""75%""></img></td>
    <td width=300></td>
  </tr>
</table>
  ",90.0,1.0,,,,,,,,,,,,,,,,,,,,,,,,,,
151,0,,html-keyboard-response,151,555884,0.0-4.23-2.23,v2rlf75t1ut,2022-09-19 13:29:24.238,5d51a96b5054110015905fd9,1,86,6,85,7,52,Male,,,"
  <table>
  <tr height=300>
    <td width=300 height=300><img src=""static/images/cards/1_of_black_bolts.svg"" width=""175px"" height=""250px""></img></td>
    <td width=300 height=300><img src=""static/images/cards/back_of_black_bolts.svg"" width=""175px"" height=""250px""></img></td>
  </tr>
  <tr height=200>
    <td width=300><img src=""static/images/keys/z.svg"" width=""35%"" height=""75%""></img></td>
    <td width=300></td>
  </tr>
</table>
  ",,,,,,,,,,,,,,,,,,,,,,,,,,,,
152,0,,html-keyboard-response,152,557388,0.0-4.23-3.23,v2rlf75t1ut,2022-09-19 13:29:24.238,5d51a96b5054110015905fd9,1,86,6,85,7,52,Male,,,"<p style=""font-size:50px"">You win!
+10 points this round!</p>",,,,,,,,,,,,,,,,,,,,,,,,,,,,
153,0,,html-keyboard-response,153,557911,0.0-4.23-4.23,v2rlf75t1ut,2022-09-19 13:29:24.238,5d51a96b5054110015905fd9,1,86,6,85,7,52,Male,,,,,,1.0,learning,23.0,Xnc,,black,,bolts,,,,Xnc,black,bolts,,0.0,0.0,1,left,479.0,1.0,0.0,1.0,,,
154,0,,call-function,154,557914,0.0-5.0,v2rlf75t1ut,2022-09-19 13:29:24.238,5d51a96b5054110015905fd9,1,86,6,85,7,52,Male,,,,,,,,,,,,,,,,,,,,,,,,,,,,,,,
155,0,,image-keyboard-response,155,563830,0.0-6.0-0.0,v2rlf75t1ut,2022-09-19 13:29:24.238,5d51a96b5054110015905fd9,1,86,6,85,7,52,Male,5916.0,,static/images/instructions_CB_1/Slide20.png,39.0,,,,,,,,,,,,,,,,,,,,,,,,,,,
156,0,,image-keyboard-response,156,577064,0.0-6.1-0.1,v2rlf75t1ut,2022-09-19 13:29:24.238,5d51a96b5054110015905fd9,1,86,6,85,7,52,Male,13232.0,,static/images/instructions_CB_1/Slide21.png,37.0,,,,,,,,,,,,,,,,,,,,,,,,,,,
157,0,,image-keyboard-response,157,580552,0.0-6.2-0.2,v2rlf75t1ut,2022-09-19 13:29:24.238,5d51a96b5054110015905fd9,1,86,6,85,7,52,Male,3487.0,,static/images/instructions_CB_1/Slide20.png,39.0,,,,,,,,,,,,,,,,,,,,,,,,,,,
158,0,,image-keyboard-response,158,583824,0.0-6.3-0.3,v2rlf75t1ut,2022-09-19 13:29:24.238,5d51a96b5054110015905fd9,1,86,6,85,7,52,Male,3271.0,,static/images/instructions_CB_1/Slide21.png,37.0,,,,,,,,,,,,,,,,,,,,,,,,,,,
159,0,,image-keyboard-response,159,590049,0.0-6.4-0.4,v2rlf75t1ut,2022-09-19 13:29:24.238,5d51a96b5054110015905fd9,1,86,6,85,7,52,Male,6224.0,,static/images/instructions_CB_1/Slide20.png,39.0,,,,,,,,,,,,,,,,,,,,,,,,,,,
160,0,,image-keyboard-response,160,599739,0.0-6.5-0.5,v2rlf75t1ut,2022-09-19 13:29:24.238,5d51a96b5054110015905fd9,1,86,6,85,7,52,Male,9689.0,,static/images/instructions_CB_1/Slide21.png,37.0,,,,,,,,,,,,,,,,,,,,,,,,,,,
161,0,,image-keyboard-response,161,605851,0.0-6.6-0.6,v2rlf75t1ut,2022-09-19 13:29:24.238,5d51a96b5054110015905fd9,1,86,6,85,7,52,Male,6113.0,,static/images/instructions_CB_1/Slide20.png,39.0,,,,,,,,,,,,,,,,,,,,,,,,,,,
162,0,,image-keyboard-response,162,612252,0.0-6.7-0.7,v2rlf75t1ut,2022-09-19 13:29:24.238,5d51a96b5054110015905fd9,1,86,6,85,7,52,Male,6399.0,,static/images/instructions_CB_1/Slide21.png,39.0,,,,,,,,,,,,,,,,,,,,,,,,,,,
163,0,,image-keyboard-response,163,627374,0.0-6.8-0.8,v2rlf75t1ut,2022-09-19 13:29:24.238,5d51a96b5054110015905fd9,1,86,6,85,7,52,Male,15122.0,,static/images/instructions_CB_1/Slide22.png,39.0,,,,,,,,,,,,,,,,,,,,,,,,,,,
164,0,,image-keyboard-response,164,657937,0.0-6.9-0.9,v2rlf75t1ut,2022-09-19 13:29:24.238,5d51a96b5054110015905fd9,1,86,6,85,7,52,Male,30563.0,,static/images/instructions_CB_1/Slide23.png,39.0,,,,,,,,,,,,,,,,,,,,,,,,,,,
165,0,,image-keyboard-response,165,660666,0.0-6.10-0.10,v2rlf75t1ut,2022-09-19 13:29:24.238,5d51a96b5054110015905fd9,1,86,6,85,7,52,Male,2727.0,,static/images/instructions_CB_1/Slide24.png,39.0,,,,,,,,,,,,,,,,,,,,,,,,,,,
166,0,,html-keyboard-response,166,665491,0.0-7.0-0.0,v2rlf75t1ut,2022-09-19 13:29:24.238,5d51a96b5054110015905fd9,1,86,6,85,7,52,Male,4824.0,,"
  <table>
  <tr height=300>
    <td width=300 height=300><img src=""static/images/cards/stack_of_red_stars.svg"" width=""175px"" height=""250px""></img></td>
    <td width=300 height=300><img src=""static/images/cards/stack_of_red_moons.svg"" width=""175px"" height=""250px""></img></td>
  </tr>
  <tr height=200>
    <td width=300><img src=""static/images/keys/w.svg"" width=""35%"" height=""75%""></img></td>
    <td width=300><img src=""static/images/keys/o.svg"" width=""35%"" height=""75%""></img></td>
  </tr>
</table>
  ",87.0,1.0,,,,,,,,,,,,,,,,,,,,,,,,,,
167,0,,html-keyboard-response,167,667778,0.0-7.0-1.0,v2rlf75t1ut,2022-09-19 13:29:24.238,5d51a96b5054110015905fd9,1,86,6,85,7,52,Male,1785.0,,"
  <table>
  <tr height=300>
    <td width=300 height=300><img src=""static/images/cards/back_of_red_stars.svg"" width=""175px"" height=""250px""></img></td>
    <td width=300 height=300><img src=""static/images/cards/back_of_red_stars.svg"" width=""175px"" height=""250px""></img></td>
  </tr>
  <tr height=200>
    <td width=300><img src=""static/images/keys/z.svg"" width=""35%"" height=""75%""></img></td>
    <td width=300><img src=""static/images/keys/m.svg"" width=""35%"" height=""75%""></img></td>
  </tr>
</table>
  ",90.0,1.0,,,,,,,,,,,,,,,,,,,,,,,,,,
168,0,,html-keyboard-response,168,669287,0.0-7.0-2.0,v2rlf75t1ut,2022-09-19 13:29:24.238,5d51a96b5054110015905fd9,1,86,6,85,7,52,Male,,,"
  <table>
  <tr height=300>
    <td width=300 height=300><img src=""static/images/cards/7_of_red_stars.svg"" width=""175px"" height=""250px""></img></td>
    <td width=300 height=300><img src=""static/images/cards/back_of_red_stars.svg"" width=""175px"" height=""250px""></img></td>
  </tr>
  <tr height=200>
    <td width=300><img src=""static/images/keys/z.svg"" width=""35%"" height=""75%""></img></td>
    <td width=300><img src=""static/images/keys/m.svg"" width=""35%"" height=""75%""></img></td>
  </tr>
</table>
  ",,,,,,,,,,,,,,,,,,,,,,,,,,,,
169,0,,html-keyboard-response,169,670807,0.0-7.0-3.0,v2rlf75t1ut,2022-09-19 13:29:24.238,5d51a96b5054110015905fd9,1,86,6,85,7,52,Male,,,"<p style=""font-size:50px"">You win!
+10 points this round!</p>",,,,,,,,,,,,,,,,,,,,,,,,,,,,
170,0,,html-keyboard-response,170,671335,0.0-7.0-4.0,v2rlf75t1ut,2022-09-19 13:29:24.238,5d51a96b5054110015905fd9,1,86,6,85,7,52,Male,,,,,,1.0,choice,0.0,A,C,red,red,stars,moons,C,A,C,red,stars,4824.0,1.0,0.0,NA,left,1785.0,7.0,1.0,1.0,,,
171,0,,html-keyboard-response,171,674412,0.0-7.1-0.1,v2rlf75t1ut,2022-09-19 13:29:24.238,5d51a96b5054110015905fd9,1,86,6,85,7,52,Male,3076.0,,"
  <table>
  <tr height=300>
    <td width=300 height=300><img src=""static/images/cards/stack_of_red_stars.svg"" width=""175px"" height=""250px""></img></td>
    <td width=300 height=300><img src=""static/images/cards/stack_of_black_moons.svg"" width=""175px"" height=""250px""></img></td>
  </tr>
  <tr height=200>
    <td width=300><img src=""static/images/keys/w.svg"" width=""35%"" height=""75%""></img></td>
    <td width=300><img src=""static/images/keys/o.svg"" width=""35%"" height=""75%""></img></td>
  </tr>
</table>
  ",87.0,2.0,,,,,,,,,,,,,,,,,,,,,,,,,,
172,0,,html-keyboard-response,172,676131,0.0-7.1-1.1,v2rlf75t1ut,2022-09-19 13:29:24.238,5d51a96b5054110015905fd9,1,86,6,85,7,52,Male,1211.0,,"
  <table>
  <tr height=300>
    <td width=300 height=300><img src=""static/images/cards/back_of_red_stars.svg"" width=""175px"" height=""250px""></img></td>
    <td width=300 height=300><img src=""static/images/cards/back_of_red_stars.svg"" width=""175px"" height=""250px""></img></td>
  </tr>
  <tr height=200>
    <td width=300><img src=""static/images/keys/z.svg"" width=""35%"" height=""75%""></img></td>
    <td width=300><img src=""static/images/keys/m.svg"" width=""35%"" height=""75%""></img></td>
  </tr>
</table>
  ",90.0,1.0,,,,,,,,,,,,,,,,,,,,,,,,,,
173,0,,html-keyboard-response,173,677642,0.0-7.1-2.1,v2rlf75t1ut,2022-09-19 13:29:24.238,5d51a96b5054110015905fd9,1,86,6,85,7,52,Male,,,"
  <table>
  <tr height=300>
    <td width=300 height=300><img src=""static/images/cards/1_of_red_stars.svg"" width=""175px"" height=""250px""></img></td>
    <td width=300 height=300><img src=""static/images/cards/back_of_red_stars.svg"" width=""175px"" height=""250px""></img></td>
  </tr>
  <tr height=200>
    <td width=300><img src=""static/images/keys/z.svg"" width=""35%"" height=""75%""></img></td>
    <td width=300><img src=""static/images/keys/m.svg"" width=""35%"" height=""75%""></img></td>
  </tr>
</table>
  ",,,,,,,,,,,,,,,,,,,,,,,,,,,,
174,0,,html-keyboard-response,174,679162,0.0-7.1-3.1,v2rlf75t1ut,2022-09-19 13:29:24.238,5d51a96b5054110015905fd9,1,86,6,85,7,52,Male,,,"<p style=""font-size:50px"">You win!
+10 points this round!</p>",,,,,,,,,,,,,,,,,,,,,,,,,,,,
175,0,,html-keyboard-response,175,679691,0.0-7.1-4.1,v2rlf75t1ut,2022-09-19 13:29:24.238,5d51a96b5054110015905fd9,1,86,6,85,7,52,Male,,,,,,1.0,choice,1.0,B,C,red,black,stars,moons,C,B,C,red,stars,3076.0,1.0,0.0,NA,left,1211.0,1.0,0.0,1.0,,,
176,0,,html-keyboard-response,176,681372,0.0-7.2-0.2,v2rlf75t1ut,2022-09-19 13:29:24.238,5d51a96b5054110015905fd9,1,86,6,85,7,52,Male,1680.0,,"
  <table>
  <tr height=300>
    <td width=300 height=300><img src=""static/images/cards/stack_of_red_stars.svg"" width=""175px"" height=""250px""></img></td>
    <td width=300 height=300><img src=""static/images/cards/stack_of_red_moons.svg"" width=""175px"" height=""250px""></img></td>
  </tr>
  <tr height=200>
    <td width=300><img src=""static/images/keys/w.svg"" width=""35%"" height=""75%""></img></td>
    <td width=300><img src=""static/images/keys/o.svg"" width=""35%"" height=""75%""></img></td>
  </tr>
</table>
  ",87.0,1.0,,,,,,,,,,,,,,,,,,,,,,,,,,
177,0,,html-keyboard-response,177,682804,0.0-7.2-1.2,v2rlf75t1ut,2022-09-19 13:29:24.238,5d51a96b5054110015905fd9,1,86,6,85,7,52,Male,925.0,,"
  <table>
  <tr height=300>
    <td width=300 height=300><img src=""static/images/cards/back_of_red_stars.svg"" width=""175px"" height=""250px""></img></td>
    <td width=300 height=300><img src=""static/images/cards/back_of_red_stars.svg"" width=""175px"" height=""250px""></img></td>
  </tr>
  <tr height=200>
    <td width=300><img src=""static/images/keys/z.svg"" width=""35%"" height=""75%""></img></td>
    <td width=300><img src=""static/images/keys/m.svg"" width=""35%"" height=""75%""></img></td>
  </tr>
</table>
  ",90.0,1.0,,,,,,,,,,,,,,,,,,,,,,,,,,
178,0,,html-keyboard-response,178,684312,0.0-7.2-2.2,v2rlf75t1ut,2022-09-19 13:29:24.238,5d51a96b5054110015905fd9,1,86,6,85,7,52,Male,,,"
  <table>
  <tr height=300>
    <td width=300 height=300><img src=""static/images/cards/3_of_red_stars.svg"" width=""175px"" height=""250px""></img></td>
    <td width=300 height=300><img src=""static/images/cards/back_of_red_stars.svg"" width=""175px"" height=""250px""></img></td>
  </tr>
  <tr height=200>
    <td width=300><img src=""static/images/keys/z.svg"" width=""35%"" height=""75%""></img></td>
    <td width=300><img src=""static/images/keys/m.svg"" width=""35%"" height=""75%""></img></td>
  </tr>
</table>
  ",,,,,,,,,,,,,,,,,,,,,,,,,,,,
179,0,,html-keyboard-response,179,685832,0.0-7.2-3.2,v2rlf75t1ut,2022-09-19 13:29:24.238,5d51a96b5054110015905fd9,1,86,6,85,7,52,Male,,,"<p style=""font-size:50px"">You win!
+10 points this round!</p>",,,,,,,,,,,,,,,,,,,,,,,,,,,,
180,0,,html-keyboard-response,180,686360,0.0-7.2-4.2,v2rlf75t1ut,2022-09-19 13:29:24.238,5d51a96b5054110015905fd9,1,86,6,85,7,52,Male,,,,,,1.0,choice,2.0,A,C,red,red,stars,moons,C,A,C,red,stars,1680.0,1.0,0.0,NA,left,925.0,3.0,0.0,1.0,,,
181,0,,html-keyboard-response,181,688470,0.0-7.3-0.3,v2rlf75t1ut,2022-09-19 13:29:24.238,5d51a96b5054110015905fd9,1,86,6,85,7,52,Male,2107.0,,"
  <table>
  <tr height=300>
    <td width=300 height=300><img src=""static/images/cards/stack_of_black_stars.svg"" width=""175px"" height=""250px""></img></td>
    <td width=300 height=300><img src=""static/images/cards/stack_of_red_stars.svg"" width=""175px"" height=""250px""></img></td>
  </tr>
  <tr height=200>
    <td width=300><img src=""static/images/keys/w.svg"" width=""35%"" height=""75%""></img></td>
    <td width=300><img src=""static/images/keys/o.svg"" width=""35%"" height=""75%""></img></td>
  </tr>
</table>
  ",79.0,1.0,,,,,,,,,,,,,,,,,,,,,,,,,,
182,0,,html-keyboard-response,182,689949,0.0-7.3-1.3,v2rlf75t1ut,2022-09-19 13:29:24.238,5d51a96b5054110015905fd9,1,86,6,85,7,52,Male,964.0,,"
  <table>
  <tr height=300>
    <td width=300 height=300><img src=""static/images/cards/back_of_red_stars.svg"" width=""175px"" height=""250px""></img></td>
    <td width=300 height=300><img src=""static/images/cards/back_of_red_stars.svg"" width=""175px"" height=""250px""></img></td>
  </tr>
  <tr height=200>
    <td width=300><img src=""static/images/keys/z.svg"" width=""35%"" height=""75%""></img></td>
    <td width=300><img src=""static/images/keys/m.svg"" width=""35%"" height=""75%""></img></td>
  </tr>
</table>
  ",90.0,1.0,,,,,,,,,,,,,,,,,,,,,,,,,,
183,0,,html-keyboard-response,183,691464,0.0-7.3-2.3,v2rlf75t1ut,2022-09-19 13:29:24.238,5d51a96b5054110015905fd9,1,86,6,85,7,52,Male,,,"
  <table>
  <tr height=300>
    <td width=300 height=300><img src=""static/images/cards/4_of_red_stars.svg"" width=""175px"" height=""250px""></img></td>
    <td width=300 height=300><img src=""static/images/cards/back_of_red_stars.svg"" width=""175px"" height=""250px""></img></td>
  </tr>
  <tr height=200>
    <td width=300><img src=""static/images/keys/z.svg"" width=""35%"" height=""75%""></img></td>
    <td width=300><img src=""static/images/keys/m.svg"" width=""35%"" height=""75%""></img></td>
  </tr>
</table>
  ",,,,,,,,,,,,,,,,,,,,,,,,,,,,
184,0,,html-keyboard-response,184,692989,0.0-7.3-3.3,v2rlf75t1ut,2022-09-19 13:29:24.238,5d51a96b5054110015905fd9,1,86,6,85,7,52,Male,,,"<p style=""font-size:50px"">You Lose!
No points this round.</p>",,,,,,,,,,,,,,,,,,,,,,,,,,,,
185,0,,html-keyboard-response,185,693505,0.0-7.3-4.3,v2rlf75t1ut,2022-09-19 13:29:24.238,5d51a96b5054110015905fd9,1,86,6,85,7,52,Male,,,,,,1.0,choice,3.0,C,D,black,red,stars,stars,D,C,C,red,stars,2107.0,1.0,0.0,NA,left,964.0,4.0,0.0,0.0,,,
186,0,,html-keyboard-response,186,695230,0.0-7.4-0.4,v2rlf75t1ut,2022-09-19 13:29:24.238,5d51a96b5054110015905fd9,1,86,6,85,7,52,Male,1723.0,,"
  <table>
  <tr height=300>
    <td width=300 height=300><img src=""static/images/cards/stack_of_red_stars.svg"" width=""175px"" height=""250px""></img></td>
    <td width=300 height=300><img src=""static/images/cards/stack_of_black_stars.svg"" width=""175px"" height=""250px""></img></td>
  </tr>
  <tr height=200>
    <td width=300><img src=""static/images/keys/w.svg"" width=""35%"" height=""75%""></img></td>
    <td width=300><img src=""static/images/keys/o.svg"" width=""35%"" height=""75%""></img></td>
  </tr>
</table>
  ",87.0,1.0,,,,,,,,,,,,,,,,,,,,,,,,,,
187,0,,html-keyboard-response,187,697446,0.0-7.4-1.4,v2rlf75t1ut,2022-09-19 13:29:24.238,5d51a96b5054110015905fd9,1,86,6,85,7,52,Male,1702.0,,"
  <table>
  <tr height=300>
    <td width=300 height=300><img src=""static/images/cards/back_of_red_stars.svg"" width=""175px"" height=""250px""></img></td>
    <td width=300 height=300><img src=""static/images/cards/back_of_red_stars.svg"" width=""175px"" height=""250px""></img></td>
  </tr>
  <tr height=200>
    <td width=300><img src=""static/images/keys/z.svg"" width=""35%"" height=""75%""></img></td>
    <td width=300><img src=""static/images/keys/m.svg"" width=""35%"" height=""75%""></img></td>
  </tr>
</table>
  ",90.0,1.0,,,,,,,,,,,,,,,,,,,,,,,,,,
188,0,,html-keyboard-response,188,698952,0.0-7.4-2.4,v2rlf75t1ut,2022-09-19 13:29:24.238,5d51a96b5054110015905fd9,1,86,6,85,7,52,Male,,,"
  <table>
  <tr height=300>
    <td width=300 height=300><img src=""static/images/cards/6_of_red_stars.svg"" width=""175px"" height=""250px""></img></td>
    <td width=300 height=300><img src=""static/images/cards/back_of_red_stars.svg"" width=""175px"" height=""250px""></img></td>
  </tr>
  <tr height=200>
    <td width=300><img src=""static/images/keys/z.svg"" width=""35%"" height=""75%""></img></td>
    <td width=300><img src=""static/images/keys/m.svg"" width=""35%"" height=""75%""></img></td>
  </tr>
</table>
  ",,,,,,,,,,,,,,,,,,,,,,,,,,,,
189,0,,html-keyboard-response,189,700456,0.0-7.4-3.4,v2rlf75t1ut,2022-09-19 13:29:24.238,5d51a96b5054110015905fd9,1,86,6,85,7,52,Male,,,"<p style=""font-size:50px"">You win!
+10 points this round!</p>",,,,,,,,,,,,,,,,,,,,,,,,,,,,
190,0,,html-keyboard-response,190,700972,0.0-7.4-4.4,v2rlf75t1ut,2022-09-19 13:29:24.238,5d51a96b5054110015905fd9,1,86,6,85,7,52,Male,,,,,,1.0,choice,4.0,C,D,red,black,stars,stars,C,D,C,red,stars,1723.0,1.0,0.0,NA,left,1702.0,6.0,1.0,1.0,,,
191,0,,html-keyboard-response,191,703079,0.0-7.5-0.5,v2rlf75t1ut,2022-09-19 13:29:24.238,5d51a96b5054110015905fd9,1,86,6,85,7,52,Male,2105.0,,"
  <table>
  <tr height=300>
    <td width=300 height=300><img src=""static/images/cards/stack_of_black_bolts.svg"" width=""175px"" height=""250px""></img></td>
    <td width=300 height=300><img src=""static/images/cards/stack_of_black_stars.svg"" width=""175px"" height=""250px""></img></td>
  </tr>
  <tr height=200>
    <td width=300><img src=""static/images/keys/w.svg"" width=""35%"" height=""75%""></img></td>
    <td width=300><img src=""static/images/keys/o.svg"" width=""35%"" height=""75%""></img></td>
  </tr>
</table>
  ",87.0,1.0,,,,,,,,,,,,,,,,,,,,,,,,,,
192,0,,html-keyboard-response,192,705136,0.0-7.5-1.5,v2rlf75t1ut,2022-09-19 13:29:24.238,5d51a96b5054110015905fd9,1,86,6,85,7,52,Male,1556.0,,"
  <table>
  <tr height=300>
    <td width=300 height=300><img src=""static/images/cards/back_of_black_bolts.svg"" width=""175px"" height=""250px""></img></td>
    <td width=300 height=300><img src=""static/images/cards/back_of_black_bolts.svg"" width=""175px"" height=""250px""></img></td>
  </tr>
  <tr height=200>
    <td width=300><img src=""static/images/keys/z.svg"" width=""35%"" height=""75%""></img></td>
    <td width=300></td>
  </tr>
</table>
  ",90.0,1.0,,,,,,,,,,,,,,,,,,,,,,,,,,
193,0,,html-keyboard-response,193,706640,0.0-7.5-2.5,v2rlf75t1ut,2022-09-19 13:29:24.238,5d51a96b5054110015905fd9,1,86,6,85,7,52,Male,,,"
  <table>
  <tr height=300>
    <td width=300 height=300><img src=""static/images/cards/2_of_black_bolts.svg"" width=""175px"" height=""250px""></img></td>
    <td width=300 height=300><img src=""static/images/cards/back_of_black_bolts.svg"" width=""175px"" height=""250px""></img></td>
  </tr>
  <tr height=200>
    <td width=300><img src=""static/images/keys/z.svg"" width=""35%"" height=""75%""></img></td>
    <td width=300></td>
  </tr>
</table>
  ",,,,,,,,,,,,,,,,,,,,,,,,,,,,
194,0,,html-keyboard-response,194,708145,0.0-7.5-3.5,v2rlf75t1ut,2022-09-19 13:29:24.238,5d51a96b5054110015905fd9,1,86,6,85,7,52,Male,,,"<p style=""font-size:50px"">You win!
+10 points this round!</p>",,,,,,,,,,,,,,,,,,,,,,,,,,,,
195,0,,html-keyboard-response,195,708662,0.0-7.5-4.5,v2rlf75t1ut,2022-09-19 13:29:24.238,5d51a96b5054110015905fd9,1,86,6,85,7,52,Male,,,,,,1.0,choice,5.0,D,Xnc,black,black,bolts,stars,Xnc,D,Xnc,black,bolts,2105.0,0.0,0.0,1,left,1556.0,2.0,0.0,1.0,,,
196,0,,html-keyboard-response,196,711920,0.0-7.6-0.6,v2rlf75t1ut,2022-09-19 13:29:24.238,5d51a96b5054110015905fd9,1,86,6,85,7,52,Male,3257.0,,"
  <table>
  <tr height=300>
    <td width=300 height=300><img src=""static/images/cards/stack_of_black_stars.svg"" width=""175px"" height=""250px""></img></td>
    <td width=300 height=300><img src=""static/images/cards/stack_of_black_moons.svg"" width=""175px"" height=""250px""></img></td>
  </tr>
  <tr height=200>
    <td width=300><img src=""static/images/keys/w.svg"" width=""35%"" height=""75%""></img></td>
    <td width=300><img src=""static/images/keys/o.svg"" width=""35%"" height=""75%""></img></td>
  </tr>
</table>
  ",87.0,1.0,,,,,,,,,,,,,,,,,,,,,,,,,,
197,0,,html-keyboard-response,197,713912,0.0-7.6-1.6,v2rlf75t1ut,2022-09-19 13:29:24.238,5d51a96b5054110015905fd9,1,86,6,85,7,52,Male,1485.0,,"
  <table>
  <tr height=300>
    <td width=300 height=300><img src=""static/images/cards/back_of_black_stars.svg"" width=""175px"" height=""250px""></img></td>
    <td width=300 height=300><img src=""static/images/cards/back_of_black_stars.svg"" width=""175px"" height=""250px""></img></td>
  </tr>
  <tr height=200>
    <td width=300></td>
    <td width=300><img src=""static/images/keys/m.svg"" width=""35%"" height=""75%""></img></td>
  </tr>
</table>
  ",77.0,1.0,,,,,,,,,,,,,,,,,,,,,,,,,,
198,0,,html-keyboard-response,198,715433,0.0-7.6-2.6,v2rlf75t1ut,2022-09-19 13:29:24.238,5d51a96b5054110015905fd9,1,86,6,85,7,52,Male,,,"
  <table>
  <tr height=300>
    <td width=300 height=300><img src=""static/images/cards/back_of_black_stars.svg"" width=""175px"" height=""250px""></img></td>
    <td width=300 height=300><img src=""static/images/cards/9_of_black_stars.svg"" width=""175px"" height=""250px""></img></td>
  </tr>
  <tr height=200>
    <td width=300></td>
    <td width=300><img src=""static/images/keys/m.svg"" width=""35%"" height=""75%""></img></td>
  </tr>
</table>
  ",,,,,,,,,,,,,,,,,,,,,,,,,,,,
199,0,,html-keyboard-response,199,716938,0.0-7.6-3.6,v2rlf75t1ut,2022-09-19 13:29:24.238,5d51a96b5054110015905fd9,1,86,6,85,7,52,Male,,,"<p style=""font-size:50px"">You win!
+10 points this round!</p>",,,,,,,,,,,,,,,,,,,,,,,,,,,,
200,0,,html-keyboard-response,200,717454,0.0-7.6-4.6,v2rlf75t1ut,2022-09-19 13:29:24.238,5d51a96b5054110015905fd9,1,86,6,85,7,52,Male,,,,,,1.0,choice,6.0,B,D,black,black,stars,moons,D,B,D,black,stars,3257.0,0.0,0.0,0,right,1485.0,9.0,1.0,1.0,,,
201,0,,html-keyboard-response,201,719274,0.0-7.7-0.7,v2rlf75t1ut,2022-09-19 13:29:24.238,5d51a96b5054110015905fd9,1,86,6,85,7,52,Male,1819.0,,"
  <table>
  <tr height=300>
    <td width=300 height=300><img src=""static/images/cards/stack_of_red_moons.svg"" width=""175px"" height=""250px""></img></td>
    <td width=300 height=300><img src=""static/images/cards/stack_of_black_moons.svg"" width=""175px"" height=""250px""></img></td>
  </tr>
  <tr height=200>
    <td width=300><img src=""static/images/keys/w.svg"" width=""35%"" height=""75%""></img></td>
    <td width=300><img src=""static/images/keys/o.svg"" width=""35%"" height=""75%""></img></td>
  </tr>
</table>
  ",87.0,1.0,,,,,,,,,,,,,,,,,,,,,,,,,,
202,0,,html-keyboard-response,202,722073,0.0-7.7-1.7,v2rlf75t1ut,2022-09-19 13:29:24.238,5d51a96b5054110015905fd9,1,86,6,85,7,52,Male,2296.0,,"
  <table>
  <tr height=300>
    <td width=300 height=300><img src=""static/images/cards/back_of_red_moons.svg"" width=""175px"" height=""250px""></img></td>
    <td width=300 height=300><img src=""static/images/cards/back_of_red_moons.svg"" width=""175px"" height=""250px""></img></td>
  </tr>
  <tr height=200>
    <td width=300><img src=""static/images/keys/z.svg"" width=""35%"" height=""75%""></img></td>
    <td width=300><img src=""static/images/keys/m.svg"" width=""35%"" height=""75%""></img></td>
  </tr>
</table>
  ",90.0,1.0,,,,,,,,,,,,,,,,,,,,,,,,,,
203,0,,html-keyboard-response,203,723586,0.0-7.7-2.7,v2rlf75t1ut,2022-09-19 13:29:24.238,5d51a96b5054110015905fd9,1,86,6,85,7,52,Male,,,"
  <table>
  <tr height=300>
    <td width=300 height=300><img src=""static/images/cards/7_of_red_moons.svg"" width=""175px"" height=""250px""></img></td>
    <td width=300 height=300><img src=""static/images/cards/back_of_red_moons.svg"" width=""175px"" height=""250px""></img></td>
  </tr>
  <tr height=200>
    <td width=300><img src=""static/images/keys/z.svg"" width=""35%"" height=""75%""></img></td>
    <td width=300><img src=""static/images/keys/m.svg"" width=""35%"" height=""75%""></img></td>
  </tr>
</table>
  ",,,,,,,,,,,,,,,,,,,,,,,,,,,,
204,0,,html-keyboard-response,204,725090,0.0-7.7-3.7,v2rlf75t1ut,2022-09-19 13:29:24.238,5d51a96b5054110015905fd9,1,86,6,85,7,52,Male,,,"<p style=""font-size:50px"">You win!
+10 points this round!</p>",,,,,,,,,,,,,,,,,,,,,,,,,,,,
205,0,,html-keyboard-response,205,725607,0.0-7.7-4.7,v2rlf75t1ut,2022-09-19 13:29:24.238,5d51a96b5054110015905fd9,1,86,6,85,7,52,Male,,,,,,1.0,choice,7.0,A,B,red,black,moons,moons,A,B,A,red,moons,1819.0,1.0,1.0,NA,left,2296.0,7.0,1.0,1.0,,,
206,0,,html-keyboard-response,206,727322,0.0-7.8-0.8,v2rlf75t1ut,2022-09-19 13:29:24.238,5d51a96b5054110015905fd9,1,86,6,85,7,52,Male,1714.0,,"
  <table>
  <tr height=300>
    <td width=300 height=300><img src=""static/images/cards/stack_of_red_moons.svg"" width=""175px"" height=""250px""></img></td>
    <td width=300 height=300><img src=""static/images/cards/stack_of_black_stars.svg"" width=""175px"" height=""250px""></img></td>
  </tr>
  <tr height=200>
    <td width=300><img src=""static/images/keys/w.svg"" width=""35%"" height=""75%""></img></td>
    <td width=300><img src=""static/images/keys/o.svg"" width=""35%"" height=""75%""></img></td>
  </tr>
</table>
  ",87.0,1.0,,,,,,,,,,,,,,,,,,,,,,,,,,
207,0,,html-keyboard-response,207,728738,0.0-7.8-1.8,v2rlf75t1ut,2022-09-19 13:29:24.238,5d51a96b5054110015905fd9,1,86,6,85,7,52,Male,909.0,,"
  <table>
  <tr height=300>
    <td width=300 height=300><img src=""static/images/cards/back_of_red_moons.svg"" width=""175px"" height=""250px""></img></td>
    <td width=300 height=300><img src=""static/images/cards/back_of_red_moons.svg"" width=""175px"" height=""250px""></img></td>
  </tr>
  <tr height=200>
    <td width=300><img src=""static/images/keys/z.svg"" width=""35%"" height=""75%""></img></td>
    <td width=300><img src=""static/images/keys/m.svg"" width=""35%"" height=""75%""></img></td>
  </tr>
</table>
  ",90.0,1.0,,,,,,,,,,,,,,,,,,,,,,,,,,
208,0,,html-keyboard-response,208,730251,0.0-7.8-2.8,v2rlf75t1ut,2022-09-19 13:29:24.238,5d51a96b5054110015905fd9,1,86,6,85,7,52,Male,,,"
  <table>
  <tr height=300>
    <td width=300 height=300><img src=""static/images/cards/2_of_red_moons.svg"" width=""175px"" height=""250px""></img></td>
    <td width=300 height=300><img src=""static/images/cards/back_of_red_moons.svg"" width=""175px"" height=""250px""></img></td>
  </tr>
  <tr height=200>
    <td width=300><img src=""static/images/keys/z.svg"" width=""35%"" height=""75%""></img></td>
    <td width=300><img src=""static/images/keys/m.svg"" width=""35%"" height=""75%""></img></td>
  </tr>
</table>
  ",,,,,,,,,,,,,,,,,,,,,,,,,,,,
209,0,,html-keyboard-response,209,731754,0.0-7.8-3.8,v2rlf75t1ut,2022-09-19 13:29:24.238,5d51a96b5054110015905fd9,1,86,6,85,7,52,Male,,,"<p style=""font-size:50px"">You Lose!
No points this round.</p>",,,,,,,,,,,,,,,,,,,,,,,,,,,,
210,0,,html-keyboard-response,210,732281,0.0-7.8-4.8,v2rlf75t1ut,2022-09-19 13:29:24.238,5d51a96b5054110015905fd9,1,86,6,85,7,52,Male,,,,,,1.0,choice,8.0,A,D,red,black,moons,stars,A,D,A,red,moons,1714.0,1.0,1.0,NA,left,909.0,2.0,0.0,0.0,,,
211,0,,html-keyboard-response,211,734186,0.0-7.9-0.9,v2rlf75t1ut,2022-09-19 13:29:24.238,5d51a96b5054110015905fd9,1,86,6,85,7,52,Male,1905.0,,"
  <table>
  <tr height=300>
    <td width=300 height=300><img src=""static/images/cards/stack_of_red_bolts.svg"" width=""175px"" height=""250px""></img></td>
    <td width=300 height=300><img src=""static/images/cards/stack_of_red_moons.svg"" width=""175px"" height=""250px""></img></td>
  </tr>
  <tr height=200>
    <td width=300><img src=""static/images/keys/w.svg"" width=""35%"" height=""75%""></img></td>
    <td width=300><img src=""static/images/keys/o.svg"" width=""35%"" height=""75%""></img></td>
  </tr>
</table>
  ",87.0,1.0,,,,,,,,,,,,,,,,,,,,,,,,,,
212,0,,html-keyboard-response,212,735531,0.0-7.9-1.9,v2rlf75t1ut,2022-09-19 13:29:24.238,5d51a96b5054110015905fd9,1,86,6,85,7,52,Male,830.0,,"
  <table>
  <tr height=300>
    <td width=300 height=300><img src=""static/images/cards/back_of_red_bolts.svg"" width=""175px"" height=""250px""></img></td>
    <td width=300 height=300><img src=""static/images/cards/back_of_red_bolts.svg"" width=""175px"" height=""250px""></img></td>
  </tr>
  <tr height=200>
    <td width=300><img src=""static/images/keys/z.svg"" width=""35%"" height=""75%""></img></td>
    <td width=300><img src=""static/images/keys/m.svg"" width=""35%"" height=""75%""></img></td>
  </tr>
</table>
  ",90.0,1.0,,,,,,,,,,,,,,,,,,,,,,,,,,
213,0,,html-keyboard-response,213,737037,0.0-7.9-2.9,v2rlf75t1ut,2022-09-19 13:29:24.238,5d51a96b5054110015905fd9,1,86,6,85,7,52,Male,,,"
  <table>
  <tr height=300>
    <td width=300 height=300><img src=""static/images/cards/9_of_red_bolts.svg"" width=""175px"" height=""250px""></img></td>
    <td width=300 height=300><img src=""static/images/cards/back_of_red_bolts.svg"" width=""175px"" height=""250px""></img></td>
  </tr>
  <tr height=200>
    <td width=300><img src=""static/images/keys/z.svg"" width=""35%"" height=""75%""></img></td>
    <td width=300><img src=""static/images/keys/m.svg"" width=""35%"" height=""75%""></img></td>
  </tr>
</table>
  ",,,,,,,,,,,,,,,,,,,,,,,,,,,,
214,0,,html-keyboard-response,214,738541,0.0-7.9-3.9,v2rlf75t1ut,2022-09-19 13:29:24.238,5d51a96b5054110015905fd9,1,86,6,85,7,52,Male,,,"<p style=""font-size:50px"">You win!
+10 points this round!</p>",,,,,,,,,,,,,,,,,,,,,,,,,,,,
215,0,,html-keyboard-response,215,739058,0.0-7.9-4.9,v2rlf75t1ut,2022-09-19 13:29:24.238,5d51a96b5054110015905fd9,1,86,6,85,7,52,Male,,,,,,1.0,choice,9.0,A,Xc,red,red,bolts,moons,Xc,A,Xc,red,bolts,1905.0,1.0,0.0,NA,left,830.0,9.0,1.0,1.0,,,
216,0,,html-keyboard-response,216,741043,0.0-7.10-0.10,v2rlf75t1ut,2022-09-19 13:29:24.238,5d51a96b5054110015905fd9,1,86,6,85,7,52,Male,1985.0,,"
  <table>
  <tr height=300>
    <td width=300 height=300><img src=""static/images/cards/stack_of_red_moons.svg"" width=""175px"" height=""250px""></img></td>
    <td width=300 height=300><img src=""static/images/cards/stack_of_red_stars.svg"" width=""175px"" height=""250px""></img></td>
  </tr>
  <tr height=200>
    <td width=300><img src=""static/images/keys/w.svg"" width=""35%"" height=""75%""></img></td>
    <td width=300><img src=""static/images/keys/o.svg"" width=""35%"" height=""75%""></img></td>
  </tr>
</table>
  ",87.0,1.0,,,,,,,,,,,,,,,,,,,,,,,,,,
217,0,,html-keyboard-response,217,742395,0.0-7.10-1.10,v2rlf75t1ut,2022-09-19 13:29:24.238,5d51a96b5054110015905fd9,1,86,6,85,7,52,Male,845.0,,"
  <table>
  <tr height=300>
    <td width=300 height=300><img src=""static/images/cards/back_of_red_moons.svg"" width=""175px"" height=""250px""></img></td>
    <td width=300 height=300><img src=""static/images/cards/back_of_red_moons.svg"" width=""175px"" height=""250px""></img></td>
  </tr>
  <tr height=200>
    <td width=300><img src=""static/images/keys/z.svg"" width=""35%"" height=""75%""></img></td>
    <td width=300><img src=""static/images/keys/m.svg"" width=""35%"" height=""75%""></img></td>
  </tr>
</table>
  ",90.0,1.0,,,,,,,,,,,,,,,,,,,,,,,,,,
218,0,,html-keyboard-response,218,743908,0.0-7.10-2.10,v2rlf75t1ut,2022-09-19 13:29:24.238,5d51a96b5054110015905fd9,1,86,6,85,7,52,Male,,,"
  <table>
  <tr height=300>
    <td width=300 height=300><img src=""static/images/cards/1_of_red_moons.svg"" width=""175px"" height=""250px""></img></td>
    <td width=300 height=300><img src=""static/images/cards/back_of_red_moons.svg"" width=""175px"" height=""250px""></img></td>
  </tr>
  <tr height=200>
    <td width=300><img src=""static/images/keys/z.svg"" width=""35%"" height=""75%""></img></td>
    <td width=300><img src=""static/images/keys/m.svg"" width=""35%"" height=""75%""></img></td>
  </tr>
</table>
  ",,,,,,,,,,,,,,,,,,,,,,,,,,,,
219,0,,html-keyboard-response,219,745413,0.0-7.10-3.10,v2rlf75t1ut,2022-09-19 13:29:24.238,5d51a96b5054110015905fd9,1,86,6,85,7,52,Male,,,"<p style=""font-size:50px"">You Lose!
No points this round.</p>",,,,,,,,,,,,,,,,,,,,,,,,,,,,
220,0,,html-keyboard-response,220,745929,0.0-7.10-4.10,v2rlf75t1ut,2022-09-19 13:29:24.238,5d51a96b5054110015905fd9,1,86,6,85,7,52,Male,,,,,,1.0,choice,10.0,A,C,red,red,moons,stars,A,C,A,red,moons,1985.0,1.0,1.0,NA,left,845.0,1.0,0.0,0.0,,,
221,0,,html-keyboard-response,221,750213,0.0-7.11-0.11,v2rlf75t1ut,2022-09-19 13:29:24.238,5d51a96b5054110015905fd9,1,86,6,85,7,52,Male,4282.0,,"
  <table>
  <tr height=300>
    <td width=300 height=300><img src=""static/images/cards/stack_of_black_stars.svg"" width=""175px"" height=""250px""></img></td>
    <td width=300 height=300><img src=""static/images/cards/stack_of_red_stars.svg"" width=""175px"" height=""250px""></img></td>
  </tr>
  <tr height=200>
    <td width=300><img src=""static/images/keys/w.svg"" width=""35%"" height=""75%""></img></td>
    <td width=300><img src=""static/images/keys/o.svg"" width=""35%"" height=""75%""></img></td>
  </tr>
</table>
  ",79.0,1.0,,,,,,,,,,,,,,,,,,,,,,,,,,
222,0,,html-keyboard-response,222,752301,0.0-7.11-1.11,v2rlf75t1ut,2022-09-19 13:29:24.238,5d51a96b5054110015905fd9,1,86,6,85,7,52,Male,1573.0,,"
  <table>
  <tr height=300>
    <td width=300 height=300><img src=""static/images/cards/back_of_red_stars.svg"" width=""175px"" height=""250px""></img></td>
    <td width=300 height=300><img src=""static/images/cards/back_of_red_stars.svg"" width=""175px"" height=""250px""></img></td>
  </tr>
  <tr height=200>
    <td width=300><img src=""static/images/keys/z.svg"" width=""35%"" height=""75%""></img></td>
    <td width=300><img src=""static/images/keys/m.svg"" width=""35%"" height=""75%""></img></td>
  </tr>
</table>
  ",77.0,1.0,,,,,,,,,,,,,,,,,,,,,,,,,,
223,0,,html-keyboard-response,223,753807,0.0-7.11-2.11,v2rlf75t1ut,2022-09-19 13:29:24.238,5d51a96b5054110015905fd9,1,86,6,85,7,52,Male,,,"
  <table>
  <tr height=300>
    <td width=300 height=300><img src=""static/images/cards/back_of_red_stars.svg"" width=""175px"" height=""250px""></img></td>
    <td width=300 height=300><img src=""static/images/cards/1_of_red_stars.svg"" width=""175px"" height=""250px""></img></td>
  </tr>
  <tr height=200>
    <td width=300><img src=""static/images/keys/z.svg"" width=""35%"" height=""75%""></img></td>
    <td width=300><img src=""static/images/keys/m.svg"" width=""35%"" height=""75%""></img></td>
  </tr>
</table>
  ",,,,,,,,,,,,,,,,,,,,,,,,,,,,
224,0,,html-keyboard-response,224,755327,0.0-7.11-3.11,v2rlf75t1ut,2022-09-19 13:29:24.238,5d51a96b5054110015905fd9,1,86,6,85,7,52,Male,,,"<p style=""font-size:50px"">You win!
+10 points this round!</p>",,,,,,,,,,,,,,,,,,,,,,,,,,,,
225,0,,html-keyboard-response,225,755855,0.0-7.11-4.11,v2rlf75t1ut,2022-09-19 13:29:24.238,5d51a96b5054110015905fd9,1,86,6,85,7,52,Male,,,,,,1.0,choice,11.0,C,D,black,red,stars,stars,D,C,C,red,stars,4282.0,1.0,0.0,NA,right,1573.0,1.0,0.0,1.0,,,
226,0,,html-keyboard-response,226,758710,0.0-7.12-0.12,v2rlf75t1ut,2022-09-19 13:29:24.238,5d51a96b5054110015905fd9,1,86,6,85,7,52,Male,2854.0,,"
  <table>
  <tr height=300>
    <td width=300 height=300><img src=""static/images/cards/stack_of_black_moons.svg"" width=""175px"" height=""250px""></img></td>
    <td width=300 height=300><img src=""static/images/cards/stack_of_red_moons.svg"" width=""175px"" height=""250px""></img></td>
  </tr>
  <tr height=200>
    <td width=300><img src=""static/images/keys/w.svg"" width=""35%"" height=""75%""></img></td>
    <td width=300><img src=""static/images/keys/o.svg"" width=""35%"" height=""75%""></img></td>
  </tr>
</table>
  ",79.0,1.0,,,,,,,,,,,,,,,,,,,,,,,,,,
227,0,,html-keyboard-response,227,759773,0.0-7.12-1.12,v2rlf75t1ut,2022-09-19 13:29:24.238,5d51a96b5054110015905fd9,1,86,6,85,7,52,Male,556.0,,"
  <table>
  <tr height=300>
    <td width=300 height=300><img src=""static/images/cards/back_of_red_moons.svg"" width=""175px"" height=""250px""></img></td>
    <td width=300 height=300><img src=""static/images/cards/back_of_red_moons.svg"" width=""175px"" height=""250px""></img></td>
  </tr>
  <tr height=200>
    <td width=300><img src=""static/images/keys/z.svg"" width=""35%"" height=""75%""></img></td>
    <td width=300><img src=""static/images/keys/m.svg"" width=""35%"" height=""75%""></img></td>
  </tr>
</table>
  ",77.0,1.0,,,,,,,,,,,,,,,,,,,,,,,,,,
228,0,,html-keyboard-response,228,761278,0.0-7.12-2.12,v2rlf75t1ut,2022-09-19 13:29:24.238,5d51a96b5054110015905fd9,1,86,6,85,7,52,Male,,,"
  <table>
  <tr height=300>
    <td width=300 height=300><img src=""static/images/cards/back_of_red_moons.svg"" width=""175px"" height=""250px""></img></td>
    <td width=300 height=300><img src=""static/images/cards/8_of_red_moons.svg"" width=""175px"" height=""250px""></img></td>
  </tr>
  <tr height=200>
    <td width=300><img src=""static/images/keys/z.svg"" width=""35%"" height=""75%""></img></td>
    <td width=300><img src=""static/images/keys/m.svg"" width=""35%"" height=""75%""></img></td>
  </tr>
</table>
  ",,,,,,,,,,,,,,,,,,,,,,,,,,,,
229,0,,html-keyboard-response,229,762799,0.0-7.12-3.12,v2rlf75t1ut,2022-09-19 13:29:24.238,5d51a96b5054110015905fd9,1,86,6,85,7,52,Male,,,"<p style=""font-size:50px"">You win!
+10 points this round!</p>",,,,,,,,,,,,,,,,,,,,,,,,,,,,
230,0,,html-keyboard-response,230,763325,0.0-7.12-4.12,v2rlf75t1ut,2022-09-19 13:29:24.238,5d51a96b5054110015905fd9,1,86,6,85,7,52,Male,,,,,,1.0,choice,12.0,A,B,black,red,moons,moons,B,A,A,red,moons,2854.0,1.0,1.0,NA,right,556.0,8.0,1.0,1.0,,,
231,0,,html-keyboard-response,231,765190,0.0-7.13-0.13,v2rlf75t1ut,2022-09-19 13:29:24.238,5d51a96b5054110015905fd9,1,86,6,85,7,52,Male,1863.0,,"
  <table>
  <tr height=300>
    <td width=300 height=300><img src=""static/images/cards/stack_of_black_moons.svg"" width=""175px"" height=""250px""></img></td>
    <td width=300 height=300><img src=""static/images/cards/stack_of_red_stars.svg"" width=""175px"" height=""250px""></img></td>
  </tr>
  <tr height=200>
    <td width=300><img src=""static/images/keys/w.svg"" width=""35%"" height=""75%""></img></td>
    <td width=300><img src=""static/images/keys/o.svg"" width=""35%"" height=""75%""></img></td>
  </tr>
</table>
  ",79.0,1.0,,,,,,,,,,,,,,,,,,,,,,,,,,
232,0,,html-keyboard-response,232,766519,0.0-7.13-1.13,v2rlf75t1ut,2022-09-19 13:29:24.238,5d51a96b5054110015905fd9,1,86,6,85,7,52,Male,825.0,,"
  <table>
  <tr height=300>
    <td width=300 height=300><img src=""static/images/cards/back_of_red_stars.svg"" width=""175px"" height=""250px""></img></td>
    <td width=300 height=300><img src=""static/images/cards/back_of_red_stars.svg"" width=""175px"" height=""250px""></img></td>
  </tr>
  <tr height=200>
    <td width=300><img src=""static/images/keys/z.svg"" width=""35%"" height=""75%""></img></td>
    <td width=300><img src=""static/images/keys/m.svg"" width=""35%"" height=""75%""></img></td>
  </tr>
</table>
  ",77.0,1.0,,,,,,,,,,,,,,,,,,,,,,,,,,
233,0,,html-keyboard-response,233,768030,0.0-7.13-2.13,v2rlf75t1ut,2022-09-19 13:29:24.238,5d51a96b5054110015905fd9,1,86,6,85,7,52,Male,,,"
  <table>
  <tr height=300>
    <td width=300 height=300><img src=""static/images/cards/back_of_red_stars.svg"" width=""175px"" height=""250px""></img></td>
    <td width=300 height=300><img src=""static/images/cards/2_of_red_stars.svg"" width=""175px"" height=""250px""></img></td>
  </tr>
  <tr height=200>
    <td width=300><img src=""static/images/keys/z.svg"" width=""35%"" height=""75%""></img></td>
    <td width=300><img src=""static/images/keys/m.svg"" width=""35%"" height=""75%""></img></td>
  </tr>
</table>
  ",,,,,,,,,,,,,,,,,,,,,,,,,,,,
234,0,,html-keyboard-response,234,769551,0.0-7.13-3.13,v2rlf75t1ut,2022-09-19 13:29:24.238,5d51a96b5054110015905fd9,1,86,6,85,7,52,Male,,,"<p style=""font-size:50px"">You win!
+10 points this round!</p>",,,,,,,,,,,,,,,,,,,,,,,,,,,,
235,0,,html-keyboard-response,235,770079,0.0-7.13-4.13,v2rlf75t1ut,2022-09-19 13:29:24.238,5d51a96b5054110015905fd9,1,86,6,85,7,52,Male,,,,,,1.0,choice,13.0,B,C,black,red,moons,stars,B,C,C,red,stars,1863.0,1.0,0.0,NA,right,825.0,2.0,0.0,1.0,,,
236,0,,html-keyboard-response,236,772231,0.0-7.14-0.14,v2rlf75t1ut,2022-09-19 13:29:24.238,5d51a96b5054110015905fd9,1,86,6,85,7,52,Male,2151.0,,"
  <table>
  <tr height=300>
    <td width=300 height=300><img src=""static/images/cards/stack_of_red_bolts.svg"" width=""175px"" height=""250px""></img></td>
    <td width=300 height=300><img src=""static/images/cards/stack_of_red_stars.svg"" width=""175px"" height=""250px""></img></td>
  </tr>
  <tr height=200>
    <td width=300><img src=""static/images/keys/w.svg"" width=""35%"" height=""75%""></img></td>
    <td width=300><img src=""static/images/keys/o.svg"" width=""35%"" height=""75%""></img></td>
  </tr>
</table>
  ",87.0,1.0,,,,,,,,,,,,,,,,,,,,,,,,,,
237,0,,html-keyboard-response,237,773807,0.0-7.14-1.14,v2rlf75t1ut,2022-09-19 13:29:24.238,5d51a96b5054110015905fd9,1,86,6,85,7,52,Male,1069.0,,"
  <table>
  <tr height=300>
    <td width=300 height=300><img src=""static/images/cards/back_of_red_bolts.svg"" width=""175px"" height=""250px""></img></td>
    <td width=300 height=300><img src=""static/images/cards/back_of_red_bolts.svg"" width=""175px"" height=""250px""></img></td>
  </tr>
  <tr height=200>
    <td width=300><img src=""static/images/keys/z.svg"" width=""35%"" height=""75%""></img></td>
    <td width=300><img src=""static/images/keys/m.svg"" width=""35%"" height=""75%""></img></td>
  </tr>
</table>
  ",90.0,1.0,,,,,,,,,,,,,,,,,,,,,,,,,,
238,0,,html-keyboard-response,238,775320,0.0-7.14-2.14,v2rlf75t1ut,2022-09-19 13:29:24.238,5d51a96b5054110015905fd9,1,86,6,85,7,52,Male,,,"
  <table>
  <tr height=300>
    <td width=300 height=300><img src=""static/images/cards/10_of_red_bolts.svg"" width=""175px"" height=""250px""></img></td>
    <td width=300 height=300><img src=""static/images/cards/back_of_red_bolts.svg"" width=""175px"" height=""250px""></img></td>
  </tr>
  <tr height=200>
    <td width=300><img src=""static/images/keys/z.svg"" width=""35%"" height=""75%""></img></td>
    <td width=300><img src=""static/images/keys/m.svg"" width=""35%"" height=""75%""></img></td>
  </tr>
</table>
  ",,,,,,,,,,,,,,,,,,,,,,,,,,,,
239,0,,html-keyboard-response,239,776837,0.0-7.14-3.14,v2rlf75t1ut,2022-09-19 13:29:24.238,5d51a96b5054110015905fd9,1,86,6,85,7,52,Male,,,"<p style=""font-size:50px"">You win!
+10 points this round!</p>",,,,,,,,,,,,,,,,,,,,,,,,,,,,
240,0,,html-keyboard-response,240,777365,0.0-7.14-4.14,v2rlf75t1ut,2022-09-19 13:29:24.238,5d51a96b5054110015905fd9,1,86,6,85,7,52,Male,,,,,,1.0,choice,14.0,C,Xc,red,red,bolts,stars,Xc,C,Xc,red,bolts,2151.0,1.0,0.0,NA,left,1069.0,10.0,1.0,1.0,,,
241,0,,html-keyboard-response,241,779712,0.0-7.15-0.15,v2rlf75t1ut,2022-09-19 13:29:24.238,5d51a96b5054110015905fd9,1,86,6,85,7,52,Male,2345.0,,"
  <table>
  <tr height=300>
    <td width=300 height=300><img src=""static/images/cards/stack_of_red_stars.svg"" width=""175px"" height=""250px""></img></td>
    <td width=300 height=300><img src=""static/images/cards/stack_of_red_moons.svg"" width=""175px"" height=""250px""></img></td>
  </tr>
  <tr height=200>
    <td width=300><img src=""static/images/keys/w.svg"" width=""35%"" height=""75%""></img></td>
    <td width=300><img src=""static/images/keys/o.svg"" width=""35%"" height=""75%""></img></td>
  </tr>
</table>
  ",87.0,1.0,,,,,,,,,,,,,,,,,,,,,,,,,,
242,0,,html-keyboard-response,242,780825,0.0-7.15-1.15,v2rlf75t1ut,2022-09-19 13:29:24.238,5d51a96b5054110015905fd9,1,86,6,85,7,52,Male,610.0,,"
  <table>
  <tr height=300>
    <td width=300 height=300><img src=""static/images/cards/back_of_red_stars.svg"" width=""175px"" height=""250px""></img></td>
    <td width=300 height=300><img src=""static/images/cards/back_of_red_stars.svg"" width=""175px"" height=""250px""></img></td>
  </tr>
  <tr height=200>
    <td width=300><img src=""static/images/keys/z.svg"" width=""35%"" height=""75%""></img></td>
    <td width=300><img src=""static/images/keys/m.svg"" width=""35%"" height=""75%""></img></td>
  </tr>
</table>
  ",90.0,1.0,,,,,,,,,,,,,,,,,,,,,,,,,,
243,0,,html-keyboard-response,243,782340,0.0-7.15-2.15,v2rlf75t1ut,2022-09-19 13:29:24.238,5d51a96b5054110015905fd9,1,86,6,85,7,52,Male,,,"
  <table>
  <tr height=300>
    <td width=300 height=300><img src=""static/images/cards/7_of_red_stars.svg"" width=""175px"" height=""250px""></img></td>
    <td width=300 height=300><img src=""static/images/cards/back_of_red_stars.svg"" width=""175px"" height=""250px""></img></td>
  </tr>
  <tr height=200>
    <td width=300><img src=""static/images/keys/z.svg"" width=""35%"" height=""75%""></img></td>
    <td width=300><img src=""static/images/keys/m.svg"" width=""35%"" height=""75%""></img></td>
  </tr>
</table>
  ",,,,,,,,,,,,,,,,,,,,,,,,,,,,
