,index,success,trial_type,trial_index,time_elapsed,internal_node_id,subject,date,prol_id,ctbl,sense_of_control_A,sense_of_control_B,sense_of_control_C,sense_of_control_D,age,gender,rt,url,stimulus,key_press,npress,is_data_trial,phase,trial,deck1,deck2,col1,col2,sym1,sym2,deck_l,deck_r,chosen_deck,chosen_col,chosen_sym,deck_rt,choose_choice,mutual_info,hidden_key,chosen_card,card_rt,player_num,win_card,outcome,mock_rating,response,responses
0,0,1.0,fullscreen,0,14008,0.0-0.0,0a7yvayyw0tj,2022-09-19 16:21:43.034,5f516d96bf6cde3b04b94b69,3,63,38,66,39,31,male,,,,,,,,,,,,,,,,,,,,,,,,,,,,,,,
1,0,,external-html,1,40793,0.0-1.0,0a7yvayyw0tj,2022-09-19 16:21:43.034,5f516d96bf6cde3b04b94b69,3,63,38,66,39,31,male,26742.5,static/js/sub/consent.html,,,,,,,,,,,,,,,,,,,,,,,,,,,,,
2,0,,call-function,2,40794,0.0-2.0,0a7yvayyw0tj,2022-09-19 16:21:43.034,5f516d96bf6cde3b04b94b69,3,63,38,66,39,31,male,,,,,,,,,,,,,,,,,,,,,,,,,,,,,,,
3,0,,image-keyboard-response,3,47790,0.0-3.0-0.0,0a7yvayyw0tj,2022-09-19 16:21:43.034,5f516d96bf6cde3b04b94b69,3,63,38,66,39,31,male,6995.3999999911,,static/images/instructions_CB_3/Slide1.png,39.0,,,,,,,,,,,,,,,,,,,,,,,,,,,
4,0,,image-keyboard-response,4,79501,0.0-3.1-0.1,0a7yvayyw0tj,2022-09-19 16:21:43.034,5f516d96bf6cde3b04b94b69,3,63,38,66,39,31,male,31710.799999997,,static/images/instructions_CB_3/Slide2.png,39.0,,,,,,,,,,,,,,,,,,,,,,,,,,,
5,0,,image-keyboard-response,5,96325,0.0-3.2-0.2,0a7yvayyw0tj,2022-09-19 16:21:43.034,5f516d96bf6cde3b04b94b69,3,63,38,66,39,31,male,16823.3000000119,,static/images/instructions_CB_3/Slide3.png,39.0,,,,,,,,,,,,,,,,,,,,,,,,,,,
6,0,,image-keyboard-response,6,107414,0.0-3.3-0.3,0a7yvayyw0tj,2022-09-19 16:21:43.034,5f516d96bf6cde3b04b94b69,3,63,38,66,39,31,male,11088.0,,static/images/instructions_CB_3/Slide4.png,39.0,,,,,,,,,,,,,,,,,,,,,,,,,,,
7,0,,image-keyboard-response,7,121069,0.0-3.4-0.4,0a7yvayyw0tj,2022-09-19 16:21:43.034,5f516d96bf6cde3b04b94b69,3,63,38,66,39,31,male,13655.0,,static/images/instructions_CB_3/Slide5.png,39.0,,,,,,,,,,,,,,,,,,,,,,,,,,,
8,0,,image-keyboard-response,8,126870,0.0-3.5-0.5,0a7yvayyw0tj,2022-09-19 16:21:43.034,5f516d96bf6cde3b04b94b69,3,63,38,66,39,31,male,5799.8999999911,,static/images/instructions_CB_3/Slide6.png,39.0,,,,,,,,,,,,,,,,,,,,,,,,,,,
9,0,,image-keyboard-response,9,136230,0.0-3.6-0.6,0a7yvayyw0tj,2022-09-19 16:21:43.034,5f516d96bf6cde3b04b94b69,3,63,38,66,39,31,male,9359.700000003,,static/images/instructions_CB_3/Slide7.png,39.0,,,,,,,,,,,,,,,,,,,,,,,,,,,
10,0,,image-keyboard-response,10,181149,0.0-3.7-0.7,0a7yvayyw0tj,2022-09-19 16:21:43.034,5f516d96bf6cde3b04b94b69,3,63,38,66,39,31,male,44919.1000000089,,static/images/instructions_CB_3/Slide8.png,39.0,,,,,,,,,,,,,,,,,,,,,,,,,,,
11,0,,image-keyboard-response,11,190446,0.0-3.8-0.8,0a7yvayyw0tj,2022-09-19 16:21:43.034,5f516d96bf6cde3b04b94b69,3,63,38,66,39,31,male,9296.299999997,,static/images/instructions_CB_3/Slide9.png,39.0,,,,,,,,,,,,,,,,,,,,,,,,,,,
12,0,,image-keyboard-response,12,209814,0.0-3.9-0.9,0a7yvayyw0tj,2022-09-19 16:21:43.034,5f516d96bf6cde3b04b94b69,3,63,38,66,39,31,male,19367.599999994,,static/images/instructions_CB_3/Slide10.png,39.0,,,,,,,,,,,,,,,,,,,,,,,,,,,
13,0,,image-keyboard-response,13,219646,0.0-3.10-0.10,0a7yvayyw0tj,2022-09-19 16:21:43.034,5f516d96bf6cde3b04b94b69,3,63,38,66,39,31,male,9831.900000006,,static/images/instructions_CB_3/Slide11.png,39.0,,,,,,,,,,,,,,,,,,,,,,,,,,,
14,0,,image-keyboard-response,14,242094,0.0-3.11-0.11,0a7yvayyw0tj,2022-09-19 16:21:43.034,5f516d96bf6cde3b04b94b69,3,63,38,66,39,31,male,22447.700000003,,static/images/instructions_CB_3/Slide12.png,39.0,,,,,,,,,,,,,,,,,,,,,,,,,,,
15,0,,image-keyboard-response,15,261294,0.0-3.12-0.12,0a7yvayyw0tj,2022-09-19 16:21:43.034,5f516d96bf6cde3b04b94b69,3,63,38,66,39,31,male,19199.700000003,,static/images/instructions_CB_3/Slide13.png,39.0,,,,,,,,,,,,,,,,,,,,,,,,,,,
16,0,,image-keyboard-response,16,274967,0.0-3.13-0.13,0a7yvayyw0tj,2022-09-19 16:21:43.034,5f516d96bf6cde3b04b94b69,3,63,38,66,39,31,male,13672.400000006,,static/images/instructions_CB_3/Slide14.png,39.0,,,,,,,,,,,,,,,,,,,,,,,,,,,
17,0,,image-keyboard-response,17,286966,0.0-3.14-0.14,0a7yvayyw0tj,2022-09-19 16:21:43.034,5f516d96bf6cde3b04b94b69,3,63,38,66,39,31,male,11998.799999997,,static/images/instructions_CB_3/Slide15.png,39.0,,,,,,,,,,,,,,,,,,,,,,,,,,,
18,0,,image-keyboard-response,18,296398,0.0-3.15-0.15,0a7yvayyw0tj,2022-09-19 16:21:43.034,5f516d96bf6cde3b04b94b69,3,63,38,66,39,31,male,9431.599999994,,static/images/instructions_CB_3/Slide16.png,39.0,,,,,,,,,,,,,,,,,,,,,,,,,,,
19,0,,image-keyboard-response,19,306461,0.0-3.16-0.16,0a7yvayyw0tj,2022-09-19 16:21:43.034,5f516d96bf6cde3b04b94b69,3,63,38,66,39,31,male,10063.3999999911,,static/images/instructions_CB_3/Slide17.png,39.0,,,,,,,,,,,,,,,,,,,,,,,,,,,
20,0,,image-keyboard-response,20,331109,0.0-3.17-0.17,0a7yvayyw0tj,2022-09-19 16:21:43.034,5f516d96bf6cde3b04b94b69,3,63,38,66,39,31,male,24647.700000003,,static/images/instructions_CB_3/Slide18.png,39.0,,,,,,,,,,,,,,,,,,,,,,,,,,,
21,0,,image-keyboard-response,21,340869,0.0-3.18-0.18,0a7yvayyw0tj,2022-09-19 16:21:43.034,5f516d96bf6cde3b04b94b69,3,63,38,66,39,31,male,9759.6000000089,,static/images/instructions_CB_3/Slide19.png,39.0,,,,,,,,,,,,,,,,,,,,,,,,,,,
22,0,,html-keyboard-response,22,342371,0.0-4.0-0.0,0a7yvayyw0tj,2022-09-19 16:21:43.034,5f516d96bf6cde3b04b94b69,3,63,38,66,39,31,male,,,"<img src=""static/images/cards/stack_of_black_moons.svg"" width=""175px"" height=""250px""></img>",,,,,,,,,,,,,,,,,,,,,,,,,,,,
23,0,,html-keyboard-response,23,344462,0.0-4.0-1.0,0a7yvayyw0tj,2022-09-19 16:21:43.034,5f516d96bf6cde3b04b94b69,3,63,38,66,39,31,male,1575.400000006,,"
  <table>
  <tr height=300>
    <td width=300 height=300><img src=""static/images/cards/back_of_black_moons.svg"" width=""175px"" height=""250px""></img></td>
    <td width=300 height=300><img src=""static/images/cards/back_of_black_moons.svg"" width=""175px"" height=""250px""></img></td>
  </tr>
  <tr height=200>
    <td width=300><img src=""static/images/keys/z.svg"" width=""35%"" height=""75%""></img></td>
    <td width=300><img src=""static/images/keys/m.svg"" width=""35%"" height=""75%""></img></td>
  </tr>
</table>
  ",77.0,1.0,,,,,,,,,,,,,,,,,,,,,,,,,,
24,0,,html-keyboard-response,24,345972,0.0-4.0-2.0,0a7yvayyw0tj,2022-09-19 16:21:43.034,5f516d96bf6cde3b04b94b69,3,63,38,66,39,31,male,,,"
  <table>
  <tr height=300>
    <td width=300 height=300><img src=""static/images/cards/back_of_black_moons.svg"" width=""175px"" height=""250px""></img></td>
    <td width=300 height=300><img src=""static/images/cards/8_of_black_moons.svg"" width=""175px"" height=""250px""></img></td>
  </tr>
  <tr height=200>
    <td width=300><img src=""static/images/keys/z.svg"" width=""35%"" height=""75%""></img></td>
    <td width=300><img src=""static/images/keys/m.svg"" width=""35%"" height=""75%""></img></td>
  </tr>
</table>
  ",,,,,,,,,,,,,,,,,,,,,,,,,,,,
25,0,,html-keyboard-response,25,347502,0.0-4.0-3.0,0a7yvayyw0tj,2022-09-19 16:21:43.034,5f516d96bf6cde3b04b94b69,3,63,38,66,39,31,male,,,"<p style=""font-size:50px"">You win!
+10 points this round!</p>",,,,,,,,,,,,,,,,,,,,,,,,,,,,
26,0,,html-keyboard-response,26,348021,0.0-4.0-4.0,0a7yvayyw0tj,2022-09-19 16:21:43.034,5f516d96bf6cde3b04b94b69,3,63,38,66,39,31,male,,,,,,1.0,learning,0.0,A,,black,,moons,,,,A,black,moons,,1.0,1.0,NA,right,1575.400000006,8.0,1.0,1.0,,,
27,0,,html-keyboard-response,27,349522,0.0-4.1-0.1,0a7yvayyw0tj,2022-09-19 16:21:43.034,5f516d96bf6cde3b04b94b69,3,63,38,66,39,31,male,,,"<img src=""static/images/cards/stack_of_red_moons.svg"" width=""175px"" height=""250px""></img>",,,,,,,,,,,,,,,,,,,,,,,,,,,,
28,0,,html-keyboard-response,28,350934,0.0-4.1-1.1,0a7yvayyw0tj,2022-09-19 16:21:43.034,5f516d96bf6cde3b04b94b69,3,63,38,66,39,31,male,899.3999999911,,"
  <table>
  <tr height=300>
    <td width=300 height=300><img src=""static/images/cards/back_of_red_moons.svg"" width=""175px"" height=""250px""></img></td>
    <td width=300 height=300><img src=""static/images/cards/back_of_red_moons.svg"" width=""175px"" height=""250px""></img></td>
  </tr>
  <tr height=200>
    <td width=300></td>
    <td width=300><img src=""static/images/keys/m.svg"" width=""35%"" height=""75%""></img></td>
  </tr>
</table>
  ",77.0,1.0,,,,,,,,,,,,,,,,,,,,,,,,,,
29,0,,html-keyboard-response,29,352444,0.0-4.1-2.1,0a7yvayyw0tj,2022-09-19 16:21:43.034,5f516d96bf6cde3b04b94b69,3,63,38,66,39,31,male,,,"
  <table>
  <tr height=300>
    <td width=300 height=300><img src=""static/images/cards/back_of_red_moons.svg"" width=""175px"" height=""250px""></img></td>
    <td width=300 height=300><img src=""static/images/cards/2_of_red_moons.svg"" width=""175px"" height=""250px""></img></td>
  </tr>
  <tr height=200>
    <td width=300></td>
    <td width=300><img src=""static/images/keys/m.svg"" width=""35%"" height=""75%""></img></td>
  </tr>
</table>
  ",,,,,,,,,,,,,,,,,,,,,,,,,,,,
30,0,,html-keyboard-response,30,353969,0.0-4.1-3.1,0a7yvayyw0tj,2022-09-19 16:21:43.034,5f516d96bf6cde3b04b94b69,3,63,38,66,39,31,male,,,"<p style=""font-size:50px"">You Lose!
No points this round.</p>",,,,,,,,,,,,,,,,,,,,,,,,,,,,
31,0,,html-keyboard-response,31,354476,0.0-4.1-4.1,0a7yvayyw0tj,2022-09-19 16:21:43.034,5f516d96bf6cde3b04b94b69,3,63,38,66,39,31,male,,,,,,1.0,learning,1.0,B,,red,,moons,,,,B,red,moons,,0.0,1.0,0,right,899.3999999911,2.0,0.0,0.0,,,
32,0,,html-keyboard-response,32,355986,0.0-4.2-0.2,0a7yvayyw0tj,2022-09-19 16:21:43.034,5f516d96bf6cde3b04b94b69,3,63,38,66,39,31,male,,,"<img src=""static/images/cards/stack_of_black_stars.svg"" width=""175px"" height=""250px""></img>",,,,,,,,,,,,,,,,,,,,,,,,,,,,
33,0,,html-keyboard-response,33,357805,0.0-4.2-1.2,0a7yvayyw0tj,2022-09-19 16:21:43.034,5f516d96bf6cde3b04b94b69,3,63,38,66,39,31,male,1316.900000006,,"
  <table>
  <tr height=300>
    <td width=300 height=300><img src=""static/images/cards/back_of_black_stars.svg"" width=""175px"" height=""250px""></img></td>
    <td width=300 height=300><img src=""static/images/cards/back_of_black_stars.svg"" width=""175px"" height=""250px""></img></td>
  </tr>
  <tr height=200>
    <td width=300><img src=""static/images/keys/z.svg"" width=""35%"" height=""75%""></img></td>
    <td width=300><img src=""static/images/keys/m.svg"" width=""35%"" height=""75%""></img></td>
  </tr>
</table>
  ",90.0,1.0,,,,,,,,,,,,,,,,,,,,,,,,,,
34,0,,html-keyboard-response,34,359310,0.0-4.2-2.2,0a7yvayyw0tj,2022-09-19 16:21:43.034,5f516d96bf6cde3b04b94b69,3,63,38,66,39,31,male,,,"
  <table>
  <tr height=300>
    <td width=300 height=300><img src=""static/images/cards/6_of_black_stars.svg"" width=""175px"" height=""250px""></img></td>
    <td width=300 height=300><img src=""static/images/cards/back_of_black_stars.svg"" width=""175px"" height=""250px""></img></td>
  </tr>
  <tr height=200>
    <td width=300><img src=""static/images/keys/z.svg"" width=""35%"" height=""75%""></img></td>
    <td width=300><img src=""static/images/keys/m.svg"" width=""35%"" height=""75%""></img></td>
  </tr>
</table>
  ",,,,,,,,,,,,,,,,,,,,,,,,,,,,
35,0,,html-keyboard-response,35,360835,0.0-4.2-3.2,0a7yvayyw0tj,2022-09-19 16:21:43.034,5f516d96bf6cde3b04b94b69,3,63,38,66,39,31,male,,,"<p style=""font-size:50px"">You Lose!
No points this round.</p>",,,,,,,,,,,,,,,,,,,,,,,,,,,,
36,0,,html-keyboard-response,36,361353,0.0-4.2-4.2,0a7yvayyw0tj,2022-09-19 16:21:43.034,5f516d96bf6cde3b04b94b69,3,63,38,66,39,31,male,,,,,,1.0,learning,2.0,C,,black,,stars,,,,C,black,stars,,1.0,0.0,NA,left,1316.900000006,6.0,1.0,0.0,,,
37,0,,html-keyboard-response,37,362855,0.0-4.3-0.3,0a7yvayyw0tj,2022-09-19 16:21:43.034,5f516d96bf6cde3b04b94b69,3,63,38,66,39,31,male,,,"<img src=""static/images/cards/stack_of_red_stars.svg"" width=""175px"" height=""250px""></img>",,,,,,,,,,,,,,,,,,,,,,,,,,,,
38,0,,html-keyboard-response,38,364301,0.0-4.3-1.3,0a7yvayyw0tj,2022-09-19 16:21:43.034,5f516d96bf6cde3b04b94b69,3,63,38,66,39,31,male,931.1999999881,,"
  <table>
  <tr height=300>
    <td width=300 height=300><img src=""static/images/cards/back_of_red_stars.svg"" width=""175px"" height=""250px""></img></td>
    <td width=300 height=300><img src=""static/images/cards/back_of_red_stars.svg"" width=""175px"" height=""250px""></img></td>
  </tr>
  <tr height=200>
    <td width=300></td>
    <td width=300><img src=""static/images/keys/m.svg"" width=""35%"" height=""75%""></img></td>
  </tr>
</table>
  ",77.0,1.0,,,,,,,,,,,,,,,,,,,,,,,,,,
39,0,,html-keyboard-response,39,365815,0.0-4.3-2.3,0a7yvayyw0tj,2022-09-19 16:21:43.034,5f516d96bf6cde3b04b94b69,3,63,38,66,39,31,male,,,"
  <table>
  <tr height=300>
    <td width=300 height=300><img src=""static/images/cards/back_of_red_stars.svg"" width=""175px"" height=""250px""></img></td>
    <td width=300 height=300><img src=""static/images/cards/2_of_red_stars.svg"" width=""175px"" height=""250px""></img></td>
  </tr>
  <tr height=200>
    <td width=300></td>
    <td width=300><img src=""static/images/keys/m.svg"" width=""35%"" height=""75%""></img></td>
  </tr>
</table>
  ",,,,,,,,,,,,,,,,,,,,,,,,,,,,
40,0,,html-keyboard-response,40,367342,0.0-4.3-3.3,0a7yvayyw0tj,2022-09-19 16:21:43.034,5f516d96bf6cde3b04b94b69,3,63,38,66,39,31,male,,,"<p style=""font-size:50px"">You win!
+10 points this round!</p>",,,,,,,,,,,,,,,,,,,,,,,,,,,,
41,0,,html-keyboard-response,41,367861,0.0-4.3-4.3,0a7yvayyw0tj,2022-09-19 16:21:43.034,5f516d96bf6cde3b04b94b69,3,63,38,66,39,31,male,,,,,,1.0,learning,3.0,D,,red,,stars,,,,D,red,stars,,0.0,0.0,0,right,931.1999999881,2.0,0.0,1.0,,,
42,0,,html-keyboard-response,42,369374,0.0-4.4-0.4,0a7yvayyw0tj,2022-09-19 16:21:43.034,5f516d96bf6cde3b04b94b69,3,63,38,66,39,31,male,,,"<img src=""static/images/cards/stack_of_red_bolts.svg"" width=""175px"" height=""250px""></img>",,,,,,,,,,,,,,,,,,,,,,,,,,,,
43,0,,html-keyboard-response,43,370974,0.0-4.4-1.4,0a7yvayyw0tj,2022-09-19 16:21:43.034,5f516d96bf6cde3b04b94b69,3,63,38,66,39,31,male,1083.700000003,,"
  <table>
  <tr height=300>
    <td width=300 height=300><img src=""static/images/cards/back_of_red_bolts.svg"" width=""175px"" height=""250px""></img></td>
    <td width=300 height=300><img src=""static/images/cards/back_of_red_bolts.svg"" width=""175px"" height=""250px""></img></td>
  </tr>
  <tr height=200>
    <td width=300><img src=""static/images/keys/z.svg"" width=""35%"" height=""75%""></img></td>
    <td width=300><img src=""static/images/keys/m.svg"" width=""35%"" height=""75%""></img></td>
  </tr>
</table>
  ",77.0,1.0,,,,,,,,,,,,,,,,,,,,,,,,,,
44,0,,html-keyboard-response,44,372484,0.0-4.4-2.4,0a7yvayyw0tj,2022-09-19 16:21:43.034,5f516d96bf6cde3b04b94b69,3,63,38,66,39,31,male,,,"
  <table>
  <tr height=300>
    <td width=300 height=300><img src=""static/images/cards/back_of_red_bolts.svg"" width=""175px"" height=""250px""></img></td>
    <td width=300 height=300><img src=""static/images/cards/6_of_red_bolts.svg"" width=""175px"" height=""250px""></img></td>
  </tr>
  <tr height=200>
    <td width=300><img src=""static/images/keys/z.svg"" width=""35%"" height=""75%""></img></td>
    <td width=300><img src=""static/images/keys/m.svg"" width=""35%"" height=""75%""></img></td>
  </tr>
</table>
  ",,,,,,,,,,,,,,,,,,,,,,,,,,,,
45,0,,html-keyboard-response,45,374013,0.0-4.4-3.4,0a7yvayyw0tj,2022-09-19 16:21:43.034,5f516d96bf6cde3b04b94b69,3,63,38,66,39,31,male,,,"<p style=""font-size:50px"">You win!
+10 points this round!</p>",,,,,,,,,,,,,,,,,,,,,,,,,,,,
46,0,,html-keyboard-response,46,374523,0.0-4.4-4.4,0a7yvayyw0tj,2022-09-19 16:21:43.034,5f516d96bf6cde3b04b94b69,3,63,38,66,39,31,male,,,,,,1.0,learning,4.0,Xc,,red,,bolts,,,,Xc,red,bolts,,1.0,0.0,NA,right,1083.700000003,6.0,1.0,1.0,,,
47,0,,html-keyboard-response,47,376031,0.0-4.5-0.5,0a7yvayyw0tj,2022-09-19 16:21:43.034,5f516d96bf6cde3b04b94b69,3,63,38,66,39,31,male,,,"<img src=""static/images/cards/stack_of_black_bolts.svg"" width=""175px"" height=""250px""></img>",,,,,,,,,,,,,,,,,,,,,,,,,,,,
48,0,,html-keyboard-response,48,378918,0.0-4.5-1.5,0a7yvayyw0tj,2022-09-19 16:21:43.034,5f516d96bf6cde3b04b94b69,3,63,38,66,39,31,male,2372.0,,"
  <table>
  <tr height=300>
    <td width=300 height=300><img src=""static/images/cards/back_of_black_bolts.svg"" width=""175px"" height=""250px""></img></td>
    <td width=300 height=300><img src=""static/images/cards/back_of_black_bolts.svg"" width=""175px"" height=""250px""></img></td>
  </tr>
  <tr height=200>
    <td width=300><img src=""static/images/keys/z.svg"" width=""35%"" height=""75%""></img></td>
    <td width=300></td>
  </tr>
</table>
  ",90.0,2.0,,,,,,,,,,,,,,,,,,,,,,,,,,
49,0,,html-keyboard-response,49,380428,0.0-4.5-2.5,0a7yvayyw0tj,2022-09-19 16:21:43.034,5f516d96bf6cde3b04b94b69,3,63,38,66,39,31,male,,,"
  <table>
  <tr height=300>
    <td width=300 height=300><img src=""static/images/cards/9_of_black_bolts.svg"" width=""175px"" height=""250px""></img></td>
    <td width=300 height=300><img src=""static/images/cards/back_of_black_bolts.svg"" width=""175px"" height=""250px""></img></td>
  </tr>
  <tr height=200>
    <td width=300><img src=""static/images/keys/z.svg"" width=""35%"" height=""75%""></img></td>
    <td width=300></td>
  </tr>
</table>
  ",,,,,,,,,,,,,,,,,,,,,,,,,,,,
50,0,,html-keyboard-response,50,381954,0.0-4.5-3.5,0a7yvayyw0tj,2022-09-19 16:21:43.034,5f516d96bf6cde3b04b94b69,3,63,38,66,39,31,male,,,"<p style=""font-size:50px"">You win!
+10 points this round!</p>",,,,,,,,,,,,,,,,,,,,,,,,,,,,
51,0,,html-keyboard-response,51,382464,0.0-4.5-4.5,0a7yvayyw0tj,2022-09-19 16:21:43.034,5f516d96bf6cde3b04b94b69,3,63,38,66,39,31,male,,,,,,1.0,learning,5.0,Xnc,,black,,bolts,,,,Xnc,black,bolts,,0.0,0.0,1,left,2372.0,9.0,1.0,1.0,,,
52,0,,html-keyboard-response,52,383974,0.0-4.6-0.6,0a7yvayyw0tj,2022-09-19 16:21:43.034,5f516d96bf6cde3b04b94b69,3,63,38,66,39,31,male,,,"<img src=""static/images/cards/stack_of_black_moons.svg"" width=""175px"" height=""250px""></img>",,,,,,,,,,,,,,,,,,,,,,,,,,,,
53,0,,html-keyboard-response,53,386103,0.0-4.6-1.6,0a7yvayyw0tj,2022-09-19 16:21:43.034,5f516d96bf6cde3b04b94b69,3,63,38,66,39,31,male,1616.099999994,,"
  <table>
  <tr height=300>
    <td width=300 height=300><img src=""static/images/cards/back_of_black_moons.svg"" width=""175px"" height=""250px""></img></td>
    <td width=300 height=300><img src=""static/images/cards/back_of_black_moons.svg"" width=""175px"" height=""250px""></img></td>
  </tr>
  <tr height=200>
    <td width=300><img src=""static/images/keys/z.svg"" width=""35%"" height=""75%""></img></td>
    <td width=300><img src=""static/images/keys/m.svg"" width=""35%"" height=""75%""></img></td>
  </tr>
</table>
  ",90.0,2.0,,,,,,,,,,,,,,,,,,,,,,,,,,
54,0,,html-keyboard-response,54,387615,0.0-4.6-2.6,0a7yvayyw0tj,2022-09-19 16:21:43.034,5f516d96bf6cde3b04b94b69,3,63,38,66,39,31,male,,,"
  <table>
  <tr height=300>
    <td width=300 height=300><img src=""static/images/cards/2_of_black_moons.svg"" width=""175px"" height=""250px""></img></td>
    <td width=300 height=300><img src=""static/images/cards/back_of_black_moons.svg"" width=""175px"" height=""250px""></img></td>
  </tr>
  <tr height=200>
    <td width=300><img src=""static/images/keys/z.svg"" width=""35%"" height=""75%""></img></td>
    <td width=300><img src=""static/images/keys/m.svg"" width=""35%"" height=""75%""></img></td>
  </tr>
</table>
  ",,,,,,,,,,,,,,,,,,,,,,,,,,,,
55,0,,html-keyboard-response,55,389134,0.0-4.6-3.6,0a7yvayyw0tj,2022-09-19 16:21:43.034,5f516d96bf6cde3b04b94b69,3,63,38,66,39,31,male,,,"<p style=""font-size:50px"">You Lose!
No points this round.</p>",,,,,,,,,,,,,,,,,,,,,,,,,,,,
56,0,,html-keyboard-response,56,389653,0.0-4.6-4.6,0a7yvayyw0tj,2022-09-19 16:21:43.034,5f516d96bf6cde3b04b94b69,3,63,38,66,39,31,male,,,,,,1.0,learning,6.0,A,,black,,moons,,,,A,black,moons,,1.0,1.0,NA,left,1616.099999994,2.0,0.0,0.0,,,
57,0,,html-keyboard-response,57,391156,0.0-4.7-0.7,0a7yvayyw0tj,2022-09-19 16:21:43.034,5f516d96bf6cde3b04b94b69,3,63,38,66,39,31,male,,,"<img src=""static/images/cards/stack_of_red_moons.svg"" width=""175px"" height=""250px""></img>",,,,,,,,,,,,,,,,,,,,,,,,,,,,
58,0,,html-keyboard-response,58,392462,0.0-4.7-1.7,0a7yvayyw0tj,2022-09-19 16:21:43.034,5f516d96bf6cde3b04b94b69,3,63,38,66,39,31,male,805.1000000089,,"
  <table>
  <tr height=300>
    <td width=300 height=300><img src=""static/images/cards/back_of_red_moons.svg"" width=""175px"" height=""250px""></img></td>
    <td width=300 height=300><img src=""static/images/cards/back_of_red_moons.svg"" width=""175px"" height=""250px""></img></td>
  </tr>
  <tr height=200>
    <td width=300></td>
    <td width=300><img src=""static/images/keys/m.svg"" width=""35%"" height=""75%""></img></td>
  </tr>
</table>
  ",77.0,1.0,,,,,,,,,,,,,,,,,,,,,,,,,,
59,0,,html-keyboard-response,59,393974,0.0-4.7-2.7,0a7yvayyw0tj,2022-09-19 16:21:43.034,5f516d96bf6cde3b04b94b69,3,63,38,66,39,31,male,,,"
  <table>
  <tr height=300>
    <td width=300 height=300><img src=""static/images/cards/back_of_red_moons.svg"" width=""175px"" height=""250px""></img></td>
    <td width=300 height=300><img src=""static/images/cards/10_of_red_moons.svg"" width=""175px"" height=""250px""></img></td>
  </tr>
  <tr height=200>
    <td width=300></td>
    <td width=300><img src=""static/images/keys/m.svg"" width=""35%"" height=""75%""></img></td>
  </tr>
</table>
  ",,,,,,,,,,,,,,,,,,,,,,,,,,,,
60,0,,html-keyboard-response,60,395502,0.0-4.7-3.7,0a7yvayyw0tj,2022-09-19 16:21:43.034,5f516d96bf6cde3b04b94b69,3,63,38,66,39,31,male,,,"<p style=""font-size:50px"">You win!
+10 points this round!</p>",,,,,,,,,,,,,,,,,,,,,,,,,,,,
61,0,,html-keyboard-response,61,396010,0.0-4.7-4.7,0a7yvayyw0tj,2022-09-19 16:21:43.034,5f516d96bf6cde3b04b94b69,3,63,38,66,39,31,male,,,,,,1.0,learning,7.0,B,,red,,moons,,,,B,red,moons,,0.0,1.0,0,right,805.1000000089,10.0,1.0,1.0,,,
62,0,,html-keyboard-response,62,397519,0.0-4.8-0.8,0a7yvayyw0tj,2022-09-19 16:21:43.034,5f516d96bf6cde3b04b94b69,3,63,38,66,39,31,male,,,"<img src=""static/images/cards/stack_of_black_stars.svg"" width=""175px"" height=""250px""></img>",,,,,,,,,,,,,,,,,,,,,,,,,,,,
63,0,,html-keyboard-response,63,399462,0.0-4.8-1.8,0a7yvayyw0tj,2022-09-19 16:21:43.034,5f516d96bf6cde3b04b94b69,3,63,38,66,39,31,male,1432.6000000089,,"
  <table>
  <tr height=300>
    <td width=300 height=300><img src=""static/images/cards/back_of_black_stars.svg"" width=""175px"" height=""250px""></img></td>
    <td width=300 height=300><img src=""static/images/cards/back_of_black_stars.svg"" width=""175px"" height=""250px""></img></td>
  </tr>
  <tr height=200>
    <td width=300><img src=""static/images/keys/z.svg"" width=""35%"" height=""75%""></img></td>
    <td width=300><img src=""static/images/keys/m.svg"" width=""35%"" height=""75%""></img></td>
  </tr>
</table>
  ",77.0,2.0,,,,,,,,,,,,,,,,,,,,,,,,,,
64,0,,html-keyboard-response,64,400968,0.0-4.8-2.8,0a7yvayyw0tj,2022-09-19 16:21:43.034,5f516d96bf6cde3b04b94b69,3,63,38,66,39,31,male,,,"
  <table>
  <tr height=300>
    <td width=300 height=300><img src=""static/images/cards/back_of_black_stars.svg"" width=""175px"" height=""250px""></img></td>
    <td width=300 height=300><img src=""static/images/cards/3_of_black_stars.svg"" width=""175px"" height=""250px""></img></td>
  </tr>
  <tr height=200>
    <td width=300><img src=""static/images/keys/z.svg"" width=""35%"" height=""75%""></img></td>
    <td width=300><img src=""static/images/keys/m.svg"" width=""35%"" height=""75%""></img></td>
  </tr>
</table>
  ",,,,,,,,,,,,,,,,,,,,,,,,,,,,
65,0,,html-keyboard-response,65,402480,0.0-4.8-3.8,0a7yvayyw0tj,2022-09-19 16:21:43.034,5f516d96bf6cde3b04b94b69,3,63,38,66,39,31,male,,,"<p style=""font-size:50px"">You Lose!
No points this round.</p>",,,,,,,,,,,,,,,,,,,,,,,,,,,,
66,0,,html-keyboard-response,66,402998,0.0-4.8-4.8,0a7yvayyw0tj,2022-09-19 16:21:43.034,5f516d96bf6cde3b04b94b69,3,63,38,66,39,31,male,,,,,,1.0,learning,8.0,C,,black,,stars,,,,C,black,stars,,1.0,0.0,NA,right,1432.6000000089,3.0,0.0,0.0,,,
67,0,,html-keyboard-response,67,404503,0.0-4.9-0.9,0a7yvayyw0tj,2022-09-19 16:21:43.034,5f516d96bf6cde3b04b94b69,3,63,38,66,39,31,male,,,"<img src=""static/images/cards/stack_of_red_stars.svg"" width=""175px"" height=""250px""></img>",,,,,,,,,,,,,,,,,,,,,,,,,,,,
68,0,,html-keyboard-response,68,407438,0.0-4.9-1.9,0a7yvayyw0tj,2022-09-19 16:21:43.034,5f516d96bf6cde3b04b94b69,3,63,38,66,39,31,male,2420.5,,"
  <table>
  <tr height=300>
    <td width=300 height=300><img src=""static/images/cards/back_of_red_stars.svg"" width=""175px"" height=""250px""></img></td>
    <td width=300 height=300><img src=""static/images/cards/back_of_red_stars.svg"" width=""175px"" height=""250px""></img></td>
  </tr>
  <tr height=200>
    <td width=300><img src=""static/images/keys/z.svg"" width=""35%"" height=""75%""></img></td>
    <td width=300></td>
  </tr>
</table>
  ",90.0,2.0,,,,,,,,,,,,,,,,,,,,,,,,,,
69,0,,html-keyboard-response,69,408941,0.0-4.9-2.9,0a7yvayyw0tj,2022-09-19 16:21:43.034,5f516d96bf6cde3b04b94b69,3,63,38,66,39,31,male,,,"
  <table>
  <tr height=300>
    <td width=300 height=300><img src=""static/images/cards/6_of_red_stars.svg"" width=""175px"" height=""250px""></img></td>
    <td width=300 height=300><img src=""static/images/cards/back_of_red_stars.svg"" width=""175px"" height=""250px""></img></td>
  </tr>
  <tr height=200>
    <td width=300><img src=""static/images/keys/z.svg"" width=""35%"" height=""75%""></img></td>
    <td width=300></td>
  </tr>
</table>
  ",,,,,,,,,,,,,,,,,,,,,,,,,,,,
70,0,,html-keyboard-response,70,410460,0.0-4.9-3.9,0a7yvayyw0tj,2022-09-19 16:21:43.034,5f516d96bf6cde3b04b94b69,3,63,38,66,39,31,male,,,"<p style=""font-size:50px"">You win!
+10 points this round!</p>",,,,,,,,,,,,,,,,,,,,,,,,,,,,
71,0,,html-keyboard-response,71,410978,0.0-4.9-4.9,0a7yvayyw0tj,2022-09-19 16:21:43.034,5f516d96bf6cde3b04b94b69,3,63,38,66,39,31,male,,,,,,1.0,learning,9.0,D,,red,,stars,,,,D,red,stars,,0.0,0.0,1,left,2420.5,6.0,1.0,1.0,,,
72,0,,html-keyboard-response,72,412486,0.0-4.10-0.10,0a7yvayyw0tj,2022-09-19 16:21:43.034,5f516d96bf6cde3b04b94b69,3,63,38,66,39,31,male,,,"<img src=""static/images/cards/stack_of_red_bolts.svg"" width=""175px"" height=""250px""></img>",,,,,,,,,,,,,,,,,,,,,,,,,,,,
73,0,,html-keyboard-response,73,414783,0.0-4.10-1.10,0a7yvayyw0tj,2022-09-19 16:21:43.034,5f516d96bf6cde3b04b94b69,3,63,38,66,39,31,male,1784.200000003,,"
  <table>
  <tr height=300>
    <td width=300 height=300><img src=""static/images/cards/back_of_red_bolts.svg"" width=""175px"" height=""250px""></img></td>
    <td width=300 height=300><img src=""static/images/cards/back_of_red_bolts.svg"" width=""175px"" height=""250px""></img></td>
  </tr>
  <tr height=200>
    <td width=300><img src=""static/images/keys/z.svg"" width=""35%"" height=""75%""></img></td>
    <td width=300><img src=""static/images/keys/m.svg"" width=""35%"" height=""75%""></img></td>
  </tr>
</table>
  ",77.0,1.0,,,,,,,,,,,,,,,,,,,,,,,,,,
74,0,,html-keyboard-response,74,416292,0.0-4.10-2.10,0a7yvayyw0tj,2022-09-19 16:21:43.034,5f516d96bf6cde3b04b94b69,3,63,38,66,39,31,male,,,"
  <table>
  <tr height=300>
    <td width=300 height=300><img src=""static/images/cards/back_of_red_bolts.svg"" width=""175px"" height=""250px""></img></td>
    <td width=300 height=300><img src=""static/images/cards/6_of_red_bolts.svg"" width=""175px"" height=""250px""></img></td>
  </tr>
  <tr height=200>
    <td width=300><img src=""static/images/keys/z.svg"" width=""35%"" height=""75%""></img></td>
    <td width=300><img src=""static/images/keys/m.svg"" width=""35%"" height=""75%""></img></td>
  </tr>
</table>
  ",,,,,,,,,,,,,,,,,,,,,,,,,,,,
75,0,,html-keyboard-response,75,417817,0.0-4.10-3.10,0a7yvayyw0tj,2022-09-19 16:21:43.034,5f516d96bf6cde3b04b94b69,3,63,38,66,39,31,male,,,"<p style=""font-size:50px"">You win!
+10 points this round!</p>",,,,,,,,,,,,,,,,,,,,,,,,,,,,
76,0,,html-keyboard-response,76,418334,0.0-4.10-4.10,0a7yvayyw0tj,2022-09-19 16:21:43.034,5f516d96bf6cde3b04b94b69,3,63,38,66,39,31,male,,,,,,1.0,learning,10.0,Xc,,red,,bolts,,,,Xc,red,bolts,,1.0,0.0,NA,right,1784.200000003,6.0,1.0,1.0,,,
77,0,,html-keyboard-response,77,419839,0.0-4.11-0.11,0a7yvayyw0tj,2022-09-19 16:21:43.034,5f516d96bf6cde3b04b94b69,3,63,38,66,39,31,male,,,"<img src=""static/images/cards/stack_of_black_bolts.svg"" width=""175px"" height=""250px""></img>",,,,,,,,,,,,,,,,,,,,,,,,,,,,
78,0,,html-keyboard-response,78,422838,0.0-4.11-1.11,0a7yvayyw0tj,2022-09-19 16:21:43.034,5f516d96bf6cde3b04b94b69,3,63,38,66,39,31,male,2484.299999997,,"
  <table>
  <tr height=300>
    <td width=300 height=300><img src=""static/images/cards/back_of_black_bolts.svg"" width=""175px"" height=""250px""></img></td>
    <td width=300 height=300><img src=""static/images/cards/back_of_black_bolts.svg"" width=""175px"" height=""250px""></img></td>
  </tr>
  <tr height=200>
    <td width=300></td>
    <td width=300><img src=""static/images/keys/m.svg"" width=""35%"" height=""75%""></img></td>
  </tr>
</table>
  ",77.0,6.0,,,,,,,,,,,,,,,,,,,,,,,,,,
79,0,,html-keyboard-response,79,424355,0.0-4.11-2.11,0a7yvayyw0tj,2022-09-19 16:21:43.034,5f516d96bf6cde3b04b94b69,3,63,38,66,39,31,male,,,"
  <table>
  <tr height=300>
    <td width=300 height=300><img src=""static/images/cards/back_of_black_bolts.svg"" width=""175px"" height=""250px""></img></td>
    <td width=300 height=300><img src=""static/images/cards/4_of_black_bolts.svg"" width=""175px"" height=""250px""></img></td>
  </tr>
  <tr height=200>
    <td width=300></td>
    <td width=300><img src=""static/images/keys/m.svg"" width=""35%"" height=""75%""></img></td>
  </tr>
</table>
  ",,,,,,,,,,,,,,,,,,,,,,,,,,,,
80,0,,html-keyboard-response,80,425881,0.0-4.11-3.11,0a7yvayyw0tj,2022-09-19 16:21:43.034,5f516d96bf6cde3b04b94b69,3,63,38,66,39,31,male,,,"<p style=""font-size:50px"">You win!
+10 points this round!</p>",,,,,,,,,,,,,,,,,,,,,,,,,,,,
81,0,,html-keyboard-response,81,426400,0.0-4.11-4.11,0a7yvayyw0tj,2022-09-19 16:21:43.034,5f516d96bf6cde3b04b94b69,3,63,38,66,39,31,male,,,,,,1.0,learning,11.0,Xnc,,black,,bolts,,,,Xnc,black,bolts,,0.0,0.0,0,right,2484.299999997,4.0,0.0,1.0,,,
82,0,,html-keyboard-response,82,427904,0.0-4.12-0.12,0a7yvayyw0tj,2022-09-19 16:21:43.034,5f516d96bf6cde3b04b94b69,3,63,38,66,39,31,male,,,"<img src=""static/images/cards/stack_of_black_moons.svg"" width=""175px"" height=""250px""></img>",,,,,,,,,,,,,,,,,,,,,,,,,,,,
83,0,,html-keyboard-response,83,429471,0.0-4.12-1.12,0a7yvayyw0tj,2022-09-19 16:21:43.034,5f516d96bf6cde3b04b94b69,3,63,38,66,39,31,male,1054.8000000119,,"
  <table>
  <tr height=300>
    <td width=300 height=300><img src=""static/images/cards/back_of_black_moons.svg"" width=""175px"" height=""250px""></img></td>
    <td width=300 height=300><img src=""static/images/cards/back_of_black_moons.svg"" width=""175px"" height=""250px""></img></td>
  </tr>
  <tr height=200>
    <td width=300><img src=""static/images/keys/z.svg"" width=""35%"" height=""75%""></img></td>
    <td width=300><img src=""static/images/keys/m.svg"" width=""35%"" height=""75%""></img></td>
  </tr>
</table>
  ",90.0,1.0,,,,,,,,,,,,,,,,,,,,,,,,,,
84,0,,html-keyboard-response,84,430983,0.0-4.12-2.12,0a7yvayyw0tj,2022-09-19 16:21:43.034,5f516d96bf6cde3b04b94b69,3,63,38,66,39,31,male,,,"
  <table>
  <tr height=300>
    <td width=300 height=300><img src=""static/images/cards/8_of_black_moons.svg"" width=""175px"" height=""250px""></img></td>
    <td width=300 height=300><img src=""static/images/cards/back_of_black_moons.svg"" width=""175px"" height=""250px""></img></td>
  </tr>
  <tr height=200>
    <td width=300><img src=""static/images/keys/z.svg"" width=""35%"" height=""75%""></img></td>
    <td width=300><img src=""static/images/keys/m.svg"" width=""35%"" height=""75%""></img></td>
  </tr>
</table>
  ",,,,,,,,,,,,,,,,,,,,,,,,,,,,
85,0,,html-keyboard-response,85,432505,0.0-4.12-3.12,0a7yvayyw0tj,2022-09-19 16:21:43.034,5f516d96bf6cde3b04b94b69,3,63,38,66,39,31,male,,,"<p style=""font-size:50px"">You win!
+10 points this round!</p>",,,,,,,,,,,,,,,,,,,,,,,,,,,,
86,0,,html-keyboard-response,86,433022,0.0-4.12-4.12,0a7yvayyw0tj,2022-09-19 16:21:43.034,5f516d96bf6cde3b04b94b69,3,63,38,66,39,31,male,,,,,,1.0,learning,12.0,A,,black,,moons,,,,A,black,moons,,1.0,1.0,NA,left,1054.8000000119,8.0,1.0,1.0,,,
87,0,,html-keyboard-response,87,434532,0.0-4.13-0.13,0a7yvayyw0tj,2022-09-19 16:21:43.034,5f516d96bf6cde3b04b94b69,3,63,38,66,39,31,male,,,"<img src=""static/images/cards/stack_of_red_moons.svg"" width=""175px"" height=""250px""></img>",,,,,,,,,,,,,,,,,,,,,,,,,,,,
88,0,,html-keyboard-response,88,437206,0.0-4.13-1.13,0a7yvayyw0tj,2022-09-19 16:21:43.034,5f516d96bf6cde3b04b94b69,3,63,38,66,39,31,male,2159.799999997,,"
  <table>
  <tr height=300>
    <td width=300 height=300><img src=""static/images/cards/back_of_red_moons.svg"" width=""175px"" height=""250px""></img></td>
    <td width=300 height=300><img src=""static/images/cards/back_of_red_moons.svg"" width=""175px"" height=""250px""></img></td>
  </tr>
  <tr height=200>
    <td width=300><img src=""static/images/keys/z.svg"" width=""35%"" height=""75%""></img></td>
    <td width=300></td>
  </tr>
</table>
  ",90.0,2.0,,,,,,,,,,,,,,,,,,,,,,,,,,
89,0,,html-keyboard-response,89,438714,0.0-4.13-2.13,0a7yvayyw0tj,2022-09-19 16:21:43.034,5f516d96bf6cde3b04b94b69,3,63,38,66,39,31,male,,,"
  <table>
  <tr height=300>
    <td width=300 height=300><img src=""static/images/cards/2_of_red_moons.svg"" width=""175px"" height=""250px""></img></td>
    <td width=300 height=300><img src=""static/images/cards/back_of_red_moons.svg"" width=""175px"" height=""250px""></img></td>
  </tr>
  <tr height=200>
    <td width=300><img src=""static/images/keys/z.svg"" width=""35%"" height=""75%""></img></td>
    <td width=300></td>
  </tr>
</table>
  ",,,,,,,,,,,,,,,,,,,,,,,,,,,,
90,0,,html-keyboard-response,90,440239,0.0-4.13-3.13,0a7yvayyw0tj,2022-09-19 16:21:43.034,5f516d96bf6cde3b04b94b69,3,63,38,66,39,31,male,,,"<p style=""font-size:50px"">You Lose!
No points this round.</p>",,,,,,,,,,,,,,,,,,,,,,,,,,,,
91,0,,html-keyboard-response,91,440758,0.0-4.13-4.13,0a7yvayyw0tj,2022-09-19 16:21:43.034,5f516d96bf6cde3b04b94b69,3,63,38,66,39,31,male,,,,,,1.0,learning,13.0,B,,red,,moons,,,,B,red,moons,,0.0,1.0,1,left,2159.799999997,2.0,0.0,0.0,,,
92,0,,html-keyboard-response,92,442270,0.0-4.14-0.14,0a7yvayyw0tj,2022-09-19 16:21:43.034,5f516d96bf6cde3b04b94b69,3,63,38,66,39,31,male,,,"<img src=""static/images/cards/stack_of_black_stars.svg"" width=""175px"" height=""250px""></img>",,,,,,,,,,,,,,,,,,,,,,,,,,,,
93,0,,html-keyboard-response,93,445599,0.0-4.14-1.14,0a7yvayyw0tj,2022-09-19 16:21:43.034,5f516d96bf6cde3b04b94b69,3,63,38,66,39,31,male,2813.200000003,,"
  <table>
  <tr height=300>
    <td width=300 height=300><img src=""static/images/cards/back_of_black_stars.svg"" width=""175px"" height=""250px""></img></td>
    <td width=300 height=300><img src=""static/images/cards/back_of_black_stars.svg"" width=""175px"" height=""250px""></img></td>
  </tr>
  <tr height=200>
    <td width=300><img src=""static/images/keys/z.svg"" width=""35%"" height=""75%""></img></td>
    <td width=300><img src=""static/images/keys/m.svg"" width=""35%"" height=""75%""></img></td>
  </tr>
</table>
  ",77.0,4.0,,,,,,,,,,,,,,,,,,,,,,,,,,
94,0,,html-keyboard-response,94,447114,0.0-4.14-2.14,0a7yvayyw0tj,2022-09-19 16:21:43.034,5f516d96bf6cde3b04b94b69,3,63,38,66,39,31,male,,,"
  <table>
  <tr height=300>
    <td width=300 height=300><img src=""static/images/cards/back_of_black_stars.svg"" width=""175px"" height=""250px""></img></td>
    <td width=300 height=300><img src=""static/images/cards/8_of_black_stars.svg"" width=""175px"" height=""250px""></img></td>
  </tr>
  <tr height=200>
    <td width=300><img src=""static/images/keys/z.svg"" width=""35%"" height=""75%""></img></td>
    <td width=300><img src=""static/images/keys/m.svg"" width=""35%"" height=""75%""></img></td>
  </tr>
</table>
  ",,,,,,,,,,,,,,,,,,,,,,,,,,,,
95,0,,html-keyboard-response,95,448637,0.0-4.14-3.14,0a7yvayyw0tj,2022-09-19 16:21:43.034,5f516d96bf6cde3b04b94b69,3,63,38,66,39,31,male,,,"<p style=""font-size:50px"">You win!
+10 points this round!</p>",,,,,,,,,,,,,,,,,,,,,,,,,,,,
96,0,,html-keyboard-response,96,449156,0.0-4.14-4.14,0a7yvayyw0tj,2022-09-19 16:21:43.034,5f516d96bf6cde3b04b94b69,3,63,38,66,39,31,male,,,,,,1.0,learning,14.0,C,,black,,stars,,,,C,black,stars,,1.0,0.0,NA,right,2813.200000003,8.0,1.0,1.0,,,
97,0,,html-keyboard-response,97,450670,0.0-4.15-0.15,0a7yvayyw0tj,2022-09-19 16:21:43.034,5f516d96bf6cde3b04b94b69,3,63,38,66,39,31,male,,,"<img src=""static/images/cards/stack_of_red_stars.svg"" width=""175px"" height=""250px""></img>",,,,,,,,,,,,,,,,,,,,,,,,,,,,
98,0,,html-keyboard-response,98,452206,0.0-4.15-1.15,0a7yvayyw0tj,2022-09-19 16:21:43.034,5f516d96bf6cde3b04b94b69,3,63,38,66,39,31,male,1022.299999997,,"
  <table>
  <tr height=300>
    <td width=300 height=300><img src=""static/images/cards/back_of_red_stars.svg"" width=""175px"" height=""250px""></img></td>
    <td width=300 height=300><img src=""static/images/cards/back_of_red_stars.svg"" width=""175px"" height=""250px""></img></td>
  </tr>
  <tr height=200>
    <td width=300><img src=""static/images/keys/z.svg"" width=""35%"" height=""75%""></img></td>
    <td width=300></td>
  </tr>
</table>
  ",90.0,1.0,,,,,,,,,,,,,,,,,,,,,,,,,,
99,0,,html-keyboard-response,99,453718,0.0-4.15-2.15,0a7yvayyw0tj,2022-09-19 16:21:43.034,5f516d96bf6cde3b04b94b69,3,63,38,66,39,31,male,,,"
  <table>
  <tr height=300>
    <td width=300 height=300><img src=""static/images/cards/3_of_red_stars.svg"" width=""175px"" height=""250px""></img></td>
    <td width=300 height=300><img src=""static/images/cards/back_of_red_stars.svg"" width=""175px"" height=""250px""></img></td>
  </tr>
  <tr height=200>
    <td width=300><img src=""static/images/keys/z.svg"" width=""35%"" height=""75%""></img></td>
    <td width=300></td>
  </tr>
</table>
  ",,,,,,,,,,,,,,,,,,,,,,,,,,,,
100,0,,html-keyboard-response,100,455243,0.0-4.15-3.15,0a7yvayyw0tj,2022-09-19 16:21:43.034,5f516d96bf6cde3b04b94b69,3,63,38,66,39,31,male,,,"<p style=""font-size:50px"">You Lose!
No points this round.</p>",,,,,,,,,,,,,,,,,,,,,,,,,,,,
101,0,,html-keyboard-response,101,455749,0.0-4.15-4.15,0a7yvayyw0tj,2022-09-19 16:21:43.034,5f516d96bf6cde3b04b94b69,3,63,38,66,39,31,male,,,,,,1.0,learning,15.0,D,,red,,stars,,,,D,red,stars,,0.0,0.0,1,left,1022.299999997,3.0,0.0,0.0,,,
102,0,,html-keyboard-response,102,457254,0.0-4.16-0.16,0a7yvayyw0tj,2022-09-19 16:21:43.034,5f516d96bf6cde3b04b94b69,3,63,38,66,39,31,male,,,"<img src=""static/images/cards/stack_of_red_bolts.svg"" width=""175px"" height=""250px""></img>",,,,,,,,,,,,,,,,,,,,,,,,,,,,
103,0,,html-keyboard-response,103,458782,0.0-4.16-1.16,0a7yvayyw0tj,2022-09-19 16:21:43.034,5f516d96bf6cde3b04b94b69,3,63,38,66,39,31,male,1024.700000003,,"
  <table>
  <tr height=300>
    <td width=300 height=300><img src=""static/images/cards/back_of_red_bolts.svg"" width=""175px"" height=""250px""></img></td>
    <td width=300 height=300><img src=""static/images/cards/back_of_red_bolts.svg"" width=""175px"" height=""250px""></img></td>
  </tr>
  <tr height=200>
    <td width=300><img src=""static/images/keys/z.svg"" width=""35%"" height=""75%""></img></td>
    <td width=300><img src=""static/images/keys/m.svg"" width=""35%"" height=""75%""></img></td>
  </tr>
</table>
  ",77.0,1.0,,,,,,,,,,,,,,,,,,,,,,,,,,
104,0,,html-keyboard-response,104,460287,0.0-4.16-2.16,0a7yvayyw0tj,2022-09-19 16:21:43.034,5f516d96bf6cde3b04b94b69,3,63,38,66,39,31,male,,,"
  <table>
  <tr height=300>
    <td width=300 height=300><img src=""static/images/cards/back_of_red_bolts.svg"" width=""175px"" height=""250px""></img></td>
    <td width=300 height=300><img src=""static/images/cards/2_of_red_bolts.svg"" width=""175px"" height=""250px""></img></td>
  </tr>
  <tr height=200>
    <td width=300><img src=""static/images/keys/z.svg"" width=""35%"" height=""75%""></img></td>
    <td width=300><img src=""static/images/keys/m.svg"" width=""35%"" height=""75%""></img></td>
  </tr>
</table>
  ",,,,,,,,,,,,,,,,,,,,,,,,,,,,
105,0,,html-keyboard-response,105,461813,0.0-4.16-3.16,0a7yvayyw0tj,2022-09-19 16:21:43.034,5f516d96bf6cde3b04b94b69,3,63,38,66,39,31,male,,,"<p style=""font-size:50px"">You win!
+10 points this round!</p>",,,,,,,,,,,,,,,,,,,,,,,,,,,,
106,0,,html-keyboard-response,106,462333,0.0-4.16-4.16,0a7yvayyw0tj,2022-09-19 16:21:43.034,5f516d96bf6cde3b04b94b69,3,63,38,66,39,31,male,,,,,,1.0,learning,16.0,Xc,,red,,bolts,,,,Xc,red,bolts,,1.0,0.0,NA,right,1024.700000003,2.0,0.0,1.0,,,
107,0,,html-keyboard-response,107,463837,0.0-4.17-0.17,0a7yvayyw0tj,2022-09-19 16:21:43.034,5f516d96bf6cde3b04b94b69,3,63,38,66,39,31,male,,,"<img src=""static/images/cards/stack_of_black_bolts.svg"" width=""175px"" height=""250px""></img>",,,,,,,,,,,,,,,,,,,,,,,,,,,,
108,0,,html-keyboard-response,108,466326,0.0-4.17-1.17,0a7yvayyw0tj,2022-09-19 16:21:43.034,5f516d96bf6cde3b04b94b69,3,63,38,66,39,31,male,1975.3000000119,,"
  <table>
  <tr height=300>
    <td width=300 height=300><img src=""static/images/cards/back_of_black_bolts.svg"" width=""175px"" height=""250px""></img></td>
    <td width=300 height=300><img src=""static/images/cards/back_of_black_bolts.svg"" width=""175px"" height=""250px""></img></td>
  </tr>
  <tr height=200>
    <td width=300></td>
    <td width=300><img src=""static/images/keys/m.svg"" width=""35%"" height=""75%""></img></td>
  </tr>
</table>
  ",77.0,3.0,,,,,,,,,,,,,,,,,,,,,,,,,,
109,0,,html-keyboard-response,109,467835,0.0-4.17-2.17,0a7yvayyw0tj,2022-09-19 16:21:43.034,5f516d96bf6cde3b04b94b69,3,63,38,66,39,31,male,,,"
  <table>
  <tr height=300>
    <td width=300 height=300><img src=""static/images/cards/back_of_black_bolts.svg"" width=""175px"" height=""250px""></img></td>
    <td width=300 height=300><img src=""static/images/cards/10_of_black_bolts.svg"" width=""175px"" height=""250px""></img></td>
  </tr>
  <tr height=200>
    <td width=300></td>
    <td width=300><img src=""static/images/keys/m.svg"" width=""35%"" height=""75%""></img></td>
  </tr>
</table>
  ",,,,,,,,,,,,,,,,,,,,,,,,,,,,
110,0,,html-keyboard-response,110,469360,0.0-4.17-3.17,0a7yvayyw0tj,2022-09-19 16:21:43.034,5f516d96bf6cde3b04b94b69,3,63,38,66,39,31,male,,,"<p style=""font-size:50px"">You win!
+10 points this round!</p>",,,,,,,,,,,,,,,,,,,,,,,,,,,,
111,0,,html-keyboard-response,111,469879,0.0-4.17-4.17,0a7yvayyw0tj,2022-09-19 16:21:43.034,5f516d96bf6cde3b04b94b69,3,63,38,66,39,31,male,,,,,,1.0,learning,17.0,Xnc,,black,,bolts,,,,Xnc,black,bolts,,0.0,0.0,0,right,1975.3000000119,10.0,1.0,1.0,,,
112,0,,html-keyboard-response,112,471381,0.0-4.18-0.18,0a7yvayyw0tj,2022-09-19 16:21:43.034,5f516d96bf6cde3b04b94b69,3,63,38,66,39,31,male,,,"<img src=""static/images/cards/stack_of_black_moons.svg"" width=""175px"" height=""250px""></img>",,,,,,,,,,,,,,,,,,,,,,,,,,,,
113,0,,html-keyboard-response,113,473950,0.0-4.18-1.18,0a7yvayyw0tj,2022-09-19 16:21:43.034,5f516d96bf6cde3b04b94b69,3,63,38,66,39,31,male,2056.8999999911,,"
  <table>
  <tr height=300>
    <td width=300 height=300><img src=""static/images/cards/back_of_black_moons.svg"" width=""175px"" height=""250px""></img></td>
    <td width=300 height=300><img src=""static/images/cards/back_of_black_moons.svg"" width=""175px"" height=""250px""></img></td>
  </tr>
  <tr height=200>
    <td width=300><img src=""static/images/keys/z.svg"" width=""35%"" height=""75%""></img></td>
    <td width=300><img src=""static/images/keys/m.svg"" width=""35%"" height=""75%""></img></td>
  </tr>
</table>
  ",77.0,2.0,,,,,,,,,,,,,,,,,,,,,,,,,,
114,0,,html-keyboard-response,114,475452,0.0-4.18-2.18,0a7yvayyw0tj,2022-09-19 16:21:43.034,5f516d96bf6cde3b04b94b69,3,63,38,66,39,31,male,,,"
  <table>
  <tr height=300>
    <td width=300 height=300><img src=""static/images/cards/back_of_black_moons.svg"" width=""175px"" height=""250px""></img></td>
    <td width=300 height=300><img src=""static/images/cards/1_of_black_moons.svg"" width=""175px"" height=""250px""></img></td>
  </tr>
  <tr height=200>
    <td width=300><img src=""static/images/keys/z.svg"" width=""35%"" height=""75%""></img></td>
    <td width=300><img src=""static/images/keys/m.svg"" width=""35%"" height=""75%""></img></td>
  </tr>
</table>
  ",,,,,,,,,,,,,,,,,,,,,,,,,,,,
115,0,,html-keyboard-response,115,476975,0.0-4.18-3.18,0a7yvayyw0tj,2022-09-19 16:21:43.034,5f516d96bf6cde3b04b94b69,3,63,38,66,39,31,male,,,"<p style=""font-size:50px"">You Lose!
No points this round.</p>",,,,,,,,,,,,,,,,,,,,,,,,,,,,
116,0,,html-keyboard-response,116,477496,0.0-4.18-4.18,0a7yvayyw0tj,2022-09-19 16:21:43.034,5f516d96bf6cde3b04b94b69,3,63,38,66,39,31,male,,,,,,1.0,learning,18.0,A,,black,,moons,,,,A,black,moons,,1.0,1.0,NA,right,2056.8999999911,1.0,0.0,0.0,,,
117,0,,html-keyboard-response,117,478999,0.0-4.19-0.19,0a7yvayyw0tj,2022-09-19 16:21:43.034,5f516d96bf6cde3b04b94b69,3,63,38,66,39,31,male,,,"<img src=""static/images/cards/stack_of_red_moons.svg"" width=""175px"" height=""250px""></img>",,,,,,,,,,,,,,,,,,,,,,,,,,,,
118,0,,html-keyboard-response,118,481286,0.0-4.19-1.19,0a7yvayyw0tj,2022-09-19 16:21:43.034,5f516d96bf6cde3b04b94b69,3,63,38,66,39,31,male,1784.900000006,,"
  <table>
  <tr height=300>
    <td width=300 height=300><img src=""static/images/cards/back_of_red_moons.svg"" width=""175px"" height=""250px""></img></td>
    <td width=300 height=300><img src=""static/images/cards/back_of_red_moons.svg"" width=""175px"" height=""250px""></img></td>
  </tr>
  <tr height=200>
    <td width=300><img src=""static/images/keys/z.svg"" width=""35%"" height=""75%""></img></td>
    <td width=300></td>
  </tr>
</table>
  ",90.0,2.0,,,,,,,,,,,,,,,,,,,,,,,,,,
119,0,,html-keyboard-response,119,482797,0.0-4.19-2.19,0a7yvayyw0tj,2022-09-19 16:21:43.034,5f516d96bf6cde3b04b94b69,3,63,38,66,39,31,male,,,"
  <table>
  <tr height=300>
    <td width=300 height=300><img src=""static/images/cards/10_of_red_moons.svg"" width=""175px"" height=""250px""></img></td>
    <td width=300 height=300><img src=""static/images/cards/back_of_red_moons.svg"" width=""175px"" height=""250px""></img></td>
  </tr>
  <tr height=200>
    <td width=300><img src=""static/images/keys/z.svg"" width=""35%"" height=""75%""></img></td>
    <td width=300></td>
  </tr>
</table>
  ",,,,,,,,,,,,,,,,,,,,,,,,,,,,
120,0,,html-keyboard-response,120,484326,0.0-4.19-3.19,0a7yvayyw0tj,2022-09-19 16:21:43.034,5f516d96bf6cde3b04b94b69,3,63,38,66,39,31,male,,,"<p style=""font-size:50px"">You win!
+10 points this round!</p>",,,,,,,,,,,,,,,,,,,,,,,,,,,,
121,0,,html-keyboard-response,121,484844,0.0-4.19-4.19,0a7yvayyw0tj,2022-09-19 16:21:43.034,5f516d96bf6cde3b04b94b69,3,63,38,66,39,31,male,,,,,,1.0,learning,19.0,B,,red,,moons,,,,B,red,moons,,0.0,1.0,1,left,1784.900000006,10.0,1.0,1.0,,,
122,0,,html-keyboard-response,122,486351,0.0-4.20-0.20,0a7yvayyw0tj,2022-09-19 16:21:43.034,5f516d96bf6cde3b04b94b69,3,63,38,66,39,31,male,,,"<img src=""static/images/cards/stack_of_black_stars.svg"" width=""175px"" height=""250px""></img>",,,,,,,,,,,,,,,,,,,,,,,,,,,,
123,0,,html-keyboard-response,123,488278,0.0-4.20-1.20,0a7yvayyw0tj,2022-09-19 16:21:43.034,5f516d96bf6cde3b04b94b69,3,63,38,66,39,31,male,1412.700000003,,"
  <table>
  <tr height=300>
    <td width=300 height=300><img src=""static/images/cards/back_of_black_stars.svg"" width=""175px"" height=""250px""></img></td>
    <td width=300 height=300><img src=""static/images/cards/back_of_black_stars.svg"" width=""175px"" height=""250px""></img></td>
  </tr>
  <tr height=200>
    <td width=300><img src=""static/images/keys/z.svg"" width=""35%"" height=""75%""></img></td>
    <td width=300><img src=""static/images/keys/m.svg"" width=""35%"" height=""75%""></img></td>
  </tr>
</table>
  ",90.0,1.0,,,,,,,,,,,,,,,,,,,,,,,,,,
124,0,,html-keyboard-response,124,489780,0.0-4.20-2.20,0a7yvayyw0tj,2022-09-19 16:21:43.034,5f516d96bf6cde3b04b94b69,3,63,38,66,39,31,male,,,"
  <table>
  <tr height=300>
    <td width=300 height=300><img src=""static/images/cards/1_of_black_stars.svg"" width=""175px"" height=""250px""></img></td>
    <td width=300 height=300><img src=""static/images/cards/back_of_black_stars.svg"" width=""175px"" height=""250px""></img></td>
  </tr>
  <tr height=200>
    <td width=300><img src=""static/images/keys/z.svg"" width=""35%"" height=""75%""></img></td>
    <td width=300><img src=""static/images/keys/m.svg"" width=""35%"" height=""75%""></img></td>
  </tr>
</table>
  ",,,,,,,,,,,,,,,,,,,,,,,,,,,,
125,0,,html-keyboard-response,125,491296,0.0-4.20-3.20,0a7yvayyw0tj,2022-09-19 16:21:43.034,5f516d96bf6cde3b04b94b69,3,63,38,66,39,31,male,,,"<p style=""font-size:50px"">You win!
+10 points this round!</p>",,,,,,,,,,,,,,,,,,,,,,,,,,,,
126,0,,html-keyboard-response,126,491814,0.0-4.20-4.20,0a7yvayyw0tj,2022-09-19 16:21:43.034,5f516d96bf6cde3b04b94b69,3,63,38,66,39,31,male,,,,,,1.0,learning,20.0,C,,black,,stars,,,,C,black,stars,,1.0,0.0,NA,left,1412.700000003,1.0,0.0,1.0,,,
127,0,,html-keyboard-response,127,493322,0.0-4.21-0.21,0a7yvayyw0tj,2022-09-19 16:21:43.034,5f516d96bf6cde3b04b94b69,3,63,38,66,39,31,male,,,"<img src=""static/images/cards/stack_of_red_stars.svg"" width=""175px"" height=""250px""></img>",,,,,,,,,,,,,,,,,,,,,,,,,,,,
128,0,,html-keyboard-response,128,495663,0.0-4.21-1.21,0a7yvayyw0tj,2022-09-19 16:21:43.034,5f516d96bf6cde3b04b94b69,3,63,38,66,39,31,male,1829.599999994,,"
  <table>
  <tr height=300>
    <td width=300 height=300><img src=""static/images/cards/back_of_red_stars.svg"" width=""175px"" height=""250px""></img></td>
    <td width=300 height=300><img src=""static/images/cards/back_of_red_stars.svg"" width=""175px"" height=""250px""></img></td>
  </tr>
  <tr height=200>
    <td width=300><img src=""static/images/keys/z.svg"" width=""35%"" height=""75%""></img></td>
    <td width=300></td>
  </tr>
</table>
  ",90.0,2.0,,,,,,,,,,,,,,,,,,,,,,,,,,
129,0,,html-keyboard-response,129,497166,0.0-4.21-2.21,0a7yvayyw0tj,2022-09-19 16:21:43.034,5f516d96bf6cde3b04b94b69,3,63,38,66,39,31,male,,,"
  <table>
  <tr height=300>
    <td width=300 height=300><img src=""static/images/cards/7_of_red_stars.svg"" width=""175px"" height=""250px""></img></td>
    <td width=300 height=300><img src=""static/images/cards/back_of_red_stars.svg"" width=""175px"" height=""250px""></img></td>
  </tr>
  <tr height=200>
    <td width=300><img src=""static/images/keys/z.svg"" width=""35%"" height=""75%""></img></td>
    <td width=300></td>
  </tr>
</table>
  ",,,,,,,,,,,,,,,,,,,,,,,,,,,,
130,0,,html-keyboard-response,130,498680,0.0-4.21-3.21,0a7yvayyw0tj,2022-09-19 16:21:43.034,5f516d96bf6cde3b04b94b69,3,63,38,66,39,31,male,,,"<p style=""font-size:50px"">You Lose!
No points this round.</p>",,,,,,,,,,,,,,,,,,,,,,,,,,,,
131,0,,html-keyboard-response,131,499198,0.0-4.21-4.21,0a7yvayyw0tj,2022-09-19 16:21:43.034,5f516d96bf6cde3b04b94b69,3,63,38,66,39,31,male,,,,,,1.0,learning,21.0,D,,red,,stars,,,,D,red,stars,,0.0,0.0,1,left,1829.599999994,7.0,1.0,0.0,,,
132,0,,html-keyboard-response,132,500702,0.0-4.22-0.22,0a7yvayyw0tj,2022-09-19 16:21:43.034,5f516d96bf6cde3b04b94b69,3,63,38,66,39,31,male,,,"<img src=""static/images/cards/stack_of_red_bolts.svg"" width=""175px"" height=""250px""></img>",,,,,,,,,,,,,,,,,,,,,,,,,,,,
133,0,,html-keyboard-response,133,502726,0.0-4.22-1.22,0a7yvayyw0tj,2022-09-19 16:21:43.034,5f516d96bf6cde3b04b94b69,3,63,38,66,39,31,male,1508.400000006,,"
  <table>
  <tr height=300>
    <td width=300 height=300><img src=""static/images/cards/back_of_red_bolts.svg"" width=""175px"" height=""250px""></img></td>
    <td width=300 height=300><img src=""static/images/cards/back_of_red_bolts.svg"" width=""175px"" height=""250px""></img></td>
  </tr>
  <tr height=200>
    <td width=300><img src=""static/images/keys/z.svg"" width=""35%"" height=""75%""></img></td>
    <td width=300><img src=""static/images/keys/m.svg"" width=""35%"" height=""75%""></img></td>
  </tr>
</table>
  ",77.0,1.0,,,,,,,,,,,,,,,,,,,,,,,,,,
134,0,,html-keyboard-response,134,504239,0.0-4.22-2.22,0a7yvayyw0tj,2022-09-19 16:21:43.034,5f516d96bf6cde3b04b94b69,3,63,38,66,39,31,male,,,"
  <table>
  <tr height=300>
    <td width=300 height=300><img src=""static/images/cards/back_of_red_bolts.svg"" width=""175px"" height=""250px""></img></td>
    <td width=300 height=300><img src=""static/images/cards/4_of_red_bolts.svg"" width=""175px"" height=""250px""></img></td>
  </tr>
  <tr height=200>
    <td width=300><img src=""static/images/keys/z.svg"" width=""35%"" height=""75%""></img></td>
    <td width=300><img src=""static/images/keys/m.svg"" width=""35%"" height=""75%""></img></td>
  </tr>
</table>
  ",,,,,,,,,,,,,,,,,,,,,,,,,,,,
135,0,,html-keyboard-response,135,505759,0.0-4.22-3.22,0a7yvayyw0tj,2022-09-19 16:21:43.034,5f516d96bf6cde3b04b94b69,3,63,38,66,39,31,male,,,"<p style=""font-size:50px"">You win!
+10 points this round!</p>",,,,,,,,,,,,,,,,,,,,,,,,,,,,
136,0,,html-keyboard-response,136,506279,0.0-4.22-4.22,0a7yvayyw0tj,2022-09-19 16:21:43.034,5f516d96bf6cde3b04b94b69,3,63,38,66,39,31,male,,,,,,1.0,learning,22.0,Xc,,red,,bolts,,,,Xc,red,bolts,,1.0,0.0,NA,right,1508.400000006,4.0,0.0,1.0,,,
137,0,,html-keyboard-response,137,507783,0.0-4.23-0.23,0a7yvayyw0tj,2022-09-19 16:21:43.034,5f516d96bf6cde3b04b94b69,3,63,38,66,39,31,male,,,"<img src=""static/images/cards/stack_of_black_bolts.svg"" width=""175px"" height=""250px""></img>",,,,,,,,,,,,,,,,,,,,,,,,,,,,
138,0,,html-keyboard-response,138,511308,0.0-4.23-1.23,0a7yvayyw0tj,2022-09-19 16:21:43.034,5f516d96bf6cde3b04b94b69,3,63,38,66,39,31,male,,,"
  <table>
  <tr height=300>
    <td width=300 height=300><img src=""static/images/cards/back_of_black_bolts.svg"" width=""175px"" height=""250px""></img></td>
    <td width=300 height=300><img src=""static/images/cards/back_of_black_bolts.svg"" width=""175px"" height=""250px""></img></td>
  </tr>
  <tr height=200>
    <td width=300><img src=""static/images/keys/z.svg"" width=""35%"" height=""75%""></img></td>
    <td width=300></td>
  </tr>
</table>
  ",,,,,,,,,,,,,,,,,,,,,,,,,,,,
139,0,,html-keyboard-response,139,511313,0.0-4.23-2.23,0a7yvayyw0tj,2022-09-19 16:21:43.034,5f516d96bf6cde3b04b94b69,3,63,38,66,39,31,male,,,,,,,,,,,,,,,,,,,,,,,,,,,,,,,
140,0,,html-keyboard-response,140,512831,0.0-4.23-3.23,0a7yvayyw0tj,2022-09-19 16:21:43.034,5f516d96bf6cde3b04b94b69,3,63,38,66,39,31,male,,,"<p style=""font-size:50px"">Too slow!</p>",,,,,,,,,,,,,,,,,,,,,,,,,,,,
141,0,,html-keyboard-response,141,513351,0.0-4.23-4.23,0a7yvayyw0tj,2022-09-19 16:21:43.034,5f516d96bf6cde3b04b94b69,3,63,38,66,39,31,male,,,,,,1.0,learning,23.0,Xnc,,black,,bolts,,,,Xnc,black,bolts,,0.0,0.0,1,,,4.0,0.0,1.0,,,
142,0,,call-function,142,513354,0.0-5.0,0a7yvayyw0tj,2022-09-19 16:21:43.034,5f516d96bf6cde3b04b94b69,3,63,38,66,39,31,male,,,,,,,,,,,,,,,,,,,,,,,,,,,,,,,
143,0,,image-keyboard-response,143,518734,0.0-6.0-0.0,0a7yvayyw0tj,2022-09-19 16:21:43.034,5f516d96bf6cde3b04b94b69,3,63,38,66,39,31,male,5379.5,,static/images/instructions_CB_3/Slide20.png,39.0,,,,,,,,,,,,,,,,,,,,,,,,,,,
144,0,,image-keyboard-response,144,525222,0.0-6.1-0.1,0a7yvayyw0tj,2022-09-19 16:21:43.034,5f516d96bf6cde3b04b94b69,3,63,38,66,39,31,male,6488.0,,static/images/instructions_CB_3/Slide21.png,39.0,,,,,,,,,,,,,,,,,,,,,,,,,,,
145,0,,image-keyboard-response,145,555766,0.0-6.2-0.2,0a7yvayyw0tj,2022-09-19 16:21:43.034,5f516d96bf6cde3b04b94b69,3,63,38,66,39,31,male,30543.799999997,,static/images/instructions_CB_3/Slide22.png,39.0,,,,,,,,,,,,,,,,,,,,,,,,,,,
146,0,,image-keyboard-response,146,605318,0.0-6.3-0.3,0a7yvayyw0tj,2022-09-19 16:21:43.034,5f516d96bf6cde3b04b94b69,3,63,38,66,39,31,male,49551.6999999881,,static/images/instructions_CB_3/Slide23.png,39.0,,,,,,,,,,,,,,,,,,,,,,,,,,,
147,0,,image-keyboard-response,147,611126,0.0-6.4-0.4,0a7yvayyw0tj,2022-09-19 16:21:43.034,5f516d96bf6cde3b04b94b69,3,63,38,66,39,31,male,5807.0,,static/images/instructions_CB_3/Slide24.png,39.0,,,,,,,,,,,,,,,,,,,,,,,,,,,
148,0,,html-keyboard-response,148,613974,0.0-7.0-0.0,0a7yvayyw0tj,2022-09-19 16:21:43.034,5f516d96bf6cde3b04b94b69,3,63,38,66,39,31,male,2847.700000003,,"
  <table>
  <tr height=300>
    <td width=300 height=300><img src=""static/images/cards/stack_of_black_moons.svg"" width=""175px"" height=""250px""></img></td>
    <td width=300 height=300><img src=""static/images/cards/stack_of_red_moons.svg"" width=""175px"" height=""250px""></img></td>
  </tr>
  <tr height=200>
    <td width=300><img src=""static/images/keys/w.svg"" width=""35%"" height=""75%""></img></td>
    <td width=300><img src=""static/images/keys/o.svg"" width=""35%"" height=""75%""></img></td>
  </tr>
</table>
  ",87.0,1.0,,,,,,,,,,,,,,,,,,,,,,,,,,
149,0,,html-keyboard-response,149,614480,0.0-7.0-1.0,0a7yvayyw0tj,2022-09-19 16:21:43.034,5f516d96bf6cde3b04b94b69,3,63,38,66,39,31,male,,,,,,,,,,,,,,,,,,,,,,,,,,,,,,,
150,0,,html-keyboard-response,150,614480,0.0-7.0-2.0,0a7yvayyw0tj,2022-09-19 16:21:43.034,5f516d96bf6cde3b04b94b69,3,63,38,66,39,31,male,,,,,,,,,,,,,,,,,,,,,,,,,,,,,,,
151,0,,html-keyboard-response,151,615993,0.0-7.0-3.0,0a7yvayyw0tj,2022-09-19 16:21:43.034,5f516d96bf6cde3b04b94b69,3,63,38,66,39,31,male,,,"<p style=""font-size:50px"">Too slow!</p>",,,,,,,,,,,,,,,,,,,,,,,,,,,,
152,0,,html-keyboard-response,152,616507,0.0-7.0-4.0,0a7yvayyw0tj,2022-09-19 16:21:43.034,5f516d96bf6cde3b04b94b69,3,63,38,66,39,31,male,,,,,,1.0,choice,0.0,A,B,black,red,moons,moons,A,B,A,black,moons,2847.700000003,0.0,0.0,1,,,4.0,0.0,1.0,,,
153,0,,html-keyboard-response,153,617430,0.0-7.1-0.1,0a7yvayyw0tj,2022-09-19 16:21:43.034,5f516d96bf6cde3b04b94b69,3,63,38,66,39,31,male,923.0,,"
  <table>
  <tr height=300>
    <td width=300 height=300><img src=""static/images/cards/stack_of_red_moons.svg"" width=""175px"" height=""250px""></img></td>
    <td width=300 height=300><img src=""static/images/cards/stack_of_black_bolts.svg"" width=""175px"" height=""250px""></img></td>
  </tr>
  <tr height=200>
    <td width=300><img src=""static/images/keys/w.svg"" width=""35%"" height=""75%""></img></td>
    <td width=300><img src=""static/images/keys/o.svg"" width=""35%"" height=""75%""></img></td>
  </tr>
</table>
  ",79.0,1.0,,,,,,,,,,,,,,,,,,,,,,,,,,
154,0,,html-keyboard-response,154,619350,0.0-7.1-1.1,0a7yvayyw0tj,2022-09-19 16:21:43.034,5f516d96bf6cde3b04b94b69,3,63,38,66,39,31,male,1404.8000000119,,"
  <table>
  <tr height=300>
    <td width=300 height=300><img src=""static/images/cards/back_of_black_bolts.svg"" width=""175px"" height=""250px""></img></td>
    <td width=300 height=300><img src=""static/images/cards/back_of_black_bolts.svg"" width=""175px"" height=""250px""></img></td>
  </tr>
  <tr height=200>
    <td width=300></td>
    <td width=300><img src=""static/images/keys/m.svg"" width=""35%"" height=""75%""></img></td>
  </tr>
</table>
  ",77.0,1.0,,,,,,,,,,,,,,,,,,,,,,,,,,
155,0,,html-keyboard-response,155,620852,0.0-7.1-2.1,0a7yvayyw0tj,2022-09-19 16:21:43.034,5f516d96bf6cde3b04b94b69,3,63,38,66,39,31,male,,,"
  <table>
  <tr height=300>
    <td width=300 height=300><img src=""static/images/cards/back_of_black_bolts.svg"" width=""175px"" height=""250px""></img></td>
    <td width=300 height=300><img src=""static/images/cards/1_of_black_bolts.svg"" width=""175px"" height=""250px""></img></td>
  </tr>
  <tr height=200>
    <td width=300></td>
    <td width=300><img src=""static/images/keys/m.svg"" width=""35%"" height=""75%""></img></td>
  </tr>
</table>
  ",,,,,,,,,,,,,,,,,,,,,,,,,,,,
156,0,,html-keyboard-response,156,622383,0.0-7.1-3.1,0a7yvayyw0tj,2022-09-19 16:21:43.034,5f516d96bf6cde3b04b94b69,3,63,38,66,39,31,male,,,"<p style=""font-size:50px"">You win!
+10 points this round!</p>",,,,,,,,,,,,,,,,,,,,,,,,,,,,
157,0,,html-keyboard-response,157,622901,0.0-7.1-4.1,0a7yvayyw0tj,2022-09-19 16:21:43.034,5f516d96bf6cde3b04b94b69,3,63,38,66,39,31,male,,,,,,1.0,choice,1.0,B,Xnc,red,black,moons,bolts,B,Xnc,Xnc,black,bolts,923.0,0.0,0.0,0,right,1404.8000000119,1.0,0.0,1.0,,,
158,0,,html-keyboard-response,158,625558,0.0-7.2-0.2,0a7yvayyw0tj,2022-09-19 16:21:43.034,5f516d96bf6cde3b04b94b69,3,63,38,66,39,31,male,2656.799999997,,"
  <table>
  <tr height=300>
    <td width=300 height=300><img src=""static/images/cards/stack_of_red_stars.svg"" width=""175px"" height=""250px""></img></td>
    <td width=300 height=300><img src=""static/images/cards/stack_of_red_moons.svg"" width=""175px"" height=""250px""></img></td>
  </tr>
  <tr height=200>
    <td width=300><img src=""static/images/keys/w.svg"" width=""35%"" height=""75%""></img></td>
    <td width=300><img src=""static/images/keys/o.svg"" width=""35%"" height=""75%""></img></td>
  </tr>
</table>
  ",79.0,1.0,,,,,,,,,,,,,,,,,,,,,,,,,,
159,0,,html-keyboard-response,159,627246,0.0-7.2-1.2,0a7yvayyw0tj,2022-09-19 16:21:43.034,5f516d96bf6cde3b04b94b69,3,63,38,66,39,31,male,1172.5,,"
  <table>
  <tr height=300>
    <td width=300 height=300><img src=""static/images/cards/back_of_red_moons.svg"" width=""175px"" height=""250px""></img></td>
    <td width=300 height=300><img src=""static/images/cards/back_of_red_moons.svg"" width=""175px"" height=""250px""></img></td>
  </tr>
  <tr height=200>
    <td width=300></td>
    <td width=300><img src=""static/images/keys/m.svg"" width=""35%"" height=""75%""></img></td>
  </tr>
</table>
  ",77.0,1.0,,,,,,,,,,,,,,,,,,,,,,,,,,
160,0,,html-keyboard-response,160,628759,0.0-7.2-2.2,0a7yvayyw0tj,2022-09-19 16:21:43.034,5f516d96bf6cde3b04b94b69,3,63,38,66,39,31,male,,,"
  <table>
  <tr height=300>
    <td width=300 height=300><img src=""static/images/cards/back_of_red_moons.svg"" width=""175px"" height=""250px""></img></td>
    <td width=300 height=300><img src=""static/images/cards/7_of_red_moons.svg"" width=""175px"" height=""250px""></img></td>
  </tr>
  <tr height=200>
    <td width=300></td>
    <td width=300><img src=""static/images/keys/m.svg"" width=""35%"" height=""75%""></img></td>
  </tr>
</table>
  ",,,,,,,,,,,,,,,,,,,,,,,,,,,,
161,0,,html-keyboard-response,161,630283,0.0-7.2-3.2,0a7yvayyw0tj,2022-09-19 16:21:43.034,5f516d96bf6cde3b04b94b69,3,63,38,66,39,31,male,,,"<p style=""font-size:50px"">You win!
+10 points this round!</p>",,,,,,,,,,,,,,,,,,,,,,,,,,,,
162,0,,html-keyboard-response,162,630791,0.0-7.2-4.2,0a7yvayyw0tj,2022-09-19 16:21:43.034,5f516d96bf6cde3b04b94b69,3,63,38,66,39,31,male,,,,,,1.0,choice,2.0,B,D,red,red,stars,moons,D,B,B,red,moons,2656.799999997,0.0,1.0,0,right,1172.5,7.0,1.0,1.0,,,
163,0,,html-keyboard-response,163,632190,0.0-7.3-0.3,0a7yvayyw0tj,2022-09-19 16:21:43.034,5f516d96bf6cde3b04b94b69,3,63,38,66,39,31,male,1398.8999999911,,"
  <table>
  <tr height=300>
    <td width=300 height=300><img src=""static/images/cards/stack_of_black_moons.svg"" width=""175px"" height=""250px""></img></td>
    <td width=300 height=300><img src=""static/images/cards/stack_of_black_stars.svg"" width=""175px"" height=""250px""></img></td>
  </tr>
  <tr height=200>
    <td width=300><img src=""static/images/keys/w.svg"" width=""35%"" height=""75%""></img></td>
    <td width=300><img src=""static/images/keys/o.svg"" width=""35%"" height=""75%""></img></td>
  </tr>
</table>
  ",79.0,1.0,,,,,,,,,,,,,,,,,,,,,,,,,,
164,0,,html-keyboard-response,164,633790,0.0-7.3-1.3,0a7yvayyw0tj,2022-09-19 16:21:43.034,5f516d96bf6cde3b04b94b69,3,63,38,66,39,31,male,1093.0,,"
  <table>
  <tr height=300>
    <td width=300 height=300><img src=""static/images/cards/back_of_black_stars.svg"" width=""175px"" height=""250px""></img></td>
    <td width=300 height=300><img src=""static/images/cards/back_of_black_stars.svg"" width=""175px"" height=""250px""></img></td>
  </tr>
  <tr height=200>
    <td width=300><img src=""static/images/keys/z.svg"" width=""35%"" height=""75%""></img></td>
    <td width=300><img src=""static/images/keys/m.svg"" width=""35%"" height=""75%""></img></td>
  </tr>
</table>
  ",77.0,1.0,,,,,,,,,,,,,,,,,,,,,,,,,,
165,0,,html-keyboard-response,165,635301,0.0-7.3-2.3,0a7yvayyw0tj,2022-09-19 16:21:43.034,5f516d96bf6cde3b04b94b69,3,63,38,66,39,31,male,,,"
  <table>
  <tr height=300>
    <td width=300 height=300><img src=""static/images/cards/back_of_black_stars.svg"" width=""175px"" height=""250px""></img></td>
    <td width=300 height=300><img src=""static/images/cards/2_of_black_stars.svg"" width=""175px"" height=""250px""></img></td>
  </tr>
  <tr height=200>
    <td width=300><img src=""static/images/keys/z.svg"" width=""35%"" height=""75%""></img></td>
    <td width=300><img src=""static/images/keys/m.svg"" width=""35%"" height=""75%""></img></td>
  </tr>
</table>
  ",,,,,,,,,,,,,,,,,,,,,,,,,,,,
166,0,,html-keyboard-response,166,636812,0.0-7.3-3.3,0a7yvayyw0tj,2022-09-19 16:21:43.034,5f516d96bf6cde3b04b94b69,3,63,38,66,39,31,male,,,"<p style=""font-size:50px"">You Lose!
No points this round.</p>",,,,,,,,,,,,,,,,,,,,,,,,,,,,
167,0,,html-keyboard-response,167,637330,0.0-7.3-4.3,0a7yvayyw0tj,2022-09-19 16:21:43.034,5f516d96bf6cde3b04b94b69,3,63,38,66,39,31,male,,,,,,1.0,choice,3.0,A,C,black,black,moons,stars,A,C,C,black,stars,1398.8999999911,1.0,0.0,NA,right,1093.0,2.0,0.0,0.0,,,
168,0,,html-keyboard-response,168,639023,0.0-7.4-0.4,0a7yvayyw0tj,2022-09-19 16:21:43.034,5f516d96bf6cde3b04b94b69,3,63,38,66,39,31,male,1691.8999999911,,"
  <table>
  <tr height=300>
    <td width=300 height=300><img src=""static/images/cards/stack_of_black_stars.svg"" width=""175px"" height=""250px""></img></td>
    <td width=300 height=300><img src=""static/images/cards/stack_of_red_moons.svg"" width=""175px"" height=""250px""></img></td>
  </tr>
  <tr height=200>
    <td width=300><img src=""static/images/keys/w.svg"" width=""35%"" height=""75%""></img></td>
    <td width=300><img src=""static/images/keys/o.svg"" width=""35%"" height=""75%""></img></td>
  </tr>
</table>
  ",87.0,1.0,,,,,,,,,,,,,,,,,,,,,,,,,,
169,0,,html-keyboard-response,169,640790,0.0-7.4-1.4,0a7yvayyw0tj,2022-09-19 16:21:43.034,5f516d96bf6cde3b04b94b69,3,63,38,66,39,31,male,1264.700000003,,"
  <table>
  <tr height=300>
    <td width=300 height=300><img src=""static/images/cards/back_of_black_stars.svg"" width=""175px"" height=""250px""></img></td>
    <td width=300 height=300><img src=""static/images/cards/back_of_black_stars.svg"" width=""175px"" height=""250px""></img></td>
  </tr>
  <tr height=200>
    <td width=300><img src=""static/images/keys/z.svg"" width=""35%"" height=""75%""></img></td>
    <td width=300><img src=""static/images/keys/m.svg"" width=""35%"" height=""75%""></img></td>
  </tr>
</table>
  ",77.0,1.0,,,,,,,,,,,,,,,,,,,,,,,,,,
170,0,,html-keyboard-response,170,642299,0.0-7.4-2.4,0a7yvayyw0tj,2022-09-19 16:21:43.034,5f516d96bf6cde3b04b94b69,3,63,38,66,39,31,male,,,"
  <table>
  <tr height=300>
    <td width=300 height=300><img src=""static/images/cards/back_of_black_stars.svg"" width=""175px"" height=""250px""></img></td>
    <td width=300 height=300><img src=""static/images/cards/1_of_black_stars.svg"" width=""175px"" height=""250px""></img></td>
  </tr>
  <tr height=200>
    <td width=300><img src=""static/images/keys/z.svg"" width=""35%"" height=""75%""></img></td>
    <td width=300><img src=""static/images/keys/m.svg"" width=""35%"" height=""75%""></img></td>
  </tr>
</table>
  ",,,,,,,,,,,,,,,,,,,,,,,,,,,,
171,0,,html-keyboard-response,171,643829,0.0-7.4-3.4,0a7yvayyw0tj,2022-09-19 16:21:43.034,5f516d96bf6cde3b04b94b69,3,63,38,66,39,31,male,,,"<p style=""font-size:50px"">You Lose!
No points this round.</p>",,,,,,,,,,,,,,,,,,,,,,,,,,,,
172,0,,html-keyboard-response,172,644349,0.0-7.4-4.4,0a7yvayyw0tj,2022-09-19 16:21:43.034,5f516d96bf6cde3b04b94b69,3,63,38,66,39,31,male,,,,,,1.0,choice,4.0,B,C,black,red,stars,moons,C,B,C,black,stars,1691.8999999911,1.0,0.0,NA,right,1264.700000003,1.0,0.0,0.0,,,
173,0,,html-keyboard-response,173,645710,0.0-7.5-0.5,0a7yvayyw0tj,2022-09-19 16:21:43.034,5f516d96bf6cde3b04b94b69,3,63,38,66,39,31,male,1360.599999994,,"
  <table>
  <tr height=300>
    <td width=300 height=300><img src=""static/images/cards/stack_of_red_stars.svg"" width=""175px"" height=""250px""></img></td>
    <td width=300 height=300><img src=""static/images/cards/stack_of_black_moons.svg"" width=""175px"" height=""250px""></img></td>
  </tr>
  <tr height=200>
    <td width=300><img src=""static/images/keys/w.svg"" width=""35%"" height=""75%""></img></td>
    <td width=300><img src=""static/images/keys/o.svg"" width=""35%"" height=""75%""></img></td>
  </tr>
</table>
  ",87.0,1.0,,,,,,,,,,,,,,,,,,,,,,,,,,
174,0,,html-keyboard-response,174,647334,0.0-7.5-1.5,0a7yvayyw0tj,2022-09-19 16:21:43.034,5f516d96bf6cde3b04b94b69,3,63,38,66,39,31,male,1120.0,,"
  <table>
  <tr height=300>
    <td width=300 height=300><img src=""static/images/cards/back_of_red_stars.svg"" width=""175px"" height=""250px""></img></td>
    <td width=300 height=300><img src=""static/images/cards/back_of_red_stars.svg"" width=""175px"" height=""250px""></img></td>
  </tr>
  <tr height=200>
    <td width=300></td>
    <td width=300><img src=""static/images/keys/m.svg"" width=""35%"" height=""75%""></img></td>
  </tr>
</table>
  ",77.0,1.0,,,,,,,,,,,,,,,,,,,,,,,,,,
175,0,,html-keyboard-response,175,648848,0.0-7.5-2.5,0a7yvayyw0tj,2022-09-19 16:21:43.034,5f516d96bf6cde3b04b94b69,3,63,38,66,39,31,male,,,"
  <table>
  <tr height=300>
    <td width=300 height=300><img src=""static/images/cards/back_of_red_stars.svg"" width=""175px"" height=""250px""></img></td>
    <td width=300 height=300><img src=""static/images/cards/7_of_red_stars.svg"" width=""175px"" height=""250px""></img></td>
  </tr>
  <tr height=200>
    <td width=300></td>
    <td width=300><img src=""static/images/keys/m.svg"" width=""35%"" height=""75%""></img></td>
  </tr>
</table>
  ",,,,,,,,,,,,,,,,,,,,,,,,,,,,
176,0,,html-keyboard-response,176,650375,0.0-7.5-3.5,0a7yvayyw0tj,2022-09-19 16:21:43.034,5f516d96bf6cde3b04b94b69,3,63,38,66,39,31,male,,,"<p style=""font-size:50px"">You win!
+10 points this round!</p>",,,,,,,,,,,,,,,,,,,,,,,,,,,,
177,0,,html-keyboard-response,177,650891,0.0-7.5-4.5,0a7yvayyw0tj,2022-09-19 16:21:43.034,5f516d96bf6cde3b04b94b69,3,63,38,66,39,31,male,,,,,,1.0,choice,5.0,A,D,red,black,stars,moons,D,A,D,red,stars,1360.599999994,0.0,0.0,0,right,1120.0,7.0,1.0,1.0,,,
178,0,,html-keyboard-response,178,652030,0.0-7.6-0.6,0a7yvayyw0tj,2022-09-19 16:21:43.034,5f516d96bf6cde3b04b94b69,3,63,38,66,39,31,male,1139.0,,"
  <table>
  <tr height=300>
    <td width=300 height=300><img src=""static/images/cards/stack_of_black_stars.svg"" width=""175px"" height=""250px""></img></td>
    <td width=300 height=300><img src=""static/images/cards/stack_of_red_stars.svg"" width=""175px"" height=""250px""></img></td>
  </tr>
  <tr height=200>
    <td width=300><img src=""static/images/keys/w.svg"" width=""35%"" height=""75%""></img></td>
    <td width=300><img src=""static/images/keys/o.svg"" width=""35%"" height=""75%""></img></td>
  </tr>
</table>
  ",87.0,1.0,,,,,,,,,,,,,,,,,,,,,,,,,,
179,0,,html-keyboard-response,179,653551,0.0-7.6-1.6,0a7yvayyw0tj,2022-09-19 16:21:43.034,5f516d96bf6cde3b04b94b69,3,63,38,66,39,31,male,1012.799999997,,"
  <table>
  <tr height=300>
    <td width=300 height=300><img src=""static/images/cards/back_of_black_stars.svg"" width=""175px"" height=""250px""></img></td>
    <td width=300 height=300><img src=""static/images/cards/back_of_black_stars.svg"" width=""175px"" height=""250px""></img></td>
  </tr>
  <tr height=200>
    <td width=300><img src=""static/images/keys/z.svg"" width=""35%"" height=""75%""></img></td>
    <td width=300><img src=""static/images/keys/m.svg"" width=""35%"" height=""75%""></img></td>
  </tr>
</table>
  ",77.0,1.0,,,,,,,,,,,,,,,,,,,,,,,,,,
180,0,,html-keyboard-response,180,655054,0.0-7.6-2.6,0a7yvayyw0tj,2022-09-19 16:21:43.034,5f516d96bf6cde3b04b94b69,3,63,38,66,39,31,male,,,"
  <table>
  <tr height=300>
    <td width=300 height=300><img src=""static/images/cards/back_of_black_stars.svg"" width=""175px"" height=""250px""></img></td>
    <td width=300 height=300><img src=""static/images/cards/8_of_black_stars.svg"" width=""175px"" height=""250px""></img></td>
  </tr>
  <tr height=200>
    <td width=300><img src=""static/images/keys/z.svg"" width=""35%"" height=""75%""></img></td>
    <td width=300><img src=""static/images/keys/m.svg"" width=""35%"" height=""75%""></img></td>
  </tr>
</table>
  ",,,,,,,,,,,,,,,,,,,,,,,,,,,,
181,0,,html-keyboard-response,181,656578,0.0-7.6-3.6,0a7yvayyw0tj,2022-09-19 16:21:43.034,5f516d96bf6cde3b04b94b69,3,63,38,66,39,31,male,,,"<p style=""font-size:50px"">You win!
+10 points this round!</p>",,,,,,,,,,,,,,,,,,,,,,,,,,,,
182,0,,html-keyboard-response,182,657084,0.0-7.6-4.6,0a7yvayyw0tj,2022-09-19 16:21:43.034,5f516d96bf6cde3b04b94b69,3,63,38,66,39,31,male,,,,,,1.0,choice,6.0,C,D,black,red,stars,stars,C,D,C,black,stars,1139.0,1.0,0.0,NA,right,1012.799999997,8.0,1.0,1.0,,,
183,0,,html-keyboard-response,183,658006,0.0-7.7-0.7,0a7yvayyw0tj,2022-09-19 16:21:43.034,5f516d96bf6cde3b04b94b69,3,63,38,66,39,31,male,922.1000000089,,"
  <table>
  <tr height=300>
    <td width=300 height=300><img src=""static/images/cards/stack_of_black_stars.svg"" width=""175px"" height=""250px""></img></td>
    <td width=300 height=300><img src=""static/images/cards/stack_of_red_moons.svg"" width=""175px"" height=""250px""></img></td>
  </tr>
  <tr height=200>
    <td width=300><img src=""static/images/keys/w.svg"" width=""35%"" height=""75%""></img></td>
    <td width=300><img src=""static/images/keys/o.svg"" width=""35%"" height=""75%""></img></td>
  </tr>
</table>
  ",87.0,1.0,,,,,,,,,,,,,,,,,,,,,,,,,,
184,0,,html-keyboard-response,184,659214,0.0-7.7-1.7,0a7yvayyw0tj,2022-09-19 16:21:43.034,5f516d96bf6cde3b04b94b69,3,63,38,66,39,31,male,706.200000003,,"
  <table>
  <tr height=300>
    <td width=300 height=300><img src=""static/images/cards/back_of_black_stars.svg"" width=""175px"" height=""250px""></img></td>
    <td width=300 height=300><img src=""static/images/cards/back_of_black_stars.svg"" width=""175px"" height=""250px""></img></td>
  </tr>
  <tr height=200>
    <td width=300><img src=""static/images/keys/z.svg"" width=""35%"" height=""75%""></img></td>
    <td width=300><img src=""static/images/keys/m.svg"" width=""35%"" height=""75%""></img></td>
  </tr>
</table>
  ",77.0,1.0,,,,,,,,,,,,,,,,,,,,,,,,,,
185,0,,html-keyboard-response,185,660730,0.0-7.7-2.7,0a7yvayyw0tj,2022-09-19 16:21:43.034,5f516d96bf6cde3b04b94b69,3,63,38,66,39,31,male,,,"
  <table>
  <tr height=300>
    <td width=300 height=300><img src=""static/images/cards/back_of_black_stars.svg"" width=""175px"" height=""250px""></img></td>
    <td width=300 height=300><img src=""static/images/cards/4_of_black_stars.svg"" width=""175px"" height=""250px""></img></td>
  </tr>
  <tr height=200>
    <td width=300><img src=""static/images/keys/z.svg"" width=""35%"" height=""75%""></img></td>
    <td width=300><img src=""static/images/keys/m.svg"" width=""35%"" height=""75%""></img></td>
  </tr>
</table>
  ",,,,,,,,,,,,,,,,,,,,,,,,,,,,
186,0,,html-keyboard-response,186,662260,0.0-7.7-3.7,0a7yvayyw0tj,2022-09-19 16:21:43.034,5f516d96bf6cde3b04b94b69,3,63,38,66,39,31,male,,,"<p style=""font-size:50px"">You win!
+10 points this round!</p>",,,,,,,,,,,,,,,,,,,,,,,,,,,,
187,0,,html-keyboard-response,187,662778,0.0-7.7-4.7,0a7yvayyw0tj,2022-09-19 16:21:43.034,5f516d96bf6cde3b04b94b69,3,63,38,66,39,31,male,,,,,,1.0,choice,7.0,B,C,black,red,stars,moons,C,B,C,black,stars,922.1000000089,1.0,0.0,NA,right,706.200000003,4.0,0.0,1.0,,,
188,0,,html-keyboard-response,188,664014,0.0-7.8-0.8,0a7yvayyw0tj,2022-09-19 16:21:43.034,5f516d96bf6cde3b04b94b69,3,63,38,66,39,31,male,1235.299999997,,"
  <table>
  <tr height=300>
    <td width=300 height=300><img src=""static/images/cards/stack_of_red_stars.svg"" width=""175px"" height=""250px""></img></td>
    <td width=300 height=300><img src=""static/images/cards/stack_of_black_stars.svg"" width=""175px"" height=""250px""></img></td>
  </tr>
  <tr height=200>
    <td width=300><img src=""static/images/keys/w.svg"" width=""35%"" height=""75%""></img></td>
    <td width=300><img src=""static/images/keys/o.svg"" width=""35%"" height=""75%""></img></td>
  </tr>
</table>
  ",79.0,1.0,,,,,,,,,,,,,,,,,,,,,,,,,,
189,0,,html-keyboard-response,189,665470,0.0-7.8-1.8,0a7yvayyw0tj,2022-09-19 16:21:43.034,5f516d96bf6cde3b04b94b69,3,63,38,66,39,31,male,952.700000003,,"
  <table>
  <tr height=300>
    <td width=300 height=300><img src=""static/images/cards/back_of_black_stars.svg"" width=""175px"" height=""250px""></img></td>
    <td width=300 height=300><img src=""static/images/cards/back_of_black_stars.svg"" width=""175px"" height=""250px""></img></td>
  </tr>
  <tr height=200>
    <td width=300><img src=""static/images/keys/z.svg"" width=""35%"" height=""75%""></img></td>
    <td width=300><img src=""static/images/keys/m.svg"" width=""35%"" height=""75%""></img></td>
  </tr>
</table>
  ",77.0,1.0,,,,,,,,,,,,,,,,,,,,,,,,,,
190,0,,html-keyboard-response,190,666975,0.0-7.8-2.8,0a7yvayyw0tj,2022-09-19 16:21:43.034,5f516d96bf6cde3b04b94b69,3,63,38,66,39,31,male,,,"
  <table>
  <tr height=300>
    <td width=300 height=300><img src=""static/images/cards/back_of_black_stars.svg"" width=""175px"" height=""250px""></img></td>
    <td width=300 height=300><img src=""static/images/cards/8_of_black_stars.svg"" width=""175px"" height=""250px""></img></td>
  </tr>
  <tr height=200>
    <td width=300><img src=""static/images/keys/z.svg"" width=""35%"" height=""75%""></img></td>
    <td width=300><img src=""static/images/keys/m.svg"" width=""35%"" height=""75%""></img></td>
  </tr>
</table>
  ",,,,,,,,,,,,,,,,,,,,,,,,,,,,
191,0,,html-keyboard-response,191,668496,0.0-7.8-3.8,0a7yvayyw0tj,2022-09-19 16:21:43.034,5f516d96bf6cde3b04b94b69,3,63,38,66,39,31,male,,,"<p style=""font-size:50px"">You win!
+10 points this round!</p>",,,,,,,,,,,,,,,,,,,,,,,,,,,,
192,0,,html-keyboard-response,192,669016,0.0-7.8-4.8,0a7yvayyw0tj,2022-09-19 16:21:43.034,5f516d96bf6cde3b04b94b69,3,63,38,66,39,31,male,,,,,,1.0,choice,8.0,C,D,red,black,stars,stars,D,C,C,black,stars,1235.299999997,1.0,0.0,NA,right,952.700000003,8.0,1.0,1.0,,,
193,0,,html-keyboard-response,193,670295,0.0-7.9-0.9,0a7yvayyw0tj,2022-09-19 16:21:43.034,5f516d96bf6cde3b04b94b69,3,63,38,66,39,31,male,1277.700000003,,"
  <table>
  <tr height=300>
    <td width=300 height=300><img src=""static/images/cards/stack_of_black_stars.svg"" width=""175px"" height=""250px""></img></td>
    <td width=300 height=300><img src=""static/images/cards/stack_of_red_moons.svg"" width=""175px"" height=""250px""></img></td>
  </tr>
  <tr height=200>
    <td width=300><img src=""static/images/keys/w.svg"" width=""35%"" height=""75%""></img></td>
    <td width=300><img src=""static/images/keys/o.svg"" width=""35%"" height=""75%""></img></td>
  </tr>
</table>
  ",87.0,1.0,,,,,,,,,,,,,,,,,,,,,,,,,,
194,0,,html-keyboard-response,194,671758,0.0-7.9-1.9,0a7yvayyw0tj,2022-09-19 16:21:43.034,5f516d96bf6cde3b04b94b69,3,63,38,66,39,31,male,948.599999994,,"
  <table>
  <tr height=300>
    <td width=300 height=300><img src=""static/images/cards/back_of_black_stars.svg"" width=""175px"" height=""250px""></img></td>
    <td width=300 height=300><img src=""static/images/cards/back_of_black_stars.svg"" width=""175px"" height=""250px""></img></td>
  </tr>
  <tr height=200>
    <td width=300><img src=""static/images/keys/z.svg"" width=""35%"" height=""75%""></img></td>
    <td width=300><img src=""static/images/keys/m.svg"" width=""35%"" height=""75%""></img></td>
  </tr>
</table>
  ",77.0,1.0,,,,,,,,,,,,,,,,,,,,,,,,,,
195,0,,html-keyboard-response,195,673267,0.0-7.9-2.9,0a7yvayyw0tj,2022-09-19 16:21:43.034,5f516d96bf6cde3b04b94b69,3,63,38,66,39,31,male,,,"
  <table>
  <tr height=300>
    <td width=300 height=300><img src=""static/images/cards/back_of_black_stars.svg"" width=""175px"" height=""250px""></img></td>
    <td width=300 height=300><img src=""static/images/cards/4_of_black_stars.svg"" width=""175px"" height=""250px""></img></td>
  </tr>
  <tr height=200>
    <td width=300><img src=""static/images/keys/z.svg"" width=""35%"" height=""75%""></img></td>
    <td width=300><img src=""static/images/keys/m.svg"" width=""35%"" height=""75%""></img></td>
  </tr>
</table>
  ",,,,,,,,,,,,,,,,,,,,,,,,,,,,
196,0,,html-keyboard-response,196,674790,0.0-7.9-3.9,0a7yvayyw0tj,2022-09-19 16:21:43.034,5f516d96bf6cde3b04b94b69,3,63,38,66,39,31,male,,,"<p style=""font-size:50px"">You Lose!
No points this round.</p>",,,,,,,,,,,,,,,,,,,,,,,,,,,,
197,0,,html-keyboard-response,197,675310,0.0-7.9-4.9,0a7yvayyw0tj,2022-09-19 16:21:43.034,5f516d96bf6cde3b04b94b69,3,63,38,66,39,31,male,,,,,,1.0,choice,9.0,B,C,black,red,stars,moons,C,B,C,black,stars,1277.700000003,1.0,0.0,NA,right,948.599999994,4.0,0.0,0.0,,,
198,0,,html-keyboard-response,198,676014,0.0-7.10-0.10,0a7yvayyw0tj,2022-09-19 16:21:43.034,5f516d96bf6cde3b04b94b69,3,63,38,66,39,31,male,703.700000003,,"
  <table>
  <tr height=300>
    <td width=300 height=300><img src=""static/images/cards/stack_of_black_moons.svg"" width=""175px"" height=""250px""></img></td>
    <td width=300 height=300><img src=""static/images/cards/stack_of_red_stars.svg"" width=""175px"" height=""250px""></img></td>
  </tr>
  <tr height=200>
    <td width=300><img src=""static/images/keys/w.svg"" width=""35%"" height=""75%""></img></td>
    <td width=300><img src=""static/images/keys/o.svg"" width=""35%"" height=""75%""></img></td>
  </tr>
</table>
  ",87.0,1.0,,,,,,,,,,,,,,,,,,,,,,,,,,
199,0,,html-keyboard-response,199,677606,0.0-7.10-1.10,0a7yvayyw0tj,2022-09-19 16:21:43.034,5f516d96bf6cde3b04b94b69,3,63,38,66,39,31,male,1087.5,,"
  <table>
  <tr height=300>
    <td width=300 height=300><img src=""static/images/cards/back_of_black_moons.svg"" width=""175px"" height=""250px""></img></td>
    <td width=300 height=300><img src=""static/images/cards/back_of_black_moons.svg"" width=""175px"" height=""250px""></img></td>
  </tr>
  <tr height=200>
    <td width=300><img src=""static/images/keys/z.svg"" width=""35%"" height=""75%""></img></td>
    <td width=300><img src=""static/images/keys/m.svg"" width=""35%"" height=""75%""></img></td>
  </tr>
</table>
  ",77.0,1.0,,,,,,,,,,,,,,,,,,,,,,,,,,
200,0,,html-keyboard-response,200,679120,0.0-7.10-2.10,0a7yvayyw0tj,2022-09-19 16:21:43.034,5f516d96bf6cde3b04b94b69,3,63,38,66,39,31,male,,,"
  <table>
  <tr height=300>
    <td width=300 height=300><img src=""static/images/cards/back_of_black_moons.svg"" width=""175px"" height=""250px""></img></td>
    <td width=300 height=300><img src=""static/images/cards/9_of_black_moons.svg"" width=""175px"" height=""250px""></img></td>
  </tr>
  <tr height=200>
    <td width=300><img src=""static/images/keys/z.svg"" width=""35%"" height=""75%""></img></td>
    <td width=300><img src=""static/images/keys/m.svg"" width=""35%"" height=""75%""></img></td>
  </tr>
</table>
  ",,,,,,,,,,,,,,,,,,,,,,,,,,,,
201,0,,html-keyboard-response,201,680637,0.0-7.10-3.10,0a7yvayyw0tj,2022-09-19 16:21:43.034,5f516d96bf6cde3b04b94b69,3,63,38,66,39,31,male,,,"<p style=""font-size:50px"">You win!
+10 points this round!</p>",,,,,,,,,,,,,,,,,,,,,,,,,,,,
202,0,,html-keyboard-response,202,681156,0.0-7.10-4.10,0a7yvayyw0tj,2022-09-19 16:21:43.034,5f516d96bf6cde3b04b94b69,3,63,38,66,39,31,male,,,,,,1.0,choice,10.0,A,D,black,red,moons,stars,A,D,A,black,moons,703.700000003,1.0,1.0,NA,right,1087.5,9.0,1.0,1.0,,,
203,0,,html-keyboard-response,203,682374,0.0-7.11-0.11,0a7yvayyw0tj,2022-09-19 16:21:43.034,5f516d96bf6cde3b04b94b69,3,63,38,66,39,31,male,1217.799999997,,"
  <table>
  <tr height=300>
    <td width=300 height=300><img src=""static/images/cards/stack_of_red_bolts.svg"" width=""175px"" height=""250px""></img></td>
    <td width=300 height=300><img src=""static/images/cards/stack_of_red_stars.svg"" width=""175px"" height=""250px""></img></td>
  </tr>
  <tr height=200>
    <td width=300><img src=""static/images/keys/w.svg"" width=""35%"" height=""75%""></img></td>
    <td width=300><img src=""static/images/keys/o.svg"" width=""35%"" height=""75%""></img></td>
  </tr>
</table>
  ",87.0,1.0,,,,,,,,,,,,,,,,,,,,,,,,,,
204,0,,html-keyboard-response,204,684173,0.0-7.11-1.11,0a7yvayyw0tj,2022-09-19 16:21:43.034,5f516d96bf6cde3b04b94b69,3,63,38,66,39,31,male,1294.5,,"
  <table>
  <tr height=300>
    <td width=300 height=300><img src=""static/images/cards/back_of_red_bolts.svg"" width=""175px"" height=""250px""></img></td>
    <td width=300 height=300><img src=""static/images/cards/back_of_red_bolts.svg"" width=""175px"" height=""250px""></img></td>
  </tr>
  <tr height=200>
    <td width=300><img src=""static/images/keys/z.svg"" width=""35%"" height=""75%""></img></td>
    <td width=300><img src=""static/images/keys/m.svg"" width=""35%"" height=""75%""></img></td>
  </tr>
</table>
  ",90.0,1.0,,,,,,,,,,,,,,,,,,,,,,,,,,
205,0,,html-keyboard-response,205,685678,0.0-7.11-2.11,0a7yvayyw0tj,2022-09-19 16:21:43.034,5f516d96bf6cde3b04b94b69,3,63,38,66,39,31,male,,,"
  <table>
  <tr height=300>
    <td width=300 height=300><img src=""static/images/cards/3_of_red_bolts.svg"" width=""175px"" height=""250px""></img></td>
    <td width=300 height=300><img src=""static/images/cards/back_of_red_bolts.svg"" width=""175px"" height=""250px""></img></td>
  </tr>
  <tr height=200>
    <td width=300><img src=""static/images/keys/z.svg"" width=""35%"" height=""75%""></img></td>
    <td width=300><img src=""static/images/keys/m.svg"" width=""35%"" height=""75%""></img></td>
  </tr>
</table>
  ",,,,,,,,,,,,,,,,,,,,,,,,,,,,
206,0,,html-keyboard-response,206,687192,0.0-7.11-3.11,0a7yvayyw0tj,2022-09-19 16:21:43.034,5f516d96bf6cde3b04b94b69,3,63,38,66,39,31,male,,,"<p style=""font-size:50px"">You win!
+10 points this round!</p>",,,,,,,,,,,,,,,,,,,,,,,,,,,,
207,0,,html-keyboard-response,207,687707,0.0-7.11-4.11,0a7yvayyw0tj,2022-09-19 16:21:43.034,5f516d96bf6cde3b04b94b69,3,63,38,66,39,31,male,,,,,,1.0,choice,11.0,D,Xc,red,red,bolts,stars,Xc,D,Xc,red,bolts,1217.799999997,1.0,0.0,NA,left,1294.5,3.0,0.0,1.0,,,
208,0,,html-keyboard-response,208,689103,0.0-7.12-0.12,0a7yvayyw0tj,2022-09-19 16:21:43.034,5f516d96bf6cde3b04b94b69,3,63,38,66,39,31,male,1395.0,,"
  <table>
  <tr height=300>
    <td width=300 height=300><img src=""static/images/cards/stack_of_black_moons.svg"" width=""175px"" height=""250px""></img></td>
    <td width=300 height=300><img src=""static/images/cards/stack_of_black_stars.svg"" width=""175px"" height=""250px""></img></td>
  </tr>
  <tr height=200>
    <td width=300><img src=""static/images/keys/w.svg"" width=""35%"" height=""75%""></img></td>
    <td width=300><img src=""static/images/keys/o.svg"" width=""35%"" height=""75%""></img></td>
  </tr>
</table>
  ",87.0,1.0,,,,,,,,,,,,,,,,,,,,,,,,,,
209,0,,html-keyboard-response,209,690846,0.0-7.12-1.12,0a7yvayyw0tj,2022-09-19 16:21:43.034,5f516d96bf6cde3b04b94b69,3,63,38,66,39,31,male,1230.099999994,,"
  <table>
  <tr height=300>
    <td width=300 height=300><img src=""static/images/cards/back_of_black_moons.svg"" width=""175px"" height=""250px""></img></td>
    <td width=300 height=300><img src=""static/images/cards/back_of_black_moons.svg"" width=""175px"" height=""250px""></img></td>
  </tr>
  <tr height=200>
    <td width=300><img src=""static/images/keys/z.svg"" width=""35%"" height=""75%""></img></td>
    <td width=300><img src=""static/images/keys/m.svg"" width=""35%"" height=""75%""></img></td>
  </tr>
</table>
  ",77.0,1.0,,,,,,,,,,,,,,,,,,,,,,,,,,
210,0,,html-keyboard-response,210,692356,0.0-7.12-2.12,0a7yvayyw0tj,2022-09-19 16:21:43.034,5f516d96bf6cde3b04b94b69,3,63,38,66,39,31,male,,,"
  <table>
  <tr height=300>
    <td width=300 height=300><img src=""static/images/cards/back_of_black_moons.svg"" width=""175px"" height=""250px""></img></td>
    <td width=300 height=300><img src=""static/images/cards/6_of_black_moons.svg"" width=""175px"" height=""250px""></img></td>
  </tr>
  <tr height=200>
    <td width=300><img src=""static/images/keys/z.svg"" width=""35%"" height=""75%""></img></td>
    <td width=300><img src=""static/images/keys/m.svg"" width=""35%"" height=""75%""></img></td>
  </tr>
</table>
  ",,,,,,,,,,,,,,,,,,,,,,,,,,,,
211,0,,html-keyboard-response,211,693871,0.0-7.12-3.12,0a7yvayyw0tj,2022-09-19 16:21:43.034,5f516d96bf6cde3b04b94b69,3,63,38,66,39,31,male,,,"<p style=""font-size:50px"">You win!
+10 points this round!</p>",,,,,,,,,,,,,,,,,,,,,,,,,,,,
212,0,,html-keyboard-response,212,694390,0.0-7.12-4.12,0a7yvayyw0tj,2022-09-19 16:21:43.034,5f516d96bf6cde3b04b94b69,3,63,38,66,39,31,male,,,,,,1.0,choice,12.0,A,C,black,black,moons,stars,A,C,A,black,moons,1395.0,1.0,1.0,NA,right,1230.099999994,6.0,1.0,1.0,,,
213,0,,html-keyboard-response,213,695567,0.0-7.13-0.13,0a7yvayyw0tj,2022-09-19 16:21:43.034,5f516d96bf6cde3b04b94b69,3,63,38,66,39,31,male,1175.6000000089,,"
  <table>
  <tr height=300>
    <td width=300 height=300><img src=""static/images/cards/stack_of_red_stars.svg"" width=""175px"" height=""250px""></img></td>
    <td width=300 height=300><img src=""static/images/cards/stack_of_black_stars.svg"" width=""175px"" height=""250px""></img></td>
  </tr>
  <tr height=200>
    <td width=300><img src=""static/images/keys/w.svg"" width=""35%"" height=""75%""></img></td>
    <td width=300><img src=""static/images/keys/o.svg"" width=""35%"" height=""75%""></img></td>
  </tr>
</table>
  ",79.0,1.0,,,,,,,,,,,,,,,,,,,,,,,,,,
214,0,,html-keyboard-response,214,697190,0.0-7.13-1.13,0a7yvayyw0tj,2022-09-19 16:21:43.034,5f516d96bf6cde3b04b94b69,3,63,38,66,39,31,male,1108.400000006,,"
  <table>
  <tr height=300>
    <td width=300 height=300><img src=""static/images/cards/back_of_black_stars.svg"" width=""175px"" height=""250px""></img></td>
    <td width=300 height=300><img src=""static/images/cards/back_of_black_stars.svg"" width=""175px"" height=""250px""></img></td>
  </tr>
  <tr height=200>
    <td width=300><img src=""static/images/keys/z.svg"" width=""35%"" height=""75%""></img></td>
    <td width=300><img src=""static/images/keys/m.svg"" width=""35%"" height=""75%""></img></td>
  </tr>
</table>
  ",77.0,1.0,,,,,,,,,,,,,,,,,,,,,,,,,,
215,0,,html-keyboard-response,215,698704,0.0-7.13-2.13,0a7yvayyw0tj,2022-09-19 16:21:43.034,5f516d96bf6cde3b04b94b69,3,63,38,66,39,31,male,,,"
  <table>
  <tr height=300>
    <td width=300 height=300><img src=""static/images/cards/back_of_black_stars.svg"" width=""175px"" height=""250px""></img></td>
    <td width=300 height=300><img src=""static/images/cards/3_of_black_stars.svg"" width=""175px"" height=""250px""></img></td>
  </tr>
  <tr height=200>
    <td width=300><img src=""static/images/keys/z.svg"" width=""35%"" height=""75%""></img></td>
    <td width=300><img src=""static/images/keys/m.svg"" width=""35%"" height=""75%""></img></td>
  </tr>
</table>
  ",,,,,,,,,,,,,,,,,,,,,,,,,,,,
216,0,,html-keyboard-response,216,700228,0.0-7.13-3.13,0a7yvayyw0tj,2022-09-19 16:21:43.034,5f516d96bf6cde3b04b94b69,3,63,38,66,39,31,male,,,"<p style=""font-size:50px"">You win!
+10 points this round!</p>",,,,,,,,,,,,,,,,,,,,,,,,,,,,
217,0,,html-keyboard-response,217,700749,0.0-7.13-4.13,0a7yvayyw0tj,2022-09-19 16:21:43.034,5f516d96bf6cde3b04b94b69,3,63,38,66,39,31,male,,,,,,1.0,choice,13.0,C,D,red,black,stars,stars,D,C,C,black,stars,1175.6000000089,1.0,0.0,NA,right,1108.400000006,3.0,0.0,1.0,,,
218,0,,html-keyboard-response,218,702214,0.0-7.14-0.14,0a7yvayyw0tj,2022-09-19 16:21:43.034,5f516d96bf6cde3b04b94b69,3,63,38,66,39,31,male,1464.599999994,,"
  <table>
  <tr height=300>
    <td width=300 height=300><img src=""static/images/cards/stack_of_red_moons.svg"" width=""175px"" height=""250px""></img></td>
    <td width=300 height=300><img src=""static/images/cards/stack_of_red_stars.svg"" width=""175px"" height=""250px""></img></td>
  </tr>
  <tr height=200>
    <td width=300><img src=""static/images/keys/w.svg"" width=""35%"" height=""75%""></img></td>
    <td width=300><img src=""static/images/keys/o.svg"" width=""35%"" height=""75%""></img></td>
  </tr>
</table>
  ",79.0,1.0,,,,,,,,,,,,,,,,,,,,,,,,,,
219,0,,html-keyboard-response,219,703662,0.0-7.14-1.14,0a7yvayyw0tj,2022-09-19 16:21:43.034,5f516d96bf6cde3b04b94b69,3,63,38,66,39,31,male,934.599999994,,"
  <table>
  <tr height=300>
    <td width=300 height=300><img src=""static/images/cards/back_of_red_stars.svg"" width=""175px"" height=""250px""></img></td>
    <td width=300 height=300><img src=""static/images/cards/back_of_red_stars.svg"" width=""175px"" height=""250px""></img></td>
  </tr>
  <tr height=200>
    <td width=300></td>
    <td width=300><img src=""static/images/keys/m.svg"" width=""35%"" height=""75%""></img></td>
  </tr>
</table>
  ",77.0,1.0,,,,,,,,,,,,,,,,,,,,,,,,,,
220,0,,html-keyboard-response,220,705172,0.0-7.14-2.14,0a7yvayyw0tj,2022-09-19 16:21:43.034,5f516d96bf6cde3b04b94b69,3,63,38,66,39,31,male,,,"
  <table>
  <tr height=300>
    <td width=300 height=300><img src=""static/images/cards/back_of_red_stars.svg"" width=""175px"" height=""250px""></img></td>
    <td width=300 height=300><img src=""static/images/cards/2_of_red_stars.svg"" width=""175px"" height=""250px""></img></td>
  </tr>
  <tr height=200>
    <td width=300></td>
    <td width=300><img src=""static/images/keys/m.svg"" width=""35%"" height=""75%""></img></td>
  </tr>
</table>
  ",,,,,,,,,,,,,,,,,,,,,,,,,,,,
221,0,,html-keyboard-response,221,706695,0.0-7.14-3.14,0a7yvayyw0tj,2022-09-19 16:21:43.034,5f516d96bf6cde3b04b94b69,3,63,38,66,39,31,male,,,"<p style=""font-size:50px"">You Lose!
No points this round.</p>",,,,,,,,,,,,,,,,,,,,,,,,,,,,
222,0,,html-keyboard-response,222,707213,0.0-7.14-4.14,0a7yvayyw0tj,2022-09-19 16:21:43.034,5f516d96bf6cde3b04b94b69,3,63,38,66,39,31,male,,,,,,1.0,choice,14.0,B,D,red,red,moons,stars,B,D,D,red,stars,1464.599999994,0.0,0.0,0,right,934.599999994,2.0,0.0,0.0,,,
223,0,,html-keyboard-response,223,708310,0.0-7.15-0.15,0a7yvayyw0tj,2022-09-19 16:21:43.034,5f516d96bf6cde3b04b94b69,3,63,38,66,39,31,male,1096.1000000089,,"
  <table>
  <tr height=300>
    <td width=300 height=300><img src=""static/images/cards/stack_of_red_stars.svg"" width=""175px"" height=""250px""></img></td>
    <td width=300 height=300><img src=""static/images/cards/stack_of_black_moons.svg"" width=""175px"" height=""250px""></img></td>
  </tr>
  <tr height=200>
    <td width=300><img src=""static/images/keys/w.svg"" width=""35%"" height=""75%""></img></td>
    <td width=300><img src=""static/images/keys/o.svg"" width=""35%"" height=""75%""></img></td>
  </tr>
</table>
  ",79.0,1.0,,,,,,,,,,,,,,,,,,,,,,,,,,
224,0,,html-keyboard-response,224,709822,0.0-7.15-1.15,0a7yvayyw0tj,2022-09-19 16:21:43.034,5f516d96bf6cde3b04b94b69,3,63,38,66,39,31,male,999.299999997,,"
  <table>
  <tr height=300>
    <td width=300 height=300><img src=""static/images/cards/back_of_black_moons.svg"" width=""175px"" height=""250px""></img></td>
    <td width=300 height=300><img src=""static/images/cards/back_of_black_moons.svg"" width=""175px"" height=""250px""></img></td>
  </tr>
  <tr height=200>
    <td width=300><img src=""static/images/keys/z.svg"" width=""35%"" height=""75%""></img></td>
    <td width=300><img src=""static/images/keys/m.svg"" width=""35%"" height=""75%""></img></td>
  </tr>
</table>
  ",77.0,1.0,,,,,,,,,,,,,,,,,,,,,,,,,,
225,0,,html-keyboard-response,225,711326,0.0-7.15-2.15,0a7yvayyw0tj,2022-09-19 16:21:43.034,5f516d96bf6cde3b04b94b69,3,63,38,66,39,31,male,,,"
  <table>
  <tr height=300>
    <td width=300 height=300><img src=""static/images/cards/back_of_black_moons.svg"" width=""175px"" height=""250px""></img></td>
    <td width=300 height=300><img src=""static/images/cards/4_of_black_moons.svg"" width=""175px"" height=""250px""></img></td>
  </tr>
  <tr height=200>
    <td width=300><img src=""static/images/keys/z.svg"" width=""35%"" height=""75%""></img></td>
    <td width=300><img src=""static/images/keys/m.svg"" width=""35%"" height=""75%""></img></td>
  </tr>
</table>
  ",,,,,,,,,,,,,,,,,,,,,,,,,,,,
226,0,,html-keyboard-response,226,712849,0.0-7.15-3.15,0a7yvayyw0tj,2022-09-19 16:21:43.034,5f516d96bf6cde3b04b94b69,3,63,38,66,39,31,male,,,"<p style=""font-size:50px"">You Lose!
No points this round.</p>",,,,,,,,,,,,,,,,,,,,,,,,,,,,
227,0,,html-keyboard-response,227,713367,0.0-7.15-4.15,0a7yvayyw0tj,2022-09-19 16:21:43.034,5f516d96bf6cde3b04b94b69,3,63,38,66,39,31,male,,,,,,1.0,choice,15.0,A,D,red,black,stars,moons,D,A,A,black,moons,1096.1000000089,1.0,1.0,NA,right,999.299999997,4.0,0.0,0.0,,,
228,0,,html-keyboard-response,228,714455,0.0-7.16-0.16,0a7yvayyw0tj,2022-09-19 16:21:43.034,5f516d96bf6cde3b04b94b69,3,63,38,66,39,31,male,1088.0,,"
  <table>
  <tr height=300>
    <td width=300 height=300><img src=""static/images/cards/stack_of_red_moons.svg"" width=""175px"" height=""250px""></img></td>
    <td width=300 height=300><img src=""static/images/cards/stack_of_black_moons.svg"" width=""175px"" height=""250px""></img></td>
  </tr>
  <tr height=200>
    <td width=300><img src=""static/images/keys/w.svg"" width=""35%"" height=""75%""></img></td>
    <td width=300><img src=""static/images/keys/o.svg"" width=""35%"" height=""75%""></img></td>
  </tr>
</table>
  ",79.0,1.0,,,,,,,,,,,,,,,,,,,,,,,,,,
229,0,,html-keyboard-response,229,715726,0.0-7.16-1.16,0a7yvayyw0tj,2022-09-19 16:21:43.034,5f516d96bf6cde3b04b94b69,3,63,38,66,39,31,male,758.3999999911,,"
  <table>
  <tr height=300>
    <td width=300 height=300><img src=""static/images/cards/back_of_black_moons.svg"" width=""175px"" height=""250px""></img></td>
    <td width=300 height=300><img src=""static/images/cards/back_of_black_moons.svg"" width=""175px"" height=""250px""></img></td>
  </tr>
  <tr height=200>
    <td width=300><img src=""static/images/keys/z.svg"" width=""35%"" height=""75%""></img></td>
    <td width=300><img src=""static/images/keys/m.svg"" width=""35%"" height=""75%""></img></td>
  </tr>
</table>
  ",77.0,1.0,,,,,,,,,,,,,,,,,,,,,,,,,,
230,0,,html-keyboard-response,230,717240,0.0-7.16-2.16,0a7yvayyw0tj,2022-09-19 16:21:43.034,5f516d96bf6cde3b04b94b69,3,63,38,66,39,31,male,,,"
  <table>
  <tr height=300>
    <td width=300 height=300><img src=""static/images/cards/back_of_black_moons.svg"" width=""175px"" height=""250px""></img></td>
    <td width=300 height=300><img src=""static/images/cards/4_of_black_moons.svg"" width=""175px"" height=""250px""></img></td>
  </tr>
  <tr height=200>
    <td width=300><img src=""static/images/keys/z.svg"" width=""35%"" height=""75%""></img></td>
    <td width=300><img src=""static/images/keys/m.svg"" width=""35%"" height=""75%""></img></td>
  </tr>
</table>
  ",,,,,,,,,,,,,,,,,,,,,,,,,,,,
231,0,,html-keyboard-response,231,718762,0.0-7.16-3.16,0a7yvayyw0tj,2022-09-19 16:21:43.034,5f516d96bf6cde3b04b94b69,3,63,38,66,39,31,male,,,"<p style=""font-size:50px"">You Lose!
No points this round.</p>",,,,,,,,,,,,,,,,,,,,,,,,,,,,
232,0,,html-keyboard-response,232,719279,0.0-7.16-4.16,0a7yvayyw0tj,2022-09-19 16:21:43.034,5f516d96bf6cde3b04b94b69,3,63,38,66,39,31,male,,,,,,1.0,choice,16.0,A,B,red,black,moons,moons,B,A,A,black,moons,1088.0,1.0,1.0,NA,right,758.3999999911,4.0,0.0,0.0,,,
233,0,,html-keyboard-response,233,720390,0.0-7.17-0.17,0a7yvayyw0tj,2022-09-19 16:21:43.034,5f516d96bf6cde3b04b94b69,3,63,38,66,39,31,male,1110.599999994,,"
  <table>
  <tr height=300>
    <td width=300 height=300><img src=""static/images/cards/stack_of_red_stars.svg"" width=""175px"" height=""250px""></img></td>
    <td width=300 height=300><img src=""static/images/cards/stack_of_red_moons.svg"" width=""175px"" height=""250px""></img></td>
  </tr>
  <tr height=200>
    <td width=300><img src=""static/images/keys/w.svg"" width=""35%"" height=""75%""></img></td>
    <td width=300><img src=""static/images/keys/o.svg"" width=""35%"" height=""75%""></img></td>
  </tr>
</table>
  ",87.0,1.0,,,,,,,,,,,,,,,,,,,,,,,,,,
234,0,,html-keyboard-response,234,721902,0.0-7.17-1.17,0a7yvayyw0tj,2022-09-19 16:21:43.034,5f516d96bf6cde3b04b94b69,3,63,38,66,39,31,male,1009.099999994,,"
  <table>
  <tr height=300>
    <td width=300 height=300><img src=""static/images/cards/back_of_red_stars.svg"" width=""175px"" height=""250px""></img></td>
