,index,success,trial_type,trial_index,time_elapsed,internal_node_id,subject,date,prol_id,ctbl,sense_of_control_A,sense_of_control_B,sense_of_control_C,sense_of_control_D,age,gender,rt,url,stimulus,key_press,npress,is_data_trial,phase,trial,deck1,deck2,col1,col2,sym1,sym2,deck_l,deck_r,chosen_deck,chosen_col,chosen_sym,deck_rt,choose_choice,mutual_info,hidden_key,chosen_card,card_rt,player_num,win_card,outcome,mock_rating,response,responses
0,0,1.0,fullscreen,0,54840,0.0-0.0,pkyneri5rd,2022-09-19 17:33:51.131,5f0f2ff0762218000970c967,3,38,41,37,53,26,Female ,,,,,,,,,,,,,,,,,,,,,,,,,,,,,,,
1,0,,external-html,1,58892,0.0-1.0,pkyneri5rd,2022-09-19 17:33:51.131,5f0f2ff0762218000970c967,3,38,41,37,53,26,Female ,3418.0,static/js/sub/consent.html,,,,,,,,,,,,,,,,,,,,,,,,,,,,,
2,0,,call-function,2,58902,0.0-2.0,pkyneri5rd,2022-09-19 17:33:51.131,5f0f2ff0762218000970c967,3,38,41,37,53,26,Female ,,,,,,,,,,,,,,,,,,,,,,,,,,,,,,,
3,0,,image-keyboard-response,3,60999,0.0-3.0-0.0,pkyneri5rd,2022-09-19 17:33:51.131,5f0f2ff0762218000970c967,3,38,41,37,53,26,Female ,2095.0,,static/images/instructions_CB_3/Slide1.png,39.0,,,,,,,,,,,,,,,,,,,,,,,,,,,
4,0,,image-keyboard-response,4,63784,0.0-3.1-0.1,pkyneri5rd,2022-09-19 17:33:51.131,5f0f2ff0762218000970c967,3,38,41,37,53,26,Female ,2781.0,,static/images/instructions_CB_3/Slide2.png,39.0,,,,,,,,,,,,,,,,,,,,,,,,,,,
5,0,,image-keyboard-response,5,65384,0.0-3.2-0.2,pkyneri5rd,2022-09-19 17:33:51.131,5f0f2ff0762218000970c967,3,38,41,37,53,26,Female ,1596.0,,static/images/instructions_CB_3/Slide3.png,39.0,,,,,,,,,,,,,,,,,,,,,,,,,,,
6,0,,image-keyboard-response,6,66548,0.0-3.3-0.3,pkyneri5rd,2022-09-19 17:33:51.131,5f0f2ff0762218000970c967,3,38,41,37,53,26,Female ,1161.0,,static/images/instructions_CB_3/Slide4.png,39.0,,,,,,,,,,,,,,,,,,,,,,,,,,,
7,0,,image-keyboard-response,7,67403,0.0-3.4-0.4,pkyneri5rd,2022-09-19 17:33:51.131,5f0f2ff0762218000970c967,3,38,41,37,53,26,Female ,852.0,,static/images/instructions_CB_3/Slide5.png,39.0,,,,,,,,,,,,,,,,,,,,,,,,,,,
8,0,,image-keyboard-response,8,68173,0.0-3.5-0.5,pkyneri5rd,2022-09-19 17:33:51.131,5f0f2ff0762218000970c967,3,38,41,37,53,26,Female ,768.0,,static/images/instructions_CB_3/Slide6.png,39.0,,,,,,,,,,,,,,,,,,,,,,,,,,,
9,0,,image-keyboard-response,9,69092,0.0-3.6-0.6,pkyneri5rd,2022-09-19 17:33:51.131,5f0f2ff0762218000970c967,3,38,41,37,53,26,Female ,918.0,,static/images/instructions_CB_3/Slide7.png,39.0,,,,,,,,,,,,,,,,,,,,,,,,,,,
10,0,,image-keyboard-response,10,74344,0.0-3.7-0.7,pkyneri5rd,2022-09-19 17:33:51.131,5f0f2ff0762218000970c967,3,38,41,37,53,26,Female ,5249.0,,static/images/instructions_CB_3/Slide8.png,39.0,,,,,,,,,,,,,,,,,,,,,,,,,,,
11,0,,image-keyboard-response,11,79942,0.0-3.8-0.8,pkyneri5rd,2022-09-19 17:33:51.131,5f0f2ff0762218000970c967,3,38,41,37,53,26,Female ,5597.0,,static/images/instructions_CB_3/Slide9.png,39.0,,,,,,,,,,,,,,,,,,,,,,,,,,,
12,0,,image-keyboard-response,12,90782,0.0-3.9-0.9,pkyneri5rd,2022-09-19 17:33:51.131,5f0f2ff0762218000970c967,3,38,41,37,53,26,Female ,10837.0,,static/images/instructions_CB_3/Slide10.png,39.0,,,,,,,,,,,,,,,,,,,,,,,,,,,
13,0,,image-keyboard-response,13,91972,0.0-3.10-0.10,pkyneri5rd,2022-09-19 17:33:51.131,5f0f2ff0762218000970c967,3,38,41,37,53,26,Female ,1187.0,,static/images/instructions_CB_3/Slide11.png,39.0,,,,,,,,,,,,,,,,,,,,,,,,,,,
14,0,,image-keyboard-response,14,93607,0.0-3.11-0.11,pkyneri5rd,2022-09-19 17:33:51.131,5f0f2ff0762218000970c967,3,38,41,37,53,26,Female ,1633.0,,static/images/instructions_CB_3/Slide12.png,39.0,,,,,,,,,,,,,,,,,,,,,,,,,,,
15,0,,image-keyboard-response,15,95194,0.0-3.12-0.12,pkyneri5rd,2022-09-19 17:33:51.131,5f0f2ff0762218000970c967,3,38,41,37,53,26,Female ,1584.0,,static/images/instructions_CB_3/Slide13.png,39.0,,,,,,,,,,,,,,,,,,,,,,,,,,,
16,0,,image-keyboard-response,16,96318,0.0-3.13-0.13,pkyneri5rd,2022-09-19 17:33:51.131,5f0f2ff0762218000970c967,3,38,41,37,53,26,Female ,1121.0,,static/images/instructions_CB_3/Slide14.png,39.0,,,,,,,,,,,,,,,,,,,,,,,,,,,
17,0,,image-keyboard-response,17,97052,0.0-3.14-0.14,pkyneri5rd,2022-09-19 17:33:51.131,5f0f2ff0762218000970c967,3,38,41,37,53,26,Female ,732.0,,static/images/instructions_CB_3/Slide15.png,39.0,,,,,,,,,,,,,,,,,,,,,,,,,,,
18,0,,image-keyboard-response,18,97912,0.0-3.15-0.15,pkyneri5rd,2022-09-19 17:33:51.131,5f0f2ff0762218000970c967,3,38,41,37,53,26,Female ,858.0,,static/images/instructions_CB_3/Slide16.png,39.0,,,,,,,,,,,,,,,,,,,,,,,,,,,
19,0,,image-keyboard-response,19,99882,0.0-3.16-0.16,pkyneri5rd,2022-09-19 17:33:51.131,5f0f2ff0762218000970c967,3,38,41,37,53,26,Female ,1968.0,,static/images/instructions_CB_3/Slide17.png,39.0,,,,,,,,,,,,,,,,,,,,,,,,,,,
20,0,,image-keyboard-response,20,104093,0.0-3.17-0.17,pkyneri5rd,2022-09-19 17:33:51.131,5f0f2ff0762218000970c967,3,38,41,37,53,26,Female ,4210.0,,static/images/instructions_CB_3/Slide18.png,39.0,,,,,,,,,,,,,,,,,,,,,,,,,,,
21,0,,image-keyboard-response,21,105682,0.0-3.18-0.18,pkyneri5rd,2022-09-19 17:33:51.131,5f0f2ff0762218000970c967,3,38,41,37,53,26,Female ,1587.0,,static/images/instructions_CB_3/Slide19.png,39.0,,,,,,,,,,,,,,,,,,,,,,,,,,,
22,0,,html-keyboard-response,22,107189,0.0-4.0-0.0,pkyneri5rd,2022-09-19 17:33:51.131,5f0f2ff0762218000970c967,3,38,41,37,53,26,Female ,,,"<img src=""static/images/cards/stack_of_black_moons.svg"" width=""175px"" height=""250px""></img>",,,,,,,,,,,,,,,,,,,,,,,,,,,,
23,0,,html-keyboard-response,23,108803,0.0-4.0-1.0,pkyneri5rd,2022-09-19 17:33:51.131,5f0f2ff0762218000970c967,3,38,41,37,53,26,Female ,1107.0,,"
  <table>
  <tr height=300>
    <td width=300 height=300><img src=""static/images/cards/back_of_black_moons.svg"" width=""175px"" height=""250px""></img></td>
    <td width=300 height=300><img src=""static/images/cards/back_of_black_moons.svg"" width=""175px"" height=""250px""></img></td>
  </tr>
  <tr height=200>
    <td width=300><img src=""static/images/keys/z.svg"" width=""35%"" height=""75%""></img></td>
    <td width=300><img src=""static/images/keys/m.svg"" width=""35%"" height=""75%""></img></td>
  </tr>
</table>
  ",90.0,1.0,,,,,,,,,,,,,,,,,,,,,,,,,,
24,0,,html-keyboard-response,24,110307,0.0-4.0-2.0,pkyneri5rd,2022-09-19 17:33:51.131,5f0f2ff0762218000970c967,3,38,41,37,53,26,Female ,,,"
  <table>
  <tr height=300>
    <td width=300 height=300><img src=""static/images/cards/6_of_black_moons.svg"" width=""175px"" height=""250px""></img></td>
    <td width=300 height=300><img src=""static/images/cards/back_of_black_moons.svg"" width=""175px"" height=""250px""></img></td>
  </tr>
  <tr height=200>
    <td width=300><img src=""static/images/keys/z.svg"" width=""35%"" height=""75%""></img></td>
    <td width=300><img src=""static/images/keys/m.svg"" width=""35%"" height=""75%""></img></td>
  </tr>
</table>
  ",,,,,,,,,,,,,,,,,,,,,,,,,,,,
25,0,,html-keyboard-response,25,111810,0.0-4.0-3.0,pkyneri5rd,2022-09-19 17:33:51.131,5f0f2ff0762218000970c967,3,38,41,37,53,26,Female ,,,"<p style=""font-size:50px"">You win!
+10 points this round!</p>",,,,,,,,,,,,,,,,,,,,,,,,,,,,
26,0,,html-keyboard-response,26,112313,0.0-4.0-4.0,pkyneri5rd,2022-09-19 17:33:51.131,5f0f2ff0762218000970c967,3,38,41,37,53,26,Female ,,,,,,1.0,learning,0.0,A,,black,,moons,,,,A,black,moons,,1.0,1.0,NA,left,1107.0,6.0,1.0,1.0,,,
27,0,,html-keyboard-response,27,113815,0.0-4.1-0.1,pkyneri5rd,2022-09-19 17:33:51.131,5f0f2ff0762218000970c967,3,38,41,37,53,26,Female ,,,"<img src=""static/images/cards/stack_of_red_moons.svg"" width=""175px"" height=""250px""></img>",,,,,,,,,,,,,,,,,,,,,,,,,,,,
28,0,,html-keyboard-response,28,115592,0.0-4.1-1.1,pkyneri5rd,2022-09-19 17:33:51.131,5f0f2ff0762218000970c967,3,38,41,37,53,26,Female ,1274.0,,"
  <table>
  <tr height=300>
    <td width=300 height=300><img src=""static/images/cards/back_of_red_moons.svg"" width=""175px"" height=""250px""></img></td>
    <td width=300 height=300><img src=""static/images/cards/back_of_red_moons.svg"" width=""175px"" height=""250px""></img></td>
  </tr>
  <tr height=200>
    <td width=300></td>
    <td width=300><img src=""static/images/keys/m.svg"" width=""35%"" height=""75%""></img></td>
  </tr>
</table>
  ",77.0,1.0,,,,,,,,,,,,,,,,,,,,,,,,,,
29,0,,html-keyboard-response,29,117094,0.0-4.1-2.1,pkyneri5rd,2022-09-19 17:33:51.131,5f0f2ff0762218000970c967,3,38,41,37,53,26,Female ,,,"
  <table>
  <tr height=300>
    <td width=300 height=300><img src=""static/images/cards/back_of_red_moons.svg"" width=""175px"" height=""250px""></img></td>
    <td width=300 height=300><img src=""static/images/cards/8_of_red_moons.svg"" width=""175px"" height=""250px""></img></td>
  </tr>
  <tr height=200>
    <td width=300></td>
    <td width=300><img src=""static/images/keys/m.svg"" width=""35%"" height=""75%""></img></td>
  </tr>
</table>
  ",,,,,,,,,,,,,,,,,,,,,,,,,,,,
30,0,,html-keyboard-response,30,118596,0.0-4.1-3.1,pkyneri5rd,2022-09-19 17:33:51.131,5f0f2ff0762218000970c967,3,38,41,37,53,26,Female ,,,"<p style=""font-size:50px"">You win!
+10 points this round!</p>",,,,,,,,,,,,,,,,,,,,,,,,,,,,
31,0,,html-keyboard-response,31,119097,0.0-4.1-4.1,pkyneri5rd,2022-09-19 17:33:51.131,5f0f2ff0762218000970c967,3,38,41,37,53,26,Female ,,,,,,1.0,learning,1.0,B,,red,,moons,,,,B,red,moons,,0.0,1.0,0,right,1274.0,8.0,1.0,1.0,,,
32,0,,html-keyboard-response,32,120599,0.0-4.2-0.2,pkyneri5rd,2022-09-19 17:33:51.131,5f0f2ff0762218000970c967,3,38,41,37,53,26,Female ,,,"<img src=""static/images/cards/stack_of_black_stars.svg"" width=""175px"" height=""250px""></img>",,,,,,,,,,,,,,,,,,,,,,,,,,,,
33,0,,html-keyboard-response,33,122022,0.0-4.2-1.2,pkyneri5rd,2022-09-19 17:33:51.131,5f0f2ff0762218000970c967,3,38,41,37,53,26,Female ,920.0,,"
  <table>
  <tr height=300>
    <td width=300 height=300><img src=""static/images/cards/back_of_black_stars.svg"" width=""175px"" height=""250px""></img></td>
    <td width=300 height=300><img src=""static/images/cards/back_of_black_stars.svg"" width=""175px"" height=""250px""></img></td>
  </tr>
  <tr height=200>
    <td width=300><img src=""static/images/keys/z.svg"" width=""35%"" height=""75%""></img></td>
    <td width=300><img src=""static/images/keys/m.svg"" width=""35%"" height=""75%""></img></td>
  </tr>
</table>
  ",90.0,1.0,,,,,,,,,,,,,,,,,,,,,,,,,,
34,0,,html-keyboard-response,34,123525,0.0-4.2-2.2,pkyneri5rd,2022-09-19 17:33:51.131,5f0f2ff0762218000970c967,3,38,41,37,53,26,Female ,,,"
  <table>
  <tr height=300>
    <td width=300 height=300><img src=""static/images/cards/4_of_black_stars.svg"" width=""175px"" height=""250px""></img></td>
    <td width=300 height=300><img src=""static/images/cards/back_of_black_stars.svg"" width=""175px"" height=""250px""></img></td>
  </tr>
  <tr height=200>
    <td width=300><img src=""static/images/keys/z.svg"" width=""35%"" height=""75%""></img></td>
    <td width=300><img src=""static/images/keys/m.svg"" width=""35%"" height=""75%""></img></td>
  </tr>
</table>
  ",,,,,,,,,,,,,,,,,,,,,,,,,,,,
35,0,,html-keyboard-response,35,125027,0.0-4.2-3.2,pkyneri5rd,2022-09-19 17:33:51.131,5f0f2ff0762218000970c967,3,38,41,37,53,26,Female ,,,"<p style=""font-size:50px"">You win!
+10 points this round!</p>",,,,,,,,,,,,,,,,,,,,,,,,,,,,
36,0,,html-keyboard-response,36,125529,0.0-4.2-4.2,pkyneri5rd,2022-09-19 17:33:51.131,5f0f2ff0762218000970c967,3,38,41,37,53,26,Female ,,,,,,1.0,learning,2.0,C,,black,,stars,,,,C,black,stars,,1.0,0.0,NA,left,920.0,4.0,0.0,1.0,,,
37,0,,html-keyboard-response,37,127031,0.0-4.3-0.3,pkyneri5rd,2022-09-19 17:33:51.131,5f0f2ff0762218000970c967,3,38,41,37,53,26,Female ,,,"<img src=""static/images/cards/stack_of_red_stars.svg"" width=""175px"" height=""250px""></img>",,,,,,,,,,,,,,,,,,,,,,,,,,,,
38,0,,html-keyboard-response,38,128063,0.0-4.3-1.3,pkyneri5rd,2022-09-19 17:33:51.131,5f0f2ff0762218000970c967,3,38,41,37,53,26,Female ,529.0,,"
  <table>
  <tr height=300>
    <td width=300 height=300><img src=""static/images/cards/back_of_red_stars.svg"" width=""175px"" height=""250px""></img></td>
    <td width=300 height=300><img src=""static/images/cards/back_of_red_stars.svg"" width=""175px"" height=""250px""></img></td>
  </tr>
  <tr height=200>
    <td width=300><img src=""static/images/keys/z.svg"" width=""35%"" height=""75%""></img></td>
    <td width=300></td>
  </tr>
</table>
  ",90.0,1.0,,,,,,,,,,,,,,,,,,,,,,,,,,
39,0,,html-keyboard-response,39,129565,0.0-4.3-2.3,pkyneri5rd,2022-09-19 17:33:51.131,5f0f2ff0762218000970c967,3,38,41,37,53,26,Female ,,,"
  <table>
  <tr height=300>
    <td width=300 height=300><img src=""static/images/cards/6_of_red_stars.svg"" width=""175px"" height=""250px""></img></td>
    <td width=300 height=300><img src=""static/images/cards/back_of_red_stars.svg"" width=""175px"" height=""250px""></img></td>
  </tr>
  <tr height=200>
    <td width=300><img src=""static/images/keys/z.svg"" width=""35%"" height=""75%""></img></td>
    <td width=300></td>
  </tr>
</table>
  ",,,,,,,,,,,,,,,,,,,,,,,,,,,,
40,0,,html-keyboard-response,40,131067,0.0-4.3-3.3,pkyneri5rd,2022-09-19 17:33:51.131,5f0f2ff0762218000970c967,3,38,41,37,53,26,Female ,,,"<p style=""font-size:50px"">You Lose!
No points this round.</p>",,,,,,,,,,,,,,,,,,,,,,,,,,,,
41,0,,html-keyboard-response,41,131569,0.0-4.3-4.3,pkyneri5rd,2022-09-19 17:33:51.131,5f0f2ff0762218000970c967,3,38,41,37,53,26,Female ,,,,,,1.0,learning,3.0,D,,red,,stars,,,,D,red,stars,,0.0,0.0,1,left,529.0,6.0,1.0,0.0,,,
42,0,,html-keyboard-response,42,133073,0.0-4.4-0.4,pkyneri5rd,2022-09-19 17:33:51.131,5f0f2ff0762218000970c967,3,38,41,37,53,26,Female ,,,"<img src=""static/images/cards/stack_of_red_bolts.svg"" width=""175px"" height=""250px""></img>",,,,,,,,,,,,,,,,,,,,,,,,,,,,
43,0,,html-keyboard-response,43,134459,0.0-4.4-1.4,pkyneri5rd,2022-09-19 17:33:51.131,5f0f2ff0762218000970c967,3,38,41,37,53,26,Female ,881.0,,"
  <table>
  <tr height=300>
    <td width=300 height=300><img src=""static/images/cards/back_of_red_bolts.svg"" width=""175px"" height=""250px""></img></td>
    <td width=300 height=300><img src=""static/images/cards/back_of_red_bolts.svg"" width=""175px"" height=""250px""></img></td>
  </tr>
  <tr height=200>
    <td width=300><img src=""static/images/keys/z.svg"" width=""35%"" height=""75%""></img></td>
    <td width=300><img src=""static/images/keys/m.svg"" width=""35%"" height=""75%""></img></td>
  </tr>
</table>
  ",77.0,1.0,,,,,,,,,,,,,,,,,,,,,,,,,,
44,0,,html-keyboard-response,44,135968,0.0-4.4-2.4,pkyneri5rd,2022-09-19 17:33:51.131,5f0f2ff0762218000970c967,3,38,41,37,53,26,Female ,,,"
  <table>
  <tr height=300>
    <td width=300 height=300><img src=""static/images/cards/back_of_red_bolts.svg"" width=""175px"" height=""250px""></img></td>
    <td width=300 height=300><img src=""static/images/cards/9_of_red_bolts.svg"" width=""175px"" height=""250px""></img></td>
  </tr>
  <tr height=200>
    <td width=300><img src=""static/images/keys/z.svg"" width=""35%"" height=""75%""></img></td>
    <td width=300><img src=""static/images/keys/m.svg"" width=""35%"" height=""75%""></img></td>
  </tr>
</table>
  ",,,,,,,,,,,,,,,,,,,,,,,,,,,,
45,0,,html-keyboard-response,45,137472,0.0-4.4-3.4,pkyneri5rd,2022-09-19 17:33:51.131,5f0f2ff0762218000970c967,3,38,41,37,53,26,Female ,,,"<p style=""font-size:50px"">You win!
+10 points this round!</p>",,,,,,,,,,,,,,,,,,,,,,,,,,,,
46,0,,html-keyboard-response,46,137975,0.0-4.4-4.4,pkyneri5rd,2022-09-19 17:33:51.131,5f0f2ff0762218000970c967,3,38,41,37,53,26,Female ,,,,,,1.0,learning,4.0,Xc,,red,,bolts,,,,Xc,red,bolts,,1.0,0.0,NA,right,881.0,9.0,1.0,1.0,,,
47,0,,html-keyboard-response,47,139480,0.0-4.5-0.5,pkyneri5rd,2022-09-19 17:33:51.131,5f0f2ff0762218000970c967,3,38,41,37,53,26,Female ,,,"<img src=""static/images/cards/stack_of_black_bolts.svg"" width=""175px"" height=""250px""></img>",,,,,,,,,,,,,,,,,,,,,,,,,,,,
48,0,,html-keyboard-response,48,140945,0.0-4.5-1.5,pkyneri5rd,2022-09-19 17:33:51.131,5f0f2ff0762218000970c967,3,38,41,37,53,26,Female ,959.0,,"
  <table>
  <tr height=300>
    <td width=300 height=300><img src=""static/images/cards/back_of_black_bolts.svg"" width=""175px"" height=""250px""></img></td>
    <td width=300 height=300><img src=""static/images/cards/back_of_black_bolts.svg"" width=""175px"" height=""250px""></img></td>
  </tr>
  <tr height=200>
    <td width=300></td>
    <td width=300><img src=""static/images/keys/m.svg"" width=""35%"" height=""75%""></img></td>
  </tr>
</table>
  ",77.0,1.0,,,,,,,,,,,,,,,,,,,,,,,,,,
49,0,,html-keyboard-response,49,142450,0.0-4.5-2.5,pkyneri5rd,2022-09-19 17:33:51.131,5f0f2ff0762218000970c967,3,38,41,37,53,26,Female ,,,"
  <table>
  <tr height=300>
    <td width=300 height=300><img src=""static/images/cards/back_of_black_bolts.svg"" width=""175px"" height=""250px""></img></td>
    <td width=300 height=300><img src=""static/images/cards/1_of_black_bolts.svg"" width=""175px"" height=""250px""></img></td>
  </tr>
  <tr height=200>
    <td width=300></td>
    <td width=300><img src=""static/images/keys/m.svg"" width=""35%"" height=""75%""></img></td>
  </tr>
</table>
  ",,,,,,,,,,,,,,,,,,,,,,,,,,,,
50,0,,html-keyboard-response,50,143953,0.0-4.5-3.5,pkyneri5rd,2022-09-19 17:33:51.131,5f0f2ff0762218000970c967,3,38,41,37,53,26,Female ,,,"<p style=""font-size:50px"">You win!
+10 points this round!</p>",,,,,,,,,,,,,,,,,,,,,,,,,,,,
51,0,,html-keyboard-response,51,144455,0.0-4.5-4.5,pkyneri5rd,2022-09-19 17:33:51.131,5f0f2ff0762218000970c967,3,38,41,37,53,26,Female ,,,,,,1.0,learning,5.0,Xnc,,black,,bolts,,,,Xnc,black,bolts,,0.0,0.0,0,right,959.0,1.0,0.0,1.0,,,
52,0,,html-keyboard-response,52,145957,0.0-4.6-0.6,pkyneri5rd,2022-09-19 17:33:51.131,5f0f2ff0762218000970c967,3,38,41,37,53,26,Female ,,,"<img src=""static/images/cards/stack_of_black_moons.svg"" width=""175px"" height=""250px""></img>",,,,,,,,,,,,,,,,,,,,,,,,,,,,
53,0,,html-keyboard-response,53,147218,0.0-4.6-1.6,pkyneri5rd,2022-09-19 17:33:51.131,5f0f2ff0762218000970c967,3,38,41,37,53,26,Female ,756.0,,"
  <table>
  <tr height=300>
    <td width=300 height=300><img src=""static/images/cards/back_of_black_moons.svg"" width=""175px"" height=""250px""></img></td>
    <td width=300 height=300><img src=""static/images/cards/back_of_black_moons.svg"" width=""175px"" height=""250px""></img></td>
  </tr>
  <tr height=200>
    <td width=300><img src=""static/images/keys/z.svg"" width=""35%"" height=""75%""></img></td>
    <td width=300><img src=""static/images/keys/m.svg"" width=""35%"" height=""75%""></img></td>
  </tr>
</table>
  ",90.0,1.0,,,,,,,,,,,,,,,,,,,,,,,,,,
54,0,,html-keyboard-response,54,148723,0.0-4.6-2.6,pkyneri5rd,2022-09-19 17:33:51.131,5f0f2ff0762218000970c967,3,38,41,37,53,26,Female ,,,"
  <table>
  <tr height=300>
    <td width=300 height=300><img src=""static/images/cards/3_of_black_moons.svg"" width=""175px"" height=""250px""></img></td>
    <td width=300 height=300><img src=""static/images/cards/back_of_black_moons.svg"" width=""175px"" height=""250px""></img></td>
  </tr>
  <tr height=200>
    <td width=300><img src=""static/images/keys/z.svg"" width=""35%"" height=""75%""></img></td>
    <td width=300><img src=""static/images/keys/m.svg"" width=""35%"" height=""75%""></img></td>
  </tr>
</table>
  ",,,,,,,,,,,,,,,,,,,,,,,,,,,,
55,0,,html-keyboard-response,55,150226,0.0-4.6-3.6,pkyneri5rd,2022-09-19 17:33:51.131,5f0f2ff0762218000970c967,3,38,41,37,53,26,Female ,,,"<p style=""font-size:50px"">You Lose!
No points this round.</p>",,,,,,,,,,,,,,,,,,,,,,,,,,,,
56,0,,html-keyboard-response,56,150726,0.0-4.6-4.6,pkyneri5rd,2022-09-19 17:33:51.131,5f0f2ff0762218000970c967,3,38,41,37,53,26,Female ,,,,,,1.0,learning,6.0,A,,black,,moons,,,,A,black,moons,,1.0,1.0,NA,left,756.0,3.0,0.0,0.0,,,
57,0,,html-keyboard-response,57,152227,0.0-4.7-0.7,pkyneri5rd,2022-09-19 17:33:51.131,5f0f2ff0762218000970c967,3,38,41,37,53,26,Female ,,,"<img src=""static/images/cards/stack_of_red_moons.svg"" width=""175px"" height=""250px""></img>",,,,,,,,,,,,,,,,,,,,,,,,,,,,
58,0,,html-keyboard-response,58,153261,0.0-4.7-1.7,pkyneri5rd,2022-09-19 17:33:51.131,5f0f2ff0762218000970c967,3,38,41,37,53,26,Female ,531.0,,"
  <table>
  <tr height=300>
    <td width=300 height=300><img src=""static/images/cards/back_of_red_moons.svg"" width=""175px"" height=""250px""></img></td>
    <td width=300 height=300><img src=""static/images/cards/back_of_red_moons.svg"" width=""175px"" height=""250px""></img></td>
  </tr>
  <tr height=200>
    <td width=300><img src=""static/images/keys/z.svg"" width=""35%"" height=""75%""></img></td>
    <td width=300></td>
  </tr>
</table>
  ",90.0,1.0,,,,,,,,,,,,,,,,,,,,,,,,,,
59,0,,html-keyboard-response,59,154766,0.0-4.7-2.7,pkyneri5rd,2022-09-19 17:33:51.131,5f0f2ff0762218000970c967,3,38,41,37,53,26,Female ,,,"
  <table>
  <tr height=300>
    <td width=300 height=300><img src=""static/images/cards/4_of_red_moons.svg"" width=""175px"" height=""250px""></img></td>
    <td width=300 height=300><img src=""static/images/cards/back_of_red_moons.svg"" width=""175px"" height=""250px""></img></td>
  </tr>
  <tr height=200>
    <td width=300><img src=""static/images/keys/z.svg"" width=""35%"" height=""75%""></img></td>
    <td width=300></td>
  </tr>
</table>
  ",,,,,,,,,,,,,,,,,,,,,,,,,,,,
60,0,,html-keyboard-response,60,156269,0.0-4.7-3.7,pkyneri5rd,2022-09-19 17:33:51.131,5f0f2ff0762218000970c967,3,38,41,37,53,26,Female ,,,"<p style=""font-size:50px"">You Lose!
No points this round.</p>",,,,,,,,,,,,,,,,,,,,,,,,,,,,
61,0,,html-keyboard-response,61,156770,0.0-4.7-4.7,pkyneri5rd,2022-09-19 17:33:51.131,5f0f2ff0762218000970c967,3,38,41,37,53,26,Female ,,,,,,1.0,learning,7.0,B,,red,,moons,,,,B,red,moons,,0.0,1.0,1,left,531.0,4.0,0.0,0.0,,,
62,0,,html-keyboard-response,62,158272,0.0-4.8-0.8,pkyneri5rd,2022-09-19 17:33:51.131,5f0f2ff0762218000970c967,3,38,41,37,53,26,Female ,,,"<img src=""static/images/cards/stack_of_black_stars.svg"" width=""175px"" height=""250px""></img>",,,,,,,,,,,,,,,,,,,,,,,,,,,,
63,0,,html-keyboard-response,63,159554,0.0-4.8-1.8,pkyneri5rd,2022-09-19 17:33:51.131,5f0f2ff0762218000970c967,3,38,41,37,53,26,Female ,780.0,,"
  <table>
  <tr height=300>
    <td width=300 height=300><img src=""static/images/cards/back_of_black_stars.svg"" width=""175px"" height=""250px""></img></td>
    <td width=300 height=300><img src=""static/images/cards/back_of_black_stars.svg"" width=""175px"" height=""250px""></img></td>
  </tr>
  <tr height=200>
    <td width=300><img src=""static/images/keys/z.svg"" width=""35%"" height=""75%""></img></td>
    <td width=300><img src=""static/images/keys/m.svg"" width=""35%"" height=""75%""></img></td>
  </tr>
</table>
  ",77.0,1.0,,,,,,,,,,,,,,,,,,,,,,,,,,
64,0,,html-keyboard-response,64,161057,0.0-4.8-2.8,pkyneri5rd,2022-09-19 17:33:51.131,5f0f2ff0762218000970c967,3,38,41,37,53,26,Female ,,,"
  <table>
  <tr height=300>
    <td width=300 height=300><img src=""static/images/cards/back_of_black_stars.svg"" width=""175px"" height=""250px""></img></td>
    <td width=300 height=300><img src=""static/images/cards/8_of_black_stars.svg"" width=""175px"" height=""250px""></img></td>
  </tr>
  <tr height=200>
    <td width=300><img src=""static/images/keys/z.svg"" width=""35%"" height=""75%""></img></td>
    <td width=300><img src=""static/images/keys/m.svg"" width=""35%"" height=""75%""></img></td>
  </tr>
</table>
  ",,,,,,,,,,,,,,,,,,,,,,,,,,,,
65,0,,html-keyboard-response,65,162561,0.0-4.8-3.8,pkyneri5rd,2022-09-19 17:33:51.131,5f0f2ff0762218000970c967,3,38,41,37,53,26,Female ,,,"<p style=""font-size:50px"">You Lose!
No points this round.</p>",,,,,,,,,,,,,,,,,,,,,,,,,,,,
66,0,,html-keyboard-response,66,163062,0.0-4.8-4.8,pkyneri5rd,2022-09-19 17:33:51.131,5f0f2ff0762218000970c967,3,38,41,37,53,26,Female ,,,,,,1.0,learning,8.0,C,,black,,stars,,,,C,black,stars,,1.0,0.0,NA,right,780.0,8.0,1.0,0.0,,,
67,0,,html-keyboard-response,67,164564,0.0-4.9-0.9,pkyneri5rd,2022-09-19 17:33:51.131,5f0f2ff0762218000970c967,3,38,41,37,53,26,Female ,,,"<img src=""static/images/cards/stack_of_red_stars.svg"" width=""175px"" height=""250px""></img>",,,,,,,,,,,,,,,,,,,,,,,,,,,,
68,0,,html-keyboard-response,68,165892,0.0-4.9-1.9,pkyneri5rd,2022-09-19 17:33:51.131,5f0f2ff0762218000970c967,3,38,41,37,53,26,Female ,826.0,,"
  <table>
  <tr height=300>
    <td width=300 height=300><img src=""static/images/cards/back_of_red_stars.svg"" width=""175px"" height=""250px""></img></td>
    <td width=300 height=300><img src=""static/images/cards/back_of_red_stars.svg"" width=""175px"" height=""250px""></img></td>
  </tr>
  <tr height=200>
    <td width=300></td>
    <td width=300><img src=""static/images/keys/m.svg"" width=""35%"" height=""75%""></img></td>
  </tr>
</table>
  ",77.0,1.0,,,,,,,,,,,,,,,,,,,,,,,,,,
69,0,,html-keyboard-response,69,167395,0.0-4.9-2.9,pkyneri5rd,2022-09-19 17:33:51.131,5f0f2ff0762218000970c967,3,38,41,37,53,26,Female ,,,"
  <table>
  <tr height=300>
    <td width=300 height=300><img src=""static/images/cards/back_of_red_stars.svg"" width=""175px"" height=""250px""></img></td>
    <td width=300 height=300><img src=""static/images/cards/9_of_red_stars.svg"" width=""175px"" height=""250px""></img></td>
  </tr>
  <tr height=200>
    <td width=300></td>
    <td width=300><img src=""static/images/keys/m.svg"" width=""35%"" height=""75%""></img></td>
  </tr>
</table>
  ",,,,,,,,,,,,,,,,,,,,,,,,,,,,
70,0,,html-keyboard-response,70,168897,0.0-4.9-3.9,pkyneri5rd,2022-09-19 17:33:51.131,5f0f2ff0762218000970c967,3,38,41,37,53,26,Female ,,,"<p style=""font-size:50px"">You win!
+10 points this round!</p>",,,,,,,,,,,,,,,,,,,,,,,,,,,,
71,0,,html-keyboard-response,71,169399,0.0-4.9-4.9,pkyneri5rd,2022-09-19 17:33:51.131,5f0f2ff0762218000970c967,3,38,41,37,53,26,Female ,,,,,,1.0,learning,9.0,D,,red,,stars,,,,D,red,stars,,0.0,0.0,0,right,826.0,9.0,1.0,1.0,,,
72,0,,html-keyboard-response,72,170902,0.0-4.10-0.10,pkyneri5rd,2022-09-19 17:33:51.131,5f0f2ff0762218000970c967,3,38,41,37,53,26,Female ,,,"<img src=""static/images/cards/stack_of_red_bolts.svg"" width=""175px"" height=""250px""></img>",,,,,,,,,,,,,,,,,,,,,,,,,,,,
73,0,,html-keyboard-response,73,172393,0.0-4.10-1.10,pkyneri5rd,2022-09-19 17:33:51.131,5f0f2ff0762218000970c967,3,38,41,37,53,26,Female ,985.0,,"
  <table>
  <tr height=300>
    <td width=300 height=300><img src=""static/images/cards/back_of_red_bolts.svg"" width=""175px"" height=""250px""></img></td>
    <td width=300 height=300><img src=""static/images/cards/back_of_red_bolts.svg"" width=""175px"" height=""250px""></img></td>
  </tr>
  <tr height=200>
    <td width=300><img src=""static/images/keys/z.svg"" width=""35%"" height=""75%""></img></td>
    <td width=300><img src=""static/images/keys/m.svg"" width=""35%"" height=""75%""></img></td>
  </tr>
</table>
  ",77.0,1.0,,,,,,,,,,,,,,,,,,,,,,,,,,
74,0,,html-keyboard-response,74,173896,0.0-4.10-2.10,pkyneri5rd,2022-09-19 17:33:51.131,5f0f2ff0762218000970c967,3,38,41,37,53,26,Female ,,,"
  <table>
  <tr height=300>
    <td width=300 height=300><img src=""static/images/cards/back_of_red_bolts.svg"" width=""175px"" height=""250px""></img></td>
    <td width=300 height=300><img src=""static/images/cards/4_of_red_bolts.svg"" width=""175px"" height=""250px""></img></td>
  </tr>
  <tr height=200>
    <td width=300><img src=""static/images/keys/z.svg"" width=""35%"" height=""75%""></img></td>
    <td width=300><img src=""static/images/keys/m.svg"" width=""35%"" height=""75%""></img></td>
  </tr>
</table>
  ",,,,,,,,,,,,,,,,,,,,,,,,,,,,
75,0,,html-keyboard-response,75,175399,0.0-4.10-3.10,pkyneri5rd,2022-09-19 17:33:51.131,5f0f2ff0762218000970c967,3,38,41,37,53,26,Female ,,,"<p style=""font-size:50px"">You win!
+10 points this round!</p>",,,,,,,,,,,,,,,,,,,,,,,,,,,,
76,0,,html-keyboard-response,76,175901,0.0-4.10-4.10,pkyneri5rd,2022-09-19 17:33:51.131,5f0f2ff0762218000970c967,3,38,41,37,53,26,Female ,,,,,,1.0,learning,10.0,Xc,,red,,bolts,,,,Xc,red,bolts,,1.0,0.0,NA,right,985.0,4.0,0.0,1.0,,,
77,0,,html-keyboard-response,77,177403,0.0-4.11-0.11,pkyneri5rd,2022-09-19 17:33:51.131,5f0f2ff0762218000970c967,3,38,41,37,53,26,Female ,,,"<img src=""static/images/cards/stack_of_black_bolts.svg"" width=""175px"" height=""250px""></img>",,,,,,,,,,,,,,,,,,,,,,,,,,,,
78,0,,html-keyboard-response,78,178283,0.0-4.11-1.11,pkyneri5rd,2022-09-19 17:33:51.131,5f0f2ff0762218000970c967,3,38,41,37,53,26,Female ,378.0,,"
  <table>
  <tr height=300>
    <td width=300 height=300><img src=""static/images/cards/back_of_black_bolts.svg"" width=""175px"" height=""250px""></img></td>
    <td width=300 height=300><img src=""static/images/cards/back_of_black_bolts.svg"" width=""175px"" height=""250px""></img></td>
  </tr>
  <tr height=200>
    <td width=300><img src=""static/images/keys/z.svg"" width=""35%"" height=""75%""></img></td>
    <td width=300></td>
  </tr>
</table>
  ",90.0,1.0,,,,,,,,,,,,,,,,,,,,,,,,,,
79,0,,html-keyboard-response,79,179785,0.0-4.11-2.11,pkyneri5rd,2022-09-19 17:33:51.131,5f0f2ff0762218000970c967,3,38,41,37,53,26,Female ,,,"
  <table>
  <tr height=300>
    <td width=300 height=300><img src=""static/images/cards/9_of_black_bolts.svg"" width=""175px"" height=""250px""></img></td>
    <td width=300 height=300><img src=""static/images/cards/back_of_black_bolts.svg"" width=""175px"" height=""250px""></img></td>
  </tr>
  <tr height=200>
    <td width=300><img src=""static/images/keys/z.svg"" width=""35%"" height=""75%""></img></td>
    <td width=300></td>
  </tr>
</table>
  ",,,,,,,,,,,,,,,,,,,,,,,,,,,,
80,0,,html-keyboard-response,80,181287,0.0-4.11-3.11,pkyneri5rd,2022-09-19 17:33:51.131,5f0f2ff0762218000970c967,3,38,41,37,53,26,Female ,,,"<p style=""font-size:50px"">You win!
+10 points this round!</p>",,,,,,,,,,,,,,,,,,,,,,,,,,,,
81,0,,html-keyboard-response,81,181788,0.0-4.11-4.11,pkyneri5rd,2022-09-19 17:33:51.131,5f0f2ff0762218000970c967,3,38,41,37,53,26,Female ,,,,,,1.0,learning,11.0,Xnc,,black,,bolts,,,,Xnc,black,bolts,,0.0,0.0,1,left,378.0,9.0,1.0,1.0,,,
82,0,,html-keyboard-response,82,183290,0.0-4.12-0.12,pkyneri5rd,2022-09-19 17:33:51.131,5f0f2ff0762218000970c967,3,38,41,37,53,26,Female ,,,"<img src=""static/images/cards/stack_of_black_moons.svg"" width=""175px"" height=""250px""></img>",,,,,,,,,,,,,,,,,,,,,,,,,,,,
83,0,,html-keyboard-response,83,184282,0.0-4.12-1.12,pkyneri5rd,2022-09-19 17:33:51.131,5f0f2ff0762218000970c967,3,38,41,37,53,26,Female ,491.0,,"
  <table>
  <tr height=300>
    <td width=300 height=300><img src=""static/images/cards/back_of_black_moons.svg"" width=""175px"" height=""250px""></img></td>
    <td width=300 height=300><img src=""static/images/cards/back_of_black_moons.svg"" width=""175px"" height=""250px""></img></td>
  </tr>
  <tr height=200>
    <td width=300><img src=""static/images/keys/z.svg"" width=""35%"" height=""75%""></img></td>
    <td width=300><img src=""static/images/keys/m.svg"" width=""35%"" height=""75%""></img></td>
  </tr>
</table>
  ",90.0,1.0,,,,,,,,,,,,,,,,,,,,,,,,,,
84,0,,html-keyboard-response,84,185786,0.0-4.12-2.12,pkyneri5rd,2022-09-19 17:33:51.131,5f0f2ff0762218000970c967,3,38,41,37,53,26,Female ,,,"
  <table>
  <tr height=300>
    <td width=300 height=300><img src=""static/images/cards/10_of_black_moons.svg"" width=""175px"" height=""250px""></img></td>
    <td width=300 height=300><img src=""static/images/cards/back_of_black_moons.svg"" width=""175px"" height=""250px""></img></td>
  </tr>
  <tr height=200>
    <td width=300><img src=""static/images/keys/z.svg"" width=""35%"" height=""75%""></img></td>
    <td width=300><img src=""static/images/keys/m.svg"" width=""35%"" height=""75%""></img></td>
  </tr>
</table>
  ",,,,,,,,,,,,,,,,,,,,,,,,,,,,
85,0,,html-keyboard-response,85,187289,0.0-4.12-3.12,pkyneri5rd,2022-09-19 17:33:51.131,5f0f2ff0762218000970c967,3,38,41,37,53,26,Female ,,,"<p style=""font-size:50px"">You win!
+10 points this round!</p>",,,,,,,,,,,,,,,,,,,,,,,,,,,,
86,0,,html-keyboard-response,86,187790,0.0-4.12-4.12,pkyneri5rd,2022-09-19 17:33:51.131,5f0f2ff0762218000970c967,3,38,41,37,53,26,Female ,,,,,,1.0,learning,12.0,A,,black,,moons,,,,A,black,moons,,1.0,1.0,NA,left,491.0,10.0,1.0,1.0,,,
87,0,,html-keyboard-response,87,189292,0.0-4.13-0.13,pkyneri5rd,2022-09-19 17:33:51.131,5f0f2ff0762218000970c967,3,38,41,37,53,26,Female ,,,"<img src=""static/images/cards/stack_of_red_moons.svg"" width=""175px"" height=""250px""></img>",,,,,,,,,,,,,,,,,,,,,,,,,,,,
88,0,,html-keyboard-response,88,190165,0.0-4.13-1.13,pkyneri5rd,2022-09-19 17:33:51.131,5f0f2ff0762218000970c967,3,38,41,37,53,26,Female ,370.0,,"
  <table>
  <tr height=300>
    <td width=300 height=300><img src=""static/images/cards/back_of_red_moons.svg"" width=""175px"" height=""250px""></img></td>
    <td width=300 height=300><img src=""static/images/cards/back_of_red_moons.svg"" width=""175px"" height=""250px""></img></td>
  </tr>
  <tr height=200>
    <td width=300><img src=""static/images/keys/z.svg"" width=""35%"" height=""75%""></img></td>
    <td width=300></td>
  </tr>
</table>
  ",90.0,1.0,,,,,,,,,,,,,,,,,,,,,,,,,,
89,0,,html-keyboard-response,89,191667,0.0-4.13-2.13,pkyneri5rd,2022-09-19 17:33:51.131,5f0f2ff0762218000970c967,3,38,41,37,53,26,Female ,,,"
  <table>
  <tr height=300>
    <td width=300 height=300><img src=""static/images/cards/10_of_red_moons.svg"" width=""175px"" height=""250px""></img></td>
    <td width=300 height=300><img src=""static/images/cards/back_of_red_moons.svg"" width=""175px"" height=""250px""></img></td>
  </tr>
  <tr height=200>
    <td width=300><img src=""static/images/keys/z.svg"" width=""35%"" height=""75%""></img></td>
    <td width=300></td>
  </tr>
</table>
  ",,,,,,,,,,,,,,,,,,,,,,,,,,,,
90,0,,html-keyboard-response,90,193170,0.0-4.13-3.13,pkyneri5rd,2022-09-19 17:33:51.131,5f0f2ff0762218000970c967,3,38,41,37,53,26,Female ,,,"<p style=""font-size:50px"">You win!
+10 points this round!</p>",,,,,,,,,,,,,,,,,,,,,,,,,,,,
91,0,,html-keyboard-response,91,193671,0.0-4.13-4.13,pkyneri5rd,2022-09-19 17:33:51.131,5f0f2ff0762218000970c967,3,38,41,37,53,26,Female ,,,,,,1.0,learning,13.0,B,,red,,moons,,,,B,red,moons,,0.0,1.0,1,left,370.0,10.0,1.0,1.0,,,
92,0,,html-keyboard-response,92,195173,0.0-4.14-0.14,pkyneri5rd,2022-09-19 17:33:51.131,5f0f2ff0762218000970c967,3,38,41,37,53,26,Female ,,,"<img src=""static/images/cards/stack_of_black_stars.svg"" width=""175px"" height=""250px""></img>",,,,,,,,,,,,,,,,,,,,,,,,,,,,
93,0,,html-keyboard-response,93,196468,0.0-4.14-1.14,pkyneri5rd,2022-09-19 17:33:51.131,5f0f2ff0762218000970c967,3,38,41,37,53,26,Female ,792.0,,"
  <table>
  <tr height=300>
    <td width=300 height=300><img src=""static/images/cards/back_of_black_stars.svg"" width=""175px"" height=""250px""></img></td>
    <td width=300 height=300><img src=""static/images/cards/back_of_black_stars.svg"" width=""175px"" height=""250px""></img></td>
  </tr>
  <tr height=200>
    <td width=300><img src=""static/images/keys/z.svg"" width=""35%"" height=""75%""></img></td>
    <td width=300><img src=""static/images/keys/m.svg"" width=""35%"" height=""75%""></img></td>
  </tr>
</table>
  ",77.0,1.0,,,,,,,,,,,,,,,,,,,,,,,,,,
94,0,,html-keyboard-response,94,197971,0.0-4.14-2.14,pkyneri5rd,2022-09-19 17:33:51.131,5f0f2ff0762218000970c967,3,38,41,37,53,26,Female ,,,"
  <table>
  <tr height=300>
    <td width=300 height=300><img src=""static/images/cards/back_of_black_stars.svg"" width=""175px"" height=""250px""></img></td>
    <td width=300 height=300><img src=""static/images/cards/7_of_black_stars.svg"" width=""175px"" height=""250px""></img></td>
  </tr>
  <tr height=200>
    <td width=300><img src=""static/images/keys/z.svg"" width=""35%"" height=""75%""></img></td>
    <td width=300><img src=""static/images/keys/m.svg"" width=""35%"" height=""75%""></img></td>
  </tr>
</table>
  ",,,,,,,,,,,,,,,,,,,,,,,,,,,,
95,0,,html-keyboard-response,95,199474,0.0-4.14-3.14,pkyneri5rd,2022-09-19 17:33:51.131,5f0f2ff0762218000970c967,3,38,41,37,53,26,Female ,,,"<p style=""font-size:50px"">You win!
+10 points this round!</p>",,,,,,,,,,,,,,,,,,,,,,,,,,,,
96,0,,html-keyboard-response,96,199975,0.0-4.14-4.14,pkyneri5rd,2022-09-19 17:33:51.131,5f0f2ff0762218000970c967,3,38,41,37,53,26,Female ,,,,,,1.0,learning,14.0,C,,black,,stars,,,,C,black,stars,,1.0,0.0,NA,right,792.0,7.0,1.0,1.0,,,
97,0,,html-keyboard-response,97,201478,0.0-4.15-0.15,pkyneri5rd,2022-09-19 17:33:51.131,5f0f2ff0762218000970c967,3,38,41,37,53,26,Female ,,,"<img src=""static/images/cards/stack_of_red_stars.svg"" width=""175px"" height=""250px""></img>",,,,,,,,,,,,,,,,,,,,,,,,,,,,
98,0,,html-keyboard-response,98,202775,0.0-4.15-1.15,pkyneri5rd,2022-09-19 17:33:51.131,5f0f2ff0762218000970c967,3,38,41,37,53,26,Female ,795.0,,"
  <table>
  <tr height=300>
    <td width=300 height=300><img src=""static/images/cards/back_of_red_stars.svg"" width=""175px"" height=""250px""></img></td>
    <td width=300 height=300><img src=""static/images/cards/back_of_red_stars.svg"" width=""175px"" height=""250px""></img></td>
  </tr>
  <tr height=200>
    <td width=300></td>
    <td width=300><img src=""static/images/keys/m.svg"" width=""35%"" height=""75%""></img></td>
  </tr>
</table>
  ",77.0,1.0,,,,,,,,,,,,,,,,,,,,,,,,,,
99,0,,html-keyboard-response,99,204281,0.0-4.15-2.15,pkyneri5rd,2022-09-19 17:33:51.131,5f0f2ff0762218000970c967,3,38,41,37,53,26,Female ,,,"
  <table>
  <tr height=300>
    <td width=300 height=300><img src=""static/images/cards/back_of_red_stars.svg"" width=""175px"" height=""250px""></img></td>
    <td width=300 height=300><img src=""static/images/cards/3_of_red_stars.svg"" width=""175px"" height=""250px""></img></td>
  </tr>
  <tr height=200>
    <td width=300></td>
    <td width=300><img src=""static/images/keys/m.svg"" width=""35%"" height=""75%""></img></td>
  </tr>
</table>
  ",,,,,,,,,,,,,,,,,,,,,,,,,,,,
100,0,,html-keyboard-response,100,205784,0.0-4.15-3.15,pkyneri5rd,2022-09-19 17:33:51.131,5f0f2ff0762218000970c967,3,38,41,37,53,26,Female ,,,"<p style=""font-size:50px"">You win!
+10 points this round!</p>",,,,,,,,,,,,,,,,,,,,,,,,,,,,
101,0,,html-keyboard-response,101,206285,0.0-4.15-4.15,pkyneri5rd,2022-09-19 17:33:51.131,5f0f2ff0762218000970c967,3,38,41,37,53,26,Female ,,,,,,1.0,learning,15.0,D,,red,,stars,,,,D,red,stars,,0.0,0.0,0,right,795.0,3.0,0.0,1.0,,,
102,0,,html-keyboard-response,102,207787,0.0-4.16-0.16,pkyneri5rd,2022-09-19 17:33:51.131,5f0f2ff0762218000970c967,3,38,41,37,53,26,Female ,,,"<img src=""static/images/cards/stack_of_red_bolts.svg"" width=""175px"" height=""250px""></img>",,,,,,,,,,,,,,,,,,,,,,,,,,,,
103,0,,html-keyboard-response,103,208970,0.0-4.16-1.16,pkyneri5rd,2022-09-19 17:33:51.131,5f0f2ff0762218000970c967,3,38,41,37,53,26,Female ,680.0,,"
  <table>
  <tr height=300>
    <td width=300 height=300><img src=""static/images/cards/back_of_red_bolts.svg"" width=""175px"" height=""250px""></img></td>
    <td width=300 height=300><img src=""static/images/cards/back_of_red_bolts.svg"" width=""175px"" height=""250px""></img></td>
  </tr>
  <tr height=200>
    <td width=300><img src=""static/images/keys/z.svg"" width=""35%"" height=""75%""></img></td>
    <td width=300><img src=""static/images/keys/m.svg"" width=""35%"" height=""75%""></img></td>
  </tr>
</table>
  ",90.0,1.0,,,,,,,,,,,,,,,,,,,,,,,,,,
104,0,,html-keyboard-response,104,210472,0.0-4.16-2.16,pkyneri5rd,2022-09-19 17:33:51.131,5f0f2ff0762218000970c967,3,38,41,37,53,26,Female ,,,"
  <table>
  <tr height=300>
    <td width=300 height=300><img src=""static/images/cards/6_of_red_bolts.svg"" width=""175px"" height=""250px""></img></td>
    <td width=300 height=300><img src=""static/images/cards/back_of_red_bolts.svg"" width=""175px"" height=""250px""></img></td>
  </tr>
  <tr height=200>
    <td width=300><img src=""static/images/keys/z.svg"" width=""35%"" height=""75%""></img></td>
    <td width=300><img src=""static/images/keys/m.svg"" width=""35%"" height=""75%""></img></td>
  </tr>
</table>
  ",,,,,,,,,,,,,,,,,,,,,,,,,,,,
105,0,,html-keyboard-response,105,211974,0.0-4.16-3.16,pkyneri5rd,2022-09-19 17:33:51.131,5f0f2ff0762218000970c967,3,38,41,37,53,26,Female ,,,"<p style=""font-size:50px"">You win!
+10 points this round!</p>",,,,,,,,,,,,,,,,,,,,,,,,,,,,
106,0,,html-keyboard-response,106,212475,0.0-4.16-4.16,pkyneri5rd,2022-09-19 17:33:51.131,5f0f2ff0762218000970c967,3,38,41,37,53,26,Female ,,,,,,1.0,learning,16.0,Xc,,red,,bolts,,,,Xc,red,bolts,,1.0,0.0,NA,left,680.0,6.0,1.0,1.0,,,
107,0,,html-keyboard-response,107,213977,0.0-4.17-0.17,pkyneri5rd,2022-09-19 17:33:51.131,5f0f2ff0762218000970c967,3,38,41,37,53,26,Female ,,,"<img src=""static/images/cards/stack_of_black_bolts.svg"" width=""175px"" height=""250px""></img>",,,,,,,,,,,,,,,,,,,,,,,,,,,,
108,0,,html-keyboard-response,108,214816,0.0-4.17-1.17,pkyneri5rd,2022-09-19 17:33:51.131,5f0f2ff0762218000970c967,3,38,41,37,53,26,Female ,338.0,,"
  <table>
  <tr height=300>
    <td width=300 height=300><img src=""static/images/cards/back_of_black_bolts.svg"" width=""175px"" height=""250px""></img></td>
    <td width=300 height=300><img src=""static/images/cards/back_of_black_bolts.svg"" width=""175px"" height=""250px""></img></td>
  </tr>
  <tr height=200>
    <td width=300><img src=""static/images/keys/z.svg"" width=""35%"" height=""75%""></img></td>
    <td width=300></td>
  </tr>
</table>
  ",90.0,1.0,,,,,,,,,,,,,,,,,,,,,,,,,,
109,0,,html-keyboard-response,109,216320,0.0-4.17-2.17,pkyneri5rd,2022-09-19 17:33:51.131,5f0f2ff0762218000970c967,3,38,41,37,53,26,Female ,,,"
  <table>
  <tr height=300>
    <td width=300 height=300><img src=""static/images/cards/4_of_black_bolts.svg"" width=""175px"" height=""250px""></img></td>
    <td width=300 height=300><img src=""static/images/cards/back_of_black_bolts.svg"" width=""175px"" height=""250px""></img></td>
  </tr>
  <tr height=200>
    <td width=300><img src=""static/images/keys/z.svg"" width=""35%"" height=""75%""></img></td>
    <td width=300></td>
  </tr>
</table>
  ",,,,,,,,,,,,,,,,,,,,,,,,,,,,
110,0,,html-keyboard-response,110,217823,0.0-4.17-3.17,pkyneri5rd,2022-09-19 17:33:51.131,5f0f2ff0762218000970c967,3,38,41,37,53,26,Female ,,,"<p style=""font-size:50px"">You win!
+10 points this round!</p>",,,,,,,,,,,,,,,,,,,,,,,,,,,,
111,0,,html-keyboard-response,111,218325,0.0-4.17-4.17,pkyneri5rd,2022-09-19 17:33:51.131,5f0f2ff0762218000970c967,3,38,41,37,53,26,Female ,,,,,,1.0,learning,17.0,Xnc,,black,,bolts,,,,Xnc,black,bolts,,0.0,0.0,1,left,338.0,4.0,0.0,1.0,,,
112,0,,html-keyboard-response,112,219826,0.0-4.18-0.18,pkyneri5rd,2022-09-19 17:33:51.131,5f0f2ff0762218000970c967,3,38,41,37,53,26,Female ,,,"<img src=""static/images/cards/stack_of_black_moons.svg"" width=""175px"" height=""250px""></img>",,,,,,,,,,,,,,,,,,,,,,,,,,,,
113,0,,html-keyboard-response,113,220722,0.0-4.18-1.18,pkyneri5rd,2022-09-19 17:33:51.131,5f0f2ff0762218000970c967,3,38,41,37,53,26,Female ,393.0,,"
  <table>
  <tr height=300>
    <td width=300 height=300><img src=""static/images/cards/back_of_black_moons.svg"" width=""175px"" height=""250px""></img></td>
    <td width=300 height=300><img src=""static/images/cards/back_of_black_moons.svg"" width=""175px"" height=""250px""></img></td>
  </tr>
  <tr height=200>
    <td width=300><img src=""static/images/keys/z.svg"" width=""35%"" height=""75%""></img></td>
    <td width=300><img src=""static/images/keys/m.svg"" width=""35%"" height=""75%""></img></td>
  </tr>
</table>
  ",77.0,1.0,,,,,,,,,,,,,,,,,,,,,,,,,,
114,0,,html-keyboard-response,114,222224,0.0-4.18-2.18,pkyneri5rd,2022-09-19 17:33:51.131,5f0f2ff0762218000970c967,3,38,41,37,53,26,Female ,,,"
  <table>
  <tr height=300>
    <td width=300 height=300><img src=""static/images/cards/back_of_black_moons.svg"" width=""175px"" height=""250px""></img></td>
    <td width=300 height=300><img src=""static/images/cards/4_of_black_moons.svg"" width=""175px"" height=""250px""></img></td>
  </tr>
  <tr height=200>
    <td width=300><img src=""static/images/keys/z.svg"" width=""35%"" height=""75%""></img></td>
    <td width=300><img src=""static/images/keys/m.svg"" width=""35%"" height=""75%""></img></td>
  </tr>
</table>
  ",,,,,,,,,,,,,,,,,,,,,,,,,,,,
115,0,,html-keyboard-response,115,223727,0.0-4.18-3.18,pkyneri5rd,2022-09-19 17:33:51.131,5f0f2ff0762218000970c967,3,38,41,37,53,26,Female ,,,"<p style=""font-size:50px"">You Lose!
No points this round.</p>",,,,,,,,,,,,,,,,,,,,,,,,,,,,
116,0,,html-keyboard-response,116,224228,0.0-4.18-4.18,pkyneri5rd,2022-09-19 17:33:51.131,5f0f2ff0762218000970c967,3,38,41,37,53,26,Female ,,,,,,1.0,learning,18.0,A,,black,,moons,,,,A,black,moons,,1.0,1.0,NA,right,393.0,4.0,0.0,0.0,,,
117,0,,html-keyboard-response,117,225730,0.0-4.19-0.19,pkyneri5rd,2022-09-19 17:33:51.131,5f0f2ff0762218000970c967,3,38,41,37,53,26,Female ,,,"<img src=""static/images/cards/stack_of_red_moons.svg"" width=""175px"" height=""250px""></img>",,,,,,,,,,,,,,,,,,,,,,,,,,,,
118,0,,html-keyboard-response,118,226706,0.0-4.19-1.19,pkyneri5rd,2022-09-19 17:33:51.131,5f0f2ff0762218000970c967,3,38,41,37,53,26,Female ,473.0,,"
  <table>
  <tr height=300>
    <td width=300 height=300><img src=""static/images/cards/back_of_red_moons.svg"" width=""175px"" height=""250px""></img></td>
    <td width=300 height=300><img src=""static/images/cards/back_of_red_moons.svg"" width=""175px"" height=""250px""></img></td>
  </tr>
  <tr height=200>
    <td width=300><img src=""static/images/keys/z.svg"" width=""35%"" height=""75%""></img></td>
    <td width=300></td>
  </tr>
</table>
  ",90.0,1.0,,,,,,,,,,,,,,,,,,,,,,,,,,
119,0,,html-keyboard-response,119,228209,0.0-4.19-2.19,pkyneri5rd,2022-09-19 17:33:51.131,5f0f2ff0762218000970c967,3,38,41,37,53,26,Female ,,,"
  <table>
  <tr height=300>
    <td width=300 height=300><img src=""static/images/cards/4_of_red_moons.svg"" width=""175px"" height=""250px""></img></td>
    <td width=300 height=300><img src=""static/images/cards/back_of_red_moons.svg"" width=""175px"" height=""250px""></img></td>
  </tr>
  <tr height=200>
    <td width=300><img src=""static/images/keys/z.svg"" width=""35%"" height=""75%""></img></td>
    <td width=300></td>
  </tr>
</table>
  ",,,,,,,,,,,,,,,,,,,,,,,,,,,,
120,0,,html-keyboard-response,120,229712,0.0-4.19-3.19,pkyneri5rd,2022-09-19 17:33:51.131,5f0f2ff0762218000970c967,3,38,41,37,53,26,Female ,,,"<p style=""font-size:50px"">You Lose!
No points this round.</p>",,,,,,,,,,,,,,,,,,,,,,,,,,,,
121,0,,html-keyboard-response,121,230213,0.0-4.19-4.19,pkyneri5rd,2022-09-19 17:33:51.131,5f0f2ff0762218000970c967,3,38,41,37,53,26,Female ,,,,,,1.0,learning,19.0,B,,red,,moons,,,,B,red,moons,,0.0,1.0,1,left,473.0,4.0,0.0,0.0,,,
122,0,,html-keyboard-response,122,231716,0.0-4.20-0.20,pkyneri5rd,2022-09-19 17:33:51.131,5f0f2ff0762218000970c967,3,38,41,37,53,26,Female ,,,"<img src=""static/images/cards/stack_of_black_stars.svg"" width=""175px"" height=""250px""></img>",,,,,,,,,,,,,,,,,,,,,,,,,,,,
123,0,,html-keyboard-response,123,232805,0.0-4.20-1.20,pkyneri5rd,2022-09-19 17:33:51.131,5f0f2ff0762218000970c967,3,38,41,37,53,26,Female ,587.0,,"
  <table>
  <tr height=300>
    <td width=300 height=300><img src=""static/images/cards/back_of_black_stars.svg"" width=""175px"" height=""250px""></img></td>
    <td width=300 height=300><img src=""static/images/cards/back_of_black_stars.svg"" width=""175px"" height=""250px""></img></td>
  </tr>
  <tr height=200>
    <td width=300><img src=""static/images/keys/z.svg"" width=""35%"" height=""75%""></img></td>
    <td width=300><img src=""static/images/keys/m.svg"" width=""35%"" height=""75%""></img></td>
  </tr>
</table>
  ",90.0,1.0,,,,,,,,,,,,,,,,,,,,,,,,,,
124,0,,html-keyboard-response,124,234308,0.0-4.20-2.20,pkyneri5rd,2022-09-19 17:33:51.131,5f0f2ff0762218000970c967,3,38,41,37,53,26,Female ,,,"
  <table>
  <tr height=300>
    <td width=300 height=300><img src=""static/images/cards/2_of_black_stars.svg"" width=""175px"" height=""250px""></img></td>
    <td width=300 height=300><img src=""static/images/cards/back_of_black_stars.svg"" width=""175px"" height=""250px""></img></td>
  </tr>
  <tr height=200>
    <td width=300><img src=""static/images/keys/z.svg"" width=""35%"" height=""75%""></img></td>
    <td width=300><img src=""static/images/keys/m.svg"" width=""35%"" height=""75%""></img></td>
  </tr>
</table>
  ",,,,,,,,,,,,,,,,,,,,,,,,,,,,
125,0,,html-keyboard-response,125,235810,0.0-4.20-3.20,pkyneri5rd,2022-09-19 17:33:51.131,5f0f2ff0762218000970c967,3,38,41,37,53,26,Female ,,,"<p style=""font-size:50px"">You Lose!
No points this round.</p>",,,,,,,,,,,,,,,,,,,,,,,,,,,,
126,0,,html-keyboard-response,126,236311,0.0-4.20-4.20,pkyneri5rd,2022-09-19 17:33:51.131,5f0f2ff0762218000970c967,3,38,41,37,53,26,Female ,,,,,,1.0,learning,20.0,C,,black,,stars,,,,C,black,stars,,1.0,0.0,NA,left,587.0,2.0,0.0,0.0,,,
127,0,,html-keyboard-response,127,237813,0.0-4.21-0.21,pkyneri5rd,2022-09-19 17:33:51.131,5f0f2ff0762218000970c967,3,38,41,37,53,26,Female ,,,"<img src=""static/images/cards/stack_of_red_stars.svg"" width=""175px"" height=""250px""></img>",,,,,,,,,,,,,,,,,,,,,,,,,,,,
128,0,,html-keyboard-response,128,238666,0.0-4.21-1.21,pkyneri5rd,2022-09-19 17:33:51.131,5f0f2ff0762218000970c967,3,38,41,37,53,26,Female ,350.0,,"
  <table>
  <tr height=300>
    <td width=300 height=300><img src=""static/images/cards/back_of_red_stars.svg"" width=""175px"" height=""250px""></img></td>
    <td width=300 height=300><img src=""static/images/cards/back_of_red_stars.svg"" width=""175px"" height=""250px""></img></td>
  </tr>
  <tr height=200>
    <td width=300></td>
    <td width=300><img src=""static/images/keys/m.svg"" width=""35%"" height=""75%""></img></td>
  </tr>
</table>
  ",77.0,1.0,,,,,,,,,,,,,,,,,,,,,,,,,,
129,0,,html-keyboard-response,129,240169,0.0-4.21-2.21,pkyneri5rd,2022-09-19 17:33:51.131,5f0f2ff0762218000970c967,3,38,41,37,53,26,Female ,,,"
  <table>
  <tr height=300>
    <td width=300 height=300><img src=""static/images/cards/back_of_red_stars.svg"" width=""175px"" height=""250px""></img></td>
    <td width=300 height=300><img src=""static/images/cards/1_of_red_stars.svg"" width=""175px"" height=""250px""></img></td>
  </tr>
  <tr height=200>
    <td width=300></td>
    <td width=300><img src=""static/images/keys/m.svg"" width=""35%"" height=""75%""></img></td>
  </tr>
</table>
  ",,,,,,,,,,,,,,,,,,,,,,,,,,,,
130,0,,html-keyboard-response,130,241671,0.0-4.21-3.21,pkyneri5rd,2022-09-19 17:33:51.131,5f0f2ff0762218000970c967,3,38,41,37,53,26,Female ,,,"<p style=""font-size:50px"">You Lose!
No points this round.</p>",,,,,,,,,,,,,,,,,,,,,,,,,,,,
131,0,,html-keyboard-response,131,242172,0.0-4.21-4.21,pkyneri5rd,2022-09-19 17:33:51.131,5f0f2ff0762218000970c967,3,38,41,37,53,26,Female ,,,,,,1.0,learning,21.0,D,,red,,stars,,,,D,red,stars,,0.0,0.0,0,right,350.0,1.0,0.0,0.0,,,
132,0,,html-keyboard-response,132,243674,0.0-4.22-0.22,pkyneri5rd,2022-09-19 17:33:51.131,5f0f2ff0762218000970c967,3,38,41,37,53,26,Female ,,,"<img src=""static/images/cards/stack_of_red_bolts.svg"" width=""175px"" height=""250px""></img>",,,,,,,,,,,,,,,,,,,,,,,,,,,,
133,0,,html-keyboard-response,133,244540,0.0-4.22-1.22,pkyneri5rd,2022-09-19 17:33:51.131,5f0f2ff0762218000970c967,3,38,41,37,53,26,Female ,364.0,,"
  <table>
  <tr height=300>
    <td width=300 height=300><img src=""static/images/cards/back_of_red_bolts.svg"" width=""175px"" height=""250px""></img></td>
    <td width=300 height=300><img src=""static/images/cards/back_of_red_bolts.svg"" width=""175px"" height=""250px""></img></td>
  </tr>
  <tr height=200>
    <td width=300><img src=""static/images/keys/z.svg"" width=""35%"" height=""75%""></img></td>
    <td width=300><img src=""static/images/keys/m.svg"" width=""35%"" height=""75%""></img></td>
  </tr>
</table>
  ",77.0,1.0,,,,,,,,,,,,,,,,,,,,,,,,,,
134,0,,html-keyboard-response,134,246042,0.0-4.22-2.22,pkyneri5rd,2022-09-19 17:33:51.131,5f0f2ff0762218000970c967,3,38,41,37,53,26,Female ,,,"
  <table>
  <tr height=300>
    <td width=300 height=300><img src=""static/images/cards/back_of_red_bolts.svg"" width=""175px"" height=""250px""></img></td>
    <td width=300 height=300><img src=""static/images/cards/4_of_red_bolts.svg"" width=""175px"" height=""250px""></img></td>
  </tr>
  <tr height=200>
    <td width=300><img src=""static/images/keys/z.svg"" width=""35%"" height=""75%""></img></td>
    <td width=300><img src=""static/images/keys/m.svg"" width=""35%"" height=""75%""></img></td>
  </tr>
</table>
  ",,,,,,,,,,,,,,,,,,,,,,,,,,,,
135,0,,html-keyboard-response,135,247544,0.0-4.22-3.22,pkyneri5rd,2022-09-19 17:33:51.131,5f0f2ff0762218000970c967,3,38,41,37,53,26,Female ,,,"<p style=""font-size:50px"">You win!
+10 points this round!</p>",,,,,,,,,,,,,,,,,,,,,,,,,,,,
136,0,,html-keyboard-response,136,248046,0.0-4.22-4.22,pkyneri5rd,2022-09-19 17:33:51.131,5f0f2ff0762218000970c967,3,38,41,37,53,26,Female ,,,,,,1.0,learning,22.0,Xc,,red,,bolts,,,,Xc,red,bolts,,1.0,0.0,NA,right,364.0,4.0,0.0,1.0,,,
137,0,,html-keyboard-response,137,249549,0.0-4.23-0.23,pkyneri5rd,2022-09-19 17:33:51.131,5f0f2ff0762218000970c967,3,38,41,37,53,26,Female ,,,"<img src=""static/images/cards/stack_of_black_bolts.svg"" width=""175px"" height=""250px""></img>",,,,,,,,,,,,,,,,,,,,,,,,,,,,
138,0,,html-keyboard-response,138,250465,0.0-4.23-1.23,pkyneri5rd,2022-09-19 17:33:51.131,5f0f2ff0762218000970c967,3,38,41,37,53,26,Female ,412.0,,"
  <table>
  <tr height=300>
    <td width=300 height=300><img src=""static/images/cards/back_of_black_bolts.svg"" width=""175px"" height=""250px""></img></td>
    <td width=300 height=300><img src=""static/images/cards/back_of_black_bolts.svg"" width=""175px"" height=""250px""></img></td>
  </tr>
  <tr height=200>
    <td width=300></td>
    <td width=300><img src=""static/images/keys/m.svg"" width=""35%"" height=""75%""></img></td>
  </tr>
</table>
  ",77.0,1.0,,,,,,,,,,,,,,,,,,,,,,,,,,
139,0,,html-keyboard-response,139,251968,0.0-4.23-2.23,pkyneri5rd,2022-09-19 17:33:51.131,5f0f2ff0762218000970c967,3,38,41,37,53,26,Female ,,,"
  <table>
  <tr height=300>
    <td width=300 height=300><img src=""static/images/cards/back_of_black_bolts.svg"" width=""175px"" height=""250px""></img></td>
    <td width=300 height=300><img src=""static/images/cards/9_of_black_bolts.svg"" width=""175px"" height=""250px""></img></td>
  </tr>
  <tr height=200>
    <td width=300></td>
    <td width=300><img src=""static/images/keys/m.svg"" width=""35%"" height=""75%""></img></td>
  </tr>
</table>
  ",,,,,,,,,,,,,,,,,,,,,,,,,,,,
140,0,,html-keyboard-response,140,253472,0.0-4.23-3.23,pkyneri5rd,2022-09-19 17:33:51.131,5f0f2ff0762218000970c967,3,38,41,37,53,26,Female ,,,"<p style=""font-size:50px"">You win!
+10 points this round!</p>",,,,,,,,,,,,,,,,,,,,,,,,,,,,
141,0,,html-keyboard-response,141,253974,0.0-4.23-4.23,pkyneri5rd,2022-09-19 17:33:51.131,5f0f2ff0762218000970c967,3,38,41,37,53,26,Female ,,,,,,1.0,learning,23.0,Xnc,,black,,bolts,,,,Xnc,black,bolts,,0.0,0.0,0,right,412.0,9.0,1.0,1.0,,,
142,0,,call-function,142,254009,0.0-5.0,pkyneri5rd,2022-09-19 17:33:51.131,5f0f2ff0762218000970c967,3,38,41,37,53,26,Female ,,,,,,,,,,,,,,,,,,,,,,,,,,,,,,,
143,0,,image-keyboard-response,143,257265,0.0-6.0-0.0,pkyneri5rd,2022-09-19 17:33:51.131,5f0f2ff0762218000970c967,3,38,41,37,53,26,Female ,3254.0,,static/images/instructions_CB_3/Slide20.png,39.0,,,,,,,,,,,,,,,,,,,,,,,,,,,
144,0,,image-keyboard-response,144,259347,0.0-6.1-0.1,pkyneri5rd,2022-09-19 17:33:51.131,5f0f2ff0762218000970c967,3,38,41,37,53,26,Female ,2079.0,,static/images/instructions_CB_3/Slide21.png,39.0,,,,,,,,,,,,,,,,,,,,,,,,,,,
145,0,,image-keyboard-response,145,260064,0.0-6.2-0.2,pkyneri5rd,2022-09-19 17:33:51.131,5f0f2ff0762218000970c967,3,38,41,37,53,26,Female ,713.0,,static/images/instructions_CB_3/Slide22.png,39.0,,,,,,,,,,,,,,,,,,,,,,,,,,,
146,0,,image-keyboard-response,146,261118,0.0-6.3-0.3,pkyneri5rd,2022-09-19 17:33:51.131,5f0f2ff0762218000970c967,3,38,41,37,53,26,Female ,1052.0,,static/images/instructions_CB_3/Slide23.png,39.0,,,,,,,,,,,,,,,,,,,,,,,,,,,
147,0,,image-keyboard-response,147,261960,0.0-6.4-0.4,pkyneri5rd,2022-09-19 17:33:51.131,5f0f2ff0762218000970c967,3,38,41,37,53,26,Female ,835.0,,static/images/instructions_CB_3/Slide24.png,39.0,,,,,,,,,,,,,,,,,,,,,,,,,,,
148,0,,html-keyboard-response,148,263739,0.0-7.0-0.0,pkyneri5rd,2022-09-19 17:33:51.131,5f0f2ff0762218000970c967,3,38,41,37,53,26,Female ,1774.0,,"
  <table>
  <tr height=300>
    <td width=300 height=300><img src=""static/images/cards/stack_of_red_moons.svg"" width=""175px"" height=""250px""></img></td>
    <td width=300 height=300><img src=""static/images/cards/stack_of_black_stars.svg"" width=""175px"" height=""250px""></img></td>
  </tr>
  <tr height=200>
    <td width=300><img src=""static/images/keys/w.svg"" width=""35%"" height=""75%""></img></td>
    <td width=300><img src=""static/images/keys/o.svg"" width=""35%"" height=""75%""></img></td>
  </tr>
</table>
  ",79.0,1.0,,,,,,,,,,,,,,,,,,,,,,,,,,
149,0,,html-keyboard-response,149,265473,0.0-7.0-1.0,pkyneri5rd,2022-09-19 17:33:51.131,5f0f2ff0762218000970c967,3,38,41,37,53,26,Female ,1231.9999999999,,"
  <table>
  <tr height=300>
    <td width=300 height=300><img src=""static/images/cards/back_of_black_stars.svg"" width=""175px"" height=""250px""></img></td>
    <td width=300 height=300><img src=""static/images/cards/back_of_black_stars.svg"" width=""175px"" height=""250px""></img></td>
  </tr>
  <tr height=200>
    <td width=300><img src=""static/images/keys/z.svg"" width=""35%"" height=""75%""></img></td>
    <td width=300><img src=""static/images/keys/m.svg"" width=""35%"" height=""75%""></img></td>
  </tr>
</table>
  ",77.0,1.0,,,,,,,,,,,,,,,,,,,,,,,,,,
150,0,,html-keyboard-response,150,266976,0.0-7.0-2.0,pkyneri5rd,2022-09-19 17:33:51.131,5f0f2ff0762218000970c967,3,38,41,37,53,26,Female ,,,"
  <table>
  <tr height=300>
    <td width=300 height=300><img src=""static/images/cards/back_of_black_stars.svg"" width=""175px"" height=""250px""></img></td>
    <td width=300 height=300><img src=""static/images/cards/4_of_black_stars.svg"" width=""175px"" height=""250px""></img></td>
  </tr>
  <tr height=200>
    <td width=300><img src=""static/images/keys/z.svg"" width=""35%"" height=""75%""></img></td>
    <td width=300><img src=""static/images/keys/m.svg"" width=""35%"" height=""75%""></img></td>
  </tr>
</table>
  ",,,,,,,,,,,,,,,,,,,,,,,,,,,,
151,0,,html-keyboard-response,151,268478,0.0-7.0-3.0,pkyneri5rd,2022-09-19 17:33:51.131,5f0f2ff0762218000970c967,3,38,41,37,53,26,Female ,,,"<p style=""font-size:50px"">You Lose!
No points this round.</p>",,,,,,,,,,,,,,,,,,,,,,,,,,,,
152,0,,html-keyboard-response,152,268979,0.0-7.0-4.0,pkyneri5rd,2022-09-19 17:33:51.131,5f0f2ff0762218000970c967,3,38,41,37,53,26,Female ,,,,,,1.0,choice,0.0,B,C,red,black,moons,stars,B,C,C,black,stars,1774.0,1.0,0.0,NA,right,1231.9999999999,4.0,0.0,0.0,,,
153,0,,html-keyboard-response,153,270665,0.0-7.1-0.1,pkyneri5rd,2022-09-19 17:33:51.131,5f0f2ff0762218000970c967,3,38,41,37,53,26,Female ,1684.0,,"
  <table>
  <tr height=300>
    <td width=300 height=300><img src=""static/images/cards/stack_of_black_moons.svg"" width=""175px"" height=""250px""></img></td>
    <td width=300 height=300><img src=""static/images/cards/stack_of_red_stars.svg"" width=""175px"" height=""250px""></img></td>
  </tr>
  <tr height=200>
    <td width=300><img src=""static/images/keys/w.svg"" width=""35%"" height=""75%""></img></td>
    <td width=300><img src=""static/images/keys/o.svg"" width=""35%"" height=""75%""></img></td>
  </tr>
</table>
  ",79.0,2.0,,,,,,,,,,,,,,,,,,,,,,,,,,
154,0,,html-keyboard-response,154,271764,0.0-7.1-1.1,pkyneri5rd,2022-09-19 17:33:51.131,5f0f2ff0762218000970c967,3,38,41,37,53,26,Female ,595.0,,"
  <table>
  <tr height=300>
    <td width=300 height=300><img src=""static/images/cards/back_of_red_stars.svg"" width=""175px"" height=""250px""></img></td>
    <td width=300 height=300><img src=""static/images/cards/back_of_red_stars.svg"" width=""175px"" height=""250px""></img></td>
  </tr>
  <tr height=200>
    <td width=300></td>
    <td width=300><img src=""static/images/keys/m.svg"" width=""35%"" height=""75%""></img></td>
  </tr>
</table>
  ",77.0,2.0,,,,,,,,,,,,,,,,,,,,,,,,,,
155,0,,html-keyboard-response,155,273269,0.0-7.1-2.1,pkyneri5rd,2022-09-19 17:33:51.131,5f0f2ff0762218000970c967,3,38,41,37,53,26,Female ,,,"
  <table>
  <tr height=300>
    <td width=300 height=300><img src=""static/images/cards/back_of_red_stars.svg"" width=""175px"" height=""250px""></img></td>
    <td width=300 height=300><img src=""static/images/cards/7_of_red_stars.svg"" width=""175px"" height=""250px""></img></td>
  </tr>
  <tr height=200>
    <td width=300></td>
    <td width=300><img src=""static/images/keys/m.svg"" width=""35%"" height=""75%""></img></td>
  </tr>
</table>
  ",,,,,,,,,,,,,,,,,,,,,,,,,,,,
156,0,,html-keyboard-response,156,274771,0.0-7.1-3.1,pkyneri5rd,2022-09-19 17:33:51.131,5f0f2ff0762218000970c967,3,38,41,37,53,26,Female ,,,"<p style=""font-size:50px"">You win!
+10 points this round!</p>",,,,,,,,,,,,,,,,,,,,,,,,,,,,
157,0,,html-keyboard-response,157,275273,0.0-7.1-4.1,pkyneri5rd,2022-09-19 17:33:51.131,5f0f2ff0762218000970c967,3,38,41,37,53,26,Female ,,,,,,1.0,choice,1.0,A,D,black,red,moons,stars,A,D,D,red,stars,1684.0,0.0,0.0,0,right,595.0,7.0,1.0,1.0,,,
158,0,,html-keyboard-response,158,276809,0.0-7.2-0.2,pkyneri5rd,2022-09-19 17:33:51.131,5f0f2ff0762218000970c967,3,38,41,37,53,26,Female ,1534.0,,"
  <table>
  <tr height=300>
    <td width=300 height=300><img src=""static/images/cards/stack_of_black_moons.svg"" width=""175px"" height=""250px""></img></td>
    <td width=300 height=300><img src=""static/images/cards/stack_of_black_stars.svg"" width=""175px"" height=""250px""></img></td>
  </tr>
  <tr height=200>
    <td width=300><img src=""static/images/keys/w.svg"" width=""35%"" height=""75%""></img></td>
    <td width=300><img src=""static/images/keys/o.svg"" width=""35%"" height=""75%""></img></td>
  </tr>
</table>
  ",87.0,2.0,,,,,,,,,,,,,,,,,,,,,,,,,,
159,0,,html-keyboard-response,159,278506,0.0-7.2-1.2,pkyneri5rd,2022-09-19 17:33:51.131,5f0f2ff0762218000970c967,3,38,41,37,53,26,Female ,1194.0,,"
  <table>
  <tr height=300>
    <td width=300 height=300><img src=""static/images/cards/back_of_black_moons.svg"" width=""175px"" height=""250px""></img></td>
    <td width=300 height=300><img src=""static/images/cards/back_of_black_moons.svg"" width=""175px"" height=""250px""></img></td>
  </tr>
  <tr height=200>
    <td width=300><img src=""static/images/keys/z.svg"" width=""35%"" height=""75%""></img></td>
    <td width=300><img src=""static/images/keys/m.svg"" width=""35%"" height=""75%""></img></td>
  </tr>
</table>
  ",90.0,1.0,,,,,,,,,,,,,,,,,,,,,,,,,,
160,0,,html-keyboard-response,160,280009,0.0-7.2-2.2,pkyneri5rd,2022-09-19 17:33:51.131,5f0f2ff0762218000970c967,3,38,41,37,53,26,Female ,,,"
  <table>
  <tr height=300>
    <td width=300 height=300><img src=""static/images/cards/10_of_black_moons.svg"" width=""175px"" height=""250px""></img></td>
    <td width=300 height=300><img src=""static/images/cards/back_of_black_moons.svg"" width=""175px"" height=""250px""></img></td>
  </tr>
  <tr height=200>
    <td width=300><img src=""static/images/keys/z.svg"" width=""35%"" height=""75%""></img></td>
    <td width=300><img src=""static/images/keys/m.svg"" width=""35%"" height=""75%""></img></td>
  </tr>
</table>
  ",,,,,,,,,,,,,,,,,,,,,,,,,,,,
161,0,,html-keyboard-response,161,281511,0.0-7.2-3.2,pkyneri5rd,2022-09-19 17:33:51.131,5f0f2ff0762218000970c967,3,38,41,37,53,26,Female ,,,"<p style=""font-size:50px"">You win!
+10 points this round!</p>",,,,,,,,,,,,,,,,,,,,,,,,,,,,
162,0,,html-keyboard-response,162,282013,0.0-7.2-4.2,pkyneri5rd,2022-09-19 17:33:51.131,5f0f2ff0762218000970c967,3,38,41,37,53,26,Female ,,,,,,1.0,choice,2.0,A,C,black,black,moons,stars,A,C,A,black,moons,1534.0,1.0,1.0,NA,left,1194.0,10.0,1.0,1.0,,,
163,0,,html-keyboard-response,163,283129,0.0-7.3-0.3,pkyneri5rd,2022-09-19 17:33:51.131,5f0f2ff0762218000970c967,3,38,41,37,53,26,Female ,1115.0,,"
  <table>
  <tr height=300>
    <td width=300 height=300><img src=""static/images/cards/stack_of_black_stars.svg"" width=""175px"" height=""250px""></img></td>
    <td width=300 height=300><img src=""static/images/cards/stack_of_black_moons.svg"" width=""175px"" height=""250px""></img></td>
  </tr>
  <tr height=200>
    <td width=300><img src=""static/images/keys/w.svg"" width=""35%"" height=""75%""></img></td>
    <td width=300><img src=""static/images/keys/o.svg"" width=""35%"" height=""75%""></img></td>
  </tr>
</table>
  ",79.0,1.0,,,,,,,,,,,,,,,,,,,,,,,,,,
164,0,,html-keyboard-response,164,284366,0.0-7.3-1.3,pkyneri5rd,2022-09-19 17:33:51.131,5f0f2ff0762218000970c967,3,38,41,37,53,26,Female ,735.0000000001,,"
  <table>
  <tr height=300>
    <td width=300 height=300><img src=""static/images/cards/back_of_black_moons.svg"" width=""175px"" height=""250px""></img></td>
    <td width=300 height=300><img src=""static/images/cards/back_of_black_moons.svg"" width=""175px"" height=""250px""></img></td>
  </tr>
  <tr height=200>
    <td width=300><img src=""static/images/keys/z.svg"" width=""35%"" height=""75%""></img></td>
    <td width=300><img src=""static/images/keys/m.svg"" width=""35%"" height=""75%""></img></td>
  </tr>
</table>
  ",77.0,1.0,,,,,,,,,,,,,,,,,,,,,,,,,,
165,0,,html-keyboard-response,165,285868,0.0-7.3-2.3,pkyneri5rd,2022-09-19 17:33:51.131,5f0f2ff0762218000970c967,3,38,41,37,53,26,Female ,,,"
  <table>
  <tr height=300>
    <td width=300 height=300><img src=""static/images/cards/back_of_black_moons.svg"" width=""175px"" height=""250px""></img></td>
    <td width=300 height=300><img src=""static/images/cards/6_of_black_moons.svg"" width=""175px"" height=""250px""></img></td>
  </tr>
  <tr height=200>
    <td width=300><img src=""static/images/keys/z.svg"" width=""35%"" height=""75%""></img></td>
    <td width=300><img src=""static/images/keys/m.svg"" width=""35%"" height=""75%""></img></td>
  </tr>
</table>
  ",,,,,,,,,,,,,,,,,,,,,,,,,,,,
166,0,,html-keyboard-response,166,287371,0.0-7.3-3.3,pkyneri5rd,2022-09-19 17:33:51.131,5f0f2ff0762218000970c967,3,38,41,37,53,26,Female ,,,"<p style=""font-size:50px"">You win!
+10 points this round!</p>",,,,,,,,,,,,,,,,,,,,,,,,,,,,
167,0,,html-keyboard-response,167,287872,0.0-7.3-4.3,pkyneri5rd,2022-09-19 17:33:51.131,5f0f2ff0762218000970c967,3,38,41,37,53,26,Female ,,,,,,1.0,choice,3.0,A,C,black,black,stars,moons,C,A,A,black,moons,1115.0,1.0,1.0,NA,right,735.0000000001,6.0,1.0,1.0,,,
168,0,,html-keyboard-response,168,288609,0.0-7.4-0.4,pkyneri5rd,2022-09-19 17:33:51.131,5f0f2ff0762218000970c967,3,38,41,37,53,26,Female ,735.0,,"
  <table>
  <tr height=300>
    <td width=300 height=300><img src=""static/images/cards/stack_of_red_stars.svg"" width=""175px"" height=""250px""></img></td>
    <td width=300 height=300><img src=""static/images/cards/stack_of_black_stars.svg"" width=""175px"" height=""250px""></img></td>
  </tr>
  <tr height=200>
    <td width=300><img src=""static/images/keys/w.svg"" width=""35%"" height=""75%""></img></td>
    <td width=300><img src=""static/images/keys/o.svg"" width=""35%"" height=""75%""></img></td>
  </tr>
</table>
  ",79.0,1.0,,,,,,,,,,,,,,,,,,,,,,,,,,
169,0,,html-keyboard-response,169,290065,0.0-7.4-1.4,pkyneri5rd,2022-09-19 17:33:51.131,5f0f2ff0762218000970c967,3,38,41,37,53,26,Female ,954.0,,"
  <table>
  <tr height=300>
    <td width=300 height=300><img src=""static/images/cards/back_of_black_stars.svg"" width=""175px"" height=""250px""></img></td>
    <td width=300 height=300><img src=""static/images/cards/back_of_black_stars.svg"" width=""175px"" height=""250px""></img></td>
  </tr>
  <tr height=200>
    <td width=300><img src=""static/images/keys/z.svg"" width=""35%"" height=""75%""></img></td>
    <td width=300><img src=""static/images/keys/m.svg"" width=""35%"" height=""75%""></img></td>
  </tr>
</table>
  ",90.0,1.0,,,,,,,,,,,,,,,,,,,,,,,,,,
170,0,,html-keyboard-response,170,291568,0.0-7.4-2.4,pkyneri5rd,2022-09-19 17:33:51.131,5f0f2ff0762218000970c967,3,38,41,37,53,26,Female ,,,"
  <table>
  <tr height=300>
    <td width=300 height=300><img src=""static/images/cards/4_of_black_stars.svg"" width=""175px"" height=""250px""></img></td>
    <td width=300 height=300><img src=""static/images/cards/back_of_black_stars.svg"" width=""175px"" height=""250px""></img></td>
  </tr>
  <tr height=200>
    <td width=300><img src=""static/images/keys/z.svg"" width=""35%"" height=""75%""></img></td>
    <td width=300><img src=""static/images/keys/m.svg"" width=""35%"" height=""75%""></img></td>
  </tr>
</table>
  ",,,,,,,,,,,,,,,,,,,,,,,,,,,,
171,0,,html-keyboard-response,171,293071,0.0-7.4-3.4,pkyneri5rd,2022-09-19 17:33:51.131,5f0f2ff0762218000970c967,3,38,41,37,53,26,Female ,,,"<p style=""font-size:50px"">You Lose!
No points this round.</p>",,,,,,,,,,,,,,,,,,,,,,,,,,,,
172,0,,html-keyboard-response,172,293573,0.0-7.4-4.4,pkyneri5rd,2022-09-19 17:33:51.131,5f0f2ff0762218000970c967,3,38,41,37,53,26,Female ,,,,,,1.0,choice,4.0,C,D,red,black,stars,stars,D,C,C,black,stars,735.0,1.0,0.0,NA,left,954.0,4.0,0.0,0.0,,,
173,0,,html-keyboard-response,173,294626,0.0-7.5-0.5,pkyneri5rd,2022-09-19 17:33:51.131,5f0f2ff0762218000970c967,3,38,41,37,53,26,Female ,1051.0,,"
  <table>
  <tr height=300>
    <td width=300 height=300><img src=""static/images/cards/stack_of_red_stars.svg"" width=""175px"" height=""250px""></img></td>
    <td width=300 height=300><img src=""static/images/cards/stack_of_black_bolts.svg"" width=""175px"" height=""250px""></img></td>
  </tr>
  <tr height=200>
    <td width=300><img src=""static/images/keys/w.svg"" width=""35%"" height=""75%""></img></td>
    <td width=300><img src=""static/images/keys/o.svg"" width=""35%"" height=""75%""></img></td>
  </tr>
</table>
  ",79.0,1.0,,,,,,,,,,,,,,,,,,,,,,,,,,
174,0,,html-keyboard-response,174,295738,0.0-7.5-1.5,pkyneri5rd,2022-09-19 17:33:51.131,5f0f2ff0762218000970c967,3,38,41,37,53,26,Female ,608.0,,"
  <table>
  <tr height=300>
    <td width=300 height=300><img src=""static/images/cards/back_of_black_bolts.svg"" width=""175px"" height=""250px""></img></td>
    <td width=300 height=300><img src=""static/images/cards/back_of_black_bolts.svg"" width=""175px"" height=""250px""></img></td>
  </tr>
  <tr height=200>
    <td width=300></td>
    <td width=300><img src=""static/images/keys/m.svg"" width=""35%"" height=""75%""></img></td>
  </tr>
</table>
  ",77.0,1.0,,,,,,,,,,,,,,,,,,,,,,,,,,
175,0,,html-keyboard-response,175,297240,0.0-7.5-2.5,pkyneri5rd,2022-09-19 17:33:51.131,5f0f2ff0762218000970c967,3,38,41,37,53,26,Female ,,,"
  <table>
  <tr height=300>
    <td width=300 height=300><img src=""static/images/cards/back_of_black_bolts.svg"" width=""175px"" height=""250px""></img></td>
    <td width=300 height=300><img src=""static/images/cards/9_of_black_bolts.svg"" width=""175px"" height=""250px""></img></td>
  </tr>
  <tr height=200>
    <td width=300></td>
    <td width=300><img src=""static/images/keys/m.svg"" width=""35%"" height=""75%""></img></td>
  </tr>
</table>
  ",,,,,,,,,,,,,,,,,,,,,,,,,,,,
176,0,,html-keyboard-response,176,298743,0.0-7.5-3.5,pkyneri5rd,2022-09-19 17:33:51.131,5f0f2ff0762218000970c967,3,38,41,37,53,26,Female ,,,"<p style=""font-size:50px"">You win!
+10 points this round!</p>",,,,,,,,,,,,,,,,,,,,,,,,,,,,
177,0,,html-keyboard-response,177,299245,0.0-7.5-4.5,pkyneri5rd,2022-09-19 17:33:51.131,5f0f2ff0762218000970c967,3,38,41,37,53,26,Female ,,,,,,1.0,choice,5.0,D,Xnc,red,black,stars,bolts,D,Xnc,Xnc,black,bolts,1051.0,0.0,0.0,0,right,608.0,9.0,1.0,1.0,,,
178,0,,html-keyboard-response,178,299962,0.0-7.6-0.6,pkyneri5rd,2022-09-19 17:33:51.131,5f0f2ff0762218000970c967,3,38,41,37,53,26,Female ,715.0,,"
  <table>
  <tr height=300>
    <td width=300 height=300><img src=""static/images/cards/stack_of_black_moons.svg"" width=""175px"" height=""250px""></img></td>
    <td width=300 height=300><img src=""static/images/cards/stack_of_red_moons.svg"" width=""175px"" height=""250px""></img></td>
  </tr>
  <tr height=200>
    <td width=300><img src=""static/images/keys/w.svg"" width=""35%"" height=""75%""></img></td>
    <td width=300><img src=""static/images/keys/o.svg"" width=""35%"" height=""75%""></img></td>
  </tr>
</table>
  ",79.0,1.0,,,,,,,,,,,,,,,,,,,,,,,,,,
179,0,,html-keyboard-response,179,300817,0.0-7.6-1.6,pkyneri5rd,2022-09-19 17:33:51.131,5f0f2ff0762218000970c967,3,38,41,37,53,26,Female ,352.0000000001,,"
  <table>
  <tr height=300>
    <td width=300 height=300><img src=""static/images/cards/back_of_red_moons.svg"" width=""175px"" height=""250px""></img></td>
    <td width=300 height=300><img src=""static/images/cards/back_of_red_moons.svg"" width=""175px"" height=""250px""></img></td>
  </tr>
  <tr height=200>
    <td width=300></td>
    <td width=300><img src=""static/images/keys/m.svg"" width=""35%"" height=""75%""></img></td>
  </tr>
</table>
  ",77.0,1.0,,,,,,,,,,,,,,,,,,,,,,,,,,
180,0,,html-keyboard-response,180,302324,0.0-7.6-2.6,pkyneri5rd,2022-09-19 17:33:51.131,5f0f2ff0762218000970c967,3,38,41,37,53,26,Female ,,,"
  <table>
  <tr height=300>
    <td width=300 height=300><img src=""static/images/cards/back_of_red_moons.svg"" width=""175px"" height=""250px""></img></td>
    <td width=300 height=300><img src=""static/images/cards/3_of_red_moons.svg"" width=""175px"" height=""250px""></img></td>
  </tr>
  <tr height=200>
    <td width=300></td>
    <td width=300><img src=""static/images/keys/m.svg"" width=""35%"" height=""75%""></img></td>
  </tr>
</table>
  ",,,,,,,,,,,,,,,,,,,,,,,,,,,,
181,0,,html-keyboard-response,181,303826,0.0-7.6-3.6,pkyneri5rd,2022-09-19 17:33:51.131,5f0f2ff0762218000970c967,3,38,41,37,53,26,Female ,,,"<p style=""font-size:50px"">You Lose!
No points this round.</p>",,,,,,,,,,,,,,,,,,,,,,,,,,,,
182,0,,html-keyboard-response,182,304327,0.0-7.6-4.6,pkyneri5rd,2022-09-19 17:33:51.131,5f0f2ff0762218000970c967,3,38,41,37,53,26,Female ,,,,,,1.0,choice,6.0,A,B,black,red,moons,moons,A,B,B,red,moons,715.0,0.0,1.0,0,right,352.0000000001,3.0,0.0,0.0,,,
183,0,,html-keyboard-response,183,305498,0.0-7.7-0.7,pkyneri5rd,2022-09-19 17:33:51.131,5f0f2ff0762218000970c967,3,38,41,37,53,26,Female ,1167.9999999999,,"
  <table>
  <tr height=300>
    <td width=300 height=300><img src=""static/images/cards/stack_of_black_stars.svg"" width=""175px"" height=""250px""></img></td>
    <td width=300 height=300><img src=""static/images/cards/stack_of_red_stars.svg"" width=""175px"" height=""250px""></img></td>
  </tr>
  <tr height=200>
    <td width=300><img src=""static/images/keys/w.svg"" width=""35%"" height=""75%""></img></td>
    <td width=300><img src=""static/images/keys/o.svg"" width=""35%"" height=""75%""></img></td>
  </tr>
</table>
  ",87.0,1.0,,,,,,,,,,,,,,,,,,,,,,,,,,
184,0,,html-keyboard-response,184,307394,0.0-7.7-1.7,pkyneri5rd,2022-09-19 17:33:51.131,5f0f2ff0762218000970c967,3,38,41,37,53,26,Female ,1394.0000000001,,"
  <table>
  <tr height=300>
    <td width=300 height=300><img src=""static/images/cards/back_of_black_stars.svg"" width=""175px"" height=""250px""></img></td>
    <td width=300 height=300><img src=""static/images/cards/back_of_black_stars.svg"" width=""175px"" height=""250px""></img></td>
  </tr>
  <tr height=200>
    <td width=300><img src=""static/images/keys/z.svg"" width=""35%"" height=""75%""></img></td>
    <td width=300><img src=""static/images/keys/m.svg"" width=""35%"" height=""75%""></img></td>
  </tr>
</table>
  ",90.0,1.0,,,,,,,,,,,,,,,,,,,,,,,,,,
185,0,,html-keyboard-response,185,308898,0.0-7.7-2.7,pkyneri5rd,2022-09-19 17:33:51.131,5f0f2ff0762218000970c967,3,38,41,37,53,26,Female ,,,"
  <table>
  <tr height=300>
    <td width=300 height=300><img src=""static/images/cards/8_of_black_stars.svg"" width=""175px"" height=""250px""></img></td>
    <td width=300 height=300><img src=""static/images/cards/back_of_black_stars.svg"" width=""175px"" height=""250px""></img></td>
  </tr>
  <tr height=200>
    <td width=300><img src=""static/images/keys/z.svg"" width=""35%"" height=""75%""></img></td>
    <td width=300><img src=""static/images/keys/m.svg"" width=""35%"" height=""75%""></img></td>
  </tr>
</table>
  ",,,,,,,,,,,,,,,,,,,,,,,,,,,,
186,0,,html-keyboard-response,186,310401,0.0-7.7-3.7,pkyneri5rd,2022-09-19 17:33:51.131,5f0f2ff0762218000970c967,3,38,41,37,53,26,Female ,,,"<p style=""font-size:50px"">You win!
+10 points this round!</p>",,,,,,,,,,,,,,,,,,,,,,,,,,,,
187,0,,html-keyboard-response,187,310903,0.0-7.7-4.7,pkyneri5rd,2022-09-19 17:33:51.131,5f0f2ff0762218000970c967,3,38,41,37,53,26,Female ,,,,,,1.0,choice,7.0,C,D,black,red,stars,stars,C,D,C,black,stars,1167.9999999999,1.0,0.0,NA,left,1394.0000000001,8.0,1.0,1.0,,,
188,0,,html-keyboard-response,188,311721,0.0-7.8-0.8,pkyneri5rd,2022-09-19 17:33:51.131,5f0f2ff0762218000970c967,3,38,41,37,53,26,Female ,816.0,,"
  <table>
  <tr height=300>
    <td width=300 height=300><img src=""static/images/cards/stack_of_red_stars.svg"" width=""175px"" height=""250px""></img></td>
    <td width=300 height=300><img src=""static/images/cards/stack_of_black_moons.svg"" width=""175px"" height=""250px""></img></td>
  </tr>
  <tr height=200>
    <td width=300><img src=""static/images/keys/w.svg"" width=""35%"" height=""75%""></img></td>
    <td width=300><img src=""static/images/keys/o.svg"" width=""35%"" height=""75%""></img></td>
  </tr>
</table>
  ",79.0,1.0,,,,,,,,,,,,,,,,,,,,,,,,,,
189,0,,html-keyboard-response,189,312841,0.0-7.8-1.8,pkyneri5rd,2022-09-19 17:33:51.131,5f0f2ff0762218000970c967,3,38,41,37,53,26,Female ,617.0000000001,,"
  <table>
  <tr height=300>
    <td width=300 height=300><img src=""static/images/cards/back_of_black_moons.svg"" width=""175px"" height=""250px""></img></td>
    <td width=300 height=300><img src=""static/images/cards/back_of_black_moons.svg"" width=""175px"" height=""250px""></img></td>
  </tr>
  <tr height=200>
    <td width=300><img src=""static/images/keys/z.svg"" width=""35%"" height=""75%""></img></td>
    <td width=300><img src=""static/images/keys/m.svg"" width=""35%"" height=""75%""></img></td>
  </tr>
</table>
  ",77.0,1.0,,,,,,,,,,,,,,,,,,,,,,,,,,
190,0,,html-keyboard-response,190,314344,0.0-7.8-2.8,pkyneri5rd,2022-09-19 17:33:51.131,5f0f2ff0762218000970c967,3,38,41,37,53,26,Female ,,,"
  <table>
  <tr height=300>
    <td width=300 height=300><img src=""static/images/cards/back_of_black_moons.svg"" width=""175px"" height=""250px""></img></td>
    <td width=300 height=300><img src=""static/images/cards/8_of_black_moons.svg"" width=""175px"" height=""250px""></img></td>
  </tr>
  <tr height=200>
    <td width=300><img src=""static/images/keys/z.svg"" width=""35%"" height=""75%""></img></td>
    <td width=300><img src=""static/images/keys/m.svg"" width=""35%"" height=""75%""></img></td>
  </tr>
</table>
  ",,,,,,,,,,,,,,,,,,,,,,,,,,,,
191,0,,html-keyboard-response,191,315847,0.0-7.8-3.8,pkyneri5rd,2022-09-19 17:33:51.131,5f0f2ff0762218000970c967,3,38,41,37,53,26,Female ,,,"<p style=""font-size:50px"">You win!
+10 points this round!</p>",,,,,,,,,,,,,,,,,,,,,,,,,,,,
192,0,,html-keyboard-response,192,316348,0.0-7.8-4.8,pkyneri5rd,2022-09-19 17:33:51.131,5f0f2ff0762218000970c967,3,38,41,37,53,26,Female ,,,,,,1.0,choice,8.0,A,D,red,black,stars,moons,D,A,A,black,moons,816.0,1.0,1.0,NA,right,617.0000000001,8.0,1.0,1.0,,,
193,0,,html-keyboard-response,193,316953,0.0-7.9-0.9,pkyneri5rd,2022-09-19 17:33:51.131,5f0f2ff0762218000970c967,3,38,41,37,53,26,Female ,603.0,,"
  <table>
  <tr height=300>
    <td width=300 height=300><img src=""static/images/cards/stack_of_black_stars.svg"" width=""175px"" height=""250px""></img></td>
    <td width=300 height=300><img src=""static/images/cards/stack_of_black_bolts.svg"" width=""175px"" height=""250px""></img></td>
  </tr>
  <tr height=200>
    <td width=300><img src=""static/images/keys/w.svg"" width=""35%"" height=""75%""></img></td>
    <td width=300><img src=""static/images/keys/o.svg"" width=""35%"" height=""75%""></img></td>
  </tr>
</table>
  ",79.0,1.0,,,,,,,,,,,,,,,,,,,,,,,,,,
194,0,,html-keyboard-response,194,317913,0.0-7.9-1.9,pkyneri5rd,2022-09-19 17:33:51.131,5f0f2ff0762218000970c967,3,38,41,37,53,26,Female ,457.0,,"
  <table>
  <tr height=300>
    <td width=300 height=300><img src=""static/images/cards/back_of_black_bolts.svg"" width=""175px"" height=""250px""></img></td>
    <td width=300 height=300><img src=""static/images/cards/back_of_black_bolts.svg"" width=""175px"" height=""250px""></img></td>
  </tr>
  <tr height=200>
    <td width=300></td>
    <td width=300><img src=""static/images/keys/m.svg"" width=""35%"" height=""75%""></img></td>
  </tr>
</table>
  ",77.0,1.0,,,,,,,,,,,,,,,,,,,,,,,,,,
195,0,,html-keyboard-response,195,319416,0.0-7.9-2.9,pkyneri5rd,2022-09-19 17:33:51.131,5f0f2ff0762218000970c967,3,38,41,37,53,26,Female ,,,"
  <table>
  <tr height=300>
    <td width=300 height=300><img src=""static/images/cards/back_of_black_bolts.svg"" width=""175px"" height=""250px""></img></td>
    <td width=300 height=300><img src=""static/images/cards/2_of_black_bolts.svg"" width=""175px"" height=""250px""></img></td>
  </tr>
  <tr height=200>
    <td width=300></td>
    <td width=300><img src=""static/images/keys/m.svg"" width=""35%"" height=""75%""></img></td>
  </tr>
</table>
  ",,,,,,,,,,,,,,,,,,,,,,,,,,,,
196,0,,html-keyboard-response,196,320919,0.0-7.9-3.9,pkyneri5rd,2022-09-19 17:33:51.131,5f0f2ff0762218000970c967,3,38,41,37,53,26,Female ,,,"<p style=""font-size:50px"">You win!
+10 points this round!</p>",,,,,,,,,,,,,,,,,,,,,,,,,,,,
197,0,,html-keyboard-response,197,321421,0.0-7.9-4.9,pkyneri5rd,2022-09-19 17:33:51.131,5f0f2ff0762218000970c967,3,38,41,37,53,26,Female ,,,,,,1.0,choice,9.0,C,Xnc,black,black,stars,bolts,C,Xnc,Xnc,black,bolts,603.0,0.0,0.0,0,right,457.0,2.0,0.0,1.0,,,
198,0,,html-keyboard-response,198,321969,0.0-7.10-0.10,pkyneri5rd,2022-09-19 17:33:51.131,5f0f2ff0762218000970c967,3,38,41,37,53,26,Female ,546.0,,"
  <table>
  <tr height=300>
    <td width=300 height=300><img src=""static/images/cards/stack_of_red_moons.svg"" width=""175px"" height=""250px""></img></td>
    <td width=300 height=300><img src=""static/images/cards/stack_of_black_stars.svg"" width=""175px"" height=""250px""></img></td>
  </tr>
  <tr height=200>
    <td width=300><img src=""static/images/keys/w.svg"" width=""35%"" height=""75%""></img></td>
    <td width=300><img src=""static/images/keys/o.svg"" width=""35%"" height=""75%""></img></td>
  </tr>
</table>
  ",79.0,1.0,,,,,,,,,,,,,,,,,,,,,,,,,,
199,0,,html-keyboard-response,199,322929,0.0-7.10-1.10,pkyneri5rd,2022-09-19 17:33:51.131,5f0f2ff0762218000970c967,3,38,41,37,53,26,Female ,458.0,,"
  <table>
  <tr height=300>
    <td width=300 height=300><img src=""static/images/cards/back_of_black_stars.svg"" width=""175px"" height=""250px""></img></td>
    <td width=300 height=300><img src=""static/images/cards/back_of_black_stars.svg"" width=""175px"" height=""250px""></img></td>
  </tr>
  <tr height=200>
    <td width=300><img src=""static/images/keys/z.svg"" width=""35%"" height=""75%""></img></td>
    <td width=300><img src=""static/images/keys/m.svg"" width=""35%"" height=""75%""></img></td>
  </tr>
</table>
  ",77.0,1.0,,,,,,,,,,,,,,,,,,,,,,,,,,
200,0,,html-keyboard-response,200,324433,0.0-7.10-2.10,pkyneri5rd,2022-09-19 17:33:51.131,5f0f2ff0762218000970c967,3,38,41,37,53,26,Female ,,,"
  <table>
  <tr height=300>
    <td width=300 height=300><img src=""static/images/cards/back_of_black_stars.svg"" width=""175px"" height=""250px""></img></td>
    <td width=300 height=300><img src=""static/images/cards/4_of_black_stars.svg"" width=""175px"" height=""250px""></img></td>
  </tr>
  <tr height=200>
    <td width=300><img src=""static/images/keys/z.svg"" width=""35%"" height=""75%""></img></td>
    <td width=300><img src=""static/images/keys/m.svg"" width=""35%"" height=""75%""></img></td>
  </tr>
</table>
  ",,,,,,,,,,,,,,,,,,,,,,,,,,,,
201,0,,html-keyboard-response,201,325937,0.0-7.10-3.10,pkyneri5rd,2022-09-19 17:33:51.131,5f0f2ff0762218000970c967,3,38,41,37,53,26,Female ,,,"<p style=""font-size:50px"">You win!
+10 points this round!</p>",,,,,,,,,,,,,,,,,,,,,,,,,,,,
202,0,,html-keyboard-response,202,326438,0.0-7.10-4.10,pkyneri5rd,2022-09-19 17:33:51.131,5f0f2ff0762218000970c967,3,38,41,37,53,26,Female ,,,,,,1.0,choice,10.0,B,C,red,black,moons,stars,B,C,C,black,stars,546.0,1.0,0.0,NA,right,458.0,4.0,0.0,1.0,,,
203,0,,html-keyboard-response,203,327113,0.0-7.11-0.11,pkyneri5rd,2022-09-19 17:33:51.131,5f0f2ff0762218000970c967,3,38,41,37,53,26,Female ,669.9999999999,,"
  <table>
  <tr height=300>
    <td width=300 height=300><img src=""static/images/cards/stack_of_black_moons.svg"" width=""175px"" height=""250px""></img></td>
    <td width=300 height=300><img src=""static/images/cards/stack_of_red_stars.svg"" width=""175px"" height=""250px""></img></td>
  </tr>
  <tr height=200>
    <td width=300><img src=""static/images/keys/w.svg"" width=""35%"" height=""75%""></img></td>
    <td width=300><img src=""static/images/keys/o.svg"" width=""35%"" height=""75%""></img></td>
  </tr>
</table>
  ",79.0,1.0,,,,,,,,,,,,,,,,,,,,,,,,,,
204,0,,html-keyboard-response,204,328225,0.0-7.11-1.11,pkyneri5rd,2022-09-19 17:33:51.131,5f0f2ff0762218000970c967,3,38,41,37,53,26,Female ,609.0,,"
  <table>
  <tr height=300>
    <td width=300 height=300><img src=""static/images/cards/back_of_red_stars.svg"" width=""175px"" height=""250px""></img></td>
    <td width=300 height=300><img src=""static/images/cards/back_of_red_stars.svg"" width=""175px"" height=""250px""></img></td>
  </tr>
  <tr height=200>
    <td width=300></td>
    <td width=300><img src=""static/images/keys/m.svg"" width=""35%"" height=""75%""></img></td>
  </tr>
</table>
  ",77.0,2.0,,,,,,,,,,,,,,,,,,,,,,,,,,
205,0,,html-keyboard-response,205,329728,0.0-7.11-2.11,pkyneri5rd,2022-09-19 17:33:51.131,5f0f2ff0762218000970c967,3,38,41,37,53,26,Female ,,,"
  <table>
  <tr height=300>
    <td width=300 height=300><img src=""static/images/cards/back_of_red_stars.svg"" width=""175px"" height=""250px""></img></td>
    <td width=300 height=300><img src=""static/images/cards/8_of_red_stars.svg"" width=""175px"" height=""250px""></img></td>
  </tr>
  <tr height=200>
    <td width=300></td>
    <td width=300><img src=""static/images/keys/m.svg"" width=""35%"" height=""75%""></img></td>
  </tr>
</table>
  ",,,,,,,,,,,,,,,,,,,,,,,,,,,,
206,0,,html-keyboard-response,206,331230,0.0-7.11-3.11,pkyneri5rd,2022-09-19 17:33:51.131,5f0f2ff0762218000970c967,3,38,41,37,53,26,Female ,,,"<p style=""font-size:50px"">You Lose!
No points this round.</p>",,,,,,,,,,,,,,,,,,,,,,,,,,,,
207,0,,html-keyboard-response,207,331732,0.0-7.11-4.11,pkyneri5rd,2022-09-19 17:33:51.131,5f0f2ff0762218000970c967,3,38,41,37,53,26,Female ,,,,,,1.0,choice,11.0,A,D,black,red,moons,stars,A,D,D,red,stars,669.9999999999,0.0,0.0,0,right,609.0,8.0,1.0,0.0,,,
208,0,,html-keyboard-response,208,332914,0.0-7.12-0.12,pkyneri5rd,2022-09-19 17:33:51.131,5f0f2ff0762218000970c967,3,38,41,37,53,26,Female ,1178.0,,"
  <table>
  <tr height=300>
    <td width=300 height=300><img src=""static/images/cards/stack_of_red_moons.svg"" width=""175px"" height=""250px""></img></td>
    <td width=300 height=300><img src=""static/images/cards/stack_of_black_moons.svg"" width=""175px"" height=""250px""></img></td>
  </tr>
  <tr height=200>
    <td width=300><img src=""static/images/keys/w.svg"" width=""35%"" height=""75%""></img></td>
    <td width=300><img src=""static/images/keys/o.svg"" width=""35%"" height=""75%""></img></td>
  </tr>
</table>
  ",87.0,1.0,,,,,,,,,,,,,,,,,,,,,,,,,,
209,0,,html-keyboard-response,209,334089,0.0-7.12-1.12,pkyneri5rd,2022-09-19 17:33:51.131,5f0f2ff0762218000970c967,3,38,41,37,53,26,Female ,673.0,,"
  <table>
  <tr height=300>
    <td width=300 height=300><img src=""static/images/cards/back_of_red_moons.svg"" width=""175px"" height=""250px""></img></td>
    <td width=300 height=300><img src=""static/images/cards/back_of_red_moons.svg"" width=""175px"" height=""250px""></img></td>
  </tr>
  <tr height=200>
    <td width=300></td>
    <td width=300><img src=""static/images/keys/m.svg"" width=""35%"" height=""75%""></img></td>
  </tr>
</table>
  ",77.0,2.0,,,,,,,,,,,,,,,,,,,,,,,,,,
210,0,,html-keyboard-response,210,335592,0.0-7.12-2.12,pkyneri5rd,2022-09-19 17:33:51.131,5f0f2ff0762218000970c967,3,38,41,37,53,26,Female ,,,"
  <table>
  <tr height=300>
    <td width=300 height=300><img src=""static/images/cards/back_of_red_moons.svg"" width=""175px"" height=""250px""></img></td>
    <td width=300 height=300><img src=""static/images/cards/3_of_red_moons.svg"" width=""175px"" height=""250px""></img></td>
  </tr>
  <tr height=200>
    <td width=300></td>
    <td width=300><img src=""static/images/keys/m.svg"" width=""35%"" height=""75%""></img></td>
  </tr>
</table>
  ",,,,,,,,,,,,,,,,,,,,,,,,,,,,
211,0,,html-keyboard-response,211,337095,0.0-7.12-3.12,pkyneri5rd,2022-09-19 17:33:51.131,5f0f2ff0762218000970c967,3,38,41,37,53,26,Female ,,,"<p style=""font-size:50px"">You Lose!
No points this round.</p>",,,,,,,,,,,,,,,,,,,,,,,,,,,,
212,0,,html-keyboard-response,212,337596,0.0-7.12-4.12,pkyneri5rd,2022-09-19 17:33:51.131,5f0f2ff0762218000970c967,3,38,41,37,53,26,Female ,,,,,,1.0,choice,12.0,A,B,red,black,moons,moons,B,A,B,red,moons,1178.0,0.0,1.0,0,right,673.0,3.0,0.0,0.0,,,
213,0,,html-keyboard-response,213,338217,0.0-7.13-0.13,pkyneri5rd,2022-09-19 17:33:51.131,5f0f2ff0762218000970c967,3,38,41,37,53,26,Female ,618.0,,"
  <table>
  <tr height=300>
    <td width=300 height=300><img src=""static/images/cards/stack_of_red_moons.svg"" width=""175px"" height=""250px""></img></td>
    <td width=300 height=300><img src=""static/images/cards/stack_of_black_stars.svg"" width=""175px"" height=""250px""></img></td>
  </tr>
  <tr height=200>
    <td width=300><img src=""static/images/keys/w.svg"" width=""35%"" height=""75%""></img></td>
    <td width=300><img src=""static/images/keys/o.svg"" width=""35%"" height=""75%""></img></td>
  </tr>
</table>
  ",79.0,1.0,,,,,,,,,,,,,,,,,,,,,,,,,,
214,0,,html-keyboard-response,214,339248,0.0-7.13-1.13,pkyneri5rd,2022-09-19 17:33:51.131,5f0f2ff0762218000970c967,3,38,41,37,53,26,Female ,529.0,,"
  <table>
  <tr height=300>
    <td width=300 height=300><img src=""static/images/cards/back_of_black_stars.svg"" width=""175px"" height=""250px""></img></td>
    <td width=300 height=300><img src=""static/images/cards/back_of_black_stars.svg"" width=""175px"" height=""250px""></img></td>
  </tr>
  <tr height=200>
    <td width=300><img src=""static/images/keys/z.svg"" width=""35%"" height=""75%""></img></td>
    <td width=300><img src=""static/images/keys/m.svg"" width=""35%"" height=""75%""></img></td>
  </tr>
</table>
  ",77.0,1.0,,,,,,,,,,,,,,,,,,,,,,,,,,
215,0,,html-keyboard-response,215,340750,0.0-7.13-2.13,pkyneri5rd,2022-09-19 17:33:51.131,5f0f2ff0762218000970c967,3,38,41,37,53,26,Female ,,,"
  <table>
  <tr height=300>
    <td width=300 height=300><img src=""static/images/cards/back_of_black_stars.svg"" width=""175px"" height=""250px""></img></td>
    <td width=300 height=300><img src=""static/images/cards/9_of_black_stars.svg"" width=""175px"" height=""250px""></img></td>
  </tr>
  <tr height=200>
    <td width=300><img src=""static/images/keys/z.svg"" width=""35%"" height=""75%""></img></td>
    <td width=300><img src=""static/images/keys/m.svg"" width=""35%"" height=""75%""></img></td>
  </tr>
</table>
  ",,,,,,,,,,,,,,,,,,,,,,,,,,,,
216,0,,html-keyboard-response,216,342252,0.0-7.13-3.13,pkyneri5rd,2022-09-19 17:33:51.131,5f0f2ff0762218000970c967,3,38,41,37,53,26,Female ,,,"<p style=""font-size:50px"">You win!
+10 points this round!</p>",,,,,,,,,,,,,,,,,,,,,,,,,,,,
217,0,,html-keyboard-response,217,342754,0.0-7.13-4.13,pkyneri5rd,2022-09-19 17:33:51.131,5f0f2ff0762218000970c967,3,38,41,37,53,26,Female ,,,,,,1.0,choice,13.0,B,C,red,black,moons,stars,B,C,C,black,stars,618.0,1.0,0.0,NA,right,529.0,9.0,1.0,1.0,,,
218,0,,html-keyboard-response,218,343410,0.0-7.14-0.14,pkyneri5rd,2022-09-19 17:33:51.131,5f0f2ff0762218000970c967,3,38,41,37,53,26,Female ,652.9999999999,,"
  <table>
  <tr height=300>
    <td width=300 height=300><img src=""static/images/cards/stack_of_red_stars.svg"" width=""175px"" height=""250px""></img></td>
    <td width=300 height=300><img src=""static/images/cards/stack_of_red_moons.svg"" width=""175px"" height=""250px""></img></td>
  </tr>
  <tr height=200>
    <td width=300><img src=""static/images/keys/w.svg"" width=""35%"" height=""75%""></img></td>
    <td width=300><img src=""static/images/keys/o.svg"" width=""35%"" height=""75%""></img></td>
  </tr>
</table>
  ",79.0,1.0,,,,,,,,,,,,,,,,,,,,,,,,,,
219,0,,html-keyboard-response,219,344304,0.0-7.14-1.14,pkyneri5rd,2022-09-19 17:33:51.131,5f0f2ff0762218000970c967,3,38,41,37,53,26,Female ,392.0,,"
  <table>
  <tr height=300>
    <td width=300 height=300><img src=""static/images/cards/back_of_red_moons.svg"" width=""175px"" height=""250px""></img></td>
    <td width=300 height=300><img src=""static/images/cards/back_of_red_moons.svg"" width=""175px"" height=""250px""></img></td>
  </tr>
  <tr height=200>
    <td width=300></td>
    <td width=300><img src=""static/images/keys/m.svg"" width=""35%"" height=""75%""></img></td>
  </tr>
</table>
  ",77.0,1.0,,,,,,,,,,,,,,,,,,,,,,,,,,
220,0,,html-keyboard-response,220,345807,0.0-7.14-2.14,pkyneri5rd,2022-09-19 17:33:51.131,5f0f2ff0762218000970c967,3,38,41,37,53,26,Female ,,,"
  <table>
  <tr height=300>
    <td width=300 height=300><img src=""static/images/cards/back_of_red_moons.svg"" width=""175px"" height=""250px""></img></td>
    <td width=300 height=300><img src=""static/images/cards/1_of_red_moons.svg"" width=""175px"" height=""250px""></img></td>
  </tr>
  <tr height=200>
    <td width=300></td>
    <td width=300><img src=""static/images/keys/m.svg"" width=""35%"" height=""75%""></img></td>
  </tr>
</table>
  ",,,,,,,,,,,,,,,,,,,,,,,,,,,,
221,0,,html-keyboard-response,221,347309,0.0-7.14-3.14,pkyneri5rd,2022-09-19 17:33:51.131,5f0f2ff0762218000970c967,3,38,41,37,53,26,Female ,,,"<p style=""font-size:50px"">You Lose!
No points this round.</p>",,,,,,,,,,,,,,,,,,,,,,,,,,,,
222,0,,html-keyboard-response,222,347810,0.0-7.14-4.14,pkyneri5rd,2022-09-19 17:33:51.131,5f0f2ff0762218000970c967,3,38,41,37,53,26,Female ,,,,,,1.0,choice,14.0,B,D,red,red,stars,moons,D,B,B,red,moons,652.9999999999,0.0,1.0,0,right,392.0,1.0,0.0,0.0,,,
223,0,,html-keyboard-response,223,348680,0.0-7.15-0.15,pkyneri5rd,2022-09-19 17:33:51.131,5f0f2ff0762218000970c967,3,38,41,37,53,26,Female ,869.0,,"
  <table>
  <tr height=300>
    <td width=300 height=300><img src=""static/images/cards/stack_of_black_moons.svg"" width=""175px"" height=""250px""></img></td>
    <td width=300 height=300><img src=""static/images/cards/stack_of_black_stars.svg"" width=""175px"" height=""250px""></img></td>
  </tr>
  <tr height=200>
    <td width=300><img src=""static/images/keys/w.svg"" width=""35%"" height=""75%""></img></td>
    <td width=300><img src=""static/images/keys/o.svg"" width=""35%"" height=""75%""></img></td>
  </tr>
</table>
  ",87.0,2.0,,,,,,,,,,,,,,,,,,,,,,,,,,
224,0,,html-keyboard-response,224,349784,0.0-7.15-1.15,pkyneri5rd,2022-09-19 17:33:51.131,5f0f2ff0762218000970c967,3,38,41,37,53,26,Female ,602.0,,"
  <table>
  <tr height=300>
    <td width=300 height=300><img src=""static/images/cards/back_of_black_moons.svg"" width=""175px"" height=""250px""></img></td>
    <td width=300 height=300><img src=""static/images/cards/back_of_black_moons.svg"" width=""175px"" height=""250px""></img></td>
  </tr>
  <tr height=200>
    <td width=300><img src=""static/images/keys/z.svg"" width=""35%"" height=""75%""></img></td>
    <td width=300><img src=""static/images/keys/m.svg"" width=""35%"" height=""75%""></img></td>
  </tr>
</table>
  ",77.0,1.0,,,,,,,,,,,,,,,,,,,,,,,,,,
225,0,,html-keyboard-response,225,351287,0.0-7.15-2.15,pkyneri5rd,2022-09-19 17:33:51.131,5f0f2ff0762218000970c967,3,38,41,37,53,26,Female ,,,"
  <table>
  <tr height=300>
    <td width=300 height=300><img src=""static/images/cards/back_of_black_moons.svg"" width=""175px"" height=""250px""></img></td>
    <td width=300 height=300><img src=""static/images/cards/1_of_black_moons.svg"" width=""175px"" height=""250px""></img></td>
  </tr>
  <tr height=200>
    <td width=300><img src=""static/images/keys/z.svg"" width=""35%"" height=""75%""></img></td>
    <td width=300><img src=""static/images/keys/m.svg"" width=""35%"" height=""75%""></img></td>
  </tr>
</table>
  ",,,,,,,,,,,,,,,,,,,,,,,,,,,,
226,0,,html-keyboard-response,226,352789,0.0-7.15-3.15,pkyneri5rd,2022-09-19 17:33:51.131,5f0f2ff0762218000970c967,3,38,41,37,53,26,Female ,,,"<p style=""font-size:50px"">You Lose!
No points this round.</p>",,,,,,,,,,,,,,,,,,,,,,,,,,,,
227,0,,html-keyboard-response,227,353290,0.0-7.15-4.15,pkyneri5rd,2022-09-19 17:33:51.131,5f0f2ff0762218000970c967,3,38,41,37,53,26,Female ,,,,,,1.0,choice,15.0,A,C,black,black,moons,stars,A,C,A,black,moons,869.0,1.0,1.0,NA,right,602.0,1.0,0.0,0.0,,,
228,0,,html-keyboard-response,228,353848,0.0-7.16-0.16,pkyneri5rd,2022-09-19 17:33:51.131,5f0f2ff0762218000970c967,3,38,41,37,53,26,Female ,555.9999999999,,"
  <table>
  <tr height=300>
    <td width=300 height=300><img src=""static/images/cards/stack_of_black_moons.svg"" width=""175px"" height=""250px""></img></td>
    <td width=300 height=300><img src=""static/images/cards/stack_of_red_bolts.svg"" width=""175px"" height=""250px""></img></td>
  </tr>
  <tr height=200>
    <td width=300><img src=""static/images/keys/w.svg"" width=""35%"" height=""75%""></img></td>
    <td width=300><img src=""static/images/keys/o.svg"" width=""35%"" height=""75%""></img></td>
  </tr>
</table>
  ",79.0,1.0,,,,,,,,,,,,,,,,,,,,,,,,,,
229,0,,html-keyboard-response,229,356051,0.0-7.16-1.16,pkyneri5rd,2022-09-19 17:33:51.131,5f0f2ff0762218000970c967,3,38,41,37,53,26,Female ,1700.0,,"
  <table>
  <tr height=300>
    <td width=300 height=300><img src=""static/images/cards/back_of_red_bolts.svg"" width=""175px"" height=""250px""></img></td>
    <td width=300 height=300><img src=""static/images/cards/back_of_red_bolts.svg"" width=""175px"" height=""250px""></img></td>
  </tr>
  <tr height=200>
    <td width=300><img src=""static/images/keys/z.svg"" width=""35%"" height=""75%""></img></td>
    <td width=300><img src=""static/images/keys/m.svg"" width=""35%"" height=""75%""></img></td>
  </tr>
</table>
  ",90.0,3.0,,,,,,,,,,,,,,,,,,,,,,,,,,
230,0,,html-keyboard-response,230,357556,0.0-7.16-2.16,pkyneri5rd,2022-09-19 17:33:51.131,5f0f2ff0762218000970c967,3,38,41,37,53,26,Female ,,,"
  <table>
  <tr height=300>
    <td width=300 height=300><img src=""static/images/cards/2_of_red_bolts.svg"" width=""175px"" height=""250px""></img></td>
    <td width=300 height=300><img src=""static/images/cards/back_of_red_bolts.svg"" width=""175px"" height=""250px""></img></td>
  </tr>
  <tr height=200>
    <td width=300><img src=""static/images/keys/z.svg"" width=""35%"" height=""75%""></img></td>
    <td width=300><img src=""static/images/keys/m.svg"" width=""35%"" height=""75%""></img></td>
  </tr>
</table>
  ",,,,,,,,,,,,,,,,,,,,,,,,,,,,
231,0,,html-keyboard-response,231,359058,0.0-7.16-3.16,pkyneri5rd,2022-09-19 17:33:51.131,5f0f2ff0762218000970c967,3,38,41,37,53,26,Female ,,,"<p style=""font-size:50px"">You win!
+10 points this round!</p>",,,,,,,,,,,,,,,,,,,,,,,,,,,,
232,0,,html-keyboard-response,232,359558,0.0-7.16-4.16,pkyneri5rd,2022-09-19 17:33:51.131,5f0f2ff0762218000970c967,3,38,41,37,53,26,Female ,,,,,,1.0,choice,16.0,A,Xc,black,red,moons,bolts,A,Xc,Xc,red,bolts,555.9999999999,1.0,0.0,NA,left,1700.0,2.0,0.0,1.0,,,
233,0,,html-keyboard-response,233,360400,0.0-7.17-0.17,pkyneri5rd,2022-09-19 17:33:51.131,5f0f2ff0762218000970c967,3,38,41,37,53,26,Female ,840.0000000001,,"
  <table>
  <tr height=300>
    <td width=300 height=300><img src=""static/images/cards/stack_of_black_stars.svg"" width=""175px"" height=""250px""></img></td>
    <td width=300 height=300><img src=""static/images/cards/stack_of_red_moons.svg"" width=""175px"" height=""250px""></img></td>
  </tr>
  <tr height=200>
    <td width=300><img src=""static/images/keys/w.svg"" width=""35%"" height=""75%""></img></td>
