,index,success,trial_type,trial_index,time_elapsed,internal_node_id,subject,date,prol_id,ctbl,sense_of_control_A,sense_of_control_B,sense_of_control_C,sense_of_control_D,age,gender,rt,url,stimulus,key_press,npress,is_data_trial,phase,trial,deck1,deck2,col1,col2,sym1,sym2,deck_l,deck_r,chosen_deck,chosen_col,chosen_sym,deck_rt,choose_choice,mutual_info,hidden_key,chosen_card,card_rt,player_num,win_card,outcome,mock_rating,response,responses
0,0,1.0,fullscreen,0,9673,0.0-0.0,0res8o2mx8m,2022-09-19 16:45:09.902,5f1338a87447d0308e865fd0,3,64,48,47,40,20,Female,,,,,,,,,,,,,,,,,,,,,,,,,,,,,,,
1,0,,external-html,1,18527,0.0-1.0,0res8o2mx8m,2022-09-19 16:45:09.902,5f1338a87447d0308e865fd0,3,64,48,47,40,20,Female,8717.6999999881,static/js/sub/consent.html,,,,,,,,,,,,,,,,,,,,,,,,,,,,,
2,0,,call-function,2,18531,0.0-2.0,0res8o2mx8m,2022-09-19 16:45:09.902,5f1338a87447d0308e865fd0,3,64,48,47,40,20,Female,,,,,,,,,,,,,,,,,,,,,,,,,,,,,,,
3,0,,image-keyboard-response,3,23393,0.0-3.0-0.0,0res8o2mx8m,2022-09-19 16:45:09.902,5f1338a87447d0308e865fd0,3,64,48,47,40,20,Female,4857.3000000119,,static/images/instructions_CB_3/Slide1.png,39.0,,,,,,,,,,,,,,,,,,,,,,,,,,,
4,0,,image-keyboard-response,4,32323,0.0-3.1-0.1,0res8o2mx8m,2022-09-19 16:45:09.902,5f1338a87447d0308e865fd0,3,64,48,47,40,20,Female,8925.6999999881,,static/images/instructions_CB_3/Slide2.png,39.0,,,,,,,,,,,,,,,,,,,,,,,,,,,
5,0,,image-keyboard-response,5,37364,0.0-3.2-0.2,0res8o2mx8m,2022-09-19 16:45:09.902,5f1338a87447d0308e865fd0,3,64,48,47,40,20,Female,5037.5,,static/images/instructions_CB_3/Slide3.png,39.0,,,,,,,,,,,,,,,,,,,,,,,,,,,
6,0,,image-keyboard-response,6,44948,0.0-3.3-0.3,0res8o2mx8m,2022-09-19 16:45:09.902,5f1338a87447d0308e865fd0,3,64,48,47,40,20,Female,7581.2000000179,,static/images/instructions_CB_3/Slide4.png,39.0,,,,,,,,,,,,,,,,,,,,,,,,,,,
7,0,,image-keyboard-response,7,51048,0.0-3.4-0.4,0res8o2mx8m,2022-09-19 16:45:09.902,5f1338a87447d0308e865fd0,3,64,48,47,40,20,Female,6096.6999999881,,static/images/instructions_CB_3/Slide5.png,39.0,,,,,,,,,,,,,,,,,,,,,,,,,,,
8,0,,image-keyboard-response,8,54859,0.0-3.5-0.5,0res8o2mx8m,2022-09-19 16:45:09.902,5f1338a87447d0308e865fd0,3,64,48,47,40,20,Female,3803.7999999821,,static/images/instructions_CB_3/Slide6.png,37.0,,,,,,,,,,,,,,,,,,,,,,,,,,,
9,0,,image-keyboard-response,9,55506,0.0-3.6-0.6,0res8o2mx8m,2022-09-19 16:45:09.902,5f1338a87447d0308e865fd0,3,64,48,47,40,20,Female,644.099999994,,static/images/instructions_CB_3/Slide5.png,39.0,,,,,,,,,,,,,,,,,,,,,,,,,,,
10,0,,image-keyboard-response,10,55785,0.0-3.7-0.7,0res8o2mx8m,2022-09-19 16:45:09.902,5f1338a87447d0308e865fd0,3,64,48,47,40,20,Female,276.5,,static/images/instructions_CB_3/Slide6.png,37.0,,,,,,,,,,,,,,,,,,,,,,,,,,,
11,0,,image-keyboard-response,11,56015,0.0-3.8-0.8,0res8o2mx8m,2022-09-19 16:45:09.902,5f1338a87447d0308e865fd0,3,64,48,47,40,20,Female,227.6000000238,,static/images/instructions_CB_3/Slide5.png,39.0,,,,,,,,,,,,,,,,,,,,,,,,,,,
12,0,,image-keyboard-response,12,57505,0.0-3.9-0.9,0res8o2mx8m,2022-09-19 16:45:09.902,5f1338a87447d0308e865fd0,3,64,48,47,40,20,Female,1487.599999994,,static/images/instructions_CB_3/Slide6.png,39.0,,,,,,,,,,,,,,,,,,,,,,,,,,,
13,0,,image-keyboard-response,13,60519,0.0-3.10-0.10,0res8o2mx8m,2022-09-19 16:45:09.902,5f1338a87447d0308e865fd0,3,64,48,47,40,20,Female,3011.5,,static/images/instructions_CB_3/Slide7.png,39.0,,,,,,,,,,,,,,,,,,,,,,,,,,,
14,0,,image-keyboard-response,14,70772,0.0-3.11-0.11,0res8o2mx8m,2022-09-19 16:45:09.902,5f1338a87447d0308e865fd0,3,64,48,47,40,20,Female,10251.1000000238,,static/images/instructions_CB_3/Slide8.png,39.0,,,,,,,,,,,,,,,,,,,,,,,,,,,
15,0,,image-keyboard-response,15,76254,0.0-3.12-0.12,0res8o2mx8m,2022-09-19 16:45:09.902,5f1338a87447d0308e865fd0,3,64,48,47,40,20,Female,5478.8999999762,,static/images/instructions_CB_3/Slide9.png,39.0,,,,,,,,,,,,,,,,,,,,,,,,,,,
16,0,,image-keyboard-response,16,85213,0.0-3.13-0.13,0res8o2mx8m,2022-09-19 16:45:09.902,5f1338a87447d0308e865fd0,3,64,48,47,40,20,Female,8957.0,,static/images/instructions_CB_3/Slide10.png,39.0,,,,,,,,,,,,,,,,,,,,,,,,,,,
17,0,,image-keyboard-response,17,92307,0.0-3.14-0.14,0res8o2mx8m,2022-09-19 16:45:09.902,5f1338a87447d0308e865fd0,3,64,48,47,40,20,Female,7091.599999994,,static/images/instructions_CB_3/Slide11.png,39.0,,,,,,,,,,,,,,,,,,,,,,,,,,,
18,0,,image-keyboard-response,18,107157,0.0-3.15-0.15,0res8o2mx8m,2022-09-19 16:45:09.902,5f1338a87447d0308e865fd0,3,64,48,47,40,20,Female,14843.6999999881,,static/images/instructions_CB_3/Slide12.png,39.0,,,,,,,,,,,,,,,,,,,,,,,,,,,
19,0,,image-keyboard-response,19,126089,0.0-3.16-0.16,0res8o2mx8m,2022-09-19 16:45:09.902,5f1338a87447d0308e865fd0,3,64,48,47,40,20,Female,18929.3000000119,,static/images/instructions_CB_3/Slide13.png,39.0,,,,,,,,,,,,,,,,,,,,,,,,,,,
20,0,,image-keyboard-response,20,136367,0.0-3.17-0.17,0res8o2mx8m,2022-09-19 16:45:09.902,5f1338a87447d0308e865fd0,3,64,48,47,40,20,Female,10275.1999999881,,static/images/instructions_CB_3/Slide14.png,37.0,,,,,,,,,,,,,,,,,,,,,,,,,,,
21,0,,image-keyboard-response,21,138907,0.0-3.18-0.18,0res8o2mx8m,2022-09-19 16:45:09.902,5f1338a87447d0308e865fd0,3,64,48,47,40,20,Female,2537.400000006,,static/images/instructions_CB_3/Slide13.png,39.0,,,,,,,,,,,,,,,,,,,,,,,,,,,
22,0,,image-keyboard-response,22,139195,0.0-3.19-0.19,0res8o2mx8m,2022-09-19 16:45:09.902,5f1338a87447d0308e865fd0,3,64,48,47,40,20,Female,285.599999994,,static/images/instructions_CB_3/Slide14.png,39.0,,,,,,,,,,,,,,,,,,,,,,,,,,,
23,0,,image-keyboard-response,23,144683,0.0-3.20-0.20,0res8o2mx8m,2022-09-19 16:45:09.902,5f1338a87447d0308e865fd0,3,64,48,47,40,20,Female,5486.400000006,,static/images/instructions_CB_3/Slide15.png,39.0,,,,,,,,,,,,,,,,,,,,,,,,,,,
24,0,,image-keyboard-response,24,149306,0.0-3.21-0.21,0res8o2mx8m,2022-09-19 16:45:09.902,5f1338a87447d0308e865fd0,3,64,48,47,40,20,Female,4618.6999999881,,static/images/instructions_CB_3/Slide16.png,39.0,,,,,,,,,,,,,,,,,,,,,,,,,,,
25,0,,image-keyboard-response,25,153778,0.0-3.22-0.22,0res8o2mx8m,2022-09-19 16:45:09.902,5f1338a87447d0308e865fd0,3,64,48,47,40,20,Female,4470.3000000119,,static/images/instructions_CB_3/Slide17.png,39.0,,,,,,,,,,,,,,,,,,,,,,,,,,,
26,0,,image-keyboard-response,26,155249,0.0-3.23-0.23,0res8o2mx8m,2022-09-19 16:45:09.902,5f1338a87447d0308e865fd0,3,64,48,47,40,20,Female,1467.900000006,,static/images/instructions_CB_3/Slide18.png,39.0,,,,,,,,,,,,,,,,,,,,,,,,,,,
27,0,,image-keyboard-response,27,157295,0.0-3.24-0.24,0res8o2mx8m,2022-09-19 16:45:09.902,5f1338a87447d0308e865fd0,3,64,48,47,40,20,Female,2044.3000000119,,static/images/instructions_CB_3/Slide19.png,39.0,,,,,,,,,,,,,,,,,,,,,,,,,,,
28,0,,html-keyboard-response,28,158810,0.0-4.0-0.0,0res8o2mx8m,2022-09-19 16:45:09.902,5f1338a87447d0308e865fd0,3,64,48,47,40,20,Female,,,"<img src=""static/images/cards/stack_of_black_moons.svg"" width=""175px"" height=""250px""></img>",,,,,,,,,,,,,,,,,,,,,,,,,,,,
29,0,,html-keyboard-response,29,161112,0.0-4.0-1.0,0res8o2mx8m,2022-09-19 16:45:09.902,5f1338a87447d0308e865fd0,3,64,48,47,40,20,Female,1794.6000000238,,"
  <table>
  <tr height=300>
    <td width=300 height=300><img src=""static/images/cards/back_of_black_moons.svg"" width=""175px"" height=""250px""></img></td>
    <td width=300 height=300><img src=""static/images/cards/back_of_black_moons.svg"" width=""175px"" height=""250px""></img></td>
  </tr>
  <tr height=200>
    <td width=300><img src=""static/images/keys/z.svg"" width=""35%"" height=""75%""></img></td>
    <td width=300><img src=""static/images/keys/m.svg"" width=""35%"" height=""75%""></img></td>
  </tr>
</table>
  ",77.0,1.0,,,,,,,,,,,,,,,,,,,,,,,,,,
30,0,,html-keyboard-response,30,162624,0.0-4.0-2.0,0res8o2mx8m,2022-09-19 16:45:09.902,5f1338a87447d0308e865fd0,3,64,48,47,40,20,Female,,,"
  <table>
  <tr height=300>
    <td width=300 height=300><img src=""static/images/cards/back_of_black_moons.svg"" width=""175px"" height=""250px""></img></td>
    <td width=300 height=300><img src=""static/images/cards/1_of_black_moons.svg"" width=""175px"" height=""250px""></img></td>
  </tr>
  <tr height=200>
    <td width=300><img src=""static/images/keys/z.svg"" width=""35%"" height=""75%""></img></td>
    <td width=300><img src=""static/images/keys/m.svg"" width=""35%"" height=""75%""></img></td>
  </tr>
</table>
  ",,,,,,,,,,,,,,,,,,,,,,,,,,,,
31,0,,html-keyboard-response,31,164131,0.0-4.0-3.0,0res8o2mx8m,2022-09-19 16:45:09.902,5f1338a87447d0308e865fd0,3,64,48,47,40,20,Female,,,"<p style=""font-size:50px"">You Lose!
No points this round.</p>",,,,,,,,,,,,,,,,,,,,,,,,,,,,
32,0,,html-keyboard-response,32,164652,0.0-4.0-4.0,0res8o2mx8m,2022-09-19 16:45:09.902,5f1338a87447d0308e865fd0,3,64,48,47,40,20,Female,,,,,,1.0,learning,0.0,A,,black,,moons,,,,A,black,moons,,1.0,1.0,NA,right,1794.6000000238,1.0,0.0,0.0,,,
33,0,,html-keyboard-response,33,166157,0.0-4.1-0.1,0res8o2mx8m,2022-09-19 16:45:09.902,5f1338a87447d0308e865fd0,3,64,48,47,40,20,Female,,,"<img src=""static/images/cards/stack_of_red_moons.svg"" width=""175px"" height=""250px""></img>",,,,,,,,,,,,,,,,,,,,,,,,,,,,
34,0,,html-keyboard-response,34,167882,0.0-4.1-1.1,0res8o2mx8m,2022-09-19 16:45:09.902,5f1338a87447d0308e865fd0,3,64,48,47,40,20,Female,1218.7000000179,,"
  <table>
  <tr height=300>
    <td width=300 height=300><img src=""static/images/cards/back_of_red_moons.svg"" width=""175px"" height=""250px""></img></td>
    <td width=300 height=300><img src=""static/images/cards/back_of_red_moons.svg"" width=""175px"" height=""250px""></img></td>
  </tr>
  <tr height=200>
    <td width=300></td>
    <td width=300><img src=""static/images/keys/m.svg"" width=""35%"" height=""75%""></img></td>
  </tr>
</table>
  ",77.0,1.0,,,,,,,,,,,,,,,,,,,,,,,,,,
35,0,,html-keyboard-response,35,169392,0.0-4.1-2.1,0res8o2mx8m,2022-09-19 16:45:09.902,5f1338a87447d0308e865fd0,3,64,48,47,40,20,Female,,,"
  <table>
  <tr height=300>
    <td width=300 height=300><img src=""static/images/cards/back_of_red_moons.svg"" width=""175px"" height=""250px""></img></td>
    <td width=300 height=300><img src=""static/images/cards/3_of_red_moons.svg"" width=""175px"" height=""250px""></img></td>
  </tr>
  <tr height=200>
    <td width=300></td>
    <td width=300><img src=""static/images/keys/m.svg"" width=""35%"" height=""75%""></img></td>
  </tr>
</table>
  ",,,,,,,,,,,,,,,,,,,,,,,,,,,,
36,0,,html-keyboard-response,36,170921,0.0-4.1-3.1,0res8o2mx8m,2022-09-19 16:45:09.902,5f1338a87447d0308e865fd0,3,64,48,47,40,20,Female,,,"<p style=""font-size:50px"">You Lose!
No points this round.</p>",,,,,,,,,,,,,,,,,,,,,,,,,,,,
37,0,,html-keyboard-response,37,171431,0.0-4.1-4.1,0res8o2mx8m,2022-09-19 16:45:09.902,5f1338a87447d0308e865fd0,3,64,48,47,40,20,Female,,,,,,1.0,learning,1.0,B,,red,,moons,,,,B,red,moons,,0.0,1.0,0,right,1218.7000000179,3.0,0.0,0.0,,,
38,0,,html-keyboard-response,38,172948,0.0-4.2-0.2,0res8o2mx8m,2022-09-19 16:45:09.902,5f1338a87447d0308e865fd0,3,64,48,47,40,20,Female,,,"<img src=""static/images/cards/stack_of_black_stars.svg"" width=""175px"" height=""250px""></img>",,,,,,,,,,,,,,,,,,,,,,,,,,,,
39,0,,html-keyboard-response,39,174265,0.0-4.2-1.2,0res8o2mx8m,2022-09-19 16:45:09.902,5f1338a87447d0308e865fd0,3,64,48,47,40,20,Female,802.3000000119,,"
  <table>
  <tr height=300>
    <td width=300 height=300><img src=""static/images/cards/back_of_black_stars.svg"" width=""175px"" height=""250px""></img></td>
    <td width=300 height=300><img src=""static/images/cards/back_of_black_stars.svg"" width=""175px"" height=""250px""></img></td>
  </tr>
  <tr height=200>
    <td width=300><img src=""static/images/keys/z.svg"" width=""35%"" height=""75%""></img></td>
    <td width=300><img src=""static/images/keys/m.svg"" width=""35%"" height=""75%""></img></td>
  </tr>
</table>
  ",90.0,1.0,,,,,,,,,,,,,,,,,,,,,,,,,,
40,0,,html-keyboard-response,40,175785,0.0-4.2-2.2,0res8o2mx8m,2022-09-19 16:45:09.902,5f1338a87447d0308e865fd0,3,64,48,47,40,20,Female,,,"
  <table>
  <tr height=300>
    <td width=300 height=300><img src=""static/images/cards/6_of_black_stars.svg"" width=""175px"" height=""250px""></img></td>
    <td width=300 height=300><img src=""static/images/cards/back_of_black_stars.svg"" width=""175px"" height=""250px""></img></td>
  </tr>
  <tr height=200>
    <td width=300><img src=""static/images/keys/z.svg"" width=""35%"" height=""75%""></img></td>
    <td width=300><img src=""static/images/keys/m.svg"" width=""35%"" height=""75%""></img></td>
  </tr>
</table>
  ",,,,,,,,,,,,,,,,,,,,,,,,,,,,
41,0,,html-keyboard-response,41,177294,0.0-4.2-3.2,0res8o2mx8m,2022-09-19 16:45:09.902,5f1338a87447d0308e865fd0,3,64,48,47,40,20,Female,,,"<p style=""font-size:50px"">You Lose!
No points this round.</p>",,,,,,,,,,,,,,,,,,,,,,,,,,,,
42,0,,html-keyboard-response,42,177805,0.0-4.2-4.2,0res8o2mx8m,2022-09-19 16:45:09.902,5f1338a87447d0308e865fd0,3,64,48,47,40,20,Female,,,,,,1.0,learning,2.0,C,,black,,stars,,,,C,black,stars,,1.0,0.0,NA,left,802.3000000119,6.0,1.0,0.0,,,
43,0,,html-keyboard-response,43,179313,0.0-4.3-0.3,0res8o2mx8m,2022-09-19 16:45:09.902,5f1338a87447d0308e865fd0,3,64,48,47,40,20,Female,,,"<img src=""static/images/cards/stack_of_red_stars.svg"" width=""175px"" height=""250px""></img>",,,,,,,,,,,,,,,,,,,,,,,,,,,,
44,0,,html-keyboard-response,44,180525,0.0-4.3-1.3,0res8o2mx8m,2022-09-19 16:45:09.902,5f1338a87447d0308e865fd0,3,64,48,47,40,20,Female,706.0,,"
  <table>
  <tr height=300>
    <td width=300 height=300><img src=""static/images/cards/back_of_red_stars.svg"" width=""175px"" height=""250px""></img></td>
    <td width=300 height=300><img src=""static/images/cards/back_of_red_stars.svg"" width=""175px"" height=""250px""></img></td>
  </tr>
  <tr height=200>
    <td width=300><img src=""static/images/keys/z.svg"" width=""35%"" height=""75%""></img></td>
    <td width=300></td>
  </tr>
</table>
  ",90.0,1.0,,,,,,,,,,,,,,,,,,,,,,,,,,
45,0,,html-keyboard-response,45,182041,0.0-4.3-2.3,0res8o2mx8m,2022-09-19 16:45:09.902,5f1338a87447d0308e865fd0,3,64,48,47,40,20,Female,,,"
  <table>
  <tr height=300>
    <td width=300 height=300><img src=""static/images/cards/1_of_red_stars.svg"" width=""175px"" height=""250px""></img></td>
    <td width=300 height=300><img src=""static/images/cards/back_of_red_stars.svg"" width=""175px"" height=""250px""></img></td>
  </tr>
  <tr height=200>
    <td width=300><img src=""static/images/keys/z.svg"" width=""35%"" height=""75%""></img></td>
    <td width=300></td>
  </tr>
</table>
  ",,,,,,,,,,,,,,,,,,,,,,,,,,,,
46,0,,html-keyboard-response,46,183548,0.0-4.3-3.3,0res8o2mx8m,2022-09-19 16:45:09.902,5f1338a87447d0308e865fd0,3,64,48,47,40,20,Female,,,"<p style=""font-size:50px"">You win!
+10 points this round!</p>",,,,,,,,,,,,,,,,,,,,,,,,,,,,
47,0,,html-keyboard-response,47,184067,0.0-4.3-4.3,0res8o2mx8m,2022-09-19 16:45:09.902,5f1338a87447d0308e865fd0,3,64,48,47,40,20,Female,,,,,,1.0,learning,3.0,D,,red,,stars,,,,D,red,stars,,0.0,0.0,1,left,706.0,1.0,0.0,1.0,,,
48,0,,html-keyboard-response,48,185578,0.0-4.4-0.4,0res8o2mx8m,2022-09-19 16:45:09.902,5f1338a87447d0308e865fd0,3,64,48,47,40,20,Female,,,"<img src=""static/images/cards/stack_of_red_bolts.svg"" width=""175px"" height=""250px""></img>",,,,,,,,,,,,,,,,,,,,,,,,,,,,
49,0,,html-keyboard-response,49,186821,0.0-4.4-1.4,0res8o2mx8m,2022-09-19 16:45:09.902,5f1338a87447d0308e865fd0,3,64,48,47,40,20,Female,736.6000000238,,"
  <table>
  <tr height=300>
    <td width=300 height=300><img src=""static/images/cards/back_of_red_bolts.svg"" width=""175px"" height=""250px""></img></td>
    <td width=300 height=300><img src=""static/images/cards/back_of_red_bolts.svg"" width=""175px"" height=""250px""></img></td>
  </tr>
  <tr height=200>
    <td width=300><img src=""static/images/keys/z.svg"" width=""35%"" height=""75%""></img></td>
    <td width=300><img src=""static/images/keys/m.svg"" width=""35%"" height=""75%""></img></td>
  </tr>
</table>
  ",77.0,1.0,,,,,,,,,,,,,,,,,,,,,,,,,,
50,0,,html-keyboard-response,50,188325,0.0-4.4-2.4,0res8o2mx8m,2022-09-19 16:45:09.902,5f1338a87447d0308e865fd0,3,64,48,47,40,20,Female,,,"
  <table>
  <tr height=300>
    <td width=300 height=300><img src=""static/images/cards/back_of_red_bolts.svg"" width=""175px"" height=""250px""></img></td>
    <td width=300 height=300><img src=""static/images/cards/2_of_red_bolts.svg"" width=""175px"" height=""250px""></img></td>
  </tr>
  <tr height=200>
    <td width=300><img src=""static/images/keys/z.svg"" width=""35%"" height=""75%""></img></td>
    <td width=300><img src=""static/images/keys/m.svg"" width=""35%"" height=""75%""></img></td>
  </tr>
</table>
  ",,,,,,,,,,,,,,,,,,,,,,,,,,,,
51,0,,html-keyboard-response,51,189828,0.0-4.4-3.4,0res8o2mx8m,2022-09-19 16:45:09.902,5f1338a87447d0308e865fd0,3,64,48,47,40,20,Female,,,"<p style=""font-size:50px"">You win!
+10 points this round!</p>",,,,,,,,,,,,,,,,,,,,,,,,,,,,
52,0,,html-keyboard-response,52,190341,0.0-4.4-4.4,0res8o2mx8m,2022-09-19 16:45:09.902,5f1338a87447d0308e865fd0,3,64,48,47,40,20,Female,,,,,,1.0,learning,4.0,Xc,,red,,bolts,,,,Xc,red,bolts,,1.0,0.0,NA,right,736.6000000238,2.0,0.0,1.0,,,
53,0,,html-keyboard-response,53,191855,0.0-4.5-0.5,0res8o2mx8m,2022-09-19 16:45:09.902,5f1338a87447d0308e865fd0,3,64,48,47,40,20,Female,,,"<img src=""static/images/cards/stack_of_black_bolts.svg"" width=""175px"" height=""250px""></img>",,,,,,,,,,,,,,,,,,,,,,,,,,,,
54,0,,html-keyboard-response,54,193547,0.0-4.5-1.5,0res8o2mx8m,2022-09-19 16:45:09.902,5f1338a87447d0308e865fd0,3,64,48,47,40,20,Female,1176.400000006,,"
  <table>
  <tr height=300>
    <td width=300 height=300><img src=""static/images/cards/back_of_black_bolts.svg"" width=""175px"" height=""250px""></img></td>
    <td width=300 height=300><img src=""static/images/cards/back_of_black_bolts.svg"" width=""175px"" height=""250px""></img></td>
  </tr>
  <tr height=200>
    <td width=300><img src=""static/images/keys/z.svg"" width=""35%"" height=""75%""></img></td>
    <td width=300></td>
  </tr>
</table>
  ",90.0,1.0,,,,,,,,,,,,,,,,,,,,,,,,,,
55,0,,html-keyboard-response,55,195066,0.0-4.5-2.5,0res8o2mx8m,2022-09-19 16:45:09.902,5f1338a87447d0308e865fd0,3,64,48,47,40,20,Female,,,"
  <table>
  <tr height=300>
    <td width=300 height=300><img src=""static/images/cards/10_of_black_bolts.svg"" width=""175px"" height=""250px""></img></td>
    <td width=300 height=300><img src=""static/images/cards/back_of_black_bolts.svg"" width=""175px"" height=""250px""></img></td>
  </tr>
  <tr height=200>
    <td width=300><img src=""static/images/keys/z.svg"" width=""35%"" height=""75%""></img></td>
    <td width=300></td>
  </tr>
</table>
  ",,,,,,,,,,,,,,,,,,,,,,,,,,,,
56,0,,html-keyboard-response,56,196580,0.0-4.5-3.5,0res8o2mx8m,2022-09-19 16:45:09.902,5f1338a87447d0308e865fd0,3,64,48,47,40,20,Female,,,"<p style=""font-size:50px"">You win!
+10 points this round!</p>",,,,,,,,,,,,,,,,,,,,,,,,,,,,
57,0,,html-keyboard-response,57,197091,0.0-4.5-4.5,0res8o2mx8m,2022-09-19 16:45:09.902,5f1338a87447d0308e865fd0,3,64,48,47,40,20,Female,,,,,,1.0,learning,5.0,Xnc,,black,,bolts,,,,Xnc,black,bolts,,0.0,0.0,1,left,1176.400000006,10.0,1.0,1.0,,,
58,0,,html-keyboard-response,58,198606,0.0-4.6-0.6,0res8o2mx8m,2022-09-19 16:45:09.902,5f1338a87447d0308e865fd0,3,64,48,47,40,20,Female,,,"<img src=""static/images/cards/stack_of_black_moons.svg"" width=""175px"" height=""250px""></img>",,,,,,,,,,,,,,,,,,,,,,,,,,,,
59,0,,html-keyboard-response,59,199614,0.0-4.6-1.6,0res8o2mx8m,2022-09-19 16:45:09.902,5f1338a87447d0308e865fd0,3,64,48,47,40,20,Female,500.400000006,,"
  <table>
  <tr height=300>
    <td width=300 height=300><img src=""static/images/cards/back_of_black_moons.svg"" width=""175px"" height=""250px""></img></td>
    <td width=300 height=300><img src=""static/images/cards/back_of_black_moons.svg"" width=""175px"" height=""250px""></img></td>
  </tr>
  <tr height=200>
    <td width=300><img src=""static/images/keys/z.svg"" width=""35%"" height=""75%""></img></td>
    <td width=300><img src=""static/images/keys/m.svg"" width=""35%"" height=""75%""></img></td>
  </tr>
</table>
  ",77.0,1.0,,,,,,,,,,,,,,,,,,,,,,,,,,
60,0,,html-keyboard-response,60,201118,0.0-4.6-2.6,0res8o2mx8m,2022-09-19 16:45:09.902,5f1338a87447d0308e865fd0,3,64,48,47,40,20,Female,,,"
  <table>
  <tr height=300>
    <td width=300 height=300><img src=""static/images/cards/back_of_black_moons.svg"" width=""175px"" height=""250px""></img></td>
    <td width=300 height=300><img src=""static/images/cards/3_of_black_moons.svg"" width=""175px"" height=""250px""></img></td>
  </tr>
  <tr height=200>
    <td width=300><img src=""static/images/keys/z.svg"" width=""35%"" height=""75%""></img></td>
    <td width=300><img src=""static/images/keys/m.svg"" width=""35%"" height=""75%""></img></td>
  </tr>
</table>
  ",,,,,,,,,,,,,,,,,,,,,,,,,,,,
61,0,,html-keyboard-response,61,202636,0.0-4.6-3.6,0res8o2mx8m,2022-09-19 16:45:09.902,5f1338a87447d0308e865fd0,3,64,48,47,40,20,Female,,,"<p style=""font-size:50px"">You Lose!
No points this round.</p>",,,,,,,,,,,,,,,,,,,,,,,,,,,,
62,0,,html-keyboard-response,62,203155,0.0-4.6-4.6,0res8o2mx8m,2022-09-19 16:45:09.902,5f1338a87447d0308e865fd0,3,64,48,47,40,20,Female,,,,,,1.0,learning,6.0,A,,black,,moons,,,,A,black,moons,,1.0,1.0,NA,right,500.400000006,3.0,0.0,0.0,,,
63,0,,html-keyboard-response,63,204665,0.0-4.7-0.7,0res8o2mx8m,2022-09-19 16:45:09.902,5f1338a87447d0308e865fd0,3,64,48,47,40,20,Female,,,"<img src=""static/images/cards/stack_of_red_moons.svg"" width=""175px"" height=""250px""></img>",,,,,,,,,,,,,,,,,,,,,,,,,,,,
64,0,,html-keyboard-response,64,205961,0.0-4.7-1.7,0res8o2mx8m,2022-09-19 16:45:09.902,5f1338a87447d0308e865fd0,3,64,48,47,40,20,Female,780.8000000119,,"
  <table>
  <tr height=300>
    <td width=300 height=300><img src=""static/images/cards/back_of_red_moons.svg"" width=""175px"" height=""250px""></img></td>
    <td width=300 height=300><img src=""static/images/cards/back_of_red_moons.svg"" width=""175px"" height=""250px""></img></td>
  </tr>
  <tr height=200>
    <td width=300><img src=""static/images/keys/z.svg"" width=""35%"" height=""75%""></img></td>
    <td width=300></td>
  </tr>
</table>
  ",90.0,1.0,,,,,,,,,,,,,,,,,,,,,,,,,,
65,0,,html-keyboard-response,65,207471,0.0-4.7-2.7,0res8o2mx8m,2022-09-19 16:45:09.902,5f1338a87447d0308e865fd0,3,64,48,47,40,20,Female,,,"
  <table>
  <tr height=300>
    <td width=300 height=300><img src=""static/images/cards/10_of_red_moons.svg"" width=""175px"" height=""250px""></img></td>
    <td width=300 height=300><img src=""static/images/cards/back_of_red_moons.svg"" width=""175px"" height=""250px""></img></td>
  </tr>
  <tr height=200>
    <td width=300><img src=""static/images/keys/z.svg"" width=""35%"" height=""75%""></img></td>
    <td width=300></td>
  </tr>
</table>
  ",,,,,,,,,,,,,,,,,,,,,,,,,,,,
66,0,,html-keyboard-response,66,208994,0.0-4.7-3.7,0res8o2mx8m,2022-09-19 16:45:09.902,5f1338a87447d0308e865fd0,3,64,48,47,40,20,Female,,,"<p style=""font-size:50px"">You win!
+10 points this round!</p>",,,,,,,,,,,,,,,,,,,,,,,,,,,,
67,0,,html-keyboard-response,67,209507,0.0-4.7-4.7,0res8o2mx8m,2022-09-19 16:45:09.902,5f1338a87447d0308e865fd0,3,64,48,47,40,20,Female,,,,,,1.0,learning,7.0,B,,red,,moons,,,,B,red,moons,,0.0,1.0,1,left,780.8000000119,10.0,1.0,1.0,,,
68,0,,html-keyboard-response,68,211013,0.0-4.8-0.8,0res8o2mx8m,2022-09-19 16:45:09.902,5f1338a87447d0308e865fd0,3,64,48,47,40,20,Female,,,"<img src=""static/images/cards/stack_of_black_stars.svg"" width=""175px"" height=""250px""></img>",,,,,,,,,,,,,,,,,,,,,,,,,,,,
69,0,,html-keyboard-response,69,212739,0.0-4.8-1.8,0res8o2mx8m,2022-09-19 16:45:09.902,5f1338a87447d0308e865fd0,3,64,48,47,40,20,Female,1218.5,,"
  <table>
  <tr height=300>
    <td width=300 height=300><img src=""static/images/cards/back_of_black_stars.svg"" width=""175px"" height=""250px""></img></td>
    <td width=300 height=300><img src=""static/images/cards/back_of_black_stars.svg"" width=""175px"" height=""250px""></img></td>
  </tr>
  <tr height=200>
    <td width=300><img src=""static/images/keys/z.svg"" width=""35%"" height=""75%""></img></td>
    <td width=300><img src=""static/images/keys/m.svg"" width=""35%"" height=""75%""></img></td>
  </tr>
</table>
  ",90.0,1.0,,,,,,,,,,,,,,,,,,,,,,,,,,
70,0,,html-keyboard-response,70,214251,0.0-4.8-2.8,0res8o2mx8m,2022-09-19 16:45:09.902,5f1338a87447d0308e865fd0,3,64,48,47,40,20,Female,,,"
  <table>
  <tr height=300>
    <td width=300 height=300><img src=""static/images/cards/10_of_black_stars.svg"" width=""175px"" height=""250px""></img></td>
    <td width=300 height=300><img src=""static/images/cards/back_of_black_stars.svg"" width=""175px"" height=""250px""></img></td>
  </tr>
  <tr height=200>
    <td width=300><img src=""static/images/keys/z.svg"" width=""35%"" height=""75%""></img></td>
    <td width=300><img src=""static/images/keys/m.svg"" width=""35%"" height=""75%""></img></td>
  </tr>
</table>
  ",,,,,,,,,,,,,,,,,,,,,,,,,,,,
71,0,,html-keyboard-response,71,215764,0.0-4.8-3.8,0res8o2mx8m,2022-09-19 16:45:09.902,5f1338a87447d0308e865fd0,3,64,48,47,40,20,Female,,,"<p style=""font-size:50px"">You win!
+10 points this round!</p>",,,,,,,,,,,,,,,,,,,,,,,,,,,,
72,0,,html-keyboard-response,72,216277,0.0-4.8-4.8,0res8o2mx8m,2022-09-19 16:45:09.902,5f1338a87447d0308e865fd0,3,64,48,47,40,20,Female,,,,,,1.0,learning,8.0,C,,black,,stars,,,,C,black,stars,,1.0,0.0,NA,left,1218.5,10.0,1.0,1.0,,,
73,0,,html-keyboard-response,73,217788,0.0-4.9-0.9,0res8o2mx8m,2022-09-19 16:45:09.902,5f1338a87447d0308e865fd0,3,64,48,47,40,20,Female,,,"<img src=""static/images/cards/stack_of_red_stars.svg"" width=""175px"" height=""250px""></img>",,,,,,,,,,,,,,,,,,,,,,,,,,,,
74,0,,html-keyboard-response,74,219363,0.0-4.9-1.9,0res8o2mx8m,2022-09-19 16:45:09.902,5f1338a87447d0308e865fd0,3,64,48,47,40,20,Female,1064.8000000119,,"
  <table>
  <tr height=300>
    <td width=300 height=300><img src=""static/images/cards/back_of_red_stars.svg"" width=""175px"" height=""250px""></img></td>
    <td width=300 height=300><img src=""static/images/cards/back_of_red_stars.svg"" width=""175px"" height=""250px""></img></td>
  </tr>
  <tr height=200>
    <td width=300></td>
    <td width=300><img src=""static/images/keys/m.svg"" width=""35%"" height=""75%""></img></td>
  </tr>
</table>
  ",77.0,1.0,,,,,,,,,,,,,,,,,,,,,,,,,,
75,0,,html-keyboard-response,75,220878,0.0-4.9-2.9,0res8o2mx8m,2022-09-19 16:45:09.902,5f1338a87447d0308e865fd0,3,64,48,47,40,20,Female,,,"
  <table>
  <tr height=300>
    <td width=300 height=300><img src=""static/images/cards/back_of_red_stars.svg"" width=""175px"" height=""250px""></img></td>
    <td width=300 height=300><img src=""static/images/cards/9_of_red_stars.svg"" width=""175px"" height=""250px""></img></td>
  </tr>
  <tr height=200>
    <td width=300></td>
    <td width=300><img src=""static/images/keys/m.svg"" width=""35%"" height=""75%""></img></td>
  </tr>
</table>
  ",,,,,,,,,,,,,,,,,,,,,,,,,,,,
76,0,,html-keyboard-response,76,222385,0.0-4.9-3.9,0res8o2mx8m,2022-09-19 16:45:09.902,5f1338a87447d0308e865fd0,3,64,48,47,40,20,Female,,,"<p style=""font-size:50px"">You win!
+10 points this round!</p>",,,,,,,,,,,,,,,,,,,,,,,,,,,,
77,0,,html-keyboard-response,77,222904,0.0-4.9-4.9,0res8o2mx8m,2022-09-19 16:45:09.902,5f1338a87447d0308e865fd0,3,64,48,47,40,20,Female,,,,,,1.0,learning,9.0,D,,red,,stars,,,,D,red,stars,,0.0,0.0,0,right,1064.8000000119,9.0,1.0,1.0,,,
78,0,,html-keyboard-response,78,224413,0.0-4.10-0.10,0res8o2mx8m,2022-09-19 16:45:09.902,5f1338a87447d0308e865fd0,3,64,48,47,40,20,Female,,,"<img src=""static/images/cards/stack_of_red_bolts.svg"" width=""175px"" height=""250px""></img>",,,,,,,,,,,,,,,,,,,,,,,,,,,,
79,0,,html-keyboard-response,79,226145,0.0-4.10-1.10,0res8o2mx8m,2022-09-19 16:45:09.902,5f1338a87447d0308e865fd0,3,64,48,47,40,20,Female,1225.1999999881,,"
  <table>
  <tr height=300>
    <td width=300 height=300><img src=""static/images/cards/back_of_red_bolts.svg"" width=""175px"" height=""250px""></img></td>
    <td width=300 height=300><img src=""static/images/cards/back_of_red_bolts.svg"" width=""175px"" height=""250px""></img></td>
  </tr>
  <tr height=200>
    <td width=300><img src=""static/images/keys/z.svg"" width=""35%"" height=""75%""></img></td>
    <td width=300><img src=""static/images/keys/m.svg"" width=""35%"" height=""75%""></img></td>
  </tr>
</table>
  ",90.0,1.0,,,,,,,,,,,,,,,,,,,,,,,,,,
80,0,,html-keyboard-response,80,227661,0.0-4.10-2.10,0res8o2mx8m,2022-09-19 16:45:09.902,5f1338a87447d0308e865fd0,3,64,48,47,40,20,Female,,,"
  <table>
  <tr height=300>
    <td width=300 height=300><img src=""static/images/cards/8_of_red_bolts.svg"" width=""175px"" height=""250px""></img></td>
    <td width=300 height=300><img src=""static/images/cards/back_of_red_bolts.svg"" width=""175px"" height=""250px""></img></td>
  </tr>
  <tr height=200>
    <td width=300><img src=""static/images/keys/z.svg"" width=""35%"" height=""75%""></img></td>
    <td width=300><img src=""static/images/keys/m.svg"" width=""35%"" height=""75%""></img></td>
  </tr>
</table>
  ",,,,,,,,,,,,,,,,,,,,,,,,,,,,
81,0,,html-keyboard-response,81,229167,0.0-4.10-3.10,0res8o2mx8m,2022-09-19 16:45:09.902,5f1338a87447d0308e865fd0,3,64,48,47,40,20,Female,,,"<p style=""font-size:50px"">You win!
+10 points this round!</p>",,,,,,,,,,,,,,,,,,,,,,,,,,,,
82,0,,html-keyboard-response,82,229687,0.0-4.10-4.10,0res8o2mx8m,2022-09-19 16:45:09.902,5f1338a87447d0308e865fd0,3,64,48,47,40,20,Female,,,,,,1.0,learning,10.0,Xc,,red,,bolts,,,,Xc,red,bolts,,1.0,0.0,NA,left,1225.1999999881,8.0,1.0,1.0,,,
83,0,,html-keyboard-response,83,231196,0.0-4.11-0.11,0res8o2mx8m,2022-09-19 16:45:09.902,5f1338a87447d0308e865fd0,3,64,48,47,40,20,Female,,,"<img src=""static/images/cards/stack_of_black_bolts.svg"" width=""175px"" height=""250px""></img>",,,,,,,,,,,,,,,,,,,,,,,,,,,,
84,0,,html-keyboard-response,84,232494,0.0-4.11-1.11,0res8o2mx8m,2022-09-19 16:45:09.902,5f1338a87447d0308e865fd0,3,64,48,47,40,20,Female,791.099999994,,"
  <table>
  <tr height=300>
    <td width=300 height=300><img src=""static/images/cards/back_of_black_bolts.svg"" width=""175px"" height=""250px""></img></td>
    <td width=300 height=300><img src=""static/images/cards/back_of_black_bolts.svg"" width=""175px"" height=""250px""></img></td>
  </tr>
  <tr height=200>
    <td width=300><img src=""static/images/keys/z.svg"" width=""35%"" height=""75%""></img></td>
    <td width=300></td>
  </tr>
</table>
  ",90.0,1.0,,,,,,,,,,,,,,,,,,,,,,,,,,
85,0,,html-keyboard-response,85,234012,0.0-4.11-2.11,0res8o2mx8m,2022-09-19 16:45:09.902,5f1338a87447d0308e865fd0,3,64,48,47,40,20,Female,,,"
  <table>
  <tr height=300>
    <td width=300 height=300><img src=""static/images/cards/2_of_black_bolts.svg"" width=""175px"" height=""250px""></img></td>
    <td width=300 height=300><img src=""static/images/cards/back_of_black_bolts.svg"" width=""175px"" height=""250px""></img></td>
  </tr>
  <tr height=200>
    <td width=300><img src=""static/images/keys/z.svg"" width=""35%"" height=""75%""></img></td>
    <td width=300></td>
  </tr>
</table>
  ",,,,,,,,,,,,,,,,,,,,,,,,,,,,
86,0,,html-keyboard-response,86,235521,0.0-4.11-3.11,0res8o2mx8m,2022-09-19 16:45:09.902,5f1338a87447d0308e865fd0,3,64,48,47,40,20,Female,,,"<p style=""font-size:50px"">You win!
+10 points this round!</p>",,,,,,,,,,,,,,,,,,,,,,,,,,,,
87,0,,html-keyboard-response,87,236039,0.0-4.11-4.11,0res8o2mx8m,2022-09-19 16:45:09.902,5f1338a87447d0308e865fd0,3,64,48,47,40,20,Female,,,,,,1.0,learning,11.0,Xnc,,black,,bolts,,,,Xnc,black,bolts,,0.0,0.0,1,left,791.099999994,2.0,0.0,1.0,,,
88,0,,html-keyboard-response,88,237549,0.0-4.12-0.12,0res8o2mx8m,2022-09-19 16:45:09.902,5f1338a87447d0308e865fd0,3,64,48,47,40,20,Female,,,"<img src=""static/images/cards/stack_of_black_moons.svg"" width=""175px"" height=""250px""></img>",,,,,,,,,,,,,,,,,,,,,,,,,,,,
89,0,,html-keyboard-response,89,239158,0.0-4.12-1.12,0res8o2mx8m,2022-09-19 16:45:09.902,5f1338a87447d0308e865fd0,3,64,48,47,40,20,Female,1102.6999999881,,"
  <table>
  <tr height=300>
    <td width=300 height=300><img src=""static/images/cards/back_of_black_moons.svg"" width=""175px"" height=""250px""></img></td>
    <td width=300 height=300><img src=""static/images/cards/back_of_black_moons.svg"" width=""175px"" height=""250px""></img></td>
  </tr>
  <tr height=200>
    <td width=300><img src=""static/images/keys/z.svg"" width=""35%"" height=""75%""></img></td>
    <td width=300><img src=""static/images/keys/m.svg"" width=""35%"" height=""75%""></img></td>
  </tr>
</table>
  ",90.0,1.0,,,,,,,,,,,,,,,,,,,,,,,,,,
90,0,,html-keyboard-response,90,240668,0.0-4.12-2.12,0res8o2mx8m,2022-09-19 16:45:09.902,5f1338a87447d0308e865fd0,3,64,48,47,40,20,Female,,,"
  <table>
  <tr height=300>
    <td width=300 height=300><img src=""static/images/cards/9_of_black_moons.svg"" width=""175px"" height=""250px""></img></td>
    <td width=300 height=300><img src=""static/images/cards/back_of_black_moons.svg"" width=""175px"" height=""250px""></img></td>
  </tr>
  <tr height=200>
    <td width=300><img src=""static/images/keys/z.svg"" width=""35%"" height=""75%""></img></td>
    <td width=300><img src=""static/images/keys/m.svg"" width=""35%"" height=""75%""></img></td>
  </tr>
</table>
  ",,,,,,,,,,,,,,,,,,,,,,,,,,,,
91,0,,html-keyboard-response,91,242181,0.0-4.12-3.12,0res8o2mx8m,2022-09-19 16:45:09.902,5f1338a87447d0308e865fd0,3,64,48,47,40,20,Female,,,"<p style=""font-size:50px"">You win!
+10 points this round!</p>",,,,,,,,,,,,,,,,,,,,,,,,,,,,
92,0,,html-keyboard-response,92,242693,0.0-4.12-4.12,0res8o2mx8m,2022-09-19 16:45:09.902,5f1338a87447d0308e865fd0,3,64,48,47,40,20,Female,,,,,,1.0,learning,12.0,A,,black,,moons,,,,A,black,moons,,1.0,1.0,NA,left,1102.6999999881,9.0,1.0,1.0,,,
93,0,,html-keyboard-response,93,244203,0.0-4.13-0.13,0res8o2mx8m,2022-09-19 16:45:09.902,5f1338a87447d0308e865fd0,3,64,48,47,40,20,Female,,,"<img src=""static/images/cards/stack_of_red_moons.svg"" width=""175px"" height=""250px""></img>",,,,,,,,,,,,,,,,,,,,,,,,,,,,
94,0,,html-keyboard-response,94,245566,0.0-4.13-1.13,0res8o2mx8m,2022-09-19 16:45:09.902,5f1338a87447d0308e865fd0,3,64,48,47,40,20,Female,857.5,,"
  <table>
  <tr height=300>
    <td width=300 height=300><img src=""static/images/cards/back_of_red_moons.svg"" width=""175px"" height=""250px""></img></td>
    <td width=300 height=300><img src=""static/images/cards/back_of_red_moons.svg"" width=""175px"" height=""250px""></img></td>
  </tr>
  <tr height=200>
    <td width=300><img src=""static/images/keys/z.svg"" width=""35%"" height=""75%""></img></td>
    <td width=300></td>
  </tr>
</table>
  ",90.0,1.0,,,,,,,,,,,,,,,,,,,,,,,,,,
95,0,,html-keyboard-response,95,247081,0.0-4.13-2.13,0res8o2mx8m,2022-09-19 16:45:09.902,5f1338a87447d0308e865fd0,3,64,48,47,40,20,Female,,,"
  <table>
  <tr height=300>
    <td width=300 height=300><img src=""static/images/cards/4_of_red_moons.svg"" width=""175px"" height=""250px""></img></td>
    <td width=300 height=300><img src=""static/images/cards/back_of_red_moons.svg"" width=""175px"" height=""250px""></img></td>
  </tr>
  <tr height=200>
    <td width=300><img src=""static/images/keys/z.svg"" width=""35%"" height=""75%""></img></td>
    <td width=300></td>
  </tr>
</table>
  ",,,,,,,,,,,,,,,,,,,,,,,,,,,,
96,0,,html-keyboard-response,96,248596,0.0-4.13-3.13,0res8o2mx8m,2022-09-19 16:45:09.902,5f1338a87447d0308e865fd0,3,64,48,47,40,20,Female,,,"<p style=""font-size:50px"">You Lose!
No points this round.</p>",,,,,,,,,,,,,,,,,,,,,,,,,,,,
97,0,,html-keyboard-response,97,249108,0.0-4.13-4.13,0res8o2mx8m,2022-09-19 16:45:09.902,5f1338a87447d0308e865fd0,3,64,48,47,40,20,Female,,,,,,1.0,learning,13.0,B,,red,,moons,,,,B,red,moons,,0.0,1.0,1,left,857.5,4.0,0.0,0.0,,,
98,0,,html-keyboard-response,98,250619,0.0-4.14-0.14,0res8o2mx8m,2022-09-19 16:45:09.902,5f1338a87447d0308e865fd0,3,64,48,47,40,20,Female,,,"<img src=""static/images/cards/stack_of_black_stars.svg"" width=""175px"" height=""250px""></img>",,,,,,,,,,,,,,,,,,,,,,,,,,,,
99,0,,html-keyboard-response,99,251992,0.0-4.14-1.14,0res8o2mx8m,2022-09-19 16:45:09.902,5f1338a87447d0308e865fd0,3,64,48,47,40,20,Female,867.1000000238,,"
  <table>
  <tr height=300>
    <td width=300 height=300><img src=""static/images/cards/back_of_black_stars.svg"" width=""175px"" height=""250px""></img></td>
    <td width=300 height=300><img src=""static/images/cards/back_of_black_stars.svg"" width=""175px"" height=""250px""></img></td>
  </tr>
  <tr height=200>
    <td width=300><img src=""static/images/keys/z.svg"" width=""35%"" height=""75%""></img></td>
    <td width=300><img src=""static/images/keys/m.svg"" width=""35%"" height=""75%""></img></td>
  </tr>
</table>
  ",90.0,1.0,,,,,,,,,,,,,,,,,,,,,,,,,,
100,0,,html-keyboard-response,100,253498,0.0-4.14-2.14,0res8o2mx8m,2022-09-19 16:45:09.902,5f1338a87447d0308e865fd0,3,64,48,47,40,20,Female,,,"
  <table>
  <tr height=300>
    <td width=300 height=300><img src=""static/images/cards/3_of_black_stars.svg"" width=""175px"" height=""250px""></img></td>
    <td width=300 height=300><img src=""static/images/cards/back_of_black_stars.svg"" width=""175px"" height=""250px""></img></td>
  </tr>
  <tr height=200>
    <td width=300><img src=""static/images/keys/z.svg"" width=""35%"" height=""75%""></img></td>
    <td width=300><img src=""static/images/keys/m.svg"" width=""35%"" height=""75%""></img></td>
  </tr>
</table>
  ",,,,,,,,,,,,,,,,,,,,,,,,,,,,
101,0,,html-keyboard-response,101,255014,0.0-4.14-3.14,0res8o2mx8m,2022-09-19 16:45:09.902,5f1338a87447d0308e865fd0,3,64,48,47,40,20,Female,,,"<p style=""font-size:50px"">You win!
+10 points this round!</p>",,,,,,,,,,,,,,,,,,,,,,,,,,,,
102,0,,html-keyboard-response,102,255525,0.0-4.14-4.14,0res8o2mx8m,2022-09-19 16:45:09.902,5f1338a87447d0308e865fd0,3,64,48,47,40,20,Female,,,,,,1.0,learning,14.0,C,,black,,stars,,,,C,black,stars,,1.0,0.0,NA,left,867.1000000238,3.0,0.0,1.0,,,
103,0,,html-keyboard-response,103,257036,0.0-4.15-0.15,0res8o2mx8m,2022-09-19 16:45:09.902,5f1338a87447d0308e865fd0,3,64,48,47,40,20,Female,,,"<img src=""static/images/cards/stack_of_red_stars.svg"" width=""175px"" height=""250px""></img>",,,,,,,,,,,,,,,,,,,,,,,,,,,,
104,0,,html-keyboard-response,104,258627,0.0-4.15-1.15,0res8o2mx8m,2022-09-19 16:45:09.902,5f1338a87447d0308e865fd0,3,64,48,47,40,20,Female,1076.900000006,,"
  <table>
  <tr height=300>
    <td width=300 height=300><img src=""static/images/cards/back_of_red_stars.svg"" width=""175px"" height=""250px""></img></td>
    <td width=300 height=300><img src=""static/images/cards/back_of_red_stars.svg"" width=""175px"" height=""250px""></img></td>
  </tr>
  <tr height=200>
    <td width=300><img src=""static/images/keys/z.svg"" width=""35%"" height=""75%""></img></td>
    <td width=300></td>
  </tr>
</table>
  ",90.0,1.0,,,,,,,,,,,,,,,,,,,,,,,,,,
105,0,,html-keyboard-response,105,260133,0.0-4.15-2.15,0res8o2mx8m,2022-09-19 16:45:09.902,5f1338a87447d0308e865fd0,3,64,48,47,40,20,Female,,,"
  <table>
  <tr height=300>
    <td width=300 height=300><img src=""static/images/cards/6_of_red_stars.svg"" width=""175px"" height=""250px""></img></td>
    <td width=300 height=300><img src=""static/images/cards/back_of_red_stars.svg"" width=""175px"" height=""250px""></img></td>
  </tr>
  <tr height=200>
    <td width=300><img src=""static/images/keys/z.svg"" width=""35%"" height=""75%""></img></td>
    <td width=300></td>
  </tr>
</table>
  ",,,,,,,,,,,,,,,,,,,,,,,,,,,,
106,0,,html-keyboard-response,106,261653,0.0-4.15-3.15,0res8o2mx8m,2022-09-19 16:45:09.902,5f1338a87447d0308e865fd0,3,64,48,47,40,20,Female,,,"<p style=""font-size:50px"">You Lose!
No points this round.</p>",,,,,,,,,,,,,,,,,,,,,,,,,,,,
107,0,,html-keyboard-response,107,262172,0.0-4.15-4.15,0res8o2mx8m,2022-09-19 16:45:09.902,5f1338a87447d0308e865fd0,3,64,48,47,40,20,Female,,,,,,1.0,learning,15.0,D,,red,,stars,,,,D,red,stars,,0.0,0.0,1,left,1076.900000006,6.0,1.0,0.0,,,
108,0,,html-keyboard-response,108,263682,0.0-4.16-0.16,0res8o2mx8m,2022-09-19 16:45:09.902,5f1338a87447d0308e865fd0,3,64,48,47,40,20,Female,,,"<img src=""static/images/cards/stack_of_red_bolts.svg"" width=""175px"" height=""250px""></img>",,,,,,,,,,,,,,,,,,,,,,,,,,,,
109,0,,html-keyboard-response,109,265168,0.0-4.16-1.16,0res8o2mx8m,2022-09-19 16:45:09.902,5f1338a87447d0308e865fd0,3,64,48,47,40,20,Female,979.2000000179,,"
  <table>
  <tr height=300>
    <td width=300 height=300><img src=""static/images/cards/back_of_red_bolts.svg"" width=""175px"" height=""250px""></img></td>
    <td width=300 height=300><img src=""static/images/cards/back_of_red_bolts.svg"" width=""175px"" height=""250px""></img></td>
  </tr>
  <tr height=200>
    <td width=300><img src=""static/images/keys/z.svg"" width=""35%"" height=""75%""></img></td>
    <td width=300><img src=""static/images/keys/m.svg"" width=""35%"" height=""75%""></img></td>
  </tr>
</table>
  ",90.0,1.0,,,,,,,,,,,,,,,,,,,,,,,,,,
110,0,,html-keyboard-response,110,266683,0.0-4.16-2.16,0res8o2mx8m,2022-09-19 16:45:09.902,5f1338a87447d0308e865fd0,3,64,48,47,40,20,Female,,,"
  <table>
  <tr height=300>
    <td width=300 height=300><img src=""static/images/cards/2_of_red_bolts.svg"" width=""175px"" height=""250px""></img></td>
    <td width=300 height=300><img src=""static/images/cards/back_of_red_bolts.svg"" width=""175px"" height=""250px""></img></td>
  </tr>
  <tr height=200>
    <td width=300><img src=""static/images/keys/z.svg"" width=""35%"" height=""75%""></img></td>
    <td width=300><img src=""static/images/keys/m.svg"" width=""35%"" height=""75%""></img></td>
  </tr>
</table>
  ",,,,,,,,,,,,,,,,,,,,,,,,,,,,
111,0,,html-keyboard-response,111,268198,0.0-4.16-3.16,0res8o2mx8m,2022-09-19 16:45:09.902,5f1338a87447d0308e865fd0,3,64,48,47,40,20,Female,,,"<p style=""font-size:50px"">You win!
+10 points this round!</p>",,,,,,,,,,,,,,,,,,,,,,,,,,,,
112,0,,html-keyboard-response,112,268710,0.0-4.16-4.16,0res8o2mx8m,2022-09-19 16:45:09.902,5f1338a87447d0308e865fd0,3,64,48,47,40,20,Female,,,,,,1.0,learning,16.0,Xc,,red,,bolts,,,,Xc,red,bolts,,1.0,0.0,NA,left,979.2000000179,2.0,0.0,1.0,,,
113,0,,html-keyboard-response,113,270221,0.0-4.17-0.17,0res8o2mx8m,2022-09-19 16:45:09.902,5f1338a87447d0308e865fd0,3,64,48,47,40,20,Female,,,"<img src=""static/images/cards/stack_of_black_bolts.svg"" width=""175px"" height=""250px""></img>",,,,,,,,,,,,,,,,,,,,,,,,,,,,
114,0,,html-keyboard-response,114,271761,0.0-4.17-1.17,0res8o2mx8m,2022-09-19 16:45:09.902,5f1338a87447d0308e865fd0,3,64,48,47,40,20,Female,1025.099999994,,"
  <table>
  <tr height=300>
    <td width=300 height=300><img src=""static/images/cards/back_of_black_bolts.svg"" width=""175px"" height=""250px""></img></td>
    <td width=300 height=300><img src=""static/images/cards/back_of_black_bolts.svg"" width=""175px"" height=""250px""></img></td>
  </tr>
  <tr height=200>
    <td width=300></td>
    <td width=300><img src=""static/images/keys/m.svg"" width=""35%"" height=""75%""></img></td>
  </tr>
</table>
  ",77.0,1.0,,,,,,,,,,,,,,,,,,,,,,,,,,
115,0,,html-keyboard-response,115,273268,0.0-4.17-2.17,0res8o2mx8m,2022-09-19 16:45:09.902,5f1338a87447d0308e865fd0,3,64,48,47,40,20,Female,,,"
  <table>
  <tr height=300>
    <td width=300 height=300><img src=""static/images/cards/back_of_black_bolts.svg"" width=""175px"" height=""250px""></img></td>
    <td width=300 height=300><img src=""static/images/cards/10_of_black_bolts.svg"" width=""175px"" height=""250px""></img></td>
  </tr>
  <tr height=200>
    <td width=300></td>
    <td width=300><img src=""static/images/keys/m.svg"" width=""35%"" height=""75%""></img></td>
  </tr>
</table>
  ",,,,,,,,,,,,,,,,,,,,,,,,,,,,
116,0,,html-keyboard-response,116,274787,0.0-4.17-3.17,0res8o2mx8m,2022-09-19 16:45:09.902,5f1338a87447d0308e865fd0,3,64,48,47,40,20,Female,,,"<p style=""font-size:50px"">You win!
+10 points this round!</p>",,,,,,,,,,,,,,,,,,,,,,,,,,,,
117,0,,html-keyboard-response,117,275297,0.0-4.17-4.17,0res8o2mx8m,2022-09-19 16:45:09.902,5f1338a87447d0308e865fd0,3,64,48,47,40,20,Female,,,,,,1.0,learning,17.0,Xnc,,black,,bolts,,,,Xnc,black,bolts,,0.0,0.0,0,right,1025.099999994,10.0,1.0,1.0,,,
118,0,,html-keyboard-response,118,276814,0.0-4.18-0.18,0res8o2mx8m,2022-09-19 16:45:09.902,5f1338a87447d0308e865fd0,3,64,48,47,40,20,Female,,,"<img src=""static/images/cards/stack_of_black_moons.svg"" width=""175px"" height=""250px""></img>",,,,,,,,,,,,,,,,,,,,,,,,,,,,
119,0,,html-keyboard-response,119,278119,0.0-4.18-1.18,0res8o2mx8m,2022-09-19 16:45:09.902,5f1338a87447d0308e865fd0,3,64,48,47,40,20,Female,798.8000000119,,"
  <table>
  <tr height=300>
    <td width=300 height=300><img src=""static/images/cards/back_of_black_moons.svg"" width=""175px"" height=""250px""></img></td>
    <td width=300 height=300><img src=""static/images/cards/back_of_black_moons.svg"" width=""175px"" height=""250px""></img></td>
  </tr>
  <tr height=200>
    <td width=300><img src=""static/images/keys/z.svg"" width=""35%"" height=""75%""></img></td>
    <td width=300><img src=""static/images/keys/m.svg"" width=""35%"" height=""75%""></img></td>
  </tr>
</table>
  ",90.0,1.0,,,,,,,,,,,,,,,,,,,,,,,,,,
120,0,,html-keyboard-response,120,279636,0.0-4.18-2.18,0res8o2mx8m,2022-09-19 16:45:09.902,5f1338a87447d0308e865fd0,3,64,48,47,40,20,Female,,,"
  <table>
  <tr height=300>
    <td width=300 height=300><img src=""static/images/cards/9_of_black_moons.svg"" width=""175px"" height=""250px""></img></td>
    <td width=300 height=300><img src=""static/images/cards/back_of_black_moons.svg"" width=""175px"" height=""250px""></img></td>
  </tr>
  <tr height=200>
    <td width=300><img src=""static/images/keys/z.svg"" width=""35%"" height=""75%""></img></td>
    <td width=300><img src=""static/images/keys/m.svg"" width=""35%"" height=""75%""></img></td>
  </tr>
</table>
  ",,,,,,,,,,,,,,,,,,,,,,,,,,,,
121,0,,html-keyboard-response,121,281149,0.0-4.18-3.18,0res8o2mx8m,2022-09-19 16:45:09.902,5f1338a87447d0308e865fd0,3,64,48,47,40,20,Female,,,"<p style=""font-size:50px"">You win!
+10 points this round!</p>",,,,,,,,,,,,,,,,,,,,,,,,,,,,
122,0,,html-keyboard-response,122,281657,0.0-4.18-4.18,0res8o2mx8m,2022-09-19 16:45:09.902,5f1338a87447d0308e865fd0,3,64,48,47,40,20,Female,,,,,,1.0,learning,18.0,A,,black,,moons,,,,A,black,moons,,1.0,1.0,NA,left,798.8000000119,9.0,1.0,1.0,,,
123,0,,html-keyboard-response,123,283167,0.0-4.19-0.19,0res8o2mx8m,2022-09-19 16:45:09.902,5f1338a87447d0308e865fd0,3,64,48,47,40,20,Female,,,"<img src=""static/images/cards/stack_of_red_moons.svg"" width=""175px"" height=""250px""></img>",,,,,,,,,,,,,,,,,,,,,,,,,,,,
124,0,,html-keyboard-response,124,285041,0.0-4.19-1.19,0res8o2mx8m,2022-09-19 16:45:09.902,5f1338a87447d0308e865fd0,3,64,48,47,40,20,Female,1367.1000000238,,"
  <table>
  <tr height=300>
    <td width=300 height=300><img src=""static/images/cards/back_of_red_moons.svg"" width=""175px"" height=""250px""></img></td>
    <td width=300 height=300><img src=""static/images/cards/back_of_red_moons.svg"" width=""175px"" height=""250px""></img></td>
  </tr>
  <tr height=200>
    <td width=300></td>
    <td width=300><img src=""static/images/keys/m.svg"" width=""35%"" height=""75%""></img></td>
  </tr>
</table>
  ",77.0,1.0,,,,,,,,,,,,,,,,,,,,,,,,,,
125,0,,html-keyboard-response,125,286551,0.0-4.19-2.19,0res8o2mx8m,2022-09-19 16:45:09.902,5f1338a87447d0308e865fd0,3,64,48,47,40,20,Female,,,"
  <table>
  <tr height=300>
    <td width=300 height=300><img src=""static/images/cards/back_of_red_moons.svg"" width=""175px"" height=""250px""></img></td>
    <td width=300 height=300><img src=""static/images/cards/7_of_red_moons.svg"" width=""175px"" height=""250px""></img></td>
  </tr>
  <tr height=200>
    <td width=300></td>
    <td width=300><img src=""static/images/keys/m.svg"" width=""35%"" height=""75%""></img></td>
  </tr>
</table>
  ",,,,,,,,,,,,,,,,,,,,,,,,,,,,
126,0,,html-keyboard-response,126,288057,0.0-4.19-3.19,0res8o2mx8m,2022-09-19 16:45:09.902,5f1338a87447d0308e865fd0,3,64,48,47,40,20,Female,,,"<p style=""font-size:50px"">You win!
+10 points this round!</p>",,,,,,,,,,,,,,,,,,,,,,,,,,,,
127,0,,html-keyboard-response,127,288577,0.0-4.19-4.19,0res8o2mx8m,2022-09-19 16:45:09.902,5f1338a87447d0308e865fd0,3,64,48,47,40,20,Female,,,,,,1.0,learning,19.0,B,,red,,moons,,,,B,red,moons,,0.0,1.0,0,right,1367.1000000238,7.0,1.0,1.0,,,
128,0,,html-keyboard-response,128,290086,0.0-4.20-0.20,0res8o2mx8m,2022-09-19 16:45:09.902,5f1338a87447d0308e865fd0,3,64,48,47,40,20,Female,,,"<img src=""static/images/cards/stack_of_black_stars.svg"" width=""175px"" height=""250px""></img>",,,,,,,,,,,,,,,,,,,,,,,,,,,,
129,0,,html-keyboard-response,129,291968,0.0-4.20-1.20,0res8o2mx8m,2022-09-19 16:45:09.902,5f1338a87447d0308e865fd0,3,64,48,47,40,20,Female,1372.2000000179,,"
  <table>
  <tr height=300>
    <td width=300 height=300><img src=""static/images/cards/back_of_black_stars.svg"" width=""175px"" height=""250px""></img></td>
    <td width=300 height=300><img src=""static/images/cards/back_of_black_stars.svg"" width=""175px"" height=""250px""></img></td>
  </tr>
  <tr height=200>
    <td width=300><img src=""static/images/keys/z.svg"" width=""35%"" height=""75%""></img></td>
    <td width=300><img src=""static/images/keys/m.svg"" width=""35%"" height=""75%""></img></td>
  </tr>
</table>
  ",90.0,1.0,,,,,,,,,,,,,,,,,,,,,,,,,,
130,0,,html-keyboard-response,130,293484,0.0-4.20-2.20,0res8o2mx8m,2022-09-19 16:45:09.902,5f1338a87447d0308e865fd0,3,64,48,47,40,20,Female,,,"
  <table>
  <tr height=300>
    <td width=300 height=300><img src=""static/images/cards/1_of_black_stars.svg"" width=""175px"" height=""250px""></img></td>
    <td width=300 height=300><img src=""static/images/cards/back_of_black_stars.svg"" width=""175px"" height=""250px""></img></td>
  </tr>
  <tr height=200>
    <td width=300><img src=""static/images/keys/z.svg"" width=""35%"" height=""75%""></img></td>
    <td width=300><img src=""static/images/keys/m.svg"" width=""35%"" height=""75%""></img></td>
  </tr>
</table>
  ",,,,,,,,,,,,,,,,,,,,,,,,,,,,
131,0,,html-keyboard-response,131,295005,0.0-4.20-3.20,0res8o2mx8m,2022-09-19 16:45:09.902,5f1338a87447d0308e865fd0,3,64,48,47,40,20,Female,,,"<p style=""font-size:50px"">You Lose!
No points this round.</p>",,,,,,,,,,,,,,,,,,,,,,,,,,,,
132,0,,html-keyboard-response,132,295516,0.0-4.20-4.20,0res8o2mx8m,2022-09-19 16:45:09.902,5f1338a87447d0308e865fd0,3,64,48,47,40,20,Female,,,,,,1.0,learning,20.0,C,,black,,stars,,,,C,black,stars,,1.0,0.0,NA,left,1372.2000000179,1.0,0.0,0.0,,,
133,0,,html-keyboard-response,133,297027,0.0-4.21-0.21,0res8o2mx8m,2022-09-19 16:45:09.902,5f1338a87447d0308e865fd0,3,64,48,47,40,20,Female,,,"<img src=""static/images/cards/stack_of_red_stars.svg"" width=""175px"" height=""250px""></img>",,,,,,,,,,,,,,,,,,,,,,,,,,,,
134,0,,html-keyboard-response,134,298419,0.0-4.21-1.21,0res8o2mx8m,2022-09-19 16:45:09.902,5f1338a87447d0308e865fd0,3,64,48,47,40,20,Female,881.900000006,,"
  <table>
  <tr height=300>
    <td width=300 height=300><img src=""static/images/cards/back_of_red_stars.svg"" width=""175px"" height=""250px""></img></td>
    <td width=300 height=300><img src=""static/images/cards/back_of_red_stars.svg"" width=""175px"" height=""250px""></img></td>
  </tr>
  <tr height=200>
    <td width=300></td>
    <td width=300><img src=""static/images/keys/m.svg"" width=""35%"" height=""75%""></img></td>
  </tr>
</table>
  ",77.0,1.0,,,,,,,,,,,,,,,,,,,,,,,,,,
135,0,,html-keyboard-response,135,299934,0.0-4.21-2.21,0res8o2mx8m,2022-09-19 16:45:09.902,5f1338a87447d0308e865fd0,3,64,48,47,40,20,Female,,,"
  <table>
  <tr height=300>
    <td width=300 height=300><img src=""static/images/cards/back_of_red_stars.svg"" width=""175px"" height=""250px""></img></td>
    <td width=300 height=300><img src=""static/images/cards/2_of_red_stars.svg"" width=""175px"" height=""250px""></img></td>
  </tr>
  <tr height=200>
    <td width=300></td>
    <td width=300><img src=""static/images/keys/m.svg"" width=""35%"" height=""75%""></img></td>
  </tr>
</table>
  ",,,,,,,,,,,,,,,,,,,,,,,,,,,,
136,0,,html-keyboard-response,136,301440,0.0-4.21-3.21,0res8o2mx8m,2022-09-19 16:45:09.902,5f1338a87447d0308e865fd0,3,64,48,47,40,20,Female,,,"<p style=""font-size:50px"">You Lose!
No points this round.</p>",,,,,,,,,,,,,,,,,,,,,,,,,,,,
137,0,,html-keyboard-response,137,301952,0.0-4.21-4.21,0res8o2mx8m,2022-09-19 16:45:09.902,5f1338a87447d0308e865fd0,3,64,48,47,40,20,Female,,,,,,1.0,learning,21.0,D,,red,,stars,,,,D,red,stars,,0.0,0.0,0,right,881.900000006,2.0,0.0,0.0,,,
138,0,,html-keyboard-response,138,303468,0.0-4.22-0.22,0res8o2mx8m,2022-09-19 16:45:09.902,5f1338a87447d0308e865fd0,3,64,48,47,40,20,Female,,,"<img src=""static/images/cards/stack_of_red_bolts.svg"" width=""175px"" height=""250px""></img>",,,,,,,,,,,,,,,,,,,,,,,,,,,,
139,0,,html-keyboard-response,139,305152,0.0-4.22-1.22,0res8o2mx8m,2022-09-19 16:45:09.902,5f1338a87447d0308e865fd0,3,64,48,47,40,20,Female,1171.1000000238,,"
  <table>
  <tr height=300>
    <td width=300 height=300><img src=""static/images/cards/back_of_red_bolts.svg"" width=""175px"" height=""250px""></img></td>
    <td width=300 height=300><img src=""static/images/cards/back_of_red_bolts.svg"" width=""175px"" height=""250px""></img></td>
  </tr>
  <tr height=200>
    <td width=300><img src=""static/images/keys/z.svg"" width=""35%"" height=""75%""></img></td>
    <td width=300><img src=""static/images/keys/m.svg"" width=""35%"" height=""75%""></img></td>
  </tr>
</table>
  ",90.0,1.0,,,,,,,,,,,,,,,,,,,,,,,,,,
140,0,,html-keyboard-response,140,306670,0.0-4.22-2.22,0res8o2mx8m,2022-09-19 16:45:09.902,5f1338a87447d0308e865fd0,3,64,48,47,40,20,Female,,,"
  <table>
  <tr height=300>
    <td width=300 height=300><img src=""static/images/cards/9_of_red_bolts.svg"" width=""175px"" height=""250px""></img></td>
    <td width=300 height=300><img src=""static/images/cards/back_of_red_bolts.svg"" width=""175px"" height=""250px""></img></td>
  </tr>
  <tr height=200>
    <td width=300><img src=""static/images/keys/z.svg"" width=""35%"" height=""75%""></img></td>
    <td width=300><img src=""static/images/keys/m.svg"" width=""35%"" height=""75%""></img></td>
  </tr>
</table>
  ",,,,,,,,,,,,,,,,,,,,,,,,,,,,
141,0,,html-keyboard-response,141,308184,0.0-4.22-3.22,0res8o2mx8m,2022-09-19 16:45:09.902,5f1338a87447d0308e865fd0,3,64,48,47,40,20,Female,,,"<p style=""font-size:50px"">You win!
+10 points this round!</p>",,,,,,,,,,,,,,,,,,,,,,,,,,,,
142,0,,html-keyboard-response,142,308696,0.0-4.22-4.22,0res8o2mx8m,2022-09-19 16:45:09.902,5f1338a87447d0308e865fd0,3,64,48,47,40,20,Female,,,,,,1.0,learning,22.0,Xc,,red,,bolts,,,,Xc,red,bolts,,1.0,0.0,NA,left,1171.1000000238,9.0,1.0,1.0,,,
143,0,,html-keyboard-response,143,310206,0.0-4.23-0.23,0res8o2mx8m,2022-09-19 16:45:09.902,5f1338a87447d0308e865fd0,3,64,48,47,40,20,Female,,,"<img src=""static/images/cards/stack_of_black_bolts.svg"" width=""175px"" height=""250px""></img>",,,,,,,,,,,,,,,,,,,,,,,,,,,,
144,0,,html-keyboard-response,144,311511,0.0-4.23-1.23,0res8o2mx8m,2022-09-19 16:45:09.902,5f1338a87447d0308e865fd0,3,64,48,47,40,20,Female,791.3000000119,,"
  <table>
  <tr height=300>
    <td width=300 height=300><img src=""static/images/cards/back_of_black_bolts.svg"" width=""175px"" height=""250px""></img></td>
    <td width=300 height=300><img src=""static/images/cards/back_of_black_bolts.svg"" width=""175px"" height=""250px""></img></td>
  </tr>
  <tr height=200>
    <td width=300><img src=""static/images/keys/z.svg"" width=""35%"" height=""75%""></img></td>
    <td width=300></td>
  </tr>
</table>
  ",90.0,1.0,,,,,,,,,,,,,,,,,,,,,,,,,,
145,0,,html-keyboard-response,145,313019,0.0-4.23-2.23,0res8o2mx8m,2022-09-19 16:45:09.902,5f1338a87447d0308e865fd0,3,64,48,47,40,20,Female,,,"
  <table>
  <tr height=300>
    <td width=300 height=300><img src=""static/images/cards/2_of_black_bolts.svg"" width=""175px"" height=""250px""></img></td>
    <td width=300 height=300><img src=""static/images/cards/back_of_black_bolts.svg"" width=""175px"" height=""250px""></img></td>
  </tr>
  <tr height=200>
    <td width=300><img src=""static/images/keys/z.svg"" width=""35%"" height=""75%""></img></td>
    <td width=300></td>
  </tr>
</table>
  ",,,,,,,,,,,,,,,,,,,,,,,,,,,,
146,0,,html-keyboard-response,146,314535,0.0-4.23-3.23,0res8o2mx8m,2022-09-19 16:45:09.902,5f1338a87447d0308e865fd0,3,64,48,47,40,20,Female,,,"<p style=""font-size:50px"">You win!
+10 points this round!</p>",,,,,,,,,,,,,,,,,,,,,,,,,,,,
147,0,,html-keyboard-response,147,315047,0.0-4.23-4.23,0res8o2mx8m,2022-09-19 16:45:09.902,5f1338a87447d0308e865fd0,3,64,48,47,40,20,Female,,,,,,1.0,learning,23.0,Xnc,,black,,bolts,,,,Xnc,black,bolts,,0.0,0.0,1,left,791.3000000119,2.0,0.0,1.0,,,
148,0,,call-function,148,315067,0.0-5.0,0res8o2mx8m,2022-09-19 16:45:09.902,5f1338a87447d0308e865fd0,3,64,48,47,40,20,Female,,,,,,,,,,,,,,,,,,,,,,,,,,,,,,,
149,0,,image-keyboard-response,149,330044,0.0-6.0-0.0,0res8o2mx8m,2022-09-19 16:45:09.902,5f1338a87447d0308e865fd0,3,64,48,47,40,20,Female,14975.0,,static/images/instructions_CB_3/Slide20.png,39.0,,,,,,,,,,,,,,,,,,,,,,,,,,,
150,0,,image-keyboard-response,150,345609,0.0-6.1-0.1,0res8o2mx8m,2022-09-19 16:45:09.902,5f1338a87447d0308e865fd0,3,64,48,47,40,20,Female,15562.400000006,,static/images/instructions_CB_3/Slide21.png,39.0,,,,,,,,,,,,,,,,,,,,,,,,,,,
151,0,,image-keyboard-response,151,356181,0.0-6.2-0.2,0res8o2mx8m,2022-09-19 16:45:09.902,5f1338a87447d0308e865fd0,3,64,48,47,40,20,Female,10569.6999999881,,static/images/instructions_CB_3/Slide22.png,39.0,,,,,,,,,,,,,,,,,,,,,,,,,,,
152,0,,image-keyboard-response,152,371853,0.0-6.3-0.3,0res8o2mx8m,2022-09-19 16:45:09.902,5f1338a87447d0308e865fd0,3,64,48,47,40,20,Female,15667.400000006,,static/images/instructions_CB_3/Slide23.png,39.0,,,,,,,,,,,,,,,,,,,,,,,,,,,
153,0,,image-keyboard-response,153,373540,0.0-6.4-0.4,0res8o2mx8m,2022-09-19 16:45:09.902,5f1338a87447d0308e865fd0,3,64,48,47,40,20,Female,1683.900000006,,static/images/instructions_CB_3/Slide24.png,39.0,,,,,,,,,,,,,,,,,,,,,,,,,,,
154,0,,html-keyboard-response,154,375516,0.0-7.0-0.0,0res8o2mx8m,2022-09-19 16:45:09.902,5f1338a87447d0308e865fd0,3,64,48,47,40,20,Female,1971.6000000238,,"
  <table>
  <tr height=300>
    <td width=300 height=300><img src=""static/images/cards/stack_of_red_moons.svg"" width=""175px"" height=""250px""></img></td>
    <td width=300 height=300><img src=""static/images/cards/stack_of_black_moons.svg"" width=""175px"" height=""250px""></img></td>
  </tr>
  <tr height=200>
    <td width=300><img src=""static/images/keys/w.svg"" width=""35%"" height=""75%""></img></td>
    <td width=300><img src=""static/images/keys/o.svg"" width=""35%"" height=""75%""></img></td>
  </tr>
</table>
  ",79.0,1.0,,,,,,,,,,,,,,,,,,,,,,,,,,
155,0,,html-keyboard-response,155,377642,0.0-7.0-1.0,0res8o2mx8m,2022-09-19 16:45:09.902,5f1338a87447d0308e865fd0,3,64,48,47,40,20,Female,1621.7000000179,,"
  <table>
  <tr height=300>
    <td width=300 height=300><img src=""static/images/cards/back_of_black_moons.svg"" width=""175px"" height=""250px""></img></td>
    <td width=300 height=300><img src=""static/images/cards/back_of_black_moons.svg"" width=""175px"" height=""250px""></img></td>
  </tr>
  <tr height=200>
    <td width=300><img src=""static/images/keys/z.svg"" width=""35%"" height=""75%""></img></td>
    <td width=300><img src=""static/images/keys/m.svg"" width=""35%"" height=""75%""></img></td>
  </tr>
</table>
  ",90.0,1.0,,,,,,,,,,,,,,,,,,,,,,,,,,
156,0,,html-keyboard-response,156,379161,0.0-7.0-2.0,0res8o2mx8m,2022-09-19 16:45:09.902,5f1338a87447d0308e865fd0,3,64,48,47,40,20,Female,,,"
  <table>
  <tr height=300>
    <td width=300 height=300><img src=""static/images/cards/4_of_black_moons.svg"" width=""175px"" height=""250px""></img></td>
    <td width=300 height=300><img src=""static/images/cards/back_of_black_moons.svg"" width=""175px"" height=""250px""></img></td>
  </tr>
  <tr height=200>
    <td width=300><img src=""static/images/keys/z.svg"" width=""35%"" height=""75%""></img></td>
    <td width=300><img src=""static/images/keys/m.svg"" width=""35%"" height=""75%""></img></td>
  </tr>
</table>
  ",,,,,,,,,,,,,,,,,,,,,,,,,,,,
157,0,,html-keyboard-response,157,380682,0.0-7.0-3.0,0res8o2mx8m,2022-09-19 16:45:09.902,5f1338a87447d0308e865fd0,3,64,48,47,40,20,Female,,,"<p style=""font-size:50px"">You Lose!
No points this round.</p>",,,,,,,,,,,,,,,,,,,,,,,,,,,,
158,0,,html-keyboard-response,158,381194,0.0-7.0-4.0,0res8o2mx8m,2022-09-19 16:45:09.902,5f1338a87447d0308e865fd0,3,64,48,47,40,20,Female,,,,,,1.0,choice,0.0,A,B,red,black,moons,moons,B,A,A,black,moons,1971.6000000238,1.0,1.0,NA,left,1621.7000000179,4.0,0.0,0.0,,,
159,0,,html-keyboard-response,159,383815,0.0-7.1-0.1,0res8o2mx8m,2022-09-19 16:45:09.902,5f1338a87447d0308e865fd0,3,64,48,47,40,20,Female,2616.599999994,,"
  <table>
  <tr height=300>
    <td width=300 height=300><img src=""static/images/cards/stack_of_red_bolts.svg"" width=""175px"" height=""250px""></img></td>
    <td width=300 height=300><img src=""static/images/cards/stack_of_black_moons.svg"" width=""175px"" height=""250px""></img></td>
  </tr>
  <tr height=200>
    <td width=300><img src=""static/images/keys/w.svg"" width=""35%"" height=""75%""></img></td>
    <td width=300><img src=""static/images/keys/o.svg"" width=""35%"" height=""75%""></img></td>
  </tr>
</table>
  ",87.0,1.0,,,,,,,,,,,,,,,,,,,,,,,,,,
160,0,,html-keyboard-response,160,386037,0.0-7.1-1.1,0res8o2mx8m,2022-09-19 16:45:09.902,5f1338a87447d0308e865fd0,3,64,48,47,40,20,Female,1717.6999999881,,"
  <table>
  <tr height=300>
    <td width=300 height=300><img src=""static/images/cards/back_of_red_bolts.svg"" width=""175px"" height=""250px""></img></td>
    <td width=300 height=300><img src=""static/images/cards/back_of_red_bolts.svg"" width=""175px"" height=""250px""></img></td>
  </tr>
  <tr height=200>
    <td width=300><img src=""static/images/keys/z.svg"" width=""35%"" height=""75%""></img></td>
    <td width=300><img src=""static/images/keys/m.svg"" width=""35%"" height=""75%""></img></td>
  </tr>
</table>
  ",90.0,1.0,,,,,,,,,,,,,,,,,,,,,,,,,,
161,0,,html-keyboard-response,161,387544,0.0-7.1-2.1,0res8o2mx8m,2022-09-19 16:45:09.902,5f1338a87447d0308e865fd0,3,64,48,47,40,20,Female,,,"
  <table>
  <tr height=300>
    <td width=300 height=300><img src=""static/images/cards/1_of_red_bolts.svg"" width=""175px"" height=""250px""></img></td>
    <td width=300 height=300><img src=""static/images/cards/back_of_red_bolts.svg"" width=""175px"" height=""250px""></img></td>
  </tr>
  <tr height=200>
    <td width=300><img src=""static/images/keys/z.svg"" width=""35%"" height=""75%""></img></td>
    <td width=300><img src=""static/images/keys/m.svg"" width=""35%"" height=""75%""></img></td>
  </tr>
</table>
  ",,,,,,,,,,,,,,,,,,,,,,,,,,,,
162,0,,html-keyboard-response,162,389060,0.0-7.1-3.1,0res8o2mx8m,2022-09-19 16:45:09.902,5f1338a87447d0308e865fd0,3,64,48,47,40,20,Female,,,"<p style=""font-size:50px"">You win!
+10 points this round!</p>",,,,,,,,,,,,,,,,,,,,,,,,,,,,
163,0,,html-keyboard-response,163,389572,0.0-7.1-4.1,0res8o2mx8m,2022-09-19 16:45:09.902,5f1338a87447d0308e865fd0,3,64,48,47,40,20,Female,,,,,,1.0,choice,1.0,A,Xc,red,black,bolts,moons,Xc,A,Xc,red,bolts,2616.599999994,1.0,0.0,NA,left,1717.6999999881,1.0,0.0,1.0,,,
164,0,,html-keyboard-response,164,391530,0.0-7.2-0.2,0res8o2mx8m,2022-09-19 16:45:09.902,5f1338a87447d0308e865fd0,3,64,48,47,40,20,Female,1953.599999994,,"
  <table>
  <tr height=300>
    <td width=300 height=300><img src=""static/images/cards/stack_of_red_stars.svg"" width=""175px"" height=""250px""></img></td>
    <td width=300 height=300><img src=""static/images/cards/stack_of_black_moons.svg"" width=""175px"" height=""250px""></img></td>
  </tr>
  <tr height=200>
    <td width=300><img src=""static/images/keys/w.svg"" width=""35%"" height=""75%""></img></td>
    <td width=300><img src=""static/images/keys/o.svg"" width=""35%"" height=""75%""></img></td>
  </tr>
</table>
  ",79.0,1.0,,,,,,,,,,,,,,,,,,,,,,,,,,
165,0,,html-keyboard-response,165,393011,0.0-7.2-1.2,0res8o2mx8m,2022-09-19 16:45:09.902,5f1338a87447d0308e865fd0,3,64,48,47,40,20,Female,976.099999994,,"
  <table>
  <tr height=300>
    <td width=300 height=300><img src=""static/images/cards/back_of_black_moons.svg"" width=""175px"" height=""250px""></img></td>
    <td width=300 height=300><img src=""static/images/cards/back_of_black_moons.svg"" width=""175px"" height=""250px""></img></td>
  </tr>
  <tr height=200>
    <td width=300><img src=""static/images/keys/z.svg"" width=""35%"" height=""75%""></img></td>
    <td width=300><img src=""static/images/keys/m.svg"" width=""35%"" height=""75%""></img></td>
  </tr>
</table>
  ",77.0,1.0,,,,,,,,,,,,,,,,,,,,,,,,,,
166,0,,html-keyboard-response,166,394525,0.0-7.2-2.2,0res8o2mx8m,2022-09-19 16:45:09.902,5f1338a87447d0308e865fd0,3,64,48,47,40,20,Female,,,"
  <table>
  <tr height=300>
    <td width=300 height=300><img src=""static/images/cards/back_of_black_moons.svg"" width=""175px"" height=""250px""></img></td>
    <td width=300 height=300><img src=""static/images/cards/9_of_black_moons.svg"" width=""175px"" height=""250px""></img></td>
  </tr>
  <tr height=200>
    <td width=300><img src=""static/images/keys/z.svg"" width=""35%"" height=""75%""></img></td>
    <td width=300><img src=""static/images/keys/m.svg"" width=""35%"" height=""75%""></img></td>
  </tr>
</table>
  ",,,,,,,,,,,,,,,,,,,,,,,,,,,,
167,0,,html-keyboard-response,167,396030,0.0-7.2-3.2,0res8o2mx8m,2022-09-19 16:45:09.902,5f1338a87447d0308e865fd0,3,64,48,47,40,20,Female,,,"<p style=""font-size:50px"">You win!
+10 points this round!</p>",,,,,,,,,,,,,,,,,,,,,,,,,,,,
168,0,,html-keyboard-response,168,396542,0.0-7.2-4.2,0res8o2mx8m,2022-09-19 16:45:09.902,5f1338a87447d0308e865fd0,3,64,48,47,40,20,Female,,,,,,1.0,choice,2.0,A,D,red,black,stars,moons,D,A,A,black,moons,1953.599999994,1.0,1.0,NA,right,976.099999994,9.0,1.0,1.0,,,
169,0,,html-keyboard-response,169,399695,0.0-7.3-0.3,0res8o2mx8m,2022-09-19 16:45:09.902,5f1338a87447d0308e865fd0,3,64,48,47,40,20,Female,3149.6999999881,,"
  <table>
  <tr height=300>
    <td width=300 height=300><img src=""static/images/cards/stack_of_red_moons.svg"" width=""175px"" height=""250px""></img></td>
    <td width=300 height=300><img src=""static/images/cards/stack_of_black_stars.svg"" width=""175px"" height=""250px""></img></td>
  </tr>
  <tr height=200>
    <td width=300><img src=""static/images/keys/w.svg"" width=""35%"" height=""75%""></img></td>
    <td width=300><img src=""static/images/keys/o.svg"" width=""35%"" height=""75%""></img></td>
  </tr>
</table>
  ",79.0,1.0,,,,,,,,,,,,,,,,,,,,,,,,,,
170,0,,html-keyboard-response,170,401669,0.0-7.3-1.3,0res8o2mx8m,2022-09-19 16:45:09.902,5f1338a87447d0308e865fd0,3,64,48,47,40,20,Female,1468.3000000119,,"
  <table>
  <tr height=300>
    <td width=300 height=300><img src=""static/images/cards/back_of_black_stars.svg"" width=""175px"" height=""250px""></img></td>
    <td width=300 height=300><img src=""static/images/cards/back_of_black_stars.svg"" width=""175px"" height=""250px""></img></td>
  </tr>
  <tr height=200>
    <td width=300><img src=""static/images/keys/z.svg"" width=""35%"" height=""75%""></img></td>
    <td width=300><img src=""static/images/keys/m.svg"" width=""35%"" height=""75%""></img></td>
  </tr>
</table>
  ",90.0,1.0,,,,,,,,,,,,,,,,,,,,,,,,,,
171,0,,html-keyboard-response,171,403180,0.0-7.3-2.3,0res8o2mx8m,2022-09-19 16:45:09.902,5f1338a87447d0308e865fd0,3,64,48,47,40,20,Female,,,"
  <table>
  <tr height=300>
    <td width=300 height=300><img src=""static/images/cards/2_of_black_stars.svg"" width=""175px"" height=""250px""></img></td>
    <td width=300 height=300><img src=""static/images/cards/back_of_black_stars.svg"" width=""175px"" height=""250px""></img></td>
  </tr>
  <tr height=200>
    <td width=300><img src=""static/images/keys/z.svg"" width=""35%"" height=""75%""></img></td>
    <td width=300><img src=""static/images/keys/m.svg"" width=""35%"" height=""75%""></img></td>
  </tr>
</table>
  ",,,,,,,,,,,,,,,,,,,,,,,,,,,,
172,0,,html-keyboard-response,172,404693,0.0-7.3-3.3,0res8o2mx8m,2022-09-19 16:45:09.902,5f1338a87447d0308e865fd0,3,64,48,47,40,20,Female,,,"<p style=""font-size:50px"">You win!
+10 points this round!</p>",,,,,,,,,,,,,,,,,,,,,,,,,,,,
173,0,,html-keyboard-response,173,405205,0.0-7.3-4.3,0res8o2mx8m,2022-09-19 16:45:09.902,5f1338a87447d0308e865fd0,3,64,48,47,40,20,Female,,,,,,1.0,choice,3.0,B,C,red,black,moons,stars,B,C,C,black,stars,3149.6999999881,1.0,0.0,NA,left,1468.3000000119,2.0,0.0,1.0,,,
174,0,,html-keyboard-response,174,407960,0.0-7.4-0.4,0res8o2mx8m,2022-09-19 16:45:09.902,5f1338a87447d0308e865fd0,3,64,48,47,40,20,Female,2749.599999994,,"
  <table>
  <tr height=300>
    <td width=300 height=300><img src=""static/images/cards/stack_of_red_moons.svg"" width=""175px"" height=""250px""></img></td>
    <td width=300 height=300><img src=""static/images/cards/stack_of_black_stars.svg"" width=""175px"" height=""250px""></img></td>
  </tr>
  <tr height=200>
    <td width=300><img src=""static/images/keys/w.svg"" width=""35%"" height=""75%""></img></td>
    <td width=300><img src=""static/images/keys/o.svg"" width=""35%"" height=""75%""></img></td>
  </tr>
</table>
  ",79.0,1.0,,,,,,,,,,,,,,,,,,,,,,,,,,
175,0,,html-keyboard-response,175,409387,0.0-7.4-1.4,0res8o2mx8m,2022-09-19 16:45:09.902,5f1338a87447d0308e865fd0,3,64,48,47,40,20,Female,915.2999999821,,"
  <table>
  <tr height=300>
    <td width=300 height=300><img src=""static/images/cards/back_of_black_stars.svg"" width=""175px"" height=""250px""></img></td>
    <td width=300 height=300><img src=""static/images/cards/back_of_black_stars.svg"" width=""175px"" height=""250px""></img></td>
  </tr>
  <tr height=200>
    <td width=300><img src=""static/images/keys/z.svg"" width=""35%"" height=""75%""></img></td>
    <td width=300><img src=""static/images/keys/m.svg"" width=""35%"" height=""75%""></img></td>
  </tr>
</table>
  ",90.0,1.0,,,,,,,,,,,,,,,,,,,,,,,,,,
176,0,,html-keyboard-response,176,410896,0.0-7.4-2.4,0res8o2mx8m,2022-09-19 16:45:09.902,5f1338a87447d0308e865fd0,3,64,48,47,40,20,Female,,,"
  <table>
  <tr height=300>
    <td width=300 height=300><img src=""static/images/cards/8_of_black_stars.svg"" width=""175px"" height=""250px""></img></td>
    <td width=300 height=300><img src=""static/images/cards/back_of_black_stars.svg"" width=""175px"" height=""250px""></img></td>
  </tr>
  <tr height=200>
    <td width=300><img src=""static/images/keys/z.svg"" width=""35%"" height=""75%""></img></td>
    <td width=300><img src=""static/images/keys/m.svg"" width=""35%"" height=""75%""></img></td>
  </tr>
</table>
  ",,,,,,,,,,,,,,,,,,,,,,,,,,,,
177,0,,html-keyboard-response,177,412402,0.0-7.4-3.4,0res8o2mx8m,2022-09-19 16:45:09.902,5f1338a87447d0308e865fd0,3,64,48,47,40,20,Female,,,"<p style=""font-size:50px"">You Lose!
No points this round.</p>",,,,,,,,,,,,,,,,,,,,,,,,,,,,
178,0,,html-keyboard-response,178,412922,0.0-7.4-4.4,0res8o2mx8m,2022-09-19 16:45:09.902,5f1338a87447d0308e865fd0,3,64,48,47,40,20,Female,,,,,,1.0,choice,4.0,B,C,red,black,moons,stars,B,C,C,black,stars,2749.599999994,1.0,0.0,NA,left,915.2999999821,8.0,1.0,0.0,,,
179,0,,html-keyboard-response,179,415650,0.0-7.5-0.5,0res8o2mx8m,2022-09-19 16:45:09.902,5f1338a87447d0308e865fd0,3,64,48,47,40,20,Female,2723.099999994,,"
  <table>
  <tr height=300>
    <td width=300 height=300><img src=""static/images/cards/stack_of_black_stars.svg"" width=""175px"" height=""250px""></img></td>
    <td width=300 height=300><img src=""static/images/cards/stack_of_red_stars.svg"" width=""175px"" height=""250px""></img></td>
  </tr>
  <tr height=200>
    <td width=300><img src=""static/images/keys/w.svg"" width=""35%"" height=""75%""></img></td>
    <td width=300><img src=""static/images/keys/o.svg"" width=""35%"" height=""75%""></img></td>
  </tr>
</table>
  ",79.0,1.0,,,,,,,,,,,,,,,,,,,,,,,,,,
180,0,,html-keyboard-response,180,417251,0.0-7.5-1.5,0res8o2mx8m,2022-09-19 16:45:09.902,5f1338a87447d0308e865fd0,3,64,48,47,40,20,Female,1086.900000006,,"
  <table>
  <tr height=300>
    <td width=300 height=300><img src=""static/images/cards/back_of_red_stars.svg"" width=""175px"" height=""250px""></img></td>
    <td width=300 height=300><img src=""static/images/cards/back_of_red_stars.svg"" width=""175px"" height=""250px""></img></td>
  </tr>
  <tr height=200>
    <td width=300><img src=""static/images/keys/z.svg"" width=""35%"" height=""75%""></img></td>
    <td width=300></td>
  </tr>
</table>
  ",90.0,1.0,,,,,,,,,,,,,,,,,,,,,,,,,,
181,0,,html-keyboard-response,181,418765,0.0-7.5-2.5,0res8o2mx8m,2022-09-19 16:45:09.902,5f1338a87447d0308e865fd0,3,64,48,47,40,20,Female,,,"
  <table>
  <tr height=300>
    <td width=300 height=300><img src=""static/images/cards/2_of_red_stars.svg"" width=""175px"" height=""250px""></img></td>
    <td width=300 height=300><img src=""static/images/cards/back_of_red_stars.svg"" width=""175px"" height=""250px""></img></td>
  </tr>
  <tr height=200>
    <td width=300><img src=""static/images/keys/z.svg"" width=""35%"" height=""75%""></img></td>
    <td width=300></td>
  </tr>
</table>
  ",,,,,,,,,,,,,,,,,,,,,,,,,,,,
182,0,,html-keyboard-response,182,420279,0.0-7.5-3.5,0res8o2mx8m,2022-09-19 16:45:09.902,5f1338a87447d0308e865fd0,3,64,48,47,40,20,Female,,,"<p style=""font-size:50px"">You win!
+10 points this round!</p>",,,,,,,,,,,,,,,,,,,,,,,,,,,,
183,0,,html-keyboard-response,183,420793,0.0-7.5-4.5,0res8o2mx8m,2022-09-19 16:45:09.902,5f1338a87447d0308e865fd0,3,64,48,47,40,20,Female,,,,,,1.0,choice,5.0,C,D,black,red,stars,stars,C,D,D,red,stars,2723.099999994,0.0,0.0,1,left,1086.900000006,2.0,0.0,1.0,,,
184,0,,html-keyboard-response,184,422458,0.0-7.6-0.6,0res8o2mx8m,2022-09-19 16:45:09.902,5f1338a87447d0308e865fd0,3,64,48,47,40,20,Female,1661.1999999881,,"
  <table>
  <tr height=300>
    <td width=300 height=300><img src=""static/images/cards/stack_of_red_stars.svg"" width=""175px"" height=""250px""></img></td>
    <td width=300 height=300><img src=""static/images/cards/stack_of_red_moons.svg"" width=""175px"" height=""250px""></img></td>
  </tr>
  <tr height=200>
    <td width=300><img src=""static/images/keys/w.svg"" width=""35%"" height=""75%""></img></td>
    <td width=300><img src=""static/images/keys/o.svg"" width=""35%"" height=""75%""></img></td>
  </tr>
</table>
  ",79.0,1.0,,,,,,,,,,,,,,,,,,,,,,,,,,
185,0,,html-keyboard-response,185,423869,0.0-7.6-1.6,0res8o2mx8m,2022-09-19 16:45:09.902,5f1338a87447d0308e865fd0,3,64,48,47,40,20,Female,902.400000006,,"
  <table>
  <tr height=300>
    <td width=300 height=300><img src=""static/images/cards/back_of_red_moons.svg"" width=""175px"" height=""250px""></img></td>
    <td width=300 height=300><img src=""static/images/cards/back_of_red_moons.svg"" width=""175px"" height=""250px""></img></td>
  </tr>
  <tr height=200>
    <td width=300><img src=""static/images/keys/z.svg"" width=""35%"" height=""75%""></img></td>
    <td width=300></td>
  </tr>
</table>
  ",90.0,1.0,,,,,,,,,,,,,,,,,,,,,,,,,,
186,0,,html-keyboard-response,186,425380,0.0-7.6-2.6,0res8o2mx8m,2022-09-19 16:45:09.902,5f1338a87447d0308e865fd0,3,64,48,47,40,20,Female,,,"
  <table>
  <tr height=300>
    <td width=300 height=300><img src=""static/images/cards/2_of_red_moons.svg"" width=""175px"" height=""250px""></img></td>
    <td width=300 height=300><img src=""static/images/cards/back_of_red_moons.svg"" width=""175px"" height=""250px""></img></td>
  </tr>
  <tr height=200>
    <td width=300><img src=""static/images/keys/z.svg"" width=""35%"" height=""75%""></img></td>
    <td width=300></td>
  </tr>
</table>
  ",,,,,,,,,,,,,,,,,,,,,,,,,,,,
187,0,,html-keyboard-response,187,426896,0.0-7.6-3.6,0res8o2mx8m,2022-09-19 16:45:09.902,5f1338a87447d0308e865fd0,3,64,48,47,40,20,Female,,,"<p style=""font-size:50px"">You Lose!
No points this round.</p>",,,,,,,,,,,,,,,,,,,,,,,,,,,,
188,0,,html-keyboard-response,188,427408,0.0-7.6-4.6,0res8o2mx8m,2022-09-19 16:45:09.902,5f1338a87447d0308e865fd0,3,64,48,47,40,20,Female,,,,,,1.0,choice,6.0,B,D,red,red,stars,moons,D,B,B,red,moons,1661.1999999881,0.0,1.0,1,left,902.400000006,2.0,0.0,0.0,,,
189,0,,html-keyboard-response,189,429769,0.0-7.7-0.7,0res8o2mx8m,2022-09-19 16:45:09.902,5f1338a87447d0308e865fd0,3,64,48,47,40,20,Female,2356.1999999881,,"
  <table>
  <tr height=300>
    <td width=300 height=300><img src=""static/images/cards/stack_of_black_moons.svg"" width=""175px"" height=""250px""></img></td>
    <td width=300 height=300><img src=""static/images/cards/stack_of_black_stars.svg"" width=""175px"" height=""250px""></img></td>
  </tr>
  <tr height=200>
    <td width=300><img src=""static/images/keys/w.svg"" width=""35%"" height=""75%""></img></td>
    <td width=300><img src=""static/images/keys/o.svg"" width=""35%"" height=""75%""></img></td>
  </tr>
</table>
  ",87.0,1.0,,,,,,,,,,,,,,,,,,,,,,,,,,
190,0,,html-keyboard-response,190,431629,0.0-7.7-1.7,0res8o2mx8m,2022-09-19 16:45:09.902,5f1338a87447d0308e865fd0,3,64,48,47,40,20,Female,1356.1999999881,,"
  <table>
  <tr height=300>
    <td width=300 height=300><img src=""static/images/cards/back_of_black_moons.svg"" width=""175px"" height=""250px""></img></td>
    <td width=300 height=300><img src=""static/images/cards/back_of_black_moons.svg"" width=""175px"" height=""250px""></img></td>
  </tr>
  <tr height=200>
    <td width=300><img src=""static/images/keys/z.svg"" width=""35%"" height=""75%""></img></td>
    <td width=300><img src=""static/images/keys/m.svg"" width=""35%"" height=""75%""></img></td>
  </tr>
</table>
  ",90.0,1.0,,,,,,,,,,,,,,,,,,,,,,,,,,
191,0,,html-keyboard-response,191,433147,0.0-7.7-2.7,0res8o2mx8m,2022-09-19 16:45:09.902,5f1338a87447d0308e865fd0,3,64,48,47,40,20,Female,,,"
  <table>
  <tr height=300>
    <td width=300 height=300><img src=""static/images/cards/4_of_black_moons.svg"" width=""175px"" height=""250px""></img></td>
    <td width=300 height=300><img src=""static/images/cards/back_of_black_moons.svg"" width=""175px"" height=""250px""></img></td>
  </tr>
  <tr height=200>
    <td width=300><img src=""static/images/keys/z.svg"" width=""35%"" height=""75%""></img></td>
    <td width=300><img src=""static/images/keys/m.svg"" width=""35%"" height=""75%""></img></td>
  </tr>
</table>
  ",,,,,,,,,,,,,,,,,,,,,,,,,,,,
192,0,,html-keyboard-response,192,434653,0.0-7.7-3.7,0res8o2mx8m,2022-09-19 16:45:09.902,5f1338a87447d0308e865fd0,3,64,48,47,40,20,Female,,,"<p style=""font-size:50px"">You Lose!
No points this round.</p>",,,,,,,,,,,,,,,,,,,,,,,,,,,,
193,0,,html-keyboard-response,193,435165,0.0-7.7-4.7,0res8o2mx8m,2022-09-19 16:45:09.902,5f1338a87447d0308e865fd0,3,64,48,47,40,20,Female,,,,,,1.0,choice,7.0,A,C,black,black,moons,stars,A,C,A,black,moons,2356.1999999881,1.0,1.0,NA,left,1356.1999999881,4.0,0.0,0.0,,,
194,0,,html-keyboard-response,194,436848,0.0-7.8-0.8,0res8o2mx8m,2022-09-19 16:45:09.902,5f1338a87447d0308e865fd0,3,64,48,47,40,20,Female,1679.599999994,,"
  <table>
  <tr height=300>
    <td width=300 height=300><img src=""static/images/cards/stack_of_red_bolts.svg"" width=""175px"" height=""250px""></img></td>
    <td width=300 height=300><img src=""static/images/cards/stack_of_red_moons.svg"" width=""175px"" height=""250px""></img></td>
  </tr>
  <tr height=200>
    <td width=300><img src=""static/images/keys/w.svg"" width=""35%"" height=""75%""></img></td>
    <td width=300><img src=""static/images/keys/o.svg"" width=""35%"" height=""75%""></img></td>
  </tr>
</table>
  ",87.0,1.0,,,,,,,,,,,,,,,,,,,,,,,,,,
195,0,,html-keyboard-response,195,438343,0.0-7.8-1.8,0res8o2mx8m,2022-09-19 16:45:09.902,5f1338a87447d0308e865fd0,3,64,48,47,40,20,Female,988.6999999881,,"
  <table>
  <tr height=300>
    <td width=300 height=300><img src=""static/images/cards/back_of_red_bolts.svg"" width=""175px"" height=""250px""></img></td>
    <td width=300 height=300><img src=""static/images/cards/back_of_red_bolts.svg"" width=""175px"" height=""250px""></img></td>
  </tr>
  <tr height=200>
    <td width=300><img src=""static/images/keys/z.svg"" width=""35%"" height=""75%""></img></td>
    <td width=300><img src=""static/images/keys/m.svg"" width=""35%"" height=""75%""></img></td>
  </tr>
</table>
  ",90.0,1.0,,,,,,,,,,,,,,,,,,,,,,,,,,
196,0,,html-keyboard-response,196,439853,0.0-7.8-2.8,0res8o2mx8m,2022-09-19 16:45:09.902,5f1338a87447d0308e865fd0,3,64,48,47,40,20,Female,,,"
  <table>
  <tr height=300>
    <td width=300 height=300><img src=""static/images/cards/10_of_red_bolts.svg"" width=""175px"" height=""250px""></img></td>
    <td width=300 height=300><img src=""static/images/cards/back_of_red_bolts.svg"" width=""175px"" height=""250px""></img></td>
  </tr>
  <tr height=200>
    <td width=300><img src=""static/images/keys/z.svg"" width=""35%"" height=""75%""></img></td>
    <td width=300><img src=""static/images/keys/m.svg"" width=""35%"" height=""75%""></img></td>
  </tr>
</table>
  ",,,,,,,,,,,,,,,,,,,,,,,,,,,,
197,0,,html-keyboard-response,197,441366,0.0-7.8-3.8,0res8o2mx8m,2022-09-19 16:45:09.902,5f1338a87447d0308e865fd0,3,64,48,47,40,20,Female,,,"<p style=""font-size:50px"">You win!
+10 points this round!</p>",,,,,,,,,,,,,,,,,,,,,,,,,,,,
198,0,,html-keyboard-response,198,441891,0.0-7.8-4.8,0res8o2mx8m,2022-09-19 16:45:09.902,5f1338a87447d0308e865fd0,3,64,48,47,40,20,Female,,,,,,1.0,choice,8.0,B,Xc,red,red,bolts,moons,Xc,B,Xc,red,bolts,1679.599999994,1.0,0.0,NA,left,988.6999999881,10.0,1.0,1.0,,,
199,0,,html-keyboard-response,199,443420,0.0-7.9-0.9,0res8o2mx8m,2022-09-19 16:45:09.902,5f1338a87447d0308e865fd0,3,64,48,47,40,20,Female,1524.7000000179,,"
  <table>
  <tr height=300>
    <td width=300 height=300><img src=""static/images/cards/stack_of_black_moons.svg"" width=""175px"" height=""250px""></img></td>
    <td width=300 height=300><img src=""static/images/cards/stack_of_black_bolts.svg"" width=""175px"" height=""250px""></img></td>
  </tr>
  <tr height=200>
    <td width=300><img src=""static/images/keys/w.svg"" width=""35%"" height=""75%""></img></td>
    <td width=300><img src=""static/images/keys/o.svg"" width=""35%"" height=""75%""></img></td>
  </tr>
</table>
  ",79.0,1.0,,,,,,,,,,,,,,,,,,,,,,,,,,
200,0,,html-keyboard-response,200,444870,0.0-7.9-1.9,0res8o2mx8m,2022-09-19 16:45:09.902,5f1338a87447d0308e865fd0,3,64,48,47,40,20,Female,944.099999994,,"
  <table>
  <tr height=300>
    <td width=300 height=300><img src=""static/images/cards/back_of_black_bolts.svg"" width=""175px"" height=""250px""></img></td>
    <td width=300 height=300><img src=""static/images/cards/back_of_black_bolts.svg"" width=""175px"" height=""250px""></img></td>
  </tr>
  <tr height=200>
    <td width=300><img src=""static/images/keys/z.svg"" width=""35%"" height=""75%""></img></td>
    <td width=300></td>
  </tr>
</table>
  ",90.0,1.0,,,,,,,,,,,,,,,,,,,,,,,,,,
201,0,,html-keyboard-response,201,446382,0.0-7.9-2.9,0res8o2mx8m,2022-09-19 16:45:09.902,5f1338a87447d0308e865fd0,3,64,48,47,40,20,Female,,,"
  <table>
  <tr height=300>
    <td width=300 height=300><img src=""static/images/cards/1_of_black_bolts.svg"" width=""175px"" height=""250px""></img></td>
    <td width=300 height=300><img src=""static/images/cards/back_of_black_bolts.svg"" width=""175px"" height=""250px""></img></td>
  </tr>
  <tr height=200>
    <td width=300><img src=""static/images/keys/z.svg"" width=""35%"" height=""75%""></img></td>
    <td width=300></td>
  </tr>
</table>
  ",,,,,,,,,,,,,,,,,,,,,,,,,,,,
202,0,,html-keyboard-response,202,447898,0.0-7.9-3.9,0res8o2mx8m,2022-09-19 16:45:09.902,5f1338a87447d0308e865fd0,3,64,48,47,40,20,Female,,,"<p style=""font-size:50px"">You win!
+10 points this round!</p>",,,,,,,,,,,,,,,,,,,,,,,,,,,,
203,0,,html-keyboard-response,203,448409,0.0-7.9-4.9,0res8o2mx8m,2022-09-19 16:45:09.902,5f1338a87447d0308e865fd0,3,64,48,47,40,20,Female,,,,,,1.0,choice,9.0,A,Xnc,black,black,moons,bolts,A,Xnc,Xnc,black,bolts,1524.7000000179,0.0,0.0,1,left,944.099999994,1.0,0.0,1.0,,,
204,0,,html-keyboard-response,204,450767,0.0-7.10-0.10,0res8o2mx8m,2022-09-19 16:45:09.902,5f1338a87447d0308e865fd0,3,64,48,47,40,20,Female,2353.6999999881,,"
  <table>
  <tr height=300>
    <td width=300 height=300><img src=""static/images/cards/stack_of_black_moons.svg"" width=""175px"" height=""250px""></img></td>
    <td width=300 height=300><img src=""static/images/cards/stack_of_black_stars.svg"" width=""175px"" height=""250px""></img></td>
  </tr>
  <tr height=200>
    <td width=300><img src=""static/images/keys/w.svg"" width=""35%"" height=""75%""></img></td>
    <td width=300><img src=""static/images/keys/o.svg"" width=""35%"" height=""75%""></img></td>
  </tr>
</table>
  ",87.0,1.0,,,,,,,,,,,,,,,,,,,,,,,,,,
205,0,,html-keyboard-response,205,452571,0.0-7.10-1.10,0res8o2mx8m,2022-09-19 16:45:09.902,5f1338a87447d0308e865fd0,3,64,48,47,40,20,Female,1299.1999999881,,"
  <table>
  <tr height=300>
    <td width=300 height=300><img src=""static/images/cards/back_of_black_moons.svg"" width=""175px"" height=""250px""></img></td>
    <td width=300 height=300><img src=""static/images/cards/back_of_black_moons.svg"" width=""175px"" height=""250px""></img></td>
  </tr>
  <tr height=200>
    <td width=300><img src=""static/images/keys/z.svg"" width=""35%"" height=""75%""></img></td>
    <td width=300><img src=""static/images/keys/m.svg"" width=""35%"" height=""75%""></img></td>
  </tr>
</table>
  ",77.0,1.0,,,,,,,,,,,,,,,,,,,,,,,,,,
206,0,,html-keyboard-response,206,454089,0.0-7.10-2.10,0res8o2mx8m,2022-09-19 16:45:09.902,5f1338a87447d0308e865fd0,3,64,48,47,40,20,Female,,,"
  <table>
  <tr height=300>
    <td width=300 height=300><img src=""static/images/cards/back_of_black_moons.svg"" width=""175px"" height=""250px""></img></td>
    <td width=300 height=300><img src=""static/images/cards/7_of_black_moons.svg"" width=""175px"" height=""250px""></img></td>
  </tr>
  <tr height=200>
    <td width=300><img src=""static/images/keys/z.svg"" width=""35%"" height=""75%""></img></td>
    <td width=300><img src=""static/images/keys/m.svg"" width=""35%"" height=""75%""></img></td>
  </tr>
</table>
  ",,,,,,,,,,,,,,,,,,,,,,,,,,,,
207,0,,html-keyboard-response,207,455601,0.0-7.10-3.10,0res8o2mx8m,2022-09-19 16:45:09.902,5f1338a87447d0308e865fd0,3,64,48,47,40,20,Female,,,"<p style=""font-size:50px"">You win!
+10 points this round!</p>",,,,,,,,,,,,,,,,,,,,,,,,,,,,
208,0,,html-keyboard-response,208,456115,0.0-7.10-4.10,0res8o2mx8m,2022-09-19 16:45:09.902,5f1338a87447d0308e865fd0,3,64,48,47,40,20,Female,,,,,,1.0,choice,10.0,A,C,black,black,moons,stars,A,C,A,black,moons,2353.6999999881,1.0,1.0,NA,right,1299.1999999881,7.0,1.0,1.0,,,
209,0,,html-keyboard-response,209,457991,0.0-7.11-0.11,0res8o2mx8m,2022-09-19 16:45:09.902,5f1338a87447d0308e865fd0,3,64,48,47,40,20,Female,1872.099999994,,"
  <table>
  <tr height=300>
    <td width=300 height=300><img src=""static/images/cards/stack_of_red_stars.svg"" width=""175px"" height=""250px""></img></td>
    <td width=300 height=300><img src=""static/images/cards/stack_of_red_moons.svg"" width=""175px"" height=""250px""></img></td>
  </tr>
  <tr height=200>
    <td width=300><img src=""static/images/keys/w.svg"" width=""35%"" height=""75%""></img></td>
    <td width=300><img src=""static/images/keys/o.svg"" width=""35%"" height=""75%""></img></td>
  </tr>
</table>
  ",79.0,1.0,,,,,,,,,,,,,,,,,,,,,,,,,,
210,0,,html-keyboard-response,210,459352,0.0-7.11-1.11,0res8o2mx8m,2022-09-19 16:45:09.902,5f1338a87447d0308e865fd0,3,64,48,47,40,20,Female,850.099999994,,"
  <table>
  <tr height=300>
    <td width=300 height=300><img src=""static/images/cards/back_of_red_moons.svg"" width=""175px"" height=""250px""></img></td>
    <td width=300 height=300><img src=""static/images/cards/back_of_red_moons.svg"" width=""175px"" height=""250px""></img></td>
  </tr>
  <tr height=200>
    <td width=300></td>
    <td width=300><img src=""static/images/keys/m.svg"" width=""35%"" height=""75%""></img></td>
  </tr>
</table>
  ",77.0,1.0,,,,,,,,,,,,,,,,,,,,,,,,,,
211,0,,html-keyboard-response,211,460866,0.0-7.11-2.11,0res8o2mx8m,2022-09-19 16:45:09.902,5f1338a87447d0308e865fd0,3,64,48,47,40,20,Female,,,"
  <table>
  <tr height=300>
    <td width=300 height=300><img src=""static/images/cards/back_of_red_moons.svg"" width=""175px"" height=""250px""></img></td>
    <td width=300 height=300><img src=""static/images/cards/4_of_red_moons.svg"" width=""175px"" height=""250px""></img></td>
  </tr>
  <tr height=200>
    <td width=300></td>
    <td width=300><img src=""static/images/keys/m.svg"" width=""35%"" height=""75%""></img></td>
  </tr>
</table>
  ",,,,,,,,,,,,,,,,,,,,,,,,,,,,
212,0,,html-keyboard-response,212,462372,0.0-7.11-3.11,0res8o2mx8m,2022-09-19 16:45:09.902,5f1338a87447d0308e865fd0,3,64,48,47,40,20,Female,,,"<p style=""font-size:50px"">You Lose!
No points this round.</p>",,,,,,,,,,,,,,,,,,,,,,,,,,,,
213,0,,html-keyboard-response,213,462884,0.0-7.11-4.11,0res8o2mx8m,2022-09-19 16:45:09.902,5f1338a87447d0308e865fd0,3,64,48,47,40,20,Female,,,,,,1.0,choice,11.0,B,D,red,red,stars,moons,D,B,B,red,moons,1872.099999994,0.0,1.0,0,right,850.099999994,4.0,0.0,0.0,,,
214,0,,html-keyboard-response,214,464963,0.0-7.12-0.12,0res8o2mx8m,2022-09-19 16:45:09.902,5f1338a87447d0308e865fd0,3,64,48,47,40,20,Female,2074.400000006,,"
  <table>
  <tr height=300>
    <td width=300 height=300><img src=""static/images/cards/stack_of_black_moons.svg"" width=""175px"" height=""250px""></img></td>
    <td width=300 height=300><img src=""static/images/cards/stack_of_red_stars.svg"" width=""175px"" height=""250px""></img></td>
  </tr>
  <tr height=200>
    <td width=300><img src=""static/images/keys/w.svg"" width=""35%"" height=""75%""></img></td>
    <td width=300><img src=""static/images/keys/o.svg"" width=""35%"" height=""75%""></img></td>
  </tr>
</table>
  ",87.0,1.0,,,,,,,,,,,,,,,,,,,,,,,,,,
215,0,,html-keyboard-response,215,466869,0.0-7.12-1.12,0res8o2mx8m,2022-09-19 16:45:09.902,5f1338a87447d0308e865fd0,3,64,48,47,40,20,Female,1398.099999994,,"
  <table>
  <tr height=300>
    <td width=300 height=300><img src=""static/images/cards/back_of_black_moons.svg"" width=""175px"" height=""250px""></img></td>
    <td width=300 height=300><img src=""static/images/cards/back_of_black_moons.svg"" width=""175px"" height=""250px""></img></td>
  </tr>
  <tr height=200>
    <td width=300><img src=""static/images/keys/z.svg"" width=""35%"" height=""75%""></img></td>
    <td width=300><img src=""static/images/keys/m.svg"" width=""35%"" height=""75%""></img></td>
  </tr>
</table>
  ",77.0,1.0,,,,,,,,,,,,,,,,,,,,,,,,,,
216,0,,html-keyboard-response,216,468385,0.0-7.12-2.12,0res8o2mx8m,2022-09-19 16:45:09.902,5f1338a87447d0308e865fd0,3,64,48,47,40,20,Female,,,"
  <table>
  <tr height=300>
    <td width=300 height=300><img src=""static/images/cards/back_of_black_moons.svg"" width=""175px"" height=""250px""></img></td>
    <td width=300 height=300><img src=""static/images/cards/1_of_black_moons.svg"" width=""175px"" height=""250px""></img></td>
  </tr>
  <tr height=200>
    <td width=300><img src=""static/images/keys/z.svg"" width=""35%"" height=""75%""></img></td>
    <td width=300><img src=""static/images/keys/m.svg"" width=""35%"" height=""75%""></img></td>
  </tr>
</table>
  ",,,,,,,,,,,,,,,,,,,,,,,,,,,,
217,0,,html-keyboard-response,217,469900,0.0-7.12-3.12,0res8o2mx8m,2022-09-19 16:45:09.902,5f1338a87447d0308e865fd0,3,64,48,47,40,20,Female,,,"<p style=""font-size:50px"">You Lose!
No points this round.</p>",,,,,,,,,,,,,,,,,,,,,,,,,,,,
218,0,,html-keyboard-response,218,470417,0.0-7.12-4.12,0res8o2mx8m,2022-09-19 16:45:09.902,5f1338a87447d0308e865fd0,3,64,48,47,40,20,Female,,,,,,1.0,choice,12.0,A,D,black,red,moons,stars,A,D,A,black,moons,2074.400000006,1.0,1.0,NA,right,1398.099999994,1.0,0.0,0.0,,,
219,0,,html-keyboard-response,219,472814,0.0-7.13-0.13,0res8o2mx8m,2022-09-19 16:45:09.902,5f1338a87447d0308e865fd0,3,64,48,47,40,20,Female,2392.900000006,,"
  <table>
  <tr height=300>
    <td width=300 height=300><img src=""static/images/cards/stack_of_black_stars.svg"" width=""175px"" height=""250px""></img></td>
    <td width=300 height=300><img src=""static/images/cards/stack_of_red_stars.svg"" width=""175px"" height=""250px""></img></td>
  </tr>
  <tr height=200>
    <td width=300><img src=""static/images/keys/w.svg"" width=""35%"" height=""75%""></img></td>
    <td width=300><img src=""static/images/keys/o.svg"" width=""35%"" height=""75%""></img></td>
  </tr>
</table>
  ",87.0,1.0,,,,,,,,,,,,,,,,,,,,,,,,,,
220,0,,html-keyboard-response,220,474086,0.0-7.13-1.13,0res8o2mx8m,2022-09-19 16:45:09.902,5f1338a87447d0308e865fd0,3,64,48,47,40,20,Female,757.7999999821,,"
  <table>
  <tr height=300>
    <td width=300 height=300><img src=""static/images/cards/back_of_black_stars.svg"" width=""175px"" height=""250px""></img></td>
    <td width=300 height=300><img src=""static/images/cards/back_of_black_stars.svg"" width=""175px"" height=""250px""></img></td>
  </tr>
  <tr height=200>
    <td width=300><img src=""static/images/keys/z.svg"" width=""35%"" height=""75%""></img></td>
    <td width=300><img src=""static/images/keys/m.svg"" width=""35%"" height=""75%""></img></td>
  </tr>
</table>
  ",90.0,1.0,,,,,,,,,,,,,,,,,,,,,,,,,,
221,0,,html-keyboard-response,221,475599,0.0-7.13-2.13,0res8o2mx8m,2022-09-19 16:45:09.902,5f1338a87447d0308e865fd0,3,64,48,47,40,20,Female,,,"
  <table>
  <tr height=300>
    <td width=300 height=300><img src=""static/images/cards/10_of_black_stars.svg"" width=""175px"" height=""250px""></img></td>
    <td width=300 height=300><img src=""static/images/cards/back_of_black_stars.svg"" width=""175px"" height=""250px""></img></td>
  </tr>
  <tr height=200>
    <td width=300><img src=""static/images/keys/z.svg"" width=""35%"" height=""75%""></img></td>
    <td width=300><img src=""static/images/keys/m.svg"" width=""35%"" height=""75%""></img></td>
  </tr>
</table>
  ",,,,,,,,,,,,,,,,,,,,,,,,,,,,
222,0,,html-keyboard-response,222,477108,0.0-7.13-3.13,0res8o2mx8m,2022-09-19 16:45:09.902,5f1338a87447d0308e865fd0,3,64,48,47,40,20,Female,,,"<p style=""font-size:50px"">You Lose!
No points this round.</p>",,,,,,,,,,,,,,,,,,,,,,,,,,,,
223,0,,html-keyboard-response,223,477628,0.0-7.13-4.13,0res8o2mx8m,2022-09-19 16:45:09.902,5f1338a87447d0308e865fd0,3,64,48,47,40,20,Female,,,,,,1.0,choice,13.0,C,D,black,red,stars,stars,C,D,C,black,stars,2392.900000006,1.0,0.0,NA,left,757.7999999821,10.0,1.0,0.0,,,
224,0,,html-keyboard-response,224,480057,0.0-7.14-0.14,0res8o2mx8m,2022-09-19 16:45:09.902,5f1338a87447d0308e865fd0,3,64,48,47,40,20,Female,2425.0,,"
  <table>
  <tr height=300>
    <td width=300 height=300><img src=""static/images/cards/stack_of_red_stars.svg"" width=""175px"" height=""250px""></img></td>
    <td width=300 height=300><img src=""static/images/cards/stack_of_black_stars.svg"" width=""175px"" height=""250px""></img></td>
  </tr>
  <tr height=200>
    <td width=300><img src=""static/images/keys/w.svg"" width=""35%"" height=""75%""></img></td>
    <td width=300><img src=""static/images/keys/o.svg"" width=""35%"" height=""75%""></img></td>
  </tr>
</table>
  ",79.0,1.0,,,,,,,,,,,,,,,,,,,,,,,,,,
225,0,,html-keyboard-response,225,481291,0.0-7.14-1.14,0res8o2mx8m,2022-09-19 16:45:09.902,5f1338a87447d0308e865fd0,3,64,48,47,40,20,Female,720.3000000119,,"
  <table>
  <tr height=300>
    <td width=300 height=300><img src=""static/images/cards/back_of_black_stars.svg"" width=""175px"" height=""250px""></img></td>
    <td width=300 height=300><img src=""static/images/cards/back_of_black_stars.svg"" width=""175px"" height=""250px""></img></td>
  </tr>
  <tr height=200>
    <td width=300><img src=""static/images/keys/z.svg"" width=""35%"" height=""75%""></img></td>
    <td width=300><img src=""static/images/keys/m.svg"" width=""35%"" height=""75%""></img></td>
  </tr>
</table>
  ",77.0,1.0,,,,,,,,,,,,,,,,,,,,,,,,,,
226,0,,html-keyboard-response,226,482803,0.0-7.14-2.14,0res8o2mx8m,2022-09-19 16:45:09.902,5f1338a87447d0308e865fd0,3,64,48,47,40,20,Female,,,"
  <table>
  <tr height=300>
    <td width=300 height=300><img src=""static/images/cards/back_of_black_stars.svg"" width=""175px"" height=""250px""></img></td>
    <td width=300 height=300><img src=""static/images/cards/10_of_black_stars.svg"" width=""175px"" height=""250px""></img></td>
  </tr>
  <tr height=200>
    <td width=300><img src=""static/images/keys/z.svg"" width=""35%"" height=""75%""></img></td>
    <td width=300><img src=""static/images/keys/m.svg"" width=""35%"" height=""75%""></img></td>
  </tr>
</table>
  ",,,,,,,,,,,,,,,,,,,,,,,,,,,,
227,0,,html-keyboard-response,227,484318,0.0-7.14-3.14,0res8o2mx8m,2022-09-19 16:45:09.902,5f1338a87447d0308e865fd0,3,64,48,47,40,20,Female,,,"<p style=""font-size:50px"">You Lose!
No points this round.</p>",,,,,,,,,,,,,,,,,,,,,,,,,,,,
228,0,,html-keyboard-response,228,484830,0.0-7.14-4.14,0res8o2mx8m,2022-09-19 16:45:09.902,5f1338a87447d0308e865fd0,3,64,48,47,40,20,Female,,,,,,1.0,choice,14.0,C,D,red,black,stars,stars,D,C,C,black,stars,2425.0,1.0,0.0,NA,right,720.3000000119,10.0,1.0,0.0,,,
229,0,,html-keyboard-response,229,486214,0.0-7.15-0.15,0res8o2mx8m,2022-09-19 16:45:09.902,5f1338a87447d0308e865fd0,3,64,48,47,40,20,Female,1379.5,,"
  <table>
  <tr height=300>
    <td width=300 height=300><img src=""static/images/cards/stack_of_red_moons.svg"" width=""175px"" height=""250px""></img></td>
    <td width=300 height=300><img src=""static/images/cards/stack_of_red_stars.svg"" width=""175px"" height=""250px""></img></td>
  </tr>
  <tr height=200>
    <td width=300><img src=""static/images/keys/w.svg"" width=""35%"" height=""75%""></img></td>
    <td width=300><img src=""static/images/keys/o.svg"" width=""35%"" height=""75%""></img></td>
  </tr>
</table>
  ",79.0,1.0,,,,,,,,,,,,,,,,,,,,,,,,,,
230,0,,html-keyboard-response,230,487451,0.0-7.15-1.15,0res8o2mx8m,2022-09-19 16:45:09.902,5f1338a87447d0308e865fd0,3,64,48,47,40,20,Female,725.1999999881,,"
  <table>
  <tr height=300>
    <td width=300 height=300><img src=""static/images/cards/back_of_red_stars.svg"" width=""175px"" height=""250px""></img></td>
    <td width=300 height=300><img src=""static/images/cards/back_of_red_stars.svg"" width=""175px"" height=""250px""></img></td>
  </tr>
  <tr height=200>
    <td width=300></td>
    <td width=300><img src=""static/images/keys/m.svg"" width=""35%"" height=""75%""></img></td>
  </tr>
</table>
  ",77.0,1.0,,,,,,,,,,,,,,,,,,,,,,,,,,
231,0,,html-keyboard-response,231,488969,0.0-7.15-2.15,0res8o2mx8m,2022-09-19 16:45:09.902,5f1338a87447d0308e865fd0,3,64,48,47,40,20,Female,,,"
  <table>
  <tr height=300>
    <td width=300 height=300><img src=""static/images/cards/back_of_red_stars.svg"" width=""175px"" height=""250px""></img></td>
    <td width=300 height=300><img src=""static/images/cards/2_of_red_stars.svg"" width=""175px"" height=""250px""></img></td>
  </tr>
  <tr height=200>
    <td width=300></td>
    <td width=300><img src=""static/images/keys/m.svg"" width=""35%"" height=""75%""></img></td>
  </tr>
</table>
  ",,,,,,,,,,,,,,,,,,,,,,,,,,,,
232,0,,html-keyboard-response,232,490474,0.0-7.15-3.15,0res8o2mx8m,2022-09-19 16:45:09.902,5f1338a87447d0308e865fd0,3,64,48,47,40,20,Female,,,"<p style=""font-size:50px"">You Lose!
No points this round.</p>",,,,,,,,,,,,,,,,,,,,,,,,,,,,
233,0,,html-keyboard-response,233,490987,0.0-7.15-4.15,0res8o2mx8m,2022-09-19 16:45:09.902,5f1338a87447d0308e865fd0,3,64,48,47,40,20,Female,,,,,,1.0,choice,15.0,B,D,red,red,moons,stars,B,D,D,red,stars,1379.5,0.0,0.0,0,right,725.1999999881,2.0,0.0,0.0,,,
234,0,,html-keyboard-response,234,492925,0.0-7.16-0.16,0res8o2mx8m,2022-09-19 16:45:09.902,5f1338a87447d0308e865fd0,3,64,48,47,40,20,Female,1933.7999999821,,"
  <table>
  <tr height=300>
    <td width=300 height=300><img src=""static/images/cards/stack_of_red_moons.svg"" width=""175px"" height=""250px""></img></td>
    <td width=300 height=300><img src=""static/images/cards/stack_of_red_stars.svg"" width=""175px"" height=""250px""></img></td>
  </tr>
  <tr height=200>
    <td width=300><img src=""static/images/keys/w.svg"" width=""35%"" height=""75%""></img></td>
