,index,success,trial_type,trial_index,time_elapsed,internal_node_id,subject,date,prol_id,ctbl,sense_of_control_A,sense_of_control_B,sense_of_control_C,sense_of_control_D,age,gender,rt,url,stimulus,key_press,npress,is_data_trial,phase,trial,deck1,deck2,col1,col2,sym1,sym2,deck_l,deck_r,chosen_deck,chosen_col,chosen_sym,deck_rt,choose_choice,mutual_info,hidden_key,chosen_card,card_rt,player_num,win_card,outcome,mock_rating,response,responses
0,0,1.0,fullscreen,0,2409,0.0-0.0,uwllue8p0m,2022-09-19 15:58:48.416,610329975d39376c37360d3c,0,66,6,28,7,28,Female,,,,,,,,,,,,,,,,,,,,,,,,,,,,,,,
1,0,,external-html,1,8099,0.0-1.0,uwllue8p0m,2022-09-19 15:58:48.416,610329975d39376c37360d3c,0,66,6,28,7,28,Female,5663.5,static/js/sub/consent.html,,,,,,,,,,,,,,,,,,,,,,,,,,,,,
2,0,,call-function,2,8101,0.0-2.0,uwllue8p0m,2022-09-19 15:58:48.416,610329975d39376c37360d3c,0,66,6,28,7,28,Female,,,,,,,,,,,,,,,,,,,,,,,,,,,,,,,
3,0,,image-keyboard-response,3,26704,0.0-3.0-0.0,uwllue8p0m,2022-09-19 15:58:48.416,610329975d39376c37360d3c,0,66,6,28,7,28,Female,18601.5,,static/images/instructions_CB_0/Slide1.png,39.0,,,,,,,,,,,,,,,,,,,,,,,,,,,
4,0,,image-keyboard-response,4,30715,0.0-3.1-0.1,uwllue8p0m,2022-09-19 15:58:48.416,610329975d39376c37360d3c,0,66,6,28,7,28,Female,4010.3999999762,,static/images/instructions_CB_0/Slide2.png,39.0,,,,,,,,,,,,,,,,,,,,,,,,,,,
5,0,,image-keyboard-response,5,33424,0.0-3.2-0.2,uwllue8p0m,2022-09-19 15:58:48.416,610329975d39376c37360d3c,0,66,6,28,7,28,Female,2706.2000000477,,static/images/instructions_CB_0/Slide3.png,39.0,,,,,,,,,,,,,,,,,,,,,,,,,,,
6,0,,image-keyboard-response,6,35749,0.0-3.3-0.3,uwllue8p0m,2022-09-19 15:58:48.416,610329975d39376c37360d3c,0,66,6,28,7,28,Female,2323.6000000238,,static/images/instructions_CB_0/Slide4.png,39.0,,,,,,,,,,,,,,,,,,,,,,,,,,,
7,0,,image-keyboard-response,7,39329,0.0-3.4-0.4,uwllue8p0m,2022-09-19 15:58:48.416,610329975d39376c37360d3c,0,66,6,28,7,28,Female,3577.8999999762,,static/images/instructions_CB_0/Slide5.png,39.0,,,,,,,,,,,,,,,,,,,,,,,,,,,
8,0,,image-keyboard-response,8,41276,0.0-3.5-0.5,uwllue8p0m,2022-09-19 15:58:48.416,610329975d39376c37360d3c,0,66,6,28,7,28,Female,1945.1000000238,,static/images/instructions_CB_0/Slide6.png,39.0,,,,,,,,,,,,,,,,,,,,,,,,,,,
9,0,,image-keyboard-response,9,44508,0.0-3.6-0.6,uwllue8p0m,2022-09-19 15:58:48.416,610329975d39376c37360d3c,0,66,6,28,7,28,Female,3230.5999999046,,static/images/instructions_CB_0/Slide7.png,39.0,,,,,,,,,,,,,,,,,,,,,,,,,,,
10,0,,image-keyboard-response,10,49796,0.0-3.7-0.7,uwllue8p0m,2022-09-19 15:58:48.416,610329975d39376c37360d3c,0,66,6,28,7,28,Female,5287.0999999046,,static/images/instructions_CB_0/Slide8.png,39.0,,,,,,,,,,,,,,,,,,,,,,,,,,,
11,0,,image-keyboard-response,11,53082,0.0-3.8-0.8,uwllue8p0m,2022-09-19 15:58:48.416,610329975d39376c37360d3c,0,66,6,28,7,28,Female,3283.8999999762,,static/images/instructions_CB_0/Slide9.png,39.0,,,,,,,,,,,,,,,,,,,,,,,,,,,
12,0,,image-keyboard-response,12,57478,0.0-3.9-0.9,uwllue8p0m,2022-09-19 15:58:48.416,610329975d39376c37360d3c,0,66,6,28,7,28,Female,4394.5,,static/images/instructions_CB_0/Slide10.png,39.0,,,,,,,,,,,,,,,,,,,,,,,,,,,
13,0,,image-keyboard-response,13,59950,0.0-3.10-0.10,uwllue8p0m,2022-09-19 15:58:48.416,610329975d39376c37360d3c,0,66,6,28,7,28,Female,2470.9000000954,,static/images/instructions_CB_0/Slide11.png,39.0,,,,,,,,,,,,,,,,,,,,,,,,,,,
14,0,,image-keyboard-response,14,64426,0.0-3.11-0.11,uwllue8p0m,2022-09-19 15:58:48.416,610329975d39376c37360d3c,0,66,6,28,7,28,Female,4474.7000000477,,static/images/instructions_CB_0/Slide12.png,39.0,,,,,,,,,,,,,,,,,,,,,,,,,,,
15,0,,image-keyboard-response,15,75163,0.0-3.12-0.12,uwllue8p0m,2022-09-19 15:58:48.416,610329975d39376c37360d3c,0,66,6,28,7,28,Female,10735.6000000238,,static/images/instructions_CB_0/Slide13.png,39.0,,,,,,,,,,,,,,,,,,,,,,,,,,,
16,0,,image-keyboard-response,16,77374,0.0-3.13-0.13,uwllue8p0m,2022-09-19 15:58:48.416,610329975d39376c37360d3c,0,66,6,28,7,28,Female,2209.6999999285,,static/images/instructions_CB_0/Slide14.png,39.0,,,,,,,,,,,,,,,,,,,,,,,,,,,
17,0,,image-keyboard-response,17,81745,0.0-3.14-0.14,uwllue8p0m,2022-09-19 15:58:48.416,610329975d39376c37360d3c,0,66,6,28,7,28,Female,4368.5,,static/images/instructions_CB_0/Slide15.png,39.0,,,,,,,,,,,,,,,,,,,,,,,,,,,
18,0,,image-keyboard-response,18,84612,0.0-3.15-0.15,uwllue8p0m,2022-09-19 15:58:48.416,610329975d39376c37360d3c,0,66,6,28,7,28,Female,2866.3999999762,,static/images/instructions_CB_0/Slide16.png,39.0,,,,,,,,,,,,,,,,,,,,,,,,,,,
19,0,,image-keyboard-response,19,88894,0.0-3.16-0.16,uwllue8p0m,2022-09-19 15:58:48.416,610329975d39376c37360d3c,0,66,6,28,7,28,Female,4280.2999999523,,static/images/instructions_CB_0/Slide17.png,39.0,,,,,,,,,,,,,,,,,,,,,,,,,,,
20,0,,image-keyboard-response,20,105826,0.0-3.17-0.17,uwllue8p0m,2022-09-19 15:58:48.416,610329975d39376c37360d3c,0,66,6,28,7,28,Female,16927.8999999762,,static/images/instructions_CB_0/Slide18.png,39.0,,,,,,,,,,,,,,,,,,,,,,,,,,,
21,0,,image-keyboard-response,21,108684,0.0-3.18-0.18,uwllue8p0m,2022-09-19 15:58:48.416,610329975d39376c37360d3c,0,66,6,28,7,28,Female,2856.3999999762,,static/images/instructions_CB_0/Slide19.png,39.0,,,,,,,,,,,,,,,,,,,,,,,,,,,
22,0,,html-keyboard-response,22,110191,0.0-4.0-0.0,uwllue8p0m,2022-09-19 15:58:48.416,610329975d39376c37360d3c,0,66,6,28,7,28,Female,,,"<img src=""static/images/cards/stack_of_red_stars.svg"" width=""175px"" height=""250px""></img>",,,,,,,,,,,,,,,,,,,,,,,,,,,,
23,0,,html-keyboard-response,23,111836,0.0-4.0-1.0,uwllue8p0m,2022-09-19 15:58:48.416,610329975d39376c37360d3c,0,66,6,28,7,28,Female,1140.8999999762,,"
  <table>
  <tr height=300>
    <td width=300 height=300><img src=""static/images/cards/back_of_red_stars.svg"" width=""175px"" height=""250px""></img></td>
    <td width=300 height=300><img src=""static/images/cards/back_of_red_stars.svg"" width=""175px"" height=""250px""></img></td>
  </tr>
  <tr height=200>
    <td width=300><img src=""static/images/keys/z.svg"" width=""35%"" height=""75%""></img></td>
    <td width=300><img src=""static/images/keys/m.svg"" width=""35%"" height=""75%""></img></td>
  </tr>
</table>
  ",77.0,1.0,,,,,,,,,,,,,,,,,,,,,,,,,,
24,0,,html-keyboard-response,24,113339,0.0-4.0-2.0,uwllue8p0m,2022-09-19 15:58:48.416,610329975d39376c37360d3c,0,66,6,28,7,28,Female,,,"
  <table>
  <tr height=300>
    <td width=300 height=300><img src=""static/images/cards/back_of_red_stars.svg"" width=""175px"" height=""250px""></img></td>
    <td width=300 height=300><img src=""static/images/cards/7_of_red_stars.svg"" width=""175px"" height=""250px""></img></td>
  </tr>
  <tr height=200>
    <td width=300><img src=""static/images/keys/z.svg"" width=""35%"" height=""75%""></img></td>
    <td width=300><img src=""static/images/keys/m.svg"" width=""35%"" height=""75%""></img></td>
  </tr>
</table>
  ",,,,,,,,,,,,,,,,,,,,,,,,,,,,
25,0,,html-keyboard-response,25,114847,0.0-4.0-3.0,uwllue8p0m,2022-09-19 15:58:48.416,610329975d39376c37360d3c,0,66,6,28,7,28,Female,,,"<p style=""font-size:50px"">You win!
+10 points this round!</p>",,,,,,,,,,,,,,,,,,,,,,,,,,,,
26,0,,html-keyboard-response,26,115356,0.0-4.0-4.0,uwllue8p0m,2022-09-19 15:58:48.416,610329975d39376c37360d3c,0,66,6,28,7,28,Female,,,,,,1.0,learning,0.0,A,,red,,stars,,,,A,red,stars,,1.0,1.0,NA,right,1140.8999999762,7.0,1.0,1.0,,,
27,0,,html-keyboard-response,27,116858,0.0-4.1-0.1,uwllue8p0m,2022-09-19 15:58:48.416,610329975d39376c37360d3c,0,66,6,28,7,28,Female,,,"<img src=""static/images/cards/stack_of_black_stars.svg"" width=""175px"" height=""250px""></img>",,,,,,,,,,,,,,,,,,,,,,,,,,,,
28,0,,html-keyboard-response,28,117977,0.0-4.1-1.1,uwllue8p0m,2022-09-19 15:58:48.416,610329975d39376c37360d3c,0,66,6,28,7,28,Female,612.0,,"
  <table>
  <tr height=300>
    <td width=300 height=300><img src=""static/images/cards/back_of_black_stars.svg"" width=""175px"" height=""250px""></img></td>
    <td width=300 height=300><img src=""static/images/cards/back_of_black_stars.svg"" width=""175px"" height=""250px""></img></td>
  </tr>
  <tr height=200>
    <td width=300><img src=""static/images/keys/z.svg"" width=""35%"" height=""75%""></img></td>
    <td width=300></td>
  </tr>
</table>
  ",90.0,1.0,,,,,,,,,,,,,,,,,,,,,,,,,,
29,0,,html-keyboard-response,29,119482,0.0-4.1-2.1,uwllue8p0m,2022-09-19 15:58:48.416,610329975d39376c37360d3c,0,66,6,28,7,28,Female,,,"
  <table>
  <tr height=300>
    <td width=300 height=300><img src=""static/images/cards/8_of_black_stars.svg"" width=""175px"" height=""250px""></img></td>
    <td width=300 height=300><img src=""static/images/cards/back_of_black_stars.svg"" width=""175px"" height=""250px""></img></td>
  </tr>
  <tr height=200>
    <td width=300><img src=""static/images/keys/z.svg"" width=""35%"" height=""75%""></img></td>
    <td width=300></td>
  </tr>
</table>
  ",,,,,,,,,,,,,,,,,,,,,,,,,,,,
30,0,,html-keyboard-response,30,120990,0.0-4.1-3.1,uwllue8p0m,2022-09-19 15:58:48.416,610329975d39376c37360d3c,0,66,6,28,7,28,Female,,,"<p style=""font-size:50px"">You win!
+10 points this round!</p>",,,,,,,,,,,,,,,,,,,,,,,,,,,,
31,0,,html-keyboard-response,31,121498,0.0-4.1-4.1,uwllue8p0m,2022-09-19 15:58:48.416,610329975d39376c37360d3c,0,66,6,28,7,28,Female,,,,,,1.0,learning,1.0,B,,black,,stars,,,,B,black,stars,,0.0,1.0,1,left,612.0,8.0,1.0,1.0,,,
32,0,,html-keyboard-response,32,123001,0.0-4.2-0.2,uwllue8p0m,2022-09-19 15:58:48.416,610329975d39376c37360d3c,0,66,6,28,7,28,Female,,,"<img src=""static/images/cards/stack_of_red_moons.svg"" width=""175px"" height=""250px""></img>",,,,,,,,,,,,,,,,,,,,,,,,,,,,
33,0,,html-keyboard-response,33,123974,0.0-4.2-1.2,uwllue8p0m,2022-09-19 15:58:48.416,610329975d39376c37360d3c,0,66,6,28,7,28,Female,465.7999999523,,"
  <table>
  <tr height=300>
    <td width=300 height=300><img src=""static/images/cards/back_of_red_moons.svg"" width=""175px"" height=""250px""></img></td>
    <td width=300 height=300><img src=""static/images/cards/back_of_red_moons.svg"" width=""175px"" height=""250px""></img></td>
  </tr>
  <tr height=200>
    <td width=300><img src=""static/images/keys/z.svg"" width=""35%"" height=""75%""></img></td>
    <td width=300><img src=""static/images/keys/m.svg"" width=""35%"" height=""75%""></img></td>
  </tr>
</table>
  ",90.0,1.0,,,,,,,,,,,,,,,,,,,,,,,,,,
34,0,,html-keyboard-response,34,125478,0.0-4.2-2.2,uwllue8p0m,2022-09-19 15:58:48.416,610329975d39376c37360d3c,0,66,6,28,7,28,Female,,,"
  <table>
  <tr height=300>
    <td width=300 height=300><img src=""static/images/cards/4_of_red_moons.svg"" width=""175px"" height=""250px""></img></td>
    <td width=300 height=300><img src=""static/images/cards/back_of_red_moons.svg"" width=""175px"" height=""250px""></img></td>
  </tr>
  <tr height=200>
    <td width=300><img src=""static/images/keys/z.svg"" width=""35%"" height=""75%""></img></td>
    <td width=300><img src=""static/images/keys/m.svg"" width=""35%"" height=""75%""></img></td>
  </tr>
</table>
  ",,,,,,,,,,,,,,,,,,,,,,,,,,,,
35,0,,html-keyboard-response,35,126988,0.0-4.2-3.2,uwllue8p0m,2022-09-19 15:58:48.416,610329975d39376c37360d3c,0,66,6,28,7,28,Female,,,"<p style=""font-size:50px"">You Lose!
No points this round.</p>",,,,,,,,,,,,,,,,,,,,,,,,,,,,
36,0,,html-keyboard-response,36,127496,0.0-4.2-4.2,uwllue8p0m,2022-09-19 15:58:48.416,610329975d39376c37360d3c,0,66,6,28,7,28,Female,,,,,,1.0,learning,2.0,C,,red,,moons,,,,C,red,moons,,1.0,0.0,NA,left,465.7999999523,4.0,0.0,0.0,,,
37,0,,html-keyboard-response,37,128998,0.0-4.3-0.3,uwllue8p0m,2022-09-19 15:58:48.416,610329975d39376c37360d3c,0,66,6,28,7,28,Female,,,"<img src=""static/images/cards/stack_of_black_moons.svg"" width=""175px"" height=""250px""></img>",,,,,,,,,,,,,,,,,,,,,,,,,,,,
38,0,,html-keyboard-response,38,129932,0.0-4.3-1.3,uwllue8p0m,2022-09-19 15:58:48.416,610329975d39376c37360d3c,0,66,6,28,7,28,Female,426.0,,"
  <table>
  <tr height=300>
    <td width=300 height=300><img src=""static/images/cards/back_of_black_moons.svg"" width=""175px"" height=""250px""></img></td>
    <td width=300 height=300><img src=""static/images/cards/back_of_black_moons.svg"" width=""175px"" height=""250px""></img></td>
  </tr>
  <tr height=200>
    <td width=300><img src=""static/images/keys/z.svg"" width=""35%"" height=""75%""></img></td>
    <td width=300></td>
  </tr>
</table>
  ",90.0,1.0,,,,,,,,,,,,,,,,,,,,,,,,,,
39,0,,html-keyboard-response,39,131436,0.0-4.3-2.3,uwllue8p0m,2022-09-19 15:58:48.416,610329975d39376c37360d3c,0,66,6,28,7,28,Female,,,"
  <table>
  <tr height=300>
    <td width=300 height=300><img src=""static/images/cards/1_of_black_moons.svg"" width=""175px"" height=""250px""></img></td>
    <td width=300 height=300><img src=""static/images/cards/back_of_black_moons.svg"" width=""175px"" height=""250px""></img></td>
  </tr>
  <tr height=200>
    <td width=300><img src=""static/images/keys/z.svg"" width=""35%"" height=""75%""></img></td>
    <td width=300></td>
  </tr>
</table>
  ",,,,,,,,,,,,,,,,,,,,,,,,,,,,
40,0,,html-keyboard-response,40,132942,0.0-4.3-3.3,uwllue8p0m,2022-09-19 15:58:48.416,610329975d39376c37360d3c,0,66,6,28,7,28,Female,,,"<p style=""font-size:50px"">You win!
+10 points this round!</p>",,,,,,,,,,,,,,,,,,,,,,,,,,,,
41,0,,html-keyboard-response,41,133453,0.0-4.3-4.3,uwllue8p0m,2022-09-19 15:58:48.416,610329975d39376c37360d3c,0,66,6,28,7,28,Female,,,,,,1.0,learning,3.0,D,,black,,moons,,,,D,black,moons,,0.0,0.0,1,left,426.0,1.0,0.0,1.0,,,
42,0,,html-keyboard-response,42,134954,0.0-4.4-0.4,uwllue8p0m,2022-09-19 15:58:48.416,610329975d39376c37360d3c,0,66,6,28,7,28,Female,,,"<img src=""static/images/cards/stack_of_red_bolts.svg"" width=""175px"" height=""250px""></img>",,,,,,,,,,,,,,,,,,,,,,,,,,,,
43,0,,html-keyboard-response,43,136150,0.0-4.4-1.4,uwllue8p0m,2022-09-19 15:58:48.416,610329975d39376c37360d3c,0,66,6,28,7,28,Female,688.1000000238,,"
  <table>
  <tr height=300>
    <td width=300 height=300><img src=""static/images/cards/back_of_red_bolts.svg"" width=""175px"" height=""250px""></img></td>
    <td width=300 height=300><img src=""static/images/cards/back_of_red_bolts.svg"" width=""175px"" height=""250px""></img></td>
  </tr>
  <tr height=200>
    <td width=300><img src=""static/images/keys/z.svg"" width=""35%"" height=""75%""></img></td>
    <td width=300><img src=""static/images/keys/m.svg"" width=""35%"" height=""75%""></img></td>
  </tr>
</table>
  ",77.0,1.0,,,,,,,,,,,,,,,,,,,,,,,,,,
44,0,,html-keyboard-response,44,137656,0.0-4.4-2.4,uwllue8p0m,2022-09-19 15:58:48.416,610329975d39376c37360d3c,0,66,6,28,7,28,Female,,,"
  <table>
  <tr height=300>
    <td width=300 height=300><img src=""static/images/cards/back_of_red_bolts.svg"" width=""175px"" height=""250px""></img></td>
    <td width=300 height=300><img src=""static/images/cards/1_of_red_bolts.svg"" width=""175px"" height=""250px""></img></td>
  </tr>
  <tr height=200>
    <td width=300><img src=""static/images/keys/z.svg"" width=""35%"" height=""75%""></img></td>
    <td width=300><img src=""static/images/keys/m.svg"" width=""35%"" height=""75%""></img></td>
  </tr>
</table>
  ",,,,,,,,,,,,,,,,,,,,,,,,,,,,
45,0,,html-keyboard-response,45,139164,0.0-4.4-3.4,uwllue8p0m,2022-09-19 15:58:48.416,610329975d39376c37360d3c,0,66,6,28,7,28,Female,,,"<p style=""font-size:50px"">You win!
+10 points this round!</p>",,,,,,,,,,,,,,,,,,,,,,,,,,,,
46,0,,html-keyboard-response,46,139675,0.0-4.4-4.4,uwllue8p0m,2022-09-19 15:58:48.416,610329975d39376c37360d3c,0,66,6,28,7,28,Female,,,,,,1.0,learning,4.0,Xc,,red,,bolts,,,,Xc,red,bolts,,1.0,0.0,NA,right,688.1000000238,1.0,0.0,1.0,,,
47,0,,html-keyboard-response,47,141176,0.0-4.5-0.5,uwllue8p0m,2022-09-19 15:58:48.416,610329975d39376c37360d3c,0,66,6,28,7,28,Female,,,"<img src=""static/images/cards/stack_of_black_bolts.svg"" width=""175px"" height=""250px""></img>",,,,,,,,,,,,,,,,,,,,,,,,,,,,
48,0,,html-keyboard-response,48,141920,0.0-4.5-1.5,uwllue8p0m,2022-09-19 15:58:48.416,610329975d39376c37360d3c,0,66,6,28,7,28,Female,236.4000000954,,"
  <table>
  <tr height=300>
    <td width=300 height=300><img src=""static/images/cards/back_of_black_bolts.svg"" width=""175px"" height=""250px""></img></td>
    <td width=300 height=300><img src=""static/images/cards/back_of_black_bolts.svg"" width=""175px"" height=""250px""></img></td>
  </tr>
  <tr height=200>
    <td width=300></td>
    <td width=300><img src=""static/images/keys/m.svg"" width=""35%"" height=""75%""></img></td>
  </tr>
</table>
  ",77.0,1.0,,,,,,,,,,,,,,,,,,,,,,,,,,
49,0,,html-keyboard-response,49,143424,0.0-4.5-2.5,uwllue8p0m,2022-09-19 15:58:48.416,610329975d39376c37360d3c,0,66,6,28,7,28,Female,,,"
  <table>
  <tr height=300>
    <td width=300 height=300><img src=""static/images/cards/back_of_black_bolts.svg"" width=""175px"" height=""250px""></img></td>
    <td width=300 height=300><img src=""static/images/cards/7_of_black_bolts.svg"" width=""175px"" height=""250px""></img></td>
  </tr>
  <tr height=200>
    <td width=300></td>
    <td width=300><img src=""static/images/keys/m.svg"" width=""35%"" height=""75%""></img></td>
  </tr>
</table>
  ",,,,,,,,,,,,,,,,,,,,,,,,,,,,
50,0,,html-keyboard-response,50,144935,0.0-4.5-3.5,uwllue8p0m,2022-09-19 15:58:48.416,610329975d39376c37360d3c,0,66,6,28,7,28,Female,,,"<p style=""font-size:50px"">You win!
+10 points this round!</p>",,,,,,,,,,,,,,,,,,,,,,,,,,,,
51,0,,html-keyboard-response,51,145445,0.0-4.5-4.5,uwllue8p0m,2022-09-19 15:58:48.416,610329975d39376c37360d3c,0,66,6,28,7,28,Female,,,,,,1.0,learning,5.0,Xnc,,black,,bolts,,,,Xnc,black,bolts,,0.0,0.0,0,right,236.4000000954,7.0,1.0,1.0,,,
52,0,,html-keyboard-response,52,146947,0.0-4.6-0.6,uwllue8p0m,2022-09-19 15:58:48.416,610329975d39376c37360d3c,0,66,6,28,7,28,Female,,,"<img src=""static/images/cards/stack_of_red_stars.svg"" width=""175px"" height=""250px""></img>",,,,,,,,,,,,,,,,,,,,,,,,,,,,
53,0,,html-keyboard-response,53,147940,0.0-4.6-1.6,uwllue8p0m,2022-09-19 15:58:48.416,610329975d39376c37360d3c,0,66,6,28,7,28,Female,488.8000000715,,"
  <table>
  <tr height=300>
    <td width=300 height=300><img src=""static/images/cards/back_of_red_stars.svg"" width=""175px"" height=""250px""></img></td>
    <td width=300 height=300><img src=""static/images/cards/back_of_red_stars.svg"" width=""175px"" height=""250px""></img></td>
  </tr>
  <tr height=200>
    <td width=300><img src=""static/images/keys/z.svg"" width=""35%"" height=""75%""></img></td>
    <td width=300><img src=""static/images/keys/m.svg"" width=""35%"" height=""75%""></img></td>
  </tr>
</table>
  ",90.0,1.0,,,,,,,,,,,,,,,,,,,,,,,,,,
54,0,,html-keyboard-response,54,149447,0.0-4.6-2.6,uwllue8p0m,2022-09-19 15:58:48.416,610329975d39376c37360d3c,0,66,6,28,7,28,Female,,,"
  <table>
  <tr height=300>
    <td width=300 height=300><img src=""static/images/cards/1_of_red_stars.svg"" width=""175px"" height=""250px""></img></td>
    <td width=300 height=300><img src=""static/images/cards/back_of_red_stars.svg"" width=""175px"" height=""250px""></img></td>
  </tr>
  <tr height=200>
    <td width=300><img src=""static/images/keys/z.svg"" width=""35%"" height=""75%""></img></td>
    <td width=300><img src=""static/images/keys/m.svg"" width=""35%"" height=""75%""></img></td>
  </tr>
</table>
  ",,,,,,,,,,,,,,,,,,,,,,,,,,,,
55,0,,html-keyboard-response,55,150951,0.0-4.6-3.6,uwllue8p0m,2022-09-19 15:58:48.416,610329975d39376c37360d3c,0,66,6,28,7,28,Female,,,"<p style=""font-size:50px"">You Lose!
No points this round.</p>",,,,,,,,,,,,,,,,,,,,,,,,,,,,
56,0,,html-keyboard-response,56,151460,0.0-4.6-4.6,uwllue8p0m,2022-09-19 15:58:48.416,610329975d39376c37360d3c,0,66,6,28,7,28,Female,,,,,,1.0,learning,6.0,A,,red,,stars,,,,A,red,stars,,1.0,1.0,NA,left,488.8000000715,1.0,0.0,0.0,,,
57,0,,html-keyboard-response,57,152962,0.0-4.7-0.7,uwllue8p0m,2022-09-19 15:58:48.416,610329975d39376c37360d3c,0,66,6,28,7,28,Female,,,"<img src=""static/images/cards/stack_of_black_stars.svg"" width=""175px"" height=""250px""></img>",,,,,,,,,,,,,,,,,,,,,,,,,,,,
58,0,,html-keyboard-response,58,154113,0.0-4.7-1.7,uwllue8p0m,2022-09-19 15:58:48.416,610329975d39376c37360d3c,0,66,6,28,7,28,Female,645.2999999523,,"
  <table>
  <tr height=300>
    <td width=300 height=300><img src=""static/images/cards/back_of_black_stars.svg"" width=""175px"" height=""250px""></img></td>
    <td width=300 height=300><img src=""static/images/cards/back_of_black_stars.svg"" width=""175px"" height=""250px""></img></td>
  </tr>
  <tr height=200>
    <td width=300><img src=""static/images/keys/z.svg"" width=""35%"" height=""75%""></img></td>
    <td width=300></td>
  </tr>
</table>
  ",90.0,1.0,,,,,,,,,,,,,,,,,,,,,,,,,,
59,0,,html-keyboard-response,59,155620,0.0-4.7-2.7,uwllue8p0m,2022-09-19 15:58:48.416,610329975d39376c37360d3c,0,66,6,28,7,28,Female,,,"
  <table>
  <tr height=300>
    <td width=300 height=300><img src=""static/images/cards/9_of_black_stars.svg"" width=""175px"" height=""250px""></img></td>
    <td width=300 height=300><img src=""static/images/cards/back_of_black_stars.svg"" width=""175px"" height=""250px""></img></td>
  </tr>
  <tr height=200>
    <td width=300><img src=""static/images/keys/z.svg"" width=""35%"" height=""75%""></img></td>
    <td width=300></td>
  </tr>
</table>
  ",,,,,,,,,,,,,,,,,,,,,,,,,,,,
60,0,,html-keyboard-response,60,157130,0.0-4.7-3.7,uwllue8p0m,2022-09-19 15:58:48.416,610329975d39376c37360d3c,0,66,6,28,7,28,Female,,,"<p style=""font-size:50px"">You win!
+10 points this round!</p>",,,,,,,,,,,,,,,,,,,,,,,,,,,,
61,0,,html-keyboard-response,61,157638,0.0-4.7-4.7,uwllue8p0m,2022-09-19 15:58:48.416,610329975d39376c37360d3c,0,66,6,28,7,28,Female,,,,,,1.0,learning,7.0,B,,black,,stars,,,,B,black,stars,,0.0,1.0,1,left,645.2999999523,9.0,1.0,1.0,,,
62,0,,html-keyboard-response,62,159140,0.0-4.8-0.8,uwllue8p0m,2022-09-19 15:58:48.416,610329975d39376c37360d3c,0,66,6,28,7,28,Female,,,"<img src=""static/images/cards/stack_of_red_moons.svg"" width=""175px"" height=""250px""></img>",,,,,,,,,,,,,,,,,,,,,,,,,,,,
63,0,,html-keyboard-response,63,160425,0.0-4.8-1.8,uwllue8p0m,2022-09-19 15:58:48.416,610329975d39376c37360d3c,0,66,6,28,7,28,Female,776.7999999523,,"
  <table>
  <tr height=300>
    <td width=300 height=300><img src=""static/images/cards/back_of_red_moons.svg"" width=""175px"" height=""250px""></img></td>
    <td width=300 height=300><img src=""static/images/cards/back_of_red_moons.svg"" width=""175px"" height=""250px""></img></td>
  </tr>
  <tr height=200>
    <td width=300><img src=""static/images/keys/z.svg"" width=""35%"" height=""75%""></img></td>
    <td width=300><img src=""static/images/keys/m.svg"" width=""35%"" height=""75%""></img></td>
  </tr>
</table>
  ",77.0,1.0,,,,,,,,,,,,,,,,,,,,,,,,,,
64,0,,html-keyboard-response,64,161930,0.0-4.8-2.8,uwllue8p0m,2022-09-19 15:58:48.416,610329975d39376c37360d3c,0,66,6,28,7,28,Female,,,"
  <table>
  <tr height=300>
    <td width=300 height=300><img src=""static/images/cards/back_of_red_moons.svg"" width=""175px"" height=""250px""></img></td>
    <td width=300 height=300><img src=""static/images/cards/6_of_red_moons.svg"" width=""175px"" height=""250px""></img></td>
  </tr>
  <tr height=200>
    <td width=300><img src=""static/images/keys/z.svg"" width=""35%"" height=""75%""></img></td>
    <td width=300><img src=""static/images/keys/m.svg"" width=""35%"" height=""75%""></img></td>
  </tr>
</table>
  ",,,,,,,,,,,,,,,,,,,,,,,,,,,,
65,0,,html-keyboard-response,65,163440,0.0-4.8-3.8,uwllue8p0m,2022-09-19 15:58:48.416,610329975d39376c37360d3c,0,66,6,28,7,28,Female,,,"<p style=""font-size:50px"">You Lose!
No points this round.</p>",,,,,,,,,,,,,,,,,,,,,,,,,,,,
66,0,,html-keyboard-response,66,163949,0.0-4.8-4.8,uwllue8p0m,2022-09-19 15:58:48.416,610329975d39376c37360d3c,0,66,6,28,7,28,Female,,,,,,1.0,learning,8.0,C,,red,,moons,,,,C,red,moons,,1.0,0.0,NA,right,776.7999999523,6.0,1.0,0.0,,,
67,0,,html-keyboard-response,67,165451,0.0-4.9-0.9,uwllue8p0m,2022-09-19 15:58:48.416,610329975d39376c37360d3c,0,66,6,28,7,28,Female,,,"<img src=""static/images/cards/stack_of_black_moons.svg"" width=""175px"" height=""250px""></img>",,,,,,,,,,,,,,,,,,,,,,,,,,,,
68,0,,html-keyboard-response,68,166482,0.0-4.9-1.9,uwllue8p0m,2022-09-19 15:58:48.416,610329975d39376c37360d3c,0,66,6,28,7,28,Female,524.6000000238,,"
  <table>
  <tr height=300>
    <td width=300 height=300><img src=""static/images/cards/back_of_black_moons.svg"" width=""175px"" height=""250px""></img></td>
    <td width=300 height=300><img src=""static/images/cards/back_of_black_moons.svg"" width=""175px"" height=""250px""></img></td>
  </tr>
  <tr height=200>
    <td width=300><img src=""static/images/keys/z.svg"" width=""35%"" height=""75%""></img></td>
    <td width=300></td>
  </tr>
</table>
  ",90.0,1.0,,,,,,,,,,,,,,,,,,,,,,,,,,
69,0,,html-keyboard-response,69,167986,0.0-4.9-2.9,uwllue8p0m,2022-09-19 15:58:48.416,610329975d39376c37360d3c,0,66,6,28,7,28,Female,,,"
  <table>
  <tr height=300>
    <td width=300 height=300><img src=""static/images/cards/2_of_black_moons.svg"" width=""175px"" height=""250px""></img></td>
    <td width=300 height=300><img src=""static/images/cards/back_of_black_moons.svg"" width=""175px"" height=""250px""></img></td>
  </tr>
  <tr height=200>
    <td width=300><img src=""static/images/keys/z.svg"" width=""35%"" height=""75%""></img></td>
    <td width=300></td>
  </tr>
</table>
  ",,,,,,,,,,,,,,,,,,,,,,,,,,,,
70,0,,html-keyboard-response,70,169488,0.0-4.9-3.9,uwllue8p0m,2022-09-19 15:58:48.416,610329975d39376c37360d3c,0,66,6,28,7,28,Female,,,"<p style=""font-size:50px"">You Lose!
No points this round.</p>",,,,,,,,,,,,,,,,,,,,,,,,,,,,
71,0,,html-keyboard-response,71,169995,0.0-4.9-4.9,uwllue8p0m,2022-09-19 15:58:48.416,610329975d39376c37360d3c,0,66,6,28,7,28,Female,,,,,,1.0,learning,9.0,D,,black,,moons,,,,D,black,moons,,0.0,0.0,1,left,524.6000000238,2.0,0.0,0.0,,,
72,0,,html-keyboard-response,72,171499,0.0-4.10-0.10,uwllue8p0m,2022-09-19 15:58:48.416,610329975d39376c37360d3c,0,66,6,28,7,28,Female,,,"<img src=""static/images/cards/stack_of_red_bolts.svg"" width=""175px"" height=""250px""></img>",,,,,,,,,,,,,,,,,,,,,,,,,,,,
73,0,,html-keyboard-response,73,172874,0.0-4.10-1.10,uwllue8p0m,2022-09-19 15:58:48.416,610329975d39376c37360d3c,0,66,6,28,7,28,Female,868.8000000715,,"
  <table>
  <tr height=300>
    <td width=300 height=300><img src=""static/images/cards/back_of_red_bolts.svg"" width=""175px"" height=""250px""></img></td>
    <td width=300 height=300><img src=""static/images/cards/back_of_red_bolts.svg"" width=""175px"" height=""250px""></img></td>
  </tr>
  <tr height=200>
    <td width=300><img src=""static/images/keys/z.svg"" width=""35%"" height=""75%""></img></td>
    <td width=300><img src=""static/images/keys/m.svg"" width=""35%"" height=""75%""></img></td>
  </tr>
</table>
  ",77.0,1.0,,,,,,,,,,,,,,,,,,,,,,,,,,
74,0,,html-keyboard-response,74,174378,0.0-4.10-2.10,uwllue8p0m,2022-09-19 15:58:48.416,610329975d39376c37360d3c,0,66,6,28,7,28,Female,,,"
  <table>
  <tr height=300>
    <td width=300 height=300><img src=""static/images/cards/back_of_red_bolts.svg"" width=""175px"" height=""250px""></img></td>
    <td width=300 height=300><img src=""static/images/cards/8_of_red_bolts.svg"" width=""175px"" height=""250px""></img></td>
  </tr>
  <tr height=200>
    <td width=300><img src=""static/images/keys/z.svg"" width=""35%"" height=""75%""></img></td>
    <td width=300><img src=""static/images/keys/m.svg"" width=""35%"" height=""75%""></img></td>
  </tr>
</table>
  ",,,,,,,,,,,,,,,,,,,,,,,,,,,,
75,0,,html-keyboard-response,75,175884,0.0-4.10-3.10,uwllue8p0m,2022-09-19 15:58:48.416,610329975d39376c37360d3c,0,66,6,28,7,28,Female,,,"<p style=""font-size:50px"">You win!
+10 points this round!</p>",,,,,,,,,,,,,,,,,,,,,,,,,,,,
76,0,,html-keyboard-response,76,176394,0.0-4.10-4.10,uwllue8p0m,2022-09-19 15:58:48.416,610329975d39376c37360d3c,0,66,6,28,7,28,Female,,,,,,1.0,learning,10.0,Xc,,red,,bolts,,,,Xc,red,bolts,,1.0,0.0,NA,right,868.8000000715,8.0,1.0,1.0,,,
77,0,,html-keyboard-response,77,177896,0.0-4.11-0.11,uwllue8p0m,2022-09-19 15:58:48.416,610329975d39376c37360d3c,0,66,6,28,7,28,Female,,,"<img src=""static/images/cards/stack_of_black_bolts.svg"" width=""175px"" height=""250px""></img>",,,,,,,,,,,,,,,,,,,,,,,,,,,,
78,0,,html-keyboard-response,78,178972,0.0-4.11-1.11,uwllue8p0m,2022-09-19 15:58:48.416,610329975d39376c37360d3c,0,66,6,28,7,28,Female,572.8000000715,,"
  <table>
  <tr height=300>
    <td width=300 height=300><img src=""static/images/cards/back_of_black_bolts.svg"" width=""175px"" height=""250px""></img></td>
    <td width=300 height=300><img src=""static/images/cards/back_of_black_bolts.svg"" width=""175px"" height=""250px""></img></td>
  </tr>
  <tr height=200>
    <td width=300><img src=""static/images/keys/z.svg"" width=""35%"" height=""75%""></img></td>
    <td width=300></td>
  </tr>
</table>
  ",90.0,1.0,,,,,,,,,,,,,,,,,,,,,,,,,,
79,0,,html-keyboard-response,79,180478,0.0-4.11-2.11,uwllue8p0m,2022-09-19 15:58:48.416,610329975d39376c37360d3c,0,66,6,28,7,28,Female,,,"
  <table>
  <tr height=300>
    <td width=300 height=300><img src=""static/images/cards/7_of_black_bolts.svg"" width=""175px"" height=""250px""></img></td>
    <td width=300 height=300><img src=""static/images/cards/back_of_black_bolts.svg"" width=""175px"" height=""250px""></img></td>
  </tr>
  <tr height=200>
    <td width=300><img src=""static/images/keys/z.svg"" width=""35%"" height=""75%""></img></td>
    <td width=300></td>
  </tr>
</table>
  ",,,,,,,,,,,,,,,,,,,,,,,,,,,,
80,0,,html-keyboard-response,80,181985,0.0-4.11-3.11,uwllue8p0m,2022-09-19 15:58:48.416,610329975d39376c37360d3c,0,66,6,28,7,28,Female,,,"<p style=""font-size:50px"">You win!
+10 points this round!</p>",,,,,,,,,,,,,,,,,,,,,,,,,,,,
81,0,,html-keyboard-response,81,182496,0.0-4.11-4.11,uwllue8p0m,2022-09-19 15:58:48.416,610329975d39376c37360d3c,0,66,6,28,7,28,Female,,,,,,1.0,learning,11.0,Xnc,,black,,bolts,,,,Xnc,black,bolts,,0.0,0.0,1,left,572.8000000715,7.0,1.0,1.0,,,
82,0,,html-keyboard-response,82,183998,0.0-4.12-0.12,uwllue8p0m,2022-09-19 15:58:48.416,610329975d39376c37360d3c,0,66,6,28,7,28,Female,,,"<img src=""static/images/cards/stack_of_red_stars.svg"" width=""175px"" height=""250px""></img>",,,,,,,,,,,,,,,,,,,,,,,,,,,,
83,0,,html-keyboard-response,83,185091,0.0-4.12-1.12,uwllue8p0m,2022-09-19 15:58:48.416,610329975d39376c37360d3c,0,66,6,28,7,28,Female,588.6999999285,,"
  <table>
  <tr height=300>
    <td width=300 height=300><img src=""static/images/cards/back_of_red_stars.svg"" width=""175px"" height=""250px""></img></td>
    <td width=300 height=300><img src=""static/images/cards/back_of_red_stars.svg"" width=""175px"" height=""250px""></img></td>
  </tr>
  <tr height=200>
    <td width=300><img src=""static/images/keys/z.svg"" width=""35%"" height=""75%""></img></td>
    <td width=300><img src=""static/images/keys/m.svg"" width=""35%"" height=""75%""></img></td>
  </tr>
</table>
  ",77.0,1.0,,,,,,,,,,,,,,,,,,,,,,,,,,
84,0,,html-keyboard-response,84,186597,0.0-4.12-2.12,uwllue8p0m,2022-09-19 15:58:48.416,610329975d39376c37360d3c,0,66,6,28,7,28,Female,,,"
  <table>
  <tr height=300>
    <td width=300 height=300><img src=""static/images/cards/back_of_red_stars.svg"" width=""175px"" height=""250px""></img></td>
    <td width=300 height=300><img src=""static/images/cards/6_of_red_stars.svg"" width=""175px"" height=""250px""></img></td>
  </tr>
  <tr height=200>
    <td width=300><img src=""static/images/keys/z.svg"" width=""35%"" height=""75%""></img></td>
    <td width=300><img src=""static/images/keys/m.svg"" width=""35%"" height=""75%""></img></td>
  </tr>
</table>
  ",,,,,,,,,,,,,,,,,,,,,,,,,,,,
85,0,,html-keyboard-response,85,188107,0.0-4.12-3.12,uwllue8p0m,2022-09-19 15:58:48.416,610329975d39376c37360d3c,0,66,6,28,7,28,Female,,,"<p style=""font-size:50px"">You win!
+10 points this round!</p>",,,,,,,,,,,,,,,,,,,,,,,,,,,,
86,0,,html-keyboard-response,86,188617,0.0-4.12-4.12,uwllue8p0m,2022-09-19 15:58:48.416,610329975d39376c37360d3c,0,66,6,28,7,28,Female,,,,,,1.0,learning,12.0,A,,red,,stars,,,,A,red,stars,,1.0,1.0,NA,right,588.6999999285,6.0,1.0,1.0,,,
87,0,,html-keyboard-response,87,190120,0.0-4.13-0.13,uwllue8p0m,2022-09-19 15:58:48.416,610329975d39376c37360d3c,0,66,6,28,7,28,Female,,,"<img src=""static/images/cards/stack_of_black_stars.svg"" width=""175px"" height=""250px""></img>",,,,,,,,,,,,,,,,,,,,,,,,,,,,
88,0,,html-keyboard-response,88,191086,0.0-4.13-1.13,uwllue8p0m,2022-09-19 15:58:48.416,610329975d39376c37360d3c,0,66,6,28,7,28,Female,460.0,,"
  <table>
  <tr height=300>
    <td width=300 height=300><img src=""static/images/cards/back_of_black_stars.svg"" width=""175px"" height=""250px""></img></td>
    <td width=300 height=300><img src=""static/images/cards/back_of_black_stars.svg"" width=""175px"" height=""250px""></img></td>
  </tr>
  <tr height=200>
    <td width=300></td>
    <td width=300><img src=""static/images/keys/m.svg"" width=""35%"" height=""75%""></img></td>
  </tr>
</table>
  ",77.0,1.0,,,,,,,,,,,,,,,,,,,,,,,,,,
89,0,,html-keyboard-response,89,192590,0.0-4.13-2.13,uwllue8p0m,2022-09-19 15:58:48.416,610329975d39376c37360d3c,0,66,6,28,7,28,Female,,,"
  <table>
  <tr height=300>
    <td width=300 height=300><img src=""static/images/cards/back_of_black_stars.svg"" width=""175px"" height=""250px""></img></td>
    <td width=300 height=300><img src=""static/images/cards/2_of_black_stars.svg"" width=""175px"" height=""250px""></img></td>
  </tr>
  <tr height=200>
    <td width=300></td>
    <td width=300><img src=""static/images/keys/m.svg"" width=""35%"" height=""75%""></img></td>
  </tr>
</table>
  ",,,,,,,,,,,,,,,,,,,,,,,,,,,,
90,0,,html-keyboard-response,90,194101,0.0-4.13-3.13,uwllue8p0m,2022-09-19 15:58:48.416,610329975d39376c37360d3c,0,66,6,28,7,28,Female,,,"<p style=""font-size:50px"">You Lose!
No points this round.</p>",,,,,,,,,,,,,,,,,,,,,,,,,,,,
91,0,,html-keyboard-response,91,194611,0.0-4.13-4.13,uwllue8p0m,2022-09-19 15:58:48.416,610329975d39376c37360d3c,0,66,6,28,7,28,Female,,,,,,1.0,learning,13.0,B,,black,,stars,,,,B,black,stars,,0.0,1.0,0,right,460.0,2.0,0.0,0.0,,,
92,0,,html-keyboard-response,92,196113,0.0-4.14-0.14,uwllue8p0m,2022-09-19 15:58:48.416,610329975d39376c37360d3c,0,66,6,28,7,28,Female,,,"<img src=""static/images/cards/stack_of_red_moons.svg"" width=""175px"" height=""250px""></img>",,,,,,,,,,,,,,,,,,,,,,,,,,,,
93,0,,html-keyboard-response,93,197572,0.0-4.14-1.14,uwllue8p0m,2022-09-19 15:58:48.416,610329975d39376c37360d3c,0,66,6,28,7,28,Female,956.5,,"
  <table>
  <tr height=300>
    <td width=300 height=300><img src=""static/images/cards/back_of_red_moons.svg"" width=""175px"" height=""250px""></img></td>
    <td width=300 height=300><img src=""static/images/cards/back_of_red_moons.svg"" width=""175px"" height=""250px""></img></td>
  </tr>
  <tr height=200>
    <td width=300><img src=""static/images/keys/z.svg"" width=""35%"" height=""75%""></img></td>
    <td width=300><img src=""static/images/keys/m.svg"" width=""35%"" height=""75%""></img></td>
  </tr>
</table>
  ",90.0,1.0,,,,,,,,,,,,,,,,,,,,,,,,,,
94,0,,html-keyboard-response,94,199078,0.0-4.14-2.14,uwllue8p0m,2022-09-19 15:58:48.416,610329975d39376c37360d3c,0,66,6,28,7,28,Female,,,"
  <table>
  <tr height=300>
    <td width=300 height=300><img src=""static/images/cards/9_of_red_moons.svg"" width=""175px"" height=""250px""></img></td>
    <td width=300 height=300><img src=""static/images/cards/back_of_red_moons.svg"" width=""175px"" height=""250px""></img></td>
  </tr>
  <tr height=200>
    <td width=300><img src=""static/images/keys/z.svg"" width=""35%"" height=""75%""></img></td>
    <td width=300><img src=""static/images/keys/m.svg"" width=""35%"" height=""75%""></img></td>
  </tr>
</table>
  ",,,,,,,,,,,,,,,,,,,,,,,,,,,,
95,0,,html-keyboard-response,95,200584,0.0-4.14-3.14,uwllue8p0m,2022-09-19 15:58:48.416,610329975d39376c37360d3c,0,66,6,28,7,28,Female,,,"<p style=""font-size:50px"">You win!
+10 points this round!</p>",,,,,,,,,,,,,,,,,,,,,,,,,,,,
96,0,,html-keyboard-response,96,201094,0.0-4.14-4.14,uwllue8p0m,2022-09-19 15:58:48.416,610329975d39376c37360d3c,0,66,6,28,7,28,Female,,,,,,1.0,learning,14.0,C,,red,,moons,,,,C,red,moons,,1.0,0.0,NA,left,956.5,9.0,1.0,1.0,,,
97,0,,html-keyboard-response,97,202596,0.0-4.15-0.15,uwllue8p0m,2022-09-19 15:58:48.416,610329975d39376c37360d3c,0,66,6,28,7,28,Female,,,"<img src=""static/images/cards/stack_of_black_moons.svg"" width=""175px"" height=""250px""></img>",,,,,,,,,,,,,,,,,,,,,,,,,,,,
98,0,,html-keyboard-response,98,203465,0.0-4.15-1.15,uwllue8p0m,2022-09-19 15:58:48.416,610329975d39376c37360d3c,0,66,6,28,7,28,Female,363.5,,"
  <table>
  <tr height=300>
    <td width=300 height=300><img src=""static/images/cards/back_of_black_moons.svg"" width=""175px"" height=""250px""></img></td>
    <td width=300 height=300><img src=""static/images/cards/back_of_black_moons.svg"" width=""175px"" height=""250px""></img></td>
  </tr>
  <tr height=200>
    <td width=300><img src=""static/images/keys/z.svg"" width=""35%"" height=""75%""></img></td>
    <td width=300></td>
  </tr>
</table>
  ",90.0,1.0,,,,,,,,,,,,,,,,,,,,,,,,,,
99,0,,html-keyboard-response,99,204972,0.0-4.15-2.15,uwllue8p0m,2022-09-19 15:58:48.416,610329975d39376c37360d3c,0,66,6,28,7,28,Female,,,"
  <table>
  <tr height=300>
    <td width=300 height=300><img src=""static/images/cards/10_of_black_moons.svg"" width=""175px"" height=""250px""></img></td>
    <td width=300 height=300><img src=""static/images/cards/back_of_black_moons.svg"" width=""175px"" height=""250px""></img></td>
  </tr>
  <tr height=200>
    <td width=300><img src=""static/images/keys/z.svg"" width=""35%"" height=""75%""></img></td>
    <td width=300></td>
  </tr>
</table>
  ",,,,,,,,,,,,,,,,,,,,,,,,,,,,
100,0,,html-keyboard-response,100,206481,0.0-4.15-3.15,uwllue8p0m,2022-09-19 15:58:48.416,610329975d39376c37360d3c,0,66,6,28,7,28,Female,,,"<p style=""font-size:50px"">You Lose!
No points this round.</p>",,,,,,,,,,,,,,,,,,,,,,,,,,,,
101,0,,html-keyboard-response,101,206991,0.0-4.15-4.15,uwllue8p0m,2022-09-19 15:58:48.416,610329975d39376c37360d3c,0,66,6,28,7,28,Female,,,,,,1.0,learning,15.0,D,,black,,moons,,,,D,black,moons,,0.0,0.0,1,left,363.5,10.0,1.0,0.0,,,
102,0,,html-keyboard-response,102,208493,0.0-4.16-0.16,uwllue8p0m,2022-09-19 15:58:48.416,610329975d39376c37360d3c,0,66,6,28,7,28,Female,,,"<img src=""static/images/cards/stack_of_red_bolts.svg"" width=""175px"" height=""250px""></img>",,,,,,,,,,,,,,,,,,,,,,,,,,,,
103,0,,html-keyboard-response,103,209336,0.0-4.16-1.16,uwllue8p0m,2022-09-19 15:58:48.416,610329975d39376c37360d3c,0,66,6,28,7,28,Female,336.8999999762,,"
  <table>
  <tr height=300>
    <td width=300 height=300><img src=""static/images/cards/back_of_red_bolts.svg"" width=""175px"" height=""250px""></img></td>
    <td width=300 height=300><img src=""static/images/cards/back_of_red_bolts.svg"" width=""175px"" height=""250px""></img></td>
  </tr>
  <tr height=200>
    <td width=300><img src=""static/images/keys/z.svg"" width=""35%"" height=""75%""></img></td>
    <td width=300><img src=""static/images/keys/m.svg"" width=""35%"" height=""75%""></img></td>
  </tr>
</table>
  ",90.0,1.0,,,,,,,,,,,,,,,,,,,,,,,,,,
104,0,,html-keyboard-response,104,210840,0.0-4.16-2.16,uwllue8p0m,2022-09-19 15:58:48.416,610329975d39376c37360d3c,0,66,6,28,7,28,Female,,,"
  <table>
  <tr height=300>
    <td width=300 height=300><img src=""static/images/cards/3_of_red_bolts.svg"" width=""175px"" height=""250px""></img></td>
    <td width=300 height=300><img src=""static/images/cards/back_of_red_bolts.svg"" width=""175px"" height=""250px""></img></td>
  </tr>
  <tr height=200>
    <td width=300><img src=""static/images/keys/z.svg"" width=""35%"" height=""75%""></img></td>
    <td width=300><img src=""static/images/keys/m.svg"" width=""35%"" height=""75%""></img></td>
  </tr>
</table>
  ",,,,,,,,,,,,,,,,,,,,,,,,,,,,
105,0,,html-keyboard-response,105,212349,0.0-4.16-3.16,uwllue8p0m,2022-09-19 15:58:48.416,610329975d39376c37360d3c,0,66,6,28,7,28,Female,,,"<p style=""font-size:50px"">You win!
+10 points this round!</p>",,,,,,,,,,,,,,,,,,,,,,,,,,,,
106,0,,html-keyboard-response,106,212857,0.0-4.16-4.16,uwllue8p0m,2022-09-19 15:58:48.416,610329975d39376c37360d3c,0,66,6,28,7,28,Female,,,,,,1.0,learning,16.0,Xc,,red,,bolts,,,,Xc,red,bolts,,1.0,0.0,NA,left,336.8999999762,3.0,0.0,1.0,,,
107,0,,html-keyboard-response,107,214359,0.0-4.17-0.17,uwllue8p0m,2022-09-19 15:58:48.416,610329975d39376c37360d3c,0,66,6,28,7,28,Female,,,"<img src=""static/images/cards/stack_of_black_bolts.svg"" width=""175px"" height=""250px""></img>",,,,,,,,,,,,,,,,,,,,,,,,,,,,
108,0,,html-keyboard-response,108,215287,0.0-4.17-1.17,uwllue8p0m,2022-09-19 15:58:48.416,610329975d39376c37360d3c,0,66,6,28,7,28,Female,424.7000000477,,"
  <table>
  <tr height=300>
    <td width=300 height=300><img src=""static/images/cards/back_of_black_bolts.svg"" width=""175px"" height=""250px""></img></td>
    <td width=300 height=300><img src=""static/images/cards/back_of_black_bolts.svg"" width=""175px"" height=""250px""></img></td>
  </tr>
  <tr height=200>
    <td width=300><img src=""static/images/keys/z.svg"" width=""35%"" height=""75%""></img></td>
    <td width=300></td>
  </tr>
</table>
  ",90.0,1.0,,,,,,,,,,,,,,,,,,,,,,,,,,
109,0,,html-keyboard-response,109,216792,0.0-4.17-2.17,uwllue8p0m,2022-09-19 15:58:48.416,610329975d39376c37360d3c,0,66,6,28,7,28,Female,,,"
  <table>
  <tr height=300>
    <td width=300 height=300><img src=""static/images/cards/1_of_black_bolts.svg"" width=""175px"" height=""250px""></img></td>
    <td width=300 height=300><img src=""static/images/cards/back_of_black_bolts.svg"" width=""175px"" height=""250px""></img></td>
  </tr>
  <tr height=200>
    <td width=300><img src=""static/images/keys/z.svg"" width=""35%"" height=""75%""></img></td>
    <td width=300></td>
  </tr>
</table>
  ",,,,,,,,,,,,,,,,,,,,,,,,,,,,
110,0,,html-keyboard-response,110,218300,0.0-4.17-3.17,uwllue8p0m,2022-09-19 15:58:48.416,610329975d39376c37360d3c,0,66,6,28,7,28,Female,,,"<p style=""font-size:50px"">You win!
+10 points this round!</p>",,,,,,,,,,,,,,,,,,,,,,,,,,,,
111,0,,html-keyboard-response,111,218807,0.0-4.17-4.17,uwllue8p0m,2022-09-19 15:58:48.416,610329975d39376c37360d3c,0,66,6,28,7,28,Female,,,,,,1.0,learning,17.0,Xnc,,black,,bolts,,,,Xnc,black,bolts,,0.0,0.0,1,left,424.7000000477,1.0,0.0,1.0,,,
112,0,,html-keyboard-response,112,220309,0.0-4.18-0.18,uwllue8p0m,2022-09-19 15:58:48.416,610329975d39376c37360d3c,0,66,6,28,7,28,Female,,,"<img src=""static/images/cards/stack_of_red_stars.svg"" width=""175px"" height=""250px""></img>",,,,,,,,,,,,,,,,,,,,,,,,,,,,
113,0,,html-keyboard-response,113,221253,0.0-4.18-1.18,uwllue8p0m,2022-09-19 15:58:48.416,610329975d39376c37360d3c,0,66,6,28,7,28,Female,437.5,,"
  <table>
  <tr height=300>
    <td width=300 height=300><img src=""static/images/cards/back_of_red_stars.svg"" width=""175px"" height=""250px""></img></td>
    <td width=300 height=300><img src=""static/images/cards/back_of_red_stars.svg"" width=""175px"" height=""250px""></img></td>
  </tr>
  <tr height=200>
    <td width=300><img src=""static/images/keys/z.svg"" width=""35%"" height=""75%""></img></td>
    <td width=300><img src=""static/images/keys/m.svg"" width=""35%"" height=""75%""></img></td>
  </tr>
</table>
  ",77.0,1.0,,,,,,,,,,,,,,,,,,,,,,,,,,
114,0,,html-keyboard-response,114,222759,0.0-4.18-2.18,uwllue8p0m,2022-09-19 15:58:48.416,610329975d39376c37360d3c,0,66,6,28,7,28,Female,,,"
  <table>
  <tr height=300>
    <td width=300 height=300><img src=""static/images/cards/back_of_red_stars.svg"" width=""175px"" height=""250px""></img></td>
    <td width=300 height=300><img src=""static/images/cards/4_of_red_stars.svg"" width=""175px"" height=""250px""></img></td>
  </tr>
  <tr height=200>
    <td width=300><img src=""static/images/keys/z.svg"" width=""35%"" height=""75%""></img></td>
    <td width=300><img src=""static/images/keys/m.svg"" width=""35%"" height=""75%""></img></td>
  </tr>
</table>
  ",,,,,,,,,,,,,,,,,,,,,,,,,,,,
115,0,,html-keyboard-response,115,224264,0.0-4.18-3.18,uwllue8p0m,2022-09-19 15:58:48.416,610329975d39376c37360d3c,0,66,6,28,7,28,Female,,,"<p style=""font-size:50px"">You Lose!
No points this round.</p>",,,,,,,,,,,,,,,,,,,,,,,,,,,,
116,0,,html-keyboard-response,116,224773,0.0-4.18-4.18,uwllue8p0m,2022-09-19 15:58:48.416,610329975d39376c37360d3c,0,66,6,28,7,28,Female,,,,,,1.0,learning,18.0,A,,red,,stars,,,,A,red,stars,,1.0,1.0,NA,right,437.5,4.0,0.0,0.0,,,
117,0,,html-keyboard-response,117,226276,0.0-4.19-0.19,uwllue8p0m,2022-09-19 15:58:48.416,610329975d39376c37360d3c,0,66,6,28,7,28,Female,,,"<img src=""static/images/cards/stack_of_black_stars.svg"" width=""175px"" height=""250px""></img>",,,,,,,,,,,,,,,,,,,,,,,,,,,,
118,0,,html-keyboard-response,118,227245,0.0-4.19-1.19,uwllue8p0m,2022-09-19 15:58:48.416,610329975d39376c37360d3c,0,66,6,28,7,28,Female,462.7000000477,,"
  <table>
  <tr height=300>
    <td width=300 height=300><img src=""static/images/cards/back_of_black_stars.svg"" width=""175px"" height=""250px""></img></td>
    <td width=300 height=300><img src=""static/images/cards/back_of_black_stars.svg"" width=""175px"" height=""250px""></img></td>
  </tr>
  <tr height=200>
    <td width=300><img src=""static/images/keys/z.svg"" width=""35%"" height=""75%""></img></td>
    <td width=300></td>
  </tr>
</table>
  ",90.0,1.0,,,,,,,,,,,,,,,,,,,,,,,,,,
119,0,,html-keyboard-response,119,228748,0.0-4.19-2.19,uwllue8p0m,2022-09-19 15:58:48.416,610329975d39376c37360d3c,0,66,6,28,7,28,Female,,,"
  <table>
  <tr height=300>
    <td width=300 height=300><img src=""static/images/cards/3_of_black_stars.svg"" width=""175px"" height=""250px""></img></td>
    <td width=300 height=300><img src=""static/images/cards/back_of_black_stars.svg"" width=""175px"" height=""250px""></img></td>
  </tr>
  <tr height=200>
    <td width=300><img src=""static/images/keys/z.svg"" width=""35%"" height=""75%""></img></td>
    <td width=300></td>
  </tr>
</table>
  ",,,,,,,,,,,,,,,,,,,,,,,,,,,,
120,0,,html-keyboard-response,120,230254,0.0-4.19-3.19,uwllue8p0m,2022-09-19 15:58:48.416,610329975d39376c37360d3c,0,66,6,28,7,28,Female,,,"<p style=""font-size:50px"">You Lose!
No points this round.</p>",,,,,,,,,,,,,,,,,,,,,,,,,,,,
121,0,,html-keyboard-response,121,230762,0.0-4.19-4.19,uwllue8p0m,2022-09-19 15:58:48.416,610329975d39376c37360d3c,0,66,6,28,7,28,Female,,,,,,1.0,learning,19.0,B,,black,,stars,,,,B,black,stars,,0.0,1.0,1,left,462.7000000477,3.0,0.0,0.0,,,
122,0,,html-keyboard-response,122,232263,0.0-4.20-0.20,uwllue8p0m,2022-09-19 15:58:48.416,610329975d39376c37360d3c,0,66,6,28,7,28,Female,,,"<img src=""static/images/cards/stack_of_red_moons.svg"" width=""175px"" height=""250px""></img>",,,,,,,,,,,,,,,,,,,,,,,,,,,,
123,0,,html-keyboard-response,123,233367,0.0-4.20-1.20,uwllue8p0m,2022-09-19 15:58:48.416,610329975d39376c37360d3c,0,66,6,28,7,28,Female,596.2999999523,,"
  <table>
  <tr height=300>
    <td width=300 height=300><img src=""static/images/cards/back_of_red_moons.svg"" width=""175px"" height=""250px""></img></td>
    <td width=300 height=300><img src=""static/images/cards/back_of_red_moons.svg"" width=""175px"" height=""250px""></img></td>
  </tr>
  <tr height=200>
    <td width=300><img src=""static/images/keys/z.svg"" width=""35%"" height=""75%""></img></td>
    <td width=300><img src=""static/images/keys/m.svg"" width=""35%"" height=""75%""></img></td>
  </tr>
</table>
  ",77.0,1.0,,,,,,,,,,,,,,,,,,,,,,,,,,
124,0,,html-keyboard-response,124,234870,0.0-4.20-2.20,uwllue8p0m,2022-09-19 15:58:48.416,610329975d39376c37360d3c,0,66,6,28,7,28,Female,,,"
  <table>
  <tr height=300>
    <td width=300 height=300><img src=""static/images/cards/back_of_red_moons.svg"" width=""175px"" height=""250px""></img></td>
    <td width=300 height=300><img src=""static/images/cards/3_of_red_moons.svg"" width=""175px"" height=""250px""></img></td>
  </tr>
  <tr height=200>
    <td width=300><img src=""static/images/keys/z.svg"" width=""35%"" height=""75%""></img></td>
    <td width=300><img src=""static/images/keys/m.svg"" width=""35%"" height=""75%""></img></td>
  </tr>
</table>
  ",,,,,,,,,,,,,,,,,,,,,,,,,,,,
125,0,,html-keyboard-response,125,236378,0.0-4.20-3.20,uwllue8p0m,2022-09-19 15:58:48.416,610329975d39376c37360d3c,0,66,6,28,7,28,Female,,,"<p style=""font-size:50px"">You win!
+10 points this round!</p>",,,,,,,,,,,,,,,,,,,,,,,,,,,,
126,0,,html-keyboard-response,126,236887,0.0-4.20-4.20,uwllue8p0m,2022-09-19 15:58:48.416,610329975d39376c37360d3c,0,66,6,28,7,28,Female,,,,,,1.0,learning,20.0,C,,red,,moons,,,,C,red,moons,,1.0,0.0,NA,right,596.2999999523,3.0,0.0,1.0,,,
127,0,,html-keyboard-response,127,238388,0.0-4.21-0.21,uwllue8p0m,2022-09-19 15:58:48.416,610329975d39376c37360d3c,0,66,6,28,7,28,Female,,,"<img src=""static/images/cards/stack_of_black_moons.svg"" width=""175px"" height=""250px""></img>",,,,,,,,,,,,,,,,,,,,,,,,,,,,
128,0,,html-keyboard-response,128,239266,0.0-4.21-1.21,uwllue8p0m,2022-09-19 15:58:48.416,610329975d39376c37360d3c,0,66,6,28,7,28,Female,374.8000000715,,"
  <table>
  <tr height=300>
    <td width=300 height=300><img src=""static/images/cards/back_of_black_moons.svg"" width=""175px"" height=""250px""></img></td>
    <td width=300 height=300><img src=""static/images/cards/back_of_black_moons.svg"" width=""175px"" height=""250px""></img></td>
  </tr>
  <tr height=200>
    <td width=300><img src=""static/images/keys/z.svg"" width=""35%"" height=""75%""></img></td>
    <td width=300></td>
  </tr>
</table>
  ",90.0,1.0,,,,,,,,,,,,,,,,,,,,,,,,,,
129,0,,html-keyboard-response,129,240770,0.0-4.21-2.21,uwllue8p0m,2022-09-19 15:58:48.416,610329975d39376c37360d3c,0,66,6,28,7,28,Female,,,"
  <table>
  <tr height=300>
    <td width=300 height=300><img src=""static/images/cards/10_of_black_moons.svg"" width=""175px"" height=""250px""></img></td>
    <td width=300 height=300><img src=""static/images/cards/back_of_black_moons.svg"" width=""175px"" height=""250px""></img></td>
  </tr>
  <tr height=200>
    <td width=300><img src=""static/images/keys/z.svg"" width=""35%"" height=""75%""></img></td>
    <td width=300></td>
  </tr>
</table>
  ",,,,,,,,,,,,,,,,,,,,,,,,,,,,
130,0,,html-keyboard-response,130,242278,0.0-4.21-3.21,uwllue8p0m,2022-09-19 15:58:48.416,610329975d39376c37360d3c,0,66,6,28,7,28,Female,,,"<p style=""font-size:50px"">You win!
+10 points this round!</p>",,,,,,,,,,,,,,,,,,,,,,,,,,,,
131,0,,html-keyboard-response,131,242788,0.0-4.21-4.21,uwllue8p0m,2022-09-19 15:58:48.416,610329975d39376c37360d3c,0,66,6,28,7,28,Female,,,,,,1.0,learning,21.0,D,,black,,moons,,,,D,black,moons,,0.0,0.0,1,left,374.8000000715,10.0,1.0,1.0,,,
132,0,,html-keyboard-response,132,244291,0.0-4.22-0.22,uwllue8p0m,2022-09-19 15:58:48.416,610329975d39376c37360d3c,0,66,6,28,7,28,Female,,,"<img src=""static/images/cards/stack_of_red_bolts.svg"" width=""175px"" height=""250px""></img>",,,,,,,,,,,,,,,,,,,,,,,,,,,,
133,0,,html-keyboard-response,133,245007,0.0-4.22-1.22,uwllue8p0m,2022-09-19 15:58:48.416,610329975d39376c37360d3c,0,66,6,28,7,28,Female,209.8999999762,,"
  <table>
  <tr height=300>
    <td width=300 height=300><img src=""static/images/cards/back_of_red_bolts.svg"" width=""175px"" height=""250px""></img></td>
    <td width=300 height=300><img src=""static/images/cards/back_of_red_bolts.svg"" width=""175px"" height=""250px""></img></td>
  </tr>
  <tr height=200>
    <td width=300><img src=""static/images/keys/z.svg"" width=""35%"" height=""75%""></img></td>
    <td width=300><img src=""static/images/keys/m.svg"" width=""35%"" height=""75%""></img></td>
  </tr>
</table>
  ",90.0,1.0,,,,,,,,,,,,,,,,,,,,,,,,,,
134,0,,html-keyboard-response,134,246514,0.0-4.22-2.22,uwllue8p0m,2022-09-19 15:58:48.416,610329975d39376c37360d3c,0,66,6,28,7,28,Female,,,"
  <table>
  <tr height=300>
    <td width=300 height=300><img src=""static/images/cards/6_of_red_bolts.svg"" width=""175px"" height=""250px""></img></td>
    <td width=300 height=300><img src=""static/images/cards/back_of_red_bolts.svg"" width=""175px"" height=""250px""></img></td>
  </tr>
  <tr height=200>
    <td width=300><img src=""static/images/keys/z.svg"" width=""35%"" height=""75%""></img></td>
    <td width=300><img src=""static/images/keys/m.svg"" width=""35%"" height=""75%""></img></td>
  </tr>
</table>
  ",,,,,,,,,,,,,,,,,,,,,,,,,,,,
135,0,,html-keyboard-response,135,248019,0.0-4.22-3.22,uwllue8p0m,2022-09-19 15:58:48.416,610329975d39376c37360d3c,0,66,6,28,7,28,Female,,,"<p style=""font-size:50px"">You win!
+10 points this round!</p>",,,,,,,,,,,,,,,,,,,,,,,,,,,,
136,0,,html-keyboard-response,136,248527,0.0-4.22-4.22,uwllue8p0m,2022-09-19 15:58:48.416,610329975d39376c37360d3c,0,66,6,28,7,28,Female,,,,,,1.0,learning,22.0,Xc,,red,,bolts,,,,Xc,red,bolts,,1.0,0.0,NA,left,209.8999999762,6.0,1.0,1.0,,,
137,0,,html-keyboard-response,137,250028,0.0-4.23-0.23,uwllue8p0m,2022-09-19 15:58:48.416,610329975d39376c37360d3c,0,66,6,28,7,28,Female,,,"<img src=""static/images/cards/stack_of_black_bolts.svg"" width=""175px"" height=""250px""></img>",,,,,,,,,,,,,,,,,,,,,,,,,,,,
138,0,,html-keyboard-response,138,250973,0.0-4.23-1.23,uwllue8p0m,2022-09-19 15:58:48.416,610329975d39376c37360d3c,0,66,6,28,7,28,Female,438.1999999285,,"
  <table>
  <tr height=300>
    <td width=300 height=300><img src=""static/images/cards/back_of_black_bolts.svg"" width=""175px"" height=""250px""></img></td>
    <td width=300 height=300><img src=""static/images/cards/back_of_black_bolts.svg"" width=""175px"" height=""250px""></img></td>
  </tr>
  <tr height=200>
    <td width=300></td>
    <td width=300><img src=""static/images/keys/m.svg"" width=""35%"" height=""75%""></img></td>
  </tr>
</table>
  ",77.0,1.0,,,,,,,,,,,,,,,,,,,,,,,,,,
139,0,,html-keyboard-response,139,252478,0.0-4.23-2.23,uwllue8p0m,2022-09-19 15:58:48.416,610329975d39376c37360d3c,0,66,6,28,7,28,Female,,,"
  <table>
  <tr height=300>
    <td width=300 height=300><img src=""static/images/cards/back_of_black_bolts.svg"" width=""175px"" height=""250px""></img></td>
    <td width=300 height=300><img src=""static/images/cards/4_of_black_bolts.svg"" width=""175px"" height=""250px""></img></td>
  </tr>
  <tr height=200>
    <td width=300></td>
    <td width=300><img src=""static/images/keys/m.svg"" width=""35%"" height=""75%""></img></td>
  </tr>
</table>
  ",,,,,,,,,,,,,,,,,,,,,,,,,,,,
140,0,,html-keyboard-response,140,253989,0.0-4.23-3.23,uwllue8p0m,2022-09-19 15:58:48.416,610329975d39376c37360d3c,0,66,6,28,7,28,Female,,,"<p style=""font-size:50px"">You win!
+10 points this round!</p>",,,,,,,,,,,,,,,,,,,,,,,,,,,,
141,0,,html-keyboard-response,141,254499,0.0-4.23-4.23,uwllue8p0m,2022-09-19 15:58:48.416,610329975d39376c37360d3c,0,66,6,28,7,28,Female,,,,,,1.0,learning,23.0,Xnc,,black,,bolts,,,,Xnc,black,bolts,,0.0,0.0,0,right,438.1999999285,4.0,0.0,1.0,,,
142,0,,call-function,142,254507,0.0-5.0,uwllue8p0m,2022-09-19 15:58:48.416,610329975d39376c37360d3c,0,66,6,28,7,28,Female,,,,,,,,,,,,,,,,,,,,,,,,,,,,,,,
143,0,,image-keyboard-response,143,257864,0.0-6.0-0.0,uwllue8p0m,2022-09-19 15:58:48.416,610329975d39376c37360d3c,0,66,6,28,7,28,Female,3357.1000000238,,static/images/instructions_CB_0/Slide20.png,39.0,,,,,,,,,,,,,,,,,,,,,,,,,,,
144,0,,image-keyboard-response,144,264963,0.0-6.1-0.1,uwllue8p0m,2022-09-19 15:58:48.416,610329975d39376c37360d3c,0,66,6,28,7,28,Female,7097.0,,static/images/instructions_CB_0/Slide21.png,37.0,,,,,,,,,,,,,,,,,,,,,,,,,,,
145,0,,image-keyboard-response,145,266090,0.0-6.2-0.2,uwllue8p0m,2022-09-19 15:58:48.416,610329975d39376c37360d3c,0,66,6,28,7,28,Female,1125.1000000238,,static/images/instructions_CB_0/Slide20.png,39.0,,,,,,,,,,,,,,,,,,,,,,,,,,,
146,0,,image-keyboard-response,146,267072,0.0-6.3-0.3,uwllue8p0m,2022-09-19 15:58:48.416,610329975d39376c37360d3c,0,66,6,28,7,28,Female,981.6000000238,,static/images/instructions_CB_0/Slide21.png,39.0,,,,,,,,,,,,,,,,,,,,,,,,,,,
147,0,,image-keyboard-response,147,271444,0.0-6.4-0.4,uwllue8p0m,2022-09-19 15:58:48.416,610329975d39376c37360d3c,0,66,6,28,7,28,Female,4370.4000000954,,static/images/instructions_CB_0/Slide22.png,39.0,,,,,,,,,,,,,,,,,,,,,,,,,,,
148,0,,image-keyboard-response,148,272382,0.0-6.5-0.5,uwllue8p0m,2022-09-19 15:58:48.416,610329975d39376c37360d3c,0,66,6,28,7,28,Female,935.7000000477,,static/images/instructions_CB_0/Slide23.png,39.0,,,,,,,,,,,,,,,,,,,,,,,,,,,
149,0,,image-keyboard-response,149,273794,0.0-6.6-0.6,uwllue8p0m,2022-09-19 15:58:48.416,610329975d39376c37360d3c,0,66,6,28,7,28,Female,1410.2000000477,,static/images/instructions_CB_0/Slide24.png,39.0,,,,,,,,,,,,,,,,,,,,,,,,,,,
150,0,,html-keyboard-response,150,275795,0.0-7.0-0.0,uwllue8p0m,2022-09-19 15:58:48.416,610329975d39376c37360d3c,0,66,6,28,7,28,Female,1998.4000000954,,"
  <table>
  <tr height=300>
    <td width=300 height=300><img src=""static/images/cards/stack_of_black_moons.svg"" width=""175px"" height=""250px""></img></td>
    <td width=300 height=300><img src=""static/images/cards/stack_of_red_stars.svg"" width=""175px"" height=""250px""></img></td>
  </tr>
  <tr height=200>
    <td width=300><img src=""static/images/keys/w.svg"" width=""35%"" height=""75%""></img></td>
    <td width=300><img src=""static/images/keys/o.svg"" width=""35%"" height=""75%""></img></td>
  </tr>
</table>
  ",79.0,1.0,,,,,,,,,,,,,,,,,,,,,,,,,,
151,0,,html-keyboard-response,151,277352,0.0-7.0-1.0,uwllue8p0m,2022-09-19 15:58:48.416,610329975d39376c37360d3c,0,66,6,28,7,28,Female,1051.0,,"
  <table>
  <tr height=300>
    <td width=300 height=300><img src=""static/images/cards/back_of_red_stars.svg"" width=""175px"" height=""250px""></img></td>
    <td width=300 height=300><img src=""static/images/cards/back_of_red_stars.svg"" width=""175px"" height=""250px""></img></td>
  </tr>
  <tr height=200>
    <td width=300><img src=""static/images/keys/z.svg"" width=""35%"" height=""75%""></img></td>
    <td width=300><img src=""static/images/keys/m.svg"" width=""35%"" height=""75%""></img></td>
  </tr>
</table>
  ",77.0,1.0,,,,,,,,,,,,,,,,,,,,,,,,,,
152,0,,html-keyboard-response,152,278856,0.0-7.0-2.0,uwllue8p0m,2022-09-19 15:58:48.416,610329975d39376c37360d3c,0,66,6,28,7,28,Female,,,"
  <table>
  <tr height=300>
    <td width=300 height=300><img src=""static/images/cards/back_of_red_stars.svg"" width=""175px"" height=""250px""></img></td>
    <td width=300 height=300><img src=""static/images/cards/6_of_red_stars.svg"" width=""175px"" height=""250px""></img></td>
  </tr>
  <tr height=200>
    <td width=300><img src=""static/images/keys/z.svg"" width=""35%"" height=""75%""></img></td>
    <td width=300><img src=""static/images/keys/m.svg"" width=""35%"" height=""75%""></img></td>
  </tr>
</table>
  ",,,,,,,,,,,,,,,,,,,,,,,,,,,,
153,0,,html-keyboard-response,153,280365,0.0-7.0-3.0,uwllue8p0m,2022-09-19 15:58:48.416,610329975d39376c37360d3c,0,66,6,28,7,28,Female,,,"<p style=""font-size:50px"">You win!
+10 points this round!</p>",,,,,,,,,,,,,,,,,,,,,,,,,,,,
154,0,,html-keyboard-response,154,280874,0.0-7.0-4.0,uwllue8p0m,2022-09-19 15:58:48.416,610329975d39376c37360d3c,0,66,6,28,7,28,Female,,,,,,1.0,choice,0.0,A,D,black,red,moons,stars,D,A,A,red,stars,1998.4000000954,1.0,1.0,NA,right,1051.0,6.0,1.0,1.0,,,
155,0,,html-keyboard-response,155,283296,0.0-7.1-0.1,uwllue8p0m,2022-09-19 15:58:48.416,610329975d39376c37360d3c,0,66,6,28,7,28,Female,2420.1000000238,,"
  <table>
  <tr height=300>
    <td width=300 height=300><img src=""static/images/cards/stack_of_black_stars.svg"" width=""175px"" height=""250px""></img></td>
    <td width=300 height=300><img src=""static/images/cards/stack_of_red_moons.svg"" width=""175px"" height=""250px""></img></td>
  </tr>
  <tr height=200>
    <td width=300><img src=""static/images/keys/w.svg"" width=""35%"" height=""75%""></img></td>
    <td width=300><img src=""static/images/keys/o.svg"" width=""35%"" height=""75%""></img></td>
  </tr>
</table>
  ",87.0,1.0,,,,,,,,,,,,,,,,,,,,,,,,,,
156,0,,html-keyboard-response,156,284619,0.0-7.1-1.1,uwllue8p0m,2022-09-19 15:58:48.416,610329975d39376c37360d3c,0,66,6,28,7,28,Female,819.5999999046,,"
  <table>
  <tr height=300>
    <td width=300 height=300><img src=""static/images/cards/back_of_black_stars.svg"" width=""175px"" height=""250px""></img></td>
    <td width=300 height=300><img src=""static/images/cards/back_of_black_stars.svg"" width=""175px"" height=""250px""></img></td>
  </tr>
  <tr height=200>
    <td width=300></td>
    <td width=300><img src=""static/images/keys/m.svg"" width=""35%"" height=""75%""></img></td>
  </tr>
</table>
  ",77.0,1.0,,,,,,,,,,,,,,,,,,,,,,,,,,
157,0,,html-keyboard-response,157,286124,0.0-7.1-2.1,uwllue8p0m,2022-09-19 15:58:48.416,610329975d39376c37360d3c,0,66,6,28,7,28,Female,,,"
  <table>
  <tr height=300>
    <td width=300 height=300><img src=""static/images/cards/back_of_black_stars.svg"" width=""175px"" height=""250px""></img></td>
    <td width=300 height=300><img src=""static/images/cards/10_of_black_stars.svg"" width=""175px"" height=""250px""></img></td>
  </tr>
  <tr height=200>
    <td width=300></td>
    <td width=300><img src=""static/images/keys/m.svg"" width=""35%"" height=""75%""></img></td>
  </tr>
</table>
  ",,,,,,,,,,,,,,,,,,,,,,,,,,,,
158,0,,html-keyboard-response,158,287632,0.0-7.1-3.1,uwllue8p0m,2022-09-19 15:58:48.416,610329975d39376c37360d3c,0,66,6,28,7,28,Female,,,"<p style=""font-size:50px"">You win!
+10 points this round!</p>",,,,,,,,,,,,,,,,,,,,,,,,,,,,
159,0,,html-keyboard-response,159,288142,0.0-7.1-4.1,uwllue8p0m,2022-09-19 15:58:48.416,610329975d39376c37360d3c,0,66,6,28,7,28,Female,,,,,,1.0,choice,1.0,B,C,black,red,stars,moons,B,C,B,black,stars,2420.1000000238,0.0,1.0,0,right,819.5999999046,10.0,1.0,1.0,,,
160,0,,html-keyboard-response,160,290162,0.0-7.2-0.2,uwllue8p0m,2022-09-19 15:58:48.416,610329975d39376c37360d3c,0,66,6,28,7,28,Female,2017.2000000477,,"
  <table>
  <tr height=300>
    <td width=300 height=300><img src=""static/images/cards/stack_of_black_moons.svg"" width=""175px"" height=""250px""></img></td>
    <td width=300 height=300><img src=""static/images/cards/stack_of_red_moons.svg"" width=""175px"" height=""250px""></img></td>
  </tr>
  <tr height=200>
    <td width=300><img src=""static/images/keys/w.svg"" width=""35%"" height=""75%""></img></td>
    <td width=300><img src=""static/images/keys/o.svg"" width=""35%"" height=""75%""></img></td>
  </tr>
</table>
  ",79.0,1.0,,,,,,,,,,,,,,,,,,,,,,,,,,
161,0,,html-keyboard-response,161,292599,0.0-7.2-1.2,uwllue8p0m,2022-09-19 15:58:48.416,610329975d39376c37360d3c,0,66,6,28,7,28,Female,1934.7000000477,,"
  <table>
  <tr height=300>
    <td width=300 height=300><img src=""static/images/cards/back_of_red_moons.svg"" width=""175px"" height=""250px""></img></td>
    <td width=300 height=300><img src=""static/images/cards/back_of_red_moons.svg"" width=""175px"" height=""250px""></img></td>
  </tr>
  <tr height=200>
    <td width=300><img src=""static/images/keys/z.svg"" width=""35%"" height=""75%""></img></td>
    <td width=300><img src=""static/images/keys/m.svg"" width=""35%"" height=""75%""></img></td>
  </tr>
</table>
  ",77.0,1.0,,,,,,,,,,,,,,,,,,,,,,,,,,
162,0,,html-keyboard-response,162,294102,0.0-7.2-2.2,uwllue8p0m,2022-09-19 15:58:48.416,610329975d39376c37360d3c,0,66,6,28,7,28,Female,,,"
  <table>
  <tr height=300>
    <td width=300 height=300><img src=""static/images/cards/back_of_red_moons.svg"" width=""175px"" height=""250px""></img></td>
    <td width=300 height=300><img src=""static/images/cards/2_of_red_moons.svg"" width=""175px"" height=""250px""></img></td>
  </tr>
  <tr height=200>
    <td width=300><img src=""static/images/keys/z.svg"" width=""35%"" height=""75%""></img></td>
    <td width=300><img src=""static/images/keys/m.svg"" width=""35%"" height=""75%""></img></td>
  </tr>
</table>
  ",,,,,,,,,,,,,,,,,,,,,,,,,,,,
163,0,,html-keyboard-response,163,295605,0.0-7.2-3.2,uwllue8p0m,2022-09-19 15:58:48.416,610329975d39376c37360d3c,0,66,6,28,7,28,Female,,,"<p style=""font-size:50px"">You Lose!
No points this round.</p>",,,,,,,,,,,,,,,,,,,,,,,,,,,,
164,0,,html-keyboard-response,164,296113,0.0-7.2-4.2,uwllue8p0m,2022-09-19 15:58:48.416,610329975d39376c37360d3c,0,66,6,28,7,28,Female,,,,,,1.0,choice,2.0,C,D,black,red,moons,moons,D,C,C,red,moons,2017.2000000477,1.0,0.0,NA,right,1934.7000000477,2.0,0.0,0.0,,,
165,0,,html-keyboard-response,165,298355,0.0-7.3-0.3,uwllue8p0m,2022-09-19 15:58:48.416,610329975d39376c37360d3c,0,66,6,28,7,28,Female,2239.3999999762,,"
  <table>
  <tr height=300>
    <td width=300 height=300><img src=""static/images/cards/stack_of_black_stars.svg"" width=""175px"" height=""250px""></img></td>
    <td width=300 height=300><img src=""static/images/cards/stack_of_red_stars.svg"" width=""175px"" height=""250px""></img></td>
  </tr>
  <tr height=200>
    <td width=300><img src=""static/images/keys/w.svg"" width=""35%"" height=""75%""></img></td>
    <td width=300><img src=""static/images/keys/o.svg"" width=""35%"" height=""75%""></img></td>
  </tr>
</table>
  ",79.0,1.0,,,,,,,,,,,,,,,,,,,,,,,,,,
166,0,,html-keyboard-response,166,299860,0.0-7.3-1.3,uwllue8p0m,2022-09-19 15:58:48.416,610329975d39376c37360d3c,0,66,6,28,7,28,Female,1001.2999999523,,"
  <table>
  <tr height=300>
    <td width=300 height=300><img src=""static/images/cards/back_of_red_stars.svg"" width=""175px"" height=""250px""></img></td>
    <td width=300 height=300><img src=""static/images/cards/back_of_red_stars.svg"" width=""175px"" height=""250px""></img></td>
  </tr>
  <tr height=200>
    <td width=300><img src=""static/images/keys/z.svg"" width=""35%"" height=""75%""></img></td>
    <td width=300><img src=""static/images/keys/m.svg"" width=""35%"" height=""75%""></img></td>
  </tr>
</table>
  ",77.0,1.0,,,,,,,,,,,,,,,,,,,,,,,,,,
167,0,,html-keyboard-response,167,301363,0.0-7.3-2.3,uwllue8p0m,2022-09-19 15:58:48.416,610329975d39376c37360d3c,0,66,6,28,7,28,Female,,,"
  <table>
  <tr height=300>
    <td width=300 height=300><img src=""static/images/cards/back_of_red_stars.svg"" width=""175px"" height=""250px""></img></td>
    <td width=300 height=300><img src=""static/images/cards/4_of_red_stars.svg"" width=""175px"" height=""250px""></img></td>
  </tr>
  <tr height=200>
    <td width=300><img src=""static/images/keys/z.svg"" width=""35%"" height=""75%""></img></td>
    <td width=300><img src=""static/images/keys/m.svg"" width=""35%"" height=""75%""></img></td>
  </tr>
</table>
  ",,,,,,,,,,,,,,,,,,,,,,,,,,,,
168,0,,html-keyboard-response,168,302874,0.0-7.3-3.3,uwllue8p0m,2022-09-19 15:58:48.416,610329975d39376c37360d3c,0,66,6,28,7,28,Female,,,"<p style=""font-size:50px"">You Lose!
No points this round.</p>",,,,,,,,,,,,,,,,,,,,,,,,,,,,
169,0,,html-keyboard-response,169,303380,0.0-7.3-4.3,uwllue8p0m,2022-09-19 15:58:48.416,610329975d39376c37360d3c,0,66,6,28,7,28,Female,,,,,,1.0,choice,3.0,A,B,black,red,stars,stars,B,A,A,red,stars,2239.3999999762,1.0,1.0,NA,right,1001.2999999523,4.0,0.0,0.0,,,
170,0,,html-keyboard-response,170,305085,0.0-7.4-0.4,uwllue8p0m,2022-09-19 15:58:48.416,610329975d39376c37360d3c,0,66,6,28,7,28,Female,1703.3000000715,,"
  <table>
  <tr height=300>
    <td width=300 height=300><img src=""static/images/cards/stack_of_black_stars.svg"" width=""175px"" height=""250px""></img></td>
    <td width=300 height=300><img src=""static/images/cards/stack_of_red_stars.svg"" width=""175px"" height=""250px""></img></td>
  </tr>
  <tr height=200>
    <td width=300><img src=""static/images/keys/w.svg"" width=""35%"" height=""75%""></img></td>
    <td width=300><img src=""static/images/keys/o.svg"" width=""35%"" height=""75%""></img></td>
  </tr>
</table>
  ",79.0,1.0,,,,,,,,,,,,,,,,,,,,,,,,,,
171,0,,html-keyboard-response,171,306120,0.0-7.4-1.4,uwllue8p0m,2022-09-19 15:58:48.416,610329975d39376c37360d3c,0,66,6,28,7,28,Female,531.5,,"
  <table>
  <tr height=300>
    <td width=300 height=300><img src=""static/images/cards/back_of_red_stars.svg"" width=""175px"" height=""250px""></img></td>
    <td width=300 height=300><img src=""static/images/cards/back_of_red_stars.svg"" width=""175px"" height=""250px""></img></td>
  </tr>
  <tr height=200>
    <td width=300><img src=""static/images/keys/z.svg"" width=""35%"" height=""75%""></img></td>
    <td width=300><img src=""static/images/keys/m.svg"" width=""35%"" height=""75%""></img></td>
  </tr>
</table>
  ",90.0,1.0,,,,,,,,,,,,,,,,,,,,,,,,,,
172,0,,html-keyboard-response,172,307626,0.0-7.4-2.4,uwllue8p0m,2022-09-19 15:58:48.416,610329975d39376c37360d3c,0,66,6,28,7,28,Female,,,"
  <table>
  <tr height=300>
    <td width=300 height=300><img src=""static/images/cards/10_of_red_stars.svg"" width=""175px"" height=""250px""></img></td>
    <td width=300 height=300><img src=""static/images/cards/back_of_red_stars.svg"" width=""175px"" height=""250px""></img></td>
  </tr>
  <tr height=200>
    <td width=300><img src=""static/images/keys/z.svg"" width=""35%"" height=""75%""></img></td>
    <td width=300><img src=""static/images/keys/m.svg"" width=""35%"" height=""75%""></img></td>
  </tr>
</table>
  ",,,,,,,,,,,,,,,,,,,,,,,,,,,,
173,0,,html-keyboard-response,173,309136,0.0-7.4-3.4,uwllue8p0m,2022-09-19 15:58:48.416,610329975d39376c37360d3c,0,66,6,28,7,28,Female,,,"<p style=""font-size:50px"">You win!
+10 points this round!</p>",,,,,,,,,,,,,,,,,,,,,,,,,,,,
174,0,,html-keyboard-response,174,309645,0.0-7.4-4.4,uwllue8p0m,2022-09-19 15:58:48.416,610329975d39376c37360d3c,0,66,6,28,7,28,Female,,,,,,1.0,choice,4.0,A,B,black,red,stars,stars,B,A,A,red,stars,1703.3000000715,1.0,1.0,NA,left,531.5,10.0,1.0,1.0,,,
175,0,,html-keyboard-response,175,311440,0.0-7.5-0.5,uwllue8p0m,2022-09-19 15:58:48.416,610329975d39376c37360d3c,0,66,6,28,7,28,Female,1792.2999999523,,"
  <table>
  <tr height=300>
    <td width=300 height=300><img src=""static/images/cards/stack_of_red_moons.svg"" width=""175px"" height=""250px""></img></td>
    <td width=300 height=300><img src=""static/images/cards/stack_of_black_stars.svg"" width=""175px"" height=""250px""></img></td>
  </tr>
  <tr height=200>
    <td width=300><img src=""static/images/keys/w.svg"" width=""35%"" height=""75%""></img></td>
    <td width=300><img src=""static/images/keys/o.svg"" width=""35%"" height=""75%""></img></td>
  </tr>
</table>
  ",79.0,1.0,,,,,,,,,,,,,,,,,,,,,,,,,,
176,0,,html-keyboard-response,176,312438,0.0-7.5-1.5,uwllue8p0m,2022-09-19 15:58:48.416,610329975d39376c37360d3c,0,66,6,28,7,28,Female,494.5999999046,,"
  <table>
  <tr height=300>
    <td width=300 height=300><img src=""static/images/cards/back_of_black_stars.svg"" width=""175px"" height=""250px""></img></td>
    <td width=300 height=300><img src=""static/images/cards/back_of_black_stars.svg"" width=""175px"" height=""250px""></img></td>
  </tr>
  <tr height=200>
    <td width=300></td>
    <td width=300><img src=""static/images/keys/m.svg"" width=""35%"" height=""75%""></img></td>
  </tr>
</table>
  ",77.0,1.0,,,,,,,,,,,,,,,,,,,,,,,,,,
177,0,,html-keyboard-response,177,313942,0.0-7.5-2.5,uwllue8p0m,2022-09-19 15:58:48.416,610329975d39376c37360d3c,0,66,6,28,7,28,Female,,,"
  <table>
  <tr height=300>
    <td width=300 height=300><img src=""static/images/cards/back_of_black_stars.svg"" width=""175px"" height=""250px""></img></td>
    <td width=300 height=300><img src=""static/images/cards/6_of_black_stars.svg"" width=""175px"" height=""250px""></img></td>
  </tr>
  <tr height=200>
    <td width=300></td>
    <td width=300><img src=""static/images/keys/m.svg"" width=""35%"" height=""75%""></img></td>
  </tr>
</table>
  ",,,,,,,,,,,,,,,,,,,,,,,,,,,,
178,0,,html-keyboard-response,178,315446,0.0-7.5-3.5,uwllue8p0m,2022-09-19 15:58:48.416,610329975d39376c37360d3c,0,66,6,28,7,28,Female,,,"<p style=""font-size:50px"">You win!
+10 points this round!</p>",,,,,,,,,,,,,,,,,,,,,,,,,,,,
179,0,,html-keyboard-response,179,315957,0.0-7.5-4.5,uwllue8p0m,2022-09-19 15:58:48.416,610329975d39376c37360d3c,0,66,6,28,7,28,Female,,,,,,1.0,choice,5.0,B,C,red,black,moons,stars,C,B,B,black,stars,1792.2999999523,0.0,1.0,0,right,494.5999999046,6.0,1.0,1.0,,,
180,0,,html-keyboard-response,180,317123,0.0-7.6-0.6,uwllue8p0m,2022-09-19 15:58:48.416,610329975d39376c37360d3c,0,66,6,28,7,28,Female,1164.7000000477,,"
  <table>
  <tr height=300>
    <td width=300 height=300><img src=""static/images/cards/stack_of_red_moons.svg"" width=""175px"" height=""250px""></img></td>
    <td width=300 height=300><img src=""static/images/cards/stack_of_red_stars.svg"" width=""175px"" height=""250px""></img></td>
  </tr>
  <tr height=200>
    <td width=300><img src=""static/images/keys/w.svg"" width=""35%"" height=""75%""></img></td>
    <td width=300><img src=""static/images/keys/o.svg"" width=""35%"" height=""75%""></img></td>
  </tr>
</table>
  ",79.0,1.0,,,,,,,,,,,,,,,,,,,,,,,,,,
181,0,,html-keyboard-response,181,318428,0.0-7.6-1.6,uwllue8p0m,2022-09-19 15:58:48.416,610329975d39376c37360d3c,0,66,6,28,7,28,Female,802.3000000715,,"
  <table>
  <tr height=300>
    <td width=300 height=300><img src=""static/images/cards/back_of_red_stars.svg"" width=""175px"" height=""250px""></img></td>
    <td width=300 height=300><img src=""static/images/cards/back_of_red_stars.svg"" width=""175px"" height=""250px""></img></td>
  </tr>
  <tr height=200>
    <td width=300><img src=""static/images/keys/z.svg"" width=""35%"" height=""75%""></img></td>
    <td width=300><img src=""static/images/keys/m.svg"" width=""35%"" height=""75%""></img></td>
  </tr>
</table>
  ",90.0,1.0,,,,,,,,,,,,,,,,,,,,,,,,,,
182,0,,html-keyboard-response,182,319931,0.0-7.6-2.6,uwllue8p0m,2022-09-19 15:58:48.416,610329975d39376c37360d3c,0,66,6,28,7,28,Female,,,"
  <table>
  <tr height=300>
    <td width=300 height=300><img src=""static/images/cards/1_of_red_stars.svg"" width=""175px"" height=""250px""></img></td>
    <td width=300 height=300><img src=""static/images/cards/back_of_red_stars.svg"" width=""175px"" height=""250px""></img></td>
  </tr>
  <tr height=200>
    <td width=300><img src=""static/images/keys/z.svg"" width=""35%"" height=""75%""></img></td>
    <td width=300><img src=""static/images/keys/m.svg"" width=""35%"" height=""75%""></img></td>
  </tr>
</table>
  ",,,,,,,,,,,,,,,,,,,,,,,,,,,,
183,0,,html-keyboard-response,183,321438,0.0-7.6-3.6,uwllue8p0m,2022-09-19 15:58:48.416,610329975d39376c37360d3c,0,66,6,28,7,28,Female,,,"<p style=""font-size:50px"">You Lose!
No points this round.</p>",,,,,,,,,,,,,,,,,,,,,,,,,,,,
184,0,,html-keyboard-response,184,321947,0.0-7.6-4.6,uwllue8p0m,2022-09-19 15:58:48.416,610329975d39376c37360d3c,0,66,6,28,7,28,Female,,,,,,1.0,choice,6.0,A,C,red,red,moons,stars,C,A,A,red,stars,1164.7000000477,1.0,1.0,NA,left,802.3000000715,1.0,0.0,0.0,,,
185,0,,html-keyboard-response,185,322850,0.0-7.7-0.7,uwllue8p0m,2022-09-19 15:58:48.416,610329975d39376c37360d3c,0,66,6,28,7,28,Female,900.6000000238,,"
  <table>
  <tr height=300>
    <td width=300 height=300><img src=""static/images/cards/stack_of_black_moons.svg"" width=""175px"" height=""250px""></img></td>
    <td width=300 height=300><img src=""static/images/cards/stack_of_black_stars.svg"" width=""175px"" height=""250px""></img></td>
  </tr>
  <tr height=200>
    <td width=300><img src=""static/images/keys/w.svg"" width=""35%"" height=""75%""></img></td>
    <td width=300><img src=""static/images/keys/o.svg"" width=""35%"" height=""75%""></img></td>
  </tr>
</table>
  ",79.0,1.0,,,,,,,,,,,,,,,,,,,,,,,,,,
186,0,,html-keyboard-response,186,324066,0.0-7.7-1.7,uwllue8p0m,2022-09-19 15:58:48.416,610329975d39376c37360d3c,0,66,6,28,7,28,Female,712.7000000477,,"
  <table>
  <tr height=300>
    <td width=300 height=300><img src=""static/images/cards/back_of_black_stars.svg"" width=""175px"" height=""250px""></img></td>
    <td width=300 height=300><img src=""static/images/cards/back_of_black_stars.svg"" width=""175px"" height=""250px""></img></td>
  </tr>
  <tr height=200>
    <td width=300><img src=""static/images/keys/z.svg"" width=""35%"" height=""75%""></img></td>
    <td width=300></td>
  </tr>
</table>
  ",90.0,1.0,,,,,,,,,,,,,,,,,,,,,,,,,,
187,0,,html-keyboard-response,187,325571,0.0-7.7-2.7,uwllue8p0m,2022-09-19 15:58:48.416,610329975d39376c37360d3c,0,66,6,28,7,28,Female,,,"
  <table>
  <tr height=300>
    <td width=300 height=300><img src=""static/images/cards/7_of_black_stars.svg"" width=""175px"" height=""250px""></img></td>
    <td width=300 height=300><img src=""static/images/cards/back_of_black_stars.svg"" width=""175px"" height=""250px""></img></td>
  </tr>
  <tr height=200>
    <td width=300><img src=""static/images/keys/z.svg"" width=""35%"" height=""75%""></img></td>
    <td width=300></td>
  </tr>
</table>
  ",,,,,,,,,,,,,,,,,,,,,,,,,,,,
188,0,,html-keyboard-response,188,327073,0.0-7.7-3.7,uwllue8p0m,2022-09-19 15:58:48.416,610329975d39376c37360d3c,0,66,6,28,7,28,Female,,,"<p style=""font-size:50px"">You win!
+10 points this round!</p>",,,,,,,,,,,,,,,,,,,,,,,,,,,,
189,0,,html-keyboard-response,189,327583,0.0-7.7-4.7,uwllue8p0m,2022-09-19 15:58:48.416,610329975d39376c37360d3c,0,66,6,28,7,28,Female,,,,,,1.0,choice,7.0,B,D,black,black,moons,stars,D,B,B,black,stars,900.6000000238,0.0,1.0,1,left,712.7000000477,7.0,1.0,1.0,,,
190,0,,html-keyboard-response,190,329556,0.0-7.8-0.8,uwllue8p0m,2022-09-19 15:58:48.416,610329975d39376c37360d3c,0,66,6,28,7,28,Female,1970.2000000477,,"
  <table>
  <tr height=300>
    <td width=300 height=300><img src=""static/images/cards/stack_of_red_moons.svg"" width=""175px"" height=""250px""></img></td>
    <td width=300 height=300><img src=""static/images/cards/stack_of_black_stars.svg"" width=""175px"" height=""250px""></img></td>
  </tr>
  <tr height=200>
    <td width=300><img src=""static/images/keys/w.svg"" width=""35%"" height=""75%""></img></td>
    <td width=300><img src=""static/images/keys/o.svg"" width=""35%"" height=""75%""></img></td>
  </tr>
</table>
  ",79.0,1.0,,,,,,,,,,,,,,,,,,,,,,,,,,
191,0,,html-keyboard-response,191,330643,0.0-7.8-1.8,uwllue8p0m,2022-09-19 15:58:48.416,610329975d39376c37360d3c,0,66,6,28,7,28,Female,581.8999999762,,"
  <table>
  <tr height=300>
    <td width=300 height=300><img src=""static/images/cards/back_of_black_stars.svg"" width=""175px"" height=""250px""></img></td>
    <td width=300 height=300><img src=""static/images/cards/back_of_black_stars.svg"" width=""175px"" height=""250px""></img></td>
  </tr>
  <tr height=200>
    <td width=300><img src=""static/images/keys/z.svg"" width=""35%"" height=""75%""></img></td>
    <td width=300></td>
  </tr>
</table>
  ",90.0,1.0,,,,,,,,,,,,,,,,,,,,,,,,,,
192,0,,html-keyboard-response,192,332148,0.0-7.8-2.8,uwllue8p0m,2022-09-19 15:58:48.416,610329975d39376c37360d3c,0,66,6,28,7,28,Female,,,"
  <table>
  <tr height=300>
    <td width=300 height=300><img src=""static/images/cards/2_of_black_stars.svg"" width=""175px"" height=""250px""></img></td>
    <td width=300 height=300><img src=""static/images/cards/back_of_black_stars.svg"" width=""175px"" height=""250px""></img></td>
  </tr>
  <tr height=200>
    <td width=300><img src=""static/images/keys/z.svg"" width=""35%"" height=""75%""></img></td>
    <td width=300></td>
  </tr>
</table>
  ",,,,,,,,,,,,,,,,,,,,,,,,,,,,
193,0,,html-keyboard-response,193,333655,0.0-7.8-3.8,uwllue8p0m,2022-09-19 15:58:48.416,610329975d39376c37360d3c,0,66,6,28,7,28,Female,,,"<p style=""font-size:50px"">You Lose!
No points this round.</p>",,,,,,,,,,,,,,,,,,,,,,,,,,,,
194,0,,html-keyboard-response,194,334164,0.0-7.8-4.8,uwllue8p0m,2022-09-19 15:58:48.416,610329975d39376c37360d3c,0,66,6,28,7,28,Female,,,,,,1.0,choice,8.0,B,C,red,black,moons,stars,C,B,B,black,stars,1970.2000000477,0.0,1.0,1,left,581.8999999762,2.0,0.0,0.0,,,
195,0,,html-keyboard-response,195,335859,0.0-7.9-0.9,uwllue8p0m,2022-09-19 15:58:48.416,610329975d39376c37360d3c,0,66,6,28,7,28,Female,1692.7000000477,,"
  <table>
  <tr height=300>
    <td width=300 height=300><img src=""static/images/cards/stack_of_black_stars.svg"" width=""175px"" height=""250px""></img></td>
    <td width=300 height=300><img src=""static/images/cards/stack_of_red_stars.svg"" width=""175px"" height=""250px""></img></td>
  </tr>
  <tr height=200>
    <td width=300><img src=""static/images/keys/w.svg"" width=""35%"" height=""75%""></img></td>
    <td width=300><img src=""static/images/keys/o.svg"" width=""35%"" height=""75%""></img></td>
  </tr>
</table>
  ",79.0,1.0,,,,,,,,,,,,,,,,,,,,,,,,,,
196,0,,html-keyboard-response,196,336725,0.0-7.9-1.9,uwllue8p0m,2022-09-19 15:58:48.416,610329975d39376c37360d3c,0,66,6,28,7,28,Female,361.3999999762,,"
  <table>
  <tr height=300>
    <td width=300 height=300><img src=""static/images/cards/back_of_red_stars.svg"" width=""175px"" height=""250px""></img></td>
    <td width=300 height=300><img src=""static/images/cards/back_of_red_stars.svg"" width=""175px"" height=""250px""></img></td>
  </tr>
  <tr height=200>
    <td width=300><img src=""static/images/keys/z.svg"" width=""35%"" height=""75%""></img></td>
    <td width=300><img src=""static/images/keys/m.svg"" width=""35%"" height=""75%""></img></td>
  </tr>
</table>
  ",77.0,1.0,,,,,,,,,,,,,,,,,,,,,,,,,,
197,0,,html-keyboard-response,197,338228,0.0-7.9-2.9,uwllue8p0m,2022-09-19 15:58:48.416,610329975d39376c37360d3c,0,66,6,28,7,28,Female,,,"
  <table>
  <tr height=300>
    <td width=300 height=300><img src=""static/images/cards/back_of_red_stars.svg"" width=""175px"" height=""250px""></img></td>
    <td width=300 height=300><img src=""static/images/cards/8_of_red_stars.svg"" width=""175px"" height=""250px""></img></td>
  </tr>
  <tr height=200>
    <td width=300><img src=""static/images/keys/z.svg"" width=""35%"" height=""75%""></img></td>
    <td width=300><img src=""static/images/keys/m.svg"" width=""35%"" height=""75%""></img></td>
  </tr>
</table>
  ",,,,,,,,,,,,,,,,,,,,,,,,,,,,
198,0,,html-keyboard-response,198,339736,0.0-7.9-3.9,uwllue8p0m,2022-09-19 15:58:48.416,610329975d39376c37360d3c,0,66,6,28,7,28,Female,,,"<p style=""font-size:50px"">You win!
+10 points this round!</p>",,,,,,,,,,,,,,,,,,,,,,,,,,,,
199,0,,html-keyboard-response,199,340244,0.0-7.9-4.9,uwllue8p0m,2022-09-19 15:58:48.416,610329975d39376c37360d3c,0,66,6,28,7,28,Female,,,,,,1.0,choice,9.0,A,B,black,red,stars,stars,B,A,A,red,stars,1692.7000000477,1.0,1.0,NA,right,361.3999999762,8.0,1.0,1.0,,,
200,0,,html-keyboard-response,200,341374,0.0-7.10-0.10,uwllue8p0m,2022-09-19 15:58:48.416,610329975d39376c37360d3c,0,66,6,28,7,28,Female,1128.0,,"
  <table>
  <tr height=300>
    <td width=300 height=300><img src=""static/images/cards/stack_of_red_moons.svg"" width=""175px"" height=""250px""></img></td>
    <td width=300 height=300><img src=""static/images/cards/stack_of_red_stars.svg"" width=""175px"" height=""250px""></img></td>
  </tr>
  <tr height=200>
    <td width=300><img src=""static/images/keys/w.svg"" width=""35%"" height=""75%""></img></td>
    <td width=300><img src=""static/images/keys/o.svg"" width=""35%"" height=""75%""></img></td>
  </tr>
</table>
  ",79.0,1.0,,,,,,,,,,,,,,,,,,,,,,,,,,
201,0,,html-keyboard-response,201,342335,0.0-7.10-1.10,uwllue8p0m,2022-09-19 15:58:48.416,610329975d39376c37360d3c,0,66,6,28,7,28,Female,457.5,,"
  <table>
  <tr height=300>
    <td width=300 height=300><img src=""static/images/cards/back_of_red_stars.svg"" width=""175px"" height=""250px""></img></td>
    <td width=300 height=300><img src=""static/images/cards/back_of_red_stars.svg"" width=""175px"" height=""250px""></img></td>
  </tr>
  <tr height=200>
    <td width=300><img src=""static/images/keys/z.svg"" width=""35%"" height=""75%""></img></td>
    <td width=300><img src=""static/images/keys/m.svg"" width=""35%"" height=""75%""></img></td>
  </tr>
</table>
  ",77.0,1.0,,,,,,,,,,,,,,,,,,,,,,,,,,
202,0,,html-keyboard-response,202,343840,0.0-7.10-2.10,uwllue8p0m,2022-09-19 15:58:48.416,610329975d39376c37360d3c,0,66,6,28,7,28,Female,,,"
  <table>
  <tr height=300>
    <td width=300 height=300><img src=""static/images/cards/back_of_red_stars.svg"" width=""175px"" height=""250px""></img></td>
    <td width=300 height=300><img src=""static/images/cards/3_of_red_stars.svg"" width=""175px"" height=""250px""></img></td>
  </tr>
  <tr height=200>
    <td width=300><img src=""static/images/keys/z.svg"" width=""35%"" height=""75%""></img></td>
    <td width=300><img src=""static/images/keys/m.svg"" width=""35%"" height=""75%""></img></td>
  </tr>
</table>
  ",,,,,,,,,,,,,,,,,,,,,,,,,,,,
203,0,,html-keyboard-response,203,345347,0.0-7.10-3.10,uwllue8p0m,2022-09-19 15:58:48.416,610329975d39376c37360d3c,0,66,6,28,7,28,Female,,,"<p style=""font-size:50px"">You Lose!
No points this round.</p>",,,,,,,,,,,,,,,,,,,,,,,,,,,,
204,0,,html-keyboard-response,204,345858,0.0-7.10-4.10,uwllue8p0m,2022-09-19 15:58:48.416,610329975d39376c37360d3c,0,66,6,28,7,28,Female,,,,,,1.0,choice,10.0,A,C,red,red,moons,stars,C,A,A,red,stars,1128.0,1.0,1.0,NA,right,457.5,3.0,0.0,0.0,,,
205,0,,html-keyboard-response,205,347111,0.0-7.11-0.11,uwllue8p0m,2022-09-19 15:58:48.416,610329975d39376c37360d3c,0,66,6,28,7,28,Female,1252.3999999762,,"
  <table>
  <tr height=300>
    <td width=300 height=300><img src=""static/images/cards/stack_of_red_stars.svg"" width=""175px"" height=""250px""></img></td>
    <td width=300 height=300><img src=""static/images/cards/stack_of_black_moons.svg"" width=""175px"" height=""250px""></img></td>
  </tr>
  <tr height=200>
    <td width=300><img src=""static/images/keys/w.svg"" width=""35%"" height=""75%""></img></td>
    <td width=300><img src=""static/images/keys/o.svg"" width=""35%"" height=""75%""></img></td>
  </tr>
</table>
  ",87.0,1.0,,,,,,,,,,,,,,,,,,,,,,,,,,
206,0,,html-keyboard-response,206,348145,0.0-7.11-1.11,uwllue8p0m,2022-09-19 15:58:48.416,610329975d39376c37360d3c,0,66,6,28,7,28,Female,529.0,,"
  <table>
  <tr height=300>
    <td width=300 height=300><img src=""static/images/cards/back_of_red_stars.svg"" width=""175px"" height=""250px""></img></td>
    <td width=300 height=300><img src=""static/images/cards/back_of_red_stars.svg"" width=""175px"" height=""250px""></img></td>
  </tr>
  <tr height=200>
    <td width=300><img src=""static/images/keys/z.svg"" width=""35%"" height=""75%""></img></td>
    <td width=300><img src=""static/images/keys/m.svg"" width=""35%"" height=""75%""></img></td>
  </tr>
</table>
  ",90.0,1.0,,,,,,,,,,,,,,,,,,,,,,,,,,
207,0,,html-keyboard-response,207,349648,0.0-7.11-2.11,uwllue8p0m,2022-09-19 15:58:48.416,610329975d39376c37360d3c,0,66,6,28,7,28,Female,,,"
  <table>
  <tr height=300>
    <td width=300 height=300><img src=""static/images/cards/4_of_red_stars.svg"" width=""175px"" height=""250px""></img></td>
    <td width=300 height=300><img src=""static/images/cards/back_of_red_stars.svg"" width=""175px"" height=""250px""></img></td>
  </tr>
  <tr height=200>
    <td width=300><img src=""static/images/keys/z.svg"" width=""35%"" height=""75%""></img></td>
    <td width=300><img src=""static/images/keys/m.svg"" width=""35%"" height=""75%""></img></td>
  </tr>
</table>
  ",,,,,,,,,,,,,,,,,,,,,,,,,,,,
208,0,,html-keyboard-response,208,351153,0.0-7.11-3.11,uwllue8p0m,2022-09-19 15:58:48.416,610329975d39376c37360d3c,0,66,6,28,7,28,Female,,,"<p style=""font-size:50px"">You Lose!
No points this round.</p>",,,,,,,,,,,,,,,,,,,,,,,,,,,,
209,0,,html-keyboard-response,209,351662,0.0-7.11-4.11,uwllue8p0m,2022-09-19 15:58:48.416,610329975d39376c37360d3c,0,66,6,28,7,28,Female,,,,,,1.0,choice,11.0,A,D,red,black,stars,moons,A,D,A,red,stars,1252.3999999762,1.0,1.0,NA,left,529.0,4.0,0.0,0.0,,,
210,0,,html-keyboard-response,210,352811,0.0-7.12-0.12,uwllue8p0m,2022-09-19 15:58:48.416,610329975d39376c37360d3c,0,66,6,28,7,28,Female,1147.0,,"
  <table>
  <tr height=300>
    <td width=300 height=300><img src=""static/images/cards/stack_of_black_stars.svg"" width=""175px"" height=""250px""></img></td>
    <td width=300 height=300><img src=""static/images/cards/stack_of_red_stars.svg"" width=""175px"" height=""250px""></img></td>
  </tr>
  <tr height=200>
    <td width=300><img src=""static/images/keys/w.svg"" width=""35%"" height=""75%""></img></td>
    <td width=300><img src=""static/images/keys/o.svg"" width=""35%"" height=""75%""></img></td>
  </tr>
</table>
  ",79.0,1.0,,,,,,,,,,,,,,,,,,,,,,,,,,
211,0,,html-keyboard-response,211,354168,0.0-7.12-1.12,uwllue8p0m,2022-09-19 15:58:48.416,610329975d39376c37360d3c,0,66,6,28,7,28,Female,853.0,,"
  <table>
  <tr height=300>
    <td width=300 height=300><img src=""static/images/cards/back_of_red_stars.svg"" width=""175px"" height=""250px""></img></td>
    <td width=300 height=300><img src=""static/images/cards/back_of_red_stars.svg"" width=""175px"" height=""250px""></img></td>
  </tr>
  <tr height=200>
    <td width=300><img src=""static/images/keys/z.svg"" width=""35%"" height=""75%""></img></td>
    <td width=300><img src=""static/images/keys/m.svg"" width=""35%"" height=""75%""></img></td>
  </tr>
</table>
  ",77.0,1.0,,,,,,,,,,,,,,,,,,,,,,,,,,
212,0,,html-keyboard-response,212,355675,0.0-7.12-2.12,uwllue8p0m,2022-09-19 15:58:48.416,610329975d39376c37360d3c,0,66,6,28,7,28,Female,,,"
  <table>
  <tr height=300>
    <td width=300 height=300><img src=""static/images/cards/back_of_red_stars.svg"" width=""175px"" height=""250px""></img></td>
    <td width=300 height=300><img src=""static/images/cards/2_of_red_stars.svg"" width=""175px"" height=""250px""></img></td>
  </tr>
  <tr height=200>
    <td width=300><img src=""static/images/keys/z.svg"" width=""35%"" height=""75%""></img></td>
    <td width=300><img src=""static/images/keys/m.svg"" width=""35%"" height=""75%""></img></td>
  </tr>
</table>
  ",,,,,,,,,,,,,,,,,,,,,,,,,,,,
213,0,,html-keyboard-response,213,357179,0.0-7.12-3.12,uwllue8p0m,2022-09-19 15:58:48.416,610329975d39376c37360d3c,0,66,6,28,7,28,Female,,,"<p style=""font-size:50px"">You Lose!
No points this round.</p>",,,,,,,,,,,,,,,,,,,,,,,,,,,,
214,0,,html-keyboard-response,214,357689,0.0-7.12-4.12,uwllue8p0m,2022-09-19 15:58:48.416,610329975d39376c37360d3c,0,66,6,28,7,28,Female,,,,,,1.0,choice,12.0,A,B,black,red,stars,stars,B,A,A,red,stars,1147.0,1.0,1.0,NA,right,853.0,2.0,0.0,0.0,,,
215,0,,html-keyboard-response,215,358781,0.0-7.13-0.13,uwllue8p0m,2022-09-19 15:58:48.416,610329975d39376c37360d3c,0,66,6,28,7,28,Female,1089.8999999762,,"
  <table>
  <tr height=300>
    <td width=300 height=300><img src=""static/images/cards/stack_of_red_moons.svg"" width=""175px"" height=""250px""></img></td>
    <td width=300 height=300><img src=""static/images/cards/stack_of_black_stars.svg"" width=""175px"" height=""250px""></img></td>
  </tr>
  <tr height=200>
    <td width=300><img src=""static/images/keys/w.svg"" width=""35%"" height=""75%""></img></td>
    <td width=300><img src=""static/images/keys/o.svg"" width=""35%"" height=""75%""></img></td>
  </tr>
</table>
  ",79.0,1.0,,,,,,,,,,,,,,,,,,,,,,,,,,
216,0,,html-keyboard-response,216,359713,0.0-7.13-1.13,uwllue8p0m,2022-09-19 15:58:48.416,610329975d39376c37360d3c,0,66,6,28,7,28,Female,429.1999999285,,"
  <table>
  <tr height=300>
    <td width=300 height=300><img src=""static/images/cards/back_of_black_stars.svg"" width=""175px"" height=""250px""></img></td>
    <td width=300 height=300><img src=""static/images/cards/back_of_black_stars.svg"" width=""175px"" height=""250px""></img></td>
  </tr>
  <tr height=200>
    <td width=300></td>
    <td width=300><img src=""static/images/keys/m.svg"" width=""35%"" height=""75%""></img></td>
  </tr>
</table>
  ",77.0,1.0,,,,,,,,,,,,,,,,,,,,,,,,,,
217,0,,html-keyboard-response,217,361218,0.0-7.13-2.13,uwllue8p0m,2022-09-19 15:58:48.416,610329975d39376c37360d3c,0,66,6,28,7,28,Female,,,"
  <table>
  <tr height=300>
    <td width=300 height=300><img src=""static/images/cards/back_of_black_stars.svg"" width=""175px"" height=""250px""></img></td>
    <td width=300 height=300><img src=""static/images/cards/10_of_black_stars.svg"" width=""175px"" height=""250px""></img></td>
  </tr>
  <tr height=200>
    <td width=300></td>
    <td width=300><img src=""static/images/keys/m.svg"" width=""35%"" height=""75%""></img></td>
  </tr>
</table>
  ",,,,,,,,,,,,,,,,,,,,,,,,,,,,
218,0,,html-keyboard-response,218,362724,0.0-7.13-3.13,uwllue8p0m,2022-09-19 15:58:48.416,610329975d39376c37360d3c,0,66,6,28,7,28,Female,,,"<p style=""font-size:50px"">You win!
+10 points this round!</p>",,,,,,,,,,,,,,,,,,,,,,,,,,,,
219,0,,html-keyboard-response,219,363233,0.0-7.13-4.13,uwllue8p0m,2022-09-19 15:58:48.416,610329975d39376c37360d3c,0,66,6,28,7,28,Female,,,,,,1.0,choice,13.0,B,C,red,black,moons,stars,C,B,B,black,stars,1089.8999999762,0.0,1.0,0,right,429.1999999285,10.0,1.0,1.0,,,
220,0,,html-keyboard-response,220,364527,0.0-7.14-0.14,uwllue8p0m,2022-09-19 15:58:48.416,610329975d39376c37360d3c,0,66,6,28,7,28,Female,1292.1000000238,,"
  <table>
  <tr height=300>
    <td width=300 height=300><img src=""static/images/cards/stack_of_red_stars.svg"" width=""175px"" height=""250px""></img></td>
    <td width=300 height=300><img src=""static/images/cards/stack_of_red_moons.svg"" width=""175px"" height=""250px""></img></td>
  </tr>
  <tr height=200>
    <td width=300><img src=""static/images/keys/w.svg"" width=""35%"" height=""75%""></img></td>
    <td width=300><img src=""static/images/keys/o.svg"" width=""35%"" height=""75%""></img></td>
  </tr>
</table>
  ",87.0,1.0,,,,,,,,,,,,,,,,,,,,,,,,,,
221,0,,html-keyboard-response,221,366192,0.0-7.14-1.14,uwllue8p0m,2022-09-19 15:58:48.416,610329975d39376c37360d3c,0,66,6,28,7,28,Female,1160.3999999762,,"
  <table>
  <tr height=300>
    <td width=300 height=300><img src=""static/images/cards/back_of_red_stars.svg"" width=""175px"" height=""250px""></img></td>
    <td width=300 height=300><img src=""static/images/cards/back_of_red_stars.svg"" width=""175px"" height=""250px""></img></td>
  </tr>
  <tr height=200>
    <td width=300><img src=""static/images/keys/z.svg"" width=""35%"" height=""75%""></img></td>
    <td width=300><img src=""static/images/keys/m.svg"" width=""35%"" height=""75%""></img></td>
  </tr>
</table>
  ",90.0,1.0,,,,,,,,,,,,,,,,,,,,,,,,,,
222,0,,html-keyboard-response,222,367697,0.0-7.14-2.14,uwllue8p0m,2022-09-19 15:58:48.416,610329975d39376c37360d3c,0,66,6,28,7,28,Female,,,"
  <table>
  <tr height=300>
    <td width=300 height=300><img src=""static/images/cards/2_of_red_stars.svg"" width=""175px"" height=""250px""></img></td>
    <td width=300 height=300><img src=""static/images/cards/back_of_red_stars.svg"" width=""175px"" height=""250px""></img></td>
  </tr>
  <tr height=200>
    <td width=300><img src=""static/images/keys/z.svg"" width=""35%"" height=""75%""></img></td>
    <td width=300><img src=""static/images/keys/m.svg"" width=""35%"" height=""75%""></img></td>
  </tr>
</table>
  ",,,,,,,,,,,,,,,,,,,,,,,,,,,,
223,0,,html-keyboard-response,223,369201,0.0-7.14-3.14,uwllue8p0m,2022-09-19 15:58:48.416,610329975d39376c37360d3c,0,66,6,28,7,28,Female,,,"<p style=""font-size:50px"">You Lose!
No points this round.</p>",,,,,,,,,,,,,,,,,,,,,,,,,,,,
224,0,,html-keyboard-response,224,369712,0.0-7.14-4.14,uwllue8p0m,2022-09-19 15:58:48.416,610329975d39376c37360d3c,0,66,6,28,7,28,Female,,,,,,1.0,choice,14.0,A,C,red,red,stars,moons,A,C,A,red,stars,1292.1000000238,1.0,1.0,NA,left,1160.3999999762,2.0,0.0,0.0,,,
225,0,,html-keyboard-response,225,371843,0.0-7.15-0.15,uwllue8p0m,2022-09-19 15:58:48.416,610329975d39376c37360d3c,0,66,6,28,7,28,Female,2129.7999999523,,"
  <table>
  <tr height=300>
    <td width=300 height=300><img src=""static/images/cards/stack_of_black_bolts.svg"" width=""175px"" height=""250px""></img></td>
    <td width=300 height=300><img src=""static/images/cards/stack_of_red_stars.svg"" width=""175px"" height=""250px""></img></td>
  </tr>
  <tr height=200>
    <td width=300><img src=""static/images/keys/w.svg"" width=""35%"" height=""75%""></img></td>
    <td width=300><img src=""static/images/keys/o.svg"" width=""35%"" height=""75%""></img></td>
  </tr>
</table>
  ",87.0,1.0,,,,,,,,,,,,,,,,,,,,,,,,,,
226,0,,html-keyboard-response,226,373156,0.0-7.15-1.15,uwllue8p0m,2022-09-19 15:58:48.416,610329975d39376c37360d3c,0,66,6,28,7,28,Female,806.8999999762,,"
  <table>
  <tr height=300>
    <td width=300 height=300><img src=""static/images/cards/back_of_black_bolts.svg"" width=""175px"" height=""250px""></img></td>
    <td width=300 height=300><img src=""static/images/cards/back_of_black_bolts.svg"" width=""175px"" height=""250px""></img></td>
  </tr>
  <tr height=200>
    <td width=300></td>
    <td width=300><img src=""static/images/keys/m.svg"" width=""35%"" height=""75%""></img></td>
  </tr>
</table>
  ",77.0,1.0,,,,,,,,,,,,,,,,,,,,,,,,,,
227,0,,html-keyboard-response,227,374662,0.0-7.15-2.15,uwllue8p0m,2022-09-19 15:58:48.416,610329975d39376c37360d3c,0,66,6,28,7,28,Female,,,"
  <table>
  <tr height=300>
    <td width=300 height=300><img src=""static/images/cards/back_of_black_bolts.svg"" width=""175px"" height=""250px""></img></td>
    <td width=300 height=300><img src=""static/images/cards/4_of_black_bolts.svg"" width=""175px"" height=""250px""></img></td>
  </tr>
  <tr height=200>
    <td width=300></td>
    <td width=300><img src=""static/images/keys/m.svg"" width=""35%"" height=""75%""></img></td>
  </tr>
</table>
  ",,,,,,,,,,,,,,,,,,,,,,,,,,,,
228,0,,html-keyboard-response,228,376170,0.0-7.15-3.15,uwllue8p0m,2022-09-19 15:58:48.416,610329975d39376c37360d3c,0,66,6,28,7,28,Female,,,"<p style=""font-size:50px"">You win!
+10 points this round!</p>",,,,,,,,,,,,,,,,,,,,,,,,,,,,
229,0,,html-keyboard-response,229,376678,0.0-7.15-4.15,uwllue8p0m,2022-09-19 15:58:48.416,610329975d39376c37360d3c,0,66,6,28,7,28,Female,,,,,,1.0,choice,15.0,A,Xnc,black,red,bolts,stars,Xnc,A,Xnc,black,bolts,2129.7999999523,0.0,0.0,0,right,806.8999999762,4.0,0.0,1.0,,,
230,0,,html-keyboard-response,230,378741,0.0-7.16-0.16,uwllue8p0m,2022-09-19 15:58:48.416,610329975d39376c37360d3c,0,66,6,28,7,28,Female,2060.8000000715,,"
  <table>
  <tr height=300>
    <td width=300 height=300><img src=""static/images/cards/stack_of_red_stars.svg"" width=""175px"" height=""250px""></img></td>
    <td width=300 height=300><img src=""static/images/cards/stack_of_black_moons.svg"" width=""175px"" height=""250px""></img></td>
  </tr>
  <tr height=200>
    <td width=300><img src=""static/images/keys/w.svg"" width=""35%"" height=""75%""></img></td>
    <td width=300><img src=""static/images/keys/o.svg"" width=""35%"" height=""75%""></img></td>
  </tr>
</table>
  ",87.0,1.0,,,,,,,,,,,,,,,,,,,,,,,,,,
231,0,,html-keyboard-response,231,380378,0.0-7.16-1.16,uwllue8p0m,2022-09-19 15:58:48.416,610329975d39376c37360d3c,0,66,6,28,7,28,Female,1131.7999999523,,"
  <table>
  <tr height=300>
    <td width=300 height=300><img src=""static/images/cards/back_of_red_stars.svg"" width=""175px"" height=""250px""></img></td>
    <td width=300 height=300><img src=""static/images/cards/back_of_red_stars.svg"" width=""175px"" height=""250px""></img></td>
  </tr>
  <tr height=200>
    <td width=300><img src=""static/images/keys/z.svg"" width=""35%"" height=""75%""></img></td>
    <td width=300><img src=""static/images/keys/m.svg"" width=""35%"" height=""75%""></img></td>
  </tr>
</table>
  ",90.0,1.0,,,,,,,,,,,,,,,,,,,,,,,,,,
232,0,,html-keyboard-response,232,381883,0.0-7.16-2.16,uwllue8p0m,2022-09-19 15:58:48.416,610329975d39376c37360d3c,0,66,6,28,7,28,Female,,,"
  <table>
  <tr height=300>
    <td width=300 height=300><img src=""static/images/cards/6_of_red_stars.svg"" width=""175px"" height=""250px""></img></td>
    <td width=300 height=300><img src=""static/images/cards/back_of_red_stars.svg"" width=""175px"" height=""250px""></img></td>
  </tr>
  <tr height=200>
    <td width=300><img src=""static/images/keys/z.svg"" width=""35%"" height=""75%""></img></td>
    <td width=300><img src=""static/images/keys/m.svg"" width=""35%"" height=""75%""></img></td>
  </tr>
</table>
  ",,,,,,,,,,,,,,,,,,,,,,,,,,,,
233,0,,html-keyboard-response,233,383391,0.0-7.16-3.16,uwllue8p0m,2022-09-19 15:58:48.416,610329975d39376c37360d3c,0,66,6,28,7,28,Female,,,"<p style=""font-size:50px"">You win!
+10 points this round!</p>",,,,,,,,,,,,,,,,,,,,,,,,,,,,
