,index,success,trial_type,trial_index,time_elapsed,internal_node_id,subject,date,prol_id,ctbl,sense_of_control_A,sense_of_control_B,sense_of_control_C,sense_of_control_D,age,gender,rt,url,stimulus,key_press,is_data_trial,phase,trial,deck1,deck2,col1,col2,sym1,sym2,deck_l,deck_r,chosen_deck,chosen_col,chosen_sym,deck_rt,choose_choice,mutual_info,hidden_key,chosen_card,card_rt,player_num,win_card,outcome,mock_rating,npress,response,responses
0,0,1.0,fullscreen,0,4194,0.0-0.0,dzd8zrg2sfi,2022-09-19 15:31:42.512,6229dbeebf010053193d5f4f,1,0,0,0,0,60,Female,,,,,,,,,,,,,,,,,,,,,,,,,,,,,,,
1,0,,external-html,1,28857,0.0-1.0,dzd8zrg2sfi,2022-09-19 15:31:42.512,6229dbeebf010053193d5f4f,1,0,0,0,0,60,Female,24541.3000000119,static/js/sub/consent.html,,,,,,,,,,,,,,,,,,,,,,,,,,,,,
2,0,,call-function,2,28857,0.0-2.0,dzd8zrg2sfi,2022-09-19 15:31:42.512,6229dbeebf010053193d5f4f,1,0,0,0,0,60,Female,,,,,,,,,,,,,,,,,,,,,,,,,,,,,,,
3,0,,image-keyboard-response,3,48463,0.0-3.0-0.0,dzd8zrg2sfi,2022-09-19 15:31:42.512,6229dbeebf010053193d5f4f,1,0,0,0,0,60,Female,19602.6999999881,,static/images/instructions_CB_1/Slide1.png,39.0,,,,,,,,,,,,,,,,,,,,,,,,,,,
4,0,,image-keyboard-response,4,52398,0.0-3.1-0.1,dzd8zrg2sfi,2022-09-19 15:31:42.512,6229dbeebf010053193d5f4f,1,0,0,0,0,60,Female,3932.0999999642,,static/images/instructions_CB_1/Slide2.png,37.0,,,,,,,,,,,,,,,,,,,,,,,,,,,
5,0,,image-keyboard-response,5,53981,0.0-3.2-0.2,dzd8zrg2sfi,2022-09-19 15:31:42.512,6229dbeebf010053193d5f4f,1,0,0,0,0,60,Female,1580.2999999523,,static/images/instructions_CB_1/Slide1.png,39.0,,,,,,,,,,,,,,,,,,,,,,,,,,,
6,0,,image-keyboard-response,6,66655,0.0-3.3-0.3,dzd8zrg2sfi,2022-09-19 15:31:42.512,6229dbeebf010053193d5f4f,1,0,0,0,0,60,Female,12670.5999999642,,static/images/instructions_CB_1/Slide2.png,39.0,,,,,,,,,,,,,,,,,,,,,,,,,,,
7,0,,image-keyboard-response,7,73838,0.0-3.4-0.4,dzd8zrg2sfi,2022-09-19 15:31:42.512,6229dbeebf010053193d5f4f,1,0,0,0,0,60,Female,7180.8999999762,,static/images/instructions_CB_1/Slide3.png,39.0,,,,,,,,,,,,,,,,,,,,,,,,,,,
8,0,,image-keyboard-response,8,82503,0.0-3.5-0.5,dzd8zrg2sfi,2022-09-19 15:31:42.512,6229dbeebf010053193d5f4f,1,0,0,0,0,60,Female,8663.1999999881,,static/images/instructions_CB_1/Slide4.png,39.0,,,,,,,,,,,,,,,,,,,,,,,,,,,
9,0,,image-keyboard-response,9,92038,0.0-3.6-0.6,dzd8zrg2sfi,2022-09-19 15:31:42.512,6229dbeebf010053193d5f4f,1,0,0,0,0,60,Female,9532.5999999642,,static/images/instructions_CB_1/Slide5.png,39.0,,,,,,,,,,,,,,,,,,,,,,,,,,,
10,0,,image-keyboard-response,10,96399,0.0-3.7-0.7,dzd8zrg2sfi,2022-09-19 15:31:42.512,6229dbeebf010053193d5f4f,1,0,0,0,0,60,Female,4359.0,,static/images/instructions_CB_1/Slide6.png,39.0,,,,,,,,,,,,,,,,,,,,,,,,,,,
11,0,,image-keyboard-response,11,102118,0.0-3.8-0.8,dzd8zrg2sfi,2022-09-19 15:31:42.512,6229dbeebf010053193d5f4f,1,0,0,0,0,60,Female,5716.9000000358,,static/images/instructions_CB_1/Slide7.png,39.0,,,,,,,,,,,,,,,,,,,,,,,,,,,
12,0,,image-keyboard-response,12,117543,0.0-3.9-0.9,dzd8zrg2sfi,2022-09-19 15:31:42.512,6229dbeebf010053193d5f4f,1,0,0,0,0,60,Female,15423.1000000238,,static/images/instructions_CB_1/Slide8.png,39.0,,,,,,,,,,,,,,,,,,,,,,,,,,,
13,0,,image-keyboard-response,13,130526,0.0-3.10-0.10,dzd8zrg2sfi,2022-09-19 15:31:42.512,6229dbeebf010053193d5f4f,1,0,0,0,0,60,Female,12981.6999999881,,static/images/instructions_CB_1/Slide9.png,39.0,,,,,,,,,,,,,,,,,,,,,,,,,,,
14,0,,image-keyboard-response,14,147822,0.0-3.11-0.11,dzd8zrg2sfi,2022-09-19 15:31:42.512,6229dbeebf010053193d5f4f,1,0,0,0,0,60,Female,17294.1000000238,,static/images/instructions_CB_1/Slide10.png,39.0,,,,,,,,,,,,,,,,,,,,,,,,,,,
15,0,,image-keyboard-response,15,157581,0.0-3.12-0.12,dzd8zrg2sfi,2022-09-19 15:31:42.512,6229dbeebf010053193d5f4f,1,0,0,0,0,60,Female,9757.3000000119,,static/images/instructions_CB_1/Slide11.png,39.0,,,,,,,,,,,,,,,,,,,,,,,,,,,
16,0,,image-keyboard-response,16,172942,0.0-3.13-0.13,dzd8zrg2sfi,2022-09-19 15:31:42.512,6229dbeebf010053193d5f4f,1,0,0,0,0,60,Female,15359.3999999762,,static/images/instructions_CB_1/Slide12.png,39.0,,,,,,,,,,,,,,,,,,,,,,,,,,,
17,0,,image-keyboard-response,17,196502,0.0-3.14-0.14,dzd8zrg2sfi,2022-09-19 15:31:42.512,6229dbeebf010053193d5f4f,1,0,0,0,0,60,Female,23558.0999999642,,static/images/instructions_CB_1/Slide13.png,39.0,,,,,,,,,,,,,,,,,,,,,,,,,,,
18,0,,image-keyboard-response,18,202197,0.0-3.15-0.15,dzd8zrg2sfi,2022-09-19 15:31:42.512,6229dbeebf010053193d5f4f,1,0,0,0,0,60,Female,5693.0,,static/images/instructions_CB_1/Slide14.png,39.0,,,,,,,,,,,,,,,,,,,,,,,,,,,
19,0,,image-keyboard-response,19,211879,0.0-3.16-0.16,dzd8zrg2sfi,2022-09-19 15:31:42.512,6229dbeebf010053193d5f4f,1,0,0,0,0,60,Female,9679.1000000238,,static/images/instructions_CB_1/Slide15.png,39.0,,,,,,,,,,,,,,,,,,,,,,,,,,,
20,0,,image-keyboard-response,20,225238,0.0-3.17-0.17,dzd8zrg2sfi,2022-09-19 15:31:42.512,6229dbeebf010053193d5f4f,1,0,0,0,0,60,Female,13358.0,,static/images/instructions_CB_1/Slide16.png,39.0,,,,,,,,,,,,,,,,,,,,,,,,,,,
21,0,,image-keyboard-response,21,239638,0.0-3.18-0.18,dzd8zrg2sfi,2022-09-19 15:31:42.512,6229dbeebf010053193d5f4f,1,0,0,0,0,60,Female,14398.3000000119,,static/images/instructions_CB_1/Slide17.png,39.0,,,,,,,,,,,,,,,,,,,,,,,,,,,
22,0,,image-keyboard-response,22,263326,0.0-3.19-0.19,dzd8zrg2sfi,2022-09-19 15:31:42.512,6229dbeebf010053193d5f4f,1,0,0,0,0,60,Female,23686.3000000119,,static/images/instructions_CB_1/Slide18.png,39.0,,,,,,,,,,,,,,,,,,,,,,,,,,,
23,0,,image-keyboard-response,23,280398,0.0-3.20-0.20,dzd8zrg2sfi,2022-09-19 15:31:42.512,6229dbeebf010053193d5f4f,1,0,0,0,0,60,Female,17070.3000000119,,static/images/instructions_CB_1/Slide19.png,39.0,,,,,,,,,,,,,,,,,,,,,,,,,,,
24,0,,html-keyboard-response,24,281912,0.0-4.0-0.0,dzd8zrg2sfi,2022-09-19 15:31:42.512,6229dbeebf010053193d5f4f,1,0,0,0,0,60,Female,,,"<img src=""static/images/cards/stack_of_red_moons.svg"" width=""175px"" height=""250px""></img>",,,,,,,,,,,,,,,,,,,,,,,,,,,,
25,0,,html-keyboard-response,25,285441,0.0-4.0-1.0,dzd8zrg2sfi,2022-09-19 15:31:42.512,6229dbeebf010053193d5f4f,1,0,0,0,0,60,Female,,,"
  <table>
  <tr height=300>
    <td width=300 height=300><img src=""static/images/cards/back_of_red_moons.svg"" width=""175px"" height=""250px""></img></td>
    <td width=300 height=300><img src=""static/images/cards/back_of_red_moons.svg"" width=""175px"" height=""250px""></img></td>
  </tr>
  <tr height=200>
    <td width=300><img src=""static/images/keys/z.svg"" width=""35%"" height=""75%""></img></td>
    <td width=300><img src=""static/images/keys/m.svg"" width=""35%"" height=""75%""></img></td>
  </tr>
</table>
  ",,,,,,,,,,,,,,,,,,,,,,,,,,,,
26,0,,html-keyboard-response,26,285445,0.0-4.0-2.0,dzd8zrg2sfi,2022-09-19 15:31:42.512,6229dbeebf010053193d5f4f,1,0,0,0,0,60,Female,,,,,,,,,,,,,,,,,,,,,,,,,,,,,,,
27,0,,html-keyboard-response,27,286964,0.0-4.0-3.0,dzd8zrg2sfi,2022-09-19 15:31:42.512,6229dbeebf010053193d5f4f,1,0,0,0,0,60,Female,,,"<p style=""font-size:50px"">Too slow!</p>",,,,,,,,,,,,,,,,,,,,,,,,,,,,
28,0,,html-keyboard-response,28,287472,0.0-4.0-4.0,dzd8zrg2sfi,2022-09-19 15:31:42.512,6229dbeebf010053193d5f4f,1,0,0,0,0,60,Female,,,,,1.0,learning,0.0,A,,red,,moons,,,,A,red,moons,,1.0,1.0,NA,,,,,,,,,
29,0,,html-keyboard-response,29,288980,0.0-4.1-0.1,dzd8zrg2sfi,2022-09-19 15:31:42.512,6229dbeebf010053193d5f4f,1,0,0,0,0,60,Female,,,"<img src=""static/images/cards/stack_of_black_moons.svg"" width=""175px"" height=""250px""></img>",,,,,,,,,,,,,,,,,,,,,,,,,,,,
30,0,,html-keyboard-response,30,291079,0.0-4.1-1.1,dzd8zrg2sfi,2022-09-19 15:31:42.512,6229dbeebf010053193d5f4f,1,0,0,0,0,60,Female,1593.6000000238,,"
  <table>
  <tr height=300>
    <td width=300 height=300><img src=""static/images/cards/back_of_black_moons.svg"" width=""175px"" height=""250px""></img></td>
    <td width=300 height=300><img src=""static/images/cards/back_of_black_moons.svg"" width=""175px"" height=""250px""></img></td>
  </tr>
  <tr height=200>
    <td width=300></td>
    <td width=300><img src=""static/images/keys/m.svg"" width=""35%"" height=""75%""></img></td>
  </tr>
</table>
  ",77.0,,,,,,,,,,,,,,,,,,,,,,,,,1.0,,
31,0,,html-keyboard-response,31,292583,0.0-4.1-2.1,dzd8zrg2sfi,2022-09-19 15:31:42.512,6229dbeebf010053193d5f4f,1,0,0,0,0,60,Female,,,"
  <table>
  <tr height=300>
    <td width=300 height=300><img src=""static/images/cards/back_of_black_moons.svg"" width=""175px"" height=""250px""></img></td>
    <td width=300 height=300><img src=""static/images/cards/10_of_black_moons.svg"" width=""175px"" height=""250px""></img></td>
  </tr>
  <tr height=200>
    <td width=300></td>
    <td width=300><img src=""static/images/keys/m.svg"" width=""35%"" height=""75%""></img></td>
  </tr>
</table>
  ",,,,,,,,,,,,,,,,,,,,,,,,,,,,
32,0,,html-keyboard-response,32,294113,0.0-4.1-3.1,dzd8zrg2sfi,2022-09-19 15:31:42.512,6229dbeebf010053193d5f4f,1,0,0,0,0,60,Female,,,"<p style=""font-size:50px"">You win!
+10 points this round!</p>",,,,,,,,,,,,,,,,,,,,,,,,,,,,
33,0,,html-keyboard-response,33,294620,0.0-4.1-4.1,dzd8zrg2sfi,2022-09-19 15:31:42.512,6229dbeebf010053193d5f4f,1,0,0,0,0,60,Female,,,,,1.0,learning,1.0,B,,black,,moons,,,,B,black,moons,,0.0,1.0,0,right,1593.6000000238,10.0,1.0,1.0,,,,
34,0,,html-keyboard-response,34,296125,0.0-4.2-0.2,dzd8zrg2sfi,2022-09-19 15:31:42.512,6229dbeebf010053193d5f4f,1,0,0,0,0,60,Female,,,"<img src=""static/images/cards/stack_of_red_stars.svg"" width=""175px"" height=""250px""></img>",,,,,,,,,,,,,,,,,,,,,,,,,,,,
35,0,,html-keyboard-response,35,297556,0.0-4.2-1.2,dzd8zrg2sfi,2022-09-19 15:31:42.512,6229dbeebf010053193d5f4f,1,0,0,0,0,60,Female,925.1000000238,,"
  <table>
  <tr height=300>
    <td width=300 height=300><img src=""static/images/cards/back_of_red_stars.svg"" width=""175px"" height=""250px""></img></td>
    <td width=300 height=300><img src=""static/images/cards/back_of_red_stars.svg"" width=""175px"" height=""250px""></img></td>
  </tr>
  <tr height=200>
    <td width=300><img src=""static/images/keys/z.svg"" width=""35%"" height=""75%""></img></td>
    <td width=300><img src=""static/images/keys/m.svg"" width=""35%"" height=""75%""></img></td>
  </tr>
</table>
  ",90.0,,,,,,,,,,,,,,,,,,,,,,,,,1.0,,
36,0,,html-keyboard-response,36,299071,0.0-4.2-2.2,dzd8zrg2sfi,2022-09-19 15:31:42.512,6229dbeebf010053193d5f4f,1,0,0,0,0,60,Female,,,"
  <table>
  <tr height=300>
    <td width=300 height=300><img src=""static/images/cards/8_of_red_stars.svg"" width=""175px"" height=""250px""></img></td>
    <td width=300 height=300><img src=""static/images/cards/back_of_red_stars.svg"" width=""175px"" height=""250px""></img></td>
  </tr>
  <tr height=200>
    <td width=300><img src=""static/images/keys/z.svg"" width=""35%"" height=""75%""></img></td>
    <td width=300><img src=""static/images/keys/m.svg"" width=""35%"" height=""75%""></img></td>
  </tr>
</table>
  ",,,,,,,,,,,,,,,,,,,,,,,,,,,,
37,0,,html-keyboard-response,37,300590,0.0-4.2-3.2,dzd8zrg2sfi,2022-09-19 15:31:42.512,6229dbeebf010053193d5f4f,1,0,0,0,0,60,Female,,,"<p style=""font-size:50px"">You win!
+10 points this round!</p>",,,,,,,,,,,,,,,,,,,,,,,,,,,,
38,0,,html-keyboard-response,38,301107,0.0-4.2-4.2,dzd8zrg2sfi,2022-09-19 15:31:42.512,6229dbeebf010053193d5f4f,1,0,0,0,0,60,Female,,,,,1.0,learning,2.0,C,,red,,stars,,,,C,red,stars,,1.0,0.0,NA,left,925.1000000238,8.0,1.0,1.0,,,,
39,0,,html-keyboard-response,39,302614,0.0-4.3-0.3,dzd8zrg2sfi,2022-09-19 15:31:42.512,6229dbeebf010053193d5f4f,1,0,0,0,0,60,Female,,,"<img src=""static/images/cards/stack_of_black_stars.svg"" width=""175px"" height=""250px""></img>",,,,,,,,,,,,,,,,,,,,,,,,,,,,
40,0,,html-keyboard-response,40,303695,0.0-4.3-1.3,dzd8zrg2sfi,2022-09-19 15:31:42.512,6229dbeebf010053193d5f4f,1,0,0,0,0,60,Female,574.9000000358,,"
  <table>
  <tr height=300>
    <td width=300 height=300><img src=""static/images/cards/back_of_black_stars.svg"" width=""175px"" height=""250px""></img></td>
    <td width=300 height=300><img src=""static/images/cards/back_of_black_stars.svg"" width=""175px"" height=""250px""></img></td>
  </tr>
  <tr height=200>
    <td width=300><img src=""static/images/keys/z.svg"" width=""35%"" height=""75%""></img></td>
    <td width=300></td>
  </tr>
</table>
  ",90.0,,,,,,,,,,,,,,,,,,,,,,,,,1.0,,
41,0,,html-keyboard-response,41,305210,0.0-4.3-2.3,dzd8zrg2sfi,2022-09-19 15:31:42.512,6229dbeebf010053193d5f4f,1,0,0,0,0,60,Female,,,"
  <table>
  <tr height=300>
    <td width=300 height=300><img src=""static/images/cards/6_of_black_stars.svg"" width=""175px"" height=""250px""></img></td>
    <td width=300 height=300><img src=""static/images/cards/back_of_black_stars.svg"" width=""175px"" height=""250px""></img></td>
  </tr>
  <tr height=200>
    <td width=300><img src=""static/images/keys/z.svg"" width=""35%"" height=""75%""></img></td>
    <td width=300></td>
  </tr>
</table>
  ",,,,,,,,,,,,,,,,,,,,,,,,,,,,
42,0,,html-keyboard-response,42,306724,0.0-4.3-3.3,dzd8zrg2sfi,2022-09-19 15:31:42.512,6229dbeebf010053193d5f4f,1,0,0,0,0,60,Female,,,"<p style=""font-size:50px"">You Lose!
No points this round.</p>",,,,,,,,,,,,,,,,,,,,,,,,,,,,
43,0,,html-keyboard-response,43,307235,0.0-4.3-4.3,dzd8zrg2sfi,2022-09-19 15:31:42.512,6229dbeebf010053193d5f4f,1,0,0,0,0,60,Female,,,,,1.0,learning,3.0,D,,black,,stars,,,,D,black,stars,,0.0,0.0,1,left,574.9000000358,6.0,1.0,0.0,,,,
44,0,,html-keyboard-response,44,308743,0.0-4.4-0.4,dzd8zrg2sfi,2022-09-19 15:31:42.512,6229dbeebf010053193d5f4f,1,0,0,0,0,60,Female,,,"<img src=""static/images/cards/stack_of_red_bolts.svg"" width=""175px"" height=""250px""></img>",,,,,,,,,,,,,,,,,,,,,,,,,,,,
45,0,,html-keyboard-response,45,310486,0.0-4.4-1.4,dzd8zrg2sfi,2022-09-19 15:31:42.512,6229dbeebf010053193d5f4f,1,0,0,0,0,60,Female,1225.0999999642,,"
  <table>
  <tr height=300>
    <td width=300 height=300><img src=""static/images/cards/back_of_red_bolts.svg"" width=""175px"" height=""250px""></img></td>
    <td width=300 height=300><img src=""static/images/cards/back_of_red_bolts.svg"" width=""175px"" height=""250px""></img></td>
  </tr>
  <tr height=200>
    <td width=300><img src=""static/images/keys/z.svg"" width=""35%"" height=""75%""></img></td>
    <td width=300><img src=""static/images/keys/m.svg"" width=""35%"" height=""75%""></img></td>
  </tr>
</table>
  ",77.0,,,,,,,,,,,,,,,,,,,,,,,,,1.0,,
46,0,,html-keyboard-response,46,312000,0.0-4.4-2.4,dzd8zrg2sfi,2022-09-19 15:31:42.512,6229dbeebf010053193d5f4f,1,0,0,0,0,60,Female,,,"
  <table>
  <tr height=300>
    <td width=300 height=300><img src=""static/images/cards/back_of_red_bolts.svg"" width=""175px"" height=""250px""></img></td>
    <td width=300 height=300><img src=""static/images/cards/8_of_red_bolts.svg"" width=""175px"" height=""250px""></img></td>
  </tr>
  <tr height=200>
    <td width=300><img src=""static/images/keys/z.svg"" width=""35%"" height=""75%""></img></td>
    <td width=300><img src=""static/images/keys/m.svg"" width=""35%"" height=""75%""></img></td>
  </tr>
</table>
  ",,,,,,,,,,,,,,,,,,,,,,,,,,,,
47,0,,html-keyboard-response,47,313520,0.0-4.4-3.4,dzd8zrg2sfi,2022-09-19 15:31:42.512,6229dbeebf010053193d5f4f,1,0,0,0,0,60,Female,,,"<p style=""font-size:50px"">You win!
+10 points this round!</p>",,,,,,,,,,,,,,,,,,,,,,,,,,,,
48,0,,html-keyboard-response,48,314028,0.0-4.4-4.4,dzd8zrg2sfi,2022-09-19 15:31:42.512,6229dbeebf010053193d5f4f,1,0,0,0,0,60,Female,,,,,1.0,learning,4.0,Xc,,red,,bolts,,,,Xc,red,bolts,,1.0,0.0,NA,right,1225.0999999642,8.0,1.0,1.0,,,,
49,0,,html-keyboard-response,49,315531,0.0-4.5-0.5,dzd8zrg2sfi,2022-09-19 15:31:42.512,6229dbeebf010053193d5f4f,1,0,0,0,0,60,Female,,,"<img src=""static/images/cards/stack_of_black_bolts.svg"" width=""175px"" height=""250px""></img>",,,,,,,,,,,,,,,,,,,,,,,,,,,,
50,0,,html-keyboard-response,50,316767,0.0-4.5-1.5,dzd8zrg2sfi,2022-09-19 15:31:42.512,6229dbeebf010053193d5f4f,1,0,0,0,0,60,Female,718.6999999881,,"
  <table>
  <tr height=300>
    <td width=300 height=300><img src=""static/images/cards/back_of_black_bolts.svg"" width=""175px"" height=""250px""></img></td>
    <td width=300 height=300><img src=""static/images/cards/back_of_black_bolts.svg"" width=""175px"" height=""250px""></img></td>
  </tr>
  <tr height=200>
    <td width=300><img src=""static/images/keys/z.svg"" width=""35%"" height=""75%""></img></td>
    <td width=300></td>
  </tr>
</table>
  ",90.0,,,,,,,,,,,,,,,,,,,,,,,,,1.0,,
51,0,,html-keyboard-response,51,318282,0.0-4.5-2.5,dzd8zrg2sfi,2022-09-19 15:31:42.512,6229dbeebf010053193d5f4f,1,0,0,0,0,60,Female,,,"
  <table>
  <tr height=300>
    <td width=300 height=300><img src=""static/images/cards/6_of_black_bolts.svg"" width=""175px"" height=""250px""></img></td>
    <td width=300 height=300><img src=""static/images/cards/back_of_black_bolts.svg"" width=""175px"" height=""250px""></img></td>
  </tr>
  <tr height=200>
    <td width=300><img src=""static/images/keys/z.svg"" width=""35%"" height=""75%""></img></td>
    <td width=300></td>
  </tr>
</table>
  ",,,,,,,,,,,,,,,,,,,,,,,,,,,,
52,0,,html-keyboard-response,52,319792,0.0-4.5-3.5,dzd8zrg2sfi,2022-09-19 15:31:42.512,6229dbeebf010053193d5f4f,1,0,0,0,0,60,Female,,,"<p style=""font-size:50px"">You win!
+10 points this round!</p>",,,,,,,,,,,,,,,,,,,,,,,,,,,,
53,0,,html-keyboard-response,53,320313,0.0-4.5-4.5,dzd8zrg2sfi,2022-09-19 15:31:42.512,6229dbeebf010053193d5f4f,1,0,0,0,0,60,Female,,,,,1.0,learning,5.0,Xnc,,black,,bolts,,,,Xnc,black,bolts,,0.0,0.0,1,left,718.6999999881,6.0,1.0,1.0,,,,
54,0,,html-keyboard-response,54,321819,0.0-4.6-0.6,dzd8zrg2sfi,2022-09-19 15:31:42.512,6229dbeebf010053193d5f4f,1,0,0,0,0,60,Female,,,"<img src=""static/images/cards/stack_of_red_moons.svg"" width=""175px"" height=""250px""></img>",,,,,,,,,,,,,,,,,,,,,,,,,,,,
55,0,,html-keyboard-response,55,323286,0.0-4.6-1.6,dzd8zrg2sfi,2022-09-19 15:31:42.512,6229dbeebf010053193d5f4f,1,0,0,0,0,60,Female,960.6000000238,,"
  <table>
  <tr height=300>
    <td width=300 height=300><img src=""static/images/cards/back_of_red_moons.svg"" width=""175px"" height=""250px""></img></td>
    <td width=300 height=300><img src=""static/images/cards/back_of_red_moons.svg"" width=""175px"" height=""250px""></img></td>
  </tr>
  <tr height=200>
    <td width=300><img src=""static/images/keys/z.svg"" width=""35%"" height=""75%""></img></td>
    <td width=300><img src=""static/images/keys/m.svg"" width=""35%"" height=""75%""></img></td>
  </tr>
</table>
  ",77.0,,,,,,,,,,,,,,,,,,,,,,,,,1.0,,
56,0,,html-keyboard-response,56,324799,0.0-4.6-2.6,dzd8zrg2sfi,2022-09-19 15:31:42.512,6229dbeebf010053193d5f4f,1,0,0,0,0,60,Female,,,"
  <table>
  <tr height=300>
    <td width=300 height=300><img src=""static/images/cards/back_of_red_moons.svg"" width=""175px"" height=""250px""></img></td>
    <td width=300 height=300><img src=""static/images/cards/9_of_red_moons.svg"" width=""175px"" height=""250px""></img></td>
  </tr>
  <tr height=200>
    <td width=300><img src=""static/images/keys/z.svg"" width=""35%"" height=""75%""></img></td>
    <td width=300><img src=""static/images/keys/m.svg"" width=""35%"" height=""75%""></img></td>
  </tr>
</table>
  ",,,,,,,,,,,,,,,,,,,,,,,,,,,,
57,0,,html-keyboard-response,57,326308,0.0-4.6-3.6,dzd8zrg2sfi,2022-09-19 15:31:42.512,6229dbeebf010053193d5f4f,1,0,0,0,0,60,Female,,,"<p style=""font-size:50px"">You win!
+10 points this round!</p>",,,,,,,,,,,,,,,,,,,,,,,,,,,,
58,0,,html-keyboard-response,58,326829,0.0-4.6-4.6,dzd8zrg2sfi,2022-09-19 15:31:42.512,6229dbeebf010053193d5f4f,1,0,0,0,0,60,Female,,,,,1.0,learning,6.0,A,,red,,moons,,,,A,red,moons,,1.0,1.0,NA,right,960.6000000238,9.0,1.0,1.0,,,,
59,0,,html-keyboard-response,59,328344,0.0-4.7-0.7,dzd8zrg2sfi,2022-09-19 15:31:42.512,6229dbeebf010053193d5f4f,1,0,0,0,0,60,Female,,,"<img src=""static/images/cards/stack_of_black_moons.svg"" width=""175px"" height=""250px""></img>",,,,,,,,,,,,,,,,,,,,,,,,,,,,
60,0,,html-keyboard-response,60,329567,0.0-4.7-1.7,dzd8zrg2sfi,2022-09-19 15:31:42.512,6229dbeebf010053193d5f4f,1,0,0,0,0,60,Female,706.1999999881,,"
  <table>
  <tr height=300>
    <td width=300 height=300><img src=""static/images/cards/back_of_black_moons.svg"" width=""175px"" height=""250px""></img></td>
    <td width=300 height=300><img src=""static/images/cards/back_of_black_moons.svg"" width=""175px"" height=""250px""></img></td>
  </tr>
  <tr height=200>
    <td width=300></td>
    <td width=300><img src=""static/images/keys/m.svg"" width=""35%"" height=""75%""></img></td>
  </tr>
</table>
  ",77.0,,,,,,,,,,,,,,,,,,,,,,,,,1.0,,
61,0,,html-keyboard-response,61,331084,0.0-4.7-2.7,dzd8zrg2sfi,2022-09-19 15:31:42.512,6229dbeebf010053193d5f4f,1,0,0,0,0,60,Female,,,"
  <table>
  <tr height=300>
    <td width=300 height=300><img src=""static/images/cards/back_of_black_moons.svg"" width=""175px"" height=""250px""></img></td>
    <td width=300 height=300><img src=""static/images/cards/7_of_black_moons.svg"" width=""175px"" height=""250px""></img></td>
  </tr>
  <tr height=200>
    <td width=300></td>
    <td width=300><img src=""static/images/keys/m.svg"" width=""35%"" height=""75%""></img></td>
  </tr>
</table>
  ",,,,,,,,,,,,,,,,,,,,,,,,,,,,
62,0,,html-keyboard-response,62,332602,0.0-4.7-3.7,dzd8zrg2sfi,2022-09-19 15:31:42.512,6229dbeebf010053193d5f4f,1,0,0,0,0,60,Female,,,"<p style=""font-size:50px"">You win!
+10 points this round!</p>",,,,,,,,,,,,,,,,,,,,,,,,,,,,
63,0,,html-keyboard-response,63,333121,0.0-4.7-4.7,dzd8zrg2sfi,2022-09-19 15:31:42.512,6229dbeebf010053193d5f4f,1,0,0,0,0,60,Female,,,,,1.0,learning,7.0,B,,black,,moons,,,,B,black,moons,,0.0,1.0,0,right,706.1999999881,7.0,1.0,1.0,,,,
64,0,,html-keyboard-response,64,334639,0.0-4.8-0.8,dzd8zrg2sfi,2022-09-19 15:31:42.512,6229dbeebf010053193d5f4f,1,0,0,0,0,60,Female,,,"<img src=""static/images/cards/stack_of_red_stars.svg"" width=""175px"" height=""250px""></img>",,,,,,,,,,,,,,,,,,,,,,,,,,,,
65,0,,html-keyboard-response,65,335702,0.0-4.8-1.8,dzd8zrg2sfi,2022-09-19 15:31:42.512,6229dbeebf010053193d5f4f,1,0,0,0,0,60,Female,549.7999999523,,"
  <table>
  <tr height=300>
    <td width=300 height=300><img src=""static/images/cards/back_of_red_stars.svg"" width=""175px"" height=""250px""></img></td>
    <td width=300 height=300><img src=""static/images/cards/back_of_red_stars.svg"" width=""175px"" height=""250px""></img></td>
  </tr>
  <tr height=200>
    <td width=300><img src=""static/images/keys/z.svg"" width=""35%"" height=""75%""></img></td>
    <td width=300><img src=""static/images/keys/m.svg"" width=""35%"" height=""75%""></img></td>
  </tr>
</table>
  ",90.0,,,,,,,,,,,,,,,,,,,,,,,,,1.0,,
66,0,,html-keyboard-response,66,337216,0.0-4.8-2.8,dzd8zrg2sfi,2022-09-19 15:31:42.512,6229dbeebf010053193d5f4f,1,0,0,0,0,60,Female,,,"
  <table>
  <tr height=300>
    <td width=300 height=300><img src=""static/images/cards/4_of_red_stars.svg"" width=""175px"" height=""250px""></img></td>
    <td width=300 height=300><img src=""static/images/cards/back_of_red_stars.svg"" width=""175px"" height=""250px""></img></td>
  </tr>
  <tr height=200>
    <td width=300><img src=""static/images/keys/z.svg"" width=""35%"" height=""75%""></img></td>
    <td width=300><img src=""static/images/keys/m.svg"" width=""35%"" height=""75%""></img></td>
  </tr>
</table>
  ",,,,,,,,,,,,,,,,,,,,,,,,,,,,
67,0,,html-keyboard-response,67,338731,0.0-4.8-3.8,dzd8zrg2sfi,2022-09-19 15:31:42.512,6229dbeebf010053193d5f4f,1,0,0,0,0,60,Female,,,"<p style=""font-size:50px"">You Lose!
No points this round.</p>",,,,,,,,,,,,,,,,,,,,,,,,,,,,
68,0,,html-keyboard-response,68,339250,0.0-4.8-4.8,dzd8zrg2sfi,2022-09-19 15:31:42.512,6229dbeebf010053193d5f4f,1,0,0,0,0,60,Female,,,,,1.0,learning,8.0,C,,red,,stars,,,,C,red,stars,,1.0,0.0,NA,left,549.7999999523,4.0,0.0,0.0,,,,
69,0,,html-keyboard-response,69,340755,0.0-4.9-0.9,dzd8zrg2sfi,2022-09-19 15:31:42.512,6229dbeebf010053193d5f4f,1,0,0,0,0,60,Female,,,"<img src=""static/images/cards/stack_of_black_stars.svg"" width=""175px"" height=""250px""></img>",,,,,,,,,,,,,,,,,,,,,,,,,,,,
70,0,,html-keyboard-response,70,342335,0.0-4.9-1.9,dzd8zrg2sfi,2022-09-19 15:31:42.512,6229dbeebf010053193d5f4f,1,0,0,0,0,60,Female,1076.0,,"
  <table>
  <tr height=300>
    <td width=300 height=300><img src=""static/images/cards/back_of_black_stars.svg"" width=""175px"" height=""250px""></img></td>
    <td width=300 height=300><img src=""static/images/cards/back_of_black_stars.svg"" width=""175px"" height=""250px""></img></td>
  </tr>
  <tr height=200>
    <td width=300><img src=""static/images/keys/z.svg"" width=""35%"" height=""75%""></img></td>
    <td width=300></td>
  </tr>
</table>
  ",90.0,,,,,,,,,,,,,,,,,,,,,,,,,1.0,,
71,0,,html-keyboard-response,71,343840,0.0-4.9-2.9,dzd8zrg2sfi,2022-09-19 15:31:42.512,6229dbeebf010053193d5f4f,1,0,0,0,0,60,Female,,,"
  <table>
  <tr height=300>
    <td width=300 height=300><img src=""static/images/cards/8_of_black_stars.svg"" width=""175px"" height=""250px""></img></td>
    <td width=300 height=300><img src=""static/images/cards/back_of_black_stars.svg"" width=""175px"" height=""250px""></img></td>
  </tr>
  <tr height=200>
    <td width=300><img src=""static/images/keys/z.svg"" width=""35%"" height=""75%""></img></td>
    <td width=300></td>
  </tr>
</table>
  ",,,,,,,,,,,,,,,,,,,,,,,,,,,,
72,0,,html-keyboard-response,72,345361,0.0-4.9-3.9,dzd8zrg2sfi,2022-09-19 15:31:42.512,6229dbeebf010053193d5f4f,1,0,0,0,0,60,Female,,,"<p style=""font-size:50px"">You Lose!
No points this round.</p>",,,,,,,,,,,,,,,,,,,,,,,,,,,,
73,0,,html-keyboard-response,73,345870,0.0-4.9-4.9,dzd8zrg2sfi,2022-09-19 15:31:42.512,6229dbeebf010053193d5f4f,1,0,0,0,0,60,Female,,,,,1.0,learning,9.0,D,,black,,stars,,,,D,black,stars,,0.0,0.0,1,left,1076.0,8.0,1.0,0.0,,,,
74,0,,html-keyboard-response,74,347373,0.0-4.10-0.10,dzd8zrg2sfi,2022-09-19 15:31:42.512,6229dbeebf010053193d5f4f,1,0,0,0,0,60,Female,,,"<img src=""static/images/cards/stack_of_red_bolts.svg"" width=""175px"" height=""250px""></img>",,,,,,,,,,,,,,,,,,,,,,,,,,,,
75,0,,html-keyboard-response,75,348406,0.0-4.10-1.10,dzd8zrg2sfi,2022-09-19 15:31:42.512,6229dbeebf010053193d5f4f,1,0,0,0,0,60,Female,518.1000000238,,"
  <table>
  <tr height=300>
    <td width=300 height=300><img src=""static/images/cards/back_of_red_bolts.svg"" width=""175px"" height=""250px""></img></td>
    <td width=300 height=300><img src=""static/images/cards/back_of_red_bolts.svg"" width=""175px"" height=""250px""></img></td>
  </tr>
  <tr height=200>
    <td width=300><img src=""static/images/keys/z.svg"" width=""35%"" height=""75%""></img></td>
    <td width=300><img src=""static/images/keys/m.svg"" width=""35%"" height=""75%""></img></td>
  </tr>
</table>
  ",77.0,,,,,,,,,,,,,,,,,,,,,,,,,1.0,,
76,0,,html-keyboard-response,76,349921,0.0-4.10-2.10,dzd8zrg2sfi,2022-09-19 15:31:42.512,6229dbeebf010053193d5f4f,1,0,0,0,0,60,Female,,,"
  <table>
  <tr height=300>
    <td width=300 height=300><img src=""static/images/cards/back_of_red_bolts.svg"" width=""175px"" height=""250px""></img></td>
    <td width=300 height=300><img src=""static/images/cards/3_of_red_bolts.svg"" width=""175px"" height=""250px""></img></td>
  </tr>
  <tr height=200>
    <td width=300><img src=""static/images/keys/z.svg"" width=""35%"" height=""75%""></img></td>
    <td width=300><img src=""static/images/keys/m.svg"" width=""35%"" height=""75%""></img></td>
  </tr>
</table>
  ",,,,,,,,,,,,,,,,,,,,,,,,,,,,
77,0,,html-keyboard-response,77,351439,0.0-4.10-3.10,dzd8zrg2sfi,2022-09-19 15:31:42.512,6229dbeebf010053193d5f4f,1,0,0,0,0,60,Female,,,"<p style=""font-size:50px"">You win!
+10 points this round!</p>",,,,,,,,,,,,,,,,,,,,,,,,,,,,
78,0,,html-keyboard-response,78,351945,0.0-4.10-4.10,dzd8zrg2sfi,2022-09-19 15:31:42.512,6229dbeebf010053193d5f4f,1,0,0,0,0,60,Female,,,,,1.0,learning,10.0,Xc,,red,,bolts,,,,Xc,red,bolts,,1.0,0.0,NA,right,518.1000000238,3.0,0.0,1.0,,,,
79,0,,html-keyboard-response,79,353473,0.0-4.11-0.11,dzd8zrg2sfi,2022-09-19 15:31:42.512,6229dbeebf010053193d5f4f,1,0,0,0,0,60,Female,,,"<img src=""static/images/cards/stack_of_black_bolts.svg"" width=""175px"" height=""250px""></img>",,,,,,,,,,,,,,,,,,,,,,,,,,,,
80,0,,html-keyboard-response,80,354791,0.0-4.11-1.11,dzd8zrg2sfi,2022-09-19 15:31:42.512,6229dbeebf010053193d5f4f,1,0,0,0,0,60,Female,814.1999999881,,"
  <table>
  <tr height=300>
    <td width=300 height=300><img src=""static/images/cards/back_of_black_bolts.svg"" width=""175px"" height=""250px""></img></td>
    <td width=300 height=300><img src=""static/images/cards/back_of_black_bolts.svg"" width=""175px"" height=""250px""></img></td>
  </tr>
  <tr height=200>
    <td width=300><img src=""static/images/keys/z.svg"" width=""35%"" height=""75%""></img></td>
    <td width=300></td>
  </tr>
</table>
  ",90.0,,,,,,,,,,,,,,,,,,,,,,,,,1.0,,
81,0,,html-keyboard-response,81,356306,0.0-4.11-2.11,dzd8zrg2sfi,2022-09-19 15:31:42.512,6229dbeebf010053193d5f4f,1,0,0,0,0,60,Female,,,"
  <table>
  <tr height=300>
    <td width=300 height=300><img src=""static/images/cards/3_of_black_bolts.svg"" width=""175px"" height=""250px""></img></td>
    <td width=300 height=300><img src=""static/images/cards/back_of_black_bolts.svg"" width=""175px"" height=""250px""></img></td>
  </tr>
  <tr height=200>
    <td width=300><img src=""static/images/keys/z.svg"" width=""35%"" height=""75%""></img></td>
    <td width=300></td>
  </tr>
</table>
  ",,,,,,,,,,,,,,,,,,,,,,,,,,,,
82,0,,html-keyboard-response,82,357839,0.0-4.11-3.11,dzd8zrg2sfi,2022-09-19 15:31:42.512,6229dbeebf010053193d5f4f,1,0,0,0,0,60,Female,,,"<p style=""font-size:50px"">You win!
+10 points this round!</p>",,,,,,,,,,,,,,,,,,,,,,,,,,,,
83,0,,html-keyboard-response,83,358353,0.0-4.11-4.11,dzd8zrg2sfi,2022-09-19 15:31:42.512,6229dbeebf010053193d5f4f,1,0,0,0,0,60,Female,,,,,1.0,learning,11.0,Xnc,,black,,bolts,,,,Xnc,black,bolts,,0.0,0.0,1,left,814.1999999881,3.0,0.0,1.0,,,,
84,0,,html-keyboard-response,84,359865,0.0-4.12-0.12,dzd8zrg2sfi,2022-09-19 15:31:42.512,6229dbeebf010053193d5f4f,1,0,0,0,0,60,Female,,,"<img src=""static/images/cards/stack_of_red_moons.svg"" width=""175px"" height=""250px""></img>",,,,,,,,,,,,,,,,,,,,,,,,,,,,
85,0,,html-keyboard-response,85,361222,0.0-4.12-1.12,dzd8zrg2sfi,2022-09-19 15:31:42.512,6229dbeebf010053193d5f4f,1,0,0,0,0,60,Female,852.6999999881,,"
  <table>
  <tr height=300>
    <td width=300 height=300><img src=""static/images/cards/back_of_red_moons.svg"" width=""175px"" height=""250px""></img></td>
    <td width=300 height=300><img src=""static/images/cards/back_of_red_moons.svg"" width=""175px"" height=""250px""></img></td>
  </tr>
  <tr height=200>
    <td width=300><img src=""static/images/keys/z.svg"" width=""35%"" height=""75%""></img></td>
    <td width=300><img src=""static/images/keys/m.svg"" width=""35%"" height=""75%""></img></td>
  </tr>
</table>
  ",77.0,,,,,,,,,,,,,,,,,,,,,,,,,1.0,,
86,0,,html-keyboard-response,86,362728,0.0-4.12-2.12,dzd8zrg2sfi,2022-09-19 15:31:42.512,6229dbeebf010053193d5f4f,1,0,0,0,0,60,Female,,,"
  <table>
  <tr height=300>
    <td width=300 height=300><img src=""static/images/cards/back_of_red_moons.svg"" width=""175px"" height=""250px""></img></td>
    <td width=300 height=300><img src=""static/images/cards/1_of_red_moons.svg"" width=""175px"" height=""250px""></img></td>
  </tr>
  <tr height=200>
    <td width=300><img src=""static/images/keys/z.svg"" width=""35%"" height=""75%""></img></td>
    <td width=300><img src=""static/images/keys/m.svg"" width=""35%"" height=""75%""></img></td>
  </tr>
</table>
  ",,,,,,,,,,,,,,,,,,,,,,,,,,,,
87,0,,html-keyboard-response,87,364247,0.0-4.12-3.12,dzd8zrg2sfi,2022-09-19 15:31:42.512,6229dbeebf010053193d5f4f,1,0,0,0,0,60,Female,,,"<p style=""font-size:50px"">You Lose!
No points this round.</p>",,,,,,,,,,,,,,,,,,,,,,,,,,,,
88,0,,html-keyboard-response,88,364768,0.0-4.12-4.12,dzd8zrg2sfi,2022-09-19 15:31:42.512,6229dbeebf010053193d5f4f,1,0,0,0,0,60,Female,,,,,1.0,learning,12.0,A,,red,,moons,,,,A,red,moons,,1.0,1.0,NA,right,852.6999999881,1.0,0.0,0.0,,,,
89,0,,html-keyboard-response,89,366283,0.0-4.13-0.13,dzd8zrg2sfi,2022-09-19 15:31:42.512,6229dbeebf010053193d5f4f,1,0,0,0,0,60,Female,,,"<img src=""static/images/cards/stack_of_black_moons.svg"" width=""175px"" height=""250px""></img>",,,,,,,,,,,,,,,,,,,,,,,,,,,,
90,0,,html-keyboard-response,90,367591,0.0-4.13-1.13,dzd8zrg2sfi,2022-09-19 15:31:42.512,6229dbeebf010053193d5f4f,1,0,0,0,0,60,Female,793.3000000119,,"
  <table>
  <tr height=300>
    <td width=300 height=300><img src=""static/images/cards/back_of_black_moons.svg"" width=""175px"" height=""250px""></img></td>
    <td width=300 height=300><img src=""static/images/cards/back_of_black_moons.svg"" width=""175px"" height=""250px""></img></td>
  </tr>
  <tr height=200>
    <td width=300><img src=""static/images/keys/z.svg"" width=""35%"" height=""75%""></img></td>
    <td width=300></td>
  </tr>
</table>
  ",90.0,,,,,,,,,,,,,,,,,,,,,,,,,1.0,,
91,0,,html-keyboard-response,91,369097,0.0-4.13-2.13,dzd8zrg2sfi,2022-09-19 15:31:42.512,6229dbeebf010053193d5f4f,1,0,0,0,0,60,Female,,,"
  <table>
  <tr height=300>
    <td width=300 height=300><img src=""static/images/cards/1_of_black_moons.svg"" width=""175px"" height=""250px""></img></td>
    <td width=300 height=300><img src=""static/images/cards/back_of_black_moons.svg"" width=""175px"" height=""250px""></img></td>
  </tr>
  <tr height=200>
    <td width=300><img src=""static/images/keys/z.svg"" width=""35%"" height=""75%""></img></td>
    <td width=300></td>
  </tr>
</table>
  ",,,,,,,,,,,,,,,,,,,,,,,,,,,,
92,0,,html-keyboard-response,92,370618,0.0-4.13-3.13,dzd8zrg2sfi,2022-09-19 15:31:42.512,6229dbeebf010053193d5f4f,1,0,0,0,0,60,Female,,,"<p style=""font-size:50px"">You Lose!
No points this round.</p>",,,,,,,,,,,,,,,,,,,,,,,,,,,,
93,0,,html-keyboard-response,93,371126,0.0-4.13-4.13,dzd8zrg2sfi,2022-09-19 15:31:42.512,6229dbeebf010053193d5f4f,1,0,0,0,0,60,Female,,,,,1.0,learning,13.0,B,,black,,moons,,,,B,black,moons,,0.0,1.0,1,left,793.3000000119,1.0,0.0,0.0,,,,
94,0,,html-keyboard-response,94,372629,0.0-4.14-0.14,dzd8zrg2sfi,2022-09-19 15:31:42.512,6229dbeebf010053193d5f4f,1,0,0,0,0,60,Female,,,"<img src=""static/images/cards/stack_of_red_stars.svg"" width=""175px"" height=""250px""></img>",,,,,,,,,,,,,,,,,,,,,,,,,,,,
95,0,,html-keyboard-response,95,373716,0.0-4.14-1.14,dzd8zrg2sfi,2022-09-19 15:31:42.512,6229dbeebf010053193d5f4f,1,0,0,0,0,60,Female,565.3000000119,,"
  <table>
  <tr height=300>
    <td width=300 height=300><img src=""static/images/cards/back_of_red_stars.svg"" width=""175px"" height=""250px""></img></td>
    <td width=300 height=300><img src=""static/images/cards/back_of_red_stars.svg"" width=""175px"" height=""250px""></img></td>
  </tr>
  <tr height=200>
    <td width=300><img src=""static/images/keys/z.svg"" width=""35%"" height=""75%""></img></td>
    <td width=300><img src=""static/images/keys/m.svg"" width=""35%"" height=""75%""></img></td>
  </tr>
</table>
  ",90.0,,,,,,,,,,,,,,,,,,,,,,,,,1.0,,
96,0,,html-keyboard-response,96,375219,0.0-4.14-2.14,dzd8zrg2sfi,2022-09-19 15:31:42.512,6229dbeebf010053193d5f4f,1,0,0,0,0,60,Female,,,"
  <table>
  <tr height=300>
    <td width=300 height=300><img src=""static/images/cards/6_of_red_stars.svg"" width=""175px"" height=""250px""></img></td>
    <td width=300 height=300><img src=""static/images/cards/back_of_red_stars.svg"" width=""175px"" height=""250px""></img></td>
  </tr>
  <tr height=200>
    <td width=300><img src=""static/images/keys/z.svg"" width=""35%"" height=""75%""></img></td>
    <td width=300><img src=""static/images/keys/m.svg"" width=""35%"" height=""75%""></img></td>
  </tr>
</table>
  ",,,,,,,,,,,,,,,,,,,,,,,,,,,,
97,0,,html-keyboard-response,97,376730,0.0-4.14-3.14,dzd8zrg2sfi,2022-09-19 15:31:42.512,6229dbeebf010053193d5f4f,1,0,0,0,0,60,Female,,,"<p style=""font-size:50px"">You Lose!
No points this round.</p>",,,,,,,,,,,,,,,,,,,,,,,,,,,,
98,0,,html-keyboard-response,98,377249,0.0-4.14-4.14,dzd8zrg2sfi,2022-09-19 15:31:42.512,6229dbeebf010053193d5f4f,1,0,0,0,0,60,Female,,,,,1.0,learning,14.0,C,,red,,stars,,,,C,red,stars,,1.0,0.0,NA,left,565.3000000119,6.0,1.0,0.0,,,,
99,0,,html-keyboard-response,99,378758,0.0-4.15-0.15,dzd8zrg2sfi,2022-09-19 15:31:42.512,6229dbeebf010053193d5f4f,1,0,0,0,0,60,Female,,,"<img src=""static/images/cards/stack_of_black_stars.svg"" width=""175px"" height=""250px""></img>",,,,,,,,,,,,,,,,,,,,,,,,,,,,
100,0,,html-keyboard-response,100,380031,0.0-4.15-1.15,dzd8zrg2sfi,2022-09-19 15:31:42.512,6229dbeebf010053193d5f4f,1,0,0,0,0,60,Female,755.7999999523,,"
  <table>
  <tr height=300>
    <td width=300 height=300><img src=""static/images/cards/back_of_black_stars.svg"" width=""175px"" height=""250px""></img></td>
    <td width=300 height=300><img src=""static/images/cards/back_of_black_stars.svg"" width=""175px"" height=""250px""></img></td>
  </tr>
  <tr height=200>
    <td width=300><img src=""static/images/keys/z.svg"" width=""35%"" height=""75%""></img></td>
    <td width=300></td>
  </tr>
</table>
  ",90.0,,,,,,,,,,,,,,,,,,,,,,,,,1.0,,
101,0,,html-keyboard-response,101,381539,0.0-4.15-2.15,dzd8zrg2sfi,2022-09-19 15:31:42.512,6229dbeebf010053193d5f4f,1,0,0,0,0,60,Female,,,"
  <table>
  <tr height=300>
    <td width=300 height=300><img src=""static/images/cards/2_of_black_stars.svg"" width=""175px"" height=""250px""></img></td>
    <td width=300 height=300><img src=""static/images/cards/back_of_black_stars.svg"" width=""175px"" height=""250px""></img></td>
  </tr>
  <tr height=200>
    <td width=300><img src=""static/images/keys/z.svg"" width=""35%"" height=""75%""></img></td>
    <td width=300></td>
  </tr>
</table>
  ",,,,,,,,,,,,,,,,,,,,,,,,,,,,
102,0,,html-keyboard-response,102,383061,0.0-4.15-3.15,dzd8zrg2sfi,2022-09-19 15:31:42.512,6229dbeebf010053193d5f4f,1,0,0,0,0,60,Female,,,"<p style=""font-size:50px"">You Lose!
No points this round.</p>",,,,,,,,,,,,,,,,,,,,,,,,,,,,
103,0,,html-keyboard-response,103,383581,0.0-4.15-4.15,dzd8zrg2sfi,2022-09-19 15:31:42.512,6229dbeebf010053193d5f4f,1,0,0,0,0,60,Female,,,,,1.0,learning,15.0,D,,black,,stars,,,,D,black,stars,,0.0,0.0,1,left,755.7999999523,2.0,0.0,0.0,,,,
104,0,,html-keyboard-response,104,385083,0.0-4.16-0.16,dzd8zrg2sfi,2022-09-19 15:31:42.512,6229dbeebf010053193d5f4f,1,0,0,0,0,60,Female,,,"<img src=""static/images/cards/stack_of_red_bolts.svg"" width=""175px"" height=""250px""></img>",,,,,,,,,,,,,,,,,,,,,,,,,,,,
105,0,,html-keyboard-response,105,386502,0.0-4.16-1.16,dzd8zrg2sfi,2022-09-19 15:31:42.512,6229dbeebf010053193d5f4f,1,0,0,0,0,60,Female,903.8999999762,,"
  <table>
  <tr height=300>
    <td width=300 height=300><img src=""static/images/cards/back_of_red_bolts.svg"" width=""175px"" height=""250px""></img></td>
    <td width=300 height=300><img src=""static/images/cards/back_of_red_bolts.svg"" width=""175px"" height=""250px""></img></td>
  </tr>
  <tr height=200>
    <td width=300><img src=""static/images/keys/z.svg"" width=""35%"" height=""75%""></img></td>
    <td width=300><img src=""static/images/keys/m.svg"" width=""35%"" height=""75%""></img></td>
  </tr>
</table>
  ",77.0,,,,,,,,,,,,,,,,,,,,,,,,,1.0,,
106,0,,html-keyboard-response,106,388012,0.0-4.16-2.16,dzd8zrg2sfi,2022-09-19 15:31:42.512,6229dbeebf010053193d5f4f,1,0,0,0,0,60,Female,,,"
  <table>
  <tr height=300>
    <td width=300 height=300><img src=""static/images/cards/back_of_red_bolts.svg"" width=""175px"" height=""250px""></img></td>
    <td width=300 height=300><img src=""static/images/cards/10_of_red_bolts.svg"" width=""175px"" height=""250px""></img></td>
  </tr>
  <tr height=200>
    <td width=300><img src=""static/images/keys/z.svg"" width=""35%"" height=""75%""></img></td>
    <td width=300><img src=""static/images/keys/m.svg"" width=""35%"" height=""75%""></img></td>
  </tr>
</table>
  ",,,,,,,,,,,,,,,,,,,,,,,,,,,,
107,0,,html-keyboard-response,107,389523,0.0-4.16-3.16,dzd8zrg2sfi,2022-09-19 15:31:42.512,6229dbeebf010053193d5f4f,1,0,0,0,0,60,Female,,,"<p style=""font-size:50px"">You win!
+10 points this round!</p>",,,,,,,,,,,,,,,,,,,,,,,,,,,,
108,0,,html-keyboard-response,108,390031,0.0-4.16-4.16,dzd8zrg2sfi,2022-09-19 15:31:42.512,6229dbeebf010053193d5f4f,1,0,0,0,0,60,Female,,,,,1.0,learning,16.0,Xc,,red,,bolts,,,,Xc,red,bolts,,1.0,0.0,NA,right,903.8999999762,10.0,1.0,1.0,,,,
109,0,,html-keyboard-response,109,391541,0.0-4.17-0.17,dzd8zrg2sfi,2022-09-19 15:31:42.512,6229dbeebf010053193d5f4f,1,0,0,0,0,60,Female,,,"<img src=""static/images/cards/stack_of_black_bolts.svg"" width=""175px"" height=""250px""></img>",,,,,,,,,,,,,,,,,,,,,,,,,,,,
110,0,,html-keyboard-response,110,392766,0.0-4.17-1.17,dzd8zrg2sfi,2022-09-19 15:31:42.512,6229dbeebf010053193d5f4f,1,0,0,0,0,60,Female,714.8999999762,,"
  <table>
  <tr height=300>
    <td width=300 height=300><img src=""static/images/cards/back_of_black_bolts.svg"" width=""175px"" height=""250px""></img></td>
    <td width=300 height=300><img src=""static/images/cards/back_of_black_bolts.svg"" width=""175px"" height=""250px""></img></td>
  </tr>
  <tr height=200>
    <td width=300></td>
    <td width=300><img src=""static/images/keys/m.svg"" width=""35%"" height=""75%""></img></td>
  </tr>
</table>
  ",77.0,,,,,,,,,,,,,,,,,,,,,,,,,1.0,,
111,0,,html-keyboard-response,111,394273,0.0-4.17-2.17,dzd8zrg2sfi,2022-09-19 15:31:42.512,6229dbeebf010053193d5f4f,1,0,0,0,0,60,Female,,,"
  <table>
  <tr height=300>
    <td width=300 height=300><img src=""static/images/cards/back_of_black_bolts.svg"" width=""175px"" height=""250px""></img></td>
    <td width=300 height=300><img src=""static/images/cards/1_of_black_bolts.svg"" width=""175px"" height=""250px""></img></td>
  </tr>
  <tr height=200>
    <td width=300></td>
    <td width=300><img src=""static/images/keys/m.svg"" width=""35%"" height=""75%""></img></td>
  </tr>
</table>
  ",,,,,,,,,,,,,,,,,,,,,,,,,,,,
112,0,,html-keyboard-response,112,395787,0.0-4.17-3.17,dzd8zrg2sfi,2022-09-19 15:31:42.512,6229dbeebf010053193d5f4f,1,0,0,0,0,60,Female,,,"<p style=""font-size:50px"">You win!
+10 points this round!</p>",,,,,,,,,,,,,,,,,,,,,,,,,,,,
113,0,,html-keyboard-response,113,396303,0.0-4.17-4.17,dzd8zrg2sfi,2022-09-19 15:31:42.512,6229dbeebf010053193d5f4f,1,0,0,0,0,60,Female,,,,,1.0,learning,17.0,Xnc,,black,,bolts,,,,Xnc,black,bolts,,0.0,0.0,0,right,714.8999999762,1.0,0.0,1.0,,,,
114,0,,html-keyboard-response,114,397816,0.0-4.18-0.18,dzd8zrg2sfi,2022-09-19 15:31:42.512,6229dbeebf010053193d5f4f,1,0,0,0,0,60,Female,,,"<img src=""static/images/cards/stack_of_red_moons.svg"" width=""175px"" height=""250px""></img>",,,,,,,,,,,,,,,,,,,,,,,,,,,,
115,0,,html-keyboard-response,115,399198,0.0-4.18-1.18,dzd8zrg2sfi,2022-09-19 15:31:42.512,6229dbeebf010053193d5f4f,1,0,0,0,0,60,Female,865.7999999523,,"
  <table>
  <tr height=300>
    <td width=300 height=300><img src=""static/images/cards/back_of_red_moons.svg"" width=""175px"" height=""250px""></img></td>
    <td width=300 height=300><img src=""static/images/cards/back_of_red_moons.svg"" width=""175px"" height=""250px""></img></td>
  </tr>
  <tr height=200>
    <td width=300><img src=""static/images/keys/z.svg"" width=""35%"" height=""75%""></img></td>
    <td width=300><img src=""static/images/keys/m.svg"" width=""35%"" height=""75%""></img></td>
  </tr>
</table>
  ",90.0,,,,,,,,,,,,,,,,,,,,,,,,,1.0,,
116,0,,html-keyboard-response,116,400712,0.0-4.18-2.18,dzd8zrg2sfi,2022-09-19 15:31:42.512,6229dbeebf010053193d5f4f,1,0,0,0,0,60,Female,,,"
  <table>
  <tr height=300>
    <td width=300 height=300><img src=""static/images/cards/8_of_red_moons.svg"" width=""175px"" height=""250px""></img></td>
    <td width=300 height=300><img src=""static/images/cards/back_of_red_moons.svg"" width=""175px"" height=""250px""></img></td>
  </tr>
  <tr height=200>
    <td width=300><img src=""static/images/keys/z.svg"" width=""35%"" height=""75%""></img></td>
    <td width=300><img src=""static/images/keys/m.svg"" width=""35%"" height=""75%""></img></td>
  </tr>
</table>
  ",,,,,,,,,,,,,,,,,,,,,,,,,,,,
117,0,,html-keyboard-response,117,402232,0.0-4.18-3.18,dzd8zrg2sfi,2022-09-19 15:31:42.512,6229dbeebf010053193d5f4f,1,0,0,0,0,60,Female,,,"<p style=""font-size:50px"">You win!
+10 points this round!</p>",,,,,,,,,,,,,,,,,,,,,,,,,,,,
118,0,,html-keyboard-response,118,402743,0.0-4.18-4.18,dzd8zrg2sfi,2022-09-19 15:31:42.512,6229dbeebf010053193d5f4f,1,0,0,0,0,60,Female,,,,,1.0,learning,18.0,A,,red,,moons,,,,A,red,moons,,1.0,1.0,NA,left,865.7999999523,8.0,1.0,1.0,,,,
119,0,,html-keyboard-response,119,404258,0.0-4.19-0.19,dzd8zrg2sfi,2022-09-19 15:31:42.512,6229dbeebf010053193d5f4f,1,0,0,0,0,60,Female,,,"<img src=""static/images/cards/stack_of_black_moons.svg"" width=""175px"" height=""250px""></img>",,,,,,,,,,,,,,,,,,,,,,,,,,,,
120,0,,html-keyboard-response,120,405543,0.0-4.19-1.19,dzd8zrg2sfi,2022-09-19 15:31:42.512,6229dbeebf010053193d5f4f,1,0,0,0,0,60,Female,770.7999999523,,"
  <table>
  <tr height=300>
    <td width=300 height=300><img src=""static/images/cards/back_of_black_moons.svg"" width=""175px"" height=""250px""></img></td>
    <td width=300 height=300><img src=""static/images/cards/back_of_black_moons.svg"" width=""175px"" height=""250px""></img></td>
  </tr>
  <tr height=200>
    <td width=300><img src=""static/images/keys/z.svg"" width=""35%"" height=""75%""></img></td>
    <td width=300></td>
  </tr>
</table>
  ",90.0,,,,,,,,,,,,,,,,,,,,,,,,,1.0,,
121,0,,html-keyboard-response,121,407059,0.0-4.19-2.19,dzd8zrg2sfi,2022-09-19 15:31:42.512,6229dbeebf010053193d5f4f,1,0,0,0,0,60,Female,,,"
  <table>
  <tr height=300>
    <td width=300 height=300><img src=""static/images/cards/2_of_black_moons.svg"" width=""175px"" height=""250px""></img></td>
    <td width=300 height=300><img src=""static/images/cards/back_of_black_moons.svg"" width=""175px"" height=""250px""></img></td>
  </tr>
  <tr height=200>
    <td width=300><img src=""static/images/keys/z.svg"" width=""35%"" height=""75%""></img></td>
    <td width=300></td>
  </tr>
</table>
  ",,,,,,,,,,,,,,,,,,,,,,,,,,,,
122,0,,html-keyboard-response,122,408572,0.0-4.19-3.19,dzd8zrg2sfi,2022-09-19 15:31:42.512,6229dbeebf010053193d5f4f,1,0,0,0,0,60,Female,,,"<p style=""font-size:50px"">You Lose!
No points this round.</p>",,,,,,,,,,,,,,,,,,,,,,,,,,,,
123,0,,html-keyboard-response,123,409092,0.0-4.19-4.19,dzd8zrg2sfi,2022-09-19 15:31:42.512,6229dbeebf010053193d5f4f,1,0,0,0,0,60,Female,,,,,1.0,learning,19.0,B,,black,,moons,,,,B,black,moons,,0.0,1.0,1,left,770.7999999523,2.0,0.0,0.0,,,,
124,0,,html-keyboard-response,124,410596,0.0-4.20-0.20,dzd8zrg2sfi,2022-09-19 15:31:42.512,6229dbeebf010053193d5f4f,1,0,0,0,0,60,Female,,,"<img src=""static/images/cards/stack_of_red_stars.svg"" width=""175px"" height=""250px""></img>",,,,,,,,,,,,,,,,,,,,,,,,,,,,
125,0,,html-keyboard-response,125,411702,0.0-4.20-1.20,dzd8zrg2sfi,2022-09-19 15:31:42.512,6229dbeebf010053193d5f4f,1,0,0,0,0,60,Female,598.8999999762,,"
  <table>
  <tr height=300>
    <td width=300 height=300><img src=""static/images/cards/back_of_red_stars.svg"" width=""175px"" height=""250px""></img></td>
    <td width=300 height=300><img src=""static/images/cards/back_of_red_stars.svg"" width=""175px"" height=""250px""></img></td>
  </tr>
  <tr height=200>
    <td width=300><img src=""static/images/keys/z.svg"" width=""35%"" height=""75%""></img></td>
    <td width=300><img src=""static/images/keys/m.svg"" width=""35%"" height=""75%""></img></td>
  </tr>
</table>
  ",77.0,,,,,,,,,,,,,,,,,,,,,,,,,1.0,,
126,0,,html-keyboard-response,126,413211,0.0-4.20-2.20,dzd8zrg2sfi,2022-09-19 15:31:42.512,6229dbeebf010053193d5f4f,1,0,0,0,0,60,Female,,,"
  <table>
  <tr height=300>
    <td width=300 height=300><img src=""static/images/cards/back_of_red_stars.svg"" width=""175px"" height=""250px""></img></td>
    <td width=300 height=300><img src=""static/images/cards/4_of_red_stars.svg"" width=""175px"" height=""250px""></img></td>
  </tr>
  <tr height=200>
    <td width=300><img src=""static/images/keys/z.svg"" width=""35%"" height=""75%""></img></td>
    <td width=300><img src=""static/images/keys/m.svg"" width=""35%"" height=""75%""></img></td>
  </tr>
</table>
  ",,,,,,,,,,,,,,,,,,,,,,,,,,,,
127,0,,html-keyboard-response,127,414721,0.0-4.20-3.20,dzd8zrg2sfi,2022-09-19 15:31:42.512,6229dbeebf010053193d5f4f,1,0,0,0,0,60,Female,,,"<p style=""font-size:50px"">You win!
+10 points this round!</p>",,,,,,,,,,,,,,,,,,,,,,,,,,,,
128,0,,html-keyboard-response,128,415234,0.0-4.20-4.20,dzd8zrg2sfi,2022-09-19 15:31:42.512,6229dbeebf010053193d5f4f,1,0,0,0,0,60,Female,,,,,1.0,learning,20.0,C,,red,,stars,,,,C,red,stars,,1.0,0.0,NA,right,598.8999999762,4.0,0.0,1.0,,,,
129,0,,html-keyboard-response,129,416751,0.0-4.21-0.21,dzd8zrg2sfi,2022-09-19 15:31:42.512,6229dbeebf010053193d5f4f,1,0,0,0,0,60,Female,,,"<img src=""static/images/cards/stack_of_black_stars.svg"" width=""175px"" height=""250px""></img>",,,,,,,,,,,,,,,,,,,,,,,,,,,,
130,0,,html-keyboard-response,130,417887,0.0-4.21-1.21,dzd8zrg2sfi,2022-09-19 15:31:42.512,6229dbeebf010053193d5f4f,1,0,0,0,0,60,Female,632.4000000358,,"
  <table>
  <tr height=300>
    <td width=300 height=300><img src=""static/images/cards/back_of_black_stars.svg"" width=""175px"" height=""250px""></img></td>
    <td width=300 height=300><img src=""static/images/cards/back_of_black_stars.svg"" width=""175px"" height=""250px""></img></td>
  </tr>
  <tr height=200>
    <td width=300></td>
    <td width=300><img src=""static/images/keys/m.svg"" width=""35%"" height=""75%""></img></td>
  </tr>
</table>
  ",77.0,,,,,,,,,,,,,,,,,,,,,,,,,1.0,,
131,0,,html-keyboard-response,131,419392,0.0-4.21-2.21,dzd8zrg2sfi,2022-09-19 15:31:42.512,6229dbeebf010053193d5f4f,1,0,0,0,0,60,Female,,,"
  <table>
  <tr height=300>
    <td width=300 height=300><img src=""static/images/cards/back_of_black_stars.svg"" width=""175px"" height=""250px""></img></td>
    <td width=300 height=300><img src=""static/images/cards/2_of_black_stars.svg"" width=""175px"" height=""250px""></img></td>
  </tr>
  <tr height=200>
    <td width=300></td>
    <td width=300><img src=""static/images/keys/m.svg"" width=""35%"" height=""75%""></img></td>
  </tr>
</table>
  ",,,,,,,,,,,,,,,,,,,,,,,,,,,,
132,0,,html-keyboard-response,132,420911,0.0-4.21-3.21,dzd8zrg2sfi,2022-09-19 15:31:42.512,6229dbeebf010053193d5f4f,1,0,0,0,0,60,Female,,,"<p style=""font-size:50px"">You Lose!
No points this round.</p>",,,,,,,,,,,,,,,,,,,,,,,,,,,,
133,0,,html-keyboard-response,133,421421,0.0-4.21-4.21,dzd8zrg2sfi,2022-09-19 15:31:42.512,6229dbeebf010053193d5f4f,1,0,0,0,0,60,Female,,,,,1.0,learning,21.0,D,,black,,stars,,,,D,black,stars,,0.0,0.0,0,right,632.4000000358,2.0,0.0,0.0,,,,
134,0,,html-keyboard-response,134,422926,0.0-4.22-0.22,dzd8zrg2sfi,2022-09-19 15:31:42.512,6229dbeebf010053193d5f4f,1,0,0,0,0,60,Female,,,"<img src=""static/images/cards/stack_of_red_bolts.svg"" width=""175px"" height=""250px""></img>",,,,,,,,,,,,,,,,,,,,,,,,,,,,
135,0,,html-keyboard-response,135,424070,0.0-4.22-1.22,dzd8zrg2sfi,2022-09-19 15:31:42.512,6229dbeebf010053193d5f4f,1,0,0,0,0,60,Female,626.7999999523,,"
  <table>
  <tr height=300>
    <td width=300 height=300><img src=""static/images/cards/back_of_red_bolts.svg"" width=""175px"" height=""250px""></img></td>
    <td width=300 height=300><img src=""static/images/cards/back_of_red_bolts.svg"" width=""175px"" height=""250px""></img></td>
  </tr>
  <tr height=200>
    <td width=300><img src=""static/images/keys/z.svg"" width=""35%"" height=""75%""></img></td>
    <td width=300><img src=""static/images/keys/m.svg"" width=""35%"" height=""75%""></img></td>
  </tr>
</table>
  ",90.0,,,,,,,,,,,,,,,,,,,,,,,,,1.0,,
136,0,,html-keyboard-response,136,425584,0.0-4.22-2.22,dzd8zrg2sfi,2022-09-19 15:31:42.512,6229dbeebf010053193d5f4f,1,0,0,0,0,60,Female,,,"
  <table>
  <tr height=300>
    <td width=300 height=300><img src=""static/images/cards/1_of_red_bolts.svg"" width=""175px"" height=""250px""></img></td>
    <td width=300 height=300><img src=""static/images/cards/back_of_red_bolts.svg"" width=""175px"" height=""250px""></img></td>
  </tr>
  <tr height=200>
    <td width=300><img src=""static/images/keys/z.svg"" width=""35%"" height=""75%""></img></td>
    <td width=300><img src=""static/images/keys/m.svg"" width=""35%"" height=""75%""></img></td>
  </tr>
</table>
  ",,,,,,,,,,,,,,,,,,,,,,,,,,,,
137,0,,html-keyboard-response,137,427099,0.0-4.22-3.22,dzd8zrg2sfi,2022-09-19 15:31:42.512,6229dbeebf010053193d5f4f,1,0,0,0,0,60,Female,,,"<p style=""font-size:50px"">You win!
+10 points this round!</p>",,,,,,,,,,,,,,,,,,,,,,,,,,,,
138,0,,html-keyboard-response,138,427620,0.0-4.22-4.22,dzd8zrg2sfi,2022-09-19 15:31:42.512,6229dbeebf010053193d5f4f,1,0,0,0,0,60,Female,,,,,1.0,learning,22.0,Xc,,red,,bolts,,,,Xc,red,bolts,,1.0,0.0,NA,left,626.7999999523,1.0,0.0,1.0,,,,
139,0,,html-keyboard-response,139,429139,0.0-4.23-0.23,dzd8zrg2sfi,2022-09-19 15:31:42.512,6229dbeebf010053193d5f4f,1,0,0,0,0,60,Female,,,"<img src=""static/images/cards/stack_of_black_bolts.svg"" width=""175px"" height=""250px""></img>",,,,,,,,,,,,,,,,,,,,,,,,,,,,
140,0,,html-keyboard-response,140,430263,0.0-4.23-1.23,dzd8zrg2sfi,2022-09-19 15:31:42.512,6229dbeebf010053193d5f4f,1,0,0,0,0,60,Female,608.5,,"
  <table>
  <tr height=300>
    <td width=300 height=300><img src=""static/images/cards/back_of_black_bolts.svg"" width=""175px"" height=""250px""></img></td>
    <td width=300 height=300><img src=""static/images/cards/back_of_black_bolts.svg"" width=""175px"" height=""250px""></img></td>
  </tr>
  <tr height=200>
    <td width=300></td>
    <td width=300><img src=""static/images/keys/m.svg"" width=""35%"" height=""75%""></img></td>
  </tr>
</table>
  ",77.0,,,,,,,,,,,,,,,,,,,,,,,,,1.0,,
141,0,,html-keyboard-response,141,431769,0.0-4.23-2.23,dzd8zrg2sfi,2022-09-19 15:31:42.512,6229dbeebf010053193d5f4f,1,0,0,0,0,60,Female,,,"
  <table>
  <tr height=300>
    <td width=300 height=300><img src=""static/images/cards/back_of_black_bolts.svg"" width=""175px"" height=""250px""></img></td>
    <td width=300 height=300><img src=""static/images/cards/10_of_black_bolts.svg"" width=""175px"" height=""250px""></img></td>
  </tr>
  <tr height=200>
    <td width=300></td>
    <td width=300><img src=""static/images/keys/m.svg"" width=""35%"" height=""75%""></img></td>
  </tr>
</table>
  ",,,,,,,,,,,,,,,,,,,,,,,,,,,,
142,0,,html-keyboard-response,142,433276,0.0-4.23-3.23,dzd8zrg2sfi,2022-09-19 15:31:42.512,6229dbeebf010053193d5f4f,1,0,0,0,0,60,Female,,,"<p style=""font-size:50px"">You win!
+10 points this round!</p>",,,,,,,,,,,,,,,,,,,,,,,,,,,,
143,0,,html-keyboard-response,143,433784,0.0-4.23-4.23,dzd8zrg2sfi,2022-09-19 15:31:42.512,6229dbeebf010053193d5f4f,1,0,0,0,0,60,Female,,,,,1.0,learning,23.0,Xnc,,black,,bolts,,,,Xnc,black,bolts,,0.0,0.0,0,right,608.5,10.0,1.0,1.0,,,,
144,0,,call-function,144,433797,0.0-5.0,dzd8zrg2sfi,2022-09-19 15:31:42.512,6229dbeebf010053193d5f4f,1,0,0,0,0,60,Female,,,,,,,,,,,,,,,,,,,,,,,,,,,,,,,
145,0,,image-keyboard-response,145,441334,0.0-6.0-0.0,dzd8zrg2sfi,2022-09-19 15:31:42.512,6229dbeebf010053193d5f4f,1,0,0,0,0,60,Female,7535.8000000119,,static/images/instructions_CB_1/Slide20.png,39.0,,,,,,,,,,,,,,,,,,,,,,,,,,,
146,0,,image-keyboard-response,146,460278,0.0-6.1-0.1,dzd8zrg2sfi,2022-09-19 15:31:42.512,6229dbeebf010053193d5f4f,1,0,0,0,0,60,Female,18942.0999999642,,static/images/instructions_CB_1/Slide21.png,39.0,,,,,,,,,,,,,,,,,,,,,,,,,,,
147,0,,image-keyboard-response,147,471158,0.0-6.2-0.2,dzd8zrg2sfi,2022-09-19 15:31:42.512,6229dbeebf010053193d5f4f,1,0,0,0,0,60,Female,10878.1999999881,,static/images/instructions_CB_1/Slide22.png,39.0,,,,,,,,,,,,,,,,,,,,,,,,,,,
148,0,,image-keyboard-response,148,515926,0.0-6.3-0.3,dzd8zrg2sfi,2022-09-19 15:31:42.512,6229dbeebf010053193d5f4f,1,0,0,0,0,60,Female,44766.3000000119,,static/images/instructions_CB_1/Slide23.png,39.0,,,,,,,,,,,,,,,,,,,,,,,,,,,
149,0,,image-keyboard-response,149,519941,0.0-6.4-0.4,dzd8zrg2sfi,2022-09-19 15:31:42.512,6229dbeebf010053193d5f4f,1,0,0,0,0,60,Female,4013.3999999762,,static/images/instructions_CB_1/Slide24.png,39.0,,,,,,,,,,,,,,,,,,,,,,,,,,,
150,0,,html-keyboard-response,150,523638,0.0-7.0-0.0,dzd8zrg2sfi,2022-09-19 15:31:42.512,6229dbeebf010053193d5f4f,1,0,0,0,0,60,Female,3693.1999999881,,"
  <table>
  <tr height=300>
    <td width=300 height=300><img src=""static/images/cards/stack_of_black_moons.svg"" width=""175px"" height=""250px""></img></td>
    <td width=300 height=300><img src=""static/images/cards/stack_of_red_moons.svg"" width=""175px"" height=""250px""></img></td>
  </tr>
  <tr height=200>
    <td width=300><img src=""static/images/keys/w.svg"" width=""35%"" height=""75%""></img></td>
    <td width=300><img src=""static/images/keys/o.svg"" width=""35%"" height=""75%""></img></td>
  </tr>
</table>
  ",79.0,,,,,,,,,,,,,,,,,,,,,,,,,1.0,,
151,0,,html-keyboard-response,151,526303,0.0-7.0-1.0,dzd8zrg2sfi,2022-09-19 15:31:42.512,6229dbeebf010053193d5f4f,1,0,0,0,0,60,Female,2153.3000000119,,"
  <table>
  <tr height=300>
    <td width=300 height=300><img src=""static/images/cards/back_of_red_moons.svg"" width=""175px"" height=""250px""></img></td>
    <td width=300 height=300><img src=""static/images/cards/back_of_red_moons.svg"" width=""175px"" height=""250px""></img></td>
  </tr>
  <tr height=200>
    <td width=300><img src=""static/images/keys/z.svg"" width=""35%"" height=""75%""></img></td>
    <td width=300><img src=""static/images/keys/m.svg"" width=""35%"" height=""75%""></img></td>
  </tr>
</table>
  ",90.0,,,,,,,,,,,,,,,,,,,,,,,,,1.0,,
152,0,,html-keyboard-response,152,527820,0.0-7.0-2.0,dzd8zrg2sfi,2022-09-19 15:31:42.512,6229dbeebf010053193d5f4f,1,0,0,0,0,60,Female,,,"
  <table>
  <tr height=300>
    <td width=300 height=300><img src=""static/images/cards/2_of_red_moons.svg"" width=""175px"" height=""250px""></img></td>
    <td width=300 height=300><img src=""static/images/cards/back_of_red_moons.svg"" width=""175px"" height=""250px""></img></td>
  </tr>
  <tr height=200>
    <td width=300><img src=""static/images/keys/z.svg"" width=""35%"" height=""75%""></img></td>
    <td width=300><img src=""static/images/keys/m.svg"" width=""35%"" height=""75%""></img></td>
  </tr>
</table>
  ",,,,,,,,,,,,,,,,,,,,,,,,,,,,
153,0,,html-keyboard-response,153,529335,0.0-7.0-3.0,dzd8zrg2sfi,2022-09-19 15:31:42.512,6229dbeebf010053193d5f4f,1,0,0,0,0,60,Female,,,"<p style=""font-size:50px"">You Lose!
No points this round.</p>",,,,,,,,,,,,,,,,,,,,,,,,,,,,
154,0,,html-keyboard-response,154,529843,0.0-7.0-4.0,dzd8zrg2sfi,2022-09-19 15:31:42.512,6229dbeebf010053193d5f4f,1,0,0,0,0,60,Female,,,,,1.0,choice,0.0,A,B,black,red,moons,moons,B,A,A,red,moons,3693.1999999881,1.0,1.0,NA,left,2153.3000000119,2.0,0.0,0.0,,,,
155,0,,html-keyboard-response,155,532494,0.0-7.1-0.1,dzd8zrg2sfi,2022-09-19 15:31:42.512,6229dbeebf010053193d5f4f,1,0,0,0,0,60,Female,2647.9000000358,,"
  <table>
  <tr height=300>
    <td width=300 height=300><img src=""static/images/cards/stack_of_black_moons.svg"" width=""175px"" height=""250px""></img></td>
    <td width=300 height=300><img src=""static/images/cards/stack_of_red_moons.svg"" width=""175px"" height=""250px""></img></td>
  </tr>
  <tr height=200>
    <td width=300><img src=""static/images/keys/w.svg"" width=""35%"" height=""75%""></img></td>
    <td width=300><img src=""static/images/keys/o.svg"" width=""35%"" height=""75%""></img></td>
  </tr>
</table>
  ",87.0,,,,,,,,,,,,,,,,,,,,,,,,,1.0,,
156,0,,html-keyboard-response,156,534542,0.0-7.1-1.1,dzd8zrg2sfi,2022-09-19 15:31:42.512,6229dbeebf010053193d5f4f,1,0,0,0,0,60,Female,1531.4000000358,,"
  <table>
  <tr height=300>
    <td width=300 height=300><img src=""static/images/cards/back_of_black_moons.svg"" width=""175px"" height=""250px""></img></td>
    <td width=300 height=300><img src=""static/images/cards/back_of_black_moons.svg"" width=""175px"" height=""250px""></img></td>
  </tr>
  <tr height=200>
    <td width=300></td>
    <td width=300><img src=""static/images/keys/m.svg"" width=""35%"" height=""75%""></img></td>
  </tr>
</table>
  ",77.0,,,,,,,,,,,,,,,,,,,,,,,,,1.0,,
157,0,,html-keyboard-response,157,536046,0.0-7.1-2.1,dzd8zrg2sfi,2022-09-19 15:31:42.512,6229dbeebf010053193d5f4f,1,0,0,0,0,60,Female,,,"
  <table>
  <tr height=300>
    <td width=300 height=300><img src=""static/images/cards/back_of_black_moons.svg"" width=""175px"" height=""250px""></img></td>
    <td width=300 height=300><img src=""static/images/cards/2_of_black_moons.svg"" width=""175px"" height=""250px""></img></td>
  </tr>
  <tr height=200>
    <td width=300></td>
    <td width=300><img src=""static/images/keys/m.svg"" width=""35%"" height=""75%""></img></td>
  </tr>
</table>
  ",,,,,,,,,,,,,,,,,,,,,,,,,,,,
158,0,,html-keyboard-response,158,537555,0.0-7.1-3.1,dzd8zrg2sfi,2022-09-19 15:31:42.512,6229dbeebf010053193d5f4f,1,0,0,0,0,60,Female,,,"<p style=""font-size:50px"">You Lose!
No points this round.</p>",,,,,,,,,,,,,,,,,,,,,,,,,,,,
159,0,,html-keyboard-response,159,538075,0.0-7.1-4.1,dzd8zrg2sfi,2022-09-19 15:31:42.512,6229dbeebf010053193d5f4f,1,0,0,0,0,60,Female,,,,,1.0,choice,1.0,A,B,black,red,moons,moons,B,A,B,black,moons,2647.9000000358,0.0,1.0,0,right,1531.4000000358,2.0,0.0,0.0,,,,
160,0,,html-keyboard-response,160,540335,0.0-7.2-0.2,dzd8zrg2sfi,2022-09-19 15:31:42.512,6229dbeebf010053193d5f4f,1,0,0,0,0,60,Female,2256.8999999762,,"
  <table>
  <tr height=300>
    <td width=300 height=300><img src=""static/images/cards/stack_of_red_stars.svg"" width=""175px"" height=""250px""></img></td>
    <td width=300 height=300><img src=""static/images/cards/stack_of_black_moons.svg"" width=""175px"" height=""250px""></img></td>
  </tr>
  <tr height=200>
    <td width=300><img src=""static/images/keys/w.svg"" width=""35%"" height=""75%""></img></td>
    <td width=300><img src=""static/images/keys/o.svg"" width=""35%"" height=""75%""></img></td>
  </tr>
</table>
  ",87.0,,,,,,,,,,,,,,,,,,,,,,,,,1.0,,
161,0,,html-keyboard-response,161,542702,0.0-7.2-1.2,dzd8zrg2sfi,2022-09-19 15:31:42.512,6229dbeebf010053193d5f4f,1,0,0,0,0,60,Female,1850.2999999523,,"
  <table>
  <tr height=300>
    <td width=300 height=300><img src=""static/images/cards/back_of_red_stars.svg"" width=""175px"" height=""250px""></img></td>
    <td width=300 height=300><img src=""static/images/cards/back_of_red_stars.svg"" width=""175px"" height=""250px""></img></td>
  </tr>
  <tr height=200>
    <td width=300><img src=""static/images/keys/z.svg"" width=""35%"" height=""75%""></img></td>
    <td width=300><img src=""static/images/keys/m.svg"" width=""35%"" height=""75%""></img></td>
  </tr>
</table>
  ",90.0,,,,,,,,,,,,,,,,,,,,,,,,,1.0,,
162,0,,html-keyboard-response,162,544216,0.0-7.2-2.2,dzd8zrg2sfi,2022-09-19 15:31:42.512,6229dbeebf010053193d5f4f,1,0,0,0,0,60,Female,,,"
  <table>
  <tr height=300>
    <td width=300 height=300><img src=""static/images/cards/2_of_red_stars.svg"" width=""175px"" height=""250px""></img></td>
    <td width=300 height=300><img src=""static/images/cards/back_of_red_stars.svg"" width=""175px"" height=""250px""></img></td>
  </tr>
  <tr height=200>
    <td width=300><img src=""static/images/keys/z.svg"" width=""35%"" height=""75%""></img></td>
    <td width=300><img src=""static/images/keys/m.svg"" width=""35%"" height=""75%""></img></td>
  </tr>
</table>
  ",,,,,,,,,,,,,,,,,,,,,,,,,,,,
163,0,,html-keyboard-response,163,545733,0.0-7.2-3.2,dzd8zrg2sfi,2022-09-19 15:31:42.512,6229dbeebf010053193d5f4f,1,0,0,0,0,60,Female,,,"<p style=""font-size:50px"">You win!
+10 points this round!</p>",,,,,,,,,,,,,,,,,,,,,,,,,,,,
164,0,,html-keyboard-response,164,546242,0.0-7.2-4.2,dzd8zrg2sfi,2022-09-19 15:31:42.512,6229dbeebf010053193d5f4f,1,0,0,0,0,60,Female,,,,,1.0,choice,2.0,B,C,red,black,stars,moons,C,B,C,red,stars,2256.8999999762,1.0,0.0,NA,left,1850.2999999523,2.0,0.0,1.0,,,,
165,0,,html-keyboard-response,165,549422,0.0-7.3-0.3,dzd8zrg2sfi,2022-09-19 15:31:42.512,6229dbeebf010053193d5f4f,1,0,0,0,0,60,Female,3176.8999999762,,"
  <table>
  <tr height=300>
    <td width=300 height=300><img src=""static/images/cards/stack_of_black_stars.svg"" width=""175px"" height=""250px""></img></td>
    <td width=300 height=300><img src=""static/images/cards/stack_of_black_moons.svg"" width=""175px"" height=""250px""></img></td>
  </tr>
  <tr height=200>
    <td width=300><img src=""static/images/keys/w.svg"" width=""35%"" height=""75%""></img></td>
    <td width=300><img src=""static/images/keys/o.svg"" width=""35%"" height=""75%""></img></td>
  </tr>
</table>
  ",87.0,,,,,,,,,,,,,,,,,,,,,,,,,1.0,,
166,0,,html-keyboard-response,166,551559,0.0-7.3-1.3,dzd8zrg2sfi,2022-09-19 15:31:42.512,6229dbeebf010053193d5f4f,1,0,0,0,0,60,Female,1617.3000000119,,"
  <table>
  <tr height=300>
    <td width=300 height=300><img src=""static/images/cards/back_of_black_stars.svg"" width=""175px"" height=""250px""></img></td>
    <td width=300 height=300><img src=""static/images/cards/back_of_black_stars.svg"" width=""175px"" height=""250px""></img></td>
  </tr>
  <tr height=200>
    <td width=300></td>
    <td width=300><img src=""static/images/keys/m.svg"" width=""35%"" height=""75%""></img></td>
  </tr>
</table>
  ",77.0,,,,,,,,,,,,,,,,,,,,,,,,,1.0,,
167,0,,html-keyboard-response,167,553075,0.0-7.3-2.3,dzd8zrg2sfi,2022-09-19 15:31:42.512,6229dbeebf010053193d5f4f,1,0,0,0,0,60,Female,,,"
  <table>
  <tr height=300>
    <td width=300 height=300><img src=""static/images/cards/back_of_black_stars.svg"" width=""175px"" height=""250px""></img></td>
    <td width=300 height=300><img src=""static/images/cards/8_of_black_stars.svg"" width=""175px"" height=""250px""></img></td>
  </tr>
  <tr height=200>
    <td width=300></td>
    <td width=300><img src=""static/images/keys/m.svg"" width=""35%"" height=""75%""></img></td>
  </tr>
</table>
  ",,,,,,,,,,,,,,,,,,,,,,,,,,,,
168,0,,html-keyboard-response,168,554592,0.0-7.3-3.3,dzd8zrg2sfi,2022-09-19 15:31:42.512,6229dbeebf010053193d5f4f,1,0,0,0,0,60,Female,,,"<p style=""font-size:50px"">You Lose!
No points this round.</p>",,,,,,,,,,,,,,,,,,,,,,,,,,,,
169,0,,html-keyboard-response,169,555103,0.0-7.3-4.3,dzd8zrg2sfi,2022-09-19 15:31:42.512,6229dbeebf010053193d5f4f,1,0,0,0,0,60,Female,,,,,1.0,choice,3.0,B,D,black,black,stars,moons,D,B,D,black,stars,3176.8999999762,0.0,0.0,0,right,1617.3000000119,8.0,1.0,0.0,,,,
170,0,,html-keyboard-response,170,557781,0.0-7.4-0.4,dzd8zrg2sfi,2022-09-19 15:31:42.512,6229dbeebf010053193d5f4f,1,0,0,0,0,60,Female,2675.5,,"
  <table>
  <tr height=300>
    <td width=300 height=300><img src=""static/images/cards/stack_of_red_moons.svg"" width=""175px"" height=""250px""></img></td>
    <td width=300 height=300><img src=""static/images/cards/stack_of_black_moons.svg"" width=""175px"" height=""250px""></img></td>
  </tr>
  <tr height=200>
    <td width=300><img src=""static/images/keys/w.svg"" width=""35%"" height=""75%""></img></td>
    <td width=300><img src=""static/images/keys/o.svg"" width=""35%"" height=""75%""></img></td>
  </tr>
</table>
  ",87.0,,,,,,,,,,,,,,,,,,,,,,,,,1.0,,
171,0,,html-keyboard-response,171,560262,0.0-7.4-1.4,dzd8zrg2sfi,2022-09-19 15:31:42.512,6229dbeebf010053193d5f4f,1,0,0,0,0,60,Female,1960.2999999523,,"
  <table>
  <tr height=300>
    <td width=300 height=300><img src=""static/images/cards/back_of_red_moons.svg"" width=""175px"" height=""250px""></img></td>
    <td width=300 height=300><img src=""static/images/cards/back_of_red_moons.svg"" width=""175px"" height=""250px""></img></td>
  </tr>
  <tr height=200>
    <td width=300><img src=""static/images/keys/z.svg"" width=""35%"" height=""75%""></img></td>
    <td width=300><img src=""static/images/keys/m.svg"" width=""35%"" height=""75%""></img></td>
  </tr>
</table>
  ",77.0,,,,,,,,,,,,,,,,,,,,,,,,,1.0,,
172,0,,html-keyboard-response,172,561769,0.0-7.4-2.4,dzd8zrg2sfi,2022-09-19 15:31:42.512,6229dbeebf010053193d5f4f,1,0,0,0,0,60,Female,,,"
  <table>
  <tr height=300>
    <td width=300 height=300><img src=""static/images/cards/back_of_red_moons.svg"" width=""175px"" height=""250px""></img></td>
    <td width=300 height=300><img src=""static/images/cards/3_of_red_moons.svg"" width=""175px"" height=""250px""></img></td>
  </tr>
  <tr height=200>
    <td width=300><img src=""static/images/keys/z.svg"" width=""35%"" height=""75%""></img></td>
    <td width=300><img src=""static/images/keys/m.svg"" width=""35%"" height=""75%""></img></td>
  </tr>
</table>
  ",,,,,,,,,,,,,,,,,,,,,,,,,,,,
173,0,,html-keyboard-response,173,563278,0.0-7.4-3.4,dzd8zrg2sfi,2022-09-19 15:31:42.512,6229dbeebf010053193d5f4f,1,0,0,0,0,60,Female,,,"<p style=""font-size:50px"">You Lose!
No points this round.</p>",,,,,,,,,,,,,,,,,,,,,,,,,,,,
174,0,,html-keyboard-response,174,563792,0.0-7.4-4.4,dzd8zrg2sfi,2022-09-19 15:31:42.512,6229dbeebf010053193d5f4f,1,0,0,0,0,60,Female,,,,,1.0,choice,4.0,A,B,red,black,moons,moons,A,B,A,red,moons,2675.5,1.0,1.0,NA,right,1960.2999999523,3.0,0.0,0.0,,,,
175,0,,html-keyboard-response,175,566303,0.0-7.5-0.5,dzd8zrg2sfi,2022-09-19 15:31:42.512,6229dbeebf010053193d5f4f,1,0,0,0,0,60,Female,2507.1999999881,,"
  <table>
  <tr height=300>
    <td width=300 height=300><img src=""static/images/cards/stack_of_black_moons.svg"" width=""175px"" height=""250px""></img></td>
    <td width=300 height=300><img src=""static/images/cards/stack_of_red_stars.svg"" width=""175px"" height=""250px""></img></td>
  </tr>
  <tr height=200>
    <td width=300><img src=""static/images/keys/w.svg"" width=""35%"" height=""75%""></img></td>
    <td width=300><img src=""static/images/keys/o.svg"" width=""35%"" height=""75%""></img></td>
  </tr>
</table>
  ",79.0,,,,,,,,,,,,,,,,,,,,,,,,,1.0,,
176,0,,html-keyboard-response,176,568390,0.0-7.5-1.5,dzd8zrg2sfi,2022-09-19 15:31:42.512,6229dbeebf010053193d5f4f,1,0,0,0,0,60,Female,1579.3000000119,,"
  <table>
  <tr height=300>
    <td width=300 height=300><img src=""static/images/cards/back_of_red_stars.svg"" width=""175px"" height=""250px""></img></td>
    <td width=300 height=300><img src=""static/images/cards/back_of_red_stars.svg"" width=""175px"" height=""250px""></img></td>
  </tr>
  <tr height=200>
    <td width=300><img src=""static/images/keys/z.svg"" width=""35%"" height=""75%""></img></td>
    <td width=300><img src=""static/images/keys/m.svg"" width=""35%"" height=""75%""></img></td>
  </tr>
</table>
  ",90.0,,,,,,,,,,,,,,,,,,,,,,,,,1.0,,
177,0,,html-keyboard-response,177,569907,0.0-7.5-2.5,dzd8zrg2sfi,2022-09-19 15:31:42.512,6229dbeebf010053193d5f4f,1,0,0,0,0,60,Female,,,"
  <table>
  <tr height=300>
    <td width=300 height=300><img src=""static/images/cards/7_of_red_stars.svg"" width=""175px"" height=""250px""></img></td>
    <td width=300 height=300><img src=""static/images/cards/back_of_red_stars.svg"" width=""175px"" height=""250px""></img></td>
  </tr>
  <tr height=200>
    <td width=300><img src=""static/images/keys/z.svg"" width=""35%"" height=""75%""></img></td>
    <td width=300><img src=""static/images/keys/m.svg"" width=""35%"" height=""75%""></img></td>
  </tr>
</table>
  ",,,,,,,,,,,,,,,,,,,,,,,,,,,,
178,0,,html-keyboard-response,178,571412,0.0-7.5-3.5,dzd8zrg2sfi,2022-09-19 15:31:42.512,6229dbeebf010053193d5f4f,1,0,0,0,0,60,Female,,,"<p style=""font-size:50px"">You Lose!
No points this round.</p>",,,,,,,,,,,,,,,,,,,,,,,,,,,,
179,0,,html-keyboard-response,179,571932,0.0-7.5-4.5,dzd8zrg2sfi,2022-09-19 15:31:42.512,6229dbeebf010053193d5f4f,1,0,0,0,0,60,Female,,,,,1.0,choice,5.0,B,C,black,red,moons,stars,B,C,C,red,stars,2507.1999999881,1.0,0.0,NA,left,1579.3000000119,7.0,1.0,0.0,,,,
180,0,,html-keyboard-response,180,574550,0.0-7.6-0.6,dzd8zrg2sfi,2022-09-19 15:31:42.512,6229dbeebf010053193d5f4f,1,0,0,0,0,60,Female,2614.5,,"
  <table>
  <tr height=300>
    <td width=300 height=300><img src=""static/images/cards/stack_of_black_stars.svg"" width=""175px"" height=""250px""></img></td>
    <td width=300 height=300><img src=""static/images/cards/stack_of_black_moons.svg"" width=""175px"" height=""250px""></img></td>
  </tr>
  <tr height=200>
    <td width=300><img src=""static/images/keys/w.svg"" width=""35%"" height=""75%""></img></td>
    <td width=300><img src=""static/images/keys/o.svg"" width=""35%"" height=""75%""></img></td>
  </tr>
</table>
  ",79.0,,,,,,,,,,,,,,,,,,,,,,,,,1.0,,
181,0,,html-keyboard-response,181,576791,0.0-7.6-1.6,dzd8zrg2sfi,2022-09-19 15:31:42.512,6229dbeebf010053193d5f4f,1,0,0,0,0,60,Female,1733.1000000238,,"
  <table>
  <tr height=300>
    <td width=300 height=300><img src=""static/images/cards/back_of_black_moons.svg"" width=""175px"" height=""250px""></img></td>
    <td width=300 height=300><img src=""static/images/cards/back_of_black_moons.svg"" width=""175px"" height=""250px""></img></td>
  </tr>
  <tr height=200>
    <td width=300><img src=""static/images/keys/z.svg"" width=""35%"" height=""75%""></img></td>
    <td width=300></td>
  </tr>
</table>
  ",90.0,,,,,,,,,,,,,,,,,,,,,,,,,1.0,,
182,0,,html-keyboard-response,182,578300,0.0-7.6-2.6,dzd8zrg2sfi,2022-09-19 15:31:42.512,6229dbeebf010053193d5f4f,1,0,0,0,0,60,Female,,,"
  <table>
  <tr height=300>
    <td width=300 height=300><img src=""static/images/cards/8_of_black_moons.svg"" width=""175px"" height=""250px""></img></td>
    <td width=300 height=300><img src=""static/images/cards/back_of_black_moons.svg"" width=""175px"" height=""250px""></img></td>
  </tr>
  <tr height=200>
    <td width=300><img src=""static/images/keys/z.svg"" width=""35%"" height=""75%""></img></td>
    <td width=300></td>
  </tr>
</table>
  ",,,,,,,,,,,,,,,,,,,,,,,,,,,,
183,0,,html-keyboard-response,183,579808,0.0-7.6-3.6,dzd8zrg2sfi,2022-09-19 15:31:42.512,6229dbeebf010053193d5f4f,1,0,0,0,0,60,Female,,,"<p style=""font-size:50px"">You win!
+10 points this round!</p>",,,,,,,,,,,,,,,,,,,,,,,,,,,,
184,0,,html-keyboard-response,184,580317,0.0-7.6-4.6,dzd8zrg2sfi,2022-09-19 15:31:42.512,6229dbeebf010053193d5f4f,1,0,0,0,0,60,Female,,,,,1.0,choice,6.0,B,D,black,black,stars,moons,D,B,B,black,moons,2614.5,0.0,1.0,1,left,1733.1000000238,8.0,1.0,1.0,,,,
185,0,,html-keyboard-response,185,582078,0.0-7.7-0.7,dzd8zrg2sfi,2022-09-19 15:31:42.512,6229dbeebf010053193d5f4f,1,0,0,0,0,60,Female,1757.9000000358,,"
  <table>
  <tr height=300>
    <td width=300 height=300><img src=""static/images/cards/stack_of_black_stars.svg"" width=""175px"" height=""250px""></img></td>
    <td width=300 height=300><img src=""static/images/cards/stack_of_red_stars.svg"" width=""175px"" height=""250px""></img></td>
  </tr>
  <tr height=200>
    <td width=300><img src=""static/images/keys/w.svg"" width=""35%"" height=""75%""></img></td>
    <td width=300><img src=""static/images/keys/o.svg"" width=""35%"" height=""75%""></img></td>
  </tr>
</table>
  ",87.0,,,,,,,,,,,,,,,,,,,,,,,,,1.0,,
186,0,,html-keyboard-response,186,583910,0.0-7.7-1.7,dzd8zrg2sfi,2022-09-19 15:31:42.512,6229dbeebf010053193d5f4f,1,0,0,0,0,60,Female,1323.8000000119,,"
  <table>
  <tr height=300>
    <td width=300 height=300><img src=""static/images/cards/back_of_black_stars.svg"" width=""175px"" height=""250px""></img></td>
    <td width=300 height=300><img src=""static/images/cards/back_of_black_stars.svg"" width=""175px"" height=""250px""></img></td>
  </tr>
  <tr height=200>
    <td width=300><img src=""static/images/keys/z.svg"" width=""35%"" height=""75%""></img></td>
    <td width=300></td>
  </tr>
</table>
  ",90.0,,,,,,,,,,,,,,,,,,,,,,,,,1.0,,
187,0,,html-keyboard-response,187,585430,0.0-7.7-2.7,dzd8zrg2sfi,2022-09-19 15:31:42.512,6229dbeebf010053193d5f4f,1,0,0,0,0,60,Female,,,"
  <table>
  <tr height=300>
    <td width=300 height=300><img src=""static/images/cards/7_of_black_stars.svg"" width=""175px"" height=""250px""></img></td>
    <td width=300 height=300><img src=""static/images/cards/back_of_black_stars.svg"" width=""175px"" height=""250px""></img></td>
  </tr>
  <tr height=200>
    <td width=300><img src=""static/images/keys/z.svg"" width=""35%"" height=""75%""></img></td>
    <td width=300></td>
  </tr>
</table>
  ",,,,,,,,,,,,,,,,,,,,,,,,,,,,
188,0,,html-keyboard-response,188,586944,0.0-7.7-3.7,dzd8zrg2sfi,2022-09-19 15:31:42.512,6229dbeebf010053193d5f4f,1,0,0,0,0,60,Female,,,"<p style=""font-size:50px"">You win!
+10 points this round!</p>",,,,,,,,,,,,,,,,,,,,,,,,,,,,
189,0,,html-keyboard-response,189,587462,0.0-7.7-4.7,dzd8zrg2sfi,2022-09-19 15:31:42.512,6229dbeebf010053193d5f4f,1,0,0,0,0,60,Female,,,,,1.0,choice,7.0,C,D,black,red,stars,stars,D,C,D,black,stars,1757.9000000358,0.0,0.0,1,left,1323.8000000119,7.0,1.0,1.0,,,,
190,0,,html-keyboard-response,190,590343,0.0-7.8-0.8,dzd8zrg2sfi,2022-09-19 15:31:42.512,6229dbeebf010053193d5f4f,1,0,0,0,0,60,Female,2877.5,,"
  <table>
  <tr height=300>
    <td width=300 height=300><img src=""static/images/cards/stack_of_black_bolts.svg"" width=""175px"" height=""250px""></img></td>
    <td width=300 height=300><img src=""static/images/cards/stack_of_red_stars.svg"" width=""175px"" height=""250px""></img></td>
  </tr>
  <tr height=200>
    <td width=300><img src=""static/images/keys/w.svg"" width=""35%"" height=""75%""></img></td>
    <td width=300><img src=""static/images/keys/o.svg"" width=""35%"" height=""75%""></img></td>
  </tr>
</table>
  ",87.0,,,,,,,,,,,,,,,,,,,,,,,,,1.0,,
191,0,,html-keyboard-response,191,592670,0.0-7.8-1.8,dzd8zrg2sfi,2022-09-19 15:31:42.512,6229dbeebf010053193d5f4f,1,0,0,0,0,60,Female,1811.6000000238,,"
  <table>
  <tr height=300>
    <td width=300 height=300><img src=""static/images/cards/back_of_black_bolts.svg"" width=""175px"" height=""250px""></img></td>
    <td width=300 height=300><img src=""static/images/cards/back_of_black_bolts.svg"" width=""175px"" height=""250px""></img></td>
  </tr>
  <tr height=200>
    <td width=300><img src=""static/images/keys/z.svg"" width=""35%"" height=""75%""></img></td>
    <td width=300></td>
  </tr>
</table>
  ",90.0,,,,,,,,,,,,,,,,,,,,,,,,,1.0,,
192,0,,html-keyboard-response,192,594174,0.0-7.8-2.8,dzd8zrg2sfi,2022-09-19 15:31:42.512,6229dbeebf010053193d5f4f,1,0,0,0,0,60,Female,,,"
  <table>
  <tr height=300>
    <td width=300 height=300><img src=""static/images/cards/4_of_black_bolts.svg"" width=""175px"" height=""250px""></img></td>
    <td width=300 height=300><img src=""static/images/cards/back_of_black_bolts.svg"" width=""175px"" height=""250px""></img></td>
  </tr>
  <tr height=200>
    <td width=300><img src=""static/images/keys/z.svg"" width=""35%"" height=""75%""></img></td>
    <td width=300></td>
  </tr>
</table>
  ",,,,,,,,,,,,,,,,,,,,,,,,,,,,
193,0,,html-keyboard-response,193,595676,0.0-7.8-3.8,dzd8zrg2sfi,2022-09-19 15:31:42.512,6229dbeebf010053193d5f4f,1,0,0,0,0,60,Female,,,"<p style=""font-size:50px"">You win!
+10 points this round!</p>",,,,,,,,,,,,,,,,,,,,,,,,,,,,
194,0,,html-keyboard-response,194,596198,0.0-7.8-4.8,dzd8zrg2sfi,2022-09-19 15:31:42.512,6229dbeebf010053193d5f4f,1,0,0,0,0,60,Female,,,,,1.0,choice,8.0,C,Xnc,black,red,bolts,stars,Xnc,C,Xnc,black,bolts,2877.5,0.0,0.0,1,left,1811.6000000238,4.0,0.0,1.0,,,,
195,0,,html-keyboard-response,195,598102,0.0-7.9-0.9,dzd8zrg2sfi,2022-09-19 15:31:42.512,6229dbeebf010053193d5f4f,1,0,0,0,0,60,Female,1901.3999999762,,"
  <table>
  <tr height=300>
    <td width=300 height=300><img src=""static/images/cards/stack_of_black_moons.svg"" width=""175px"" height=""250px""></img></td>
    <td width=300 height=300><img src=""static/images/cards/stack_of_black_bolts.svg"" width=""175px"" height=""250px""></img></td>
  </tr>
  <tr height=200>
    <td width=300><img src=""static/images/keys/w.svg"" width=""35%"" height=""75%""></img></td>
    <td width=300><img src=""static/images/keys/o.svg"" width=""35%"" height=""75%""></img></td>
  </tr>
</table>
  ",79.0,,,,,,,,,,,,,,,,,,,,,,,,,1.0,,
196,0,,html-keyboard-response,196,600383,0.0-7.9-1.9,dzd8zrg2sfi,2022-09-19 15:31:42.512,6229dbeebf010053193d5f4f,1,0,0,0,0,60,Female,1767.6999999881,,"
  <table>
  <tr height=300>
    <td width=300 height=300><img src=""static/images/cards/back_of_black_bolts.svg"" width=""175px"" height=""250px""></img></td>
    <td width=300 height=300><img src=""static/images/cards/back_of_black_bolts.svg"" width=""175px"" height=""250px""></img></td>
  </tr>
  <tr height=200>
    <td width=300><img src=""static/images/keys/z.svg"" width=""35%"" height=""75%""></img></td>
    <td width=300></td>
  </tr>
</table>
  ",90.0,,,,,,,,,,,,,,,,,,,,,,,,,1.0,,
197,0,,html-keyboard-response,197,601890,0.0-7.9-2.9,dzd8zrg2sfi,2022-09-19 15:31:42.512,6229dbeebf010053193d5f4f,1,0,0,0,0,60,Female,,,"
  <table>
  <tr height=300>
    <td width=300 height=300><img src=""static/images/cards/3_of_black_bolts.svg"" width=""175px"" height=""250px""></img></td>
    <td width=300 height=300><img src=""static/images/cards/back_of_black_bolts.svg"" width=""175px"" height=""250px""></img></td>
  </tr>
  <tr height=200>
    <td width=300><img src=""static/images/keys/z.svg"" width=""35%"" height=""75%""></img></td>
    <td width=300></td>
  </tr>
</table>
  ",,,,,,,,,,,,,,,,,,,,,,,,,,,,
198,0,,html-keyboard-response,198,603399,0.0-7.9-3.9,dzd8zrg2sfi,2022-09-19 15:31:42.512,6229dbeebf010053193d5f4f,1,0,0,0,0,60,Female,,,"<p style=""font-size:50px"">You win!
+10 points this round!</p>",,,,,,,,,,,,,,,,,,,,,,,,,,,,
199,0,,html-keyboard-response,199,603905,0.0-7.9-4.9,dzd8zrg2sfi,2022-09-19 15:31:42.512,6229dbeebf010053193d5f4f,1,0,0,0,0,60,Female,,,,,1.0,choice,9.0,B,Xnc,black,black,moons,bolts,B,Xnc,Xnc,black,bolts,1901.3999999762,0.0,0.0,1,left,1767.6999999881,3.0,0.0,1.0,,,,
200,0,,html-keyboard-response,200,606958,0.0-7.10-0.10,dzd8zrg2sfi,2022-09-19 15:31:42.512,6229dbeebf010053193d5f4f,1,0,0,0,0,60,Female,3049.9000000358,,"
  <table>
  <tr height=300>
    <td width=300 height=300><img src=""static/images/cards/stack_of_red_stars.svg"" width=""175px"" height=""250px""></img></td>
    <td width=300 height=300><img src=""static/images/cards/stack_of_red_moons.svg"" width=""175px"" height=""250px""></img></td>
  </tr>
  <tr height=200>
    <td width=300><img src=""static/images/keys/w.svg"" width=""35%"" height=""75%""></img></td>
    <td width=300><img src=""static/images/keys/o.svg"" width=""35%"" height=""75%""></img></td>
  </tr>
</table>
  ",79.0,,,,,,,,,,,,,,,,,,,,,,,,,1.0,,
201,0,,html-keyboard-response,201,608854,0.0-7.10-1.10,dzd8zrg2sfi,2022-09-19 15:31:42.512,6229dbeebf010053193d5f4f,1,0,0,0,0,60,Female,1384.1999999881,,"
  <table>
  <tr height=300>
    <td width=300 height=300><img src=""static/images/cards/back_of_red_moons.svg"" width=""175px"" height=""250px""></img></td>
    <td width=300 height=300><img src=""static/images/cards/back_of_red_moons.svg"" width=""175px"" height=""250px""></img></td>
  </tr>
  <tr height=200>
    <td width=300><img src=""static/images/keys/z.svg"" width=""35%"" height=""75%""></img></td>
    <td width=300><img src=""static/images/keys/m.svg"" width=""35%"" height=""75%""></img></td>
  </tr>
</table>
  ",77.0,,,,,,,,,,,,,,,,,,,,,,,,,1.0,,
202,0,,html-keyboard-response,202,610362,0.0-7.10-2.10,dzd8zrg2sfi,2022-09-19 15:31:42.512,6229dbeebf010053193d5f4f,1,0,0,0,0,60,Female,,,"
  <table>
  <tr height=300>
    <td width=300 height=300><img src=""static/images/cards/back_of_red_moons.svg"" width=""175px"" height=""250px""></img></td>
    <td width=300 height=300><img src=""static/images/cards/9_of_red_moons.svg"" width=""175px"" height=""250px""></img></td>
  </tr>
  <tr height=200>
    <td width=300><img src=""static/images/keys/z.svg"" width=""35%"" height=""75%""></img></td>
    <td width=300><img src=""static/images/keys/m.svg"" width=""35%"" height=""75%""></img></td>
  </tr>
</table>
  ",,,,,,,,,,,,,,,,,,,,,,,,,,,,
203,0,,html-keyboard-response,203,611869,0.0-7.10-3.10,dzd8zrg2sfi,2022-09-19 15:31:42.512,6229dbeebf010053193d5f4f,1,0,0,0,0,60,Female,,,"<p style=""font-size:50px"">You win!
+10 points this round!</p>",,,,,,,,,,,,,,,,,,,,,,,,,,,,
204,0,,html-keyboard-response,204,612380,0.0-7.10-4.10,dzd8zrg2sfi,2022-09-19 15:31:42.512,6229dbeebf010053193d5f4f,1,0,0,0,0,60,Female,,,,,1.0,choice,10.0,A,C,red,red,stars,moons,C,A,A,red,moons,3049.9000000358,1.0,1.0,NA,right,1384.1999999881,9.0,1.0,1.0,,,,
205,0,,html-keyboard-response,205,615670,0.0-7.11-0.11,dzd8zrg2sfi,2022-09-19 15:31:42.512,6229dbeebf010053193d5f4f,1,0,0,0,0,60,Female,3287.3999999762,,"
  <table>
  <tr height=300>
    <td width=300 height=300><img src=""static/images/cards/stack_of_black_stars.svg"" width=""175px"" height=""250px""></img></td>
    <td width=300 height=300><img src=""static/images/cards/stack_of_red_moons.svg"" width=""175px"" height=""250px""></img></td>
  </tr>
  <tr height=200>
    <td width=300><img src=""static/images/keys/w.svg"" width=""35%"" height=""75%""></img></td>
    <td width=300><img src=""static/images/keys/o.svg"" width=""35%"" height=""75%""></img></td>
  </tr>
</table>
  ",87.0,,,,,,,,,,,,,,,,,,,,,,,,,1.0,,
206,0,,html-keyboard-response,206,617974,0.0-7.11-1.11,dzd8zrg2sfi,2022-09-19 15:31:42.512,6229dbeebf010053193d5f4f,1,0,0,0,0,60,Female,1793.1000000238,,"
  <table>
  <tr height=300>
    <td width=300 height=300><img src=""static/images/cards/back_of_black_stars.svg"" width=""175px"" height=""250px""></img></td>
    <td width=300 height=300><img src=""static/images/cards/back_of_black_stars.svg"" width=""175px"" height=""250px""></img></td>
  </tr>
  <tr height=200>
    <td width=300><img src=""static/images/keys/z.svg"" width=""35%"" height=""75%""></img></td>
    <td width=300></td>
  </tr>
</table>
  ",90.0,,,,,,,,,,,,,,,,,,,,,,,,,1.0,,
207,0,,html-keyboard-response,207,619477,0.0-7.11-2.11,dzd8zrg2sfi,2022-09-19 15:31:42.512,6229dbeebf010053193d5f4f,1,0,0,0,0,60,Female,,,"
  <table>
  <tr height=300>
    <td width=300 height=300><img src=""static/images/cards/7_of_black_stars.svg"" width=""175px"" height=""250px""></img></td>
    <td width=300 height=300><img src=""static/images/cards/back_of_black_stars.svg"" width=""175px"" height=""250px""></img></td>
  </tr>
  <tr height=200>
    <td width=300><img src=""static/images/keys/z.svg"" width=""35%"" height=""75%""></img></td>
    <td width=300></td>
  </tr>
</table>
  ",,,,,,,,,,,,,,,,,,,,,,,,,,,,
208,0,,html-keyboard-response,208,620999,0.0-7.11-3.11,dzd8zrg2sfi,2022-09-19 15:31:42.512,6229dbeebf010053193d5f4f,1,0,0,0,0,60,Female,,,"<p style=""font-size:50px"">You win!
+10 points this round!</p>",,,,,,,,,,,,,,,,,,,,,,,,,,,,
209,0,,html-keyboard-response,209,621520,0.0-7.11-4.11,dzd8zrg2sfi,2022-09-19 15:31:42.512,6229dbeebf010053193d5f4f,1,0,0,0,0,60,Female,,,,,1.0,choice,11.0,A,D,black,red,stars,moons,D,A,D,black,stars,3287.3999999762,0.0,0.0,1,left,1793.1000000238,7.0,1.0,1.0,,,,
210,0,,html-keyboard-response,210,624830,0.0-7.12-0.12,dzd8zrg2sfi,2022-09-19 15:31:42.512,6229dbeebf010053193d5f4f,1,0,0,0,0,60,Female,3306.9000000358,,"
  <table>
  <tr height=300>
    <td width=300 height=300><img src=""static/images/cards/stack_of_black_moons.svg"" width=""175px"" height=""250px""></img></td>
    <td width=300 height=300><img src=""static/images/cards/stack_of_red_stars.svg"" width=""175px"" height=""250px""></img></td>
  </tr>
  <tr height=200>
    <td width=300><img src=""static/images/keys/w.svg"" width=""35%"" height=""75%""></img></td>
    <td width=300><img src=""static/images/keys/o.svg"" width=""35%"" height=""75%""></img></td>
  </tr>
</table>
  ",87.0,,,,,,,,,,,,,,,,,,,,,,,,,1.0,,
211,0,,html-keyboard-response,211,626511,0.0-7.12-1.12,dzd8zrg2sfi,2022-09-19 15:31:42.512,6229dbeebf010053193d5f4f,1,0,0,0,0,60,Female,1169.5,,"
  <table>
  <tr height=300>
    <td width=300 height=300><img src=""static/images/cards/back_of_black_moons.svg"" width=""175px"" height=""250px""></img></td>
    <td width=300 height=300><img src=""static/images/cards/back_of_black_moons.svg"" width=""175px"" height=""250px""></img></td>
  </tr>
  <tr height=200>
    <td width=300><img src=""static/images/keys/z.svg"" width=""35%"" height=""75%""></img></td>
    <td width=300></td>
  </tr>
</table>
  ",90.0,,,,,,,,,,,,,,,,,,,,,,,,,1.0,,
212,0,,html-keyboard-response,212,628021,0.0-7.12-2.12,dzd8zrg2sfi,2022-09-19 15:31:42.512,6229dbeebf010053193d5f4f,1,0,0,0,0,60,Female,,,"
  <table>
  <tr height=300>
    <td width=300 height=300><img src=""static/images/cards/4_of_black_moons.svg"" width=""175px"" height=""250px""></img></td>
    <td width=300 height=300><img src=""static/images/cards/back_of_black_moons.svg"" width=""175px"" height=""250px""></img></td>
  </tr>
  <tr height=200>
    <td width=300><img src=""static/images/keys/z.svg"" width=""35%"" height=""75%""></img></td>
    <td width=300></td>
  </tr>
</table>
  ",,,,,,,,,,,,,,,,,,,,,,,,,,,,
213,0,,html-keyboard-response,213,629538,0.0-7.12-3.12,dzd8zrg2sfi,2022-09-19 15:31:42.512,6229dbeebf010053193d5f4f,1,0,0,0,0,60,Female,,,"<p style=""font-size:50px"">You Lose!
No points this round.</p>",,,,,,,,,,,,,,,,,,,,,,,,,,,,
214,0,,html-keyboard-response,214,630047,0.0-7.12-4.12,dzd8zrg2sfi,2022-09-19 15:31:42.512,6229dbeebf010053193d5f4f,1,0,0,0,0,60,Female,,,,,1.0,choice,12.0,B,C,black,red,moons,stars,B,C,B,black,moons,3306.9000000358,0.0,1.0,1,left,1169.5,4.0,0.0,0.0,,,,
215,0,,html-keyboard-response,215,632063,0.0-7.13-0.13,dzd8zrg2sfi,2022-09-19 15:31:42.512,6229dbeebf010053193d5f4f,1,0,0,0,0,60,Female,2012.5,,"
  <table>
  <tr height=300>
    <td width=300 height=300><img src=""static/images/cards/stack_of_red_bolts.svg"" width=""175px"" height=""250px""></img></td>
    <td width=300 height=300><img src=""static/images/cards/stack_of_red_stars.svg"" width=""175px"" height=""250px""></img></td>
  </tr>
  <tr height=200>
    <td width=300><img src=""static/images/keys/w.svg"" width=""35%"" height=""75%""></img></td>
    <td width=300><img src=""static/images/keys/o.svg"" width=""35%"" height=""75%""></img></td>
  </tr>
</table>
  ",87.0,,,,,,,,,,,,,,,,,,,,,,,,,1.0,,
216,0,,html-keyboard-response,216,633758,0.0-7.13-1.13,dzd8zrg2sfi,2022-09-19 15:31:42.512,6229dbeebf010053193d5f4f,1,0,0,0,0,60,Female,1185.6999999881,,"
  <table>
  <tr height=300>
    <td width=300 height=300><img src=""static/images/cards/back_of_red_bolts.svg"" width=""175px"" height=""250px""></img></td>
    <td width=300 height=300><img src=""static/images/cards/back_of_red_bolts.svg"" width=""175px"" height=""250px""></img></td>
  </tr>
  <tr height=200>
    <td width=300><img src=""static/images/keys/z.svg"" width=""35%"" height=""75%""></img></td>
    <td width=300><img src=""static/images/keys/m.svg"" width=""35%"" height=""75%""></img></td>
  </tr>
</table>
  ",77.0,,,,,,,,,,,,,,,,,,,,,,,,,1.0,,
217,0,,html-keyboard-response,217,635270,0.0-7.13-2.13,dzd8zrg2sfi,2022-09-19 15:31:42.512,6229dbeebf010053193d5f4f,1,0,0,0,0,60,Female,,,"
  <table>
  <tr height=300>
    <td width=300 height=300><img src=""static/images/cards/back_of_red_bolts.svg"" width=""175px"" height=""250px""></img></td>
    <td width=300 height=300><img src=""static/images/cards/10_of_red_bolts.svg"" width=""175px"" height=""250px""></img></td>
  </tr>
  <tr height=200>
    <td width=300><img src=""static/images/keys/z.svg"" width=""35%"" height=""75%""></img></td>
    <td width=300><img src=""static/images/keys/m.svg"" width=""35%"" height=""75%""></img></td>
  </tr>
</table>
  ",,,,,,,,,,,,,,,,,,,,,,,,,,,,
218,0,,html-keyboard-response,218,636788,0.0-7.13-3.13,dzd8zrg2sfi,2022-09-19 15:31:42.512,6229dbeebf010053193d5f4f,1,0,0,0,0,60,Female,,,"<p style=""font-size:50px"">You win!
+10 points this round!</p>",,,,,,,,,,,,,,,,,,,,,,,,,,,,
219,0,,html-keyboard-response,219,637306,0.0-7.13-4.13,dzd8zrg2sfi,2022-09-19 15:31:42.512,6229dbeebf010053193d5f4f,1,0,0,0,0,60,Female,,,,,1.0,choice,13.0,C,Xc,red,red,bolts,stars,Xc,C,Xc,red,bolts,2012.5,1.0,0.0,NA,right,1185.6999999881,10.0,1.0,1.0,,,,
220,0,,html-keyboard-response,220,639303,0.0-7.14-0.14,dzd8zrg2sfi,2022-09-19 15:31:42.512,6229dbeebf010053193d5f4f,1,0,0,0,0,60,Female,1993.8999999762,,"
  <table>
  <tr height=300>
    <td width=300 height=300><img src=""static/images/cards/stack_of_black_stars.svg"" width=""175px"" height=""250px""></img></td>
    <td width=300 height=300><img src=""static/images/cards/stack_of_red_stars.svg"" width=""175px"" height=""250px""></img></td>
  </tr>
  <tr height=200>
    <td width=300><img src=""static/images/keys/w.svg"" width=""35%"" height=""75%""></img></td>
    <td width=300><img src=""static/images/keys/o.svg"" width=""35%"" height=""75%""></img></td>
  </tr>
</table>
  ",79.0,,,,,,,,,,,,,,,,,,,,,,,,,1.0,,
221,0,,html-keyboard-response,221,641438,0.0-7.14-1.14,dzd8zrg2sfi,2022-09-19 15:31:42.512,6229dbeebf010053193d5f4f,1,0,0,0,0,60,Female,1626.7999999523,,"
  <table>
  <tr height=300>
    <td width=300 height=300><img src=""static/images/cards/back_of_red_stars.svg"" width=""175px"" height=""250px""></img></td>
    <td width=300 height=300><img src=""static/images/cards/back_of_red_stars.svg"" width=""175px"" height=""250px""></img></td>
  </tr>
  <tr height=200>
    <td width=300><img src=""static/images/keys/z.svg"" width=""35%"" height=""75%""></img></td>
    <td width=300><img src=""static/images/keys/m.svg"" width=""35%"" height=""75%""></img></td>
  </tr>
</table>
  ",77.0,,,,,,,,,,,,,,,,,,,,,,,,,1.0,,
222,0,,html-keyboard-response,222,642949,0.0-7.14-2.14,dzd8zrg2sfi,2022-09-19 15:31:42.512,6229dbeebf010053193d5f4f,1,0,0,0,0,60,Female,,,"
  <table>
  <tr height=300>
    <td width=300 height=300><img src=""static/images/cards/back_of_red_stars.svg"" width=""175px"" height=""250px""></img></td>
    <td width=300 height=300><img src=""static/images/cards/6_of_red_stars.svg"" width=""175px"" height=""250px""></img></td>
  </tr>
  <tr height=200>
    <td width=300><img src=""static/images/keys/z.svg"" width=""35%"" height=""75%""></img></td>
    <td width=300><img src=""static/images/keys/m.svg"" width=""35%"" height=""75%""></img></td>
  </tr>
</table>
  ",,,,,,,,,,,,,,,,,,,,,,,,,,,,
223,0,,html-keyboard-response,223,644462,0.0-7.14-3.14,dzd8zrg2sfi,2022-09-19 15:31:42.512,6229dbeebf010053193d5f4f,1,0,0,0,0,60,Female,,,"<p style=""font-size:50px"">You Lose!
No points this round.</p>",,,,,,,,,,,,,,,,,,,,,,,,,,,,
224,0,,html-keyboard-response,224,644968,0.0-7.14-4.14,dzd8zrg2sfi,2022-09-19 15:31:42.512,6229dbeebf010053193d5f4f,1,0,0,0,0,60,Female,,,,,1.0,choice,14.0,C,D,black,red,stars,stars,D,C,C,red,stars,1993.8999999762,1.0,0.0,NA,right,1626.7999999523,6.0,1.0,0.0,,,,
225,0,,html-keyboard-response,225,647438,0.0-7.15-0.15,dzd8zrg2sfi,2022-09-19 15:31:42.512,6229dbeebf010053193d5f4f,1,0,0,0,0,60,Female,2466.8999999762,,"
  <table>
  <tr height=300>
    <td width=300 height=300><img src=""static/images/cards/stack_of_black_stars.svg"" width=""175px"" height=""250px""></img></td>
    <td width=300 height=300><img src=""static/images/cards/stack_of_red_moons.svg"" width=""175px"" height=""250px""></img></td>
  </tr>
  <tr height=200>
    <td width=300><img src=""static/images/keys/w.svg"" width=""35%"" height=""75%""></img></td>
    <td width=300><img src=""static/images/keys/o.svg"" width=""35%"" height=""75%""></img></td>
  </tr>
</table>
  ",87.0,,,,,,,,,,,,,,,,,,,,,,,,,1.0,,
226,0,,html-keyboard-response,226,650023,0.0-7.15-1.15,dzd8zrg2sfi,2022-09-19 15:31:42.512,6229dbeebf010053193d5f4f,1,0,0,0,0,60,Female,2073.1999999881,,"
  <table>
  <tr height=300>
    <td width=300 height=300><img src=""static/images/cards/back_of_black_stars.svg"" width=""175px"" height=""250px""></img></td>
    <td width=300 height=300><img src=""static/images/cards/back_of_black_stars.svg"" width=""175px"" height=""250px""></img></td>
  </tr>
  <tr height=200>
    <td width=300><img src=""static/images/keys/z.svg"" width=""35%"" height=""75%""></img></td>
    <td width=300></td>
  </tr>
</table>
  ",90.0,,,,,,,,,,,,,,,,,,,,,,,,,1.0,,
227,0,,html-keyboard-response,227,651529,0.0-7.15-2.15,dzd8zrg2sfi,2022-09-19 15:31:42.512,6229dbeebf010053193d5f4f,1,0,0,0,0,60,Female,,,"
  <table>
  <tr height=300>
    <td width=300 height=300><img src=""static/images/cards/10_of_black_stars.svg"" width=""175px"" height=""250px""></img></td>
    <td width=300 height=300><img src=""static/images/cards/back_of_black_stars.svg"" width=""175px"" height=""250px""></img></td>
  </tr>
  <tr height=200>
    <td width=300><img src=""static/images/keys/z.svg"" width=""35%"" height=""75%""></img></td>
    <td width=300></td>
  </tr>
</table>
  ",,,,,,,,,,,,,,,,,,,,,,,,,,,,
228,0,,html-keyboard-response,228,653043,0.0-7.15-3.15,dzd8zrg2sfi,2022-09-19 15:31:42.512,6229dbeebf010053193d5f4f,1,0,0,0,0,60,Female,,,"<p style=""font-size:50px"">You win!
+10 points this round!</p>",,,,,,,,,,,,,,,,,,,,,,,,,,,,
229,0,,html-keyboard-response,229,653565,0.0-7.15-4.15,dzd8zrg2sfi,2022-09-19 15:31:42.512,6229dbeebf010053193d5f4f,1,0,0,0,0,60,Female,,,,,1.0,choice,15.0,A,D,black,red,stars,moons,D,A,D,black,stars,2466.8999999762,0.0,0.0,1,left,2073.1999999881,10.0,1.0,1.0,,,,
230,0,,html-keyboard-response,230,656685,0.0-7.16-0.16,dzd8zrg2sfi,2022-09-19 15:31:42.512,6229dbeebf010053193d5f4f,1,0,0,0,0,60,Female,3117.3999999762,,"
  <table>
  <tr height=300>
    <td width=300 height=300><img src=""static/images/cards/stack_of_black_moons.svg"" width=""175px"" height=""250px""></img></td>
    <td width=300 height=300><img src=""static/images/cards/stack_of_black_stars.svg"" width=""175px"" height=""250px""></img></td>
  </tr>
  <tr height=200>
    <td width=300><img src=""static/images/keys/w.svg"" width=""35%"" height=""75%""></img></td>
    <td width=300><img src=""static/images/keys/o.svg"" width=""35%"" height=""75%""></img></td>
  </tr>
</table>
  ",79.0,,,,,,,,,,,,,,,,,,,,,,,,,1.0,,
231,0,,html-keyboard-response,231,658676,0.0-7.16-1.16,dzd8zrg2sfi,2022-09-19 15:31:42.512,6229dbeebf010053193d5f4f,1,0,0,0,0,60,Female,1483.8000000119,,"
  <table>
  <tr height=300>
    <td width=300 height=300><img src=""static/images/cards/back_of_black_stars.svg"" width=""175px"" height=""250px""></img></td>
    <td width=300 height=300><img src=""static/images/cards/back_of_black_stars.svg"" width=""175px"" height=""250px""></img></td>
  </tr>
  <tr height=200>
    <td width=300><img src=""static/images/keys/z.svg"" width=""35%"" height=""75%""></img></td>
    <td width=300></td>
  </tr>
</table>
  ",90.0,,,,,,,,,,,,,,,,,,,,,,,,,1.0,,
232,0,,html-keyboard-response,232,660180,0.0-7.16-2.16,dzd8zrg2sfi,2022-09-19 15:31:42.512,6229dbeebf010053193d5f4f,1,0,0,0,0,60,Female,,,"
  <table>
  <tr height=300>
    <td width=300 height=300><img src=""static/images/cards/2_of_black_stars.svg"" width=""175px"" height=""250px""></img></td>
    <td width=300 height=300><img src=""static/images/cards/back_of_black_stars.svg"" width=""175px"" height=""250px""></img></td>
  </tr>
  <tr height=200>
    <td width=300><img src=""static/images/keys/z.svg"" width=""35%"" height=""75%""></img></td>
    <td width=300></td>
  </tr>
</table>
  ",,,,,,,,,,,,,,,,,,,,,,,,,,,,
233,0,,html-keyboard-response,233,661696,0.0-7.16-3.16,dzd8zrg2sfi,2022-09-19 15:31:42.512,6229dbeebf010053193d5f4f,1,0,0,0,0,60,Female,,,"<p style=""font-size:50px"">You Lose!
No points this round.</p>",,,,,,,,,,,,,,,,,,,,,,,,,,,,
234,0,,html-keyboard-response,234,662214,0.0-7.16-4.16,dzd8zrg2sfi,2022-09-19 15:31:42.512,6229dbeebf010053193d5f4f,1,0,0,0,0,60,Female,,,,,1.0,choice,16.0,B,D,black,black,moons,stars,B,D,D,black,stars,3117.3999999762,0.0,0.0,1,left,1483.8000000119,2.0,0.0,0.0,,,,
235,0,,html-keyboard-response,235,664671,0.0-7.17-0.17,dzd8zrg2sfi,2022-09-19 15:31:42.512,6229dbeebf010053193d5f4f,1,0,0,0,0,60,Female,2454.5999999642,,"
  <table>
  <tr height=300>
    <td width=300 height=300><img src=""static/images/cards/stack_of_black_stars.svg"" width=""175px"" height=""250px""></img></td>
    <td width=300 height=300><img src=""static/images/cards/stack_of_black_moons.svg"" width=""175px"" height=""250px""></img></td>
  </tr>
  <tr height=200>
    <td width=300><img src=""static/images/keys/w.svg"" width=""35%"" height=""75%""></img></td>
    <td width=300><img src=""static/images/keys/o.svg"" width=""35%"" height=""75%""></img></td>
  </tr>
</table>
  ",87.0,,,,,,,,,,,,,,,,,,,,,,,,,1.0,,
236,0,,html-keyboard-response,236,666598,0.0-7.17-1.17,dzd8zrg2sfi,2022-09-19 15:31:42.512,6229dbeebf010053193d5f4f,1,0,0,0,0,60,Female,1409.0999999642,,"
  <table>
  <tr height=300>
    <td width=300 height=300><img src=""static/images/cards/back_of_black_stars.svg"" width=""175px"" height=""250px""></img></td>
