,index,success,trial_type,trial_index,time_elapsed,internal_node_id,subject,date,prol_id,ctbl,sense_of_control_A,sense_of_control_B,sense_of_control_C,sense_of_control_D,age,gender,rt,url,stimulus,key_press,npress,is_data_trial,phase,trial,deck1,deck2,col1,col2,sym1,sym2,deck_l,deck_r,chosen_deck,chosen_col,chosen_sym,deck_rt,choose_choice,mutual_info,hidden_key,chosen_card,card_rt,player_num,win_card,outcome,mock_rating,response,responses
0,0,1.0,fullscreen,0,5861,0.0-0.0,yth695mh23i,2022-09-19 17:57:35.035,608078f433346dd7a841b511,1,82,0,1,4,37,female,,,,,,,,,,,,,,,,,,,,,,,,,,,,,,,
1,0,,external-html,1,9882,0.0-1.0,yth695mh23i,2022-09-19 17:57:35.035,608078f433346dd7a841b511,1,82,0,1,4,37,female,3811.5,static/js/sub/consent.html,,,,,,,,,,,,,,,,,,,,,,,,,,,,,
2,0,,call-function,2,9883,0.0-2.0,yth695mh23i,2022-09-19 17:57:35.035,608078f433346dd7a841b511,1,82,0,1,4,37,female,,,,,,,,,,,,,,,,,,,,,,,,,,,,,,,
3,0,,image-keyboard-response,3,16403,0.0-3.0-0.0,yth695mh23i,2022-09-19 17:57:35.035,608078f433346dd7a841b511,1,82,0,1,4,37,female,6518.2999999523,,static/images/instructions_CB_1/Slide1.png,39.0,,,,,,,,,,,,,,,,,,,,,,,,,,,
4,0,,image-keyboard-response,4,25680,0.0-3.1-0.1,yth695mh23i,2022-09-19 17:57:35.035,608078f433346dd7a841b511,1,82,0,1,4,37,female,9274.3999999762,,static/images/instructions_CB_1/Slide2.png,39.0,,,,,,,,,,,,,,,,,,,,,,,,,,,
5,0,,image-keyboard-response,5,30496,0.0-3.2-0.2,yth695mh23i,2022-09-19 17:57:35.035,608078f433346dd7a841b511,1,82,0,1,4,37,female,4813.5999999642,,static/images/instructions_CB_1/Slide3.png,39.0,,,,,,,,,,,,,,,,,,,,,,,,,,,
6,0,,image-keyboard-response,6,36864,0.0-3.3-0.3,yth695mh23i,2022-09-19 17:57:35.035,608078f433346dd7a841b511,1,82,0,1,4,37,female,6365.6999999881,,static/images/instructions_CB_1/Slide4.png,39.0,,,,,,,,,,,,,,,,,,,,,,,,,,,
7,0,,image-keyboard-response,7,44512,0.0-3.4-0.4,yth695mh23i,2022-09-19 17:57:35.035,608078f433346dd7a841b511,1,82,0,1,4,37,female,7646.4000000358,,static/images/instructions_CB_1/Slide5.png,39.0,,,,,,,,,,,,,,,,,,,,,,,,,,,
8,0,,image-keyboard-response,8,46304,0.0-3.5-0.5,yth695mh23i,2022-09-19 17:57:35.035,608078f433346dd7a841b511,1,82,0,1,4,37,female,1789.8000000119,,static/images/instructions_CB_1/Slide6.png,39.0,,,,,,,,,,,,,,,,,,,,,,,,,,,
9,0,,image-keyboard-response,9,51248,0.0-3.6-0.6,yth695mh23i,2022-09-19 17:57:35.035,608078f433346dd7a841b511,1,82,0,1,4,37,female,4942.1999999881,,static/images/instructions_CB_1/Slide7.png,39.0,,,,,,,,,,,,,,,,,,,,,,,,,,,
10,0,,image-keyboard-response,10,62336,0.0-3.7-0.7,yth695mh23i,2022-09-19 17:57:35.035,608078f433346dd7a841b511,1,82,0,1,4,37,female,11086.6000000238,,static/images/instructions_CB_1/Slide8.png,39.0,,,,,,,,,,,,,,,,,,,,,,,,,,,
11,0,,image-keyboard-response,11,72480,0.0-3.8-0.8,yth695mh23i,2022-09-19 17:57:35.035,608078f433346dd7a841b511,1,82,0,1,4,37,female,10142.1000000238,,static/images/instructions_CB_1/Slide9.png,39.0,,,,,,,,,,,,,,,,,,,,,,,,,,,
12,0,,image-keyboard-response,12,81616,0.0-3.9-0.9,yth695mh23i,2022-09-19 17:57:35.035,608078f433346dd7a841b511,1,82,0,1,4,37,female,9133.5999999642,,static/images/instructions_CB_1/Slide10.png,39.0,,,,,,,,,,,,,,,,,,,,,,,,,,,
13,0,,image-keyboard-response,13,89712,0.0-3.10-0.10,yth695mh23i,2022-09-19 17:57:35.035,608078f433346dd7a841b511,1,82,0,1,4,37,female,8094.5,,static/images/instructions_CB_1/Slide11.png,39.0,,,,,,,,,,,,,,,,,,,,,,,,,,,
14,0,,image-keyboard-response,14,102224,0.0-3.11-0.11,yth695mh23i,2022-09-19 17:57:35.035,608078f433346dd7a841b511,1,82,0,1,4,37,female,12510.3999999762,,static/images/instructions_CB_1/Slide12.png,39.0,,,,,,,,,,,,,,,,,,,,,,,,,,,
15,0,,image-keyboard-response,15,116400,0.0-3.12-0.12,yth695mh23i,2022-09-19 17:57:35.035,608078f433346dd7a841b511,1,82,0,1,4,37,female,14174.3000000119,,static/images/instructions_CB_1/Slide13.png,39.0,,,,,,,,,,,,,,,,,,,,,,,,,,,
16,0,,image-keyboard-response,16,120592,0.0-3.13-0.13,yth695mh23i,2022-09-19 17:57:35.035,608078f433346dd7a841b511,1,82,0,1,4,37,female,4190.1000000238,,static/images/instructions_CB_1/Slide14.png,39.0,,,,,,,,,,,,,,,,,,,,,,,,,,,
17,0,,image-keyboard-response,17,127408,0.0-3.14-0.14,yth695mh23i,2022-09-19 17:57:35.035,608078f433346dd7a841b511,1,82,0,1,4,37,female,6814.5999999642,,static/images/instructions_CB_1/Slide15.png,39.0,,,,,,,,,,,,,,,,,,,,,,,,,,,
18,0,,image-keyboard-response,18,140688,0.0-3.15-0.15,yth695mh23i,2022-09-19 17:57:35.035,608078f433346dd7a841b511,1,82,0,1,4,37,female,13278.5,,static/images/instructions_CB_1/Slide16.png,39.0,,,,,,,,,,,,,,,,,,,,,,,,,,,
19,0,,image-keyboard-response,19,150737,0.0-3.16-0.16,yth695mh23i,2022-09-19 17:57:35.035,608078f433346dd7a841b511,1,82,0,1,4,37,female,10046.4000000358,,static/images/instructions_CB_1/Slide17.png,39.0,,,,,,,,,,,,,,,,,,,,,,,,,,,
20,0,,image-keyboard-response,20,161121,0.0-3.17-0.17,yth695mh23i,2022-09-19 17:57:35.035,608078f433346dd7a841b511,1,82,0,1,4,37,female,10382.4000000358,,static/images/instructions_CB_1/Slide18.png,39.0,,,,,,,,,,,,,,,,,,,,,,,,,,,
21,0,,image-keyboard-response,21,168512,0.0-3.18-0.18,yth695mh23i,2022-09-19 17:57:35.035,608078f433346dd7a841b511,1,82,0,1,4,37,female,7390.1999999881,,static/images/instructions_CB_1/Slide19.png,39.0,,,,,,,,,,,,,,,,,,,,,,,,,,,
22,0,,html-keyboard-response,22,170028,0.0-4.0-0.0,yth695mh23i,2022-09-19 17:57:35.035,608078f433346dd7a841b511,1,82,0,1,4,37,female,,,"<img src=""static/images/cards/stack_of_red_moons.svg"" width=""175px"" height=""250px""></img>",,,,,,,,,,,,,,,,,,,,,,,,,,,,
23,0,,html-keyboard-response,23,172625,0.0-4.0-1.0,yth695mh23i,2022-09-19 17:57:35.035,608078f433346dd7a841b511,1,82,0,1,4,37,female,2084.7999999523,,"
  <table>
  <tr height=300>
    <td width=300 height=300><img src=""static/images/cards/back_of_red_moons.svg"" width=""175px"" height=""250px""></img></td>
    <td width=300 height=300><img src=""static/images/cards/back_of_red_moons.svg"" width=""175px"" height=""250px""></img></td>
  </tr>
  <tr height=200>
    <td width=300><img src=""static/images/keys/z.svg"" width=""35%"" height=""75%""></img></td>
    <td width=300><img src=""static/images/keys/m.svg"" width=""35%"" height=""75%""></img></td>
  </tr>
</table>
  ",77.0,1.0,,,,,,,,,,,,,,,,,,,,,,,,,,
24,0,,html-keyboard-response,24,174130,0.0-4.0-2.0,yth695mh23i,2022-09-19 17:57:35.035,608078f433346dd7a841b511,1,82,0,1,4,37,female,,,"
  <table>
  <tr height=300>
    <td width=300 height=300><img src=""static/images/cards/back_of_red_moons.svg"" width=""175px"" height=""250px""></img></td>
    <td width=300 height=300><img src=""static/images/cards/9_of_red_moons.svg"" width=""175px"" height=""250px""></img></td>
  </tr>
  <tr height=200>
    <td width=300><img src=""static/images/keys/z.svg"" width=""35%"" height=""75%""></img></td>
    <td width=300><img src=""static/images/keys/m.svg"" width=""35%"" height=""75%""></img></td>
  </tr>
</table>
  ",,,,,,,,,,,,,,,,,,,,,,,,,,,,
25,0,,html-keyboard-response,25,175643,0.0-4.0-3.0,yth695mh23i,2022-09-19 17:57:35.035,608078f433346dd7a841b511,1,82,0,1,4,37,female,,,"<p style=""font-size:50px"">You win!
+10 points this round!</p>",,,,,,,,,,,,,,,,,,,,,,,,,,,,
26,0,,html-keyboard-response,26,176155,0.0-4.0-4.0,yth695mh23i,2022-09-19 17:57:35.035,608078f433346dd7a841b511,1,82,0,1,4,37,female,,,,,,1.0,learning,0.0,A,,red,,moons,,,,A,red,moons,,1.0,1.0,NA,right,2084.7999999523,9.0,1.0,1.0,,,
27,0,,html-keyboard-response,27,177668,0.0-4.1-0.1,yth695mh23i,2022-09-19 17:57:35.035,608078f433346dd7a841b511,1,82,0,1,4,37,female,,,"<img src=""static/images/cards/stack_of_black_moons.svg"" width=""175px"" height=""250px""></img>",,,,,,,,,,,,,,,,,,,,,,,,,,,,
28,0,,html-keyboard-response,28,179568,0.0-4.1-1.1,yth695mh23i,2022-09-19 17:57:35.035,608078f433346dd7a841b511,1,82,0,1,4,37,female,1384.1999999881,,"
  <table>
  <tr height=300>
    <td width=300 height=300><img src=""static/images/cards/back_of_black_moons.svg"" width=""175px"" height=""250px""></img></td>
    <td width=300 height=300><img src=""static/images/cards/back_of_black_moons.svg"" width=""175px"" height=""250px""></img></td>
  </tr>
  <tr height=200>
    <td width=300><img src=""static/images/keys/z.svg"" width=""35%"" height=""75%""></img></td>
    <td width=300></td>
  </tr>
</table>
  ",90.0,1.0,,,,,,,,,,,,,,,,,,,,,,,,,,
29,0,,html-keyboard-response,29,181083,0.0-4.1-2.1,yth695mh23i,2022-09-19 17:57:35.035,608078f433346dd7a841b511,1,82,0,1,4,37,female,,,"
  <table>
  <tr height=300>
    <td width=300 height=300><img src=""static/images/cards/4_of_black_moons.svg"" width=""175px"" height=""250px""></img></td>
    <td width=300 height=300><img src=""static/images/cards/back_of_black_moons.svg"" width=""175px"" height=""250px""></img></td>
  </tr>
  <tr height=200>
    <td width=300><img src=""static/images/keys/z.svg"" width=""35%"" height=""75%""></img></td>
    <td width=300></td>
  </tr>
</table>
  ",,,,,,,,,,,,,,,,,,,,,,,,,,,,
30,0,,html-keyboard-response,30,182596,0.0-4.1-3.1,yth695mh23i,2022-09-19 17:57:35.035,608078f433346dd7a841b511,1,82,0,1,4,37,female,,,"<p style=""font-size:50px"">You Lose!
No points this round.</p>",,,,,,,,,,,,,,,,,,,,,,,,,,,,
31,0,,html-keyboard-response,31,183112,0.0-4.1-4.1,yth695mh23i,2022-09-19 17:57:35.035,608078f433346dd7a841b511,1,82,0,1,4,37,female,,,,,,1.0,learning,1.0,B,,black,,moons,,,,B,black,moons,,0.0,1.0,1,left,1384.1999999881,4.0,0.0,0.0,,,
32,0,,html-keyboard-response,32,184623,0.0-4.2-0.2,yth695mh23i,2022-09-19 17:57:35.035,608078f433346dd7a841b511,1,82,0,1,4,37,female,,,"<img src=""static/images/cards/stack_of_red_stars.svg"" width=""175px"" height=""250px""></img>",,,,,,,,,,,,,,,,,,,,,,,,,,,,
33,0,,html-keyboard-response,33,186417,0.0-4.2-1.2,yth695mh23i,2022-09-19 17:57:35.035,608078f433346dd7a841b511,1,82,0,1,4,37,female,1283.3000000119,,"
  <table>
  <tr height=300>
    <td width=300 height=300><img src=""static/images/cards/back_of_red_stars.svg"" width=""175px"" height=""250px""></img></td>
    <td width=300 height=300><img src=""static/images/cards/back_of_red_stars.svg"" width=""175px"" height=""250px""></img></td>
  </tr>
  <tr height=200>
    <td width=300><img src=""static/images/keys/z.svg"" width=""35%"" height=""75%""></img></td>
    <td width=300><img src=""static/images/keys/m.svg"" width=""35%"" height=""75%""></img></td>
  </tr>
</table>
  ",77.0,1.0,,,,,,,,,,,,,,,,,,,,,,,,,,
34,0,,html-keyboard-response,34,187934,0.0-4.2-2.2,yth695mh23i,2022-09-19 17:57:35.035,608078f433346dd7a841b511,1,82,0,1,4,37,female,,,"
  <table>
  <tr height=300>
    <td width=300 height=300><img src=""static/images/cards/back_of_red_stars.svg"" width=""175px"" height=""250px""></img></td>
    <td width=300 height=300><img src=""static/images/cards/7_of_red_stars.svg"" width=""175px"" height=""250px""></img></td>
  </tr>
  <tr height=200>
    <td width=300><img src=""static/images/keys/z.svg"" width=""35%"" height=""75%""></img></td>
    <td width=300><img src=""static/images/keys/m.svg"" width=""35%"" height=""75%""></img></td>
  </tr>
</table>
  ",,,,,,,,,,,,,,,,,,,,,,,,,,,,
35,0,,html-keyboard-response,35,189452,0.0-4.2-3.2,yth695mh23i,2022-09-19 17:57:35.035,608078f433346dd7a841b511,1,82,0,1,4,37,female,,,"<p style=""font-size:50px"">You Lose!
No points this round.</p>",,,,,,,,,,,,,,,,,,,,,,,,,,,,
36,0,,html-keyboard-response,36,189973,0.0-4.2-4.2,yth695mh23i,2022-09-19 17:57:35.035,608078f433346dd7a841b511,1,82,0,1,4,37,female,,,,,,1.0,learning,2.0,C,,red,,stars,,,,C,red,stars,,1.0,0.0,NA,right,1283.3000000119,7.0,1.0,0.0,,,
37,0,,html-keyboard-response,37,191484,0.0-4.3-0.3,yth695mh23i,2022-09-19 17:57:35.035,608078f433346dd7a841b511,1,82,0,1,4,37,female,,,"<img src=""static/images/cards/stack_of_black_stars.svg"" width=""175px"" height=""250px""></img>",,,,,,,,,,,,,,,,,,,,,,,,,,,,
38,0,,html-keyboard-response,38,193072,0.0-4.3-1.3,yth695mh23i,2022-09-19 17:57:35.035,608078f433346dd7a841b511,1,82,0,1,4,37,female,1078.5,,"
  <table>
  <tr height=300>
    <td width=300 height=300><img src=""static/images/cards/back_of_black_stars.svg"" width=""175px"" height=""250px""></img></td>
    <td width=300 height=300><img src=""static/images/cards/back_of_black_stars.svg"" width=""175px"" height=""250px""></img></td>
  </tr>
  <tr height=200>
    <td width=300></td>
    <td width=300><img src=""static/images/keys/m.svg"" width=""35%"" height=""75%""></img></td>
  </tr>
</table>
  ",77.0,1.0,,,,,,,,,,,,,,,,,,,,,,,,,,
39,0,,html-keyboard-response,39,194578,0.0-4.3-2.3,yth695mh23i,2022-09-19 17:57:35.035,608078f433346dd7a841b511,1,82,0,1,4,37,female,,,"
  <table>
  <tr height=300>
    <td width=300 height=300><img src=""static/images/cards/back_of_black_stars.svg"" width=""175px"" height=""250px""></img></td>
    <td width=300 height=300><img src=""static/images/cards/8_of_black_stars.svg"" width=""175px"" height=""250px""></img></td>
  </tr>
  <tr height=200>
    <td width=300></td>
    <td width=300><img src=""static/images/keys/m.svg"" width=""35%"" height=""75%""></img></td>
  </tr>
</table>
  ",,,,,,,,,,,,,,,,,,,,,,,,,,,,
40,0,,html-keyboard-response,40,196093,0.0-4.3-3.3,yth695mh23i,2022-09-19 17:57:35.035,608078f433346dd7a841b511,1,82,0,1,4,37,female,,,"<p style=""font-size:50px"">You win!
+10 points this round!</p>",,,,,,,,,,,,,,,,,,,,,,,,,,,,
41,0,,html-keyboard-response,41,196609,0.0-4.3-4.3,yth695mh23i,2022-09-19 17:57:35.035,608078f433346dd7a841b511,1,82,0,1,4,37,female,,,,,,1.0,learning,3.0,D,,black,,stars,,,,D,black,stars,,0.0,0.0,0,right,1078.5,8.0,1.0,1.0,,,
42,0,,html-keyboard-response,42,198111,0.0-4.4-0.4,yth695mh23i,2022-09-19 17:57:35.035,608078f433346dd7a841b511,1,82,0,1,4,37,female,,,"<img src=""static/images/cards/stack_of_red_bolts.svg"" width=""175px"" height=""250px""></img>",,,,,,,,,,,,,,,,,,,,,,,,,,,,
43,0,,html-keyboard-response,43,199840,0.0-4.4-1.4,yth695mh23i,2022-09-19 17:57:35.035,608078f433346dd7a841b511,1,82,0,1,4,37,female,1221.6000000238,,"
  <table>
  <tr height=300>
    <td width=300 height=300><img src=""static/images/cards/back_of_red_bolts.svg"" width=""175px"" height=""250px""></img></td>
    <td width=300 height=300><img src=""static/images/cards/back_of_red_bolts.svg"" width=""175px"" height=""250px""></img></td>
  </tr>
  <tr height=200>
    <td width=300><img src=""static/images/keys/z.svg"" width=""35%"" height=""75%""></img></td>
    <td width=300><img src=""static/images/keys/m.svg"" width=""35%"" height=""75%""></img></td>
  </tr>
</table>
  ",90.0,1.0,,,,,,,,,,,,,,,,,,,,,,,,,,
44,0,,html-keyboard-response,44,201353,0.0-4.4-2.4,yth695mh23i,2022-09-19 17:57:35.035,608078f433346dd7a841b511,1,82,0,1,4,37,female,,,"
  <table>
  <tr height=300>
    <td width=300 height=300><img src=""static/images/cards/1_of_red_bolts.svg"" width=""175px"" height=""250px""></img></td>
    <td width=300 height=300><img src=""static/images/cards/back_of_red_bolts.svg"" width=""175px"" height=""250px""></img></td>
  </tr>
  <tr height=200>
    <td width=300><img src=""static/images/keys/z.svg"" width=""35%"" height=""75%""></img></td>
    <td width=300><img src=""static/images/keys/m.svg"" width=""35%"" height=""75%""></img></td>
  </tr>
</table>
  ",,,,,,,,,,,,,,,,,,,,,,,,,,,,
45,0,,html-keyboard-response,45,202869,0.0-4.4-3.4,yth695mh23i,2022-09-19 17:57:35.035,608078f433346dd7a841b511,1,82,0,1,4,37,female,,,"<p style=""font-size:50px"">You win!
+10 points this round!</p>",,,,,,,,,,,,,,,,,,,,,,,,,,,,
46,0,,html-keyboard-response,46,203384,0.0-4.4-4.4,yth695mh23i,2022-09-19 17:57:35.035,608078f433346dd7a841b511,1,82,0,1,4,37,female,,,,,,1.0,learning,4.0,Xc,,red,,bolts,,,,Xc,red,bolts,,1.0,0.0,NA,left,1221.6000000238,1.0,0.0,1.0,,,
47,0,,html-keyboard-response,47,204890,0.0-4.5-0.5,yth695mh23i,2022-09-19 17:57:35.035,608078f433346dd7a841b511,1,82,0,1,4,37,female,,,"<img src=""static/images/cards/stack_of_black_bolts.svg"" width=""175px"" height=""250px""></img>",,,,,,,,,,,,,,,,,,,,,,,,,,,,
48,0,,html-keyboard-response,48,206592,0.0-4.5-1.5,yth695mh23i,2022-09-19 17:57:35.035,608078f433346dd7a841b511,1,82,0,1,4,37,female,1190.5,,"
  <table>
  <tr height=300>
    <td width=300 height=300><img src=""static/images/cards/back_of_black_bolts.svg"" width=""175px"" height=""250px""></img></td>
    <td width=300 height=300><img src=""static/images/cards/back_of_black_bolts.svg"" width=""175px"" height=""250px""></img></td>
  </tr>
  <tr height=200>
    <td width=300><img src=""static/images/keys/z.svg"" width=""35%"" height=""75%""></img></td>
    <td width=300></td>
  </tr>
</table>
  ",90.0,1.0,,,,,,,,,,,,,,,,,,,,,,,,,,
49,0,,html-keyboard-response,49,208105,0.0-4.5-2.5,yth695mh23i,2022-09-19 17:57:35.035,608078f433346dd7a841b511,1,82,0,1,4,37,female,,,"
  <table>
  <tr height=300>
    <td width=300 height=300><img src=""static/images/cards/3_of_black_bolts.svg"" width=""175px"" height=""250px""></img></td>
    <td width=300 height=300><img src=""static/images/cards/back_of_black_bolts.svg"" width=""175px"" height=""250px""></img></td>
  </tr>
  <tr height=200>
    <td width=300><img src=""static/images/keys/z.svg"" width=""35%"" height=""75%""></img></td>
    <td width=300></td>
  </tr>
</table>
  ",,,,,,,,,,,,,,,,,,,,,,,,,,,,
50,0,,html-keyboard-response,50,209624,0.0-4.5-3.5,yth695mh23i,2022-09-19 17:57:35.035,608078f433346dd7a841b511,1,82,0,1,4,37,female,,,"<p style=""font-size:50px"">You win!
+10 points this round!</p>",,,,,,,,,,,,,,,,,,,,,,,,,,,,
51,0,,html-keyboard-response,51,210140,0.0-4.5-4.5,yth695mh23i,2022-09-19 17:57:35.035,608078f433346dd7a841b511,1,82,0,1,4,37,female,,,,,,1.0,learning,5.0,Xnc,,black,,bolts,,,,Xnc,black,bolts,,0.0,0.0,1,left,1190.5,3.0,0.0,1.0,,,
52,0,,html-keyboard-response,52,211652,0.0-4.6-0.6,yth695mh23i,2022-09-19 17:57:35.035,608078f433346dd7a841b511,1,82,0,1,4,37,female,,,"<img src=""static/images/cards/stack_of_red_moons.svg"" width=""175px"" height=""250px""></img>",,,,,,,,,,,,,,,,,,,,,,,,,,,,
53,0,,html-keyboard-response,53,213026,0.0-4.6-1.6,yth695mh23i,2022-09-19 17:57:35.035,608078f433346dd7a841b511,1,82,0,1,4,37,female,862.5,,"
  <table>
  <tr height=300>
    <td width=300 height=300><img src=""static/images/cards/back_of_red_moons.svg"" width=""175px"" height=""250px""></img></td>
    <td width=300 height=300><img src=""static/images/cards/back_of_red_moons.svg"" width=""175px"" height=""250px""></img></td>
  </tr>
  <tr height=200>
    <td width=300><img src=""static/images/keys/z.svg"" width=""35%"" height=""75%""></img></td>
    <td width=300><img src=""static/images/keys/m.svg"" width=""35%"" height=""75%""></img></td>
  </tr>
</table>
  ",77.0,1.0,,,,,,,,,,,,,,,,,,,,,,,,,,
54,0,,html-keyboard-response,54,214530,0.0-4.6-2.6,yth695mh23i,2022-09-19 17:57:35.035,608078f433346dd7a841b511,1,82,0,1,4,37,female,,,"
  <table>
  <tr height=300>
    <td width=300 height=300><img src=""static/images/cards/back_of_red_moons.svg"" width=""175px"" height=""250px""></img></td>
    <td width=300 height=300><img src=""static/images/cards/9_of_red_moons.svg"" width=""175px"" height=""250px""></img></td>
  </tr>
  <tr height=200>
    <td width=300><img src=""static/images/keys/z.svg"" width=""35%"" height=""75%""></img></td>
    <td width=300><img src=""static/images/keys/m.svg"" width=""35%"" height=""75%""></img></td>
  </tr>
</table>
  ",,,,,,,,,,,,,,,,,,,,,,,,,,,,
55,0,,html-keyboard-response,55,216048,0.0-4.6-3.6,yth695mh23i,2022-09-19 17:57:35.035,608078f433346dd7a841b511,1,82,0,1,4,37,female,,,"<p style=""font-size:50px"">You win!
+10 points this round!</p>",,,,,,,,,,,,,,,,,,,,,,,,,,,,
56,0,,html-keyboard-response,56,216563,0.0-4.6-4.6,yth695mh23i,2022-09-19 17:57:35.035,608078f433346dd7a841b511,1,82,0,1,4,37,female,,,,,,1.0,learning,6.0,A,,red,,moons,,,,A,red,moons,,1.0,1.0,NA,right,862.5,9.0,1.0,1.0,,,
57,0,,html-keyboard-response,57,218076,0.0-4.7-0.7,yth695mh23i,2022-09-19 17:57:35.035,608078f433346dd7a841b511,1,82,0,1,4,37,female,,,"<img src=""static/images/cards/stack_of_black_moons.svg"" width=""175px"" height=""250px""></img>",,,,,,,,,,,,,,,,,,,,,,,,,,,,
58,0,,html-keyboard-response,58,219616,0.0-4.7-1.7,yth695mh23i,2022-09-19 17:57:35.035,608078f433346dd7a841b511,1,82,0,1,4,37,female,1024.3000000119,,"
  <table>
  <tr height=300>
    <td width=300 height=300><img src=""static/images/cards/back_of_black_moons.svg"" width=""175px"" height=""250px""></img></td>
    <td width=300 height=300><img src=""static/images/cards/back_of_black_moons.svg"" width=""175px"" height=""250px""></img></td>
  </tr>
  <tr height=200>
    <td width=300><img src=""static/images/keys/z.svg"" width=""35%"" height=""75%""></img></td>
    <td width=300></td>
  </tr>
</table>
  ",90.0,1.0,,,,,,,,,,,,,,,,,,,,,,,,,,
59,0,,html-keyboard-response,59,221128,0.0-4.7-2.7,yth695mh23i,2022-09-19 17:57:35.035,608078f433346dd7a841b511,1,82,0,1,4,37,female,,,"
  <table>
  <tr height=300>
    <td width=300 height=300><img src=""static/images/cards/10_of_black_moons.svg"" width=""175px"" height=""250px""></img></td>
    <td width=300 height=300><img src=""static/images/cards/back_of_black_moons.svg"" width=""175px"" height=""250px""></img></td>
  </tr>
  <tr height=200>
    <td width=300><img src=""static/images/keys/z.svg"" width=""35%"" height=""75%""></img></td>
    <td width=300></td>
  </tr>
</table>
  ",,,,,,,,,,,,,,,,,,,,,,,,,,,,
60,0,,html-keyboard-response,60,222650,0.0-4.7-3.7,yth695mh23i,2022-09-19 17:57:35.035,608078f433346dd7a841b511,1,82,0,1,4,37,female,,,"<p style=""font-size:50px"">You win!
+10 points this round!</p>",,,,,,,,,,,,,,,,,,,,,,,,,,,,
61,0,,html-keyboard-response,61,223168,0.0-4.7-4.7,yth695mh23i,2022-09-19 17:57:35.035,608078f433346dd7a841b511,1,82,0,1,4,37,female,,,,,,1.0,learning,7.0,B,,black,,moons,,,,B,black,moons,,0.0,1.0,1,left,1024.3000000119,10.0,1.0,1.0,,,
62,0,,html-keyboard-response,62,224681,0.0-4.8-0.8,yth695mh23i,2022-09-19 17:57:35.035,608078f433346dd7a841b511,1,82,0,1,4,37,female,,,"<img src=""static/images/cards/stack_of_red_stars.svg"" width=""175px"" height=""250px""></img>",,,,,,,,,,,,,,,,,,,,,,,,,,,,
63,0,,html-keyboard-response,63,225841,0.0-4.8-1.8,yth695mh23i,2022-09-19 17:57:35.035,608078f433346dd7a841b511,1,82,0,1,4,37,female,645.0,,"
  <table>
  <tr height=300>
    <td width=300 height=300><img src=""static/images/cards/back_of_red_stars.svg"" width=""175px"" height=""250px""></img></td>
    <td width=300 height=300><img src=""static/images/cards/back_of_red_stars.svg"" width=""175px"" height=""250px""></img></td>
  </tr>
  <tr height=200>
    <td width=300><img src=""static/images/keys/z.svg"" width=""35%"" height=""75%""></img></td>
    <td width=300><img src=""static/images/keys/m.svg"" width=""35%"" height=""75%""></img></td>
  </tr>
</table>
  ",77.0,1.0,,,,,,,,,,,,,,,,,,,,,,,,,,
64,0,,html-keyboard-response,64,227352,0.0-4.8-2.8,yth695mh23i,2022-09-19 17:57:35.035,608078f433346dd7a841b511,1,82,0,1,4,37,female,,,"
  <table>
  <tr height=300>
    <td width=300 height=300><img src=""static/images/cards/back_of_red_stars.svg"" width=""175px"" height=""250px""></img></td>
    <td width=300 height=300><img src=""static/images/cards/6_of_red_stars.svg"" width=""175px"" height=""250px""></img></td>
  </tr>
  <tr height=200>
    <td width=300><img src=""static/images/keys/z.svg"" width=""35%"" height=""75%""></img></td>
    <td width=300><img src=""static/images/keys/m.svg"" width=""35%"" height=""75%""></img></td>
  </tr>
</table>
  ",,,,,,,,,,,,,,,,,,,,,,,,,,,,
65,0,,html-keyboard-response,65,228873,0.0-4.8-3.8,yth695mh23i,2022-09-19 17:57:35.035,608078f433346dd7a841b511,1,82,0,1,4,37,female,,,"<p style=""font-size:50px"">You win!
+10 points this round!</p>",,,,,,,,,,,,,,,,,,,,,,,,,,,,
66,0,,html-keyboard-response,66,229390,0.0-4.8-4.8,yth695mh23i,2022-09-19 17:57:35.035,608078f433346dd7a841b511,1,82,0,1,4,37,female,,,,,,1.0,learning,8.0,C,,red,,stars,,,,C,red,stars,,1.0,0.0,NA,right,645.0,6.0,1.0,1.0,,,
67,0,,html-keyboard-response,67,230907,0.0-4.9-0.9,yth695mh23i,2022-09-19 17:57:35.035,608078f433346dd7a841b511,1,82,0,1,4,37,female,,,"<img src=""static/images/cards/stack_of_black_stars.svg"" width=""175px"" height=""250px""></img>",,,,,,,,,,,,,,,,,,,,,,,,,,,,
68,0,,html-keyboard-response,68,232448,0.0-4.9-1.9,yth695mh23i,2022-09-19 17:57:35.035,608078f433346dd7a841b511,1,82,0,1,4,37,female,1030.0,,"
  <table>
  <tr height=300>
    <td width=300 height=300><img src=""static/images/cards/back_of_black_stars.svg"" width=""175px"" height=""250px""></img></td>
    <td width=300 height=300><img src=""static/images/cards/back_of_black_stars.svg"" width=""175px"" height=""250px""></img></td>
  </tr>
  <tr height=200>
    <td width=300></td>
    <td width=300><img src=""static/images/keys/m.svg"" width=""35%"" height=""75%""></img></td>
  </tr>
</table>
  ",77.0,1.0,,,,,,,,,,,,,,,,,,,,,,,,,,
69,0,,html-keyboard-response,69,233958,0.0-4.9-2.9,yth695mh23i,2022-09-19 17:57:35.035,608078f433346dd7a841b511,1,82,0,1,4,37,female,,,"
  <table>
  <tr height=300>
    <td width=300 height=300><img src=""static/images/cards/back_of_black_stars.svg"" width=""175px"" height=""250px""></img></td>
    <td width=300 height=300><img src=""static/images/cards/4_of_black_stars.svg"" width=""175px"" height=""250px""></img></td>
  </tr>
  <tr height=200>
    <td width=300></td>
    <td width=300><img src=""static/images/keys/m.svg"" width=""35%"" height=""75%""></img></td>
  </tr>
</table>
  ",,,,,,,,,,,,,,,,,,,,,,,,,,,,
70,0,,html-keyboard-response,70,235476,0.0-4.9-3.9,yth695mh23i,2022-09-19 17:57:35.035,608078f433346dd7a841b511,1,82,0,1,4,37,female,,,"<p style=""font-size:50px"">You Lose!
No points this round.</p>",,,,,,,,,,,,,,,,,,,,,,,,,,,,
71,0,,html-keyboard-response,71,235997,0.0-4.9-4.9,yth695mh23i,2022-09-19 17:57:35.035,608078f433346dd7a841b511,1,82,0,1,4,37,female,,,,,,1.0,learning,9.0,D,,black,,stars,,,,D,black,stars,,0.0,0.0,0,right,1030.0,4.0,0.0,0.0,,,
72,0,,html-keyboard-response,72,237500,0.0-4.10-0.10,yth695mh23i,2022-09-19 17:57:35.035,608078f433346dd7a841b511,1,82,0,1,4,37,female,,,"<img src=""static/images/cards/stack_of_red_bolts.svg"" width=""175px"" height=""250px""></img>",,,,,,,,,,,,,,,,,,,,,,,,,,,,
73,0,,html-keyboard-response,73,239041,0.0-4.10-1.10,yth695mh23i,2022-09-19 17:57:35.035,608078f433346dd7a841b511,1,82,0,1,4,37,female,1023.8999999762,,"
  <table>
  <tr height=300>
    <td width=300 height=300><img src=""static/images/cards/back_of_red_bolts.svg"" width=""175px"" height=""250px""></img></td>
    <td width=300 height=300><img src=""static/images/cards/back_of_red_bolts.svg"" width=""175px"" height=""250px""></img></td>
  </tr>
  <tr height=200>
    <td width=300><img src=""static/images/keys/z.svg"" width=""35%"" height=""75%""></img></td>
    <td width=300><img src=""static/images/keys/m.svg"" width=""35%"" height=""75%""></img></td>
  </tr>
</table>
  ",77.0,1.0,,,,,,,,,,,,,,,,,,,,,,,,,,
74,0,,html-keyboard-response,74,240550,0.0-4.10-2.10,yth695mh23i,2022-09-19 17:57:35.035,608078f433346dd7a841b511,1,82,0,1,4,37,female,,,"
  <table>
  <tr height=300>
    <td width=300 height=300><img src=""static/images/cards/back_of_red_bolts.svg"" width=""175px"" height=""250px""></img></td>
    <td width=300 height=300><img src=""static/images/cards/3_of_red_bolts.svg"" width=""175px"" height=""250px""></img></td>
  </tr>
  <tr height=200>
    <td width=300><img src=""static/images/keys/z.svg"" width=""35%"" height=""75%""></img></td>
    <td width=300><img src=""static/images/keys/m.svg"" width=""35%"" height=""75%""></img></td>
  </tr>
</table>
  ",,,,,,,,,,,,,,,,,,,,,,,,,,,,
75,0,,html-keyboard-response,75,242071,0.0-4.10-3.10,yth695mh23i,2022-09-19 17:57:35.035,608078f433346dd7a841b511,1,82,0,1,4,37,female,,,"<p style=""font-size:50px"">You win!
+10 points this round!</p>",,,,,,,,,,,,,,,,,,,,,,,,,,,,
76,0,,html-keyboard-response,76,242587,0.0-4.10-4.10,yth695mh23i,2022-09-19 17:57:35.035,608078f433346dd7a841b511,1,82,0,1,4,37,female,,,,,,1.0,learning,10.0,Xc,,red,,bolts,,,,Xc,red,bolts,,1.0,0.0,NA,right,1023.8999999762,3.0,0.0,1.0,,,
77,0,,html-keyboard-response,77,244098,0.0-4.11-0.11,yth695mh23i,2022-09-19 17:57:35.035,608078f433346dd7a841b511,1,82,0,1,4,37,female,,,"<img src=""static/images/cards/stack_of_black_bolts.svg"" width=""175px"" height=""250px""></img>",,,,,,,,,,,,,,,,,,,,,,,,,,,,
78,0,,html-keyboard-response,78,245680,0.0-4.11-1.11,yth695mh23i,2022-09-19 17:57:35.035,608078f433346dd7a841b511,1,82,0,1,4,37,female,1066.8000000119,,"
  <table>
  <tr height=300>
    <td width=300 height=300><img src=""static/images/cards/back_of_black_bolts.svg"" width=""175px"" height=""250px""></img></td>
    <td width=300 height=300><img src=""static/images/cards/back_of_black_bolts.svg"" width=""175px"" height=""250px""></img></td>
  </tr>
  <tr height=200>
    <td width=300><img src=""static/images/keys/z.svg"" width=""35%"" height=""75%""></img></td>
    <td width=300></td>
  </tr>
</table>
  ",90.0,1.0,,,,,,,,,,,,,,,,,,,,,,,,,,
79,0,,html-keyboard-response,79,247189,0.0-4.11-2.11,yth695mh23i,2022-09-19 17:57:35.035,608078f433346dd7a841b511,1,82,0,1,4,37,female,,,"
  <table>
  <tr height=300>
    <td width=300 height=300><img src=""static/images/cards/2_of_black_bolts.svg"" width=""175px"" height=""250px""></img></td>
    <td width=300 height=300><img src=""static/images/cards/back_of_black_bolts.svg"" width=""175px"" height=""250px""></img></td>
  </tr>
  <tr height=200>
    <td width=300><img src=""static/images/keys/z.svg"" width=""35%"" height=""75%""></img></td>
    <td width=300></td>
  </tr>
</table>
  ",,,,,,,,,,,,,,,,,,,,,,,,,,,,
80,0,,html-keyboard-response,80,248705,0.0-4.11-3.11,yth695mh23i,2022-09-19 17:57:35.035,608078f433346dd7a841b511,1,82,0,1,4,37,female,,,"<p style=""font-size:50px"">You win!
+10 points this round!</p>",,,,,,,,,,,,,,,,,,,,,,,,,,,,
81,0,,html-keyboard-response,81,249222,0.0-4.11-4.11,yth695mh23i,2022-09-19 17:57:35.035,608078f433346dd7a841b511,1,82,0,1,4,37,female,,,,,,1.0,learning,11.0,Xnc,,black,,bolts,,,,Xnc,black,bolts,,0.0,0.0,1,left,1066.8000000119,2.0,0.0,1.0,,,
82,0,,html-keyboard-response,82,250734,0.0-4.12-0.12,yth695mh23i,2022-09-19 17:57:35.035,608078f433346dd7a841b511,1,82,0,1,4,37,female,,,"<img src=""static/images/cards/stack_of_red_moons.svg"" width=""175px"" height=""250px""></img>",,,,,,,,,,,,,,,,,,,,,,,,,,,,
83,0,,html-keyboard-response,83,252161,0.0-4.12-1.12,yth695mh23i,2022-09-19 17:57:35.035,608078f433346dd7a841b511,1,82,0,1,4,37,female,917.3999999762,,"
  <table>
  <tr height=300>
    <td width=300 height=300><img src=""static/images/cards/back_of_red_moons.svg"" width=""175px"" height=""250px""></img></td>
    <td width=300 height=300><img src=""static/images/cards/back_of_red_moons.svg"" width=""175px"" height=""250px""></img></td>
  </tr>
  <tr height=200>
    <td width=300><img src=""static/images/keys/z.svg"" width=""35%"" height=""75%""></img></td>
    <td width=300><img src=""static/images/keys/m.svg"" width=""35%"" height=""75%""></img></td>
  </tr>
</table>
  ",77.0,1.0,,,,,,,,,,,,,,,,,,,,,,,,,,
84,0,,html-keyboard-response,84,253676,0.0-4.12-2.12,yth695mh23i,2022-09-19 17:57:35.035,608078f433346dd7a841b511,1,82,0,1,4,37,female,,,"
  <table>
  <tr height=300>
    <td width=300 height=300><img src=""static/images/cards/back_of_red_moons.svg"" width=""175px"" height=""250px""></img></td>
    <td width=300 height=300><img src=""static/images/cards/4_of_red_moons.svg"" width=""175px"" height=""250px""></img></td>
  </tr>
  <tr height=200>
    <td width=300><img src=""static/images/keys/z.svg"" width=""35%"" height=""75%""></img></td>
    <td width=300><img src=""static/images/keys/m.svg"" width=""35%"" height=""75%""></img></td>
  </tr>
</table>
  ",,,,,,,,,,,,,,,,,,,,,,,,,,,,
85,0,,html-keyboard-response,85,255197,0.0-4.12-3.12,yth695mh23i,2022-09-19 17:57:35.035,608078f433346dd7a841b511,1,82,0,1,4,37,female,,,"<p style=""font-size:50px"">You Lose!
No points this round.</p>",,,,,,,,,,,,,,,,,,,,,,,,,,,,
86,0,,html-keyboard-response,86,255711,0.0-4.12-4.12,yth695mh23i,2022-09-19 17:57:35.035,608078f433346dd7a841b511,1,82,0,1,4,37,female,,,,,,1.0,learning,12.0,A,,red,,moons,,,,A,red,moons,,1.0,1.0,NA,right,917.3999999762,4.0,0.0,0.0,,,
87,0,,html-keyboard-response,87,257220,0.0-4.13-0.13,yth695mh23i,2022-09-19 17:57:35.035,608078f433346dd7a841b511,1,82,0,1,4,37,female,,,"<img src=""static/images/cards/stack_of_black_moons.svg"" width=""175px"" height=""250px""></img>",,,,,,,,,,,,,,,,,,,,,,,,,,,,
88,0,,html-keyboard-response,88,258928,0.0-4.13-1.13,yth695mh23i,2022-09-19 17:57:35.035,608078f433346dd7a841b511,1,82,0,1,4,37,female,1195.3000000119,,"
  <table>
  <tr height=300>
    <td width=300 height=300><img src=""static/images/cards/back_of_black_moons.svg"" width=""175px"" height=""250px""></img></td>
    <td width=300 height=300><img src=""static/images/cards/back_of_black_moons.svg"" width=""175px"" height=""250px""></img></td>
  </tr>
  <tr height=200>
    <td width=300><img src=""static/images/keys/z.svg"" width=""35%"" height=""75%""></img></td>
    <td width=300></td>
  </tr>
</table>
  ",90.0,1.0,,,,,,,,,,,,,,,,,,,,,,,,,,
89,0,,html-keyboard-response,89,260436,0.0-4.13-2.13,yth695mh23i,2022-09-19 17:57:35.035,608078f433346dd7a841b511,1,82,0,1,4,37,female,,,"
  <table>
  <tr height=300>
    <td width=300 height=300><img src=""static/images/cards/4_of_black_moons.svg"" width=""175px"" height=""250px""></img></td>
    <td width=300 height=300><img src=""static/images/cards/back_of_black_moons.svg"" width=""175px"" height=""250px""></img></td>
  </tr>
  <tr height=200>
    <td width=300><img src=""static/images/keys/z.svg"" width=""35%"" height=""75%""></img></td>
    <td width=300></td>
  </tr>
</table>
  ",,,,,,,,,,,,,,,,,,,,,,,,,,,,
90,0,,html-keyboard-response,90,261953,0.0-4.13-3.13,yth695mh23i,2022-09-19 17:57:35.035,608078f433346dd7a841b511,1,82,0,1,4,37,female,,,"<p style=""font-size:50px"">You Lose!
No points this round.</p>",,,,,,,,,,,,,,,,,,,,,,,,,,,,
91,0,,html-keyboard-response,91,262469,0.0-4.13-4.13,yth695mh23i,2022-09-19 17:57:35.035,608078f433346dd7a841b511,1,82,0,1,4,37,female,,,,,,1.0,learning,13.0,B,,black,,moons,,,,B,black,moons,,0.0,1.0,1,left,1195.3000000119,4.0,0.0,0.0,,,
92,0,,html-keyboard-response,92,263970,0.0-4.14-0.14,yth695mh23i,2022-09-19 17:57:35.035,608078f433346dd7a841b511,1,82,0,1,4,37,female,,,"<img src=""static/images/cards/stack_of_red_stars.svg"" width=""175px"" height=""250px""></img>",,,,,,,,,,,,,,,,,,,,,,,,,,,,
93,0,,html-keyboard-response,93,265617,0.0-4.14-1.14,yth695mh23i,2022-09-19 17:57:35.035,608078f433346dd7a841b511,1,82,0,1,4,37,female,1133.3000000119,,"
  <table>
  <tr height=300>
    <td width=300 height=300><img src=""static/images/cards/back_of_red_stars.svg"" width=""175px"" height=""250px""></img></td>
    <td width=300 height=300><img src=""static/images/cards/back_of_red_stars.svg"" width=""175px"" height=""250px""></img></td>
  </tr>
  <tr height=200>
    <td width=300><img src=""static/images/keys/z.svg"" width=""35%"" height=""75%""></img></td>
    <td width=300><img src=""static/images/keys/m.svg"" width=""35%"" height=""75%""></img></td>
  </tr>
</table>
  ",77.0,1.0,,,,,,,,,,,,,,,,,,,,,,,,,,
94,0,,html-keyboard-response,94,267124,0.0-4.14-2.14,yth695mh23i,2022-09-19 17:57:35.035,608078f433346dd7a841b511,1,82,0,1,4,37,female,,,"
  <table>
  <tr height=300>
    <td width=300 height=300><img src=""static/images/cards/back_of_red_stars.svg"" width=""175px"" height=""250px""></img></td>
    <td width=300 height=300><img src=""static/images/cards/1_of_red_stars.svg"" width=""175px"" height=""250px""></img></td>
  </tr>
  <tr height=200>
    <td width=300><img src=""static/images/keys/z.svg"" width=""35%"" height=""75%""></img></td>
    <td width=300><img src=""static/images/keys/m.svg"" width=""35%"" height=""75%""></img></td>
  </tr>
</table>
  ",,,,,,,,,,,,,,,,,,,,,,,,,,,,
95,0,,html-keyboard-response,95,268637,0.0-4.14-3.14,yth695mh23i,2022-09-19 17:57:35.035,608078f433346dd7a841b511,1,82,0,1,4,37,female,,,"<p style=""font-size:50px"">You win!
+10 points this round!</p>",,,,,,,,,,,,,,,,,,,,,,,,,,,,
96,0,,html-keyboard-response,96,269154,0.0-4.14-4.14,yth695mh23i,2022-09-19 17:57:35.035,608078f433346dd7a841b511,1,82,0,1,4,37,female,,,,,,1.0,learning,14.0,C,,red,,stars,,,,C,red,stars,,1.0,0.0,NA,right,1133.3000000119,1.0,0.0,1.0,,,
97,0,,html-keyboard-response,97,270671,0.0-4.15-0.15,yth695mh23i,2022-09-19 17:57:35.035,608078f433346dd7a841b511,1,82,0,1,4,37,female,,,"<img src=""static/images/cards/stack_of_black_stars.svg"" width=""175px"" height=""250px""></img>",,,,,,,,,,,,,,,,,,,,,,,,,,,,
98,0,,html-keyboard-response,98,272480,0.0-4.15-1.15,yth695mh23i,2022-09-19 17:57:35.035,608078f433346dd7a841b511,1,82,0,1,4,37,female,1295.8999999762,,"
  <table>
  <tr height=300>
    <td width=300 height=300><img src=""static/images/cards/back_of_black_stars.svg"" width=""175px"" height=""250px""></img></td>
    <td width=300 height=300><img src=""static/images/cards/back_of_black_stars.svg"" width=""175px"" height=""250px""></img></td>
  </tr>
  <tr height=200>
    <td width=300><img src=""static/images/keys/z.svg"" width=""35%"" height=""75%""></img></td>
    <td width=300></td>
  </tr>
</table>
  ",90.0,1.0,,,,,,,,,,,,,,,,,,,,,,,,,,
99,0,,html-keyboard-response,99,273983,0.0-4.15-2.15,yth695mh23i,2022-09-19 17:57:35.035,608078f433346dd7a841b511,1,82,0,1,4,37,female,,,"
  <table>
  <tr height=300>
    <td width=300 height=300><img src=""static/images/cards/2_of_black_stars.svg"" width=""175px"" height=""250px""></img></td>
    <td width=300 height=300><img src=""static/images/cards/back_of_black_stars.svg"" width=""175px"" height=""250px""></img></td>
  </tr>
  <tr height=200>
    <td width=300><img src=""static/images/keys/z.svg"" width=""35%"" height=""75%""></img></td>
    <td width=300></td>
  </tr>
</table>
  ",,,,,,,,,,,,,,,,,,,,,,,,,,,,
100,0,,html-keyboard-response,100,275498,0.0-4.15-3.15,yth695mh23i,2022-09-19 17:57:35.035,608078f433346dd7a841b511,1,82,0,1,4,37,female,,,"<p style=""font-size:50px"">You win!
+10 points this round!</p>",,,,,,,,,,,,,,,,,,,,,,,,,,,,
101,0,,html-keyboard-response,101,276013,0.0-4.15-4.15,yth695mh23i,2022-09-19 17:57:35.035,608078f433346dd7a841b511,1,82,0,1,4,37,female,,,,,,1.0,learning,15.0,D,,black,,stars,,,,D,black,stars,,0.0,0.0,1,left,1295.8999999762,2.0,0.0,1.0,,,
102,0,,html-keyboard-response,102,277524,0.0-4.16-0.16,yth695mh23i,2022-09-19 17:57:35.035,608078f433346dd7a841b511,1,82,0,1,4,37,female,,,"<img src=""static/images/cards/stack_of_red_bolts.svg"" width=""175px"" height=""250px""></img>",,,,,,,,,,,,,,,,,,,,,,,,,,,,
103,0,,html-keyboard-response,103,278544,0.0-4.16-1.16,yth695mh23i,2022-09-19 17:57:35.035,608078f433346dd7a841b511,1,82,0,1,4,37,female,506.5,,"
  <table>
  <tr height=300>
    <td width=300 height=300><img src=""static/images/cards/back_of_red_bolts.svg"" width=""175px"" height=""250px""></img></td>
    <td width=300 height=300><img src=""static/images/cards/back_of_red_bolts.svg"" width=""175px"" height=""250px""></img></td>
  </tr>
  <tr height=200>
    <td width=300><img src=""static/images/keys/z.svg"" width=""35%"" height=""75%""></img></td>
    <td width=300><img src=""static/images/keys/m.svg"" width=""35%"" height=""75%""></img></td>
  </tr>
</table>
  ",77.0,1.0,,,,,,,,,,,,,,,,,,,,,,,,,,
104,0,,html-keyboard-response,104,280048,0.0-4.16-2.16,yth695mh23i,2022-09-19 17:57:35.035,608078f433346dd7a841b511,1,82,0,1,4,37,female,,,"
  <table>
  <tr height=300>
    <td width=300 height=300><img src=""static/images/cards/back_of_red_bolts.svg"" width=""175px"" height=""250px""></img></td>
    <td width=300 height=300><img src=""static/images/cards/9_of_red_bolts.svg"" width=""175px"" height=""250px""></img></td>
  </tr>
  <tr height=200>
    <td width=300><img src=""static/images/keys/z.svg"" width=""35%"" height=""75%""></img></td>
    <td width=300><img src=""static/images/keys/m.svg"" width=""35%"" height=""75%""></img></td>
  </tr>
</table>
  ",,,,,,,,,,,,,,,,,,,,,,,,,,,,
105,0,,html-keyboard-response,105,281566,0.0-4.16-3.16,yth695mh23i,2022-09-19 17:57:35.035,608078f433346dd7a841b511,1,82,0,1,4,37,female,,,"<p style=""font-size:50px"">You win!
+10 points this round!</p>",,,,,,,,,,,,,,,,,,,,,,,,,,,,
106,0,,html-keyboard-response,106,282088,0.0-4.16-4.16,yth695mh23i,2022-09-19 17:57:35.035,608078f433346dd7a841b511,1,82,0,1,4,37,female,,,,,,1.0,learning,16.0,Xc,,red,,bolts,,,,Xc,red,bolts,,1.0,0.0,NA,right,506.5,9.0,1.0,1.0,,,
107,0,,html-keyboard-response,107,283602,0.0-4.17-0.17,yth695mh23i,2022-09-19 17:57:35.035,608078f433346dd7a841b511,1,82,0,1,4,37,female,,,"<img src=""static/images/cards/stack_of_black_bolts.svg"" width=""175px"" height=""250px""></img>",,,,,,,,,,,,,,,,,,,,,,,,,,,,
108,0,,html-keyboard-response,108,285088,0.0-4.17-1.17,yth695mh23i,2022-09-19 17:57:35.035,608078f433346dd7a841b511,1,82,0,1,4,37,female,972.3000000119,,"
  <table>
  <tr height=300>
    <td width=300 height=300><img src=""static/images/cards/back_of_black_bolts.svg"" width=""175px"" height=""250px""></img></td>
    <td width=300 height=300><img src=""static/images/cards/back_of_black_bolts.svg"" width=""175px"" height=""250px""></img></td>
  </tr>
  <tr height=200>
    <td width=300><img src=""static/images/keys/z.svg"" width=""35%"" height=""75%""></img></td>
    <td width=300></td>
  </tr>
</table>
  ",90.0,1.0,,,,,,,,,,,,,,,,,,,,,,,,,,
109,0,,html-keyboard-response,109,286594,0.0-4.17-2.17,yth695mh23i,2022-09-19 17:57:35.035,608078f433346dd7a841b511,1,82,0,1,4,37,female,,,"
  <table>
  <tr height=300>
    <td width=300 height=300><img src=""static/images/cards/6_of_black_bolts.svg"" width=""175px"" height=""250px""></img></td>
    <td width=300 height=300><img src=""static/images/cards/back_of_black_bolts.svg"" width=""175px"" height=""250px""></img></td>
  </tr>
  <tr height=200>
    <td width=300><img src=""static/images/keys/z.svg"" width=""35%"" height=""75%""></img></td>
    <td width=300></td>
  </tr>
</table>
  ",,,,,,,,,,,,,,,,,,,,,,,,,,,,
110,0,,html-keyboard-response,110,288110,0.0-4.17-3.17,yth695mh23i,2022-09-19 17:57:35.035,608078f433346dd7a841b511,1,82,0,1,4,37,female,,,"<p style=""font-size:50px"">You win!
+10 points this round!</p>",,,,,,,,,,,,,,,,,,,,,,,,,,,,
111,0,,html-keyboard-response,111,288625,0.0-4.17-4.17,yth695mh23i,2022-09-19 17:57:35.035,608078f433346dd7a841b511,1,82,0,1,4,37,female,,,,,,1.0,learning,17.0,Xnc,,black,,bolts,,,,Xnc,black,bolts,,0.0,0.0,1,left,972.3000000119,6.0,1.0,1.0,,,
112,0,,html-keyboard-response,112,290135,0.0-4.18-0.18,yth695mh23i,2022-09-19 17:57:35.035,608078f433346dd7a841b511,1,82,0,1,4,37,female,,,"<img src=""static/images/cards/stack_of_red_moons.svg"" width=""175px"" height=""250px""></img>",,,,,,,,,,,,,,,,,,,,,,,,,,,,
113,0,,html-keyboard-response,113,291728,0.0-4.18-1.18,yth695mh23i,2022-09-19 17:57:35.035,608078f433346dd7a841b511,1,82,0,1,4,37,female,1080.5,,"
  <table>
  <tr height=300>
    <td width=300 height=300><img src=""static/images/cards/back_of_red_moons.svg"" width=""175px"" height=""250px""></img></td>
    <td width=300 height=300><img src=""static/images/cards/back_of_red_moons.svg"" width=""175px"" height=""250px""></img></td>
  </tr>
  <tr height=200>
    <td width=300><img src=""static/images/keys/z.svg"" width=""35%"" height=""75%""></img></td>
    <td width=300><img src=""static/images/keys/m.svg"" width=""35%"" height=""75%""></img></td>
  </tr>
</table>
  ",77.0,1.0,,,,,,,,,,,,,,,,,,,,,,,,,,
114,0,,html-keyboard-response,114,293246,0.0-4.18-2.18,yth695mh23i,2022-09-19 17:57:35.035,608078f433346dd7a841b511,1,82,0,1,4,37,female,,,"
  <table>
  <tr height=300>
    <td width=300 height=300><img src=""static/images/cards/back_of_red_moons.svg"" width=""175px"" height=""250px""></img></td>
    <td width=300 height=300><img src=""static/images/cards/3_of_red_moons.svg"" width=""175px"" height=""250px""></img></td>
  </tr>
  <tr height=200>
    <td width=300><img src=""static/images/keys/z.svg"" width=""35%"" height=""75%""></img></td>
    <td width=300><img src=""static/images/keys/m.svg"" width=""35%"" height=""75%""></img></td>
  </tr>
</table>
  ",,,,,,,,,,,,,,,,,,,,,,,,,,,,
115,0,,html-keyboard-response,115,294765,0.0-4.18-3.18,yth695mh23i,2022-09-19 17:57:35.035,608078f433346dd7a841b511,1,82,0,1,4,37,female,,,"<p style=""font-size:50px"">You Lose!
No points this round.</p>",,,,,,,,,,,,,,,,,,,,,,,,,,,,
116,0,,html-keyboard-response,116,295275,0.0-4.18-4.18,yth695mh23i,2022-09-19 17:57:35.035,608078f433346dd7a841b511,1,82,0,1,4,37,female,,,,,,1.0,learning,18.0,A,,red,,moons,,,,A,red,moons,,1.0,1.0,NA,right,1080.5,3.0,0.0,0.0,,,
117,0,,html-keyboard-response,117,296788,0.0-4.19-0.19,yth695mh23i,2022-09-19 17:57:35.035,608078f433346dd7a841b511,1,82,0,1,4,37,female,,,"<img src=""static/images/cards/stack_of_black_moons.svg"" width=""175px"" height=""250px""></img>",,,,,,,,,,,,,,,,,,,,,,,,,,,,
118,0,,html-keyboard-response,118,298432,0.0-4.19-1.19,yth695mh23i,2022-09-19 17:57:35.035,608078f433346dd7a841b511,1,82,0,1,4,37,female,1131.9000000358,,"
  <table>
  <tr height=300>
    <td width=300 height=300><img src=""static/images/cards/back_of_black_moons.svg"" width=""175px"" height=""250px""></img></td>
    <td width=300 height=300><img src=""static/images/cards/back_of_black_moons.svg"" width=""175px"" height=""250px""></img></td>
  </tr>
  <tr height=200>
    <td width=300><img src=""static/images/keys/z.svg"" width=""35%"" height=""75%""></img></td>
    <td width=300></td>
  </tr>
</table>
  ",90.0,1.0,,,,,,,,,,,,,,,,,,,,,,,,,,
119,0,,html-keyboard-response,119,299949,0.0-4.19-2.19,yth695mh23i,2022-09-19 17:57:35.035,608078f433346dd7a841b511,1,82,0,1,4,37,female,,,"
  <table>
  <tr height=300>
    <td width=300 height=300><img src=""static/images/cards/9_of_black_moons.svg"" width=""175px"" height=""250px""></img></td>
    <td width=300 height=300><img src=""static/images/cards/back_of_black_moons.svg"" width=""175px"" height=""250px""></img></td>
  </tr>
  <tr height=200>
    <td width=300><img src=""static/images/keys/z.svg"" width=""35%"" height=""75%""></img></td>
    <td width=300></td>
  </tr>
</table>
  ",,,,,,,,,,,,,,,,,,,,,,,,,,,,
120,0,,html-keyboard-response,120,301469,0.0-4.19-3.19,yth695mh23i,2022-09-19 17:57:35.035,608078f433346dd7a841b511,1,82,0,1,4,37,female,,,"<p style=""font-size:50px"">You win!
+10 points this round!</p>",,,,,,,,,,,,,,,,,,,,,,,,,,,,
121,0,,html-keyboard-response,121,301983,0.0-4.19-4.19,yth695mh23i,2022-09-19 17:57:35.035,608078f433346dd7a841b511,1,82,0,1,4,37,female,,,,,,1.0,learning,19.0,B,,black,,moons,,,,B,black,moons,,0.0,1.0,1,left,1131.9000000358,9.0,1.0,1.0,,,
122,0,,html-keyboard-response,122,303496,0.0-4.20-0.20,yth695mh23i,2022-09-19 17:57:35.035,608078f433346dd7a841b511,1,82,0,1,4,37,female,,,"<img src=""static/images/cards/stack_of_red_stars.svg"" width=""175px"" height=""250px""></img>",,,,,,,,,,,,,,,,,,,,,,,,,,,,
123,0,,html-keyboard-response,123,304768,0.0-4.20-1.20,yth695mh23i,2022-09-19 17:57:35.035,608078f433346dd7a841b511,1,82,0,1,4,37,female,761.3999999762,,"
  <table>
  <tr height=300>
    <td width=300 height=300><img src=""static/images/cards/back_of_red_stars.svg"" width=""175px"" height=""250px""></img></td>
    <td width=300 height=300><img src=""static/images/cards/back_of_red_stars.svg"" width=""175px"" height=""250px""></img></td>
  </tr>
  <tr height=200>
    <td width=300><img src=""static/images/keys/z.svg"" width=""35%"" height=""75%""></img></td>
    <td width=300><img src=""static/images/keys/m.svg"" width=""35%"" height=""75%""></img></td>
  </tr>
</table>
  ",77.0,1.0,,,,,,,,,,,,,,,,,,,,,,,,,,
124,0,,html-keyboard-response,124,306280,0.0-4.20-2.20,yth695mh23i,2022-09-19 17:57:35.035,608078f433346dd7a841b511,1,82,0,1,4,37,female,,,"
  <table>
  <tr height=300>
    <td width=300 height=300><img src=""static/images/cards/back_of_red_stars.svg"" width=""175px"" height=""250px""></img></td>
    <td width=300 height=300><img src=""static/images/cards/2_of_red_stars.svg"" width=""175px"" height=""250px""></img></td>
  </tr>
  <tr height=200>
    <td width=300><img src=""static/images/keys/z.svg"" width=""35%"" height=""75%""></img></td>
    <td width=300><img src=""static/images/keys/m.svg"" width=""35%"" height=""75%""></img></td>
  </tr>
</table>
  ",,,,,,,,,,,,,,,,,,,,,,,,,,,,
125,0,,html-keyboard-response,125,307799,0.0-4.20-3.20,yth695mh23i,2022-09-19 17:57:35.035,608078f433346dd7a841b511,1,82,0,1,4,37,female,,,"<p style=""font-size:50px"">You Lose!
No points this round.</p>",,,,,,,,,,,,,,,,,,,,,,,,,,,,
126,0,,html-keyboard-response,126,308317,0.0-4.20-4.20,yth695mh23i,2022-09-19 17:57:35.035,608078f433346dd7a841b511,1,82,0,1,4,37,female,,,,,,1.0,learning,20.0,C,,red,,stars,,,,C,red,stars,,1.0,0.0,NA,right,761.3999999762,2.0,0.0,0.0,,,
127,0,,html-keyboard-response,127,309826,0.0-4.21-0.21,yth695mh23i,2022-09-19 17:57:35.035,608078f433346dd7a841b511,1,82,0,1,4,37,female,,,"<img src=""static/images/cards/stack_of_black_stars.svg"" width=""175px"" height=""250px""></img>",,,,,,,,,,,,,,,,,,,,,,,,,,,,
128,0,,html-keyboard-response,128,311343,0.0-4.21-1.21,yth695mh23i,2022-09-19 17:57:35.035,608078f433346dd7a841b511,1,82,0,1,4,37,female,1003.1999999881,,"
  <table>
  <tr height=300>
    <td width=300 height=300><img src=""static/images/cards/back_of_black_stars.svg"" width=""175px"" height=""250px""></img></td>
    <td width=300 height=300><img src=""static/images/cards/back_of_black_stars.svg"" width=""175px"" height=""250px""></img></td>
  </tr>
  <tr height=200>
    <td width=300></td>
    <td width=300><img src=""static/images/keys/m.svg"" width=""35%"" height=""75%""></img></td>
  </tr>
</table>
  ",77.0,1.0,,,,,,,,,,,,,,,,,,,,,,,,,,
129,0,,html-keyboard-response,129,312847,0.0-4.21-2.21,yth695mh23i,2022-09-19 17:57:35.035,608078f433346dd7a841b511,1,82,0,1,4,37,female,,,"
  <table>
  <tr height=300>
    <td width=300 height=300><img src=""static/images/cards/back_of_black_stars.svg"" width=""175px"" height=""250px""></img></td>
    <td width=300 height=300><img src=""static/images/cards/10_of_black_stars.svg"" width=""175px"" height=""250px""></img></td>
  </tr>
  <tr height=200>
    <td width=300></td>
    <td width=300><img src=""static/images/keys/m.svg"" width=""35%"" height=""75%""></img></td>
  </tr>
</table>
  ",,,,,,,,,,,,,,,,,,,,,,,,,,,,
130,0,,html-keyboard-response,130,314363,0.0-4.21-3.21,yth695mh23i,2022-09-19 17:57:35.035,608078f433346dd7a841b511,1,82,0,1,4,37,female,,,"<p style=""font-size:50px"">You Lose!
No points this round.</p>",,,,,,,,,,,,,,,,,,,,,,,,,,,,
131,0,,html-keyboard-response,131,314880,0.0-4.21-4.21,yth695mh23i,2022-09-19 17:57:35.035,608078f433346dd7a841b511,1,82,0,1,4,37,female,,,,,,1.0,learning,21.0,D,,black,,stars,,,,D,black,stars,,0.0,0.0,0,right,1003.1999999881,10.0,1.0,0.0,,,
132,0,,html-keyboard-response,132,316391,0.0-4.22-0.22,yth695mh23i,2022-09-19 17:57:35.035,608078f433346dd7a841b511,1,82,0,1,4,37,female,,,"<img src=""static/images/cards/stack_of_red_bolts.svg"" width=""175px"" height=""250px""></img>",,,,,,,,,,,,,,,,,,,,,,,,,,,,
133,0,,html-keyboard-response,133,317168,0.0-4.22-1.22,yth695mh23i,2022-09-19 17:57:35.035,608078f433346dd7a841b511,1,82,0,1,4,37,female,264.1000000238,,"
  <table>
  <tr height=300>
    <td width=300 height=300><img src=""static/images/cards/back_of_red_bolts.svg"" width=""175px"" height=""250px""></img></td>
    <td width=300 height=300><img src=""static/images/cards/back_of_red_bolts.svg"" width=""175px"" height=""250px""></img></td>
  </tr>
  <tr height=200>
    <td width=300><img src=""static/images/keys/z.svg"" width=""35%"" height=""75%""></img></td>
    <td width=300><img src=""static/images/keys/m.svg"" width=""35%"" height=""75%""></img></td>
  </tr>
</table>
  ",77.0,1.0,,,,,,,,,,,,,,,,,,,,,,,,,,
134,0,,html-keyboard-response,134,318676,0.0-4.22-2.22,yth695mh23i,2022-09-19 17:57:35.035,608078f433346dd7a841b511,1,82,0,1,4,37,female,,,"
  <table>
  <tr height=300>
    <td width=300 height=300><img src=""static/images/cards/back_of_red_bolts.svg"" width=""175px"" height=""250px""></img></td>
    <td width=300 height=300><img src=""static/images/cards/8_of_red_bolts.svg"" width=""175px"" height=""250px""></img></td>
  </tr>
  <tr height=200>
    <td width=300><img src=""static/images/keys/z.svg"" width=""35%"" height=""75%""></img></td>
    <td width=300><img src=""static/images/keys/m.svg"" width=""35%"" height=""75%""></img></td>
  </tr>
</table>
  ",,,,,,,,,,,,,,,,,,,,,,,,,,,,
135,0,,html-keyboard-response,135,320196,0.0-4.22-3.22,yth695mh23i,2022-09-19 17:57:35.035,608078f433346dd7a841b511,1,82,0,1,4,37,female,,,"<p style=""font-size:50px"">You win!
+10 points this round!</p>",,,,,,,,,,,,,,,,,,,,,,,,,,,,
136,0,,html-keyboard-response,136,320713,0.0-4.22-4.22,yth695mh23i,2022-09-19 17:57:35.035,608078f433346dd7a841b511,1,82,0,1,4,37,female,,,,,,1.0,learning,22.0,Xc,,red,,bolts,,,,Xc,red,bolts,,1.0,0.0,NA,right,264.1000000238,8.0,1.0,1.0,,,
137,0,,html-keyboard-response,137,322222,0.0-4.23-0.23,yth695mh23i,2022-09-19 17:57:35.035,608078f433346dd7a841b511,1,82,0,1,4,37,female,,,"<img src=""static/images/cards/stack_of_black_bolts.svg"" width=""175px"" height=""250px""></img>",,,,,,,,,,,,,,,,,,,,,,,,,,,,
138,0,,html-keyboard-response,138,323680,0.0-4.23-1.23,yth695mh23i,2022-09-19 17:57:35.035,608078f433346dd7a841b511,1,82,0,1,4,37,female,949.9000000358,,"
  <table>
  <tr height=300>
    <td width=300 height=300><img src=""static/images/cards/back_of_black_bolts.svg"" width=""175px"" height=""250px""></img></td>
    <td width=300 height=300><img src=""static/images/cards/back_of_black_bolts.svg"" width=""175px"" height=""250px""></img></td>
  </tr>
  <tr height=200>
    <td width=300></td>
    <td width=300><img src=""static/images/keys/m.svg"" width=""35%"" height=""75%""></img></td>
  </tr>
</table>
  ",77.0,1.0,,,,,,,,,,,,,,,,,,,,,,,,,,
139,0,,html-keyboard-response,139,325193,0.0-4.23-2.23,yth695mh23i,2022-09-19 17:57:35.035,608078f433346dd7a841b511,1,82,0,1,4,37,female,,,"
  <table>
  <tr height=300>
    <td width=300 height=300><img src=""static/images/cards/back_of_black_bolts.svg"" width=""175px"" height=""250px""></img></td>
    <td width=300 height=300><img src=""static/images/cards/8_of_black_bolts.svg"" width=""175px"" height=""250px""></img></td>
  </tr>
  <tr height=200>
    <td width=300></td>
    <td width=300><img src=""static/images/keys/m.svg"" width=""35%"" height=""75%""></img></td>
  </tr>
</table>
  ",,,,,,,,,,,,,,,,,,,,,,,,,,,,
140,0,,html-keyboard-response,140,326709,0.0-4.23-3.23,yth695mh23i,2022-09-19 17:57:35.035,608078f433346dd7a841b511,1,82,0,1,4,37,female,,,"<p style=""font-size:50px"">You win!
+10 points this round!</p>",,,,,,,,,,,,,,,,,,,,,,,,,,,,
141,0,,html-keyboard-response,141,327222,0.0-4.23-4.23,yth695mh23i,2022-09-19 17:57:35.035,608078f433346dd7a841b511,1,82,0,1,4,37,female,,,,,,1.0,learning,23.0,Xnc,,black,,bolts,,,,Xnc,black,bolts,,0.0,0.0,0,right,949.9000000358,8.0,1.0,1.0,,,
142,0,,call-function,142,327235,0.0-5.0,yth695mh23i,2022-09-19 17:57:35.035,608078f433346dd7a841b511,1,82,0,1,4,37,female,,,,,,,,,,,,,,,,,,,,,,,,,,,,,,,
143,0,,image-keyboard-response,143,364304,0.0-6.0-0.0,yth695mh23i,2022-09-19 17:57:35.035,608078f433346dd7a841b511,1,82,0,1,4,37,female,37067.5,,static/images/instructions_CB_1/Slide20.png,39.0,,,,,,,,,,,,,,,,,,,,,,,,,,,
144,0,,image-keyboard-response,144,377328,0.0-6.1-0.1,yth695mh23i,2022-09-19 17:57:35.035,608078f433346dd7a841b511,1,82,0,1,4,37,female,13022.1999999881,,static/images/instructions_CB_1/Slide21.png,37.0,,,,,,,,,,,,,,,,,,,,,,,,,,,
145,0,,image-keyboard-response,145,383408,0.0-6.2-0.2,yth695mh23i,2022-09-19 17:57:35.035,608078f433346dd7a841b511,1,82,0,1,4,37,female,6078.1000000238,,static/images/instructions_CB_1/Slide20.png,39.0,,,,,,,,,,,,,,,,,,,,,,,,,,,
146,0,,image-keyboard-response,146,384480,0.0-6.3-0.3,yth695mh23i,2022-09-19 17:57:35.035,608078f433346dd7a841b511,1,82,0,1,4,37,female,1070.4000000358,,static/images/instructions_CB_1/Slide21.png,39.0,,,,,,,,,,,,,,,,,,,,,,,,,,,
147,0,,image-keyboard-response,147,389776,0.0-6.4-0.4,yth695mh23i,2022-09-19 17:57:35.035,608078f433346dd7a841b511,1,82,0,1,4,37,female,5294.6999999881,,static/images/instructions_CB_1/Slide22.png,39.0,,,,,,,,,,,,,,,,,,,,,,,,,,,
148,0,,image-keyboard-response,148,404368,0.0-6.5-0.5,yth695mh23i,2022-09-19 17:57:35.035,608078f433346dd7a841b511,1,82,0,1,4,37,female,14590.5,,static/images/instructions_CB_1/Slide23.png,39.0,,,,,,,,,,,,,,,,,,,,,,,,,,,
149,0,,image-keyboard-response,149,407504,0.0-6.6-0.6,yth695mh23i,2022-09-19 17:57:35.035,608078f433346dd7a841b511,1,82,0,1,4,37,female,3134.0,,static/images/instructions_CB_1/Slide24.png,39.0,,,,,,,,,,,,,,,,,,,,,,,,,,,
150,0,,html-keyboard-response,150,409760,0.0-7.0-0.0,yth695mh23i,2022-09-19 17:57:35.035,608078f433346dd7a841b511,1,82,0,1,4,37,female,2253.5,,"
  <table>
  <tr height=300>
    <td width=300 height=300><img src=""static/images/cards/stack_of_black_stars.svg"" width=""175px"" height=""250px""></img></td>
    <td width=300 height=300><img src=""static/images/cards/stack_of_black_moons.svg"" width=""175px"" height=""250px""></img></td>
  </tr>
  <tr height=200>
    <td width=300><img src=""static/images/keys/w.svg"" width=""35%"" height=""75%""></img></td>
    <td width=300><img src=""static/images/keys/o.svg"" width=""35%"" height=""75%""></img></td>
  </tr>
</table>
  ",79.0,1.0,,,,,,,,,,,,,,,,,,,,,,,,,,
151,0,,html-keyboard-response,151,411632,0.0-7.0-1.0,yth695mh23i,2022-09-19 17:57:35.035,608078f433346dd7a841b511,1,82,0,1,4,37,female,1362.6999999881,,"
  <table>
  <tr height=300>
    <td width=300 height=300><img src=""static/images/cards/back_of_black_moons.svg"" width=""175px"" height=""250px""></img></td>
    <td width=300 height=300><img src=""static/images/cards/back_of_black_moons.svg"" width=""175px"" height=""250px""></img></td>
  </tr>
  <tr height=200>
    <td width=300><img src=""static/images/keys/z.svg"" width=""35%"" height=""75%""></img></td>
    <td width=300></td>
  </tr>
</table>
  ",90.0,1.0,,,,,,,,,,,,,,,,,,,,,,,,,,
152,0,,html-keyboard-response,152,413146,0.0-7.0-2.0,yth695mh23i,2022-09-19 17:57:35.035,608078f433346dd7a841b511,1,82,0,1,4,37,female,,,"
  <table>
  <tr height=300>
    <td width=300 height=300><img src=""static/images/cards/7_of_black_moons.svg"" width=""175px"" height=""250px""></img></td>
    <td width=300 height=300><img src=""static/images/cards/back_of_black_moons.svg"" width=""175px"" height=""250px""></img></td>
  </tr>
  <tr height=200>
    <td width=300><img src=""static/images/keys/z.svg"" width=""35%"" height=""75%""></img></td>
    <td width=300></td>
  </tr>
</table>
  ",,,,,,,,,,,,,,,,,,,,,,,,,,,,
153,0,,html-keyboard-response,153,414662,0.0-7.0-3.0,yth695mh23i,2022-09-19 17:57:35.035,608078f433346dd7a841b511,1,82,0,1,4,37,female,,,"<p style=""font-size:50px"">You win!
+10 points this round!</p>",,,,,,,,,,,,,,,,,,,,,,,,,,,,
154,0,,html-keyboard-response,154,415177,0.0-7.0-4.0,yth695mh23i,2022-09-19 17:57:35.035,608078f433346dd7a841b511,1,82,0,1,4,37,female,,,,,,1.0,choice,0.0,B,D,black,black,stars,moons,D,B,B,black,moons,2253.5,0.0,1.0,1,left,1362.6999999881,7.0,1.0,1.0,,,
155,0,,html-keyboard-response,155,416688,0.0-7.1-0.1,yth695mh23i,2022-09-19 17:57:35.035,608078f433346dd7a841b511,1,82,0,1,4,37,female,1508.5,,"
  <table>
  <tr height=300>
    <td width=300 height=300><img src=""static/images/cards/stack_of_red_moons.svg"" width=""175px"" height=""250px""></img></td>
    <td width=300 height=300><img src=""static/images/cards/stack_of_black_moons.svg"" width=""175px"" height=""250px""></img></td>
  </tr>
  <tr height=200>
    <td width=300><img src=""static/images/keys/w.svg"" width=""35%"" height=""75%""></img></td>
    <td width=300><img src=""static/images/keys/o.svg"" width=""35%"" height=""75%""></img></td>
  </tr>
</table>
  ",87.0,1.0,,,,,,,,,,,,,,,,,,,,,,,,,,
156,0,,html-keyboard-response,156,418800,0.0-7.1-1.1,yth695mh23i,2022-09-19 17:57:35.035,608078f433346dd7a841b511,1,82,0,1,4,37,female,1602.5,,"
  <table>
  <tr height=300>
    <td width=300 height=300><img src=""static/images/cards/back_of_red_moons.svg"" width=""175px"" height=""250px""></img></td>
    <td width=300 height=300><img src=""static/images/cards/back_of_red_moons.svg"" width=""175px"" height=""250px""></img></td>
  </tr>
  <tr height=200>
    <td width=300><img src=""static/images/keys/z.svg"" width=""35%"" height=""75%""></img></td>
    <td width=300><img src=""static/images/keys/m.svg"" width=""35%"" height=""75%""></img></td>
  </tr>
</table>
  ",77.0,1.0,,,,,,,,,,,,,,,,,,,,,,,,,,
157,0,,html-keyboard-response,157,420304,0.0-7.1-2.1,yth695mh23i,2022-09-19 17:57:35.035,608078f433346dd7a841b511,1,82,0,1,4,37,female,,,"
  <table>
  <tr height=300>
    <td width=300 height=300><img src=""static/images/cards/back_of_red_moons.svg"" width=""175px"" height=""250px""></img></td>
    <td width=300 height=300><img src=""static/images/cards/6_of_red_moons.svg"" width=""175px"" height=""250px""></img></td>
  </tr>
  <tr height=200>
    <td width=300><img src=""static/images/keys/z.svg"" width=""35%"" height=""75%""></img></td>
    <td width=300><img src=""static/images/keys/m.svg"" width=""35%"" height=""75%""></img></td>
  </tr>
</table>
  ",,,,,,,,,,,,,,,,,,,,,,,,,,,,
158,0,,html-keyboard-response,158,421820,0.0-7.1-3.1,yth695mh23i,2022-09-19 17:57:35.035,608078f433346dd7a841b511,1,82,0,1,4,37,female,,,"<p style=""font-size:50px"">You win!
+10 points this round!</p>",,,,,,,,,,,,,,,,,,,,,,,,,,,,
159,0,,html-keyboard-response,159,422327,0.0-7.1-4.1,yth695mh23i,2022-09-19 17:57:35.035,608078f433346dd7a841b511,1,82,0,1,4,37,female,,,,,,1.0,choice,1.0,A,B,red,black,moons,moons,A,B,A,red,moons,1508.5,1.0,1.0,NA,right,1602.5,6.0,1.0,1.0,,,
160,0,,html-keyboard-response,160,424192,0.0-7.2-0.2,yth695mh23i,2022-09-19 17:57:35.035,608078f433346dd7a841b511,1,82,0,1,4,37,female,1862.3999999762,,"
  <table>
  <tr height=300>
    <td width=300 height=300><img src=""static/images/cards/stack_of_red_stars.svg"" width=""175px"" height=""250px""></img></td>
    <td width=300 height=300><img src=""static/images/cards/stack_of_black_stars.svg"" width=""175px"" height=""250px""></img></td>
  </tr>
  <tr height=200>
    <td width=300><img src=""static/images/keys/w.svg"" width=""35%"" height=""75%""></img></td>
    <td width=300><img src=""static/images/keys/o.svg"" width=""35%"" height=""75%""></img></td>
  </tr>
</table>
  ",87.0,1.0,,,,,,,,,,,,,,,,,,,,,,,,,,
161,0,,html-keyboard-response,161,426000,0.0-7.2-1.2,yth695mh23i,2022-09-19 17:57:35.035,608078f433346dd7a841b511,1,82,0,1,4,37,female,1303.8000000119,,"
  <table>
  <tr height=300>
    <td width=300 height=300><img src=""static/images/cards/back_of_red_stars.svg"" width=""175px"" height=""250px""></img></td>
    <td width=300 height=300><img src=""static/images/cards/back_of_red_stars.svg"" width=""175px"" height=""250px""></img></td>
  </tr>
  <tr height=200>
    <td width=300><img src=""static/images/keys/z.svg"" width=""35%"" height=""75%""></img></td>
    <td width=300><img src=""static/images/keys/m.svg"" width=""35%"" height=""75%""></img></td>
  </tr>
</table>
  ",90.0,1.0,,,,,,,,,,,,,,,,,,,,,,,,,,
162,0,,html-keyboard-response,162,427505,0.0-7.2-2.2,yth695mh23i,2022-09-19 17:57:35.035,608078f433346dd7a841b511,1,82,0,1,4,37,female,,,"
  <table>
  <tr height=300>
    <td width=300 height=300><img src=""static/images/cards/1_of_red_stars.svg"" width=""175px"" height=""250px""></img></td>
    <td width=300 height=300><img src=""static/images/cards/back_of_red_stars.svg"" width=""175px"" height=""250px""></img></td>
  </tr>
  <tr height=200>
    <td width=300><img src=""static/images/keys/z.svg"" width=""35%"" height=""75%""></img></td>
    <td width=300><img src=""static/images/keys/m.svg"" width=""35%"" height=""75%""></img></td>
  </tr>
</table>
  ",,,,,,,,,,,,,,,,,,,,,,,,,,,,
163,0,,html-keyboard-response,163,429018,0.0-7.2-3.2,yth695mh23i,2022-09-19 17:57:35.035,608078f433346dd7a841b511,1,82,0,1,4,37,female,,,"<p style=""font-size:50px"">You Lose!
No points this round.</p>",,,,,,,,,,,,,,,,,,,,,,,,,,,,
164,0,,html-keyboard-response,164,429538,0.0-7.2-4.2,yth695mh23i,2022-09-19 17:57:35.035,608078f433346dd7a841b511,1,82,0,1,4,37,female,,,,,,1.0,choice,2.0,C,D,red,black,stars,stars,C,D,C,red,stars,1862.3999999762,1.0,0.0,NA,left,1303.8000000119,1.0,0.0,0.0,,,
165,0,,html-keyboard-response,165,431568,0.0-7.3-0.3,yth695mh23i,2022-09-19 17:57:35.035,608078f433346dd7a841b511,1,82,0,1,4,37,female,2027.6999999881,,"
  <table>
  <tr height=300>
    <td width=300 height=300><img src=""static/images/cards/stack_of_black_stars.svg"" width=""175px"" height=""250px""></img></td>
    <td width=300 height=300><img src=""static/images/cards/stack_of_red_moons.svg"" width=""175px"" height=""250px""></img></td>
  </tr>
  <tr height=200>
    <td width=300><img src=""static/images/keys/w.svg"" width=""35%"" height=""75%""></img></td>
    <td width=300><img src=""static/images/keys/o.svg"" width=""35%"" height=""75%""></img></td>
  </tr>
</table>
  ",79.0,1.0,,,,,,,,,,,,,,,,,,,,,,,,,,
166,0,,html-keyboard-response,166,433105,0.0-7.3-1.3,yth695mh23i,2022-09-19 17:57:35.035,608078f433346dd7a841b511,1,82,0,1,4,37,female,1018.5,,"
  <table>
  <tr height=300>
    <td width=300 height=300><img src=""static/images/cards/back_of_red_moons.svg"" width=""175px"" height=""250px""></img></td>
    <td width=300 height=300><img src=""static/images/cards/back_of_red_moons.svg"" width=""175px"" height=""250px""></img></td>
  </tr>
  <tr height=200>
    <td width=300><img src=""static/images/keys/z.svg"" width=""35%"" height=""75%""></img></td>
    <td width=300><img src=""static/images/keys/m.svg"" width=""35%"" height=""75%""></img></td>
  </tr>
</table>
  ",77.0,1.0,,,,,,,,,,,,,,,,,,,,,,,,,,
167,0,,html-keyboard-response,167,434620,0.0-7.3-2.3,yth695mh23i,2022-09-19 17:57:35.035,608078f433346dd7a841b511,1,82,0,1,4,37,female,,,"
  <table>
  <tr height=300>
    <td width=300 height=300><img src=""static/images/cards/back_of_red_moons.svg"" width=""175px"" height=""250px""></img></td>
    <td width=300 height=300><img src=""static/images/cards/2_of_red_moons.svg"" width=""175px"" height=""250px""></img></td>
  </tr>
  <tr height=200>
    <td width=300><img src=""static/images/keys/z.svg"" width=""35%"" height=""75%""></img></td>
    <td width=300><img src=""static/images/keys/m.svg"" width=""35%"" height=""75%""></img></td>
  </tr>
</table>
  ",,,,,,,,,,,,,,,,,,,,,,,,,,,,
168,0,,html-keyboard-response,168,436138,0.0-7.3-3.3,yth695mh23i,2022-09-19 17:57:35.035,608078f433346dd7a841b511,1,82,0,1,4,37,female,,,"<p style=""font-size:50px"">You Lose!
No points this round.</p>",,,,,,,,,,,,,,,,,,,,,,,,,,,,
169,0,,html-keyboard-response,169,436653,0.0-7.3-4.3,yth695mh23i,2022-09-19 17:57:35.035,608078f433346dd7a841b511,1,82,0,1,4,37,female,,,,,,1.0,choice,3.0,A,D,black,red,stars,moons,D,A,A,red,moons,2027.6999999881,1.0,1.0,NA,right,1018.5,2.0,0.0,0.0,,,
170,0,,html-keyboard-response,170,438496,0.0-7.4-0.4,yth695mh23i,2022-09-19 17:57:35.035,608078f433346dd7a841b511,1,82,0,1,4,37,female,1840.0,,"
  <table>
  <tr height=300>
    <td width=300 height=300><img src=""static/images/cards/stack_of_red_stars.svg"" width=""175px"" height=""250px""></img></td>
    <td width=300 height=300><img src=""static/images/cards/stack_of_black_moons.svg"" width=""175px"" height=""250px""></img></td>
  </tr>
  <tr height=200>
    <td width=300><img src=""static/images/keys/w.svg"" width=""35%"" height=""75%""></img></td>
    <td width=300><img src=""static/images/keys/o.svg"" width=""35%"" height=""75%""></img></td>
  </tr>
</table>
  ",87.0,1.0,,,,,,,,,,,,,,,,,,,,,,,,,,
171,0,,html-keyboard-response,171,440240,0.0-7.4-1.4,yth695mh23i,2022-09-19 17:57:35.035,608078f433346dd7a841b511,1,82,0,1,4,37,female,1229.1999999881,,"
  <table>
  <tr height=300>
    <td width=300 height=300><img src=""static/images/cards/back_of_red_stars.svg"" width=""175px"" height=""250px""></img></td>
    <td width=300 height=300><img src=""static/images/cards/back_of_red_stars.svg"" width=""175px"" height=""250px""></img></td>
  </tr>
  <tr height=200>
    <td width=300><img src=""static/images/keys/z.svg"" width=""35%"" height=""75%""></img></td>
    <td width=300><img src=""static/images/keys/m.svg"" width=""35%"" height=""75%""></img></td>
  </tr>
</table>
  ",77.0,1.0,,,,,,,,,,,,,,,,,,,,,,,,,,
172,0,,html-keyboard-response,172,441756,0.0-7.4-2.4,yth695mh23i,2022-09-19 17:57:35.035,608078f433346dd7a841b511,1,82,0,1,4,37,female,,,"
  <table>
  <tr height=300>
    <td width=300 height=300><img src=""static/images/cards/back_of_red_stars.svg"" width=""175px"" height=""250px""></img></td>
    <td width=300 height=300><img src=""static/images/cards/2_of_red_stars.svg"" width=""175px"" height=""250px""></img></td>
  </tr>
  <tr height=200>
    <td width=300><img src=""static/images/keys/z.svg"" width=""35%"" height=""75%""></img></td>
    <td width=300><img src=""static/images/keys/m.svg"" width=""35%"" height=""75%""></img></td>
  </tr>
</table>
  ",,,,,,,,,,,,,,,,,,,,,,,,,,,,
173,0,,html-keyboard-response,173,443267,0.0-7.4-3.4,yth695mh23i,2022-09-19 17:57:35.035,608078f433346dd7a841b511,1,82,0,1,4,37,female,,,"<p style=""font-size:50px"">You Lose!
No points this round.</p>",,,,,,,,,,,,,,,,,,,,,,,,,,,,
174,0,,html-keyboard-response,174,443782,0.0-7.4-4.4,yth695mh23i,2022-09-19 17:57:35.035,608078f433346dd7a841b511,1,82,0,1,4,37,female,,,,,,1.0,choice,4.0,B,C,red,black,stars,moons,C,B,C,red,stars,1840.0,1.0,0.0,NA,right,1229.1999999881,2.0,0.0,0.0,,,
175,0,,html-keyboard-response,175,445616,0.0-7.5-0.5,yth695mh23i,2022-09-19 17:57:35.035,608078f433346dd7a841b511,1,82,0,1,4,37,female,1831.3999999762,,"
  <table>
  <tr height=300>
    <td width=300 height=300><img src=""static/images/cards/stack_of_red_moons.svg"" width=""175px"" height=""250px""></img></td>
    <td width=300 height=300><img src=""static/images/cards/stack_of_black_bolts.svg"" width=""175px"" height=""250px""></img></td>
  </tr>
  <tr height=200>
    <td width=300><img src=""static/images/keys/w.svg"" width=""35%"" height=""75%""></img></td>
    <td width=300><img src=""static/images/keys/o.svg"" width=""35%"" height=""75%""></img></td>
  </tr>
</table>
  ",87.0,1.0,,,,,,,,,,,,,,,,,,,,,,,,,,
176,0,,html-keyboard-response,176,447360,0.0-7.5-1.5,yth695mh23i,2022-09-19 17:57:35.035,608078f433346dd7a841b511,1,82,0,1,4,37,female,1229.8000000119,,"
  <table>
  <tr height=300>
    <td width=300 height=300><img src=""static/images/cards/back_of_red_moons.svg"" width=""175px"" height=""250px""></img></td>
    <td width=300 height=300><img src=""static/images/cards/back_of_red_moons.svg"" width=""175px"" height=""250px""></img></td>
  </tr>
  <tr height=200>
    <td width=300><img src=""static/images/keys/z.svg"" width=""35%"" height=""75%""></img></td>
    <td width=300><img src=""static/images/keys/m.svg"" width=""35%"" height=""75%""></img></td>
  </tr>
</table>
  ",90.0,1.0,,,,,,,,,,,,,,,,,,,,,,,,,,
177,0,,html-keyboard-response,177,448865,0.0-7.5-2.5,yth695mh23i,2022-09-19 17:57:35.035,608078f433346dd7a841b511,1,82,0,1,4,37,female,,,"
  <table>
  <tr height=300>
    <td width=300 height=300><img src=""static/images/cards/9_of_red_moons.svg"" width=""175px"" height=""250px""></img></td>
    <td width=300 height=300><img src=""static/images/cards/back_of_red_moons.svg"" width=""175px"" height=""250px""></img></td>
  </tr>
  <tr height=200>
    <td width=300><img src=""static/images/keys/z.svg"" width=""35%"" height=""75%""></img></td>
    <td width=300><img src=""static/images/keys/m.svg"" width=""35%"" height=""75%""></img></td>
  </tr>
</table>
  ",,,,,,,,,,,,,,,,,,,,,,,,,,,,
178,0,,html-keyboard-response,178,450383,0.0-7.5-3.5,yth695mh23i,2022-09-19 17:57:35.035,608078f433346dd7a841b511,1,82,0,1,4,37,female,,,"<p style=""font-size:50px"">You win!
+10 points this round!</p>",,,,,,,,,,,,,,,,,,,,,,,,,,,,
179,0,,html-keyboard-response,179,450898,0.0-7.5-4.5,yth695mh23i,2022-09-19 17:57:35.035,608078f433346dd7a841b511,1,82,0,1,4,37,female,,,,,,1.0,choice,5.0,A,Xnc,red,black,moons,bolts,A,Xnc,A,red,moons,1831.3999999762,1.0,1.0,NA,left,1229.8000000119,9.0,1.0,1.0,,,
180,0,,html-keyboard-response,180,452704,0.0-7.6-0.6,yth695mh23i,2022-09-19 17:57:35.035,608078f433346dd7a841b511,1,82,0,1,4,37,female,1803.1000000238,,"
  <table>
  <tr height=300>
    <td width=300 height=300><img src=""static/images/cards/stack_of_black_moons.svg"" width=""175px"" height=""250px""></img></td>
    <td width=300 height=300><img src=""static/images/cards/stack_of_red_stars.svg"" width=""175px"" height=""250px""></img></td>
  </tr>
  <tr height=200>
    <td width=300><img src=""static/images/keys/w.svg"" width=""35%"" height=""75%""></img></td>
    <td width=300><img src=""static/images/keys/o.svg"" width=""35%"" height=""75%""></img></td>
  </tr>
</table>
  ",79.0,1.0,,,,,,,,,,,,,,,,,,,,,,,,,,
181,0,,html-keyboard-response,181,454464,0.0-7.6-1.6,yth695mh23i,2022-09-19 17:57:35.035,608078f433346dd7a841b511,1,82,0,1,4,37,female,1252.8999999762,,"
  <table>
  <tr height=300>
    <td width=300 height=300><img src=""static/images/cards/back_of_red_stars.svg"" width=""175px"" height=""250px""></img></td>
    <td width=300 height=300><img src=""static/images/cards/back_of_red_stars.svg"" width=""175px"" height=""250px""></img></td>
  </tr>
  <tr height=200>
    <td width=300><img src=""static/images/keys/z.svg"" width=""35%"" height=""75%""></img></td>
    <td width=300><img src=""static/images/keys/m.svg"" width=""35%"" height=""75%""></img></td>
  </tr>
</table>
  ",77.0,1.0,,,,,,,,,,,,,,,,,,,,,,,,,,
182,0,,html-keyboard-response,182,455969,0.0-7.6-2.6,yth695mh23i,2022-09-19 17:57:35.035,608078f433346dd7a841b511,1,82,0,1,4,37,female,,,"
  <table>
  <tr height=300>
    <td width=300 height=300><img src=""static/images/cards/back_of_red_stars.svg"" width=""175px"" height=""250px""></img></td>
    <td width=300 height=300><img src=""static/images/cards/6_of_red_stars.svg"" width=""175px"" height=""250px""></img></td>
  </tr>
  <tr height=200>
    <td width=300><img src=""static/images/keys/z.svg"" width=""35%"" height=""75%""></img></td>
    <td width=300><img src=""static/images/keys/m.svg"" width=""35%"" height=""75%""></img></td>
  </tr>
</table>
  ",,,,,,,,,,,,,,,,,,,,,,,,,,,,
183,0,,html-keyboard-response,183,457488,0.0-7.6-3.6,yth695mh23i,2022-09-19 17:57:35.035,608078f433346dd7a841b511,1,82,0,1,4,37,female,,,"<p style=""font-size:50px"">You Lose!
No points this round.</p>",,,,,,,,,,,,,,,,,,,,,,,,,,,,
184,0,,html-keyboard-response,184,458004,0.0-7.6-4.6,yth695mh23i,2022-09-19 17:57:35.035,608078f433346dd7a841b511,1,82,0,1,4,37,female,,,,,,1.0,choice,6.0,B,C,black,red,moons,stars,B,C,C,red,stars,1803.1000000238,1.0,0.0,NA,right,1252.8999999762,6.0,1.0,0.0,,,
185,0,,html-keyboard-response,185,459728,0.0-7.7-0.7,yth695mh23i,2022-09-19 17:57:35.035,608078f433346dd7a841b511,1,82,0,1,4,37,female,1722.0,,"
  <table>
  <tr height=300>
    <td width=300 height=300><img src=""static/images/cards/stack_of_black_moons.svg"" width=""175px"" height=""250px""></img></td>
    <td width=300 height=300><img src=""static/images/cards/stack_of_black_stars.svg"" width=""175px"" height=""250px""></img></td>
  </tr>
  <tr height=200>
    <td width=300><img src=""static/images/keys/w.svg"" width=""35%"" height=""75%""></img></td>
    <td width=300><img src=""static/images/keys/o.svg"" width=""35%"" height=""75%""></img></td>
  </tr>
</table>
  ",79.0,1.0,,,,,,,,,,,,,,,,,,,,,,,,,,
186,0,,html-keyboard-response,186,461376,0.0-7.7-1.7,yth695mh23i,2022-09-19 17:57:35.035,608078f433346dd7a841b511,1,82,0,1,4,37,female,1140.0,,"
  <table>
  <tr height=300>
    <td width=300 height=300><img src=""static/images/cards/back_of_black_stars.svg"" width=""175px"" height=""250px""></img></td>
    <td width=300 height=300><img src=""static/images/cards/back_of_black_stars.svg"" width=""175px"" height=""250px""></img></td>
  </tr>
  <tr height=200>
    <td width=300><img src=""static/images/keys/z.svg"" width=""35%"" height=""75%""></img></td>
    <td width=300></td>
  </tr>
</table>
  ",90.0,1.0,,,,,,,,,,,,,,,,,,,,,,,,,,
187,0,,html-keyboard-response,187,462893,0.0-7.7-2.7,yth695mh23i,2022-09-19 17:57:35.035,608078f433346dd7a841b511,1,82,0,1,4,37,female,,,"
  <table>
  <tr height=300>
    <td width=300 height=300><img src=""static/images/cards/2_of_black_stars.svg"" width=""175px"" height=""250px""></img></td>
    <td width=300 height=300><img src=""static/images/cards/back_of_black_stars.svg"" width=""175px"" height=""250px""></img></td>
  </tr>
  <tr height=200>
    <td width=300><img src=""static/images/keys/z.svg"" width=""35%"" height=""75%""></img></td>
    <td width=300></td>
  </tr>
</table>
  ",,,,,,,,,,,,,,,,,,,,,,,,,,,,
188,0,,html-keyboard-response,188,464413,0.0-7.7-3.7,yth695mh23i,2022-09-19 17:57:35.035,608078f433346dd7a841b511,1,82,0,1,4,37,female,,,"<p style=""font-size:50px"">You win!
+10 points this round!</p>",,,,,,,,,,,,,,,,,,,,,,,,,,,,
189,0,,html-keyboard-response,189,464932,0.0-7.7-4.7,yth695mh23i,2022-09-19 17:57:35.035,608078f433346dd7a841b511,1,82,0,1,4,37,female,,,,,,1.0,choice,7.0,B,D,black,black,moons,stars,B,D,D,black,stars,1722.0,0.0,0.0,1,left,1140.0,2.0,0.0,1.0,,,
190,0,,html-keyboard-response,190,466560,0.0-7.8-0.8,yth695mh23i,2022-09-19 17:57:35.035,608078f433346dd7a841b511,1,82,0,1,4,37,female,1624.6000000238,,"
  <table>
  <tr height=300>
    <td width=300 height=300><img src=""static/images/cards/stack_of_red_stars.svg"" width=""175px"" height=""250px""></img></td>
    <td width=300 height=300><img src=""static/images/cards/stack_of_red_moons.svg"" width=""175px"" height=""250px""></img></td>
  </tr>
  <tr height=200>
    <td width=300><img src=""static/images/keys/w.svg"" width=""35%"" height=""75%""></img></td>
    <td width=300><img src=""static/images/keys/o.svg"" width=""35%"" height=""75%""></img></td>
  </tr>
</table>
  ",79.0,1.0,,,,,,,,,,,,,,,,,,,,,,,,,,
191,0,,html-keyboard-response,191,468560,0.0-7.8-1.8,yth695mh23i,2022-09-19 17:57:35.035,608078f433346dd7a841b511,1,82,0,1,4,37,female,1487.0,,"
  <table>
  <tr height=300>
    <td width=300 height=300><img src=""static/images/cards/back_of_red_moons.svg"" width=""175px"" height=""250px""></img></td>
    <td width=300 height=300><img src=""static/images/cards/back_of_red_moons.svg"" width=""175px"" height=""250px""></img></td>
  </tr>
  <tr height=200>
    <td width=300><img src=""static/images/keys/z.svg"" width=""35%"" height=""75%""></img></td>
    <td width=300><img src=""static/images/keys/m.svg"" width=""35%"" height=""75%""></img></td>
  </tr>
</table>
  ",77.0,1.0,,,,,,,,,,,,,,,,,,,,,,,,,,
192,0,,html-keyboard-response,192,470063,0.0-7.8-2.8,yth695mh23i,2022-09-19 17:57:35.035,608078f433346dd7a841b511,1,82,0,1,4,37,female,,,"
  <table>
  <tr height=300>
    <td width=300 height=300><img src=""static/images/cards/back_of_red_moons.svg"" width=""175px"" height=""250px""></img></td>
    <td width=300 height=300><img src=""static/images/cards/1_of_red_moons.svg"" width=""175px"" height=""250px""></img></td>
  </tr>
  <tr height=200>
    <td width=300><img src=""static/images/keys/z.svg"" width=""35%"" height=""75%""></img></td>
    <td width=300><img src=""static/images/keys/m.svg"" width=""35%"" height=""75%""></img></td>
  </tr>
</table>
  ",,,,,,,,,,,,,,,,,,,,,,,,,,,,
193,0,,html-keyboard-response,193,471587,0.0-7.8-3.8,yth695mh23i,2022-09-19 17:57:35.035,608078f433346dd7a841b511,1,82,0,1,4,37,female,,,"<p style=""font-size:50px"">You Lose!
No points this round.</p>",,,,,,,,,,,,,,,,,,,,,,,,,,,,
194,0,,html-keyboard-response,194,472106,0.0-7.8-4.8,yth695mh23i,2022-09-19 17:57:35.035,608078f433346dd7a841b511,1,82,0,1,4,37,female,,,,,,1.0,choice,8.0,A,C,red,red,stars,moons,C,A,A,red,moons,1624.6000000238,1.0,1.0,NA,right,1487.0,1.0,0.0,0.0,,,
195,0,,html-keyboard-response,195,473488,0.0-7.9-0.9,yth695mh23i,2022-09-19 17:57:35.035,608078f433346dd7a841b511,1,82,0,1,4,37,female,1379.7999999523,,"
  <table>
  <tr height=300>
    <td width=300 height=300><img src=""static/images/cards/stack_of_black_moons.svg"" width=""175px"" height=""250px""></img></td>
    <td width=300 height=300><img src=""static/images/cards/stack_of_black_stars.svg"" width=""175px"" height=""250px""></img></td>
  </tr>
  <tr height=200>
    <td width=300><img src=""static/images/keys/w.svg"" width=""35%"" height=""75%""></img></td>
    <td width=300><img src=""static/images/keys/o.svg"" width=""35%"" height=""75%""></img></td>
  </tr>
</table>
  ",79.0,1.0,,,,,,,,,,,,,,,,,,,,,,,,,,
196,0,,html-keyboard-response,196,475136,0.0-7.9-1.9,yth695mh23i,2022-09-19 17:57:35.035,608078f433346dd7a841b511,1,82,0,1,4,37,female,1143.3000000119,,"
  <table>
  <tr height=300>
    <td width=300 height=300><img src=""static/images/cards/back_of_black_stars.svg"" width=""175px"" height=""250px""></img></td>
    <td width=300 height=300><img src=""static/images/cards/back_of_black_stars.svg"" width=""175px"" height=""250px""></img></td>
  </tr>
  <tr height=200>
    <td width=300></td>
    <td width=300><img src=""static/images/keys/m.svg"" width=""35%"" height=""75%""></img></td>
  </tr>
</table>
  ",77.0,1.0,,,,,,,,,,,,,,,,,,,,,,,,,,
197,0,,html-keyboard-response,197,476642,0.0-7.9-2.9,yth695mh23i,2022-09-19 17:57:35.035,608078f433346dd7a841b511,1,82,0,1,4,37,female,,,"
  <table>
  <tr height=300>
    <td width=300 height=300><img src=""static/images/cards/back_of_black_stars.svg"" width=""175px"" height=""250px""></img></td>
    <td width=300 height=300><img src=""static/images/cards/7_of_black_stars.svg"" width=""175px"" height=""250px""></img></td>
  </tr>
  <tr height=200>
    <td width=300></td>
    <td width=300><img src=""static/images/keys/m.svg"" width=""35%"" height=""75%""></img></td>
  </tr>
</table>
  ",,,,,,,,,,,,,,,,,,,,,,,,,,,,
198,0,,html-keyboard-response,198,478160,0.0-7.9-3.9,yth695mh23i,2022-09-19 17:57:35.035,608078f433346dd7a841b511,1,82,0,1,4,37,female,,,"<p style=""font-size:50px"">You win!
+10 points this round!</p>",,,,,,,,,,,,,,,,,,,,,,,,,,,,
199,0,,html-keyboard-response,199,478674,0.0-7.9-4.9,yth695mh23i,2022-09-19 17:57:35.035,608078f433346dd7a841b511,1,82,0,1,4,37,female,,,,,,1.0,choice,9.0,B,D,black,black,moons,stars,B,D,D,black,stars,1379.7999999523,0.0,0.0,0,right,1143.3000000119,7.0,1.0,1.0,,,
200,0,,html-keyboard-response,200,479984,0.0-7.10-0.10,yth695mh23i,2022-09-19 17:57:35.035,608078f433346dd7a841b511,1,82,0,1,4,37,female,1306.7999999523,,"
  <table>
  <tr height=300>
    <td width=300 height=300><img src=""static/images/cards/stack_of_black_stars.svg"" width=""175px"" height=""250px""></img></td>
    <td width=300 height=300><img src=""static/images/cards/stack_of_red_stars.svg"" width=""175px"" height=""250px""></img></td>
  </tr>
  <tr height=200>
    <td width=300><img src=""static/images/keys/w.svg"" width=""35%"" height=""75%""></img></td>
    <td width=300><img src=""static/images/keys/o.svg"" width=""35%"" height=""75%""></img></td>
  </tr>
</table>
  ",79.0,1.0,,,,,,,,,,,,,,,,,,,,,,,,,,
201,0,,html-keyboard-response,201,481456,0.0-7.10-1.10,yth695mh23i,2022-09-19 17:57:35.035,608078f433346dd7a841b511,1,82,0,1,4,37,female,956.3999999762,,"
  <table>
  <tr height=300>
    <td width=300 height=300><img src=""static/images/cards/back_of_red_stars.svg"" width=""175px"" height=""250px""></img></td>
    <td width=300 height=300><img src=""static/images/cards/back_of_red_stars.svg"" width=""175px"" height=""250px""></img></td>
  </tr>
  <tr height=200>
    <td width=300><img src=""static/images/keys/z.svg"" width=""35%"" height=""75%""></img></td>
    <td width=300><img src=""static/images/keys/m.svg"" width=""35%"" height=""75%""></img></td>
  </tr>
</table>
  ",90.0,1.0,,,,,,,,,,,,,,,,,,,,,,,,,,
202,0,,html-keyboard-response,202,482959,0.0-7.10-2.10,yth695mh23i,2022-09-19 17:57:35.035,608078f433346dd7a841b511,1,82,0,1,4,37,female,,,"
  <table>
  <tr height=300>
    <td width=300 height=300><img src=""static/images/cards/3_of_red_stars.svg"" width=""175px"" height=""250px""></img></td>
    <td width=300 height=300><img src=""static/images/cards/back_of_red_stars.svg"" width=""175px"" height=""250px""></img></td>
  </tr>
  <tr height=200>
    <td width=300><img src=""static/images/keys/z.svg"" width=""35%"" height=""75%""></img></td>
    <td width=300><img src=""static/images/keys/m.svg"" width=""35%"" height=""75%""></img></td>
  </tr>
</table>
  ",,,,,,,,,,,,,,,,,,,,,,,,,,,,
203,0,,html-keyboard-response,203,484482,0.0-7.10-3.10,yth695mh23i,2022-09-19 17:57:35.035,608078f433346dd7a841b511,1,82,0,1,4,37,female,,,"<p style=""font-size:50px"">You Lose!
No points this round.</p>",,,,,,,,,,,,,,,,,,,,,,,,,,,,
204,0,,html-keyboard-response,204,484996,0.0-7.10-4.10,yth695mh23i,2022-09-19 17:57:35.035,608078f433346dd7a841b511,1,82,0,1,4,37,female,,,,,,1.0,choice,10.0,C,D,black,red,stars,stars,D,C,C,red,stars,1306.7999999523,1.0,0.0,NA,left,956.3999999762,3.0,0.0,0.0,,,
205,0,,html-keyboard-response,205,486433,0.0-7.11-0.11,yth695mh23i,2022-09-19 17:57:35.035,608078f433346dd7a841b511,1,82,0,1,4,37,female,1434.3000000119,,"
  <table>
  <tr height=300>
    <td width=300 height=300><img src=""static/images/cards/stack_of_black_stars.svg"" width=""175px"" height=""250px""></img></td>
    <td width=300 height=300><img src=""static/images/cards/stack_of_red_moons.svg"" width=""175px"" height=""250px""></img></td>
  </tr>
  <tr height=200>
    <td width=300><img src=""static/images/keys/w.svg"" width=""35%"" height=""75%""></img></td>
    <td width=300><img src=""static/images/keys/o.svg"" width=""35%"" height=""75%""></img></td>
  </tr>
</table>
  ",79.0,1.0,,,,,,,,,,,,,,,,,,,,,,,,,,
206,0,,html-keyboard-response,206,488256,0.0-7.11-1.11,yth695mh23i,2022-09-19 17:57:35.035,608078f433346dd7a841b511,1,82,0,1,4,37,female,1315.1999999881,,"
  <table>
  <tr height=300>
    <td width=300 height=300><img src=""static/images/cards/back_of_red_moons.svg"" width=""175px"" height=""250px""></img></td>
    <td width=300 height=300><img src=""static/images/cards/back_of_red_moons.svg"" width=""175px"" height=""250px""></img></td>
  </tr>
  <tr height=200>
    <td width=300><img src=""static/images/keys/z.svg"" width=""35%"" height=""75%""></img></td>
    <td width=300><img src=""static/images/keys/m.svg"" width=""35%"" height=""75%""></img></td>
  </tr>
</table>
  ",77.0,1.0,,,,,,,,,,,,,,,,,,,,,,,,,,
207,0,,html-keyboard-response,207,489763,0.0-7.11-2.11,yth695mh23i,2022-09-19 17:57:35.035,608078f433346dd7a841b511,1,82,0,1,4,37,female,,,"
  <table>
  <tr height=300>
    <td width=300 height=300><img src=""static/images/cards/back_of_red_moons.svg"" width=""175px"" height=""250px""></img></td>
    <td width=300 height=300><img src=""static/images/cards/10_of_red_moons.svg"" width=""175px"" height=""250px""></img></td>
  </tr>
  <tr height=200>
    <td width=300><img src=""static/images/keys/z.svg"" width=""35%"" height=""75%""></img></td>
    <td width=300><img src=""static/images/keys/m.svg"" width=""35%"" height=""75%""></img></td>
  </tr>
</table>
  ",,,,,,,,,,,,,,,,,,,,,,,,,,,,
208,0,,html-keyboard-response,208,491289,0.0-7.11-3.11,yth695mh23i,2022-09-19 17:57:35.035,608078f433346dd7a841b511,1,82,0,1,4,37,female,,,"<p style=""font-size:50px"">You win!
+10 points this round!</p>",,,,,,,,,,,,,,,,,,,,,,,,,,,,
209,0,,html-keyboard-response,209,491806,0.0-7.11-4.11,yth695mh23i,2022-09-19 17:57:35.035,608078f433346dd7a841b511,1,82,0,1,4,37,female,,,,,,1.0,choice,11.0,A,D,black,red,stars,moons,D,A,A,red,moons,1434.3000000119,1.0,1.0,NA,right,1315.1999999881,10.0,1.0,1.0,,,
210,0,,html-keyboard-response,210,493488,0.0-7.12-0.12,yth695mh23i,2022-09-19 17:57:35.035,608078f433346dd7a841b511,1,82,0,1,4,37,female,1679.5,,"
  <table>
  <tr height=300>
    <td width=300 height=300><img src=""static/images/cards/stack_of_black_bolts.svg"" width=""175px"" height=""250px""></img></td>
    <td width=300 height=300><img src=""static/images/cards/stack_of_red_stars.svg"" width=""175px"" height=""250px""></img></td>
  </tr>
  <tr height=200>
    <td width=300><img src=""static/images/keys/w.svg"" width=""35%"" height=""75%""></img></td>
    <td width=300><img src=""static/images/keys/o.svg"" width=""35%"" height=""75%""></img></td>
  </tr>
</table>
  ",79.0,1.0,,,,,,,,,,,,,,,,,,,,,,,,,,
211,0,,html-keyboard-response,211,495391,0.0-7.12-1.12,yth695mh23i,2022-09-19 17:57:35.035,608078f433346dd7a841b511,1,82,0,1,4,37,female,1399.0999999642,,"
  <table>
  <tr height=300>
    <td width=300 height=300><img src=""static/images/cards/back_of_red_stars.svg"" width=""175px"" height=""250px""></img></td>
    <td width=300 height=300><img src=""static/images/cards/back_of_red_stars.svg"" width=""175px"" height=""250px""></img></td>
  </tr>
  <tr height=200>
    <td width=300><img src=""static/images/keys/z.svg"" width=""35%"" height=""75%""></img></td>
    <td width=300><img src=""static/images/keys/m.svg"" width=""35%"" height=""75%""></img></td>
  </tr>
</table>
  ",77.0,1.0,,,,,,,,,,,,,,,,,,,,,,,,,,
212,0,,html-keyboard-response,212,496898,0.0-7.12-2.12,yth695mh23i,2022-09-19 17:57:35.035,608078f433346dd7a841b511,1,82,0,1,4,37,female,,,"
  <table>
  <tr height=300>
    <td width=300 height=300><img src=""static/images/cards/back_of_red_stars.svg"" width=""175px"" height=""250px""></img></td>
    <td width=300 height=300><img src=""static/images/cards/3_of_red_stars.svg"" width=""175px"" height=""250px""></img></td>
  </tr>
  <tr height=200>
    <td width=300><img src=""static/images/keys/z.svg"" width=""35%"" height=""75%""></img></td>
    <td width=300><img src=""static/images/keys/m.svg"" width=""35%"" height=""75%""></img></td>
  </tr>
</table>
  ",,,,,,,,,,,,,,,,,,,,,,,,,,,,
213,0,,html-keyboard-response,213,498420,0.0-7.12-3.12,yth695mh23i,2022-09-19 17:57:35.035,608078f433346dd7a841b511,1,82,0,1,4,37,female,,,"<p style=""font-size:50px"">You win!
+10 points this round!</p>",,,,,,,,,,,,,,,,,,,,,,,,,,,,
214,0,,html-keyboard-response,214,498934,0.0-7.12-4.12,yth695mh23i,2022-09-19 17:57:35.035,608078f433346dd7a841b511,1,82,0,1,4,37,female,,,,,,1.0,choice,12.0,C,Xnc,black,red,bolts,stars,Xnc,C,C,red,stars,1679.5,1.0,0.0,NA,right,1399.0999999642,3.0,0.0,1.0,,,
215,0,,html-keyboard-response,215,500481,0.0-7.13-0.13,yth695mh23i,2022-09-19 17:57:35.035,608078f433346dd7a841b511,1,82,0,1,4,37,female,1542.6999999881,,"
  <table>
  <tr height=300>
    <td width=300 height=300><img src=""static/images/cards/stack_of_black_stars.svg"" width=""175px"" height=""250px""></img></td>
    <td width=300 height=300><img src=""static/images/cards/stack_of_red_moons.svg"" width=""175px"" height=""250px""></img></td>
  </tr>
  <tr height=200>
    <td width=300><img src=""static/images/keys/w.svg"" width=""35%"" height=""75%""></img></td>
    <td width=300><img src=""static/images/keys/o.svg"" width=""35%"" height=""75%""></img></td>
  </tr>
</table>
  ",79.0,1.0,,,,,,,,,,,,,,,,,,,,,,,,,,
216,0,,html-keyboard-response,216,502336,0.0-7.13-1.13,yth695mh23i,2022-09-19 17:57:35.035,608078f433346dd7a841b511,1,82,0,1,4,37,female,1345.8000000119,,"
  <table>
  <tr height=300>
    <td width=300 height=300><img src=""static/images/cards/back_of_red_moons.svg"" width=""175px"" height=""250px""></img></td>
    <td width=300 height=300><img src=""static/images/cards/back_of_red_moons.svg"" width=""175px"" height=""250px""></img></td>
  </tr>
  <tr height=200>
    <td width=300><img src=""static/images/keys/z.svg"" width=""35%"" height=""75%""></img></td>
    <td width=300><img src=""static/images/keys/m.svg"" width=""35%"" height=""75%""></img></td>
  </tr>
</table>
  ",77.0,1.0,,,,,,,,,,,,,,,,,,,,,,,,,,
217,0,,html-keyboard-response,217,503849,0.0-7.13-2.13,yth695mh23i,2022-09-19 17:57:35.035,608078f433346dd7a841b511,1,82,0,1,4,37,female,,,"
  <table>
  <tr height=300>
    <td width=300 height=300><img src=""static/images/cards/back_of_red_moons.svg"" width=""175px"" height=""250px""></img></td>
    <td width=300 height=300><img src=""static/images/cards/2_of_red_moons.svg"" width=""175px"" height=""250px""></img></td>
  </tr>
  <tr height=200>
    <td width=300><img src=""static/images/keys/z.svg"" width=""35%"" height=""75%""></img></td>
    <td width=300><img src=""static/images/keys/m.svg"" width=""35%"" height=""75%""></img></td>
  </tr>
</table>
  ",,,,,,,,,,,,,,,,,,,,,,,,,,,,
218,0,,html-keyboard-response,218,505362,0.0-7.13-3.13,yth695mh23i,2022-09-19 17:57:35.035,608078f433346dd7a841b511,1,82,0,1,4,37,female,,,"<p style=""font-size:50px"">You Lose!
No points this round.</p>",,,,,,,,,,,,,,,,,,,,,,,,,,,,
219,0,,html-keyboard-response,219,505881,0.0-7.13-4.13,yth695mh23i,2022-09-19 17:57:35.035,608078f433346dd7a841b511,1,82,0,1,4,37,female,,,,,,1.0,choice,13.0,A,D,black,red,stars,moons,D,A,A,red,moons,1542.6999999881,1.0,1.0,NA,right,1345.8000000119,2.0,0.0,0.0,,,
220,0,,html-keyboard-response,220,507249,0.0-7.14-0.14,yth695mh23i,2022-09-19 17:57:35.035,608078f433346dd7a841b511,1,82,0,1,4,37,female,1364.8000000119,,"
  <table>
  <tr height=300>
    <td width=300 height=300><img src=""static/images/cards/stack_of_black_stars.svg"" width=""175px"" height=""250px""></img></td>
    <td width=300 height=300><img src=""static/images/cards/stack_of_black_moons.svg"" width=""175px"" height=""250px""></img></td>
  </tr>
  <tr height=200>
    <td width=300><img src=""static/images/keys/w.svg"" width=""35%"" height=""75%""></img></td>
    <td width=300><img src=""static/images/keys/o.svg"" width=""35%"" height=""75%""></img></td>
  </tr>
</table>
  ",79.0,1.0,,,,,,,,,,,,,,,,,,,,,,,,,,
221,0,,html-keyboard-response,221,508672,0.0-7.14-1.14,yth695mh23i,2022-09-19 17:57:35.035,608078f433346dd7a841b511,1,82,0,1,4,37,female,906.8000000119,,"
  <table>
  <tr height=300>
    <td width=300 height=300><img src=""static/images/cards/back_of_black_moons.svg"" width=""175px"" height=""250px""></img></td>
    <td width=300 height=300><img src=""static/images/cards/back_of_black_moons.svg"" width=""175px"" height=""250px""></img></td>
  </tr>
  <tr height=200>
    <td width=300><img src=""static/images/keys/z.svg"" width=""35%"" height=""75%""></img></td>
    <td width=300></td>
  </tr>
</table>
  ",90.0,1.0,,,,,,,,,,,,,,,,,,,,,,,,,,
222,0,,html-keyboard-response,222,510179,0.0-7.14-2.14,yth695mh23i,2022-09-19 17:57:35.035,608078f433346dd7a841b511,1,82,0,1,4,37,female,,,"
  <table>
  <tr height=300>
    <td width=300 height=300><img src=""static/images/cards/1_of_black_moons.svg"" width=""175px"" height=""250px""></img></td>
    <td width=300 height=300><img src=""static/images/cards/back_of_black_moons.svg"" width=""175px"" height=""250px""></img></td>
  </tr>
  <tr height=200>
    <td width=300><img src=""static/images/keys/z.svg"" width=""35%"" height=""75%""></img></td>
    <td width=300></td>
  </tr>
</table>
  ",,,,,,,,,,,,,,,,,,,,,,,,,,,,
223,0,,html-keyboard-response,223,511703,0.0-7.14-3.14,yth695mh23i,2022-09-19 17:57:35.035,608078f433346dd7a841b511,1,82,0,1,4,37,female,,,"<p style=""font-size:50px"">You Lose!
No points this round.</p>",,,,,,,,,,,,,,,,,,,,,,,,,,,,
224,0,,html-keyboard-response,224,512217,0.0-7.14-4.14,yth695mh23i,2022-09-19 17:57:35.035,608078f433346dd7a841b511,1,82,0,1,4,37,female,,,,,,1.0,choice,14.0,B,D,black,black,stars,moons,D,B,B,black,moons,1364.8000000119,0.0,1.0,1,left,906.8000000119,1.0,0.0,0.0,,,
225,0,,html-keyboard-response,225,513729,0.0-7.15-0.15,yth695mh23i,2022-09-19 17:57:35.035,608078f433346dd7a841b511,1,82,0,1,4,37,female,1508.5999999642,,"
  <table>
  <tr height=300>
    <td width=300 height=300><img src=""static/images/cards/stack_of_red_moons.svg"" width=""175px"" height=""250px""></img></td>
    <td width=300 height=300><img src=""static/images/cards/stack_of_black_stars.svg"" width=""175px"" height=""250px""></img></td>
  </tr>
  <tr height=200>
    <td width=300><img src=""static/images/keys/w.svg"" width=""35%"" height=""75%""></img></td>
    <td width=300><img src=""static/images/keys/o.svg"" width=""35%"" height=""75%""></img></td>
  </tr>
</table>
  ",87.0,1.0,,,,,,,,,,,,,,,,,,,,,,,,,,
226,0,,html-keyboard-response,226,515408,0.0-7.15-1.15,yth695mh23i,2022-09-19 17:57:35.035,608078f433346dd7a841b511,1,82,0,1,4,37,female,1165.3999999762,,"
  <table>
  <tr height=300>
    <td width=300 height=300><img src=""static/images/cards/back_of_red_moons.svg"" width=""175px"" height=""250px""></img></td>
    <td width=300 height=300><img src=""static/images/cards/back_of_red_moons.svg"" width=""175px"" height=""250px""></img></td>
  </tr>
  <tr height=200>
    <td width=300><img src=""static/images/keys/z.svg"" width=""35%"" height=""75%""></img></td>
    <td width=300><img src=""static/images/keys/m.svg"" width=""35%"" height=""75%""></img></td>
  </tr>
</table>
  ",77.0,1.0,,,,,,,,,,,,,,,,,,,,,,,,,,
227,0,,html-keyboard-response,227,516918,0.0-7.15-2.15,yth695mh23i,2022-09-19 17:57:35.035,608078f433346dd7a841b511,1,82,0,1,4,37,female,,,"
  <table>
  <tr height=300>
    <td width=300 height=300><img src=""static/images/cards/back_of_red_moons.svg"" width=""175px"" height=""250px""></img></td>
    <td width=300 height=300><img src=""static/images/cards/6_of_red_moons.svg"" width=""175px"" height=""250px""></img></td>
  </tr>
  <tr height=200>
    <td width=300><img src=""static/images/keys/z.svg"" width=""35%"" height=""75%""></img></td>
    <td width=300><img src=""static/images/keys/m.svg"" width=""35%"" height=""75%""></img></td>
  </tr>
</table>
  ",,,,,,,,,,,,,,,,,,,,,,,,,,,,
228,0,,html-keyboard-response,228,518431,0.0-7.15-3.15,yth695mh23i,2022-09-19 17:57:35.035,608078f433346dd7a841b511,1,82,0,1,4,37,female,,,"<p style=""font-size:50px"">You win!
+10 points this round!</p>",,,,,,,,,,,,,,,,,,,,,,,,,,,,
229,0,,html-keyboard-response,229,518950,0.0-7.15-4.15,yth695mh23i,2022-09-19 17:57:35.035,608078f433346dd7a841b511,1,82,0,1,4,37,female,,,,,,1.0,choice,15.0,A,D,red,black,moons,stars,A,D,A,red,moons,1508.5999999642,1.0,1.0,NA,right,1165.3999999762,6.0,1.0,1.0,,,
230,0,,html-keyboard-response,230,520432,0.0-7.16-0.16,yth695mh23i,2022-09-19 17:57:35.035,608078f433346dd7a841b511,1,82,0,1,4,37,female,1480.0,,"
  <table>
  <tr height=300>
    <td width=300 height=300><img src=""static/images/cards/stack_of_black_moons.svg"" width=""175px"" height=""250px""></img></td>
    <td width=300 height=300><img src=""static/images/cards/stack_of_red_moons.svg"" width=""175px"" height=""250px""></img></td>
  </tr>
  <tr height=200>
    <td width=300><img src=""static/images/keys/w.svg"" width=""35%"" height=""75%""></img></td>
    <td width=300><img src=""static/images/keys/o.svg"" width=""35%"" height=""75%""></img></td>
  </tr>
</table>
  ",79.0,1.0,,,,,,,,,,,,,,,,,,,,,,,,,,
231,0,,html-keyboard-response,231,521904,0.0-7.16-1.16,yth695mh23i,2022-09-19 17:57:35.035,608078f433346dd7a841b511,1,82,0,1,4,37,female,960.6999999881,,"
  <table>
  <tr height=300>
    <td width=300 height=300><img src=""static/images/cards/back_of_red_moons.svg"" width=""175px"" height=""250px""></img></td>
    <td width=300 height=300><img src=""static/images/cards/back_of_red_moons.svg"" width=""175px"" height=""250px""></img></td>
  </tr>
  <tr height=200>
    <td width=300><img src=""static/images/keys/z.svg"" width=""35%"" height=""75%""></img></td>
    <td width=300><img src=""static/images/keys/m.svg"" width=""35%"" height=""75%""></img></td>
  </tr>
</table>
  ",77.0,1.0,,,,,,,,,,,,,,,,,,,,,,,,,,
232,0,,html-keyboard-response,232,523420,0.0-7.16-2.16,yth695mh23i,2022-09-19 17:57:35.035,608078f433346dd7a841b511,1,82,0,1,4,37,female,,,"
  <table>
  <tr height=300>
    <td width=300 height=300><img src=""static/images/cards/back_of_red_moons.svg"" width=""175px"" height=""250px""></img></td>
    <td width=300 height=300><img src=""static/images/cards/1_of_red_moons.svg"" width=""175px"" height=""250px""></img></td>
  </tr>
  <tr height=200>
    <td width=300><img src=""static/images/keys/z.svg"" width=""35%"" height=""75%""></img></td>
    <td width=300><img src=""static/images/keys/m.svg"" width=""35%"" height=""75%""></img></td>
  </tr>
</table>
  ",,,,,,,,,,,,,,,,,,,,,,,,,,,,
