,index,success,trial_type,trial_index,time_elapsed,internal_node_id,subject,date,prol_id,ctbl,sense_of_control_A,sense_of_control_B,sense_of_control_C,sense_of_control_D,age,gender,rt,url,stimulus,key_press,npress,is_data_trial,phase,trial,deck1,deck2,col1,col2,sym1,sym2,deck_l,deck_r,chosen_deck,chosen_col,chosen_sym,deck_rt,choose_choice,mutual_info,hidden_key,chosen_card,card_rt,player_num,win_card,outcome,mock_rating,response,responses
0,0,1.0,fullscreen,0,3913,0.0-0.0,419wndu8s2m,2022-09-16 18:29:17.233,62cb2599fe7c3e030e6d445b,1,70,37,100,100,57,male,,,,,,,,,,,,,,,,,,,,,,,,,,,,,,,
1,0,,external-html,1,20411,0.0-1.0,419wndu8s2m,2022-09-16 18:29:17.233,62cb2599fe7c3e030e6d445b,1,70,37,100,100,57,male,16328.3999999762,static/js/sub/consent.html,,,,,,,,,,,,,,,,,,,,,,,,,,,,,
2,0,,call-function,2,20411,0.0-2.0,419wndu8s2m,2022-09-16 18:29:17.233,62cb2599fe7c3e030e6d445b,1,70,37,100,100,57,male,,,,,,,,,,,,,,,,,,,,,,,,,,,,,,,
3,0,,image-keyboard-response,3,38452,0.0-3.0-0.0,419wndu8s2m,2022-09-16 18:29:17.233,62cb2599fe7c3e030e6d445b,1,70,37,100,100,57,male,18039.5,,static/images/instructions_CB_1/Slide1.png,39.0,,,,,,,,,,,,,,,,,,,,,,,,,,,
4,0,,image-keyboard-response,4,157861,0.0-3.1-0.1,419wndu8s2m,2022-09-16 18:29:17.233,62cb2599fe7c3e030e6d445b,1,70,37,100,100,57,male,119414.6000000238,,static/images/instructions_CB_1/Slide2.png,39.0,,,,,,,,,,,,,,,,,,,,,,,,,,,
5,0,,image-keyboard-response,5,172901,0.0-3.2-0.2,419wndu8s2m,2022-09-16 18:29:17.233,62cb2599fe7c3e030e6d445b,1,70,37,100,100,57,male,15039.0,,static/images/instructions_CB_1/Slide3.png,39.0,,,,,,,,,,,,,,,,,,,,,,,,,,,
6,0,,image-keyboard-response,6,177852,0.0-3.3-0.3,419wndu8s2m,2022-09-16 18:29:17.233,62cb2599fe7c3e030e6d445b,1,70,37,100,100,57,male,4951.0999999642,,static/images/instructions_CB_1/Slide4.png,39.0,,,,,,,,,,,,,,,,,,,,,,,,,,,
7,0,,image-keyboard-response,7,197389,0.0-3.4-0.4,419wndu8s2m,2022-09-16 18:29:17.233,62cb2599fe7c3e030e6d445b,1,70,37,100,100,57,male,19535.8000000119,,static/images/instructions_CB_1/Slide5.png,39.0,,,,,,,,,,,,,,,,,,,,,,,,,,,
8,0,,image-keyboard-response,8,203141,0.0-3.5-0.5,419wndu8s2m,2022-09-16 18:29:17.233,62cb2599fe7c3e030e6d445b,1,70,37,100,100,57,male,5751.4000000358,,static/images/instructions_CB_1/Slide6.png,39.0,,,,,,,,,,,,,,,,,,,,,,,,,,,
9,0,,image-keyboard-response,9,234868,0.0-3.6-0.6,419wndu8s2m,2022-09-16 18:29:17.233,62cb2599fe7c3e030e6d445b,1,70,37,100,100,57,male,31719.4000000358,,static/images/instructions_CB_1/Slide7.png,39.0,,,,,,,,,,,,,,,,,,,,,,,,,,,
10,0,,image-keyboard-response,10,278659,0.0-3.7-0.7,419wndu8s2m,2022-09-16 18:29:17.233,62cb2599fe7c3e030e6d445b,1,70,37,100,100,57,male,43791.1999999881,,static/images/instructions_CB_1/Slide8.png,39.0,,,,,,,,,,,,,,,,,,,,,,,,,,,
11,0,,image-keyboard-response,11,284923,0.0-3.8-0.8,419wndu8s2m,2022-09-16 18:29:17.233,62cb2599fe7c3e030e6d445b,1,70,37,100,100,57,male,6263.1999999881,,static/images/instructions_CB_1/Slide9.png,39.0,,,,,,,,,,,,,,,,,,,,,,,,,,,
12,0,,image-keyboard-response,12,327172,0.0-3.9-0.9,419wndu8s2m,2022-09-16 18:29:17.233,62cb2599fe7c3e030e6d445b,1,70,37,100,100,57,male,42247.5,,static/images/instructions_CB_1/Slide10.png,39.0,,,,,,,,,,,,,,,,,,,,,,,,,,,
13,0,,image-keyboard-response,13,332579,0.0-3.10-0.10,419wndu8s2m,2022-09-16 18:29:17.233,62cb2599fe7c3e030e6d445b,1,70,37,100,100,57,male,5407.0999999642,,static/images/instructions_CB_1/Slide11.png,39.0,,,,,,,,,,,,,,,,,,,,,,,,,,,
14,0,,image-keyboard-response,14,343187,0.0-3.11-0.11,419wndu8s2m,2022-09-16 18:29:17.233,62cb2599fe7c3e030e6d445b,1,70,37,100,100,57,male,10607.4000000358,,static/images/instructions_CB_1/Slide12.png,39.0,,,,,,,,,,,,,,,,,,,,,,,,,,,
15,0,,image-keyboard-response,15,358179,0.0-3.12-0.12,419wndu8s2m,2022-09-16 18:29:17.233,62cb2599fe7c3e030e6d445b,1,70,37,100,100,57,male,14991.5999999642,,static/images/instructions_CB_1/Slide13.png,39.0,,,,,,,,,,,,,,,,,,,,,,,,,,,
16,0,,image-keyboard-response,16,361891,0.0-3.13-0.13,419wndu8s2m,2022-09-16 18:29:17.233,62cb2599fe7c3e030e6d445b,1,70,37,100,100,57,male,3711.1999999881,,static/images/instructions_CB_1/Slide14.png,39.0,,,,,,,,,,,,,,,,,,,,,,,,,,,
17,0,,image-keyboard-response,17,369747,0.0-3.14-0.14,419wndu8s2m,2022-09-16 18:29:17.233,62cb2599fe7c3e030e6d445b,1,70,37,100,100,57,male,7855.3000000119,,static/images/instructions_CB_1/Slide15.png,39.0,,,,,,,,,,,,,,,,,,,,,,,,,,,
18,0,,image-keyboard-response,18,374467,0.0-3.15-0.15,419wndu8s2m,2022-09-16 18:29:17.233,62cb2599fe7c3e030e6d445b,1,70,37,100,100,57,male,4719.4000000358,,static/images/instructions_CB_1/Slide16.png,39.0,,,,,,,,,,,,,,,,,,,,,,,,,,,
19,0,,image-keyboard-response,19,377699,0.0-3.16-0.16,419wndu8s2m,2022-09-16 18:29:17.233,62cb2599fe7c3e030e6d445b,1,70,37,100,100,57,male,3231.1999999881,,static/images/instructions_CB_1/Slide17.png,39.0,,,,,,,,,,,,,,,,,,,,,,,,,,,
20,0,,image-keyboard-response,20,462259,0.0-3.17-0.17,419wndu8s2m,2022-09-16 18:29:17.233,62cb2599fe7c3e030e6d445b,1,70,37,100,100,57,male,84559.6999999881,,static/images/instructions_CB_1/Slide18.png,39.0,,,,,,,,,,,,,,,,,,,,,,,,,,,
21,0,,image-keyboard-response,21,469107,0.0-3.18-0.18,419wndu8s2m,2022-09-16 18:29:17.233,62cb2599fe7c3e030e6d445b,1,70,37,100,100,57,male,6847.3000000119,,static/images/instructions_CB_1/Slide19.png,39.0,,,,,,,,,,,,,,,,,,,,,,,,,,,
22,0,,html-keyboard-response,22,470621,0.0-4.0-0.0,419wndu8s2m,2022-09-16 18:29:17.233,62cb2599fe7c3e030e6d445b,1,70,37,100,100,57,male,,,"<img src=""static/images/cards/stack_of_red_moons.svg"" width=""175px"" height=""250px""></img>",,,,,,,,,,,,,,,,,,,,,,,,,,,,
23,0,,html-keyboard-response,23,473507,0.0-4.0-1.0,419wndu8s2m,2022-09-16 18:29:17.233,62cb2599fe7c3e030e6d445b,1,70,37,100,100,57,male,2371.1000000238,,"
  <table>
  <tr height=300>
    <td width=300 height=300><img src=""static/images/cards/back_of_red_moons.svg"" width=""175px"" height=""250px""></img></td>
    <td width=300 height=300><img src=""static/images/cards/back_of_red_moons.svg"" width=""175px"" height=""250px""></img></td>
  </tr>
  <tr height=200>
    <td width=300><img src=""static/images/keys/z.svg"" width=""35%"" height=""75%""></img></td>
    <td width=300><img src=""static/images/keys/m.svg"" width=""35%"" height=""75%""></img></td>
  </tr>
</table>
  ",77.0,1.0,,,,,,,,,,,,,,,,,,,,,,,,,,
24,0,,html-keyboard-response,24,475013,0.0-4.0-2.0,419wndu8s2m,2022-09-16 18:29:17.233,62cb2599fe7c3e030e6d445b,1,70,37,100,100,57,male,,,"
  <table>
  <tr height=300>
    <td width=300 height=300><img src=""static/images/cards/back_of_red_moons.svg"" width=""175px"" height=""250px""></img></td>
    <td width=300 height=300><img src=""static/images/cards/3_of_red_moons.svg"" width=""175px"" height=""250px""></img></td>
  </tr>
  <tr height=200>
    <td width=300><img src=""static/images/keys/z.svg"" width=""35%"" height=""75%""></img></td>
    <td width=300><img src=""static/images/keys/m.svg"" width=""35%"" height=""75%""></img></td>
  </tr>
</table>
  ",,,,,,,,,,,,,,,,,,,,,,,,,,,,
25,0,,html-keyboard-response,25,476529,0.0-4.0-3.0,419wndu8s2m,2022-09-16 18:29:17.233,62cb2599fe7c3e030e6d445b,1,70,37,100,100,57,male,,,"<p style=""font-size:50px"">You Lose!
No points this round.</p>",,,,,,,,,,,,,,,,,,,,,,,,,,,,
26,0,,html-keyboard-response,26,477044,0.0-4.0-4.0,419wndu8s2m,2022-09-16 18:29:17.233,62cb2599fe7c3e030e6d445b,1,70,37,100,100,57,male,,,,,,1.0,learning,0.0,A,,red,,moons,,,,A,red,moons,,1.0,1.0,NA,right,2371.1000000238,3.0,0.0,0.0,,,
27,0,,html-keyboard-response,27,478559,0.0-4.1-0.1,419wndu8s2m,2022-09-16 18:29:17.233,62cb2599fe7c3e030e6d445b,1,70,37,100,100,57,male,,,"<img src=""static/images/cards/stack_of_black_moons.svg"" width=""175px"" height=""250px""></img>",,,,,,,,,,,,,,,,,,,,,,,,,,,,
28,0,,html-keyboard-response,28,482069,0.0-4.1-1.1,419wndu8s2m,2022-09-16 18:29:17.233,62cb2599fe7c3e030e6d445b,1,70,37,100,100,57,male,,,"
  <table>
  <tr height=300>
    <td width=300 height=300><img src=""static/images/cards/back_of_black_moons.svg"" width=""175px"" height=""250px""></img></td>
    <td width=300 height=300><img src=""static/images/cards/back_of_black_moons.svg"" width=""175px"" height=""250px""></img></td>
  </tr>
  <tr height=200>
    <td width=300><img src=""static/images/keys/z.svg"" width=""35%"" height=""75%""></img></td>
    <td width=300></td>
  </tr>
</table>
  ",,,,,,,,,,,,,,,,,,,,,,,,,,,,
29,0,,html-keyboard-response,29,482075,0.0-4.1-2.1,419wndu8s2m,2022-09-16 18:29:17.233,62cb2599fe7c3e030e6d445b,1,70,37,100,100,57,male,,,,,,,,,,,,,,,,,,,,,,,,,,,,,,,
30,0,,html-keyboard-response,30,483583,0.0-4.1-3.1,419wndu8s2m,2022-09-16 18:29:17.233,62cb2599fe7c3e030e6d445b,1,70,37,100,100,57,male,,,"<p style=""font-size:50px"">Too slow!</p>",,,,,,,,,,,,,,,,,,,,,,,,,,,,
31,0,,html-keyboard-response,31,484101,0.0-4.1-4.1,419wndu8s2m,2022-09-16 18:29:17.233,62cb2599fe7c3e030e6d445b,1,70,37,100,100,57,male,,,,,,1.0,learning,1.0,B,,black,,moons,,,,B,black,moons,,0.0,1.0,1,,,3.0,0.0,0.0,,,
32,0,,html-keyboard-response,32,485610,0.0-4.2-0.2,419wndu8s2m,2022-09-16 18:29:17.233,62cb2599fe7c3e030e6d445b,1,70,37,100,100,57,male,,,"<img src=""static/images/cards/stack_of_red_stars.svg"" width=""175px"" height=""250px""></img>",,,,,,,,,,,,,,,,,,,,,,,,,,,,
33,0,,html-keyboard-response,33,487155,0.0-4.2-1.2,419wndu8s2m,2022-09-16 18:29:17.233,62cb2599fe7c3e030e6d445b,1,70,37,100,100,57,male,1039.8000000119,,"
  <table>
  <tr height=300>
    <td width=300 height=300><img src=""static/images/cards/back_of_red_stars.svg"" width=""175px"" height=""250px""></img></td>
    <td width=300 height=300><img src=""static/images/cards/back_of_red_stars.svg"" width=""175px"" height=""250px""></img></td>
  </tr>
  <tr height=200>
    <td width=300><img src=""static/images/keys/z.svg"" width=""35%"" height=""75%""></img></td>
    <td width=300><img src=""static/images/keys/m.svg"" width=""35%"" height=""75%""></img></td>
  </tr>
</table>
  ",77.0,1.0,,,,,,,,,,,,,,,,,,,,,,,,,,
34,0,,html-keyboard-response,34,488668,0.0-4.2-2.2,419wndu8s2m,2022-09-16 18:29:17.233,62cb2599fe7c3e030e6d445b,1,70,37,100,100,57,male,,,"
  <table>
  <tr height=300>
    <td width=300 height=300><img src=""static/images/cards/back_of_red_stars.svg"" width=""175px"" height=""250px""></img></td>
    <td width=300 height=300><img src=""static/images/cards/9_of_red_stars.svg"" width=""175px"" height=""250px""></img></td>
  </tr>
  <tr height=200>
    <td width=300><img src=""static/images/keys/z.svg"" width=""35%"" height=""75%""></img></td>
    <td width=300><img src=""static/images/keys/m.svg"" width=""35%"" height=""75%""></img></td>
  </tr>
</table>
  ",,,,,,,,,,,,,,,,,,,,,,,,,,,,
35,0,,html-keyboard-response,35,490193,0.0-4.2-3.2,419wndu8s2m,2022-09-16 18:29:17.233,62cb2599fe7c3e030e6d445b,1,70,37,100,100,57,male,,,"<p style=""font-size:50px"">You Lose!
No points this round.</p>",,,,,,,,,,,,,,,,,,,,,,,,,,,,
36,0,,html-keyboard-response,36,490708,0.0-4.2-4.2,419wndu8s2m,2022-09-16 18:29:17.233,62cb2599fe7c3e030e6d445b,1,70,37,100,100,57,male,,,,,,1.0,learning,2.0,C,,red,,stars,,,,C,red,stars,,1.0,0.0,NA,right,1039.8000000119,9.0,1.0,0.0,,,
37,0,,html-keyboard-response,37,492208,0.0-4.3-0.3,419wndu8s2m,2022-09-16 18:29:17.233,62cb2599fe7c3e030e6d445b,1,70,37,100,100,57,male,,,"<img src=""static/images/cards/stack_of_black_stars.svg"" width=""175px"" height=""250px""></img>",,,,,,,,,,,,,,,,,,,,,,,,,,,,
38,0,,html-keyboard-response,38,493396,0.0-4.3-1.3,419wndu8s2m,2022-09-16 18:29:17.233,62cb2599fe7c3e030e6d445b,1,70,37,100,100,57,male,677.8000000119,,"
  <table>
  <tr height=300>
    <td width=300 height=300><img src=""static/images/cards/back_of_black_stars.svg"" width=""175px"" height=""250px""></img></td>
    <td width=300 height=300><img src=""static/images/cards/back_of_black_stars.svg"" width=""175px"" height=""250px""></img></td>
  </tr>
  <tr height=200>
    <td width=300><img src=""static/images/keys/z.svg"" width=""35%"" height=""75%""></img></td>
    <td width=300></td>
  </tr>
</table>
  ",90.0,1.0,,,,,,,,,,,,,,,,,,,,,,,,,,
39,0,,html-keyboard-response,39,494907,0.0-4.3-2.3,419wndu8s2m,2022-09-16 18:29:17.233,62cb2599fe7c3e030e6d445b,1,70,37,100,100,57,male,,,"
  <table>
  <tr height=300>
    <td width=300 height=300><img src=""static/images/cards/1_of_black_stars.svg"" width=""175px"" height=""250px""></img></td>
    <td width=300 height=300><img src=""static/images/cards/back_of_black_stars.svg"" width=""175px"" height=""250px""></img></td>
  </tr>
  <tr height=200>
    <td width=300><img src=""static/images/keys/z.svg"" width=""35%"" height=""75%""></img></td>
    <td width=300></td>
  </tr>
</table>
  ",,,,,,,,,,,,,,,,,,,,,,,,,,,,
40,0,,html-keyboard-response,40,496429,0.0-4.3-3.3,419wndu8s2m,2022-09-16 18:29:17.233,62cb2599fe7c3e030e6d445b,1,70,37,100,100,57,male,,,"<p style=""font-size:50px"">You win!
+10 points this round!</p>",,,,,,,,,,,,,,,,,,,,,,,,,,,,
41,0,,html-keyboard-response,41,496941,0.0-4.3-4.3,419wndu8s2m,2022-09-16 18:29:17.233,62cb2599fe7c3e030e6d445b,1,70,37,100,100,57,male,,,,,,1.0,learning,3.0,D,,black,,stars,,,,D,black,stars,,0.0,0.0,1,left,677.8000000119,1.0,0.0,1.0,,,
42,0,,html-keyboard-response,42,498453,0.0-4.4-0.4,419wndu8s2m,2022-09-16 18:29:17.233,62cb2599fe7c3e030e6d445b,1,70,37,100,100,57,male,,,"<img src=""static/images/cards/stack_of_red_bolts.svg"" width=""175px"" height=""250px""></img>",,,,,,,,,,,,,,,,,,,,,,,,,,,,
43,0,,html-keyboard-response,43,499939,0.0-4.4-1.4,419wndu8s2m,2022-09-16 18:29:17.233,62cb2599fe7c3e030e6d445b,1,70,37,100,100,57,male,969.6000000238,,"
  <table>
  <tr height=300>
    <td width=300 height=300><img src=""static/images/cards/back_of_red_bolts.svg"" width=""175px"" height=""250px""></img></td>
    <td width=300 height=300><img src=""static/images/cards/back_of_red_bolts.svg"" width=""175px"" height=""250px""></img></td>
  </tr>
  <tr height=200>
    <td width=300><img src=""static/images/keys/z.svg"" width=""35%"" height=""75%""></img></td>
    <td width=300><img src=""static/images/keys/m.svg"" width=""35%"" height=""75%""></img></td>
  </tr>
</table>
  ",77.0,1.0,,,,,,,,,,,,,,,,,,,,,,,,,,
44,0,,html-keyboard-response,44,501445,0.0-4.4-2.4,419wndu8s2m,2022-09-16 18:29:17.233,62cb2599fe7c3e030e6d445b,1,70,37,100,100,57,male,,,"
  <table>
  <tr height=300>
    <td width=300 height=300><img src=""static/images/cards/back_of_red_bolts.svg"" width=""175px"" height=""250px""></img></td>
    <td width=300 height=300><img src=""static/images/cards/6_of_red_bolts.svg"" width=""175px"" height=""250px""></img></td>
  </tr>
  <tr height=200>
    <td width=300><img src=""static/images/keys/z.svg"" width=""35%"" height=""75%""></img></td>
    <td width=300><img src=""static/images/keys/m.svg"" width=""35%"" height=""75%""></img></td>
  </tr>
</table>
  ",,,,,,,,,,,,,,,,,,,,,,,,,,,,
45,0,,html-keyboard-response,45,502954,0.0-4.4-3.4,419wndu8s2m,2022-09-16 18:29:17.233,62cb2599fe7c3e030e6d445b,1,70,37,100,100,57,male,,,"<p style=""font-size:50px"">You win!
+10 points this round!</p>",,,,,,,,,,,,,,,,,,,,,,,,,,,,
46,0,,html-keyboard-response,46,503472,0.0-4.4-4.4,419wndu8s2m,2022-09-16 18:29:17.233,62cb2599fe7c3e030e6d445b,1,70,37,100,100,57,male,,,,,,1.0,learning,4.0,Xc,,red,,bolts,,,,Xc,red,bolts,,1.0,0.0,NA,right,969.6000000238,6.0,1.0,1.0,,,
47,0,,html-keyboard-response,47,504983,0.0-4.5-0.5,419wndu8s2m,2022-09-16 18:29:17.233,62cb2599fe7c3e030e6d445b,1,70,37,100,100,57,male,,,"<img src=""static/images/cards/stack_of_black_bolts.svg"" width=""175px"" height=""250px""></img>",,,,,,,,,,,,,,,,,,,,,,,,,,,,
48,0,,html-keyboard-response,48,506187,0.0-4.5-1.5,419wndu8s2m,2022-09-16 18:29:17.233,62cb2599fe7c3e030e6d445b,1,70,37,100,100,57,male,700.3000000119,,"
  <table>
  <tr height=300>
    <td width=300 height=300><img src=""static/images/cards/back_of_black_bolts.svg"" width=""175px"" height=""250px""></img></td>
    <td width=300 height=300><img src=""static/images/cards/back_of_black_bolts.svg"" width=""175px"" height=""250px""></img></td>
  </tr>
  <tr height=200>
    <td width=300><img src=""static/images/keys/z.svg"" width=""35%"" height=""75%""></img></td>
    <td width=300></td>
  </tr>
</table>
  ",90.0,1.0,,,,,,,,,,,,,,,,,,,,,,,,,,
49,0,,html-keyboard-response,49,507704,0.0-4.5-2.5,419wndu8s2m,2022-09-16 18:29:17.233,62cb2599fe7c3e030e6d445b,1,70,37,100,100,57,male,,,"
  <table>
  <tr height=300>
    <td width=300 height=300><img src=""static/images/cards/2_of_black_bolts.svg"" width=""175px"" height=""250px""></img></td>
    <td width=300 height=300><img src=""static/images/cards/back_of_black_bolts.svg"" width=""175px"" height=""250px""></img></td>
  </tr>
  <tr height=200>
    <td width=300><img src=""static/images/keys/z.svg"" width=""35%"" height=""75%""></img></td>
    <td width=300></td>
  </tr>
</table>
  ",,,,,,,,,,,,,,,,,,,,,,,,,,,,
50,0,,html-keyboard-response,50,509224,0.0-4.5-3.5,419wndu8s2m,2022-09-16 18:29:17.233,62cb2599fe7c3e030e6d445b,1,70,37,100,100,57,male,,,"<p style=""font-size:50px"">You win!
+10 points this round!</p>",,,,,,,,,,,,,,,,,,,,,,,,,,,,
51,0,,html-keyboard-response,51,509744,0.0-4.5-4.5,419wndu8s2m,2022-09-16 18:29:17.233,62cb2599fe7c3e030e6d445b,1,70,37,100,100,57,male,,,,,,1.0,learning,5.0,Xnc,,black,,bolts,,,,Xnc,black,bolts,,0.0,0.0,1,left,700.3000000119,2.0,0.0,1.0,,,
52,0,,html-keyboard-response,52,511249,0.0-4.6-0.6,419wndu8s2m,2022-09-16 18:29:17.233,62cb2599fe7c3e030e6d445b,1,70,37,100,100,57,male,,,"<img src=""static/images/cards/stack_of_red_moons.svg"" width=""175px"" height=""250px""></img>",,,,,,,,,,,,,,,,,,,,,,,,,,,,
53,0,,html-keyboard-response,53,512587,0.0-4.6-1.6,419wndu8s2m,2022-09-16 18:29:17.233,62cb2599fe7c3e030e6d445b,1,70,37,100,100,57,male,829.3000000119,,"
  <table>
  <tr height=300>
    <td width=300 height=300><img src=""static/images/cards/back_of_red_moons.svg"" width=""175px"" height=""250px""></img></td>
    <td width=300 height=300><img src=""static/images/cards/back_of_red_moons.svg"" width=""175px"" height=""250px""></img></td>
  </tr>
  <tr height=200>
    <td width=300><img src=""static/images/keys/z.svg"" width=""35%"" height=""75%""></img></td>
    <td width=300><img src=""static/images/keys/m.svg"" width=""35%"" height=""75%""></img></td>
  </tr>
</table>
  ",77.0,1.0,,,,,,,,,,,,,,,,,,,,,,,,,,
54,0,,html-keyboard-response,54,514095,0.0-4.6-2.6,419wndu8s2m,2022-09-16 18:29:17.233,62cb2599fe7c3e030e6d445b,1,70,37,100,100,57,male,,,"
  <table>
  <tr height=300>
    <td width=300 height=300><img src=""static/images/cards/back_of_red_moons.svg"" width=""175px"" height=""250px""></img></td>
    <td width=300 height=300><img src=""static/images/cards/2_of_red_moons.svg"" width=""175px"" height=""250px""></img></td>
  </tr>
  <tr height=200>
    <td width=300><img src=""static/images/keys/z.svg"" width=""35%"" height=""75%""></img></td>
    <td width=300><img src=""static/images/keys/m.svg"" width=""35%"" height=""75%""></img></td>
  </tr>
</table>
  ",,,,,,,,,,,,,,,,,,,,,,,,,,,,
55,0,,html-keyboard-response,55,515626,0.0-4.6-3.6,419wndu8s2m,2022-09-16 18:29:17.233,62cb2599fe7c3e030e6d445b,1,70,37,100,100,57,male,,,"<p style=""font-size:50px"">You Lose!
No points this round.</p>",,,,,,,,,,,,,,,,,,,,,,,,,,,,
56,0,,html-keyboard-response,56,516135,0.0-4.6-4.6,419wndu8s2m,2022-09-16 18:29:17.233,62cb2599fe7c3e030e6d445b,1,70,37,100,100,57,male,,,,,,1.0,learning,6.0,A,,red,,moons,,,,A,red,moons,,1.0,1.0,NA,right,829.3000000119,2.0,0.0,0.0,,,
57,0,,html-keyboard-response,57,517638,0.0-4.7-0.7,419wndu8s2m,2022-09-16 18:29:17.233,62cb2599fe7c3e030e6d445b,1,70,37,100,100,57,male,,,"<img src=""static/images/cards/stack_of_black_moons.svg"" width=""175px"" height=""250px""></img>",,,,,,,,,,,,,,,,,,,,,,,,,,,,
58,0,,html-keyboard-response,58,518819,0.0-4.7-1.7,419wndu8s2m,2022-09-16 18:29:17.233,62cb2599fe7c3e030e6d445b,1,70,37,100,100,57,male,673.8000000119,,"
  <table>
  <tr height=300>
    <td width=300 height=300><img src=""static/images/cards/back_of_black_moons.svg"" width=""175px"" height=""250px""></img></td>
    <td width=300 height=300><img src=""static/images/cards/back_of_black_moons.svg"" width=""175px"" height=""250px""></img></td>
  </tr>
  <tr height=200>
    <td width=300><img src=""static/images/keys/z.svg"" width=""35%"" height=""75%""></img></td>
    <td width=300></td>
  </tr>
</table>
  ",90.0,1.0,,,,,,,,,,,,,,,,,,,,,,,,,,
59,0,,html-keyboard-response,59,520321,0.0-4.7-2.7,419wndu8s2m,2022-09-16 18:29:17.233,62cb2599fe7c3e030e6d445b,1,70,37,100,100,57,male,,,"
  <table>
  <tr height=300>
    <td width=300 height=300><img src=""static/images/cards/9_of_black_moons.svg"" width=""175px"" height=""250px""></img></td>
    <td width=300 height=300><img src=""static/images/cards/back_of_black_moons.svg"" width=""175px"" height=""250px""></img></td>
  </tr>
  <tr height=200>
    <td width=300><img src=""static/images/keys/z.svg"" width=""35%"" height=""75%""></img></td>
    <td width=300></td>
  </tr>
</table>
  ",,,,,,,,,,,,,,,,,,,,,,,,,,,,
60,0,,html-keyboard-response,60,521835,0.0-4.7-3.7,419wndu8s2m,2022-09-16 18:29:17.233,62cb2599fe7c3e030e6d445b,1,70,37,100,100,57,male,,,"<p style=""font-size:50px"">You win!
+10 points this round!</p>",,,,,,,,,,,,,,,,,,,,,,,,,,,,
61,0,,html-keyboard-response,61,522356,0.0-4.7-4.7,419wndu8s2m,2022-09-16 18:29:17.233,62cb2599fe7c3e030e6d445b,1,70,37,100,100,57,male,,,,,,1.0,learning,7.0,B,,black,,moons,,,,B,black,moons,,0.0,1.0,1,left,673.8000000119,9.0,1.0,1.0,,,
62,0,,html-keyboard-response,62,523868,0.0-4.8-0.8,419wndu8s2m,2022-09-16 18:29:17.233,62cb2599fe7c3e030e6d445b,1,70,37,100,100,57,male,,,"<img src=""static/images/cards/stack_of_red_stars.svg"" width=""175px"" height=""250px""></img>",,,,,,,,,,,,,,,,,,,,,,,,,,,,
63,0,,html-keyboard-response,63,525179,0.0-4.8-1.8,419wndu8s2m,2022-09-16 18:29:17.233,62cb2599fe7c3e030e6d445b,1,70,37,100,100,57,male,807.0,,"
  <table>
  <tr height=300>
    <td width=300 height=300><img src=""static/images/cards/back_of_red_stars.svg"" width=""175px"" height=""250px""></img></td>
    <td width=300 height=300><img src=""static/images/cards/back_of_red_stars.svg"" width=""175px"" height=""250px""></img></td>
  </tr>
  <tr height=200>
    <td width=300><img src=""static/images/keys/z.svg"" width=""35%"" height=""75%""></img></td>
    <td width=300><img src=""static/images/keys/m.svg"" width=""35%"" height=""75%""></img></td>
  </tr>
</table>
  ",90.0,1.0,,,,,,,,,,,,,,,,,,,,,,,,,,
64,0,,html-keyboard-response,64,526685,0.0-4.8-2.8,419wndu8s2m,2022-09-16 18:29:17.233,62cb2599fe7c3e030e6d445b,1,70,37,100,100,57,male,,,"
  <table>
  <tr height=300>
    <td width=300 height=300><img src=""static/images/cards/4_of_red_stars.svg"" width=""175px"" height=""250px""></img></td>
    <td width=300 height=300><img src=""static/images/cards/back_of_red_stars.svg"" width=""175px"" height=""250px""></img></td>
  </tr>
  <tr height=200>
    <td width=300><img src=""static/images/keys/z.svg"" width=""35%"" height=""75%""></img></td>
    <td width=300><img src=""static/images/keys/m.svg"" width=""35%"" height=""75%""></img></td>
  </tr>
</table>
  ",,,,,,,,,,,,,,,,,,,,,,,,,,,,
65,0,,html-keyboard-response,65,528190,0.0-4.8-3.8,419wndu8s2m,2022-09-16 18:29:17.233,62cb2599fe7c3e030e6d445b,1,70,37,100,100,57,male,,,"<p style=""font-size:50px"">You Lose!
No points this round.</p>",,,,,,,,,,,,,,,,,,,,,,,,,,,,
66,0,,html-keyboard-response,66,528697,0.0-4.8-4.8,419wndu8s2m,2022-09-16 18:29:17.233,62cb2599fe7c3e030e6d445b,1,70,37,100,100,57,male,,,,,,1.0,learning,8.0,C,,red,,stars,,,,C,red,stars,,1.0,0.0,NA,left,807.0,4.0,0.0,0.0,,,
67,0,,html-keyboard-response,67,530206,0.0-4.9-0.9,419wndu8s2m,2022-09-16 18:29:17.233,62cb2599fe7c3e030e6d445b,1,70,37,100,100,57,male,,,"<img src=""static/images/cards/stack_of_black_stars.svg"" width=""175px"" height=""250px""></img>",,,,,,,,,,,,,,,,,,,,,,,,,,,,
68,0,,html-keyboard-response,68,531491,0.0-4.9-1.9,419wndu8s2m,2022-09-16 18:29:17.233,62cb2599fe7c3e030e6d445b,1,70,37,100,100,57,male,777.3000000119,,"
  <table>
  <tr height=300>
    <td width=300 height=300><img src=""static/images/cards/back_of_black_stars.svg"" width=""175px"" height=""250px""></img></td>
    <td width=300 height=300><img src=""static/images/cards/back_of_black_stars.svg"" width=""175px"" height=""250px""></img></td>
  </tr>
  <tr height=200>
    <td width=300></td>
    <td width=300><img src=""static/images/keys/m.svg"" width=""35%"" height=""75%""></img></td>
  </tr>
</table>
  ",77.0,1.0,,,,,,,,,,,,,,,,,,,,,,,,,,
69,0,,html-keyboard-response,69,533002,0.0-4.9-2.9,419wndu8s2m,2022-09-16 18:29:17.233,62cb2599fe7c3e030e6d445b,1,70,37,100,100,57,male,,,"
  <table>
  <tr height=300>
    <td width=300 height=300><img src=""static/images/cards/back_of_black_stars.svg"" width=""175px"" height=""250px""></img></td>
    <td width=300 height=300><img src=""static/images/cards/3_of_black_stars.svg"" width=""175px"" height=""250px""></img></td>
  </tr>
  <tr height=200>
    <td width=300></td>
    <td width=300><img src=""static/images/keys/m.svg"" width=""35%"" height=""75%""></img></td>
  </tr>
</table>
  ",,,,,,,,,,,,,,,,,,,,,,,,,,,,
70,0,,html-keyboard-response,70,534521,0.0-4.9-3.9,419wndu8s2m,2022-09-16 18:29:17.233,62cb2599fe7c3e030e6d445b,1,70,37,100,100,57,male,,,"<p style=""font-size:50px"">You win!
+10 points this round!</p>",,,,,,,,,,,,,,,,,,,,,,,,,,,,
71,0,,html-keyboard-response,71,535035,0.0-4.9-4.9,419wndu8s2m,2022-09-16 18:29:17.233,62cb2599fe7c3e030e6d445b,1,70,37,100,100,57,male,,,,,,1.0,learning,9.0,D,,black,,stars,,,,D,black,stars,,0.0,0.0,0,right,777.3000000119,3.0,0.0,1.0,,,
72,0,,html-keyboard-response,72,536549,0.0-4.10-0.10,419wndu8s2m,2022-09-16 18:29:17.233,62cb2599fe7c3e030e6d445b,1,70,37,100,100,57,male,,,"<img src=""static/images/cards/stack_of_red_bolts.svg"" width=""175px"" height=""250px""></img>",,,,,,,,,,,,,,,,,,,,,,,,,,,,
73,0,,html-keyboard-response,73,537627,0.0-4.10-1.10,419wndu8s2m,2022-09-16 18:29:17.233,62cb2599fe7c3e030e6d445b,1,70,37,100,100,57,male,575.5999999642,,"
  <table>
  <tr height=300>
    <td width=300 height=300><img src=""static/images/cards/back_of_red_bolts.svg"" width=""175px"" height=""250px""></img></td>
    <td width=300 height=300><img src=""static/images/cards/back_of_red_bolts.svg"" width=""175px"" height=""250px""></img></td>
  </tr>
  <tr height=200>
    <td width=300><img src=""static/images/keys/z.svg"" width=""35%"" height=""75%""></img></td>
    <td width=300><img src=""static/images/keys/m.svg"" width=""35%"" height=""75%""></img></td>
  </tr>
</table>
  ",77.0,1.0,,,,,,,,,,,,,,,,,,,,,,,,,,
74,0,,html-keyboard-response,74,539141,0.0-4.10-2.10,419wndu8s2m,2022-09-16 18:29:17.233,62cb2599fe7c3e030e6d445b,1,70,37,100,100,57,male,,,"
  <table>
  <tr height=300>
    <td width=300 height=300><img src=""static/images/cards/back_of_red_bolts.svg"" width=""175px"" height=""250px""></img></td>
    <td width=300 height=300><img src=""static/images/cards/8_of_red_bolts.svg"" width=""175px"" height=""250px""></img></td>
  </tr>
  <tr height=200>
    <td width=300><img src=""static/images/keys/z.svg"" width=""35%"" height=""75%""></img></td>
    <td width=300><img src=""static/images/keys/m.svg"" width=""35%"" height=""75%""></img></td>
  </tr>
</table>
  ",,,,,,,,,,,,,,,,,,,,,,,,,,,,
75,0,,html-keyboard-response,75,540658,0.0-4.10-3.10,419wndu8s2m,2022-09-16 18:29:17.233,62cb2599fe7c3e030e6d445b,1,70,37,100,100,57,male,,,"<p style=""font-size:50px"">You win!
+10 points this round!</p>",,,,,,,,,,,,,,,,,,,,,,,,,,,,
76,0,,html-keyboard-response,76,541166,0.0-4.10-4.10,419wndu8s2m,2022-09-16 18:29:17.233,62cb2599fe7c3e030e6d445b,1,70,37,100,100,57,male,,,,,,1.0,learning,10.0,Xc,,red,,bolts,,,,Xc,red,bolts,,1.0,0.0,NA,right,575.5999999642,8.0,1.0,1.0,,,
77,0,,html-keyboard-response,77,542671,0.0-4.11-0.11,419wndu8s2m,2022-09-16 18:29:17.233,62cb2599fe7c3e030e6d445b,1,70,37,100,100,57,male,,,"<img src=""static/images/cards/stack_of_black_bolts.svg"" width=""175px"" height=""250px""></img>",,,,,,,,,,,,,,,,,,,,,,,,,,,,
78,0,,html-keyboard-response,78,543931,0.0-4.11-1.11,419wndu8s2m,2022-09-16 18:29:17.233,62cb2599fe7c3e030e6d445b,1,70,37,100,100,57,male,757.2000000477,,"
  <table>
  <tr height=300>
    <td width=300 height=300><img src=""static/images/cards/back_of_black_bolts.svg"" width=""175px"" height=""250px""></img></td>
    <td width=300 height=300><img src=""static/images/cards/back_of_black_bolts.svg"" width=""175px"" height=""250px""></img></td>
  </tr>
  <tr height=200>
    <td width=300></td>
    <td width=300><img src=""static/images/keys/m.svg"" width=""35%"" height=""75%""></img></td>
  </tr>
</table>
  ",77.0,1.0,,,,,,,,,,,,,,,,,,,,,,,,,,
79,0,,html-keyboard-response,79,545436,0.0-4.11-2.11,419wndu8s2m,2022-09-16 18:29:17.233,62cb2599fe7c3e030e6d445b,1,70,37,100,100,57,male,,,"
  <table>
  <tr height=300>
    <td width=300 height=300><img src=""static/images/cards/back_of_black_bolts.svg"" width=""175px"" height=""250px""></img></td>
    <td width=300 height=300><img src=""static/images/cards/6_of_black_bolts.svg"" width=""175px"" height=""250px""></img></td>
  </tr>
  <tr height=200>
    <td width=300></td>
    <td width=300><img src=""static/images/keys/m.svg"" width=""35%"" height=""75%""></img></td>
  </tr>
</table>
  ",,,,,,,,,,,,,,,,,,,,,,,,,,,,
80,0,,html-keyboard-response,80,546947,0.0-4.11-3.11,419wndu8s2m,2022-09-16 18:29:17.233,62cb2599fe7c3e030e6d445b,1,70,37,100,100,57,male,,,"<p style=""font-size:50px"">You win!
+10 points this round!</p>",,,,,,,,,,,,,,,,,,,,,,,,,,,,
81,0,,html-keyboard-response,81,547465,0.0-4.11-4.11,419wndu8s2m,2022-09-16 18:29:17.233,62cb2599fe7c3e030e6d445b,1,70,37,100,100,57,male,,,,,,1.0,learning,11.0,Xnc,,black,,bolts,,,,Xnc,black,bolts,,0.0,0.0,0,right,757.2000000477,6.0,1.0,1.0,,,
82,0,,html-keyboard-response,82,548980,0.0-4.12-0.12,419wndu8s2m,2022-09-16 18:29:17.233,62cb2599fe7c3e030e6d445b,1,70,37,100,100,57,male,,,"<img src=""static/images/cards/stack_of_red_moons.svg"" width=""175px"" height=""250px""></img>",,,,,,,,,,,,,,,,,,,,,,,,,,,,
83,0,,html-keyboard-response,83,550099,0.0-4.12-1.12,419wndu8s2m,2022-09-16 18:29:17.233,62cb2599fe7c3e030e6d445b,1,70,37,100,100,57,male,618.1000000238,,"
  <table>
  <tr height=300>
    <td width=300 height=300><img src=""static/images/cards/back_of_red_moons.svg"" width=""175px"" height=""250px""></img></td>
    <td width=300 height=300><img src=""static/images/cards/back_of_red_moons.svg"" width=""175px"" height=""250px""></img></td>
  </tr>
  <tr height=200>
    <td width=300><img src=""static/images/keys/z.svg"" width=""35%"" height=""75%""></img></td>
    <td width=300><img src=""static/images/keys/m.svg"" width=""35%"" height=""75%""></img></td>
  </tr>
</table>
  ",90.0,1.0,,,,,,,,,,,,,,,,,,,,,,,,,,
84,0,,html-keyboard-response,84,551613,0.0-4.12-2.12,419wndu8s2m,2022-09-16 18:29:17.233,62cb2599fe7c3e030e6d445b,1,70,37,100,100,57,male,,,"
  <table>
  <tr height=300>
    <td width=300 height=300><img src=""static/images/cards/6_of_red_moons.svg"" width=""175px"" height=""250px""></img></td>
    <td width=300 height=300><img src=""static/images/cards/back_of_red_moons.svg"" width=""175px"" height=""250px""></img></td>
  </tr>
  <tr height=200>
    <td width=300><img src=""static/images/keys/z.svg"" width=""35%"" height=""75%""></img></td>
    <td width=300><img src=""static/images/keys/m.svg"" width=""35%"" height=""75%""></img></td>
  </tr>
</table>
  ",,,,,,,,,,,,,,,,,,,,,,,,,,,,
85,0,,html-keyboard-response,85,553120,0.0-4.12-3.12,419wndu8s2m,2022-09-16 18:29:17.233,62cb2599fe7c3e030e6d445b,1,70,37,100,100,57,male,,,"<p style=""font-size:50px"">You win!
+10 points this round!</p>",,,,,,,,,,,,,,,,,,,,,,,,,,,,
86,0,,html-keyboard-response,86,553637,0.0-4.12-4.12,419wndu8s2m,2022-09-16 18:29:17.233,62cb2599fe7c3e030e6d445b,1,70,37,100,100,57,male,,,,,,1.0,learning,12.0,A,,red,,moons,,,,A,red,moons,,1.0,1.0,NA,left,618.1000000238,6.0,1.0,1.0,,,
87,0,,html-keyboard-response,87,555146,0.0-4.13-0.13,419wndu8s2m,2022-09-16 18:29:17.233,62cb2599fe7c3e030e6d445b,1,70,37,100,100,57,male,,,"<img src=""static/images/cards/stack_of_black_moons.svg"" width=""175px"" height=""250px""></img>",,,,,,,,,,,,,,,,,,,,,,,,,,,,
88,0,,html-keyboard-response,88,556171,0.0-4.13-1.13,419wndu8s2m,2022-09-16 18:29:17.233,62cb2599fe7c3e030e6d445b,1,70,37,100,100,57,male,519.2000000477,,"
  <table>
  <tr height=300>
    <td width=300 height=300><img src=""static/images/cards/back_of_black_moons.svg"" width=""175px"" height=""250px""></img></td>
    <td width=300 height=300><img src=""static/images/cards/back_of_black_moons.svg"" width=""175px"" height=""250px""></img></td>
  </tr>
  <tr height=200>
    <td width=300><img src=""static/images/keys/z.svg"" width=""35%"" height=""75%""></img></td>
    <td width=300></td>
  </tr>
</table>
  ",90.0,1.0,,,,,,,,,,,,,,,,,,,,,,,,,,
89,0,,html-keyboard-response,89,557679,0.0-4.13-2.13,419wndu8s2m,2022-09-16 18:29:17.233,62cb2599fe7c3e030e6d445b,1,70,37,100,100,57,male,,,"
  <table>
  <tr height=300>
    <td width=300 height=300><img src=""static/images/cards/6_of_black_moons.svg"" width=""175px"" height=""250px""></img></td>
    <td width=300 height=300><img src=""static/images/cards/back_of_black_moons.svg"" width=""175px"" height=""250px""></img></td>
  </tr>
  <tr height=200>
    <td width=300><img src=""static/images/keys/z.svg"" width=""35%"" height=""75%""></img></td>
    <td width=300></td>
  </tr>
</table>
  ",,,,,,,,,,,,,,,,,,,,,,,,,,,,
90,0,,html-keyboard-response,90,559190,0.0-4.13-3.13,419wndu8s2m,2022-09-16 18:29:17.233,62cb2599fe7c3e030e6d445b,1,70,37,100,100,57,male,,,"<p style=""font-size:50px"">You win!
+10 points this round!</p>",,,,,,,,,,,,,,,,,,,,,,,,,,,,
91,0,,html-keyboard-response,91,559702,0.0-4.13-4.13,419wndu8s2m,2022-09-16 18:29:17.233,62cb2599fe7c3e030e6d445b,1,70,37,100,100,57,male,,,,,,1.0,learning,13.0,B,,black,,moons,,,,B,black,moons,,0.0,1.0,1,left,519.2000000477,6.0,1.0,1.0,,,
92,0,,html-keyboard-response,92,561208,0.0-4.14-0.14,419wndu8s2m,2022-09-16 18:29:17.233,62cb2599fe7c3e030e6d445b,1,70,37,100,100,57,male,,,"<img src=""static/images/cards/stack_of_red_stars.svg"" width=""175px"" height=""250px""></img>",,,,,,,,,,,,,,,,,,,,,,,,,,,,
93,0,,html-keyboard-response,93,562187,0.0-4.14-1.14,419wndu8s2m,2022-09-16 18:29:17.233,62cb2599fe7c3e030e6d445b,1,70,37,100,100,57,male,477.6000000238,,"
  <table>
  <tr height=300>
    <td width=300 height=300><img src=""static/images/cards/back_of_red_stars.svg"" width=""175px"" height=""250px""></img></td>
    <td width=300 height=300><img src=""static/images/cards/back_of_red_stars.svg"" width=""175px"" height=""250px""></img></td>
  </tr>
  <tr height=200>
    <td width=300><img src=""static/images/keys/z.svg"" width=""35%"" height=""75%""></img></td>
    <td width=300><img src=""static/images/keys/m.svg"" width=""35%"" height=""75%""></img></td>
  </tr>
</table>
  ",77.0,1.0,,,,,,,,,,,,,,,,,,,,,,,,,,
94,0,,html-keyboard-response,94,563702,0.0-4.14-2.14,419wndu8s2m,2022-09-16 18:29:17.233,62cb2599fe7c3e030e6d445b,1,70,37,100,100,57,male,,,"
  <table>
  <tr height=300>
    <td width=300 height=300><img src=""static/images/cards/back_of_red_stars.svg"" width=""175px"" height=""250px""></img></td>
    <td width=300 height=300><img src=""static/images/cards/3_of_red_stars.svg"" width=""175px"" height=""250px""></img></td>
  </tr>
  <tr height=200>
    <td width=300><img src=""static/images/keys/z.svg"" width=""35%"" height=""75%""></img></td>
    <td width=300><img src=""static/images/keys/m.svg"" width=""35%"" height=""75%""></img></td>
  </tr>
</table>
  ",,,,,,,,,,,,,,,,,,,,,,,,,,,,
95,0,,html-keyboard-response,95,565218,0.0-4.14-3.14,419wndu8s2m,2022-09-16 18:29:17.233,62cb2599fe7c3e030e6d445b,1,70,37,100,100,57,male,,,"<p style=""font-size:50px"">You Lose!
No points this round.</p>",,,,,,,,,,,,,,,,,,,,,,,,,,,,
96,0,,html-keyboard-response,96,565734,0.0-4.14-4.14,419wndu8s2m,2022-09-16 18:29:17.233,62cb2599fe7c3e030e6d445b,1,70,37,100,100,57,male,,,,,,1.0,learning,14.0,C,,red,,stars,,,,C,red,stars,,1.0,0.0,NA,right,477.6000000238,3.0,0.0,0.0,,,
97,0,,html-keyboard-response,97,567245,0.0-4.15-0.15,419wndu8s2m,2022-09-16 18:29:17.233,62cb2599fe7c3e030e6d445b,1,70,37,100,100,57,male,,,"<img src=""static/images/cards/stack_of_black_stars.svg"" width=""175px"" height=""250px""></img>",,,,,,,,,,,,,,,,,,,,,,,,,,,,
98,0,,html-keyboard-response,98,568251,0.0-4.15-1.15,419wndu8s2m,2022-09-16 18:29:17.233,62cb2599fe7c3e030e6d445b,1,70,37,100,100,57,male,495.8000000119,,"
  <table>
  <tr height=300>
    <td width=300 height=300><img src=""static/images/cards/back_of_black_stars.svg"" width=""175px"" height=""250px""></img></td>
    <td width=300 height=300><img src=""static/images/cards/back_of_black_stars.svg"" width=""175px"" height=""250px""></img></td>
  </tr>
  <tr height=200>
    <td width=300></td>
    <td width=300><img src=""static/images/keys/m.svg"" width=""35%"" height=""75%""></img></td>
  </tr>
</table>
  ",77.0,1.0,,,,,,,,,,,,,,,,,,,,,,,,,,
99,0,,html-keyboard-response,99,569752,0.0-4.15-2.15,419wndu8s2m,2022-09-16 18:29:17.233,62cb2599fe7c3e030e6d445b,1,70,37,100,100,57,male,,,"
  <table>
  <tr height=300>
    <td width=300 height=300><img src=""static/images/cards/back_of_black_stars.svg"" width=""175px"" height=""250px""></img></td>
    <td width=300 height=300><img src=""static/images/cards/6_of_black_stars.svg"" width=""175px"" height=""250px""></img></td>
  </tr>
  <tr height=200>
    <td width=300></td>
    <td width=300><img src=""static/images/keys/m.svg"" width=""35%"" height=""75%""></img></td>
  </tr>
</table>
  ",,,,,,,,,,,,,,,,,,,,,,,,,,,,
100,0,,html-keyboard-response,100,571268,0.0-4.15-3.15,419wndu8s2m,2022-09-16 18:29:17.233,62cb2599fe7c3e030e6d445b,1,70,37,100,100,57,male,,,"<p style=""font-size:50px"">You win!
+10 points this round!</p>",,,,,,,,,,,,,,,,,,,,,,,,,,,,
101,0,,html-keyboard-response,101,571774,0.0-4.15-4.15,419wndu8s2m,2022-09-16 18:29:17.233,62cb2599fe7c3e030e6d445b,1,70,37,100,100,57,male,,,,,,1.0,learning,15.0,D,,black,,stars,,,,D,black,stars,,0.0,0.0,0,right,495.8000000119,6.0,1.0,1.0,,,
102,0,,html-keyboard-response,102,573284,0.0-4.16-0.16,419wndu8s2m,2022-09-16 18:29:17.233,62cb2599fe7c3e030e6d445b,1,70,37,100,100,57,male,,,"<img src=""static/images/cards/stack_of_red_bolts.svg"" width=""175px"" height=""250px""></img>",,,,,,,,,,,,,,,,,,,,,,,,,,,,
103,0,,html-keyboard-response,103,574379,0.0-4.16-1.16,419wndu8s2m,2022-09-16 18:29:17.233,62cb2599fe7c3e030e6d445b,1,70,37,100,100,57,male,591.0999999642,,"
  <table>
  <tr height=300>
    <td width=300 height=300><img src=""static/images/cards/back_of_red_bolts.svg"" width=""175px"" height=""250px""></img></td>
    <td width=300 height=300><img src=""static/images/cards/back_of_red_bolts.svg"" width=""175px"" height=""250px""></img></td>
  </tr>
  <tr height=200>
    <td width=300><img src=""static/images/keys/z.svg"" width=""35%"" height=""75%""></img></td>
    <td width=300><img src=""static/images/keys/m.svg"" width=""35%"" height=""75%""></img></td>
  </tr>
</table>
  ",90.0,1.0,,,,,,,,,,,,,,,,,,,,,,,,,,
104,0,,html-keyboard-response,104,575880,0.0-4.16-2.16,419wndu8s2m,2022-09-16 18:29:17.233,62cb2599fe7c3e030e6d445b,1,70,37,100,100,57,male,,,"
  <table>
  <tr height=300>
    <td width=300 height=300><img src=""static/images/cards/4_of_red_bolts.svg"" width=""175px"" height=""250px""></img></td>
    <td width=300 height=300><img src=""static/images/cards/back_of_red_bolts.svg"" width=""175px"" height=""250px""></img></td>
  </tr>
  <tr height=200>
    <td width=300><img src=""static/images/keys/z.svg"" width=""35%"" height=""75%""></img></td>
    <td width=300><img src=""static/images/keys/m.svg"" width=""35%"" height=""75%""></img></td>
  </tr>
</table>
  ",,,,,,,,,,,,,,,,,,,,,,,,,,,,
105,0,,html-keyboard-response,105,577391,0.0-4.16-3.16,419wndu8s2m,2022-09-16 18:29:17.233,62cb2599fe7c3e030e6d445b,1,70,37,100,100,57,male,,,"<p style=""font-size:50px"">You win!
+10 points this round!</p>",,,,,,,,,,,,,,,,,,,,,,,,,,,,
106,0,,html-keyboard-response,106,577905,0.0-4.16-4.16,419wndu8s2m,2022-09-16 18:29:17.233,62cb2599fe7c3e030e6d445b,1,70,37,100,100,57,male,,,,,,1.0,learning,16.0,Xc,,red,,bolts,,,,Xc,red,bolts,,1.0,0.0,NA,left,591.0999999642,4.0,0.0,1.0,,,
107,0,,html-keyboard-response,107,579420,0.0-4.17-0.17,419wndu8s2m,2022-09-16 18:29:17.233,62cb2599fe7c3e030e6d445b,1,70,37,100,100,57,male,,,"<img src=""static/images/cards/stack_of_black_bolts.svg"" width=""175px"" height=""250px""></img>",,,,,,,,,,,,,,,,,,,,,,,,,,,,
108,0,,html-keyboard-response,108,580395,0.0-4.17-1.17,419wndu8s2m,2022-09-16 18:29:17.233,62cb2599fe7c3e030e6d445b,1,70,37,100,100,57,male,468.5999999642,,"
  <table>
  <tr height=300>
    <td width=300 height=300><img src=""static/images/cards/back_of_black_bolts.svg"" width=""175px"" height=""250px""></img></td>
    <td width=300 height=300><img src=""static/images/cards/back_of_black_bolts.svg"" width=""175px"" height=""250px""></img></td>
  </tr>
  <tr height=200>
    <td width=300></td>
    <td width=300><img src=""static/images/keys/m.svg"" width=""35%"" height=""75%""></img></td>
  </tr>
</table>
  ",77.0,1.0,,,,,,,,,,,,,,,,,,,,,,,,,,
109,0,,html-keyboard-response,109,581911,0.0-4.17-2.17,419wndu8s2m,2022-09-16 18:29:17.233,62cb2599fe7c3e030e6d445b,1,70,37,100,100,57,male,,,"
  <table>
  <tr height=300>
    <td width=300 height=300><img src=""static/images/cards/back_of_black_bolts.svg"" width=""175px"" height=""250px""></img></td>
    <td width=300 height=300><img src=""static/images/cards/9_of_black_bolts.svg"" width=""175px"" height=""250px""></img></td>
  </tr>
  <tr height=200>
    <td width=300></td>
    <td width=300><img src=""static/images/keys/m.svg"" width=""35%"" height=""75%""></img></td>
  </tr>
</table>
  ",,,,,,,,,,,,,,,,,,,,,,,,,,,,
110,0,,html-keyboard-response,110,583434,0.0-4.17-3.17,419wndu8s2m,2022-09-16 18:29:17.233,62cb2599fe7c3e030e6d445b,1,70,37,100,100,57,male,,,"<p style=""font-size:50px"">You win!
+10 points this round!</p>",,,,,,,,,,,,,,,,,,,,,,,,,,,,
111,0,,html-keyboard-response,111,583949,0.0-4.17-4.17,419wndu8s2m,2022-09-16 18:29:17.233,62cb2599fe7c3e030e6d445b,1,70,37,100,100,57,male,,,,,,1.0,learning,17.0,Xnc,,black,,bolts,,,,Xnc,black,bolts,,0.0,0.0,0,right,468.5999999642,9.0,1.0,1.0,,,
112,0,,html-keyboard-response,112,585450,0.0-4.18-0.18,419wndu8s2m,2022-09-16 18:29:17.233,62cb2599fe7c3e030e6d445b,1,70,37,100,100,57,male,,,"<img src=""static/images/cards/stack_of_red_moons.svg"" width=""175px"" height=""250px""></img>",,,,,,,,,,,,,,,,,,,,,,,,,,,,
113,0,,html-keyboard-response,113,587195,0.0-4.18-1.18,419wndu8s2m,2022-09-16 18:29:17.233,62cb2599fe7c3e030e6d445b,1,70,37,100,100,57,male,1231.3000000119,,"
  <table>
  <tr height=300>
    <td width=300 height=300><img src=""static/images/cards/back_of_red_moons.svg"" width=""175px"" height=""250px""></img></td>
    <td width=300 height=300><img src=""static/images/cards/back_of_red_moons.svg"" width=""175px"" height=""250px""></img></td>
  </tr>
  <tr height=200>
    <td width=300><img src=""static/images/keys/z.svg"" width=""35%"" height=""75%""></img></td>
    <td width=300><img src=""static/images/keys/m.svg"" width=""35%"" height=""75%""></img></td>
  </tr>
</table>
  ",90.0,1.0,,,,,,,,,,,,,,,,,,,,,,,,,,
114,0,,html-keyboard-response,114,588707,0.0-4.18-2.18,419wndu8s2m,2022-09-16 18:29:17.233,62cb2599fe7c3e030e6d445b,1,70,37,100,100,57,male,,,"
  <table>
  <tr height=300>
    <td width=300 height=300><img src=""static/images/cards/6_of_red_moons.svg"" width=""175px"" height=""250px""></img></td>
    <td width=300 height=300><img src=""static/images/cards/back_of_red_moons.svg"" width=""175px"" height=""250px""></img></td>
  </tr>
  <tr height=200>
    <td width=300><img src=""static/images/keys/z.svg"" width=""35%"" height=""75%""></img></td>
    <td width=300><img src=""static/images/keys/m.svg"" width=""35%"" height=""75%""></img></td>
  </tr>
</table>
  ",,,,,,,,,,,,,,,,,,,,,,,,,,,,
115,0,,html-keyboard-response,115,590221,0.0-4.18-3.18,419wndu8s2m,2022-09-16 18:29:17.233,62cb2599fe7c3e030e6d445b,1,70,37,100,100,57,male,,,"<p style=""font-size:50px"">You win!
+10 points this round!</p>",,,,,,,,,,,,,,,,,,,,,,,,,,,,
116,0,,html-keyboard-response,116,590741,0.0-4.18-4.18,419wndu8s2m,2022-09-16 18:29:17.233,62cb2599fe7c3e030e6d445b,1,70,37,100,100,57,male,,,,,,1.0,learning,18.0,A,,red,,moons,,,,A,red,moons,,1.0,1.0,NA,left,1231.3000000119,6.0,1.0,1.0,,,
117,0,,html-keyboard-response,117,592251,0.0-4.19-0.19,419wndu8s2m,2022-09-16 18:29:17.233,62cb2599fe7c3e030e6d445b,1,70,37,100,100,57,male,,,"<img src=""static/images/cards/stack_of_black_moons.svg"" width=""175px"" height=""250px""></img>",,,,,,,,,,,,,,,,,,,,,,,,,,,,
118,0,,html-keyboard-response,118,593387,0.0-4.19-1.19,419wndu8s2m,2022-09-16 18:29:17.233,62cb2599fe7c3e030e6d445b,1,70,37,100,100,57,male,621.3000000119,,"
  <table>
  <tr height=300>
    <td width=300 height=300><img src=""static/images/cards/back_of_black_moons.svg"" width=""175px"" height=""250px""></img></td>
    <td width=300 height=300><img src=""static/images/cards/back_of_black_moons.svg"" width=""175px"" height=""250px""></img></td>
  </tr>
  <tr height=200>
    <td width=300><img src=""static/images/keys/z.svg"" width=""35%"" height=""75%""></img></td>
    <td width=300></td>
  </tr>
</table>
  ",90.0,1.0,,,,,,,,,,,,,,,,,,,,,,,,,,
119,0,,html-keyboard-response,119,594898,0.0-4.19-2.19,419wndu8s2m,2022-09-16 18:29:17.233,62cb2599fe7c3e030e6d445b,1,70,37,100,100,57,male,,,"
  <table>
  <tr height=300>
    <td width=300 height=300><img src=""static/images/cards/1_of_black_moons.svg"" width=""175px"" height=""250px""></img></td>
    <td width=300 height=300><img src=""static/images/cards/back_of_black_moons.svg"" width=""175px"" height=""250px""></img></td>
  </tr>
  <tr height=200>
    <td width=300><img src=""static/images/keys/z.svg"" width=""35%"" height=""75%""></img></td>
    <td width=300></td>
  </tr>
</table>
  ",,,,,,,,,,,,,,,,,,,,,,,,,,,,
120,0,,html-keyboard-response,120,596410,0.0-4.19-3.19,419wndu8s2m,2022-09-16 18:29:17.233,62cb2599fe7c3e030e6d445b,1,70,37,100,100,57,male,,,"<p style=""font-size:50px"">You Lose!
No points this round.</p>",,,,,,,,,,,,,,,,,,,,,,,,,,,,
121,0,,html-keyboard-response,121,596915,0.0-4.19-4.19,419wndu8s2m,2022-09-16 18:29:17.233,62cb2599fe7c3e030e6d445b,1,70,37,100,100,57,male,,,,,,1.0,learning,19.0,B,,black,,moons,,,,B,black,moons,,0.0,1.0,1,left,621.3000000119,1.0,0.0,0.0,,,
122,0,,html-keyboard-response,122,598416,0.0-4.20-0.20,419wndu8s2m,2022-09-16 18:29:17.233,62cb2599fe7c3e030e6d445b,1,70,37,100,100,57,male,,,"<img src=""static/images/cards/stack_of_red_stars.svg"" width=""175px"" height=""250px""></img>",,,,,,,,,,,,,,,,,,,,,,,,,,,,
123,0,,html-keyboard-response,123,599491,0.0-4.20-1.20,419wndu8s2m,2022-09-16 18:29:17.233,62cb2599fe7c3e030e6d445b,1,70,37,100,100,57,male,562.6000000238,,"
  <table>
  <tr height=300>
    <td width=300 height=300><img src=""static/images/cards/back_of_red_stars.svg"" width=""175px"" height=""250px""></img></td>
    <td width=300 height=300><img src=""static/images/cards/back_of_red_stars.svg"" width=""175px"" height=""250px""></img></td>
  </tr>
  <tr height=200>
    <td width=300><img src=""static/images/keys/z.svg"" width=""35%"" height=""75%""></img></td>
    <td width=300><img src=""static/images/keys/m.svg"" width=""35%"" height=""75%""></img></td>
  </tr>
</table>
  ",77.0,1.0,,,,,,,,,,,,,,,,,,,,,,,,,,
124,0,,html-keyboard-response,124,601001,0.0-4.20-2.20,419wndu8s2m,2022-09-16 18:29:17.233,62cb2599fe7c3e030e6d445b,1,70,37,100,100,57,male,,,"
  <table>
  <tr height=300>
    <td width=300 height=300><img src=""static/images/cards/back_of_red_stars.svg"" width=""175px"" height=""250px""></img></td>
    <td width=300 height=300><img src=""static/images/cards/7_of_red_stars.svg"" width=""175px"" height=""250px""></img></td>
  </tr>
  <tr height=200>
    <td width=300><img src=""static/images/keys/z.svg"" width=""35%"" height=""75%""></img></td>
    <td width=300><img src=""static/images/keys/m.svg"" width=""35%"" height=""75%""></img></td>
  </tr>
</table>
  ",,,,,,,,,,,,,,,,,,,,,,,,,,,,
125,0,,html-keyboard-response,125,602512,0.0-4.20-3.20,419wndu8s2m,2022-09-16 18:29:17.233,62cb2599fe7c3e030e6d445b,1,70,37,100,100,57,male,,,"<p style=""font-size:50px"">You Lose!
No points this round.</p>",,,,,,,,,,,,,,,,,,,,,,,,,,,,
126,0,,html-keyboard-response,126,603022,0.0-4.20-4.20,419wndu8s2m,2022-09-16 18:29:17.233,62cb2599fe7c3e030e6d445b,1,70,37,100,100,57,male,,,,,,1.0,learning,20.0,C,,red,,stars,,,,C,red,stars,,1.0,0.0,NA,right,562.6000000238,7.0,1.0,0.0,,,
127,0,,html-keyboard-response,127,604532,0.0-4.21-0.21,419wndu8s2m,2022-09-16 18:29:17.233,62cb2599fe7c3e030e6d445b,1,70,37,100,100,57,male,,,"<img src=""static/images/cards/stack_of_black_stars.svg"" width=""175px"" height=""250px""></img>",,,,,,,,,,,,,,,,,,,,,,,,,,,,
128,0,,html-keyboard-response,128,605539,0.0-4.21-1.21,419wndu8s2m,2022-09-16 18:29:17.233,62cb2599fe7c3e030e6d445b,1,70,37,100,100,57,male,496.5,,"
  <table>
  <tr height=300>
    <td width=300 height=300><img src=""static/images/cards/back_of_black_stars.svg"" width=""175px"" height=""250px""></img></td>
    <td width=300 height=300><img src=""static/images/cards/back_of_black_stars.svg"" width=""175px"" height=""250px""></img></td>
  </tr>
  <tr height=200>
    <td width=300></td>
    <td width=300><img src=""static/images/keys/m.svg"" width=""35%"" height=""75%""></img></td>
  </tr>
</table>
  ",77.0,1.0,,,,,,,,,,,,,,,,,,,,,,,,,,
129,0,,html-keyboard-response,129,607043,0.0-4.21-2.21,419wndu8s2m,2022-09-16 18:29:17.233,62cb2599fe7c3e030e6d445b,1,70,37,100,100,57,male,,,"
  <table>
  <tr height=300>
    <td width=300 height=300><img src=""static/images/cards/back_of_black_stars.svg"" width=""175px"" height=""250px""></img></td>
    <td width=300 height=300><img src=""static/images/cards/9_of_black_stars.svg"" width=""175px"" height=""250px""></img></td>
  </tr>
  <tr height=200>
    <td width=300></td>
    <td width=300><img src=""static/images/keys/m.svg"" width=""35%"" height=""75%""></img></td>
  </tr>
</table>
  ",,,,,,,,,,,,,,,,,,,,,,,,,,,,
130,0,,html-keyboard-response,130,608556,0.0-4.21-3.21,419wndu8s2m,2022-09-16 18:29:17.233,62cb2599fe7c3e030e6d445b,1,70,37,100,100,57,male,,,"<p style=""font-size:50px"">You win!
+10 points this round!</p>",,,,,,,,,,,,,,,,,,,,,,,,,,,,
131,0,,html-keyboard-response,131,609076,0.0-4.21-4.21,419wndu8s2m,2022-09-16 18:29:17.233,62cb2599fe7c3e030e6d445b,1,70,37,100,100,57,male,,,,,,1.0,learning,21.0,D,,black,,stars,,,,D,black,stars,,0.0,0.0,0,right,496.5,9.0,1.0,1.0,,,
132,0,,html-keyboard-response,132,610585,0.0-4.22-0.22,419wndu8s2m,2022-09-16 18:29:17.233,62cb2599fe7c3e030e6d445b,1,70,37,100,100,57,male,,,"<img src=""static/images/cards/stack_of_red_bolts.svg"" width=""175px"" height=""250px""></img>",,,,,,,,,,,,,,,,,,,,,,,,,,,,
133,0,,html-keyboard-response,133,611954,0.0-4.22-1.22,419wndu8s2m,2022-09-16 18:29:17.233,62cb2599fe7c3e030e6d445b,1,70,37,100,100,57,male,864.6000000238,,"
  <table>
  <tr height=300>
    <td width=300 height=300><img src=""static/images/cards/back_of_red_bolts.svg"" width=""175px"" height=""250px""></img></td>
    <td width=300 height=300><img src=""static/images/cards/back_of_red_bolts.svg"" width=""175px"" height=""250px""></img></td>
  </tr>
  <tr height=200>
    <td width=300><img src=""static/images/keys/z.svg"" width=""35%"" height=""75%""></img></td>
    <td width=300><img src=""static/images/keys/m.svg"" width=""35%"" height=""75%""></img></td>
  </tr>
</table>
  ",90.0,1.0,,,,,,,,,,,,,,,,,,,,,,,,,,
134,0,,html-keyboard-response,134,613459,0.0-4.22-2.22,419wndu8s2m,2022-09-16 18:29:17.233,62cb2599fe7c3e030e6d445b,1,70,37,100,100,57,male,,,"
  <table>
  <tr height=300>
    <td width=300 height=300><img src=""static/images/cards/1_of_red_bolts.svg"" width=""175px"" height=""250px""></img></td>
    <td width=300 height=300><img src=""static/images/cards/back_of_red_bolts.svg"" width=""175px"" height=""250px""></img></td>
  </tr>
  <tr height=200>
    <td width=300><img src=""static/images/keys/z.svg"" width=""35%"" height=""75%""></img></td>
    <td width=300><img src=""static/images/keys/m.svg"" width=""35%"" height=""75%""></img></td>
  </tr>
</table>
  ",,,,,,,,,,,,,,,,,,,,,,,,,,,,
135,0,,html-keyboard-response,135,614961,0.0-4.22-3.22,419wndu8s2m,2022-09-16 18:29:17.233,62cb2599fe7c3e030e6d445b,1,70,37,100,100,57,male,,,"<p style=""font-size:50px"">You win!
+10 points this round!</p>",,,,,,,,,,,,,,,,,,,,,,,,,,,,
136,0,,html-keyboard-response,136,615466,0.0-4.22-4.22,419wndu8s2m,2022-09-16 18:29:17.233,62cb2599fe7c3e030e6d445b,1,70,37,100,100,57,male,,,,,,1.0,learning,22.0,Xc,,red,,bolts,,,,Xc,red,bolts,,1.0,0.0,NA,left,864.6000000238,1.0,0.0,1.0,,,
137,0,,html-keyboard-response,137,616980,0.0-4.23-0.23,419wndu8s2m,2022-09-16 18:29:17.233,62cb2599fe7c3e030e6d445b,1,70,37,100,100,57,male,,,"<img src=""static/images/cards/stack_of_black_bolts.svg"" width=""175px"" height=""250px""></img>",,,,,,,,,,,,,,,,,,,,,,,,,,,,
138,0,,html-keyboard-response,138,617931,0.0-4.23-1.23,419wndu8s2m,2022-09-16 18:29:17.233,62cb2599fe7c3e030e6d445b,1,70,37,100,100,57,male,434.3000000119,,"
  <table>
  <tr height=300>
    <td width=300 height=300><img src=""static/images/cards/back_of_black_bolts.svg"" width=""175px"" height=""250px""></img></td>
    <td width=300 height=300><img src=""static/images/cards/back_of_black_bolts.svg"" width=""175px"" height=""250px""></img></td>
  </tr>
  <tr height=200>
    <td width=300></td>
    <td width=300><img src=""static/images/keys/m.svg"" width=""35%"" height=""75%""></img></td>
  </tr>
</table>
  ",77.0,1.0,,,,,,,,,,,,,,,,,,,,,,,,,,
139,0,,html-keyboard-response,139,619447,0.0-4.23-2.23,419wndu8s2m,2022-09-16 18:29:17.233,62cb2599fe7c3e030e6d445b,1,70,37,100,100,57,male,,,"
  <table>
  <tr height=300>
    <td width=300 height=300><img src=""static/images/cards/back_of_black_bolts.svg"" width=""175px"" height=""250px""></img></td>
    <td width=300 height=300><img src=""static/images/cards/1_of_black_bolts.svg"" width=""175px"" height=""250px""></img></td>
  </tr>
  <tr height=200>
    <td width=300></td>
    <td width=300><img src=""static/images/keys/m.svg"" width=""35%"" height=""75%""></img></td>
  </tr>
</table>
  ",,,,,,,,,,,,,,,,,,,,,,,,,,,,
140,0,,html-keyboard-response,140,620966,0.0-4.23-3.23,419wndu8s2m,2022-09-16 18:29:17.233,62cb2599fe7c3e030e6d445b,1,70,37,100,100,57,male,,,"<p style=""font-size:50px"">You win!
+10 points this round!</p>",,,,,,,,,,,,,,,,,,,,,,,,,,,,
141,0,,html-keyboard-response,141,621473,0.0-4.23-4.23,419wndu8s2m,2022-09-16 18:29:17.233,62cb2599fe7c3e030e6d445b,1,70,37,100,100,57,male,,,,,,1.0,learning,23.0,Xnc,,black,,bolts,,,,Xnc,black,bolts,,0.0,0.0,0,right,434.3000000119,1.0,0.0,1.0,,,
142,0,,call-function,142,621476,0.0-5.0,419wndu8s2m,2022-09-16 18:29:17.233,62cb2599fe7c3e030e6d445b,1,70,37,100,100,57,male,,,,,,,,,,,,,,,,,,,,,,,,,,,,,,,
143,0,,image-keyboard-response,143,685333,0.0-6.0-0.0,419wndu8s2m,2022-09-16 18:29:17.233,62cb2599fe7c3e030e6d445b,1,70,37,100,100,57,male,63863.0,,static/images/instructions_CB_1/Slide20.png,39.0,,,,,,,,,,,,,,,,,,,,,,,,,,,
144,0,,image-keyboard-response,144,691308,0.0-6.1-0.1,419wndu8s2m,2022-09-16 18:29:17.233,62cb2599fe7c3e030e6d445b,1,70,37,100,100,57,male,5975.0,,static/images/instructions_CB_1/Slide21.png,39.0,,,,,,,,,,,,,,,,,,,,,,,,,,,
145,0,,image-keyboard-response,145,696517,0.0-6.2-0.2,419wndu8s2m,2022-09-16 18:29:17.233,62cb2599fe7c3e030e6d445b,1,70,37,100,100,57,male,5207.6999999881,,static/images/instructions_CB_1/Slide22.png,39.0,,,,,,,,,,,,,,,,,,,,,,,,,,,
146,0,,image-keyboard-response,146,701556,0.0-6.3-0.3,419wndu8s2m,2022-09-16 18:29:17.233,62cb2599fe7c3e030e6d445b,1,70,37,100,100,57,male,5039.1000000238,,static/images/instructions_CB_1/Slide23.png,39.0,,,,,,,,,,,,,,,,,,,,,,,,,,,
147,0,,image-keyboard-response,147,704365,0.0-6.4-0.4,419wndu8s2m,2022-09-16 18:29:17.233,62cb2599fe7c3e030e6d445b,1,70,37,100,100,57,male,2807.5,,static/images/instructions_CB_1/Slide24.png,39.0,,,,,,,,,,,,,,,,,,,,,,,,,,,
148,0,,html-keyboard-response,148,706532,0.0-7.0-0.0,419wndu8s2m,2022-09-16 18:29:17.233,62cb2599fe7c3e030e6d445b,1,70,37,100,100,57,male,2167.0,,"
  <table>
  <tr height=300>
    <td width=300 height=300><img src=""static/images/cards/stack_of_black_stars.svg"" width=""175px"" height=""250px""></img></td>
    <td width=300 height=300><img src=""static/images/cards/stack_of_red_stars.svg"" width=""175px"" height=""250px""></img></td>
  </tr>
  <tr height=200>
    <td width=300><img src=""static/images/keys/w.svg"" width=""35%"" height=""75%""></img></td>
    <td width=300><img src=""static/images/keys/o.svg"" width=""35%"" height=""75%""></img></td>
  </tr>
</table>
  ",79.0,1.0,,,,,,,,,,,,,,,,,,,,,,,,,,
149,0,,html-keyboard-response,149,709524,0.0-7.0-1.0,419wndu8s2m,2022-09-16 18:29:17.233,62cb2599fe7c3e030e6d445b,1,70,37,100,100,57,male,2477.8000000119,,"
  <table>
  <tr height=300>
    <td width=300 height=300><img src=""static/images/cards/back_of_red_stars.svg"" width=""175px"" height=""250px""></img></td>
    <td width=300 height=300><img src=""static/images/cards/back_of_red_stars.svg"" width=""175px"" height=""250px""></img></td>
  </tr>
  <tr height=200>
    <td width=300><img src=""static/images/keys/z.svg"" width=""35%"" height=""75%""></img></td>
    <td width=300><img src=""static/images/keys/m.svg"" width=""35%"" height=""75%""></img></td>
  </tr>
</table>
  ",77.0,1.0,,,,,,,,,,,,,,,,,,,,,,,,,,
150,0,,html-keyboard-response,150,711026,0.0-7.0-2.0,419wndu8s2m,2022-09-16 18:29:17.233,62cb2599fe7c3e030e6d445b,1,70,37,100,100,57,male,,,"
  <table>
  <tr height=300>
    <td width=300 height=300><img src=""static/images/cards/back_of_red_stars.svg"" width=""175px"" height=""250px""></img></td>
    <td width=300 height=300><img src=""static/images/cards/2_of_red_stars.svg"" width=""175px"" height=""250px""></img></td>
  </tr>
  <tr height=200>
    <td width=300><img src=""static/images/keys/z.svg"" width=""35%"" height=""75%""></img></td>
    <td width=300><img src=""static/images/keys/m.svg"" width=""35%"" height=""75%""></img></td>
  </tr>
</table>
  ",,,,,,,,,,,,,,,,,,,,,,,,,,,,
151,0,,html-keyboard-response,151,712551,0.0-7.0-3.0,419wndu8s2m,2022-09-16 18:29:17.233,62cb2599fe7c3e030e6d445b,1,70,37,100,100,57,male,,,"<p style=""font-size:50px"">You Lose!
No points this round.</p>",,,,,,,,,,,,,,,,,,,,,,,,,,,,
152,0,,html-keyboard-response,152,713058,0.0-7.0-4.0,419wndu8s2m,2022-09-16 18:29:17.233,62cb2599fe7c3e030e6d445b,1,70,37,100,100,57,male,,,,,,1.0,choice,0.0,C,D,black,red,stars,stars,D,C,C,red,stars,2167.0,1.0,0.0,NA,right,2477.8000000119,2.0,0.0,0.0,,,
153,0,,html-keyboard-response,153,715948,0.0-7.1-0.1,419wndu8s2m,2022-09-16 18:29:17.233,62cb2599fe7c3e030e6d445b,1,70,37,100,100,57,male,2889.7999999523,,"
  <table>
  <tr height=300>
    <td width=300 height=300><img src=""static/images/cards/stack_of_black_stars.svg"" width=""175px"" height=""250px""></img></td>
    <td width=300 height=300><img src=""static/images/cards/stack_of_red_stars.svg"" width=""175px"" height=""250px""></img></td>
  </tr>
  <tr height=200>
    <td width=300><img src=""static/images/keys/w.svg"" width=""35%"" height=""75%""></img></td>
    <td width=300><img src=""static/images/keys/o.svg"" width=""35%"" height=""75%""></img></td>
  </tr>
</table>
  ",79.0,1.0,,,,,,,,,,,,,,,,,,,,,,,,,,
154,0,,html-keyboard-response,154,717981,0.0-7.1-1.1,419wndu8s2m,2022-09-16 18:29:17.233,62cb2599fe7c3e030e6d445b,1,70,37,100,100,57,male,1521.1000000238,,"
  <table>
  <tr height=300>
    <td width=300 height=300><img src=""static/images/cards/back_of_red_stars.svg"" width=""175px"" height=""250px""></img></td>
    <td width=300 height=300><img src=""static/images/cards/back_of_red_stars.svg"" width=""175px"" height=""250px""></img></td>
  </tr>
  <tr height=200>
    <td width=300><img src=""static/images/keys/z.svg"" width=""35%"" height=""75%""></img></td>
    <td width=300><img src=""static/images/keys/m.svg"" width=""35%"" height=""75%""></img></td>
  </tr>
</table>
  ",77.0,1.0,,,,,,,,,,,,,,,,,,,,,,,,,,
155,0,,html-keyboard-response,155,719495,0.0-7.1-2.1,419wndu8s2m,2022-09-16 18:29:17.233,62cb2599fe7c3e030e6d445b,1,70,37,100,100,57,male,,,"
  <table>
  <tr height=300>
    <td width=300 height=300><img src=""static/images/cards/back_of_red_stars.svg"" width=""175px"" height=""250px""></img></td>
    <td width=300 height=300><img src=""static/images/cards/7_of_red_stars.svg"" width=""175px"" height=""250px""></img></td>
  </tr>
  <tr height=200>
    <td width=300><img src=""static/images/keys/z.svg"" width=""35%"" height=""75%""></img></td>
    <td width=300><img src=""static/images/keys/m.svg"" width=""35%"" height=""75%""></img></td>
  </tr>
</table>
  ",,,,,,,,,,,,,,,,,,,,,,,,,,,,
156,0,,html-keyboard-response,156,721016,0.0-7.1-3.1,419wndu8s2m,2022-09-16 18:29:17.233,62cb2599fe7c3e030e6d445b,1,70,37,100,100,57,male,,,"<p style=""font-size:50px"">You win!
+10 points this round!</p>",,,,,,,,,,,,,,,,,,,,,,,,,,,,
157,0,,html-keyboard-response,157,721523,0.0-7.1-4.1,419wndu8s2m,2022-09-16 18:29:17.233,62cb2599fe7c3e030e6d445b,1,70,37,100,100,57,male,,,,,,1.0,choice,1.0,C,D,black,red,stars,stars,D,C,C,red,stars,2889.7999999523,1.0,0.0,NA,right,1521.1000000238,7.0,1.0,1.0,,,
158,0,,html-keyboard-response,158,724004,0.0-7.2-0.2,419wndu8s2m,2022-09-16 18:29:17.233,62cb2599fe7c3e030e6d445b,1,70,37,100,100,57,male,2480.5,,"
  <table>
  <tr height=300>
    <td width=300 height=300><img src=""static/images/cards/stack_of_black_moons.svg"" width=""175px"" height=""250px""></img></td>
    <td width=300 height=300><img src=""static/images/cards/stack_of_black_stars.svg"" width=""175px"" height=""250px""></img></td>
  </tr>
  <tr height=200>
    <td width=300><img src=""static/images/keys/w.svg"" width=""35%"" height=""75%""></img></td>
    <td width=300><img src=""static/images/keys/o.svg"" width=""35%"" height=""75%""></img></td>
  </tr>
</table>
  ",87.0,1.0,,,,,,,,,,,,,,,,,,,,,,,,,,
159,0,,html-keyboard-response,159,726260,0.0-7.2-1.2,419wndu8s2m,2022-09-16 18:29:17.233,62cb2599fe7c3e030e6d445b,1,70,37,100,100,57,male,1754.8000000119,,"
  <table>
  <tr height=300>
    <td width=300 height=300><img src=""static/images/cards/back_of_black_moons.svg"" width=""175px"" height=""250px""></img></td>
    <td width=300 height=300><img src=""static/images/cards/back_of_black_moons.svg"" width=""175px"" height=""250px""></img></td>
  </tr>
  <tr height=200>
    <td width=300><img src=""static/images/keys/z.svg"" width=""35%"" height=""75%""></img></td>
    <td width=300></td>
  </tr>
</table>
  ",90.0,1.0,,,,,,,,,,,,,,,,,,,,,,,,,,
160,0,,html-keyboard-response,160,727765,0.0-7.2-2.2,419wndu8s2m,2022-09-16 18:29:17.233,62cb2599fe7c3e030e6d445b,1,70,37,100,100,57,male,,,"
  <table>
  <tr height=300>
    <td width=300 height=300><img src=""static/images/cards/9_of_black_moons.svg"" width=""175px"" height=""250px""></img></td>
    <td width=300 height=300><img src=""static/images/cards/back_of_black_moons.svg"" width=""175px"" height=""250px""></img></td>
  </tr>
  <tr height=200>
    <td width=300><img src=""static/images/keys/z.svg"" width=""35%"" height=""75%""></img></td>
    <td width=300></td>
  </tr>
</table>
  ",,,,,,,,,,,,,,,,,,,,,,,,,,,,
161,0,,html-keyboard-response,161,729276,0.0-7.2-3.2,419wndu8s2m,2022-09-16 18:29:17.233,62cb2599fe7c3e030e6d445b,1,70,37,100,100,57,male,,,"<p style=""font-size:50px"">You win!
+10 points this round!</p>",,,,,,,,,,,,,,,,,,,,,,,,,,,,
162,0,,html-keyboard-response,162,729790,0.0-7.2-4.2,419wndu8s2m,2022-09-16 18:29:17.233,62cb2599fe7c3e030e6d445b,1,70,37,100,100,57,male,,,,,,1.0,choice,2.0,B,D,black,black,moons,stars,B,D,B,black,moons,2480.5,0.0,1.0,1,left,1754.8000000119,9.0,1.0,1.0,,,
163,0,,html-keyboard-response,163,731461,0.0-7.3-0.3,419wndu8s2m,2022-09-16 18:29:17.233,62cb2599fe7c3e030e6d445b,1,70,37,100,100,57,male,1669.6999999881,,"
  <table>
  <tr height=300>
    <td width=300 height=300><img src=""static/images/cards/stack_of_red_moons.svg"" width=""175px"" height=""250px""></img></td>
    <td width=300 height=300><img src=""static/images/cards/stack_of_black_stars.svg"" width=""175px"" height=""250px""></img></td>
  </tr>
  <tr height=200>
    <td width=300><img src=""static/images/keys/w.svg"" width=""35%"" height=""75%""></img></td>
    <td width=300><img src=""static/images/keys/o.svg"" width=""35%"" height=""75%""></img></td>
  </tr>
</table>
  ",79.0,1.0,,,,,,,,,,,,,,,,,,,,,,,,,,
164,0,,html-keyboard-response,164,733717,0.0-7.3-1.3,419wndu8s2m,2022-09-16 18:29:17.233,62cb2599fe7c3e030e6d445b,1,70,37,100,100,57,male,1746.0,,"
  <table>
  <tr height=300>
    <td width=300 height=300><img src=""static/images/cards/back_of_black_stars.svg"" width=""175px"" height=""250px""></img></td>
    <td width=300 height=300><img src=""static/images/cards/back_of_black_stars.svg"" width=""175px"" height=""250px""></img></td>
  </tr>
  <tr height=200>
    <td width=300></td>
    <td width=300><img src=""static/images/keys/m.svg"" width=""35%"" height=""75%""></img></td>
  </tr>
</table>
  ",77.0,1.0,,,,,,,,,,,,,,,,,,,,,,,,,,
165,0,,html-keyboard-response,165,735220,0.0-7.3-2.3,419wndu8s2m,2022-09-16 18:29:17.233,62cb2599fe7c3e030e6d445b,1,70,37,100,100,57,male,,,"
  <table>
  <tr height=300>
    <td width=300 height=300><img src=""static/images/cards/back_of_black_stars.svg"" width=""175px"" height=""250px""></img></td>
    <td width=300 height=300><img src=""static/images/cards/3_of_black_stars.svg"" width=""175px"" height=""250px""></img></td>
  </tr>
  <tr height=200>
    <td width=300></td>
    <td width=300><img src=""static/images/keys/m.svg"" width=""35%"" height=""75%""></img></td>
  </tr>
</table>
  ",,,,,,,,,,,,,,,,,,,,,,,,,,,,
166,0,,html-keyboard-response,166,736727,0.0-7.3-3.3,419wndu8s2m,2022-09-16 18:29:17.233,62cb2599fe7c3e030e6d445b,1,70,37,100,100,57,male,,,"<p style=""font-size:50px"">You Lose!
No points this round.</p>",,,,,,,,,,,,,,,,,,,,,,,,,,,,
167,0,,html-keyboard-response,167,737239,0.0-7.3-4.3,419wndu8s2m,2022-09-16 18:29:17.233,62cb2599fe7c3e030e6d445b,1,70,37,100,100,57,male,,,,,,1.0,choice,3.0,A,D,red,black,moons,stars,A,D,D,black,stars,1669.6999999881,0.0,0.0,0,right,1746.0,3.0,0.0,0.0,,,
168,0,,html-keyboard-response,168,739093,0.0-7.4-0.4,419wndu8s2m,2022-09-16 18:29:17.233,62cb2599fe7c3e030e6d445b,1,70,37,100,100,57,male,1853.0,,"
  <table>
  <tr height=300>
    <td width=300 height=300><img src=""static/images/cards/stack_of_black_stars.svg"" width=""175px"" height=""250px""></img></td>
    <td width=300 height=300><img src=""static/images/cards/stack_of_black_moons.svg"" width=""175px"" height=""250px""></img></td>
  </tr>
  <tr height=200>
    <td width=300><img src=""static/images/keys/w.svg"" width=""35%"" height=""75%""></img></td>
    <td width=300><img src=""static/images/keys/o.svg"" width=""35%"" height=""75%""></img></td>
  </tr>
</table>
  ",87.0,1.0,,,,,,,,,,,,,,,,,,,,,,,,,,
169,0,,html-keyboard-response,169,741028,0.0-7.4-1.4,419wndu8s2m,2022-09-16 18:29:17.233,62cb2599fe7c3e030e6d445b,1,70,37,100,100,57,male,1431.8000000119,,"
  <table>
  <tr height=300>
    <td width=300 height=300><img src=""static/images/cards/back_of_black_stars.svg"" width=""175px"" height=""250px""></img></td>
    <td width=300 height=300><img src=""static/images/cards/back_of_black_stars.svg"" width=""175px"" height=""250px""></img></td>
  </tr>
  <tr height=200>
    <td width=300></td>
    <td width=300><img src=""static/images/keys/m.svg"" width=""35%"" height=""75%""></img></td>
  </tr>
</table>
  ",77.0,1.0,,,,,,,,,,,,,,,,,,,,,,,,,,
170,0,,html-keyboard-response,170,742530,0.0-7.4-2.4,419wndu8s2m,2022-09-16 18:29:17.233,62cb2599fe7c3e030e6d445b,1,70,37,100,100,57,male,,,"
  <table>
  <tr height=300>
    <td width=300 height=300><img src=""static/images/cards/back_of_black_stars.svg"" width=""175px"" height=""250px""></img></td>
    <td width=300 height=300><img src=""static/images/cards/3_of_black_stars.svg"" width=""175px"" height=""250px""></img></td>
  </tr>
  <tr height=200>
    <td width=300></td>
    <td width=300><img src=""static/images/keys/m.svg"" width=""35%"" height=""75%""></img></td>
  </tr>
</table>
  ",,,,,,,,,,,,,,,,,,,,,,,,,,,,
171,0,,html-keyboard-response,171,744038,0.0-7.4-3.4,419wndu8s2m,2022-09-16 18:29:17.233,62cb2599fe7c3e030e6d445b,1,70,37,100,100,57,male,,,"<p style=""font-size:50px"">You Lose!
No points this round.</p>",,,,,,,,,,,,,,,,,,,,,,,,,,,,
172,0,,html-keyboard-response,172,744555,0.0-7.4-4.4,419wndu8s2m,2022-09-16 18:29:17.233,62cb2599fe7c3e030e6d445b,1,70,37,100,100,57,male,,,,,,1.0,choice,4.0,B,D,black,black,stars,moons,D,B,D,black,stars,1853.0,0.0,0.0,0,right,1431.8000000119,3.0,0.0,0.0,,,
173,0,,html-keyboard-response,173,746260,0.0-7.5-0.5,419wndu8s2m,2022-09-16 18:29:17.233,62cb2599fe7c3e030e6d445b,1,70,37,100,100,57,male,1704.8000000119,,"
  <table>
  <tr height=300>
    <td width=300 height=300><img src=""static/images/cards/stack_of_red_moons.svg"" width=""175px"" height=""250px""></img></td>
    <td width=300 height=300><img src=""static/images/cards/stack_of_red_stars.svg"" width=""175px"" height=""250px""></img></td>
  </tr>
  <tr height=200>
    <td width=300><img src=""static/images/keys/w.svg"" width=""35%"" height=""75%""></img></td>
    <td width=300><img src=""static/images/keys/o.svg"" width=""35%"" height=""75%""></img></td>
  </tr>
</table>
  ",87.0,1.0,,,,,,,,,,,,,,,,,,,,,,,,,,
174,0,,html-keyboard-response,174,748140,0.0-7.5-1.5,419wndu8s2m,2022-09-16 18:29:17.233,62cb2599fe7c3e030e6d445b,1,70,37,100,100,57,male,1370.0,,"
  <table>
  <tr height=300>
    <td width=300 height=300><img src=""static/images/cards/back_of_red_moons.svg"" width=""175px"" height=""250px""></img></td>
    <td width=300 height=300><img src=""static/images/cards/back_of_red_moons.svg"" width=""175px"" height=""250px""></img></td>
  </tr>
  <tr height=200>
    <td width=300><img src=""static/images/keys/z.svg"" width=""35%"" height=""75%""></img></td>
    <td width=300><img src=""static/images/keys/m.svg"" width=""35%"" height=""75%""></img></td>
  </tr>
</table>
  ",77.0,1.0,,,,,,,,,,,,,,,,,,,,,,,,,,
175,0,,html-keyboard-response,175,749652,0.0-7.5-2.5,419wndu8s2m,2022-09-16 18:29:17.233,62cb2599fe7c3e030e6d445b,1,70,37,100,100,57,male,,,"
  <table>
  <tr height=300>
    <td width=300 height=300><img src=""static/images/cards/back_of_red_moons.svg"" width=""175px"" height=""250px""></img></td>
    <td width=300 height=300><img src=""static/images/cards/8_of_red_moons.svg"" width=""175px"" height=""250px""></img></td>
  </tr>
  <tr height=200>
    <td width=300><img src=""static/images/keys/z.svg"" width=""35%"" height=""75%""></img></td>
    <td width=300><img src=""static/images/keys/m.svg"" width=""35%"" height=""75%""></img></td>
  </tr>
</table>
  ",,,,,,,,,,,,,,,,,,,,,,,,,,,,
176,0,,html-keyboard-response,176,751163,0.0-7.5-3.5,419wndu8s2m,2022-09-16 18:29:17.233,62cb2599fe7c3e030e6d445b,1,70,37,100,100,57,male,,,"<p style=""font-size:50px"">You win!
+10 points this round!</p>",,,,,,,,,,,,,,,,,,,,,,,,,,,,
177,0,,html-keyboard-response,177,751678,0.0-7.5-4.5,419wndu8s2m,2022-09-16 18:29:17.233,62cb2599fe7c3e030e6d445b,1,70,37,100,100,57,male,,,,,,1.0,choice,5.0,A,C,red,red,moons,stars,A,C,A,red,moons,1704.8000000119,1.0,1.0,NA,right,1370.0,8.0,1.0,1.0,,,
178,0,,html-keyboard-response,178,753700,0.0-7.6-0.6,419wndu8s2m,2022-09-16 18:29:17.233,62cb2599fe7c3e030e6d445b,1,70,37,100,100,57,male,2021.0,,"
  <table>
  <tr height=300>
    <td width=300 height=300><img src=""static/images/cards/stack_of_black_stars.svg"" width=""175px"" height=""250px""></img></td>
    <td width=300 height=300><img src=""static/images/cards/stack_of_red_moons.svg"" width=""175px"" height=""250px""></img></td>
  </tr>
  <tr height=200>
    <td width=300><img src=""static/images/keys/w.svg"" width=""35%"" height=""75%""></img></td>
    <td width=300><img src=""static/images/keys/o.svg"" width=""35%"" height=""75%""></img></td>
  </tr>
</table>
  ",79.0,1.0,,,,,,,,,,,,,,,,,,,,,,,,,,
179,0,,html-keyboard-response,179,755475,0.0-7.6-1.6,419wndu8s2m,2022-09-16 18:29:17.233,62cb2599fe7c3e030e6d445b,1,70,37,100,100,57,male,1265.6999999881,,"
  <table>
  <tr height=300>
    <td width=300 height=300><img src=""static/images/cards/back_of_red_moons.svg"" width=""175px"" height=""250px""></img></td>
    <td width=300 height=300><img src=""static/images/cards/back_of_red_moons.svg"" width=""175px"" height=""250px""></img></td>
  </tr>
  <tr height=200>
    <td width=300><img src=""static/images/keys/z.svg"" width=""35%"" height=""75%""></img></td>
    <td width=300><img src=""static/images/keys/m.svg"" width=""35%"" height=""75%""></img></td>
  </tr>
</table>
  ",90.0,1.0,,,,,,,,,,,,,,,,,,,,,,,,,,
180,0,,html-keyboard-response,180,756979,0.0-7.6-2.6,419wndu8s2m,2022-09-16 18:29:17.233,62cb2599fe7c3e030e6d445b,1,70,37,100,100,57,male,,,"
  <table>
  <tr height=300>
    <td width=300 height=300><img src=""static/images/cards/8_of_red_moons.svg"" width=""175px"" height=""250px""></img></td>
    <td width=300 height=300><img src=""static/images/cards/back_of_red_moons.svg"" width=""175px"" height=""250px""></img></td>
  </tr>
  <tr height=200>
    <td width=300><img src=""static/images/keys/z.svg"" width=""35%"" height=""75%""></img></td>
    <td width=300><img src=""static/images/keys/m.svg"" width=""35%"" height=""75%""></img></td>
  </tr>
</table>
  ",,,,,,,,,,,,,,,,,,,,,,,,,,,,
181,0,,html-keyboard-response,181,758495,0.0-7.6-3.6,419wndu8s2m,2022-09-16 18:29:17.233,62cb2599fe7c3e030e6d445b,1,70,37,100,100,57,male,,,"<p style=""font-size:50px"">You win!
+10 points this round!</p>",,,,,,,,,,,,,,,,,,,,,,,,,,,,
182,0,,html-keyboard-response,182,759006,0.0-7.6-4.6,419wndu8s2m,2022-09-16 18:29:17.233,62cb2599fe7c3e030e6d445b,1,70,37,100,100,57,male,,,,,,1.0,choice,6.0,A,D,black,red,stars,moons,D,A,A,red,moons,2021.0,1.0,1.0,NA,left,1265.6999999881,8.0,1.0,1.0,,,
183,0,,html-keyboard-response,183,760387,0.0-7.7-0.7,419wndu8s2m,2022-09-16 18:29:17.233,62cb2599fe7c3e030e6d445b,1,70,37,100,100,57,male,1380.6000000238,,"
  <table>
  <tr height=300>
    <td width=300 height=300><img src=""static/images/cards/stack_of_red_stars.svg"" width=""175px"" height=""250px""></img></td>
    <td width=300 height=300><img src=""static/images/cards/stack_of_red_moons.svg"" width=""175px"" height=""250px""></img></td>
  </tr>
  <tr height=200>
    <td width=300><img src=""static/images/keys/w.svg"" width=""35%"" height=""75%""></img></td>
    <td width=300><img src=""static/images/keys/o.svg"" width=""35%"" height=""75%""></img></td>
  </tr>
</table>
  ",79.0,1.0,,,,,,,,,,,,,,,,,,,,,,,,,,
184,0,,html-keyboard-response,184,762115,0.0-7.7-1.7,419wndu8s2m,2022-09-16 18:29:17.233,62cb2599fe7c3e030e6d445b,1,70,37,100,100,57,male,1218.2999999523,,"
  <table>
  <tr height=300>
    <td width=300 height=300><img src=""static/images/cards/back_of_red_moons.svg"" width=""175px"" height=""250px""></img></td>
    <td width=300 height=300><img src=""static/images/cards/back_of_red_moons.svg"" width=""175px"" height=""250px""></img></td>
  </tr>
  <tr height=200>
    <td width=300><img src=""static/images/keys/z.svg"" width=""35%"" height=""75%""></img></td>
    <td width=300><img src=""static/images/keys/m.svg"" width=""35%"" height=""75%""></img></td>
  </tr>
</table>
  ",90.0,1.0,,,,,,,,,,,,,,,,,,,,,,,,,,
185,0,,html-keyboard-response,185,763619,0.0-7.7-2.7,419wndu8s2m,2022-09-16 18:29:17.233,62cb2599fe7c3e030e6d445b,1,70,37,100,100,57,male,,,"
  <table>
  <tr height=300>
    <td width=300 height=300><img src=""static/images/cards/6_of_red_moons.svg"" width=""175px"" height=""250px""></img></td>
    <td width=300 height=300><img src=""static/images/cards/back_of_red_moons.svg"" width=""175px"" height=""250px""></img></td>
  </tr>
  <tr height=200>
    <td width=300><img src=""static/images/keys/z.svg"" width=""35%"" height=""75%""></img></td>
    <td width=300><img src=""static/images/keys/m.svg"" width=""35%"" height=""75%""></img></td>
  </tr>
</table>
  ",,,,,,,,,,,,,,,,,,,,,,,,,,,,
186,0,,html-keyboard-response,186,765146,0.0-7.7-3.7,419wndu8s2m,2022-09-16 18:29:17.233,62cb2599fe7c3e030e6d445b,1,70,37,100,100,57,male,,,"<p style=""font-size:50px"">You win!
+10 points this round!</p>",,,,,,,,,,,,,,,,,,,,,,,,,,,,
187,0,,html-keyboard-response,187,765663,0.0-7.7-4.7,419wndu8s2m,2022-09-16 18:29:17.233,62cb2599fe7c3e030e6d445b,1,70,37,100,100,57,male,,,,,,1.0,choice,7.0,A,C,red,red,stars,moons,C,A,A,red,moons,1380.6000000238,1.0,1.0,NA,left,1218.2999999523,6.0,1.0,1.0,,,
188,0,,html-keyboard-response,188,767187,0.0-7.8-0.8,419wndu8s2m,2022-09-16 18:29:17.233,62cb2599fe7c3e030e6d445b,1,70,37,100,100,57,male,1523.3000000119,,"
  <table>
  <tr height=300>
    <td width=300 height=300><img src=""static/images/cards/stack_of_red_moons.svg"" width=""175px"" height=""250px""></img></td>
    <td width=300 height=300><img src=""static/images/cards/stack_of_black_stars.svg"" width=""175px"" height=""250px""></img></td>
  </tr>
  <tr height=200>
    <td width=300><img src=""static/images/keys/w.svg"" width=""35%"" height=""75%""></img></td>
    <td width=300><img src=""static/images/keys/o.svg"" width=""35%"" height=""75%""></img></td>
  </tr>
</table>
  ",87.0,1.0,,,,,,,,,,,,,,,,,,,,,,,,,,
189,0,,html-keyboard-response,189,769787,0.0-7.8-1.8,419wndu8s2m,2022-09-16 18:29:17.233,62cb2599fe7c3e030e6d445b,1,70,37,100,100,57,male,2096.8999999762,,"
  <table>
  <tr height=300>
    <td width=300 height=300><img src=""static/images/cards/back_of_red_moons.svg"" width=""175px"" height=""250px""></img></td>
    <td width=300 height=300><img src=""static/images/cards/back_of_red_moons.svg"" width=""175px"" height=""250px""></img></td>
  </tr>
  <tr height=200>
    <td width=300><img src=""static/images/keys/z.svg"" width=""35%"" height=""75%""></img></td>
    <td width=300><img src=""static/images/keys/m.svg"" width=""35%"" height=""75%""></img></td>
  </tr>
</table>
  ",77.0,1.0,,,,,,,,,,,,,,,,,,,,,,,,,,
190,0,,html-keyboard-response,190,771301,0.0-7.8-2.8,419wndu8s2m,2022-09-16 18:29:17.233,62cb2599fe7c3e030e6d445b,1,70,37,100,100,57,male,,,"
  <table>
  <tr height=300>
    <td width=300 height=300><img src=""static/images/cards/back_of_red_moons.svg"" width=""175px"" height=""250px""></img></td>
    <td width=300 height=300><img src=""static/images/cards/4_of_red_moons.svg"" width=""175px"" height=""250px""></img></td>
  </tr>
  <tr height=200>
    <td width=300><img src=""static/images/keys/z.svg"" width=""35%"" height=""75%""></img></td>
    <td width=300><img src=""static/images/keys/m.svg"" width=""35%"" height=""75%""></img></td>
  </tr>
</table>
  ",,,,,,,,,,,,,,,,,,,,,,,,,,,,
191,0,,html-keyboard-response,191,772814,0.0-7.8-3.8,419wndu8s2m,2022-09-16 18:29:17.233,62cb2599fe7c3e030e6d445b,1,70,37,100,100,57,male,,,"<p style=""font-size:50px"">You Lose!
No points this round.</p>",,,,,,,,,,,,,,,,,,,,,,,,,,,,
192,0,,html-keyboard-response,192,773332,0.0-7.8-4.8,419wndu8s2m,2022-09-16 18:29:17.233,62cb2599fe7c3e030e6d445b,1,70,37,100,100,57,male,,,,,,1.0,choice,8.0,A,D,red,black,moons,stars,A,D,A,red,moons,1523.3000000119,1.0,1.0,NA,right,2096.8999999762,4.0,0.0,0.0,,,
193,0,,html-keyboard-response,193,774571,0.0-7.9-0.9,419wndu8s2m,2022-09-16 18:29:17.233,62cb2599fe7c3e030e6d445b,1,70,37,100,100,57,male,1238.1000000238,,"
  <table>
  <tr height=300>
    <td width=300 height=300><img src=""static/images/cards/stack_of_black_stars.svg"" width=""175px"" height=""250px""></img></td>
    <td width=300 height=300><img src=""static/images/cards/stack_of_red_stars.svg"" width=""175px"" height=""250px""></img></td>
  </tr>
  <tr height=200>
    <td width=300><img src=""static/images/keys/w.svg"" width=""35%"" height=""75%""></img></td>
    <td width=300><img src=""static/images/keys/o.svg"" width=""35%"" height=""75%""></img></td>
  </tr>
</table>
  ",79.0,1.0,,,,,,,,,,,,,,,,,,,,,,,,,,
194,0,,html-keyboard-response,194,776299,0.0-7.9-1.9,419wndu8s2m,2022-09-16 18:29:17.233,62cb2599fe7c3e030e6d445b,1,70,37,100,100,57,male,1219.3000000119,,"
  <table>
  <tr height=300>
    <td width=300 height=300><img src=""static/images/cards/back_of_red_stars.svg"" width=""175px"" height=""250px""></img></td>
    <td width=300 height=300><img src=""static/images/cards/back_of_red_stars.svg"" width=""175px"" height=""250px""></img></td>
  </tr>
  <tr height=200>
    <td width=300><img src=""static/images/keys/z.svg"" width=""35%"" height=""75%""></img></td>
    <td width=300><img src=""static/images/keys/m.svg"" width=""35%"" height=""75%""></img></td>
  </tr>
</table>
  ",90.0,1.0,,,,,,,,,,,,,,,,,,,,,,,,,,
195,0,,html-keyboard-response,195,777815,0.0-7.9-2.9,419wndu8s2m,2022-09-16 18:29:17.233,62cb2599fe7c3e030e6d445b,1,70,37,100,100,57,male,,,"
  <table>
  <tr height=300>
    <td width=300 height=300><img src=""static/images/cards/9_of_red_stars.svg"" width=""175px"" height=""250px""></img></td>
    <td width=300 height=300><img src=""static/images/cards/back_of_red_stars.svg"" width=""175px"" height=""250px""></img></td>
  </tr>
  <tr height=200>
    <td width=300><img src=""static/images/keys/z.svg"" width=""35%"" height=""75%""></img></td>
    <td width=300><img src=""static/images/keys/m.svg"" width=""35%"" height=""75%""></img></td>
  </tr>
</table>
  ",,,,,,,,,,,,,,,,,,,,,,,,,,,,
196,0,,html-keyboard-response,196,779327,0.0-7.9-3.9,419wndu8s2m,2022-09-16 18:29:17.233,62cb2599fe7c3e030e6d445b,1,70,37,100,100,57,male,,,"<p style=""font-size:50px"">You win!
+10 points this round!</p>",,,,,,,,,,,,,,,,,,,,,,,,,,,,
197,0,,html-keyboard-response,197,779839,0.0-7.9-4.9,419wndu8s2m,2022-09-16 18:29:17.233,62cb2599fe7c3e030e6d445b,1,70,37,100,100,57,male,,,,,,1.0,choice,9.0,C,D,black,red,stars,stars,D,C,C,red,stars,1238.1000000238,1.0,0.0,NA,left,1219.3000000119,9.0,1.0,1.0,,,
198,0,,html-keyboard-response,198,781243,0.0-7.10-0.10,419wndu8s2m,2022-09-16 18:29:17.233,62cb2599fe7c3e030e6d445b,1,70,37,100,100,57,male,1403.5,,"
  <table>
  <tr height=300>
    <td width=300 height=300><img src=""static/images/cards/stack_of_black_bolts.svg"" width=""175px"" height=""250px""></img></td>
    <td width=300 height=300><img src=""static/images/cards/stack_of_red_stars.svg"" width=""175px"" height=""250px""></img></td>
  </tr>
  <tr height=200>
    <td width=300><img src=""static/images/keys/w.svg"" width=""35%"" height=""75%""></img></td>
    <td width=300><img src=""static/images/keys/o.svg"" width=""35%"" height=""75%""></img></td>
  </tr>
</table>
  ",79.0,1.0,,,,,,,,,,,,,,,,,,,,,,,,,,
199,0,,html-keyboard-response,199,783771,0.0-7.10-1.10,419wndu8s2m,2022-09-16 18:29:17.233,62cb2599fe7c3e030e6d445b,1,70,37,100,100,57,male,2017.8000000119,,"
  <table>
  <tr height=300>
    <td width=300 height=300><img src=""static/images/cards/back_of_red_stars.svg"" width=""175px"" height=""250px""></img></td>
    <td width=300 height=300><img src=""static/images/cards/back_of_red_stars.svg"" width=""175px"" height=""250px""></img></td>
  </tr>
  <tr height=200>
    <td width=300><img src=""static/images/keys/z.svg"" width=""35%"" height=""75%""></img></td>
    <td width=300><img src=""static/images/keys/m.svg"" width=""35%"" height=""75%""></img></td>
  </tr>
</table>
  ",90.0,1.0,,,,,,,,,,,,,,,,,,,,,,,,,,
200,0,,html-keyboard-response,200,785281,0.0-7.10-2.10,419wndu8s2m,2022-09-16 18:29:17.233,62cb2599fe7c3e030e6d445b,1,70,37,100,100,57,male,,,"
  <table>
  <tr height=300>
    <td width=300 height=300><img src=""static/images/cards/2_of_red_stars.svg"" width=""175px"" height=""250px""></img></td>
    <td width=300 height=300><img src=""static/images/cards/back_of_red_stars.svg"" width=""175px"" height=""250px""></img></td>
  </tr>
  <tr height=200>
    <td width=300><img src=""static/images/keys/z.svg"" width=""35%"" height=""75%""></img></td>
    <td width=300><img src=""static/images/keys/m.svg"" width=""35%"" height=""75%""></img></td>
  </tr>
</table>
  ",,,,,,,,,,,,,,,,,,,,,,,,,,,,
201,0,,html-keyboard-response,201,786792,0.0-7.10-3.10,419wndu8s2m,2022-09-16 18:29:17.233,62cb2599fe7c3e030e6d445b,1,70,37,100,100,57,male,,,"<p style=""font-size:50px"">You win!
+10 points this round!</p>",,,,,,,,,,,,,,,,,,,,,,,,,,,,
202,0,,html-keyboard-response,202,787312,0.0-7.10-4.10,419wndu8s2m,2022-09-16 18:29:17.233,62cb2599fe7c3e030e6d445b,1,70,37,100,100,57,male,,,,,,1.0,choice,10.0,C,Xnc,black,red,bolts,stars,Xnc,C,C,red,stars,1403.5,1.0,0.0,NA,left,2017.8000000119,2.0,0.0,1.0,,,
203,0,,html-keyboard-response,203,789035,0.0-7.11-0.11,419wndu8s2m,2022-09-16 18:29:17.233,62cb2599fe7c3e030e6d445b,1,70,37,100,100,57,male,1722.3999999762,,"
  <table>
  <tr height=300>
    <td width=300 height=300><img src=""static/images/cards/stack_of_red_moons.svg"" width=""175px"" height=""250px""></img></td>
    <td width=300 height=300><img src=""static/images/cards/stack_of_black_moons.svg"" width=""175px"" height=""250px""></img></td>
  </tr>
  <tr height=200>
    <td width=300><img src=""static/images/keys/w.svg"" width=""35%"" height=""75%""></img></td>
    <td width=300><img src=""static/images/keys/o.svg"" width=""35%"" height=""75%""></img></td>
  </tr>
</table>
  ",87.0,1.0,,,,,,,,,,,,,,,,,,,,,,,,,,
204,0,,html-keyboard-response,204,791387,0.0-7.11-1.11,419wndu8s2m,2022-09-16 18:29:17.233,62cb2599fe7c3e030e6d445b,1,70,37,100,100,57,male,1835.8000000119,,"
  <table>
  <tr height=300>
    <td width=300 height=300><img src=""static/images/cards/back_of_red_moons.svg"" width=""175px"" height=""250px""></img></td>
    <td width=300 height=300><img src=""static/images/cards/back_of_red_moons.svg"" width=""175px"" height=""250px""></img></td>
  </tr>
  <tr height=200>
    <td width=300><img src=""static/images/keys/z.svg"" width=""35%"" height=""75%""></img></td>
    <td width=300><img src=""static/images/keys/m.svg"" width=""35%"" height=""75%""></img></td>
  </tr>
</table>
  ",77.0,1.0,,,,,,,,,,,,,,,,,,,,,,,,,,
205,0,,html-keyboard-response,205,792893,0.0-7.11-2.11,419wndu8s2m,2022-09-16 18:29:17.233,62cb2599fe7c3e030e6d445b,1,70,37,100,100,57,male,,,"
  <table>
  <tr height=300>
    <td width=300 height=300><img src=""static/images/cards/back_of_red_moons.svg"" width=""175px"" height=""250px""></img></td>
    <td width=300 height=300><img src=""static/images/cards/9_of_red_moons.svg"" width=""175px"" height=""250px""></img></td>
  </tr>
  <tr height=200>
    <td width=300><img src=""static/images/keys/z.svg"" width=""35%"" height=""75%""></img></td>
    <td width=300><img src=""static/images/keys/m.svg"" width=""35%"" height=""75%""></img></td>
  </tr>
</table>
  ",,,,,,,,,,,,,,,,,,,,,,,,,,,,
206,0,,html-keyboard-response,206,794401,0.0-7.11-3.11,419wndu8s2m,2022-09-16 18:29:17.233,62cb2599fe7c3e030e6d445b,1,70,37,100,100,57,male,,,"<p style=""font-size:50px"">You win!
+10 points this round!</p>",,,,,,,,,,,,,,,,,,,,,,,,,,,,
207,0,,html-keyboard-response,207,794921,0.0-7.11-4.11,419wndu8s2m,2022-09-16 18:29:17.233,62cb2599fe7c3e030e6d445b,1,70,37,100,100,57,male,,,,,,1.0,choice,11.0,A,B,red,black,moons,moons,A,B,A,red,moons,1722.3999999762,1.0,1.0,NA,right,1835.8000000119,9.0,1.0,1.0,,,
208,0,,html-keyboard-response,208,796396,0.0-7.12-0.12,419wndu8s2m,2022-09-16 18:29:17.233,62cb2599fe7c3e030e6d445b,1,70,37,100,100,57,male,1473.8999999762,,"
  <table>
  <tr height=300>
    <td width=300 height=300><img src=""static/images/cards/stack_of_black_moons.svg"" width=""175px"" height=""250px""></img></td>
    <td width=300 height=300><img src=""static/images/cards/stack_of_red_moons.svg"" width=""175px"" height=""250px""></img></td>
  </tr>
  <tr height=200>
    <td width=300><img src=""static/images/keys/w.svg"" width=""35%"" height=""75%""></img></td>
    <td width=300><img src=""static/images/keys/o.svg"" width=""35%"" height=""75%""></img></td>
  </tr>
</table>
  ",79.0,1.0,,,,,,,,,,,,,,,,,,,,,,,,,,
209,0,,html-keyboard-response,209,798811,0.0-7.12-1.12,419wndu8s2m,2022-09-16 18:29:17.233,62cb2599fe7c3e030e6d445b,1,70,37,100,100,57,male,1911.0,,"
  <table>
  <tr height=300>
    <td width=300 height=300><img src=""static/images/cards/back_of_red_moons.svg"" width=""175px"" height=""250px""></img></td>
    <td width=300 height=300><img src=""static/images/cards/back_of_red_moons.svg"" width=""175px"" height=""250px""></img></td>
  </tr>
  <tr height=200>
    <td width=300><img src=""static/images/keys/z.svg"" width=""35%"" height=""75%""></img></td>
    <td width=300><img src=""static/images/keys/m.svg"" width=""35%"" height=""75%""></img></td>
  </tr>
</table>
  ",90.0,1.0,,,,,,,,,,,,,,,,,,,,,,,,,,
210,0,,html-keyboard-response,210,800316,0.0-7.12-2.12,419wndu8s2m,2022-09-16 18:29:17.233,62cb2599fe7c3e030e6d445b,1,70,37,100,100,57,male,,,"
  <table>
  <tr height=300>
    <td width=300 height=300><img src=""static/images/cards/10_of_red_moons.svg"" width=""175px"" height=""250px""></img></td>
    <td width=300 height=300><img src=""static/images/cards/back_of_red_moons.svg"" width=""175px"" height=""250px""></img></td>
  </tr>
  <tr height=200>
    <td width=300><img src=""static/images/keys/z.svg"" width=""35%"" height=""75%""></img></td>
    <td width=300><img src=""static/images/keys/m.svg"" width=""35%"" height=""75%""></img></td>
  </tr>
</table>
  ",,,,,,,,,,,,,,,,,,,,,,,,,,,,
211,0,,html-keyboard-response,211,801828,0.0-7.12-3.12,419wndu8s2m,2022-09-16 18:29:17.233,62cb2599fe7c3e030e6d445b,1,70,37,100,100,57,male,,,"<p style=""font-size:50px"">You win!
+10 points this round!</p>",,,,,,,,,,,,,,,,,,,,,,,,,,,,
212,0,,html-keyboard-response,212,802344,0.0-7.12-4.12,419wndu8s2m,2022-09-16 18:29:17.233,62cb2599fe7c3e030e6d445b,1,70,37,100,100,57,male,,,,,,1.0,choice,12.0,A,B,black,red,moons,moons,B,A,A,red,moons,1473.8999999762,1.0,1.0,NA,left,1911.0,10.0,1.0,1.0,,,
213,0,,html-keyboard-response,213,803923,0.0-7.13-0.13,419wndu8s2m,2022-09-16 18:29:17.233,62cb2599fe7c3e030e6d445b,1,70,37,100,100,57,male,1578.5,,"
  <table>
  <tr height=300>
    <td width=300 height=300><img src=""static/images/cards/stack_of_black_stars.svg"" width=""175px"" height=""250px""></img></td>
    <td width=300 height=300><img src=""static/images/cards/stack_of_black_bolts.svg"" width=""175px"" height=""250px""></img></td>
  </tr>
  <tr height=200>
    <td width=300><img src=""static/images/keys/w.svg"" width=""35%"" height=""75%""></img></td>
    <td width=300><img src=""static/images/keys/o.svg"" width=""35%"" height=""75%""></img></td>
  </tr>
</table>
  ",79.0,1.0,,,,,,,,,,,,,,,,,,,,,,,,,,
214,0,,html-keyboard-response,214,806051,0.0-7.13-1.13,419wndu8s2m,2022-09-16 18:29:17.233,62cb2599fe7c3e030e6d445b,1,70,37,100,100,57,male,1614.1999999881,,"
  <table>
  <tr height=300>
    <td width=300 height=300><img src=""static/images/cards/back_of_black_bolts.svg"" width=""175px"" height=""250px""></img></td>
    <td width=300 height=300><img src=""static/images/cards/back_of_black_bolts.svg"" width=""175px"" height=""250px""></img></td>
  </tr>
  <tr height=200>
    <td width=300></td>
    <td width=300><img src=""static/images/keys/m.svg"" width=""35%"" height=""75%""></img></td>
  </tr>
</table>
  ",77.0,1.0,,,,,,,,,,,,,,,,,,,,,,,,,,
215,0,,html-keyboard-response,215,807566,0.0-7.13-2.13,419wndu8s2m,2022-09-16 18:29:17.233,62cb2599fe7c3e030e6d445b,1,70,37,100,100,57,male,,,"
  <table>
  <tr height=300>
    <td width=300 height=300><img src=""static/images/cards/back_of_black_bolts.svg"" width=""175px"" height=""250px""></img></td>
    <td width=300 height=300><img src=""static/images/cards/2_of_black_bolts.svg"" width=""175px"" height=""250px""></img></td>
  </tr>
  <tr height=200>
    <td width=300></td>
    <td width=300><img src=""static/images/keys/m.svg"" width=""35%"" height=""75%""></img></td>
  </tr>
</table>
  ",,,,,,,,,,,,,,,,,,,,,,,,,,,,
216,0,,html-keyboard-response,216,809080,0.0-7.13-3.13,419wndu8s2m,2022-09-16 18:29:17.233,62cb2599fe7c3e030e6d445b,1,70,37,100,100,57,male,,,"<p style=""font-size:50px"">You win!
+10 points this round!</p>",,,,,,,,,,,,,,,,,,,,,,,,,,,,
217,0,,html-keyboard-response,217,809600,0.0-7.13-4.13,419wndu8s2m,2022-09-16 18:29:17.233,62cb2599fe7c3e030e6d445b,1,70,37,100,100,57,male,,,,,,1.0,choice,13.0,D,Xnc,black,black,stars,bolts,D,Xnc,Xnc,black,bolts,1578.5,0.0,0.0,0,right,1614.1999999881,2.0,0.0,1.0,,,
218,0,,html-keyboard-response,218,810899,0.0-7.14-0.14,419wndu8s2m,2022-09-16 18:29:17.233,62cb2599fe7c3e030e6d445b,1,70,37,100,100,57,male,1298.3000000119,,"
  <table>
  <tr height=300>
    <td width=300 height=300><img src=""static/images/cards/stack_of_red_moons.svg"" width=""175px"" height=""250px""></img></td>
    <td width=300 height=300><img src=""static/images/cards/stack_of_red_stars.svg"" width=""175px"" height=""250px""></img></td>
  </tr>
  <tr height=200>
    <td width=300><img src=""static/images/keys/w.svg"" width=""35%"" height=""75%""></img></td>
    <td width=300><img src=""static/images/keys/o.svg"" width=""35%"" height=""75%""></img></td>
  </tr>
</table>
  ",79.0,1.0,,,,,,,,,,,,,,,,,,,,,,,,,,
219,0,,html-keyboard-response,219,812787,0.0-7.14-1.14,419wndu8s2m,2022-09-16 18:29:17.233,62cb2599fe7c3e030e6d445b,1,70,37,100,100,57,male,1372.8999999762,,"
  <table>
  <tr height=300>
    <td width=300 height=300><img src=""static/images/cards/back_of_red_stars.svg"" width=""175px"" height=""250px""></img></td>
    <td width=300 height=300><img src=""static/images/cards/back_of_red_stars.svg"" width=""175px"" height=""250px""></img></td>
  </tr>
  <tr height=200>
    <td width=300><img src=""static/images/keys/z.svg"" width=""35%"" height=""75%""></img></td>
    <td width=300><img src=""static/images/keys/m.svg"" width=""35%"" height=""75%""></img></td>
  </tr>
</table>
  ",90.0,1.0,,,,,,,,,,,,,,,,,,,,,,,,,,
220,0,,html-keyboard-response,220,814293,0.0-7.14-2.14,419wndu8s2m,2022-09-16 18:29:17.233,62cb2599fe7c3e030e6d445b,1,70,37,100,100,57,male,,,"
  <table>
  <tr height=300>
    <td width=300 height=300><img src=""static/images/cards/1_of_red_stars.svg"" width=""175px"" height=""250px""></img></td>
    <td width=300 height=300><img src=""static/images/cards/back_of_red_stars.svg"" width=""175px"" height=""250px""></img></td>
  </tr>
  <tr height=200>
    <td width=300><img src=""static/images/keys/z.svg"" width=""35%"" height=""75%""></img></td>
    <td width=300><img src=""static/images/keys/m.svg"" width=""35%"" height=""75%""></img></td>
  </tr>
</table>
  ",,,,,,,,,,,,,,,,,,,,,,,,,,,,
221,0,,html-keyboard-response,221,815800,0.0-7.14-3.14,419wndu8s2m,2022-09-16 18:29:17.233,62cb2599fe7c3e030e6d445b,1,70,37,100,100,57,male,,,"<p style=""font-size:50px"">You Lose!
No points this round.</p>",,,,,,,,,,,,,,,,,,,,,,,,,,,,
222,0,,html-keyboard-response,222,816315,0.0-7.14-4.14,419wndu8s2m,2022-09-16 18:29:17.233,62cb2599fe7c3e030e6d445b,1,70,37,100,100,57,male,,,,,,1.0,choice,14.0,A,C,red,red,moons,stars,A,C,C,red,stars,1298.3000000119,1.0,0.0,NA,left,1372.8999999762,1.0,0.0,0.0,,,
223,0,,html-keyboard-response,223,817595,0.0-7.15-0.15,419wndu8s2m,2022-09-16 18:29:17.233,62cb2599fe7c3e030e6d445b,1,70,37,100,100,57,male,1279.1999999881,,"
  <table>
  <tr height=300>
    <td width=300 height=300><img src=""static/images/cards/stack_of_black_stars.svg"" width=""175px"" height=""250px""></img></td>
    <td width=300 height=300><img src=""static/images/cards/stack_of_red_stars.svg"" width=""175px"" height=""250px""></img></td>
  </tr>
  <tr height=200>
    <td width=300><img src=""static/images/keys/w.svg"" width=""35%"" height=""75%""></img></td>
    <td width=300><img src=""static/images/keys/o.svg"" width=""35%"" height=""75%""></img></td>
  </tr>
</table>
  ",79.0,1.0,,,,,,,,,,,,,,,,,,,,,,,,,,
224,0,,html-keyboard-response,224,819851,0.0-7.15-1.15,419wndu8s2m,2022-09-16 18:29:17.233,62cb2599fe7c3e030e6d445b,1,70,37,100,100,57,male,1752.5,,"
  <table>
  <tr height=300>
    <td width=300 height=300><img src=""static/images/cards/back_of_red_stars.svg"" width=""175px"" height=""250px""></img></td>
    <td width=300 height=300><img src=""static/images/cards/back_of_red_stars.svg"" width=""175px"" height=""250px""></img></td>
  </tr>
  <tr height=200>
    <td width=300><img src=""static/images/keys/z.svg"" width=""35%"" height=""75%""></img></td>
    <td width=300><img src=""static/images/keys/m.svg"" width=""35%"" height=""75%""></img></td>
  </tr>
</table>
  ",77.0,1.0,,,,,,,,,,,,,,,,,,,,,,,,,,
225,0,,html-keyboard-response,225,821364,0.0-7.15-2.15,419wndu8s2m,2022-09-16 18:29:17.233,62cb2599fe7c3e030e6d445b,1,70,37,100,100,57,male,,,"
  <table>
  <tr height=300>
    <td width=300 height=300><img src=""static/images/cards/back_of_red_stars.svg"" width=""175px"" height=""250px""></img></td>
    <td width=300 height=300><img src=""static/images/cards/1_of_red_stars.svg"" width=""175px"" height=""250px""></img></td>
  </tr>
  <tr height=200>
    <td width=300><img src=""static/images/keys/z.svg"" width=""35%"" height=""75%""></img></td>
    <td width=300><img src=""static/images/keys/m.svg"" width=""35%"" height=""75%""></img></td>
  </tr>
</table>
  ",,,,,,,,,,,,,,,,,,,,,,,,,,,,
226,0,,html-keyboard-response,226,822870,0.0-7.15-3.15,419wndu8s2m,2022-09-16 18:29:17.233,62cb2599fe7c3e030e6d445b,1,70,37,100,100,57,male,,,"<p style=""font-size:50px"">You win!
+10 points this round!</p>",,,,,,,,,,,,,,,,,,,,,,,,,,,,
227,0,,html-keyboard-response,227,823390,0.0-7.15-4.15,419wndu8s2m,2022-09-16 18:29:17.233,62cb2599fe7c3e030e6d445b,1,70,37,100,100,57,male,,,,,,1.0,choice,15.0,C,D,black,red,stars,stars,D,C,C,red,stars,1279.1999999881,1.0,0.0,NA,right,1752.5,1.0,0.0,1.0,,,
228,0,,html-keyboard-response,228,825043,0.0-7.16-0.16,419wndu8s2m,2022-09-16 18:29:17.233,62cb2599fe7c3e030e6d445b,1,70,37,100,100,57,male,1652.1999999881,,"
  <table>
  <tr height=300>
    <td width=300 height=300><img src=""static/images/cards/stack_of_red_stars.svg"" width=""175px"" height=""250px""></img></td>
    <td width=300 height=300><img src=""static/images/cards/stack_of_black_moons.svg"" width=""175px"" height=""250px""></img></td>
  </tr>
  <tr height=200>
    <td width=300><img src=""static/images/keys/w.svg"" width=""35%"" height=""75%""></img></td>
    <td width=300><img src=""static/images/keys/o.svg"" width=""35%"" height=""75%""></img></td>
  </tr>
</table>
  ",87.0,1.0,,,,,,,,,,,,,,,,,,,,,,,,,,
229,0,,html-keyboard-response,229,827875,0.0-7.16-1.16,419wndu8s2m,2022-09-16 18:29:17.233,62cb2599fe7c3e030e6d445b,1,70,37,100,100,57,male,2317.6000000238,,"
  <table>
  <tr height=300>
    <td width=300 height=300><img src=""static/images/cards/back_of_red_stars.svg"" width=""175px"" height=""250px""></img></td>
    <td width=300 height=300><img src=""static/images/cards/back_of_red_stars.svg"" width=""175px"" height=""250px""></img></td>
  </tr>
  <tr height=200>
    <td width=300><img src=""static/images/keys/z.svg"" width=""35%"" height=""75%""></img></td>
    <td width=300><img src=""static/images/keys/m.svg"" width=""35%"" height=""75%""></img></td>
  </tr>
</table>
  ",77.0,1.0,,,,,,,,,,,,,,,,,,,,,,,,,,
230,0,,html-keyboard-response,230,829392,0.0-7.16-2.16,419wndu8s2m,2022-09-16 18:29:17.233,62cb2599fe7c3e030e6d445b,1,70,37,100,100,57,male,,,"
  <table>
  <tr height=300>
    <td width=300 height=300><img src=""static/images/cards/back_of_red_stars.svg"" width=""175px"" height=""250px""></img></td>
    <td width=300 height=300><img src=""static/images/cards/9_of_red_stars.svg"" width=""175px"" height=""250px""></img></td>
  </tr>
  <tr height=200>
    <td width=300><img src=""static/images/keys/z.svg"" width=""35%"" height=""75%""></img></td>
    <td width=300><img src=""static/images/keys/m.svg"" width=""35%"" height=""75%""></img></td>
  </tr>
</table>
  ",,,,,,,,,,,,,,,,,,,,,,,,,,,,
231,0,,html-keyboard-response,231,830909,0.0-7.16-3.16,419wndu8s2m,2022-09-16 18:29:17.233,62cb2599fe7c3e030e6d445b,1,70,37,100,100,57,male,,,"<p style=""font-size:50px"">You Lose!
No points this round.</p>",,,,,,,,,,,,,,,,,,,,,,,,,,,,
