,index,success,trial_type,trial_index,time_elapsed,internal_node_id,subject,date,prol_id,ctbl,sense_of_control_A,sense_of_control_B,sense_of_control_C,sense_of_control_D,age,gender,rt,url,stimulus,key_press,is_data_trial,phase,trial,deck1,deck2,col1,col2,sym1,sym2,deck_l,deck_r,chosen_deck,chosen_col,chosen_sym,deck_rt,choose_choice,mutual_info,hidden_key,chosen_card,card_rt,player_num,win_card,outcome,mock_rating,npress,response,responses
0,0,1.0,fullscreen,0,3499,0.0-0.0,tg8e1i0prar,2022-09-19 16:21:47.359,62e416f154e4c9e7f39d5cf7,1,66,44,55,53,28,Male,,,,,,,,,,,,,,,,,,,,,,,,,,,,,,,
1,0,,external-html,1,23832,0.0-1.0,tg8e1i0prar,2022-09-19 16:21:47.359,62e416f154e4c9e7f39d5cf7,1,66,44,55,53,28,Male,20229.0,static/js/sub/consent.html,,,,,,,,,,,,,,,,,,,,,,,,,,,,,
2,0,,call-function,2,23833,0.0-2.0,tg8e1i0prar,2022-09-19 16:21:47.359,62e416f154e4c9e7f39d5cf7,1,66,44,55,53,28,Male,,,,,,,,,,,,,,,,,,,,,,,,,,,,,,,
3,0,,image-keyboard-response,3,30237,0.0-3.0-0.0,tg8e1i0prar,2022-09-19 16:21:47.359,62e416f154e4c9e7f39d5cf7,1,66,44,55,53,28,Male,6403.0,,static/images/instructions_CB_1/Slide1.png,39.0,,,,,,,,,,,,,,,,,,,,,,,,,,,
4,0,,image-keyboard-response,4,34893,0.0-3.1-0.1,tg8e1i0prar,2022-09-19 16:21:47.359,62e416f154e4c9e7f39d5cf7,1,66,44,55,53,28,Male,4655.0,,static/images/instructions_CB_1/Slide2.png,39.0,,,,,,,,,,,,,,,,,,,,,,,,,,,
5,0,,image-keyboard-response,5,38311,0.0-3.2-0.2,tg8e1i0prar,2022-09-19 16:21:47.359,62e416f154e4c9e7f39d5cf7,1,66,44,55,53,28,Male,3418.0,,static/images/instructions_CB_1/Slide3.png,39.0,,,,,,,,,,,,,,,,,,,,,,,,,,,
6,0,,image-keyboard-response,6,42017,0.0-3.3-0.3,tg8e1i0prar,2022-09-19 16:21:47.359,62e416f154e4c9e7f39d5cf7,1,66,44,55,53,28,Male,3705.0,,static/images/instructions_CB_1/Slide4.png,39.0,,,,,,,,,,,,,,,,,,,,,,,,,,,
7,0,,image-keyboard-response,7,46239,0.0-3.4-0.4,tg8e1i0prar,2022-09-19 16:21:47.359,62e416f154e4c9e7f39d5cf7,1,66,44,55,53,28,Male,4221.0,,static/images/instructions_CB_1/Slide5.png,39.0,,,,,,,,,,,,,,,,,,,,,,,,,,,
8,0,,image-keyboard-response,8,48553,0.0-3.5-0.5,tg8e1i0prar,2022-09-19 16:21:47.359,62e416f154e4c9e7f39d5cf7,1,66,44,55,53,28,Male,2313.0,,static/images/instructions_CB_1/Slide6.png,39.0,,,,,,,,,,,,,,,,,,,,,,,,,,,
9,0,,image-keyboard-response,9,51046,0.0-3.6-0.6,tg8e1i0prar,2022-09-19 16:21:47.359,62e416f154e4c9e7f39d5cf7,1,66,44,55,53,28,Male,2492.0,,static/images/instructions_CB_1/Slide7.png,39.0,,,,,,,,,,,,,,,,,,,,,,,,,,,
10,0,,image-keyboard-response,10,64435,0.0-3.7-0.7,tg8e1i0prar,2022-09-19 16:21:47.359,62e416f154e4c9e7f39d5cf7,1,66,44,55,53,28,Male,13389.0,,static/images/instructions_CB_1/Slide8.png,37.0,,,,,,,,,,,,,,,,,,,,,,,,,,,
11,0,,image-keyboard-response,11,64706,0.0-3.8-0.8,tg8e1i0prar,2022-09-19 16:21:47.359,62e416f154e4c9e7f39d5cf7,1,66,44,55,53,28,Male,269.0,,static/images/instructions_CB_1/Slide7.png,37.0,,,,,,,,,,,,,,,,,,,,,,,,,,,
12,0,,image-keyboard-response,12,65114,0.0-3.9-0.9,tg8e1i0prar,2022-09-19 16:21:47.359,62e416f154e4c9e7f39d5cf7,1,66,44,55,53,28,Male,408.0,,static/images/instructions_CB_1/Slide6.png,37.0,,,,,,,,,,,,,,,,,,,,,,,,,,,
13,0,,image-keyboard-response,13,65535,0.0-3.10-0.10,tg8e1i0prar,2022-09-19 16:21:47.359,62e416f154e4c9e7f39d5cf7,1,66,44,55,53,28,Male,421.0,,static/images/instructions_CB_1/Slide5.png,39.0,,,,,,,,,,,,,,,,,,,,,,,,,,,
14,0,,image-keyboard-response,14,65716,0.0-3.11-0.11,tg8e1i0prar,2022-09-19 16:21:47.359,62e416f154e4c9e7f39d5cf7,1,66,44,55,53,28,Male,180.0,,static/images/instructions_CB_1/Slide6.png,39.0,,,,,,,,,,,,,,,,,,,,,,,,,,,
15,0,,image-keyboard-response,15,66041,0.0-3.12-0.12,tg8e1i0prar,2022-09-19 16:21:47.359,62e416f154e4c9e7f39d5cf7,1,66,44,55,53,28,Male,326.0,,static/images/instructions_CB_1/Slide7.png,39.0,,,,,,,,,,,,,,,,,,,,,,,,,,,
16,0,,image-keyboard-response,16,67988,0.0-3.13-0.13,tg8e1i0prar,2022-09-19 16:21:47.359,62e416f154e4c9e7f39d5cf7,1,66,44,55,53,28,Male,1946.0,,static/images/instructions_CB_1/Slide8.png,39.0,,,,,,,,,,,,,,,,,,,,,,,,,,,
17,0,,image-keyboard-response,17,72578,0.0-3.14-0.14,tg8e1i0prar,2022-09-19 16:21:47.359,62e416f154e4c9e7f39d5cf7,1,66,44,55,53,28,Male,4590.0,,static/images/instructions_CB_1/Slide9.png,39.0,,,,,,,,,,,,,,,,,,,,,,,,,,,
18,0,,image-keyboard-response,18,79859,0.0-3.15-0.15,tg8e1i0prar,2022-09-19 16:21:47.359,62e416f154e4c9e7f39d5cf7,1,66,44,55,53,28,Male,7280.0,,static/images/instructions_CB_1/Slide10.png,39.0,,,,,,,,,,,,,,,,,,,,,,,,,,,
19,0,,image-keyboard-response,19,85961,0.0-3.16-0.16,tg8e1i0prar,2022-09-19 16:21:47.359,62e416f154e4c9e7f39d5cf7,1,66,44,55,53,28,Male,6101.0,,static/images/instructions_CB_1/Slide11.png,39.0,,,,,,,,,,,,,,,,,,,,,,,,,,,
20,0,,image-keyboard-response,20,99269,0.0-3.17-0.17,tg8e1i0prar,2022-09-19 16:21:47.359,62e416f154e4c9e7f39d5cf7,1,66,44,55,53,28,Male,13308.0,,static/images/instructions_CB_1/Slide12.png,39.0,,,,,,,,,,,,,,,,,,,,,,,,,,,
21,0,,image-keyboard-response,21,107010,0.0-3.18-0.18,tg8e1i0prar,2022-09-19 16:21:47.359,62e416f154e4c9e7f39d5cf7,1,66,44,55,53,28,Male,7741.0,,static/images/instructions_CB_1/Slide13.png,39.0,,,,,,,,,,,,,,,,,,,,,,,,,,,
22,0,,image-keyboard-response,22,114267,0.0-3.19-0.19,tg8e1i0prar,2022-09-19 16:21:47.359,62e416f154e4c9e7f39d5cf7,1,66,44,55,53,28,Male,7256.0,,static/images/instructions_CB_1/Slide14.png,39.0,,,,,,,,,,,,,,,,,,,,,,,,,,,
23,0,,image-keyboard-response,23,116896,0.0-3.20-0.20,tg8e1i0prar,2022-09-19 16:21:47.359,62e416f154e4c9e7f39d5cf7,1,66,44,55,53,28,Male,2629.0,,static/images/instructions_CB_1/Slide15.png,39.0,,,,,,,,,,,,,,,,,,,,,,,,,,,
24,0,,image-keyboard-response,24,119766,0.0-3.21-0.21,tg8e1i0prar,2022-09-19 16:21:47.359,62e416f154e4c9e7f39d5cf7,1,66,44,55,53,28,Male,2869.0,,static/images/instructions_CB_1/Slide16.png,39.0,,,,,,,,,,,,,,,,,,,,,,,,,,,
25,0,,image-keyboard-response,25,122460,0.0-3.22-0.22,tg8e1i0prar,2022-09-19 16:21:47.359,62e416f154e4c9e7f39d5cf7,1,66,44,55,53,28,Male,2694.0,,static/images/instructions_CB_1/Slide17.png,39.0,,,,,,,,,,,,,,,,,,,,,,,,,,,
26,0,,image-keyboard-response,26,134803,0.0-3.23-0.23,tg8e1i0prar,2022-09-19 16:21:47.359,62e416f154e4c9e7f39d5cf7,1,66,44,55,53,28,Male,12342.0,,static/images/instructions_CB_1/Slide18.png,39.0,,,,,,,,,,,,,,,,,,,,,,,,,,,
27,0,,image-keyboard-response,27,140594,0.0-3.24-0.24,tg8e1i0prar,2022-09-19 16:21:47.359,62e416f154e4c9e7f39d5cf7,1,66,44,55,53,28,Male,5790.0,,static/images/instructions_CB_1/Slide19.png,39.0,,,,,,,,,,,,,,,,,,,,,,,,,,,
28,0,,html-keyboard-response,28,142110,0.0-4.0-0.0,tg8e1i0prar,2022-09-19 16:21:47.359,62e416f154e4c9e7f39d5cf7,1,66,44,55,53,28,Male,,,"<img src=""static/images/cards/stack_of_red_moons.svg"" width=""175px"" height=""250px""></img>",,,,,,,,,,,,,,,,,,,,,,,,,,,,
29,0,,html-keyboard-response,29,145636,0.0-4.0-1.0,tg8e1i0prar,2022-09-19 16:21:47.359,62e416f154e4c9e7f39d5cf7,1,66,44,55,53,28,Male,,,"
  <table>
  <tr height=300>
    <td width=300 height=300><img src=""static/images/cards/back_of_red_moons.svg"" width=""175px"" height=""250px""></img></td>
    <td width=300 height=300><img src=""static/images/cards/back_of_red_moons.svg"" width=""175px"" height=""250px""></img></td>
  </tr>
  <tr height=200>
    <td width=300><img src=""static/images/keys/z.svg"" width=""35%"" height=""75%""></img></td>
    <td width=300><img src=""static/images/keys/m.svg"" width=""35%"" height=""75%""></img></td>
  </tr>
</table>
  ",,,,,,,,,,,,,,,,,,,,,,,,,,,,
30,0,,html-keyboard-response,30,145636,0.0-4.0-2.0,tg8e1i0prar,2022-09-19 16:21:47.359,62e416f154e4c9e7f39d5cf7,1,66,44,55,53,28,Male,,,,,,,,,,,,,,,,,,,,,,,,,,,,,,,
31,0,,html-keyboard-response,31,147154,0.0-4.0-3.0,tg8e1i0prar,2022-09-19 16:21:47.359,62e416f154e4c9e7f39d5cf7,1,66,44,55,53,28,Male,,,"<p style=""font-size:50px"">Too slow!</p>",,,,,,,,,,,,,,,,,,,,,,,,,,,,
32,0,,html-keyboard-response,32,147673,0.0-4.0-4.0,tg8e1i0prar,2022-09-19 16:21:47.359,62e416f154e4c9e7f39d5cf7,1,66,44,55,53,28,Male,,,,,1.0,learning,0.0,A,,red,,moons,,,,A,red,moons,,1.0,1.0,NA,,,,,,,,,
33,0,,html-keyboard-response,33,149184,0.0-4.1-0.1,tg8e1i0prar,2022-09-19 16:21:47.359,62e416f154e4c9e7f39d5cf7,1,66,44,55,53,28,Male,,,"<img src=""static/images/cards/stack_of_black_moons.svg"" width=""175px"" height=""250px""></img>",,,,,,,,,,,,,,,,,,,,,,,,,,,,
34,0,,html-keyboard-response,34,150755,0.0-4.1-1.1,tg8e1i0prar,2022-09-19 16:21:47.359,62e416f154e4c9e7f39d5cf7,1,66,44,55,53,28,Male,1069.0,,"
  <table>
  <tr height=300>
    <td width=300 height=300><img src=""static/images/cards/back_of_black_moons.svg"" width=""175px"" height=""250px""></img></td>
    <td width=300 height=300><img src=""static/images/cards/back_of_black_moons.svg"" width=""175px"" height=""250px""></img></td>
  </tr>
  <tr height=200>
    <td width=300></td>
    <td width=300><img src=""static/images/keys/m.svg"" width=""35%"" height=""75%""></img></td>
  </tr>
</table>
  ",77.0,,,,,,,,,,,,,,,,,,,,,,,,,1.0,,
35,0,,html-keyboard-response,35,152270,0.0-4.1-2.1,tg8e1i0prar,2022-09-19 16:21:47.359,62e416f154e4c9e7f39d5cf7,1,66,44,55,53,28,Male,,,"
  <table>
  <tr height=300>
    <td width=300 height=300><img src=""static/images/cards/back_of_black_moons.svg"" width=""175px"" height=""250px""></img></td>
    <td width=300 height=300><img src=""static/images/cards/1_of_black_moons.svg"" width=""175px"" height=""250px""></img></td>
  </tr>
  <tr height=200>
    <td width=300></td>
    <td width=300><img src=""static/images/keys/m.svg"" width=""35%"" height=""75%""></img></td>
  </tr>
</table>
  ",,,,,,,,,,,,,,,,,,,,,,,,,,,,
36,0,,html-keyboard-response,36,153781,0.0-4.1-3.1,tg8e1i0prar,2022-09-19 16:21:47.359,62e416f154e4c9e7f39d5cf7,1,66,44,55,53,28,Male,,,"<p style=""font-size:50px"">You Lose!
No points this round.</p>",,,,,,,,,,,,,,,,,,,,,,,,,,,,
37,0,,html-keyboard-response,37,154303,0.0-4.1-4.1,tg8e1i0prar,2022-09-19 16:21:47.359,62e416f154e4c9e7f39d5cf7,1,66,44,55,53,28,Male,,,,,1.0,learning,1.0,B,,black,,moons,,,,B,black,moons,,0.0,1.0,0,right,1069.0,1.0,0.0,0.0,,,,
38,0,,html-keyboard-response,38,155803,0.0-4.2-0.2,tg8e1i0prar,2022-09-19 16:21:47.359,62e416f154e4c9e7f39d5cf7,1,66,44,55,53,28,Male,,,"<img src=""static/images/cards/stack_of_red_stars.svg"" width=""175px"" height=""250px""></img>",,,,,,,,,,,,,,,,,,,,,,,,,,,,
39,0,,html-keyboard-response,39,157829,0.0-4.2-1.2,tg8e1i0prar,2022-09-19 16:21:47.359,62e416f154e4c9e7f39d5cf7,1,66,44,55,53,28,Male,1512.0,,"
  <table>
  <tr height=300>
    <td width=300 height=300><img src=""static/images/cards/back_of_red_stars.svg"" width=""175px"" height=""250px""></img></td>
    <td width=300 height=300><img src=""static/images/cards/back_of_red_stars.svg"" width=""175px"" height=""250px""></img></td>
  </tr>
  <tr height=200>
    <td width=300><img src=""static/images/keys/z.svg"" width=""35%"" height=""75%""></img></td>
    <td width=300><img src=""static/images/keys/m.svg"" width=""35%"" height=""75%""></img></td>
  </tr>
</table>
  ",90.0,,,,,,,,,,,,,,,,,,,,,,,,,1.0,,
40,0,,html-keyboard-response,40,159335,0.0-4.2-2.2,tg8e1i0prar,2022-09-19 16:21:47.359,62e416f154e4c9e7f39d5cf7,1,66,44,55,53,28,Male,,,"
  <table>
  <tr height=300>
    <td width=300 height=300><img src=""static/images/cards/9_of_red_stars.svg"" width=""175px"" height=""250px""></img></td>
    <td width=300 height=300><img src=""static/images/cards/back_of_red_stars.svg"" width=""175px"" height=""250px""></img></td>
  </tr>
  <tr height=200>
    <td width=300><img src=""static/images/keys/z.svg"" width=""35%"" height=""75%""></img></td>
    <td width=300><img src=""static/images/keys/m.svg"" width=""35%"" height=""75%""></img></td>
  </tr>
</table>
  ",,,,,,,,,,,,,,,,,,,,,,,,,,,,
41,0,,html-keyboard-response,41,160856,0.0-4.2-3.2,tg8e1i0prar,2022-09-19 16:21:47.359,62e416f154e4c9e7f39d5cf7,1,66,44,55,53,28,Male,,,"<p style=""font-size:50px"">You Lose!
No points this round.</p>",,,,,,,,,,,,,,,,,,,,,,,,,,,,
42,0,,html-keyboard-response,42,161382,0.0-4.2-4.2,tg8e1i0prar,2022-09-19 16:21:47.359,62e416f154e4c9e7f39d5cf7,1,66,44,55,53,28,Male,,,,,1.0,learning,2.0,C,,red,,stars,,,,C,red,stars,,1.0,0.0,NA,left,1512.0,9.0,1.0,0.0,,,,
43,0,,html-keyboard-response,43,162892,0.0-4.3-0.3,tg8e1i0prar,2022-09-19 16:21:47.359,62e416f154e4c9e7f39d5cf7,1,66,44,55,53,28,Male,,,"<img src=""static/images/cards/stack_of_black_stars.svg"" width=""175px"" height=""250px""></img>",,,,,,,,,,,,,,,,,,,,,,,,,,,,
44,0,,html-keyboard-response,44,164037,0.0-4.3-1.3,tg8e1i0prar,2022-09-19 16:21:47.359,62e416f154e4c9e7f39d5cf7,1,66,44,55,53,28,Male,630.0,,"
  <table>
  <tr height=300>
    <td width=300 height=300><img src=""static/images/cards/back_of_black_stars.svg"" width=""175px"" height=""250px""></img></td>
    <td width=300 height=300><img src=""static/images/cards/back_of_black_stars.svg"" width=""175px"" height=""250px""></img></td>
  </tr>
  <tr height=200>
    <td width=300></td>
    <td width=300><img src=""static/images/keys/m.svg"" width=""35%"" height=""75%""></img></td>
  </tr>
</table>
  ",77.0,,,,,,,,,,,,,,,,,,,,,,,,,1.0,,
45,0,,html-keyboard-response,45,165551,0.0-4.3-2.3,tg8e1i0prar,2022-09-19 16:21:47.359,62e416f154e4c9e7f39d5cf7,1,66,44,55,53,28,Male,,,"
  <table>
  <tr height=300>
    <td width=300 height=300><img src=""static/images/cards/back_of_black_stars.svg"" width=""175px"" height=""250px""></img></td>
    <td width=300 height=300><img src=""static/images/cards/9_of_black_stars.svg"" width=""175px"" height=""250px""></img></td>
  </tr>
  <tr height=200>
    <td width=300></td>
    <td width=300><img src=""static/images/keys/m.svg"" width=""35%"" height=""75%""></img></td>
  </tr>
</table>
  ",,,,,,,,,,,,,,,,,,,,,,,,,,,,
46,0,,html-keyboard-response,46,167057,0.0-4.3-3.3,tg8e1i0prar,2022-09-19 16:21:47.359,62e416f154e4c9e7f39d5cf7,1,66,44,55,53,28,Male,,,"<p style=""font-size:50px"">You win!
+10 points this round!</p>",,,,,,,,,,,,,,,,,,,,,,,,,,,,
47,0,,html-keyboard-response,47,167574,0.0-4.3-4.3,tg8e1i0prar,2022-09-19 16:21:47.359,62e416f154e4c9e7f39d5cf7,1,66,44,55,53,28,Male,,,,,1.0,learning,3.0,D,,black,,stars,,,,D,black,stars,,0.0,0.0,0,right,630.0,9.0,1.0,1.0,,,,
48,0,,html-keyboard-response,48,169081,0.0-4.4-0.4,tg8e1i0prar,2022-09-19 16:21:47.359,62e416f154e4c9e7f39d5cf7,1,66,44,55,53,28,Male,,,"<img src=""static/images/cards/stack_of_red_bolts.svg"" width=""175px"" height=""250px""></img>",,,,,,,,,,,,,,,,,,,,,,,,,,,,
49,0,,html-keyboard-response,49,170111,0.0-4.4-1.4,tg8e1i0prar,2022-09-19 16:21:47.359,62e416f154e4c9e7f39d5cf7,1,66,44,55,53,28,Male,517.0,,"
  <table>
  <tr height=300>
    <td width=300 height=300><img src=""static/images/cards/back_of_red_bolts.svg"" width=""175px"" height=""250px""></img></td>
    <td width=300 height=300><img src=""static/images/cards/back_of_red_bolts.svg"" width=""175px"" height=""250px""></img></td>
  </tr>
  <tr height=200>
    <td width=300><img src=""static/images/keys/z.svg"" width=""35%"" height=""75%""></img></td>
    <td width=300><img src=""static/images/keys/m.svg"" width=""35%"" height=""75%""></img></td>
  </tr>
</table>
  ",90.0,,,,,,,,,,,,,,,,,,,,,,,,,1.0,,
50,0,,html-keyboard-response,50,171614,0.0-4.4-2.4,tg8e1i0prar,2022-09-19 16:21:47.359,62e416f154e4c9e7f39d5cf7,1,66,44,55,53,28,Male,,,"
  <table>
  <tr height=300>
    <td width=300 height=300><img src=""static/images/cards/2_of_red_bolts.svg"" width=""175px"" height=""250px""></img></td>
    <td width=300 height=300><img src=""static/images/cards/back_of_red_bolts.svg"" width=""175px"" height=""250px""></img></td>
  </tr>
  <tr height=200>
    <td width=300><img src=""static/images/keys/z.svg"" width=""35%"" height=""75%""></img></td>
    <td width=300><img src=""static/images/keys/m.svg"" width=""35%"" height=""75%""></img></td>
  </tr>
</table>
  ",,,,,,,,,,,,,,,,,,,,,,,,,,,,
51,0,,html-keyboard-response,51,173129,0.0-4.4-3.4,tg8e1i0prar,2022-09-19 16:21:47.359,62e416f154e4c9e7f39d5cf7,1,66,44,55,53,28,Male,,,"<p style=""font-size:50px"">You win!
+10 points this round!</p>",,,,,,,,,,,,,,,,,,,,,,,,,,,,
52,0,,html-keyboard-response,52,173658,0.0-4.4-4.4,tg8e1i0prar,2022-09-19 16:21:47.359,62e416f154e4c9e7f39d5cf7,1,66,44,55,53,28,Male,,,,,1.0,learning,4.0,Xc,,red,,bolts,,,,Xc,red,bolts,,1.0,0.0,NA,left,517.0,2.0,0.0,1.0,,,,
53,0,,html-keyboard-response,53,175165,0.0-4.5-0.5,tg8e1i0prar,2022-09-19 16:21:47.359,62e416f154e4c9e7f39d5cf7,1,66,44,55,53,28,Male,,,"<img src=""static/images/cards/stack_of_black_bolts.svg"" width=""175px"" height=""250px""></img>",,,,,,,,,,,,,,,,,,,,,,,,,,,,
54,0,,html-keyboard-response,54,176271,0.0-4.5-1.5,tg8e1i0prar,2022-09-19 16:21:47.359,62e416f154e4c9e7f39d5cf7,1,66,44,55,53,28,Male,592.0,,"
  <table>
  <tr height=300>
    <td width=300 height=300><img src=""static/images/cards/back_of_black_bolts.svg"" width=""175px"" height=""250px""></img></td>
    <td width=300 height=300><img src=""static/images/cards/back_of_black_bolts.svg"" width=""175px"" height=""250px""></img></td>
  </tr>
  <tr height=200>
    <td width=300></td>
    <td width=300><img src=""static/images/keys/m.svg"" width=""35%"" height=""75%""></img></td>
  </tr>
</table>
  ",77.0,,,,,,,,,,,,,,,,,,,,,,,,,1.0,,
55,0,,html-keyboard-response,55,177776,0.0-4.5-2.5,tg8e1i0prar,2022-09-19 16:21:47.359,62e416f154e4c9e7f39d5cf7,1,66,44,55,53,28,Male,,,"
  <table>
  <tr height=300>
    <td width=300 height=300><img src=""static/images/cards/back_of_black_bolts.svg"" width=""175px"" height=""250px""></img></td>
    <td width=300 height=300><img src=""static/images/cards/3_of_black_bolts.svg"" width=""175px"" height=""250px""></img></td>
  </tr>
  <tr height=200>
    <td width=300></td>
    <td width=300><img src=""static/images/keys/m.svg"" width=""35%"" height=""75%""></img></td>
  </tr>
</table>
  ",,,,,,,,,,,,,,,,,,,,,,,,,,,,
56,0,,html-keyboard-response,56,179297,0.0-4.5-3.5,tg8e1i0prar,2022-09-19 16:21:47.359,62e416f154e4c9e7f39d5cf7,1,66,44,55,53,28,Male,,,"<p style=""font-size:50px"">You win!
+10 points this round!</p>",,,,,,,,,,,,,,,,,,,,,,,,,,,,
57,0,,html-keyboard-response,57,179826,0.0-4.5-4.5,tg8e1i0prar,2022-09-19 16:21:47.359,62e416f154e4c9e7f39d5cf7,1,66,44,55,53,28,Male,,,,,1.0,learning,5.0,Xnc,,black,,bolts,,,,Xnc,black,bolts,,0.0,0.0,0,right,592.0,3.0,0.0,1.0,,,,
58,0,,html-keyboard-response,58,181332,0.0-4.6-0.6,tg8e1i0prar,2022-09-19 16:21:47.359,62e416f154e4c9e7f39d5cf7,1,66,44,55,53,28,Male,,,"<img src=""static/images/cards/stack_of_red_moons.svg"" width=""175px"" height=""250px""></img>",,,,,,,,,,,,,,,,,,,,,,,,,,,,
59,0,,html-keyboard-response,59,182421,0.0-4.6-1.6,tg8e1i0prar,2022-09-19 16:21:47.359,62e416f154e4c9e7f39d5cf7,1,66,44,55,53,28,Male,573.0,,"
  <table>
  <tr height=300>
    <td width=300 height=300><img src=""static/images/cards/back_of_red_moons.svg"" width=""175px"" height=""250px""></img></td>
    <td width=300 height=300><img src=""static/images/cards/back_of_red_moons.svg"" width=""175px"" height=""250px""></img></td>
  </tr>
  <tr height=200>
    <td width=300><img src=""static/images/keys/z.svg"" width=""35%"" height=""75%""></img></td>
    <td width=300><img src=""static/images/keys/m.svg"" width=""35%"" height=""75%""></img></td>
  </tr>
</table>
  ",90.0,,,,,,,,,,,,,,,,,,,,,,,,,1.0,,
60,0,,html-keyboard-response,60,183937,0.0-4.6-2.6,tg8e1i0prar,2022-09-19 16:21:47.359,62e416f154e4c9e7f39d5cf7,1,66,44,55,53,28,Male,,,"
  <table>
  <tr height=300>
    <td width=300 height=300><img src=""static/images/cards/8_of_red_moons.svg"" width=""175px"" height=""250px""></img></td>
    <td width=300 height=300><img src=""static/images/cards/back_of_red_moons.svg"" width=""175px"" height=""250px""></img></td>
  </tr>
  <tr height=200>
    <td width=300><img src=""static/images/keys/z.svg"" width=""35%"" height=""75%""></img></td>
    <td width=300><img src=""static/images/keys/m.svg"" width=""35%"" height=""75%""></img></td>
  </tr>
</table>
  ",,,,,,,,,,,,,,,,,,,,,,,,,,,,
61,0,,html-keyboard-response,61,185462,0.0-4.6-3.6,tg8e1i0prar,2022-09-19 16:21:47.359,62e416f154e4c9e7f39d5cf7,1,66,44,55,53,28,Male,,,"<p style=""font-size:50px"">You win!
+10 points this round!</p>",,,,,,,,,,,,,,,,,,,,,,,,,,,,
62,0,,html-keyboard-response,62,185989,0.0-4.6-4.6,tg8e1i0prar,2022-09-19 16:21:47.359,62e416f154e4c9e7f39d5cf7,1,66,44,55,53,28,Male,,,,,1.0,learning,6.0,A,,red,,moons,,,,A,red,moons,,1.0,1.0,NA,left,573.0,8.0,1.0,1.0,,,,
63,0,,html-keyboard-response,63,187503,0.0-4.7-0.7,tg8e1i0prar,2022-09-19 16:21:47.359,62e416f154e4c9e7f39d5cf7,1,66,44,55,53,28,Male,,,"<img src=""static/images/cards/stack_of_black_moons.svg"" width=""175px"" height=""250px""></img>",,,,,,,,,,,,,,,,,,,,,,,,,,,,
64,0,,html-keyboard-response,64,190786,0.0-4.7-1.7,tg8e1i0prar,2022-09-19 16:21:47.359,62e416f154e4c9e7f39d5cf7,1,66,44,55,53,28,Male,2781.0,,"
  <table>
  <tr height=300>
    <td width=300 height=300><img src=""static/images/cards/back_of_black_moons.svg"" width=""175px"" height=""250px""></img></td>
    <td width=300 height=300><img src=""static/images/cards/back_of_black_moons.svg"" width=""175px"" height=""250px""></img></td>
  </tr>
  <tr height=200>
    <td width=300><img src=""static/images/keys/z.svg"" width=""35%"" height=""75%""></img></td>
    <td width=300></td>
  </tr>
</table>
  ",90.0,,,,,,,,,,,,,,,,,,,,,,,,,1.0,,
65,0,,html-keyboard-response,65,192291,0.0-4.7-2.7,tg8e1i0prar,2022-09-19 16:21:47.359,62e416f154e4c9e7f39d5cf7,1,66,44,55,53,28,Male,,,"
  <table>
  <tr height=300>
    <td width=300 height=300><img src=""static/images/cards/7_of_black_moons.svg"" width=""175px"" height=""250px""></img></td>
    <td width=300 height=300><img src=""static/images/cards/back_of_black_moons.svg"" width=""175px"" height=""250px""></img></td>
  </tr>
  <tr height=200>
    <td width=300><img src=""static/images/keys/z.svg"" width=""35%"" height=""75%""></img></td>
    <td width=300></td>
  </tr>
</table>
  ",,,,,,,,,,,,,,,,,,,,,,,,,,,,
66,0,,html-keyboard-response,66,193807,0.0-4.7-3.7,tg8e1i0prar,2022-09-19 16:21:47.359,62e416f154e4c9e7f39d5cf7,1,66,44,55,53,28,Male,,,"<p style=""font-size:50px"">You win!
+10 points this round!</p>",,,,,,,,,,,,,,,,,,,,,,,,,,,,
67,0,,html-keyboard-response,67,194334,0.0-4.7-4.7,tg8e1i0prar,2022-09-19 16:21:47.359,62e416f154e4c9e7f39d5cf7,1,66,44,55,53,28,Male,,,,,1.0,learning,7.0,B,,black,,moons,,,,B,black,moons,,0.0,1.0,1,left,2781.0,7.0,1.0,1.0,,,,
68,0,,html-keyboard-response,68,195837,0.0-4.8-0.8,tg8e1i0prar,2022-09-19 16:21:47.359,62e416f154e4c9e7f39d5cf7,1,66,44,55,53,28,Male,,,"<img src=""static/images/cards/stack_of_red_stars.svg"" width=""175px"" height=""250px""></img>",,,,,,,,,,,,,,,,,,,,,,,,,,,,
69,0,,html-keyboard-response,69,197182,0.0-4.8-1.8,tg8e1i0prar,2022-09-19 16:21:47.359,62e416f154e4c9e7f39d5cf7,1,66,44,55,53,28,Male,844.0,,"
  <table>
  <tr height=300>
    <td width=300 height=300><img src=""static/images/cards/back_of_red_stars.svg"" width=""175px"" height=""250px""></img></td>
    <td width=300 height=300><img src=""static/images/cards/back_of_red_stars.svg"" width=""175px"" height=""250px""></img></td>
  </tr>
  <tr height=200>
    <td width=300><img src=""static/images/keys/z.svg"" width=""35%"" height=""75%""></img></td>
    <td width=300><img src=""static/images/keys/m.svg"" width=""35%"" height=""75%""></img></td>
  </tr>
</table>
  ",90.0,,,,,,,,,,,,,,,,,,,,,,,,,1.0,,
70,0,,html-keyboard-response,70,198689,0.0-4.8-2.8,tg8e1i0prar,2022-09-19 16:21:47.359,62e416f154e4c9e7f39d5cf7,1,66,44,55,53,28,Male,,,"
  <table>
  <tr height=300>
    <td width=300 height=300><img src=""static/images/cards/3_of_red_stars.svg"" width=""175px"" height=""250px""></img></td>
    <td width=300 height=300><img src=""static/images/cards/back_of_red_stars.svg"" width=""175px"" height=""250px""></img></td>
  </tr>
  <tr height=200>
    <td width=300><img src=""static/images/keys/z.svg"" width=""35%"" height=""75%""></img></td>
    <td width=300><img src=""static/images/keys/m.svg"" width=""35%"" height=""75%""></img></td>
  </tr>
</table>
  ",,,,,,,,,,,,,,,,,,,,,,,,,,,,
71,0,,html-keyboard-response,71,200201,0.0-4.8-3.8,tg8e1i0prar,2022-09-19 16:21:47.359,62e416f154e4c9e7f39d5cf7,1,66,44,55,53,28,Male,,,"<p style=""font-size:50px"">You win!
+10 points this round!</p>",,,,,,,,,,,,,,,,,,,,,,,,,,,,
72,0,,html-keyboard-response,72,200730,0.0-4.8-4.8,tg8e1i0prar,2022-09-19 16:21:47.359,62e416f154e4c9e7f39d5cf7,1,66,44,55,53,28,Male,,,,,1.0,learning,8.0,C,,red,,stars,,,,C,red,stars,,1.0,0.0,NA,left,844.0,3.0,0.0,1.0,,,,
73,0,,html-keyboard-response,73,202240,0.0-4.9-0.9,tg8e1i0prar,2022-09-19 16:21:47.359,62e416f154e4c9e7f39d5cf7,1,66,44,55,53,28,Male,,,"<img src=""static/images/cards/stack_of_black_stars.svg"" width=""175px"" height=""250px""></img>",,,,,,,,,,,,,,,,,,,,,,,,,,,,
74,0,,html-keyboard-response,74,205754,0.0-4.9-1.9,tg8e1i0prar,2022-09-19 16:21:47.359,62e416f154e4c9e7f39d5cf7,1,66,44,55,53,28,Male,,,"
  <table>
  <tr height=300>
    <td width=300 height=300><img src=""static/images/cards/back_of_black_stars.svg"" width=""175px"" height=""250px""></img></td>
    <td width=300 height=300><img src=""static/images/cards/back_of_black_stars.svg"" width=""175px"" height=""250px""></img></td>
  </tr>
  <tr height=200>
    <td width=300></td>
    <td width=300><img src=""static/images/keys/m.svg"" width=""35%"" height=""75%""></img></td>
  </tr>
</table>
  ",,,,,,,,,,,,,,,,,,,,,,,,,,,,
75,0,,html-keyboard-response,75,205769,0.0-4.9-2.9,tg8e1i0prar,2022-09-19 16:21:47.359,62e416f154e4c9e7f39d5cf7,1,66,44,55,53,28,Male,,,,,,,,,,,,,,,,,,,,,,,,,,,,,,,
76,0,,html-keyboard-response,76,207279,0.0-4.9-3.9,tg8e1i0prar,2022-09-19 16:21:47.359,62e416f154e4c9e7f39d5cf7,1,66,44,55,53,28,Male,,,"<p style=""font-size:50px"">Too slow!</p>",,,,,,,,,,,,,,,,,,,,,,,,,,,,
77,0,,html-keyboard-response,77,207809,0.0-4.9-4.9,tg8e1i0prar,2022-09-19 16:21:47.359,62e416f154e4c9e7f39d5cf7,1,66,44,55,53,28,Male,,,,,1.0,learning,9.0,D,,black,,stars,,,,D,black,stars,,0.0,0.0,0,,,3.0,0.0,1.0,,,,
78,0,,html-keyboard-response,78,209311,0.0-4.10-0.10,tg8e1i0prar,2022-09-19 16:21:47.359,62e416f154e4c9e7f39d5cf7,1,66,44,55,53,28,Male,,,"<img src=""static/images/cards/stack_of_red_bolts.svg"" width=""175px"" height=""250px""></img>",,,,,,,,,,,,,,,,,,,,,,,,,,,,
79,0,,html-keyboard-response,79,210134,0.0-4.10-1.10,tg8e1i0prar,2022-09-19 16:21:47.359,62e416f154e4c9e7f39d5cf7,1,66,44,55,53,28,Male,308.0,,"
  <table>
  <tr height=300>
    <td width=300 height=300><img src=""static/images/cards/back_of_red_bolts.svg"" width=""175px"" height=""250px""></img></td>
    <td width=300 height=300><img src=""static/images/cards/back_of_red_bolts.svg"" width=""175px"" height=""250px""></img></td>
  </tr>
  <tr height=200>
    <td width=300><img src=""static/images/keys/z.svg"" width=""35%"" height=""75%""></img></td>
    <td width=300><img src=""static/images/keys/m.svg"" width=""35%"" height=""75%""></img></td>
  </tr>
</table>
  ",77.0,,,,,,,,,,,,,,,,,,,,,,,,,1.0,,
80,0,,html-keyboard-response,80,211637,0.0-4.10-2.10,tg8e1i0prar,2022-09-19 16:21:47.359,62e416f154e4c9e7f39d5cf7,1,66,44,55,53,28,Male,,,"
  <table>
  <tr height=300>
    <td width=300 height=300><img src=""static/images/cards/back_of_red_bolts.svg"" width=""175px"" height=""250px""></img></td>
    <td width=300 height=300><img src=""static/images/cards/7_of_red_bolts.svg"" width=""175px"" height=""250px""></img></td>
  </tr>
  <tr height=200>
    <td width=300><img src=""static/images/keys/z.svg"" width=""35%"" height=""75%""></img></td>
    <td width=300><img src=""static/images/keys/m.svg"" width=""35%"" height=""75%""></img></td>
  </tr>
</table>
  ",,,,,,,,,,,,,,,,,,,,,,,,,,,,
81,0,,html-keyboard-response,81,213145,0.0-4.10-3.10,tg8e1i0prar,2022-09-19 16:21:47.359,62e416f154e4c9e7f39d5cf7,1,66,44,55,53,28,Male,,,"<p style=""font-size:50px"">You win!
+10 points this round!</p>",,,,,,,,,,,,,,,,,,,,,,,,,,,,
82,0,,html-keyboard-response,82,213671,0.0-4.10-4.10,tg8e1i0prar,2022-09-19 16:21:47.359,62e416f154e4c9e7f39d5cf7,1,66,44,55,53,28,Male,,,,,1.0,learning,10.0,Xc,,red,,bolts,,,,Xc,red,bolts,,1.0,0.0,NA,right,308.0,7.0,1.0,1.0,,,,
83,0,,html-keyboard-response,83,215175,0.0-4.11-0.11,tg8e1i0prar,2022-09-19 16:21:47.359,62e416f154e4c9e7f39d5cf7,1,66,44,55,53,28,Male,,,"<img src=""static/images/cards/stack_of_black_bolts.svg"" width=""175px"" height=""250px""></img>",,,,,,,,,,,,,,,,,,,,,,,,,,,,
84,0,,html-keyboard-response,84,216118,0.0-4.11-1.11,tg8e1i0prar,2022-09-19 16:21:47.359,62e416f154e4c9e7f39d5cf7,1,66,44,55,53,28,Male,429.0,,"
  <table>
  <tr height=300>
    <td width=300 height=300><img src=""static/images/cards/back_of_black_bolts.svg"" width=""175px"" height=""250px""></img></td>
    <td width=300 height=300><img src=""static/images/cards/back_of_black_bolts.svg"" width=""175px"" height=""250px""></img></td>
  </tr>
  <tr height=200>
    <td width=300></td>
    <td width=300><img src=""static/images/keys/m.svg"" width=""35%"" height=""75%""></img></td>
  </tr>
</table>
  ",77.0,,,,,,,,,,,,,,,,,,,,,,,,,1.0,,
85,0,,html-keyboard-response,85,217620,0.0-4.11-2.11,tg8e1i0prar,2022-09-19 16:21:47.359,62e416f154e4c9e7f39d5cf7,1,66,44,55,53,28,Male,,,"
  <table>
  <tr height=300>
    <td width=300 height=300><img src=""static/images/cards/back_of_black_bolts.svg"" width=""175px"" height=""250px""></img></td>
    <td width=300 height=300><img src=""static/images/cards/7_of_black_bolts.svg"" width=""175px"" height=""250px""></img></td>
  </tr>
  <tr height=200>
    <td width=300></td>
    <td width=300><img src=""static/images/keys/m.svg"" width=""35%"" height=""75%""></img></td>
  </tr>
</table>
  ",,,,,,,,,,,,,,,,,,,,,,,,,,,,
86,0,,html-keyboard-response,86,219130,0.0-4.11-3.11,tg8e1i0prar,2022-09-19 16:21:47.359,62e416f154e4c9e7f39d5cf7,1,66,44,55,53,28,Male,,,"<p style=""font-size:50px"">You win!
+10 points this round!</p>",,,,,,,,,,,,,,,,,,,,,,,,,,,,
87,0,,html-keyboard-response,87,219658,0.0-4.11-4.11,tg8e1i0prar,2022-09-19 16:21:47.359,62e416f154e4c9e7f39d5cf7,1,66,44,55,53,28,Male,,,,,1.0,learning,11.0,Xnc,,black,,bolts,,,,Xnc,black,bolts,,0.0,0.0,0,right,429.0,7.0,1.0,1.0,,,,
88,0,,html-keyboard-response,88,221168,0.0-4.12-0.12,tg8e1i0prar,2022-09-19 16:21:47.359,62e416f154e4c9e7f39d5cf7,1,66,44,55,53,28,Male,,,"<img src=""static/images/cards/stack_of_red_moons.svg"" width=""175px"" height=""250px""></img>",,,,,,,,,,,,,,,,,,,,,,,,,,,,
89,0,,html-keyboard-response,89,223618,0.0-4.12-1.12,tg8e1i0prar,2022-09-19 16:21:47.359,62e416f154e4c9e7f39d5cf7,1,66,44,55,53,28,Male,1934.0,,"
  <table>
  <tr height=300>
    <td width=300 height=300><img src=""static/images/cards/back_of_red_moons.svg"" width=""175px"" height=""250px""></img></td>
    <td width=300 height=300><img src=""static/images/cards/back_of_red_moons.svg"" width=""175px"" height=""250px""></img></td>
  </tr>
  <tr height=200>
    <td width=300><img src=""static/images/keys/z.svg"" width=""35%"" height=""75%""></img></td>
    <td width=300><img src=""static/images/keys/m.svg"" width=""35%"" height=""75%""></img></td>
  </tr>
</table>
  ",90.0,,,,,,,,,,,,,,,,,,,,,,,,,1.0,,
90,0,,html-keyboard-response,90,225126,0.0-4.12-2.12,tg8e1i0prar,2022-09-19 16:21:47.359,62e416f154e4c9e7f39d5cf7,1,66,44,55,53,28,Male,,,"
  <table>
  <tr height=300>
    <td width=300 height=300><img src=""static/images/cards/1_of_red_moons.svg"" width=""175px"" height=""250px""></img></td>
    <td width=300 height=300><img src=""static/images/cards/back_of_red_moons.svg"" width=""175px"" height=""250px""></img></td>
  </tr>
  <tr height=200>
    <td width=300><img src=""static/images/keys/z.svg"" width=""35%"" height=""75%""></img></td>
    <td width=300><img src=""static/images/keys/m.svg"" width=""35%"" height=""75%""></img></td>
  </tr>
</table>
  ",,,,,,,,,,,,,,,,,,,,,,,,,,,,
91,0,,html-keyboard-response,91,226651,0.0-4.12-3.12,tg8e1i0prar,2022-09-19 16:21:47.359,62e416f154e4c9e7f39d5cf7,1,66,44,55,53,28,Male,,,"<p style=""font-size:50px"">You Lose!
No points this round.</p>",,,,,,,,,,,,,,,,,,,,,,,,,,,,
92,0,,html-keyboard-response,92,227179,0.0-4.12-4.12,tg8e1i0prar,2022-09-19 16:21:47.359,62e416f154e4c9e7f39d5cf7,1,66,44,55,53,28,Male,,,,,1.0,learning,12.0,A,,red,,moons,,,,A,red,moons,,1.0,1.0,NA,left,1934.0,1.0,0.0,0.0,,,,
93,0,,html-keyboard-response,93,228681,0.0-4.13-0.13,tg8e1i0prar,2022-09-19 16:21:47.359,62e416f154e4c9e7f39d5cf7,1,66,44,55,53,28,Male,,,"<img src=""static/images/cards/stack_of_black_moons.svg"" width=""175px"" height=""250px""></img>",,,,,,,,,,,,,,,,,,,,,,,,,,,,
94,0,,html-keyboard-response,94,230194,0.0-4.13-1.13,tg8e1i0prar,2022-09-19 16:21:47.359,62e416f154e4c9e7f39d5cf7,1,66,44,55,53,28,Male,1008.0,,"
  <table>
  <tr height=300>
    <td width=300 height=300><img src=""static/images/cards/back_of_black_moons.svg"" width=""175px"" height=""250px""></img></td>
    <td width=300 height=300><img src=""static/images/cards/back_of_black_moons.svg"" width=""175px"" height=""250px""></img></td>
  </tr>
  <tr height=200>
    <td width=300></td>
    <td width=300><img src=""static/images/keys/m.svg"" width=""35%"" height=""75%""></img></td>
  </tr>
</table>
  ",77.0,,,,,,,,,,,,,,,,,,,,,,,,,1.0,,
95,0,,html-keyboard-response,95,231697,0.0-4.13-2.13,tg8e1i0prar,2022-09-19 16:21:47.359,62e416f154e4c9e7f39d5cf7,1,66,44,55,53,28,Male,,,"
  <table>
  <tr height=300>
    <td width=300 height=300><img src=""static/images/cards/back_of_black_moons.svg"" width=""175px"" height=""250px""></img></td>
    <td width=300 height=300><img src=""static/images/cards/3_of_black_moons.svg"" width=""175px"" height=""250px""></img></td>
  </tr>
  <tr height=200>
    <td width=300></td>
    <td width=300><img src=""static/images/keys/m.svg"" width=""35%"" height=""75%""></img></td>
  </tr>
</table>
  ",,,,,,,,,,,,,,,,,,,,,,,,,,,,
96,0,,html-keyboard-response,96,233220,0.0-4.13-3.13,tg8e1i0prar,2022-09-19 16:21:47.359,62e416f154e4c9e7f39d5cf7,1,66,44,55,53,28,Male,,,"<p style=""font-size:50px"">You Lose!
No points this round.</p>",,,,,,,,,,,,,,,,,,,,,,,,,,,,
97,0,,html-keyboard-response,97,233736,0.0-4.13-4.13,tg8e1i0prar,2022-09-19 16:21:47.359,62e416f154e4c9e7f39d5cf7,1,66,44,55,53,28,Male,,,,,1.0,learning,13.0,B,,black,,moons,,,,B,black,moons,,0.0,1.0,0,right,1008.0,3.0,0.0,0.0,,,,
98,0,,html-keyboard-response,98,235244,0.0-4.14-0.14,tg8e1i0prar,2022-09-19 16:21:47.359,62e416f154e4c9e7f39d5cf7,1,66,44,55,53,28,Male,,,"<img src=""static/images/cards/stack_of_red_stars.svg"" width=""175px"" height=""250px""></img>",,,,,,,,,,,,,,,,,,,,,,,,,,,,
99,0,,html-keyboard-response,99,236426,0.0-4.14-1.14,tg8e1i0prar,2022-09-19 16:21:47.359,62e416f154e4c9e7f39d5cf7,1,66,44,55,53,28,Male,668.0,,"
  <table>
  <tr height=300>
    <td width=300 height=300><img src=""static/images/cards/back_of_red_stars.svg"" width=""175px"" height=""250px""></img></td>
    <td width=300 height=300><img src=""static/images/cards/back_of_red_stars.svg"" width=""175px"" height=""250px""></img></td>
  </tr>
  <tr height=200>
    <td width=300><img src=""static/images/keys/z.svg"" width=""35%"" height=""75%""></img></td>
    <td width=300><img src=""static/images/keys/m.svg"" width=""35%"" height=""75%""></img></td>
  </tr>
</table>
  ",90.0,,,,,,,,,,,,,,,,,,,,,,,,,1.0,,
100,0,,html-keyboard-response,100,237937,0.0-4.14-2.14,tg8e1i0prar,2022-09-19 16:21:47.359,62e416f154e4c9e7f39d5cf7,1,66,44,55,53,28,Male,,,"
  <table>
  <tr height=300>
    <td width=300 height=300><img src=""static/images/cards/7_of_red_stars.svg"" width=""175px"" height=""250px""></img></td>
    <td width=300 height=300><img src=""static/images/cards/back_of_red_stars.svg"" width=""175px"" height=""250px""></img></td>
  </tr>
  <tr height=200>
    <td width=300><img src=""static/images/keys/z.svg"" width=""35%"" height=""75%""></img></td>
    <td width=300><img src=""static/images/keys/m.svg"" width=""35%"" height=""75%""></img></td>
  </tr>
</table>
  ",,,,,,,,,,,,,,,,,,,,,,,,,,,,
101,0,,html-keyboard-response,101,239460,0.0-4.14-3.14,tg8e1i0prar,2022-09-19 16:21:47.359,62e416f154e4c9e7f39d5cf7,1,66,44,55,53,28,Male,,,"<p style=""font-size:50px"">You win!
+10 points this round!</p>",,,,,,,,,,,,,,,,,,,,,,,,,,,,
102,0,,html-keyboard-response,102,239989,0.0-4.14-4.14,tg8e1i0prar,2022-09-19 16:21:47.359,62e416f154e4c9e7f39d5cf7,1,66,44,55,53,28,Male,,,,,1.0,learning,14.0,C,,red,,stars,,,,C,red,stars,,1.0,0.0,NA,left,668.0,7.0,1.0,1.0,,,,
103,0,,html-keyboard-response,103,241502,0.0-4.15-0.15,tg8e1i0prar,2022-09-19 16:21:47.359,62e416f154e4c9e7f39d5cf7,1,66,44,55,53,28,Male,,,"<img src=""static/images/cards/stack_of_black_stars.svg"" width=""175px"" height=""250px""></img>",,,,,,,,,,,,,,,,,,,,,,,,,,,,
104,0,,html-keyboard-response,104,243521,0.0-4.15-1.15,tg8e1i0prar,2022-09-19 16:21:47.359,62e416f154e4c9e7f39d5cf7,1,66,44,55,53,28,Male,1509.0,,"
  <table>
  <tr height=300>
    <td width=300 height=300><img src=""static/images/cards/back_of_black_stars.svg"" width=""175px"" height=""250px""></img></td>
    <td width=300 height=300><img src=""static/images/cards/back_of_black_stars.svg"" width=""175px"" height=""250px""></img></td>
  </tr>
  <tr height=200>
    <td width=300><img src=""static/images/keys/z.svg"" width=""35%"" height=""75%""></img></td>
    <td width=300></td>
  </tr>
</table>
  ",90.0,,,,,,,,,,,,,,,,,,,,,,,,,1.0,,
105,0,,html-keyboard-response,105,245035,0.0-4.15-2.15,tg8e1i0prar,2022-09-19 16:21:47.359,62e416f154e4c9e7f39d5cf7,1,66,44,55,53,28,Male,,,"
  <table>
  <tr height=300>
    <td width=300 height=300><img src=""static/images/cards/2_of_black_stars.svg"" width=""175px"" height=""250px""></img></td>
    <td width=300 height=300><img src=""static/images/cards/back_of_black_stars.svg"" width=""175px"" height=""250px""></img></td>
  </tr>
  <tr height=200>
    <td width=300><img src=""static/images/keys/z.svg"" width=""35%"" height=""75%""></img></td>
    <td width=300></td>
  </tr>
</table>
  ",,,,,,,,,,,,,,,,,,,,,,,,,,,,
106,0,,html-keyboard-response,106,246553,0.0-4.15-3.15,tg8e1i0prar,2022-09-19 16:21:47.359,62e416f154e4c9e7f39d5cf7,1,66,44,55,53,28,Male,,,"<p style=""font-size:50px"">You win!
+10 points this round!</p>",,,,,,,,,,,,,,,,,,,,,,,,,,,,
107,0,,html-keyboard-response,107,247084,0.0-4.15-4.15,tg8e1i0prar,2022-09-19 16:21:47.359,62e416f154e4c9e7f39d5cf7,1,66,44,55,53,28,Male,,,,,1.0,learning,15.0,D,,black,,stars,,,,D,black,stars,,0.0,0.0,1,left,1509.0,2.0,0.0,1.0,,,,
108,0,,html-keyboard-response,108,248599,0.0-4.16-0.16,tg8e1i0prar,2022-09-19 16:21:47.359,62e416f154e4c9e7f39d5cf7,1,66,44,55,53,28,Male,,,"<img src=""static/images/cards/stack_of_red_bolts.svg"" width=""175px"" height=""250px""></img>",,,,,,,,,,,,,,,,,,,,,,,,,,,,
109,0,,html-keyboard-response,109,249527,0.0-4.16-1.16,tg8e1i0prar,2022-09-19 16:21:47.359,62e416f154e4c9e7f39d5cf7,1,66,44,55,53,28,Male,414.0,,"
  <table>
  <tr height=300>
    <td width=300 height=300><img src=""static/images/cards/back_of_red_bolts.svg"" width=""175px"" height=""250px""></img></td>
    <td width=300 height=300><img src=""static/images/cards/back_of_red_bolts.svg"" width=""175px"" height=""250px""></img></td>
  </tr>
  <tr height=200>
    <td width=300><img src=""static/images/keys/z.svg"" width=""35%"" height=""75%""></img></td>
    <td width=300><img src=""static/images/keys/m.svg"" width=""35%"" height=""75%""></img></td>
  </tr>
</table>
  ",90.0,,,,,,,,,,,,,,,,,,,,,,,,,1.0,,
110,0,,html-keyboard-response,110,251029,0.0-4.16-2.16,tg8e1i0prar,2022-09-19 16:21:47.359,62e416f154e4c9e7f39d5cf7,1,66,44,55,53,28,Male,,,"
  <table>
  <tr height=300>
    <td width=300 height=300><img src=""static/images/cards/4_of_red_bolts.svg"" width=""175px"" height=""250px""></img></td>
    <td width=300 height=300><img src=""static/images/cards/back_of_red_bolts.svg"" width=""175px"" height=""250px""></img></td>
  </tr>
  <tr height=200>
    <td width=300><img src=""static/images/keys/z.svg"" width=""35%"" height=""75%""></img></td>
    <td width=300><img src=""static/images/keys/m.svg"" width=""35%"" height=""75%""></img></td>
  </tr>
</table>
  ",,,,,,,,,,,,,,,,,,,,,,,,,,,,
111,0,,html-keyboard-response,111,252550,0.0-4.16-3.16,tg8e1i0prar,2022-09-19 16:21:47.359,62e416f154e4c9e7f39d5cf7,1,66,44,55,53,28,Male,,,"<p style=""font-size:50px"">You win!
+10 points this round!</p>",,,,,,,,,,,,,,,,,,,,,,,,,,,,
112,0,,html-keyboard-response,112,253066,0.0-4.16-4.16,tg8e1i0prar,2022-09-19 16:21:47.359,62e416f154e4c9e7f39d5cf7,1,66,44,55,53,28,Male,,,,,1.0,learning,16.0,Xc,,red,,bolts,,,,Xc,red,bolts,,1.0,0.0,NA,left,414.0,4.0,0.0,1.0,,,,
113,0,,html-keyboard-response,113,254578,0.0-4.17-0.17,tg8e1i0prar,2022-09-19 16:21:47.359,62e416f154e4c9e7f39d5cf7,1,66,44,55,53,28,Male,,,"<img src=""static/images/cards/stack_of_black_bolts.svg"" width=""175px"" height=""250px""></img>",,,,,,,,,,,,,,,,,,,,,,,,,,,,
114,0,,html-keyboard-response,114,255904,0.0-4.17-1.17,tg8e1i0prar,2022-09-19 16:21:47.359,62e416f154e4c9e7f39d5cf7,1,66,44,55,53,28,Male,810.0,,"
  <table>
  <tr height=300>
    <td width=300 height=300><img src=""static/images/cards/back_of_black_bolts.svg"" width=""175px"" height=""250px""></img></td>
    <td width=300 height=300><img src=""static/images/cards/back_of_black_bolts.svg"" width=""175px"" height=""250px""></img></td>
  </tr>
  <tr height=200>
    <td width=300></td>
    <td width=300><img src=""static/images/keys/m.svg"" width=""35%"" height=""75%""></img></td>
  </tr>
</table>
  ",77.0,,,,,,,,,,,,,,,,,,,,,,,,,1.0,,
115,0,,html-keyboard-response,115,257418,0.0-4.17-2.17,tg8e1i0prar,2022-09-19 16:21:47.359,62e416f154e4c9e7f39d5cf7,1,66,44,55,53,28,Male,,,"
  <table>
  <tr height=300>
    <td width=300 height=300><img src=""static/images/cards/back_of_black_bolts.svg"" width=""175px"" height=""250px""></img></td>
    <td width=300 height=300><img src=""static/images/cards/3_of_black_bolts.svg"" width=""175px"" height=""250px""></img></td>
  </tr>
  <tr height=200>
    <td width=300></td>
    <td width=300><img src=""static/images/keys/m.svg"" width=""35%"" height=""75%""></img></td>
  </tr>
</table>
  ",,,,,,,,,,,,,,,,,,,,,,,,,,,,
116,0,,html-keyboard-response,116,258929,0.0-4.17-3.17,tg8e1i0prar,2022-09-19 16:21:47.359,62e416f154e4c9e7f39d5cf7,1,66,44,55,53,28,Male,,,"<p style=""font-size:50px"">You win!
+10 points this round!</p>",,,,,,,,,,,,,,,,,,,,,,,,,,,,
117,0,,html-keyboard-response,117,259446,0.0-4.17-4.17,tg8e1i0prar,2022-09-19 16:21:47.359,62e416f154e4c9e7f39d5cf7,1,66,44,55,53,28,Male,,,,,1.0,learning,17.0,Xnc,,black,,bolts,,,,Xnc,black,bolts,,0.0,0.0,0,right,810.0,3.0,0.0,1.0,,,,
118,0,,html-keyboard-response,118,260953,0.0-4.18-0.18,tg8e1i0prar,2022-09-19 16:21:47.359,62e416f154e4c9e7f39d5cf7,1,66,44,55,53,28,Male,,,"<img src=""static/images/cards/stack_of_red_moons.svg"" width=""175px"" height=""250px""></img>",,,,,,,,,,,,,,,,,,,,,,,,,,,,
119,0,,html-keyboard-response,119,262240,0.0-4.18-1.18,tg8e1i0prar,2022-09-19 16:21:47.359,62e416f154e4c9e7f39d5cf7,1,66,44,55,53,28,Male,772.0,,"
  <table>
  <tr height=300>
    <td width=300 height=300><img src=""static/images/cards/back_of_red_moons.svg"" width=""175px"" height=""250px""></img></td>
    <td width=300 height=300><img src=""static/images/cards/back_of_red_moons.svg"" width=""175px"" height=""250px""></img></td>
  </tr>
  <tr height=200>
    <td width=300><img src=""static/images/keys/z.svg"" width=""35%"" height=""75%""></img></td>
    <td width=300><img src=""static/images/keys/m.svg"" width=""35%"" height=""75%""></img></td>
  </tr>
</table>
  ",90.0,,,,,,,,,,,,,,,,,,,,,,,,,1.0,,
120,0,,html-keyboard-response,120,263755,0.0-4.18-2.18,tg8e1i0prar,2022-09-19 16:21:47.359,62e416f154e4c9e7f39d5cf7,1,66,44,55,53,28,Male,,,"
  <table>
  <tr height=300>
    <td width=300 height=300><img src=""static/images/cards/7_of_red_moons.svg"" width=""175px"" height=""250px""></img></td>
    <td width=300 height=300><img src=""static/images/cards/back_of_red_moons.svg"" width=""175px"" height=""250px""></img></td>
  </tr>
  <tr height=200>
    <td width=300><img src=""static/images/keys/z.svg"" width=""35%"" height=""75%""></img></td>
    <td width=300><img src=""static/images/keys/m.svg"" width=""35%"" height=""75%""></img></td>
  </tr>
</table>
  ",,,,,,,,,,,,,,,,,,,,,,,,,,,,
121,0,,html-keyboard-response,121,265280,0.0-4.18-3.18,tg8e1i0prar,2022-09-19 16:21:47.359,62e416f154e4c9e7f39d5cf7,1,66,44,55,53,28,Male,,,"<p style=""font-size:50px"">You win!
+10 points this round!</p>",,,,,,,,,,,,,,,,,,,,,,,,,,,,
122,0,,html-keyboard-response,122,265807,0.0-4.18-4.18,tg8e1i0prar,2022-09-19 16:21:47.359,62e416f154e4c9e7f39d5cf7,1,66,44,55,53,28,Male,,,,,1.0,learning,18.0,A,,red,,moons,,,,A,red,moons,,1.0,1.0,NA,left,772.0,7.0,1.0,1.0,,,,
123,0,,html-keyboard-response,123,267322,0.0-4.19-0.19,tg8e1i0prar,2022-09-19 16:21:47.359,62e416f154e4c9e7f39d5cf7,1,66,44,55,53,28,Male,,,"<img src=""static/images/cards/stack_of_black_moons.svg"" width=""175px"" height=""250px""></img>",,,,,,,,,,,,,,,,,,,,,,,,,,,,
124,0,,html-keyboard-response,124,268249,0.0-4.19-1.19,tg8e1i0prar,2022-09-19 16:21:47.359,62e416f154e4c9e7f39d5cf7,1,66,44,55,53,28,Male,413.0,,"
  <table>
  <tr height=300>
    <td width=300 height=300><img src=""static/images/cards/back_of_black_moons.svg"" width=""175px"" height=""250px""></img></td>
    <td width=300 height=300><img src=""static/images/cards/back_of_black_moons.svg"" width=""175px"" height=""250px""></img></td>
  </tr>
  <tr height=200>
    <td width=300><img src=""static/images/keys/z.svg"" width=""35%"" height=""75%""></img></td>
    <td width=300></td>
  </tr>
</table>
  ",90.0,,,,,,,,,,,,,,,,,,,,,,,,,1.0,,
125,0,,html-keyboard-response,125,269754,0.0-4.19-2.19,tg8e1i0prar,2022-09-19 16:21:47.359,62e416f154e4c9e7f39d5cf7,1,66,44,55,53,28,Male,,,"
  <table>
  <tr height=300>
    <td width=300 height=300><img src=""static/images/cards/6_of_black_moons.svg"" width=""175px"" height=""250px""></img></td>
    <td width=300 height=300><img src=""static/images/cards/back_of_black_moons.svg"" width=""175px"" height=""250px""></img></td>
  </tr>
  <tr height=200>
    <td width=300><img src=""static/images/keys/z.svg"" width=""35%"" height=""75%""></img></td>
    <td width=300></td>
  </tr>
</table>
  ",,,,,,,,,,,,,,,,,,,,,,,,,,,,
126,0,,html-keyboard-response,126,271279,0.0-4.19-3.19,tg8e1i0prar,2022-09-19 16:21:47.359,62e416f154e4c9e7f39d5cf7,1,66,44,55,53,28,Male,,,"<p style=""font-size:50px"">You win!
+10 points this round!</p>",,,,,,,,,,,,,,,,,,,,,,,,,,,,
127,0,,html-keyboard-response,127,271809,0.0-4.19-4.19,tg8e1i0prar,2022-09-19 16:21:47.359,62e416f154e4c9e7f39d5cf7,1,66,44,55,53,28,Male,,,,,1.0,learning,19.0,B,,black,,moons,,,,B,black,moons,,0.0,1.0,1,left,413.0,6.0,1.0,1.0,,,,
128,0,,html-keyboard-response,128,273320,0.0-4.20-0.20,tg8e1i0prar,2022-09-19 16:21:47.359,62e416f154e4c9e7f39d5cf7,1,66,44,55,53,28,Male,,,"<img src=""static/images/cards/stack_of_red_stars.svg"" width=""175px"" height=""250px""></img>",,,,,,,,,,,,,,,,,,,,,,,,,,,,
129,0,,html-keyboard-response,129,274135,0.0-4.20-1.20,tg8e1i0prar,2022-09-19 16:21:47.359,62e416f154e4c9e7f39d5cf7,1,66,44,55,53,28,Male,314.0,,"
  <table>
  <tr height=300>
    <td width=300 height=300><img src=""static/images/cards/back_of_red_stars.svg"" width=""175px"" height=""250px""></img></td>
    <td width=300 height=300><img src=""static/images/cards/back_of_red_stars.svg"" width=""175px"" height=""250px""></img></td>
  </tr>
  <tr height=200>
    <td width=300><img src=""static/images/keys/z.svg"" width=""35%"" height=""75%""></img></td>
    <td width=300><img src=""static/images/keys/m.svg"" width=""35%"" height=""75%""></img></td>
  </tr>
</table>
  ",77.0,,,,,,,,,,,,,,,,,,,,,,,,,1.0,,
130,0,,html-keyboard-response,130,275640,0.0-4.20-2.20,tg8e1i0prar,2022-09-19 16:21:47.359,62e416f154e4c9e7f39d5cf7,1,66,44,55,53,28,Male,,,"
  <table>
  <tr height=300>
    <td width=300 height=300><img src=""static/images/cards/back_of_red_stars.svg"" width=""175px"" height=""250px""></img></td>
    <td width=300 height=300><img src=""static/images/cards/1_of_red_stars.svg"" width=""175px"" height=""250px""></img></td>
  </tr>
  <tr height=200>
    <td width=300><img src=""static/images/keys/z.svg"" width=""35%"" height=""75%""></img></td>
    <td width=300><img src=""static/images/keys/m.svg"" width=""35%"" height=""75%""></img></td>
  </tr>
</table>
  ",,,,,,,,,,,,,,,,,,,,,,,,,,,,
131,0,,html-keyboard-response,131,277161,0.0-4.20-3.20,tg8e1i0prar,2022-09-19 16:21:47.359,62e416f154e4c9e7f39d5cf7,1,66,44,55,53,28,Male,,,"<p style=""font-size:50px"">You Lose!
No points this round.</p>",,,,,,,,,,,,,,,,,,,,,,,,,,,,
132,0,,html-keyboard-response,132,277692,0.0-4.20-4.20,tg8e1i0prar,2022-09-19 16:21:47.359,62e416f154e4c9e7f39d5cf7,1,66,44,55,53,28,Male,,,,,1.0,learning,20.0,C,,red,,stars,,,,C,red,stars,,1.0,0.0,NA,right,314.0,1.0,0.0,0.0,,,,
133,0,,html-keyboard-response,133,279192,0.0-4.21-0.21,tg8e1i0prar,2022-09-19 16:21:47.359,62e416f154e4c9e7f39d5cf7,1,66,44,55,53,28,Male,,,"<img src=""static/images/cards/stack_of_black_stars.svg"" width=""175px"" height=""250px""></img>",,,,,,,,,,,,,,,,,,,,,,,,,,,,
134,0,,html-keyboard-response,134,280058,0.0-4.21-1.21,tg8e1i0prar,2022-09-19 16:21:47.359,62e416f154e4c9e7f39d5cf7,1,66,44,55,53,28,Male,364.0,,"
  <table>
  <tr height=300>
    <td width=300 height=300><img src=""static/images/cards/back_of_black_stars.svg"" width=""175px"" height=""250px""></img></td>
    <td width=300 height=300><img src=""static/images/cards/back_of_black_stars.svg"" width=""175px"" height=""250px""></img></td>
  </tr>
  <tr height=200>
    <td width=300></td>
    <td width=300><img src=""static/images/keys/m.svg"" width=""35%"" height=""75%""></img></td>
  </tr>
</table>
  ",77.0,,,,,,,,,,,,,,,,,,,,,,,,,1.0,,
135,0,,html-keyboard-response,135,281560,0.0-4.21-2.21,tg8e1i0prar,2022-09-19 16:21:47.359,62e416f154e4c9e7f39d5cf7,1,66,44,55,53,28,Male,,,"
  <table>
  <tr height=300>
    <td width=300 height=300><img src=""static/images/cards/back_of_black_stars.svg"" width=""175px"" height=""250px""></img></td>
    <td width=300 height=300><img src=""static/images/cards/8_of_black_stars.svg"" width=""175px"" height=""250px""></img></td>
  </tr>
  <tr height=200>
    <td width=300></td>
    <td width=300><img src=""static/images/keys/m.svg"" width=""35%"" height=""75%""></img></td>
  </tr>
</table>
  ",,,,,,,,,,,,,,,,,,,,,,,,,,,,
136,0,,html-keyboard-response,136,283089,0.0-4.21-3.21,tg8e1i0prar,2022-09-19 16:21:47.359,62e416f154e4c9e7f39d5cf7,1,66,44,55,53,28,Male,,,"<p style=""font-size:50px"">You win!
+10 points this round!</p>",,,,,,,,,,,,,,,,,,,,,,,,,,,,
137,0,,html-keyboard-response,137,283617,0.0-4.21-4.21,tg8e1i0prar,2022-09-19 16:21:47.359,62e416f154e4c9e7f39d5cf7,1,66,44,55,53,28,Male,,,,,1.0,learning,21.0,D,,black,,stars,,,,D,black,stars,,0.0,0.0,0,right,364.0,8.0,1.0,1.0,,,,
138,0,,html-keyboard-response,138,285121,0.0-4.22-0.22,tg8e1i0prar,2022-09-19 16:21:47.359,62e416f154e4c9e7f39d5cf7,1,66,44,55,53,28,Male,,,"<img src=""static/images/cards/stack_of_red_bolts.svg"" width=""175px"" height=""250px""></img>",,,,,,,,,,,,,,,,,,,,,,,,,,,,
139,0,,html-keyboard-response,139,286159,0.0-4.22-1.22,tg8e1i0prar,2022-09-19 16:21:47.359,62e416f154e4c9e7f39d5cf7,1,66,44,55,53,28,Male,524.0,,"
  <table>
  <tr height=300>
    <td width=300 height=300><img src=""static/images/cards/back_of_red_bolts.svg"" width=""175px"" height=""250px""></img></td>
    <td width=300 height=300><img src=""static/images/cards/back_of_red_bolts.svg"" width=""175px"" height=""250px""></img></td>
  </tr>
  <tr height=200>
    <td width=300><img src=""static/images/keys/z.svg"" width=""35%"" height=""75%""></img></td>
    <td width=300><img src=""static/images/keys/m.svg"" width=""35%"" height=""75%""></img></td>
  </tr>
</table>
  ",90.0,,,,,,,,,,,,,,,,,,,,,,,,,1.0,,
140,0,,html-keyboard-response,140,287660,0.0-4.22-2.22,tg8e1i0prar,2022-09-19 16:21:47.359,62e416f154e4c9e7f39d5cf7,1,66,44,55,53,28,Male,,,"
  <table>
  <tr height=300>
    <td width=300 height=300><img src=""static/images/cards/7_of_red_bolts.svg"" width=""175px"" height=""250px""></img></td>
    <td width=300 height=300><img src=""static/images/cards/back_of_red_bolts.svg"" width=""175px"" height=""250px""></img></td>
  </tr>
  <tr height=200>
    <td width=300><img src=""static/images/keys/z.svg"" width=""35%"" height=""75%""></img></td>
    <td width=300><img src=""static/images/keys/m.svg"" width=""35%"" height=""75%""></img></td>
  </tr>
</table>
  ",,,,,,,,,,,,,,,,,,,,,,,,,,,,
141,0,,html-keyboard-response,141,289190,0.0-4.22-3.22,tg8e1i0prar,2022-09-19 16:21:47.359,62e416f154e4c9e7f39d5cf7,1,66,44,55,53,28,Male,,,"<p style=""font-size:50px"">You win!
+10 points this round!</p>",,,,,,,,,,,,,,,,,,,,,,,,,,,,
142,0,,html-keyboard-response,142,289706,0.0-4.22-4.22,tg8e1i0prar,2022-09-19 16:21:47.359,62e416f154e4c9e7f39d5cf7,1,66,44,55,53,28,Male,,,,,1.0,learning,22.0,Xc,,red,,bolts,,,,Xc,red,bolts,,1.0,0.0,NA,left,524.0,7.0,1.0,1.0,,,,
143,0,,html-keyboard-response,143,291206,0.0-4.23-0.23,tg8e1i0prar,2022-09-19 16:21:47.359,62e416f154e4c9e7f39d5cf7,1,66,44,55,53,28,Male,,,"<img src=""static/images/cards/stack_of_black_bolts.svg"" width=""175px"" height=""250px""></img>",,,,,,,,,,,,,,,,,,,,,,,,,,,,
144,0,,html-keyboard-response,144,292099,0.0-4.23-1.23,tg8e1i0prar,2022-09-19 16:21:47.359,62e416f154e4c9e7f39d5cf7,1,66,44,55,53,28,Male,381.0,,"
  <table>
  <tr height=300>
    <td width=300 height=300><img src=""static/images/cards/back_of_black_bolts.svg"" width=""175px"" height=""250px""></img></td>
    <td width=300 height=300><img src=""static/images/cards/back_of_black_bolts.svg"" width=""175px"" height=""250px""></img></td>
  </tr>
  <tr height=200>
    <td width=300><img src=""static/images/keys/z.svg"" width=""35%"" height=""75%""></img></td>
    <td width=300></td>
  </tr>
</table>
  ",90.0,,,,,,,,,,,,,,,,,,,,,,,,,1.0,,
145,0,,html-keyboard-response,145,293614,0.0-4.23-2.23,tg8e1i0prar,2022-09-19 16:21:47.359,62e416f154e4c9e7f39d5cf7,1,66,44,55,53,28,Male,,,"
  <table>
  <tr height=300>
    <td width=300 height=300><img src=""static/images/cards/10_of_black_bolts.svg"" width=""175px"" height=""250px""></img></td>
    <td width=300 height=300><img src=""static/images/cards/back_of_black_bolts.svg"" width=""175px"" height=""250px""></img></td>
  </tr>
  <tr height=200>
    <td width=300><img src=""static/images/keys/z.svg"" width=""35%"" height=""75%""></img></td>
    <td width=300></td>
  </tr>
</table>
  ",,,,,,,,,,,,,,,,,,,,,,,,,,,,
146,0,,html-keyboard-response,146,295141,0.0-4.23-3.23,tg8e1i0prar,2022-09-19 16:21:47.359,62e416f154e4c9e7f39d5cf7,1,66,44,55,53,28,Male,,,"<p style=""font-size:50px"">You win!
+10 points this round!</p>",,,,,,,,,,,,,,,,,,,,,,,,,,,,
147,0,,html-keyboard-response,147,295671,0.0-4.23-4.23,tg8e1i0prar,2022-09-19 16:21:47.359,62e416f154e4c9e7f39d5cf7,1,66,44,55,53,28,Male,,,,,1.0,learning,23.0,Xnc,,black,,bolts,,,,Xnc,black,bolts,,0.0,0.0,1,left,381.0,10.0,1.0,1.0,,,,
148,0,,call-function,148,295673,0.0-5.0,tg8e1i0prar,2022-09-19 16:21:47.359,62e416f154e4c9e7f39d5cf7,1,66,44,55,53,28,Male,,,,,,,,,,,,,,,,,,,,,,,,,,,,,,,
149,0,,image-keyboard-response,149,304189,0.0-6.0-0.0,tg8e1i0prar,2022-09-19 16:21:47.359,62e416f154e4c9e7f39d5cf7,1,66,44,55,53,28,Male,8516.0,,static/images/instructions_CB_1/Slide20.png,39.0,,,,,,,,,,,,,,,,,,,,,,,,,,,
150,0,,image-keyboard-response,150,312195,0.0-6.1-0.1,tg8e1i0prar,2022-09-19 16:21:47.359,62e416f154e4c9e7f39d5cf7,1,66,44,55,53,28,Male,8006.0,,static/images/instructions_CB_1/Slide21.png,37.0,,,,,,,,,,,,,,,,,,,,,,,,,,,
151,0,,image-keyboard-response,151,312712,0.0-6.2-0.2,tg8e1i0prar,2022-09-19 16:21:47.359,62e416f154e4c9e7f39d5cf7,1,66,44,55,53,28,Male,516.0,,static/images/instructions_CB_1/Slide20.png,39.0,,,,,,,,,,,,,,,,,,,,,,,,,,,
152,0,,image-keyboard-response,152,316276,0.0-6.3-0.3,tg8e1i0prar,2022-09-19 16:21:47.359,62e416f154e4c9e7f39d5cf7,1,66,44,55,53,28,Male,3562.0,,static/images/instructions_CB_1/Slide21.png,39.0,,,,,,,,,,,,,,,,,,,,,,,,,,,
153,0,,image-keyboard-response,153,328068,0.0-6.4-0.4,tg8e1i0prar,2022-09-19 16:21:47.359,62e416f154e4c9e7f39d5cf7,1,66,44,55,53,28,Male,11792.0,,static/images/instructions_CB_1/Slide22.png,39.0,,,,,,,,,,,,,,,,,,,,,,,,,,,
154,0,,image-keyboard-response,154,329974,0.0-6.5-0.5,tg8e1i0prar,2022-09-19 16:21:47.359,62e416f154e4c9e7f39d5cf7,1,66,44,55,53,28,Male,1905.0,,static/images/instructions_CB_1/Slide23.png,39.0,,,,,,,,,,,,,,,,,,,,,,,,,,,
155,0,,image-keyboard-response,155,332370,0.0-6.6-0.6,tg8e1i0prar,2022-09-19 16:21:47.359,62e416f154e4c9e7f39d5cf7,1,66,44,55,53,28,Male,2395.0,,static/images/instructions_CB_1/Slide24.png,39.0,,,,,,,,,,,,,,,,,,,,,,,,,,,
156,0,,html-keyboard-response,156,334901,0.0-7.0-0.0,tg8e1i0prar,2022-09-19 16:21:47.359,62e416f154e4c9e7f39d5cf7,1,66,44,55,53,28,Male,2531.0,,"
  <table>
  <tr height=300>
    <td width=300 height=300><img src=""static/images/cards/stack_of_black_stars.svg"" width=""175px"" height=""250px""></img></td>
    <td width=300 height=300><img src=""static/images/cards/stack_of_black_moons.svg"" width=""175px"" height=""250px""></img></td>
  </tr>
  <tr height=200>
    <td width=300><img src=""static/images/keys/w.svg"" width=""35%"" height=""75%""></img></td>
    <td width=300><img src=""static/images/keys/o.svg"" width=""35%"" height=""75%""></img></td>
  </tr>
</table>
  ",79.0,,,,,,,,,,,,,,,,,,,,,,,,,1.0,,
157,0,,html-keyboard-response,157,336486,0.0-7.0-1.0,tg8e1i0prar,2022-09-19 16:21:47.359,62e416f154e4c9e7f39d5cf7,1,66,44,55,53,28,Male,1070.0,,"
  <table>
  <tr height=300>
    <td width=300 height=300><img src=""static/images/cards/back_of_black_moons.svg"" width=""175px"" height=""250px""></img></td>
    <td width=300 height=300><img src=""static/images/cards/back_of_black_moons.svg"" width=""175px"" height=""250px""></img></td>
  </tr>
  <tr height=200>
    <td width=300><img src=""static/images/keys/z.svg"" width=""35%"" height=""75%""></img></td>
    <td width=300></td>
  </tr>
</table>
  ",90.0,,,,,,,,,,,,,,,,,,,,,,,,,1.0,,
158,0,,html-keyboard-response,158,338000,0.0-7.0-2.0,tg8e1i0prar,2022-09-19 16:21:47.359,62e416f154e4c9e7f39d5cf7,1,66,44,55,53,28,Male,,,"
  <table>
  <tr height=300>
    <td width=300 height=300><img src=""static/images/cards/2_of_black_moons.svg"" width=""175px"" height=""250px""></img></td>
    <td width=300 height=300><img src=""static/images/cards/back_of_black_moons.svg"" width=""175px"" height=""250px""></img></td>
  </tr>
  <tr height=200>
    <td width=300><img src=""static/images/keys/z.svg"" width=""35%"" height=""75%""></img></td>
    <td width=300></td>
  </tr>
</table>
  ",,,,,,,,,,,,,,,,,,,,,,,,,,,,
159,0,,html-keyboard-response,159,339503,0.0-7.0-3.0,tg8e1i0prar,2022-09-19 16:21:47.359,62e416f154e4c9e7f39d5cf7,1,66,44,55,53,28,Male,,,"<p style=""font-size:50px"">You Lose!
No points this round.</p>",,,,,,,,,,,,,,,,,,,,,,,,,,,,
160,0,,html-keyboard-response,160,340026,0.0-7.0-4.0,tg8e1i0prar,2022-09-19 16:21:47.359,62e416f154e4c9e7f39d5cf7,1,66,44,55,53,28,Male,,,,,1.0,choice,0.0,B,D,black,black,stars,moons,D,B,B,black,moons,2531.0,0.0,1.0,1,left,1070.0,2.0,0.0,0.0,,,,
161,0,,html-keyboard-response,161,342114,0.0-7.1-0.1,tg8e1i0prar,2022-09-19 16:21:47.359,62e416f154e4c9e7f39d5cf7,1,66,44,55,53,28,Male,2086.0,,"
  <table>
  <tr height=300>
    <td width=300 height=300><img src=""static/images/cards/stack_of_black_stars.svg"" width=""175px"" height=""250px""></img></td>
    <td width=300 height=300><img src=""static/images/cards/stack_of_black_moons.svg"" width=""175px"" height=""250px""></img></td>
  </tr>
  <tr height=200>
    <td width=300><img src=""static/images/keys/w.svg"" width=""35%"" height=""75%""></img></td>
    <td width=300><img src=""static/images/keys/o.svg"" width=""35%"" height=""75%""></img></td>
  </tr>
</table>
  ",79.0,,,,,,,,,,,,,,,,,,,,,,,,,1.0,,
162,0,,html-keyboard-response,162,343849,0.0-7.1-1.1,tg8e1i0prar,2022-09-19 16:21:47.359,62e416f154e4c9e7f39d5cf7,1,66,44,55,53,28,Male,1225.0,,"
  <table>
  <tr height=300>
    <td width=300 height=300><img src=""static/images/cards/back_of_black_moons.svg"" width=""175px"" height=""250px""></img></td>
    <td width=300 height=300><img src=""static/images/cards/back_of_black_moons.svg"" width=""175px"" height=""250px""></img></td>
  </tr>
  <tr height=200>
    <td width=300></td>
    <td width=300><img src=""static/images/keys/m.svg"" width=""35%"" height=""75%""></img></td>
  </tr>
</table>
  ",77.0,,,,,,,,,,,,,,,,,,,,,,,,,1.0,,
163,0,,html-keyboard-response,163,345362,0.0-7.1-2.1,tg8e1i0prar,2022-09-19 16:21:47.359,62e416f154e4c9e7f39d5cf7,1,66,44,55,53,28,Male,,,"
  <table>
  <tr height=300>
    <td width=300 height=300><img src=""static/images/cards/back_of_black_moons.svg"" width=""175px"" height=""250px""></img></td>
    <td width=300 height=300><img src=""static/images/cards/2_of_black_moons.svg"" width=""175px"" height=""250px""></img></td>
  </tr>
  <tr height=200>
    <td width=300></td>
    <td width=300><img src=""static/images/keys/m.svg"" width=""35%"" height=""75%""></img></td>
  </tr>
</table>
  ",,,,,,,,,,,,,,,,,,,,,,,,,,,,
164,0,,html-keyboard-response,164,346886,0.0-7.1-3.1,tg8e1i0prar,2022-09-19 16:21:47.359,62e416f154e4c9e7f39d5cf7,1,66,44,55,53,28,Male,,,"<p style=""font-size:50px"">You Lose!
No points this round.</p>",,,,,,,,,,,,,,,,,,,,,,,,,,,,
165,0,,html-keyboard-response,165,347414,0.0-7.1-4.1,tg8e1i0prar,2022-09-19 16:21:47.359,62e416f154e4c9e7f39d5cf7,1,66,44,55,53,28,Male,,,,,1.0,choice,1.0,B,D,black,black,stars,moons,D,B,B,black,moons,2086.0,0.0,1.0,0,right,1225.0,2.0,0.0,0.0,,,,
166,0,,html-keyboard-response,166,349631,0.0-7.2-0.2,tg8e1i0prar,2022-09-19 16:21:47.359,62e416f154e4c9e7f39d5cf7,1,66,44,55,53,28,Male,2217.0,,"
  <table>
  <tr height=300>
    <td width=300 height=300><img src=""static/images/cards/stack_of_red_stars.svg"" width=""175px"" height=""250px""></img></td>
    <td width=300 height=300><img src=""static/images/cards/stack_of_red_moons.svg"" width=""175px"" height=""250px""></img></td>
  </tr>
  <tr height=200>
    <td width=300><img src=""static/images/keys/w.svg"" width=""35%"" height=""75%""></img></td>
    <td width=300><img src=""static/images/keys/o.svg"" width=""35%"" height=""75%""></img></td>
  </tr>
</table>
  ",79.0,,,,,,,,,,,,,,,,,,,,,,,,,1.0,,
167,0,,html-keyboard-response,167,351440,0.0-7.2-1.2,tg8e1i0prar,2022-09-19 16:21:47.359,62e416f154e4c9e7f39d5cf7,1,66,44,55,53,28,Male,1299.0,,"
  <table>
  <tr height=300>
    <td width=300 height=300><img src=""static/images/cards/back_of_red_moons.svg"" width=""175px"" height=""250px""></img></td>
    <td width=300 height=300><img src=""static/images/cards/back_of_red_moons.svg"" width=""175px"" height=""250px""></img></td>
  </tr>
  <tr height=200>
    <td width=300><img src=""static/images/keys/z.svg"" width=""35%"" height=""75%""></img></td>
    <td width=300><img src=""static/images/keys/m.svg"" width=""35%"" height=""75%""></img></td>
  </tr>
</table>
  ",77.0,,,,,,,,,,,,,,,,,,,,,,,,,1.0,,
168,0,,html-keyboard-response,168,352948,0.0-7.2-2.2,tg8e1i0prar,2022-09-19 16:21:47.359,62e416f154e4c9e7f39d5cf7,1,66,44,55,53,28,Male,,,"
  <table>
  <tr height=300>
    <td width=300 height=300><img src=""static/images/cards/back_of_red_moons.svg"" width=""175px"" height=""250px""></img></td>
    <td width=300 height=300><img src=""static/images/cards/1_of_red_moons.svg"" width=""175px"" height=""250px""></img></td>
  </tr>
  <tr height=200>
    <td width=300><img src=""static/images/keys/z.svg"" width=""35%"" height=""75%""></img></td>
    <td width=300><img src=""static/images/keys/m.svg"" width=""35%"" height=""75%""></img></td>
  </tr>
</table>
  ",,,,,,,,,,,,,,,,,,,,,,,,,,,,
169,0,,html-keyboard-response,169,354475,0.0-7.2-3.2,tg8e1i0prar,2022-09-19 16:21:47.359,62e416f154e4c9e7f39d5cf7,1,66,44,55,53,28,Male,,,"<p style=""font-size:50px"">You Lose!
No points this round.</p>",,,,,,,,,,,,,,,,,,,,,,,,,,,,
170,0,,html-keyboard-response,170,355004,0.0-7.2-4.2,tg8e1i0prar,2022-09-19 16:21:47.359,62e416f154e4c9e7f39d5cf7,1,66,44,55,53,28,Male,,,,,1.0,choice,2.0,A,C,red,red,stars,moons,C,A,A,red,moons,2217.0,1.0,1.0,NA,right,1299.0,1.0,0.0,0.0,,,,
171,0,,html-keyboard-response,171,355871,0.0-7.3-0.3,tg8e1i0prar,2022-09-19 16:21:47.359,62e416f154e4c9e7f39d5cf7,1,66,44,55,53,28,Male,867.0,,"
  <table>
  <tr height=300>
    <td width=300 height=300><img src=""static/images/cards/stack_of_black_bolts.svg"" width=""175px"" height=""250px""></img></td>
    <td width=300 height=300><img src=""static/images/cards/stack_of_red_moons.svg"" width=""175px"" height=""250px""></img></td>
  </tr>
  <tr height=200>
    <td width=300><img src=""static/images/keys/w.svg"" width=""35%"" height=""75%""></img></td>
    <td width=300><img src=""static/images/keys/o.svg"" width=""35%"" height=""75%""></img></td>
  </tr>
</table>
  ",79.0,,,,,,,,,,,,,,,,,,,,,,,,,1.0,,
172,0,,html-keyboard-response,172,357658,0.0-7.3-1.3,tg8e1i0prar,2022-09-19 16:21:47.359,62e416f154e4c9e7f39d5cf7,1,66,44,55,53,28,Male,1270.0,,"
  <table>
  <tr height=300>
    <td width=300 height=300><img src=""static/images/cards/back_of_red_moons.svg"" width=""175px"" height=""250px""></img></td>
    <td width=300 height=300><img src=""static/images/cards/back_of_red_moons.svg"" width=""175px"" height=""250px""></img></td>
  </tr>
  <tr height=200>
    <td width=300><img src=""static/images/keys/z.svg"" width=""35%"" height=""75%""></img></td>
    <td width=300><img src=""static/images/keys/m.svg"" width=""35%"" height=""75%""></img></td>
  </tr>
</table>
  ",90.0,,,,,,,,,,,,,,,,,,,,,,,,,1.0,,
173,0,,html-keyboard-response,173,359168,0.0-7.3-2.3,tg8e1i0prar,2022-09-19 16:21:47.359,62e416f154e4c9e7f39d5cf7,1,66,44,55,53,28,Male,,,"
  <table>
  <tr height=300>
    <td width=300 height=300><img src=""static/images/cards/10_of_red_moons.svg"" width=""175px"" height=""250px""></img></td>
    <td width=300 height=300><img src=""static/images/cards/back_of_red_moons.svg"" width=""175px"" height=""250px""></img></td>
  </tr>
  <tr height=200>
    <td width=300><img src=""static/images/keys/z.svg"" width=""35%"" height=""75%""></img></td>
    <td width=300><img src=""static/images/keys/m.svg"" width=""35%"" height=""75%""></img></td>
  </tr>
</table>
  ",,,,,,,,,,,,,,,,,,,,,,,,,,,,
174,0,,html-keyboard-response,174,360690,0.0-7.3-3.3,tg8e1i0prar,2022-09-19 16:21:47.359,62e416f154e4c9e7f39d5cf7,1,66,44,55,53,28,Male,,,"<p style=""font-size:50px"">You win!
+10 points this round!</p>",,,,,,,,,,,,,,,,,,,,,,,,,,,,
175,0,,html-keyboard-response,175,361219,0.0-7.3-4.3,tg8e1i0prar,2022-09-19 16:21:47.359,62e416f154e4c9e7f39d5cf7,1,66,44,55,53,28,Male,,,,,1.0,choice,3.0,A,Xnc,black,red,bolts,moons,Xnc,A,A,red,moons,867.0,1.0,1.0,NA,left,1270.0,10.0,1.0,1.0,,,,
176,0,,html-keyboard-response,176,363591,0.0-7.4-0.4,tg8e1i0prar,2022-09-19 16:21:47.359,62e416f154e4c9e7f39d5cf7,1,66,44,55,53,28,Male,2371.0,,"
  <table>
  <tr height=300>
    <td width=300 height=300><img src=""static/images/cards/stack_of_red_stars.svg"" width=""175px"" height=""250px""></img></td>
    <td width=300 height=300><img src=""static/images/cards/stack_of_red_moons.svg"" width=""175px"" height=""250px""></img></td>
  </tr>
  <tr height=200>
    <td width=300><img src=""static/images/keys/w.svg"" width=""35%"" height=""75%""></img></td>
    <td width=300><img src=""static/images/keys/o.svg"" width=""35%"" height=""75%""></img></td>
  </tr>
</table>
  ",79.0,,,,,,,,,,,,,,,,,,,,,,,,,1.0,,
177,0,,html-keyboard-response,177,365187,0.0-7.4-1.4,tg8e1i0prar,2022-09-19 16:21:47.359,62e416f154e4c9e7f39d5cf7,1,66,44,55,53,28,Male,1082.0,,"
  <table>
  <tr height=300>
    <td width=300 height=300><img src=""static/images/cards/back_of_red_moons.svg"" width=""175px"" height=""250px""></img></td>
    <td width=300 height=300><img src=""static/images/cards/back_of_red_moons.svg"" width=""175px"" height=""250px""></img></td>
  </tr>
  <tr height=200>
    <td width=300><img src=""static/images/keys/z.svg"" width=""35%"" height=""75%""></img></td>
    <td width=300><img src=""static/images/keys/m.svg"" width=""35%"" height=""75%""></img></td>
  </tr>
</table>
  ",77.0,,,,,,,,,,,,,,,,,,,,,,,,,1.0,,
178,0,,html-keyboard-response,178,366689,0.0-7.4-2.4,tg8e1i0prar,2022-09-19 16:21:47.359,62e416f154e4c9e7f39d5cf7,1,66,44,55,53,28,Male,,,"
  <table>
  <tr height=300>
    <td width=300 height=300><img src=""static/images/cards/back_of_red_moons.svg"" width=""175px"" height=""250px""></img></td>
    <td width=300 height=300><img src=""static/images/cards/10_of_red_moons.svg"" width=""175px"" height=""250px""></img></td>
  </tr>
  <tr height=200>
    <td width=300><img src=""static/images/keys/z.svg"" width=""35%"" height=""75%""></img></td>
    <td width=300><img src=""static/images/keys/m.svg"" width=""35%"" height=""75%""></img></td>
  </tr>
</table>
  ",,,,,,,,,,,,,,,,,,,,,,,,,,,,
179,0,,html-keyboard-response,179,368204,0.0-7.4-3.4,tg8e1i0prar,2022-09-19 16:21:47.359,62e416f154e4c9e7f39d5cf7,1,66,44,55,53,28,Male,,,"<p style=""font-size:50px"">You win!
+10 points this round!</p>",,,,,,,,,,,,,,,,,,,,,,,,,,,,
180,0,,html-keyboard-response,180,368720,0.0-7.4-4.4,tg8e1i0prar,2022-09-19 16:21:47.359,62e416f154e4c9e7f39d5cf7,1,66,44,55,53,28,Male,,,,,1.0,choice,4.0,A,C,red,red,stars,moons,C,A,A,red,moons,2371.0,1.0,1.0,NA,right,1082.0,10.0,1.0,1.0,,,,
181,0,,html-keyboard-response,181,369770,0.0-7.5-0.5,tg8e1i0prar,2022-09-19 16:21:47.359,62e416f154e4c9e7f39d5cf7,1,66,44,55,53,28,Male,1048.0,,"
  <table>
  <tr height=300>
    <td width=300 height=300><img src=""static/images/cards/stack_of_red_moons.svg"" width=""175px"" height=""250px""></img></td>
    <td width=300 height=300><img src=""static/images/cards/stack_of_black_stars.svg"" width=""175px"" height=""250px""></img></td>
  </tr>
  <tr height=200>
    <td width=300><img src=""static/images/keys/w.svg"" width=""35%"" height=""75%""></img></td>
    <td width=300><img src=""static/images/keys/o.svg"" width=""35%"" height=""75%""></img></td>
  </tr>
</table>
  ",87.0,,,,,,,,,,,,,,,,,,,,,,,,,1.0,,
182,0,,html-keyboard-response,182,371258,0.0-7.5-1.5,tg8e1i0prar,2022-09-19 16:21:47.359,62e416f154e4c9e7f39d5cf7,1,66,44,55,53,28,Male,983.0,,"
  <table>
  <tr height=300>
    <td width=300 height=300><img src=""static/images/cards/back_of_red_moons.svg"" width=""175px"" height=""250px""></img></td>
    <td width=300 height=300><img src=""static/images/cards/back_of_red_moons.svg"" width=""175px"" height=""250px""></img></td>
  </tr>
  <tr height=200>
    <td width=300><img src=""static/images/keys/z.svg"" width=""35%"" height=""75%""></img></td>
    <td width=300><img src=""static/images/keys/m.svg"" width=""35%"" height=""75%""></img></td>
  </tr>
</table>
  ",77.0,,,,,,,,,,,,,,,,,,,,,,,,,1.0,,
183,0,,html-keyboard-response,183,372765,0.0-7.5-2.5,tg8e1i0prar,2022-09-19 16:21:47.359,62e416f154e4c9e7f39d5cf7,1,66,44,55,53,28,Male,,,"
  <table>
  <tr height=300>
    <td width=300 height=300><img src=""static/images/cards/back_of_red_moons.svg"" width=""175px"" height=""250px""></img></td>
    <td width=300 height=300><img src=""static/images/cards/8_of_red_moons.svg"" width=""175px"" height=""250px""></img></td>
  </tr>
  <tr height=200>
    <td width=300><img src=""static/images/keys/z.svg"" width=""35%"" height=""75%""></img></td>
    <td width=300><img src=""static/images/keys/m.svg"" width=""35%"" height=""75%""></img></td>
  </tr>
</table>
  ",,,,,,,,,,,,,,,,,,,,,,,,,,,,
184,0,,html-keyboard-response,184,374278,0.0-7.5-3.5,tg8e1i0prar,2022-09-19 16:21:47.359,62e416f154e4c9e7f39d5cf7,1,66,44,55,53,28,Male,,,"<p style=""font-size:50px"">You win!
+10 points this round!</p>",,,,,,,,,,,,,,,,,,,,,,,,,,,,
185,0,,html-keyboard-response,185,374808,0.0-7.5-4.5,tg8e1i0prar,2022-09-19 16:21:47.359,62e416f154e4c9e7f39d5cf7,1,66,44,55,53,28,Male,,,,,1.0,choice,5.0,A,D,red,black,moons,stars,A,D,A,red,moons,1048.0,1.0,1.0,NA,right,983.0,8.0,1.0,1.0,,,,
186,0,,html-keyboard-response,186,376120,0.0-7.6-0.6,tg8e1i0prar,2022-09-19 16:21:47.359,62e416f154e4c9e7f39d5cf7,1,66,44,55,53,28,Male,1311.0,,"
  <table>
  <tr height=300>
    <td width=300 height=300><img src=""static/images/cards/stack_of_black_stars.svg"" width=""175px"" height=""250px""></img></td>
    <td width=300 height=300><img src=""static/images/cards/stack_of_black_bolts.svg"" width=""175px"" height=""250px""></img></td>
  </tr>
  <tr height=200>
    <td width=300><img src=""static/images/keys/w.svg"" width=""35%"" height=""75%""></img></td>
    <td width=300><img src=""static/images/keys/o.svg"" width=""35%"" height=""75%""></img></td>
  </tr>
</table>
  ",79.0,,,,,,,,,,,,,,,,,,,,,,,,,1.0,,
187,0,,html-keyboard-response,187,377027,0.0-7.6-1.6,tg8e1i0prar,2022-09-19 16:21:47.359,62e416f154e4c9e7f39d5cf7,1,66,44,55,53,28,Male,405.0,,"
  <table>
  <tr height=300>
    <td width=300 height=300><img src=""static/images/cards/back_of_black_bolts.svg"" width=""175px"" height=""250px""></img></td>
    <td width=300 height=300><img src=""static/images/cards/back_of_black_bolts.svg"" width=""175px"" height=""250px""></img></td>
  </tr>
  <tr height=200>
    <td width=300></td>
    <td width=300><img src=""static/images/keys/m.svg"" width=""35%"" height=""75%""></img></td>
  </tr>
</table>
  ",77.0,,,,,,,,,,,,,,,,,,,,,,,,,1.0,,
188,0,,html-keyboard-response,188,378539,0.0-7.6-2.6,tg8e1i0prar,2022-09-19 16:21:47.359,62e416f154e4c9e7f39d5cf7,1,66,44,55,53,28,Male,,,"
  <table>
  <tr height=300>
    <td width=300 height=300><img src=""static/images/cards/back_of_black_bolts.svg"" width=""175px"" height=""250px""></img></td>
    <td width=300 height=300><img src=""static/images/cards/8_of_black_bolts.svg"" width=""175px"" height=""250px""></img></td>
  </tr>
  <tr height=200>
    <td width=300></td>
    <td width=300><img src=""static/images/keys/m.svg"" width=""35%"" height=""75%""></img></td>
  </tr>
</table>
  ",,,,,,,,,,,,,,,,,,,,,,,,,,,,
189,0,,html-keyboard-response,189,380068,0.0-7.6-3.6,tg8e1i0prar,2022-09-19 16:21:47.359,62e416f154e4c9e7f39d5cf7,1,66,44,55,53,28,Male,,,"<p style=""font-size:50px"">You win!
+10 points this round!</p>",,,,,,,,,,,,,,,,,,,,,,,,,,,,
190,0,,html-keyboard-response,190,380598,0.0-7.6-4.6,tg8e1i0prar,2022-09-19 16:21:47.359,62e416f154e4c9e7f39d5cf7,1,66,44,55,53,28,Male,,,,,1.0,choice,6.0,D,Xnc,black,black,stars,bolts,D,Xnc,Xnc,black,bolts,1311.0,0.0,0.0,0,right,405.0,8.0,1.0,1.0,,,,
191,0,,html-keyboard-response,191,382004,0.0-7.7-0.7,tg8e1i0prar,2022-09-19 16:21:47.359,62e416f154e4c9e7f39d5cf7,1,66,44,55,53,28,Male,1406.0,,"
  <table>
  <tr height=300>
    <td width=300 height=300><img src=""static/images/cards/stack_of_red_moons.svg"" width=""175px"" height=""250px""></img></td>
    <td width=300 height=300><img src=""static/images/cards/stack_of_black_stars.svg"" width=""175px"" height=""250px""></img></td>
  </tr>
  <tr height=200>
    <td width=300><img src=""static/images/keys/w.svg"" width=""35%"" height=""75%""></img></td>
    <td width=300><img src=""static/images/keys/o.svg"" width=""35%"" height=""75%""></img></td>
  </tr>
</table>
  ",87.0,,,,,,,,,,,,,,,,,,,,,,,,,1.0,,
192,0,,html-keyboard-response,192,383142,0.0-7.7-1.7,tg8e1i0prar,2022-09-19 16:21:47.359,62e416f154e4c9e7f39d5cf7,1,66,44,55,53,28,Male,628.0,,"
  <table>
  <tr height=300>
    <td width=300 height=300><img src=""static/images/cards/back_of_red_moons.svg"" width=""175px"" height=""250px""></img></td>
    <td width=300 height=300><img src=""static/images/cards/back_of_red_moons.svg"" width=""175px"" height=""250px""></img></td>
  </tr>
  <tr height=200>
    <td width=300><img src=""static/images/keys/z.svg"" width=""35%"" height=""75%""></img></td>
    <td width=300><img src=""static/images/keys/m.svg"" width=""35%"" height=""75%""></img></td>
  </tr>
</table>
  ",90.0,,,,,,,,,,,,,,,,,,,,,,,,,1.0,,
193,0,,html-keyboard-response,193,384651,0.0-7.7-2.7,tg8e1i0prar,2022-09-19 16:21:47.359,62e416f154e4c9e7f39d5cf7,1,66,44,55,53,28,Male,,,"
  <table>
  <tr height=300>
    <td width=300 height=300><img src=""static/images/cards/6_of_red_moons.svg"" width=""175px"" height=""250px""></img></td>
    <td width=300 height=300><img src=""static/images/cards/back_of_red_moons.svg"" width=""175px"" height=""250px""></img></td>
  </tr>
  <tr height=200>
    <td width=300><img src=""static/images/keys/z.svg"" width=""35%"" height=""75%""></img></td>
    <td width=300><img src=""static/images/keys/m.svg"" width=""35%"" height=""75%""></img></td>
  </tr>
</table>
  ",,,,,,,,,,,,,,,,,,,,,,,,,,,,
194,0,,html-keyboard-response,194,386166,0.0-7.7-3.7,tg8e1i0prar,2022-09-19 16:21:47.359,62e416f154e4c9e7f39d5cf7,1,66,44,55,53,28,Male,,,"<p style=""font-size:50px"">You win!
+10 points this round!</p>",,,,,,,,,,,,,,,,,,,,,,,,,,,,
195,0,,html-keyboard-response,195,386696,0.0-7.7-4.7,tg8e1i0prar,2022-09-19 16:21:47.359,62e416f154e4c9e7f39d5cf7,1,66,44,55,53,28,Male,,,,,1.0,choice,7.0,A,D,red,black,moons,stars,A,D,A,red,moons,1406.0,1.0,1.0,NA,left,628.0,6.0,1.0,1.0,,,,
196,0,,html-keyboard-response,196,387492,0.0-7.8-0.8,tg8e1i0prar,2022-09-19 16:21:47.359,62e416f154e4c9e7f39d5cf7,1,66,44,55,53,28,Male,796.0,,"
  <table>
  <tr height=300>
    <td width=300 height=300><img src=""static/images/cards/stack_of_red_bolts.svg"" width=""175px"" height=""250px""></img></td>
    <td width=300 height=300><img src=""static/images/cards/stack_of_red_stars.svg"" width=""175px"" height=""250px""></img></td>
  </tr>
  <tr height=200>
    <td width=300><img src=""static/images/keys/w.svg"" width=""35%"" height=""75%""></img></td>
    <td width=300><img src=""static/images/keys/o.svg"" width=""35%"" height=""75%""></img></td>
  </tr>
</table>
  ",87.0,,,,,,,,,,,,,,,,,,,,,,,,,1.0,,
197,0,,html-keyboard-response,197,388741,0.0-7.8-1.8,tg8e1i0prar,2022-09-19 16:21:47.359,62e416f154e4c9e7f39d5cf7,1,66,44,55,53,28,Male,734.0,,"
  <table>
  <tr height=300>
    <td width=300 height=300><img src=""static/images/cards/back_of_red_bolts.svg"" width=""175px"" height=""250px""></img></td>
    <td width=300 height=300><img src=""static/images/cards/back_of_red_bolts.svg"" width=""175px"" height=""250px""></img></td>
  </tr>
  <tr height=200>
    <td width=300><img src=""static/images/keys/z.svg"" width=""35%"" height=""75%""></img></td>
    <td width=300><img src=""static/images/keys/m.svg"" width=""35%"" height=""75%""></img></td>
  </tr>
</table>
  ",77.0,,,,,,,,,,,,,,,,,,,,,,,,,1.0,,
198,0,,html-keyboard-response,198,390245,0.0-7.8-2.8,tg8e1i0prar,2022-09-19 16:21:47.359,62e416f154e4c9e7f39d5cf7,1,66,44,55,53,28,Male,,,"
  <table>
  <tr height=300>
    <td width=300 height=300><img src=""static/images/cards/back_of_red_bolts.svg"" width=""175px"" height=""250px""></img></td>
    <td width=300 height=300><img src=""static/images/cards/8_of_red_bolts.svg"" width=""175px"" height=""250px""></img></td>
  </tr>
  <tr height=200>
    <td width=300><img src=""static/images/keys/z.svg"" width=""35%"" height=""75%""></img></td>
    <td width=300><img src=""static/images/keys/m.svg"" width=""35%"" height=""75%""></img></td>
  </tr>
</table>
  ",,,,,,,,,,,,,,,,,,,,,,,,,,,,
199,0,,html-keyboard-response,199,391769,0.0-7.8-3.8,tg8e1i0prar,2022-09-19 16:21:47.359,62e416f154e4c9e7f39d5cf7,1,66,44,55,53,28,Male,,,"<p style=""font-size:50px"">You win!
+10 points this round!</p>",,,,,,,,,,,,,,,,,,,,,,,,,,,,
200,0,,html-keyboard-response,200,392299,0.0-7.8-4.8,tg8e1i0prar,2022-09-19 16:21:47.359,62e416f154e4c9e7f39d5cf7,1,66,44,55,53,28,Male,,,,,1.0,choice,8.0,C,Xc,red,red,bolts,stars,Xc,C,Xc,red,bolts,796.0,1.0,0.0,NA,right,734.0,8.0,1.0,1.0,,,,
201,0,,html-keyboard-response,201,394287,0.0-7.9-0.9,tg8e1i0prar,2022-09-19 16:21:47.359,62e416f154e4c9e7f39d5cf7,1,66,44,55,53,28,Male,1988.0,,"
  <table>
  <tr height=300>
    <td width=300 height=300><img src=""static/images/cards/stack_of_red_moons.svg"" width=""175px"" height=""250px""></img></td>
    <td width=300 height=300><img src=""static/images/cards/stack_of_red_stars.svg"" width=""175px"" height=""250px""></img></td>
  </tr>
  <tr height=200>
    <td width=300><img src=""static/images/keys/w.svg"" width=""35%"" height=""75%""></img></td>
    <td width=300><img src=""static/images/keys/o.svg"" width=""35%"" height=""75%""></img></td>
  </tr>
</table>
  ",87.0,,,,,,,,,,,,,,,,,,,,,,,,,1.0,,
202,0,,html-keyboard-response,202,395400,0.0-7.9-1.9,tg8e1i0prar,2022-09-19 16:21:47.359,62e416f154e4c9e7f39d5cf7,1,66,44,55,53,28,Male,610.0,,"
  <table>
  <tr height=300>
    <td width=300 height=300><img src=""static/images/cards/back_of_red_moons.svg"" width=""175px"" height=""250px""></img></td>
    <td width=300 height=300><img src=""static/images/cards/back_of_red_moons.svg"" width=""175px"" height=""250px""></img></td>
  </tr>
  <tr height=200>
    <td width=300><img src=""static/images/keys/z.svg"" width=""35%"" height=""75%""></img></td>
    <td width=300><img src=""static/images/keys/m.svg"" width=""35%"" height=""75%""></img></td>
  </tr>
</table>
  ",77.0,,,,,,,,,,,,,,,,,,,,,,,,,1.0,,
203,0,,html-keyboard-response,203,396907,0.0-7.9-2.9,tg8e1i0prar,2022-09-19 16:21:47.359,62e416f154e4c9e7f39d5cf7,1,66,44,55,53,28,Male,,,"
  <table>
  <tr height=300>
    <td width=300 height=300><img src=""static/images/cards/back_of_red_moons.svg"" width=""175px"" height=""250px""></img></td>
    <td width=300 height=300><img src=""static/images/cards/4_of_red_moons.svg"" width=""175px"" height=""250px""></img></td>
  </tr>
  <tr height=200>
    <td width=300><img src=""static/images/keys/z.svg"" width=""35%"" height=""75%""></img></td>
    <td width=300><img src=""static/images/keys/m.svg"" width=""35%"" height=""75%""></img></td>
  </tr>
</table>
  ",,,,,,,,,,,,,,,,,,,,,,,,,,,,
204,0,,html-keyboard-response,204,398439,0.0-7.9-3.9,tg8e1i0prar,2022-09-19 16:21:47.359,62e416f154e4c9e7f39d5cf7,1,66,44,55,53,28,Male,,,"<p style=""font-size:50px"">You Lose!
No points this round.</p>",,,,,,,,,,,,,,,,,,,,,,,,,,,,
205,0,,html-keyboard-response,205,398964,0.0-7.9-4.9,tg8e1i0prar,2022-09-19 16:21:47.359,62e416f154e4c9e7f39d5cf7,1,66,44,55,53,28,Male,,,,,1.0,choice,9.0,A,C,red,red,moons,stars,A,C,A,red,moons,1988.0,1.0,1.0,NA,right,610.0,4.0,0.0,0.0,,,,
206,0,,html-keyboard-response,206,401110,0.0-7.10-0.10,tg8e1i0prar,2022-09-19 16:21:47.359,62e416f154e4c9e7f39d5cf7,1,66,44,55,53,28,Male,2144.0,,"
  <table>
  <tr height=300>
    <td width=300 height=300><img src=""static/images/cards/stack_of_red_stars.svg"" width=""175px"" height=""250px""></img></td>
    <td width=300 height=300><img src=""static/images/cards/stack_of_black_moons.svg"" width=""175px"" height=""250px""></img></td>
  </tr>
  <tr height=200>
    <td width=300><img src=""static/images/keys/w.svg"" width=""35%"" height=""75%""></img></td>
    <td width=300><img src=""static/images/keys/o.svg"" width=""35%"" height=""75%""></img></td>
  </tr>
</table>
  ",87.0,,,,,,,,,,,,,,,,,,,,,,,,,1.0,,
207,0,,html-keyboard-response,207,403060,0.0-7.10-1.10,tg8e1i0prar,2022-09-19 16:21:47.359,62e416f154e4c9e7f39d5cf7,1,66,44,55,53,28,Male,1447.0,,"
  <table>
  <tr height=300>
    <td width=300 height=300><img src=""static/images/cards/back_of_red_stars.svg"" width=""175px"" height=""250px""></img></td>
    <td width=300 height=300><img src=""static/images/cards/back_of_red_stars.svg"" width=""175px"" height=""250px""></img></td>
  </tr>
  <tr height=200>
    <td width=300><img src=""static/images/keys/z.svg"" width=""35%"" height=""75%""></img></td>
    <td width=300><img src=""static/images/keys/m.svg"" width=""35%"" height=""75%""></img></td>
  </tr>
</table>
  ",77.0,,,,,,,,,,,,,,,,,,,,,,,,,1.0,,
208,0,,html-keyboard-response,208,404574,0.0-7.10-2.10,tg8e1i0prar,2022-09-19 16:21:47.359,62e416f154e4c9e7f39d5cf7,1,66,44,55,53,28,Male,,,"
  <table>
  <tr height=300>
    <td width=300 height=300><img src=""static/images/cards/back_of_red_stars.svg"" width=""175px"" height=""250px""></img></td>
    <td width=300 height=300><img src=""static/images/cards/8_of_red_stars.svg"" width=""175px"" height=""250px""></img></td>
  </tr>
  <tr height=200>
    <td width=300><img src=""static/images/keys/z.svg"" width=""35%"" height=""75%""></img></td>
    <td width=300><img src=""static/images/keys/m.svg"" width=""35%"" height=""75%""></img></td>
  </tr>
</table>
  ",,,,,,,,,,,,,,,,,,,,,,,,,,,,
209,0,,html-keyboard-response,209,406098,0.0-7.10-3.10,tg8e1i0prar,2022-09-19 16:21:47.359,62e416f154e4c9e7f39d5cf7,1,66,44,55,53,28,Male,,,"<p style=""font-size:50px"">You win!
+10 points this round!</p>",,,,,,,,,,,,,,,,,,,,,,,,,,,,
210,0,,html-keyboard-response,210,406625,0.0-7.10-4.10,tg8e1i0prar,2022-09-19 16:21:47.359,62e416f154e4c9e7f39d5cf7,1,66,44,55,53,28,Male,,,,,1.0,choice,10.0,B,C,red,black,stars,moons,C,B,C,red,stars,2144.0,1.0,0.0,NA,right,1447.0,8.0,1.0,1.0,,,,
211,0,,html-keyboard-response,211,407999,0.0-7.11-0.11,tg8e1i0prar,2022-09-19 16:21:47.359,62e416f154e4c9e7f39d5cf7,1,66,44,55,53,28,Male,1373.0,,"
  <table>
  <tr height=300>
    <td width=300 height=300><img src=""static/images/cards/stack_of_black_stars.svg"" width=""175px"" height=""250px""></img></td>
    <td width=300 height=300><img src=""static/images/cards/stack_of_red_moons.svg"" width=""175px"" height=""250px""></img></td>
  </tr>
  <tr height=200>
    <td width=300><img src=""static/images/keys/w.svg"" width=""35%"" height=""75%""></img></td>
    <td width=300><img src=""static/images/keys/o.svg"" width=""35%"" height=""75%""></img></td>
  </tr>
</table>
  ",79.0,,,,,,,,,,,,,,,,,,,,,,,,,1.0,,
212,0,,html-keyboard-response,212,408801,0.0-7.11-1.11,tg8e1i0prar,2022-09-19 16:21:47.359,62e416f154e4c9e7f39d5cf7,1,66,44,55,53,28,Male,286.0,,"
  <table>
  <tr height=300>
    <td width=300 height=300><img src=""static/images/cards/back_of_red_moons.svg"" width=""175px"" height=""250px""></img></td>
    <td width=300 height=300><img src=""static/images/cards/back_of_red_moons.svg"" width=""175px"" height=""250px""></img></td>
  </tr>
  <tr height=200>
    <td width=300><img src=""static/images/keys/z.svg"" width=""35%"" height=""75%""></img></td>
    <td width=300><img src=""static/images/keys/m.svg"" width=""35%"" height=""75%""></img></td>
  </tr>
</table>
  ",90.0,,,,,,,,,,,,,,,,,,,,,,,,,1.0,,
213,0,,html-keyboard-response,213,410303,0.0-7.11-2.11,tg8e1i0prar,2022-09-19 16:21:47.359,62e416f154e4c9e7f39d5cf7,1,66,44,55,53,28,Male,,,"
  <table>
  <tr height=300>
    <td width=300 height=300><img src=""static/images/cards/7_of_red_moons.svg"" width=""175px"" height=""250px""></img></td>
    <td width=300 height=300><img src=""static/images/cards/back_of_red_moons.svg"" width=""175px"" height=""250px""></img></td>
  </tr>
  <tr height=200>
    <td width=300><img src=""static/images/keys/z.svg"" width=""35%"" height=""75%""></img></td>
    <td width=300><img src=""static/images/keys/m.svg"" width=""35%"" height=""75%""></img></td>
  </tr>
</table>
  ",,,,,,,,,,,,,,,,,,,,,,,,,,,,
214,0,,html-keyboard-response,214,411829,0.0-7.11-3.11,tg8e1i0prar,2022-09-19 16:21:47.359,62e416f154e4c9e7f39d5cf7,1,66,44,55,53,28,Male,,,"<p style=""font-size:50px"">You win!
+10 points this round!</p>",,,,,,,,,,,,,,,,,,,,,,,,,,,,
215,0,,html-keyboard-response,215,412357,0.0-7.11-4.11,tg8e1i0prar,2022-09-19 16:21:47.359,62e416f154e4c9e7f39d5cf7,1,66,44,55,53,28,Male,,,,,1.0,choice,11.0,A,D,black,red,stars,moons,D,A,A,red,moons,1373.0,1.0,1.0,NA,left,286.0,7.0,1.0,1.0,,,,
216,0,,html-keyboard-response,216,414652,0.0-7.12-0.12,tg8e1i0prar,2022-09-19 16:21:47.359,62e416f154e4c9e7f39d5cf7,1,66,44,55,53,28,Male,2294.0,,"
  <table>
  <tr height=300>
    <td width=300 height=300><img src=""static/images/cards/stack_of_red_moons.svg"" width=""175px"" height=""250px""></img></td>
    <td width=300 height=300><img src=""static/images/cards/stack_of_black_stars.svg"" width=""175px"" height=""250px""></img></td>
  </tr>
  <tr height=200>
    <td width=300><img src=""static/images/keys/w.svg"" width=""35%"" height=""75%""></img></td>
    <td width=300><img src=""static/images/keys/o.svg"" width=""35%"" height=""75%""></img></td>
  </tr>
</table>
  ",87.0,,,,,,,,,,,,,,,,,,,,,,,,,1.0,,
217,0,,html-keyboard-response,217,415775,0.0-7.12-1.12,tg8e1i0prar,2022-09-19 16:21:47.359,62e416f154e4c9e7f39d5cf7,1,66,44,55,53,28,Male,615.0,,"
  <table>
  <tr height=300>
    <td width=300 height=300><img src=""static/images/cards/back_of_red_moons.svg"" width=""175px"" height=""250px""></img></td>
    <td width=300 height=300><img src=""static/images/cards/back_of_red_moons.svg"" width=""175px"" height=""250px""></img></td>
  </tr>
  <tr height=200>
    <td width=300><img src=""static/images/keys/z.svg"" width=""35%"" height=""75%""></img></td>
    <td width=300><img src=""static/images/keys/m.svg"" width=""35%"" height=""75%""></img></td>
  </tr>
</table>
  ",90.0,,,,,,,,,,,,,,,,,,,,,,,,,1.0,,
218,0,,html-keyboard-response,218,417290,0.0-7.12-2.12,tg8e1i0prar,2022-09-19 16:21:47.359,62e416f154e4c9e7f39d5cf7,1,66,44,55,53,28,Male,,,"
  <table>
  <tr height=300>
    <td width=300 height=300><img src=""static/images/cards/9_of_red_moons.svg"" width=""175px"" height=""250px""></img></td>
    <td width=300 height=300><img src=""static/images/cards/back_of_red_moons.svg"" width=""175px"" height=""250px""></img></td>
  </tr>
  <tr height=200>
    <td width=300><img src=""static/images/keys/z.svg"" width=""35%"" height=""75%""></img></td>
    <td width=300><img src=""static/images/keys/m.svg"" width=""35%"" height=""75%""></img></td>
  </tr>
</table>
  ",,,,,,,,,,,,,,,,,,,,,,,,,,,,
219,0,,html-keyboard-response,219,418801,0.0-7.12-3.12,tg8e1i0prar,2022-09-19 16:21:47.359,62e416f154e4c9e7f39d5cf7,1,66,44,55,53,28,Male,,,"<p style=""font-size:50px"">You win!
+10 points this round!</p>",,,,,,,,,,,,,,,,,,,,,,,,,,,,
220,0,,html-keyboard-response,220,419319,0.0-7.12-4.12,tg8e1i0prar,2022-09-19 16:21:47.359,62e416f154e4c9e7f39d5cf7,1,66,44,55,53,28,Male,,,,,1.0,choice,12.0,A,D,red,black,moons,stars,A,D,A,red,moons,2294.0,1.0,1.0,NA,left,615.0,9.0,1.0,1.0,,,,
221,0,,html-keyboard-response,221,420980,0.0-7.13-0.13,tg8e1i0prar,2022-09-19 16:21:47.359,62e416f154e4c9e7f39d5cf7,1,66,44,55,53,28,Male,1660.0,,"
  <table>
  <tr height=300>
    <td width=300 height=300><img src=""static/images/cards/stack_of_black_stars.svg"" width=""175px"" height=""250px""></img></td>
    <td width=300 height=300><img src=""static/images/cards/stack_of_black_moons.svg"" width=""175px"" height=""250px""></img></td>
  </tr>
  <tr height=200>
    <td width=300><img src=""static/images/keys/w.svg"" width=""35%"" height=""75%""></img></td>
    <td width=300><img src=""static/images/keys/o.svg"" width=""35%"" height=""75%""></img></td>
  </tr>
</table>
  ",79.0,,,,,,,,,,,,,,,,,,,,,,,,,1.0,,
222,0,,html-keyboard-response,222,422119,0.0-7.13-1.13,tg8e1i0prar,2022-09-19 16:21:47.359,62e416f154e4c9e7f39d5cf7,1,66,44,55,53,28,Male,624.0,,"
  <table>
  <tr height=300>
    <td width=300 height=300><img src=""static/images/cards/back_of_black_moons.svg"" width=""175px"" height=""250px""></img></td>
    <td width=300 height=300><img src=""static/images/cards/back_of_black_moons.svg"" width=""175px"" height=""250px""></img></td>
  </tr>
  <tr height=200>
    <td width=300></td>
    <td width=300><img src=""static/images/keys/m.svg"" width=""35%"" height=""75%""></img></td>
  </tr>
</table>
  ",77.0,,,,,,,,,,,,,,,,,,,,,,,,,1.0,,
223,0,,html-keyboard-response,223,423625,0.0-7.13-2.13,tg8e1i0prar,2022-09-19 16:21:47.359,62e416f154e4c9e7f39d5cf7,1,66,44,55,53,28,Male,,,"
  <table>
  <tr height=300>
    <td width=300 height=300><img src=""static/images/cards/back_of_black_moons.svg"" width=""175px"" height=""250px""></img></td>
    <td width=300 height=300><img src=""static/images/cards/2_of_black_moons.svg"" width=""175px"" height=""250px""></img></td>
  </tr>
  <tr height=200>
    <td width=300></td>
    <td width=300><img src=""static/images/keys/m.svg"" width=""35%"" height=""75%""></img></td>
  </tr>
</table>
  ",,,,,,,,,,,,,,,,,,,,,,,,,,,,
224,0,,html-keyboard-response,224,425135,0.0-7.13-3.13,tg8e1i0prar,2022-09-19 16:21:47.359,62e416f154e4c9e7f39d5cf7,1,66,44,55,53,28,Male,,,"<p style=""font-size:50px"">You Lose!
No points this round.</p>",,,,,,,,,,,,,,,,,,,,,,,,,,,,
225,0,,html-keyboard-response,225,425666,0.0-7.13-4.13,tg8e1i0prar,2022-09-19 16:21:47.359,62e416f154e4c9e7f39d5cf7,1,66,44,55,53,28,Male,,,,,1.0,choice,13.0,B,D,black,black,stars,moons,D,B,B,black,moons,1660.0,0.0,1.0,0,right,624.0,2.0,0.0,0.0,,,,
226,0,,html-keyboard-response,226,426588,0.0-7.14-0.14,tg8e1i0prar,2022-09-19 16:21:47.359,62e416f154e4c9e7f39d5cf7,1,66,44,55,53,28,Male,922.0,,"
  <table>
  <tr height=300>
    <td width=300 height=300><img src=""static/images/cards/stack_of_black_moons.svg"" width=""175px"" height=""250px""></img></td>
    <td width=300 height=300><img src=""static/images/cards/stack_of_red_moons.svg"" width=""175px"" height=""250px""></img></td>
  </tr>
  <tr height=200>
    <td width=300><img src=""static/images/keys/w.svg"" width=""35%"" height=""75%""></img></td>
    <td width=300><img src=""static/images/keys/o.svg"" width=""35%"" height=""75%""></img></td>
  </tr>
</table>
  ",79.0,,,,,,,,,,,,,,,,,,,,,,,,,1.0,,
227,0,,html-keyboard-response,227,427449,0.0-7.14-1.14,tg8e1i0prar,2022-09-19 16:21:47.359,62e416f154e4c9e7f39d5cf7,1,66,44,55,53,28,Male,348.0,,"
  <table>
  <tr height=300>
    <td width=300 height=300><img src=""static/images/cards/back_of_red_moons.svg"" width=""175px"" height=""250px""></img></td>
    <td width=300 height=300><img src=""static/images/cards/back_of_red_moons.svg"" width=""175px"" height=""250px""></img></td>
  </tr>
  <tr height=200>
    <td width=300><img src=""static/images/keys/z.svg"" width=""35%"" height=""75%""></img></td>
    <td width=300><img src=""static/images/keys/m.svg"" width=""35%"" height=""75%""></img></td>
  </tr>
</table>
  ",77.0,,,,,,,,,,,,,,,,,,,,,,,,,1.0,,
228,0,,html-keyboard-response,228,428959,0.0-7.14-2.14,tg8e1i0prar,2022-09-19 16:21:47.359,62e416f154e4c9e7f39d5cf7,1,66,44,55,53,28,Male,,,"
  <table>
  <tr height=300>
    <td width=300 height=300><img src=""static/images/cards/back_of_red_moons.svg"" width=""175px"" height=""250px""></img></td>
    <td width=300 height=300><img src=""static/images/cards/4_of_red_moons.svg"" width=""175px"" height=""250px""></img></td>
  </tr>
  <tr height=200>
    <td width=300><img src=""static/images/keys/z.svg"" width=""35%"" height=""75%""></img></td>
    <td width=300><img src=""static/images/keys/m.svg"" width=""35%"" height=""75%""></img></td>
  </tr>
</table>
  ",,,,,,,,,,,,,,,,,,,,,,,,,,,,
229,0,,html-keyboard-response,229,430481,0.0-7.14-3.14,tg8e1i0prar,2022-09-19 16:21:47.359,62e416f154e4c9e7f39d5cf7,1,66,44,55,53,28,Male,,,"<p style=""font-size:50px"">You Lose!
No points this round.</p>",,,,,,,,,,,,,,,,,,,,,,,,,,,,
230,0,,html-keyboard-response,230,431009,0.0-7.14-4.14,tg8e1i0prar,2022-09-19 16:21:47.359,62e416f154e4c9e7f39d5cf7,1,66,44,55,53,28,Male,,,,,1.0,choice,14.0,A,B,black,red,moons,moons,B,A,A,red,moons,922.0,1.0,1.0,NA,right,348.0,4.0,0.0,0.0,,,,
231,0,,html-keyboard-response,231,431719,0.0-7.15-0.15,tg8e1i0prar,2022-09-19 16:21:47.359,62e416f154e4c9e7f39d5cf7,1,66,44,55,53,28,Male,710.0,,"
  <table>
  <tr height=300>
    <td width=300 height=300><img src=""static/images/cards/stack_of_red_stars.svg"" width=""175px"" height=""250px""></img></td>
    <td width=300 height=300><img src=""static/images/cards/stack_of_black_stars.svg"" width=""175px"" height=""250px""></img></td>
  </tr>
  <tr height=200>
    <td width=300><img src=""static/images/keys/w.svg"" width=""35%"" height=""75%""></img></td>
    <td width=300><img src=""static/images/keys/o.svg"" width=""35%"" height=""75%""></img></td>
  </tr>
</table>
  ",87.0,,,,,,,,,,,,,,,,,,,,,,,,,1.0,,
232,0,,html-keyboard-response,232,433261,0.0-7.15-1.15,tg8e1i0prar,2022-09-19 16:21:47.359,62e416f154e4c9e7f39d5cf7,1,66,44,55,53,28,Male,1031.0,,"
  <table>
  <tr height=300>
    <td width=300 height=300><img src=""static/images/cards/back_of_red_stars.svg"" width=""175px"" height=""250px""></img></td>
    <td width=300 height=300><img src=""static/images/cards/back_of_red_stars.svg"" width=""175px"" height=""250px""></img></td>
  </tr>
  <tr height=200>
    <td width=300><img src=""static/images/keys/z.svg"" width=""35%"" height=""75%""></img></td>
    <td width=300><img src=""static/images/keys/m.svg"" width=""35%"" height=""75%""></img></td>
  </tr>
</table>
  ",90.0,,,,,,,,,,,,,,,,,,,,,,,,,1.0,,
233,0,,html-keyboard-response,233,434768,0.0-7.15-2.15,tg8e1i0prar,2022-09-19 16:21:47.359,62e416f154e4c9e7f39d5cf7,1,66,44,55,53,28,Male,,,"
  <table>
  <tr height=300>
    <td width=300 height=300><img src=""static/images/cards/1_of_red_stars.svg"" width=""175px"" height=""250px""></img></td>
    <td width=300 height=300><img src=""static/images/cards/back_of_red_stars.svg"" width=""175px"" height=""250px""></img></td>
  </tr>
  <tr height=200>
    <td width=300><img src=""static/images/keys/z.svg"" width=""35%"" height=""75%""></img></td>
    <td width=300><img src=""static/images/keys/m.svg"" width=""35%"" height=""75%""></img></td>
  </tr>
</table>
  ",,,,,,,,,,,,,,,,,,,,,,,,,,,,
234,0,,html-keyboard-response,234,436296,0.0-7.15-3.15,tg8e1i0prar,2022-09-19 16:21:47.359,62e416f154e4c9e7f39d5cf7,1,66,44,55,53,28,Male,,,"<p style=""font-size:50px"">You win!
+10 points this round!</p>",,,,,,,,,,,,,,,,,,,,,,,,,,,,
235,0,,html-keyboard-response,235,436823,0.0-7.15-4.15,tg8e1i0prar,2022-09-19 16:21:47.359,62e416f154e4c9e7f39d5cf7,1,66,44,55,53,28,Male,,,,,1.0,choice,15.0,C,D,red,black,stars,stars,C,D,C,red,stars,710.0,1.0,0.0,NA,left,1031.0,1.0,0.0,1.0,,,,
236,0,,html-keyboard-response,236,437990,0.0-7.16-0.16,tg8e1i0prar,2022-09-19 16:21:47.359,62e416f154e4c9e7f39d5cf7,1,66,44,55,53,28,Male,1167.0,,"
  <table>
  <tr height=300>
    <td width=300 height=300><img src=""static/images/cards/stack_of_black_stars.svg"" width=""175px"" height=""250px""></img></td>
    <td width=300 height=300><img src=""static/images/cards/stack_of_red_moons.svg"" width=""175px"" height=""250px""></img></td>
  </tr>
  <tr height=200>
    <td width=300><img src=""static/images/keys/w.svg"" width=""35%"" height=""75%""></img></td>
    <td width=300><img src=""static/images/keys/o.svg"" width=""35%"" height=""75%""></img></td>
  </tr>
</table>
  ",79.0,,,,,,,,,,,,,,,,,,,,,,,,,1.0,,
237,0,,html-keyboard-response,237,439431,0.0-7.16-1.16,tg8e1i0prar,2022-09-19 16:21:47.359,62e416f154e4c9e7f39d5cf7,1,66,44,55,53,28,Male,940.0,,"
  <table>
  <tr height=300>
    <td width=300 height=300><img src=""static/images/cards/back_of_red_moons.svg"" width=""175px"" height=""250px""></img></td>
    <td width=300 height=300><img src=""static/images/cards/back_of_red_moons.svg"" width=""175px"" height=""250px""></img></td>
  </tr>
  <tr height=200>
    <td width=300><img src=""static/images/keys/z.svg"" width=""35%"" height=""75%""></img></td>
    <td width=300><img src=""static/images/keys/m.svg"" width=""35%"" height=""75%""></img></td>
  </tr>
</table>
  ",90.0,,,,,,,,,,,,,,,,,,,,,,,,,1.0,,
238,0,,html-keyboard-response,238,440937,0.0-7.16-2.16,tg8e1i0prar,2022-09-19 16:21:47.359,62e416f154e4c9e7f39d5cf7,1,66,44,55,53,28,Male,,,"
  <table>
  <tr height=300>
    <td width=300 height=300><img src=""static/images/cards/10_of_red_moons.svg"" width=""175px"" height=""250px""></img></td>
    <td width=300 height=300><img src=""static/images/cards/back_of_red_moons.svg"" width=""175px"" height=""250px""></img></td>
  </tr>
  <tr height=200>
    <td width=300><img src=""static/images/keys/z.svg"" width=""35%"" height=""75%""></img></td>
    <td width=300><img src=""static/images/keys/m.svg"" width=""35%"" height=""75%""></img></td>
  </tr>
</table>
  ",,,,,,,,,,,,,,,,,,,,,,,,,,,,
239,0,,html-keyboard-response,239,442452,0.0-7.16-3.16,tg8e1i0prar,2022-09-19 16:21:47.359,62e416f154e4c9e7f39d5cf7,1,66,44,55,53,28,Male,,,"<p style=""font-size:50px"">You win!
+10 points this round!</p>",,,,,,,,,,,,,,,,,,,,,,,,,,,,
240,0,,html-keyboard-response,240,442971,0.0-7.16-4.16,tg8e1i0prar,2022-09-19 16:21:47.359,62e416f154e4c9e7f39d5cf7,1,66,44,55,53,28,Male,,,,,1.0,choice,16.0,A,D,black,red,stars,moons,D,A,A,red,moons,1167.0,1.0,1.0,NA,left,940.0,10.0,1.0,1.0,,,,
