,index,success,trial_type,trial_index,time_elapsed,internal_node_id,subject,date,prol_id,ctbl,sense_of_control_A,sense_of_control_B,sense_of_control_C,sense_of_control_D,age,gender,rt,url,stimulus,key_press,npress,is_data_trial,phase,trial,deck1,deck2,col1,col2,sym1,sym2,deck_l,deck_r,chosen_deck,chosen_col,chosen_sym,deck_rt,choose_choice,mutual_info,hidden_key,chosen_card,card_rt,player_num,win_card,outcome,mock_rating,response,responses
0,0,1.0,fullscreen,0,9535,0.0-0.0,4ntxytn7kqm,2022-09-19 14:52:42.864,5cfecc1e96681500168a1799,1,55,46,37,37,26,Male,,,,,,,,,,,,,,,,,,,,,,,,,,,,,,,
1,0,,external-html,1,18699,0.0-1.0,4ntxytn7kqm,2022-09-19 14:52:42.864,5cfecc1e96681500168a1799,1,55,46,37,37,26,Male,9116.7,static/js/sub/consent.html,,,,,,,,,,,,,,,,,,,,,,,,,,,,,
2,0,,call-function,2,18703,0.0-2.0,4ntxytn7kqm,2022-09-19 14:52:42.864,5cfecc1e96681500168a1799,1,55,46,37,37,26,Male,,,,,,,,,,,,,,,,,,,,,,,,,,,,,,,
3,0,,image-keyboard-response,3,24072,0.0-3.0-0.0,4ntxytn7kqm,2022-09-19 14:52:42.864,5cfecc1e96681500168a1799,1,55,46,37,37,26,Male,5367.4,,static/images/instructions_CB_1/Slide1.png,39.0,,,,,,,,,,,,,,,,,,,,,,,,,,,
4,0,,image-keyboard-response,4,29760,0.0-3.1-0.1,4ntxytn7kqm,2022-09-19 14:52:42.864,5cfecc1e96681500168a1799,1,55,46,37,37,26,Male,5687.2,,static/images/instructions_CB_1/Slide2.png,39.0,,,,,,,,,,,,,,,,,,,,,,,,,,,
5,0,,image-keyboard-response,5,33080,0.0-3.2-0.2,4ntxytn7kqm,2022-09-19 14:52:42.864,5cfecc1e96681500168a1799,1,55,46,37,37,26,Male,3318.8,,static/images/instructions_CB_1/Slide3.png,39.0,,,,,,,,,,,,,,,,,,,,,,,,,,,
6,0,,image-keyboard-response,6,36722,0.0-3.3-0.3,4ntxytn7kqm,2022-09-19 14:52:42.864,5cfecc1e96681500168a1799,1,55,46,37,37,26,Male,3640.3,,static/images/instructions_CB_1/Slide4.png,39.0,,,,,,,,,,,,,,,,,,,,,,,,,,,
7,0,,image-keyboard-response,7,49834,0.0-3.4-0.4,4ntxytn7kqm,2022-09-19 14:52:42.864,5cfecc1e96681500168a1799,1,55,46,37,37,26,Male,13121.7,,static/images/instructions_CB_1/Slide5.png,39.0,,,,,,,,,,,,,,,,,,,,,,,,,,,
8,0,,image-keyboard-response,8,52447,0.0-3.5-0.5,4ntxytn7kqm,2022-09-19 14:52:42.864,5cfecc1e96681500168a1799,1,55,46,37,37,26,Male,2612.3,,static/images/instructions_CB_1/Slide6.png,39.0,,,,,,,,,,,,,,,,,,,,,,,,,,,
9,0,,image-keyboard-response,9,58235,0.0-3.6-0.6,4ntxytn7kqm,2022-09-19 14:52:42.864,5cfecc1e96681500168a1799,1,55,46,37,37,26,Male,5786.8,,static/images/instructions_CB_1/Slide7.png,39.0,,,,,,,,,,,,,,,,,,,,,,,,,,,
10,0,,image-keyboard-response,10,77050,0.0-3.7-0.7,4ntxytn7kqm,2022-09-19 14:52:42.864,5cfecc1e96681500168a1799,1,55,46,37,37,26,Male,18814.2,,static/images/instructions_CB_1/Slide8.png,39.0,,,,,,,,,,,,,,,,,,,,,,,,,,,
11,0,,image-keyboard-response,11,82045,0.0-3.8-0.8,4ntxytn7kqm,2022-09-19 14:52:42.864,5cfecc1e96681500168a1799,1,55,46,37,37,26,Male,4994.5,,static/images/instructions_CB_1/Slide9.png,39.0,,,,,,,,,,,,,,,,,,,,,,,,,,,
12,0,,image-keyboard-response,12,89908,0.0-3.9-0.9,4ntxytn7kqm,2022-09-19 14:52:42.864,5cfecc1e96681500168a1799,1,55,46,37,37,26,Male,7862.4,,static/images/instructions_CB_1/Slide10.png,39.0,,,,,,,,,,,,,,,,,,,,,,,,,,,
13,0,,image-keyboard-response,13,96176,0.0-3.10-0.10,4ntxytn7kqm,2022-09-19 14:52:42.864,5cfecc1e96681500168a1799,1,55,46,37,37,26,Male,6267.6,,static/images/instructions_CB_1/Slide11.png,39.0,,,,,,,,,,,,,,,,,,,,,,,,,,,
14,0,,image-keyboard-response,14,120378,0.0-3.11-0.11,4ntxytn7kqm,2022-09-19 14:52:42.864,5cfecc1e96681500168a1799,1,55,46,37,37,26,Male,24192.4,,static/images/instructions_CB_1/Slide12.png,39.0,,,,,,,,,,,,,,,,,,,,,,,,,,,
15,0,,image-keyboard-response,15,138342,0.0-3.12-0.12,4ntxytn7kqm,2022-09-19 14:52:42.864,5cfecc1e96681500168a1799,1,55,46,37,37,26,Male,17963.3,,static/images/instructions_CB_1/Slide13.png,39.0,,,,,,,,,,,,,,,,,,,,,,,,,,,
16,0,,image-keyboard-response,16,150123,0.0-3.13-0.13,4ntxytn7kqm,2022-09-19 14:52:42.864,5cfecc1e96681500168a1799,1,55,46,37,37,26,Male,11781.1,,static/images/instructions_CB_1/Slide14.png,39.0,,,,,,,,,,,,,,,,,,,,,,,,,,,
17,0,,image-keyboard-response,17,159564,0.0-3.14-0.14,4ntxytn7kqm,2022-09-19 14:52:42.864,5cfecc1e96681500168a1799,1,55,46,37,37,26,Male,9440.4,,static/images/instructions_CB_1/Slide15.png,39.0,,,,,,,,,,,,,,,,,,,,,,,,,,,
18,0,,image-keyboard-response,18,169596,0.0-3.15-0.15,4ntxytn7kqm,2022-09-19 14:52:42.864,5cfecc1e96681500168a1799,1,55,46,37,37,26,Male,10031.3,,static/images/instructions_CB_1/Slide16.png,39.0,,,,,,,,,,,,,,,,,,,,,,,,,,,
19,0,,image-keyboard-response,19,177300,0.0-3.16-0.16,4ntxytn7kqm,2022-09-19 14:52:42.864,5cfecc1e96681500168a1799,1,55,46,37,37,26,Male,7703.1,,static/images/instructions_CB_1/Slide17.png,39.0,,,,,,,,,,,,,,,,,,,,,,,,,,,
20,0,,image-keyboard-response,20,194515,0.0-3.17-0.17,4ntxytn7kqm,2022-09-19 14:52:42.864,5cfecc1e96681500168a1799,1,55,46,37,37,26,Male,17222.3,,static/images/instructions_CB_1/Slide18.png,39.0,,,,,,,,,,,,,,,,,,,,,,,,,,,
21,0,,image-keyboard-response,21,202734,0.0-3.18-0.18,4ntxytn7kqm,2022-09-19 14:52:42.864,5cfecc1e96681500168a1799,1,55,46,37,37,26,Male,8219.3,,static/images/instructions_CB_1/Slide19.png,39.0,,,,,,,,,,,,,,,,,,,,,,,,,,,
22,0,,html-keyboard-response,22,204236,0.0-4.0-0.0,4ntxytn7kqm,2022-09-19 14:52:42.864,5cfecc1e96681500168a1799,1,55,46,37,37,26,Male,,,"<img src=""static/images/cards/stack_of_red_moons.svg"" width=""175px"" height=""250px""></img>",,,,,,,,,,,,,,,,,,,,,,,,,,,,
23,0,,html-keyboard-response,23,205730,0.0-4.0-1.0,4ntxytn7kqm,2022-09-19 14:52:42.864,5cfecc1e96681500168a1799,1,55,46,37,37,26,Male,982.8,,"
  <table>
  <tr height=300>
    <td width=300 height=300><img src=""static/images/cards/back_of_red_moons.svg"" width=""175px"" height=""250px""></img></td>
    <td width=300 height=300><img src=""static/images/cards/back_of_red_moons.svg"" width=""175px"" height=""250px""></img></td>
  </tr>
  <tr height=200>
    <td width=300><img src=""static/images/keys/z.svg"" width=""35%"" height=""75%""></img></td>
    <td width=300><img src=""static/images/keys/m.svg"" width=""35%"" height=""75%""></img></td>
  </tr>
</table>
  ",77.0,1.0,,,,,,,,,,,,,,,,,,,,,,,,,,
24,0,,html-keyboard-response,24,207242,0.0-4.0-2.0,4ntxytn7kqm,2022-09-19 14:52:42.864,5cfecc1e96681500168a1799,1,55,46,37,37,26,Male,,,"
  <table>
  <tr height=300>
    <td width=300 height=300><img src=""static/images/cards/back_of_red_moons.svg"" width=""175px"" height=""250px""></img></td>
    <td width=300 height=300><img src=""static/images/cards/6_of_red_moons.svg"" width=""175px"" height=""250px""></img></td>
  </tr>
  <tr height=200>
    <td width=300><img src=""static/images/keys/z.svg"" width=""35%"" height=""75%""></img></td>
    <td width=300><img src=""static/images/keys/m.svg"" width=""35%"" height=""75%""></img></td>
  </tr>
</table>
  ",,,,,,,,,,,,,,,,,,,,,,,,,,,,
25,0,,html-keyboard-response,25,208758,0.0-4.0-3.0,4ntxytn7kqm,2022-09-19 14:52:42.864,5cfecc1e96681500168a1799,1,55,46,37,37,26,Male,,,"<p style=""font-size:50px"">You win!
+10 points this round!</p>",,,,,,,,,,,,,,,,,,,,,,,,,,,,
26,0,,html-keyboard-response,26,209276,0.0-4.0-4.0,4ntxytn7kqm,2022-09-19 14:52:42.864,5cfecc1e96681500168a1799,1,55,46,37,37,26,Male,,,,,,1.0,learning,0.0,A,,red,,moons,,,,A,red,moons,,1.0,1.0,NA,right,982.8,6.0,1.0,1.0,,,
27,0,,html-keyboard-response,27,210788,0.0-4.1-0.1,4ntxytn7kqm,2022-09-19 14:52:42.864,5cfecc1e96681500168a1799,1,55,46,37,37,26,Male,,,"<img src=""static/images/cards/stack_of_black_moons.svg"" width=""175px"" height=""250px""></img>",,,,,,,,,,,,,,,,,,,,,,,,,,,,
28,0,,html-keyboard-response,28,212132,0.0-4.1-1.1,4ntxytn7kqm,2022-09-19 14:52:42.864,5cfecc1e96681500168a1799,1,55,46,37,37,26,Male,836.7,,"
  <table>
  <tr height=300>
    <td width=300 height=300><img src=""static/images/cards/back_of_black_moons.svg"" width=""175px"" height=""250px""></img></td>
    <td width=300 height=300><img src=""static/images/cards/back_of_black_moons.svg"" width=""175px"" height=""250px""></img></td>
  </tr>
  <tr height=200>
    <td width=300><img src=""static/images/keys/z.svg"" width=""35%"" height=""75%""></img></td>
    <td width=300></td>
  </tr>
</table>
  ",90.0,1.0,,,,,,,,,,,,,,,,,,,,,,,,,,
29,0,,html-keyboard-response,29,213636,0.0-4.1-2.1,4ntxytn7kqm,2022-09-19 14:52:42.864,5cfecc1e96681500168a1799,1,55,46,37,37,26,Male,,,"
  <table>
  <tr height=300>
    <td width=300 height=300><img src=""static/images/cards/2_of_black_moons.svg"" width=""175px"" height=""250px""></img></td>
    <td width=300 height=300><img src=""static/images/cards/back_of_black_moons.svg"" width=""175px"" height=""250px""></img></td>
  </tr>
  <tr height=200>
    <td width=300><img src=""static/images/keys/z.svg"" width=""35%"" height=""75%""></img></td>
    <td width=300></td>
  </tr>
</table>
  ",,,,,,,,,,,,,,,,,,,,,,,,,,,,
30,0,,html-keyboard-response,30,215160,0.0-4.1-3.1,4ntxytn7kqm,2022-09-19 14:52:42.864,5cfecc1e96681500168a1799,1,55,46,37,37,26,Male,,,"<p style=""font-size:50px"">You Lose!
No points this round.</p>",,,,,,,,,,,,,,,,,,,,,,,,,,,,
31,0,,html-keyboard-response,31,215667,0.0-4.1-4.1,4ntxytn7kqm,2022-09-19 14:52:42.864,5cfecc1e96681500168a1799,1,55,46,37,37,26,Male,,,,,,1.0,learning,1.0,B,,black,,moons,,,,B,black,moons,,0.0,1.0,1,left,836.7,2.0,0.0,0.0,,,
32,0,,html-keyboard-response,32,217176,0.0-4.2-0.2,4ntxytn7kqm,2022-09-19 14:52:42.864,5cfecc1e96681500168a1799,1,55,46,37,37,26,Male,,,"<img src=""static/images/cards/stack_of_red_stars.svg"" width=""175px"" height=""250px""></img>",,,,,,,,,,,,,,,,,,,,,,,,,,,,
33,0,,html-keyboard-response,33,218408,0.0-4.2-1.2,4ntxytn7kqm,2022-09-19 14:52:42.864,5cfecc1e96681500168a1799,1,55,46,37,37,26,Male,720.3,,"
  <table>
  <tr height=300>
    <td width=300 height=300><img src=""static/images/cards/back_of_red_stars.svg"" width=""175px"" height=""250px""></img></td>
    <td width=300 height=300><img src=""static/images/cards/back_of_red_stars.svg"" width=""175px"" height=""250px""></img></td>
  </tr>
  <tr height=200>
    <td width=300><img src=""static/images/keys/z.svg"" width=""35%"" height=""75%""></img></td>
    <td width=300><img src=""static/images/keys/m.svg"" width=""35%"" height=""75%""></img></td>
  </tr>
</table>
  ",77.0,1.0,,,,,,,,,,,,,,,,,,,,,,,,,,
34,0,,html-keyboard-response,34,219925,0.0-4.2-2.2,4ntxytn7kqm,2022-09-19 14:52:42.864,5cfecc1e96681500168a1799,1,55,46,37,37,26,Male,,,"
  <table>
  <tr height=300>
    <td width=300 height=300><img src=""static/images/cards/back_of_red_stars.svg"" width=""175px"" height=""250px""></img></td>
    <td width=300 height=300><img src=""static/images/cards/8_of_red_stars.svg"" width=""175px"" height=""250px""></img></td>
  </tr>
  <tr height=200>
    <td width=300><img src=""static/images/keys/z.svg"" width=""35%"" height=""75%""></img></td>
    <td width=300><img src=""static/images/keys/m.svg"" width=""35%"" height=""75%""></img></td>
  </tr>
</table>
  ",,,,,,,,,,,,,,,,,,,,,,,,,,,,
35,0,,html-keyboard-response,35,221439,0.0-4.2-3.2,4ntxytn7kqm,2022-09-19 14:52:42.864,5cfecc1e96681500168a1799,1,55,46,37,37,26,Male,,,"<p style=""font-size:50px"">You Lose!
No points this round.</p>",,,,,,,,,,,,,,,,,,,,,,,,,,,,
36,0,,html-keyboard-response,36,221957,0.0-4.2-4.2,4ntxytn7kqm,2022-09-19 14:52:42.864,5cfecc1e96681500168a1799,1,55,46,37,37,26,Male,,,,,,1.0,learning,2.0,C,,red,,stars,,,,C,red,stars,,1.0,0.0,NA,right,720.3,8.0,1.0,0.0,,,
37,0,,html-keyboard-response,37,223462,0.0-4.3-0.3,4ntxytn7kqm,2022-09-19 14:52:42.864,5cfecc1e96681500168a1799,1,55,46,37,37,26,Male,,,"<img src=""static/images/cards/stack_of_black_stars.svg"" width=""175px"" height=""250px""></img>",,,,,,,,,,,,,,,,,,,,,,,,,,,,
38,0,,html-keyboard-response,38,224690,0.0-4.3-1.3,4ntxytn7kqm,2022-09-19 14:52:42.864,5cfecc1e96681500168a1799,1,55,46,37,37,26,Male,712.1,,"
  <table>
  <tr height=300>
    <td width=300 height=300><img src=""static/images/cards/back_of_black_stars.svg"" width=""175px"" height=""250px""></img></td>
    <td width=300 height=300><img src=""static/images/cards/back_of_black_stars.svg"" width=""175px"" height=""250px""></img></td>
  </tr>
  <tr height=200>
    <td width=300><img src=""static/images/keys/z.svg"" width=""35%"" height=""75%""></img></td>
    <td width=300></td>
  </tr>
</table>
  ",90.0,1.0,,,,,,,,,,,,,,,,,,,,,,,,,,
39,0,,html-keyboard-response,39,226199,0.0-4.3-2.3,4ntxytn7kqm,2022-09-19 14:52:42.864,5cfecc1e96681500168a1799,1,55,46,37,37,26,Male,,,"
  <table>
  <tr height=300>
    <td width=300 height=300><img src=""static/images/cards/7_of_black_stars.svg"" width=""175px"" height=""250px""></img></td>
    <td width=300 height=300><img src=""static/images/cards/back_of_black_stars.svg"" width=""175px"" height=""250px""></img></td>
  </tr>
  <tr height=200>
    <td width=300><img src=""static/images/keys/z.svg"" width=""35%"" height=""75%""></img></td>
    <td width=300></td>
  </tr>
</table>
  ",,,,,,,,,,,,,,,,,,,,,,,,,,,,
40,0,,html-keyboard-response,40,227722,0.0-4.3-3.3,4ntxytn7kqm,2022-09-19 14:52:42.864,5cfecc1e96681500168a1799,1,55,46,37,37,26,Male,,,"<p style=""font-size:50px"">You Lose!
No points this round.</p>",,,,,,,,,,,,,,,,,,,,,,,,,,,,
41,0,,html-keyboard-response,41,228241,0.0-4.3-4.3,4ntxytn7kqm,2022-09-19 14:52:42.864,5cfecc1e96681500168a1799,1,55,46,37,37,26,Male,,,,,,1.0,learning,3.0,D,,black,,stars,,,,D,black,stars,,0.0,0.0,1,left,712.1,7.0,1.0,0.0,,,
42,0,,html-keyboard-response,42,229750,0.0-4.4-0.4,4ntxytn7kqm,2022-09-19 14:52:42.864,5cfecc1e96681500168a1799,1,55,46,37,37,26,Male,,,"<img src=""static/images/cards/stack_of_red_bolts.svg"" width=""175px"" height=""250px""></img>",,,,,,,,,,,,,,,,,,,,,,,,,,,,
43,0,,html-keyboard-response,43,230718,0.0-4.4-1.4,4ntxytn7kqm,2022-09-19 14:52:42.864,5cfecc1e96681500168a1799,1,55,46,37,37,26,Male,454.9,,"
  <table>
  <tr height=300>
    <td width=300 height=300><img src=""static/images/cards/back_of_red_bolts.svg"" width=""175px"" height=""250px""></img></td>
    <td width=300 height=300><img src=""static/images/cards/back_of_red_bolts.svg"" width=""175px"" height=""250px""></img></td>
  </tr>
  <tr height=200>
    <td width=300><img src=""static/images/keys/z.svg"" width=""35%"" height=""75%""></img></td>
    <td width=300><img src=""static/images/keys/m.svg"" width=""35%"" height=""75%""></img></td>
  </tr>
</table>
  ",90.0,1.0,,,,,,,,,,,,,,,,,,,,,,,,,,
44,0,,html-keyboard-response,44,232234,0.0-4.4-2.4,4ntxytn7kqm,2022-09-19 14:52:42.864,5cfecc1e96681500168a1799,1,55,46,37,37,26,Male,,,"
  <table>
  <tr height=300>
    <td width=300 height=300><img src=""static/images/cards/4_of_red_bolts.svg"" width=""175px"" height=""250px""></img></td>
    <td width=300 height=300><img src=""static/images/cards/back_of_red_bolts.svg"" width=""175px"" height=""250px""></img></td>
  </tr>
  <tr height=200>
    <td width=300><img src=""static/images/keys/z.svg"" width=""35%"" height=""75%""></img></td>
    <td width=300><img src=""static/images/keys/m.svg"" width=""35%"" height=""75%""></img></td>
  </tr>
</table>
  ",,,,,,,,,,,,,,,,,,,,,,,,,,,,
45,0,,html-keyboard-response,45,233755,0.0-4.4-3.4,4ntxytn7kqm,2022-09-19 14:52:42.864,5cfecc1e96681500168a1799,1,55,46,37,37,26,Male,,,"<p style=""font-size:50px"">You win!
+10 points this round!</p>",,,,,,,,,,,,,,,,,,,,,,,,,,,,
46,0,,html-keyboard-response,46,234274,0.0-4.4-4.4,4ntxytn7kqm,2022-09-19 14:52:42.864,5cfecc1e96681500168a1799,1,55,46,37,37,26,Male,,,,,,1.0,learning,4.0,Xc,,red,,bolts,,,,Xc,red,bolts,,1.0,0.0,NA,left,454.9,4.0,0.0,1.0,,,
47,0,,html-keyboard-response,47,235790,0.0-4.5-0.5,4ntxytn7kqm,2022-09-19 14:52:42.864,5cfecc1e96681500168a1799,1,55,46,37,37,26,Male,,,"<img src=""static/images/cards/stack_of_black_bolts.svg"" width=""175px"" height=""250px""></img>",,,,,,,,,,,,,,,,,,,,,,,,,,,,
48,0,,html-keyboard-response,48,236652,0.0-4.5-1.5,4ntxytn7kqm,2022-09-19 14:52:42.864,5cfecc1e96681500168a1799,1,55,46,37,37,26,Male,348.8,,"
  <table>
  <tr height=300>
    <td width=300 height=300><img src=""static/images/cards/back_of_black_bolts.svg"" width=""175px"" height=""250px""></img></td>
    <td width=300 height=300><img src=""static/images/cards/back_of_black_bolts.svg"" width=""175px"" height=""250px""></img></td>
  </tr>
  <tr height=200>
    <td width=300><img src=""static/images/keys/z.svg"" width=""35%"" height=""75%""></img></td>
    <td width=300></td>
  </tr>
</table>
  ",90.0,1.0,,,,,,,,,,,,,,,,,,,,,,,,,,
49,0,,html-keyboard-response,49,238159,0.0-4.5-2.5,4ntxytn7kqm,2022-09-19 14:52:42.864,5cfecc1e96681500168a1799,1,55,46,37,37,26,Male,,,"
  <table>
  <tr height=300>
    <td width=300 height=300><img src=""static/images/cards/7_of_black_bolts.svg"" width=""175px"" height=""250px""></img></td>
    <td width=300 height=300><img src=""static/images/cards/back_of_black_bolts.svg"" width=""175px"" height=""250px""></img></td>
  </tr>
  <tr height=200>
    <td width=300><img src=""static/images/keys/z.svg"" width=""35%"" height=""75%""></img></td>
    <td width=300></td>
  </tr>
</table>
  ",,,,,,,,,,,,,,,,,,,,,,,,,,,,
50,0,,html-keyboard-response,50,239681,0.0-4.5-3.5,4ntxytn7kqm,2022-09-19 14:52:42.864,5cfecc1e96681500168a1799,1,55,46,37,37,26,Male,,,"<p style=""font-size:50px"">You win!
+10 points this round!</p>",,,,,,,,,,,,,,,,,,,,,,,,,,,,
51,0,,html-keyboard-response,51,240187,0.0-4.5-4.5,4ntxytn7kqm,2022-09-19 14:52:42.864,5cfecc1e96681500168a1799,1,55,46,37,37,26,Male,,,,,,1.0,learning,5.0,Xnc,,black,,bolts,,,,Xnc,black,bolts,,0.0,0.0,1,left,348.8,7.0,1.0,1.0,,,
52,0,,html-keyboard-response,52,241694,0.0-4.6-0.6,4ntxytn7kqm,2022-09-19 14:52:42.864,5cfecc1e96681500168a1799,1,55,46,37,37,26,Male,,,"<img src=""static/images/cards/stack_of_red_moons.svg"" width=""175px"" height=""250px""></img>",,,,,,,,,,,,,,,,,,,,,,,,,,,,
53,0,,html-keyboard-response,53,243280,0.0-4.6-1.6,4ntxytn7kqm,2022-09-19 14:52:42.864,5cfecc1e96681500168a1799,1,55,46,37,37,26,Male,1084.0,,"
  <table>
  <tr height=300>
    <td width=300 height=300><img src=""static/images/cards/back_of_red_moons.svg"" width=""175px"" height=""250px""></img></td>
    <td width=300 height=300><img src=""static/images/cards/back_of_red_moons.svg"" width=""175px"" height=""250px""></img></td>
  </tr>
  <tr height=200>
    <td width=300><img src=""static/images/keys/z.svg"" width=""35%"" height=""75%""></img></td>
    <td width=300><img src=""static/images/keys/m.svg"" width=""35%"" height=""75%""></img></td>
  </tr>
</table>
  ",90.0,1.0,,,,,,,,,,,,,,,,,,,,,,,,,,
54,0,,html-keyboard-response,54,244791,0.0-4.6-2.6,4ntxytn7kqm,2022-09-19 14:52:42.864,5cfecc1e96681500168a1799,1,55,46,37,37,26,Male,,,"
  <table>
  <tr height=300>
    <td width=300 height=300><img src=""static/images/cards/1_of_red_moons.svg"" width=""175px"" height=""250px""></img></td>
    <td width=300 height=300><img src=""static/images/cards/back_of_red_moons.svg"" width=""175px"" height=""250px""></img></td>
  </tr>
  <tr height=200>
    <td width=300><img src=""static/images/keys/z.svg"" width=""35%"" height=""75%""></img></td>
    <td width=300><img src=""static/images/keys/m.svg"" width=""35%"" height=""75%""></img></td>
  </tr>
</table>
  ",,,,,,,,,,,,,,,,,,,,,,,,,,,,
55,0,,html-keyboard-response,55,246300,0.0-4.6-3.6,4ntxytn7kqm,2022-09-19 14:52:42.864,5cfecc1e96681500168a1799,1,55,46,37,37,26,Male,,,"<p style=""font-size:50px"">You Lose!
No points this round.</p>",,,,,,,,,,,,,,,,,,,,,,,,,,,,
56,0,,html-keyboard-response,56,246816,0.0-4.6-4.6,4ntxytn7kqm,2022-09-19 14:52:42.864,5cfecc1e96681500168a1799,1,55,46,37,37,26,Male,,,,,,1.0,learning,6.0,A,,red,,moons,,,,A,red,moons,,1.0,1.0,NA,left,1084.0,1.0,0.0,0.0,,,
57,0,,html-keyboard-response,57,248319,0.0-4.7-0.7,4ntxytn7kqm,2022-09-19 14:52:42.864,5cfecc1e96681500168a1799,1,55,46,37,37,26,Male,,,"<img src=""static/images/cards/stack_of_black_moons.svg"" width=""175px"" height=""250px""></img>",,,,,,,,,,,,,,,,,,,,,,,,,,,,
58,0,,html-keyboard-response,58,249181,0.0-4.7-1.7,4ntxytn7kqm,2022-09-19 14:52:42.864,5cfecc1e96681500168a1799,1,55,46,37,37,26,Male,352.7,,"
  <table>
  <tr height=300>
    <td width=300 height=300><img src=""static/images/cards/back_of_black_moons.svg"" width=""175px"" height=""250px""></img></td>
    <td width=300 height=300><img src=""static/images/cards/back_of_black_moons.svg"" width=""175px"" height=""250px""></img></td>
  </tr>
  <tr height=200>
    <td width=300><img src=""static/images/keys/z.svg"" width=""35%"" height=""75%""></img></td>
    <td width=300></td>
  </tr>
</table>
  ",90.0,1.0,,,,,,,,,,,,,,,,,,,,,,,,,,
59,0,,html-keyboard-response,59,250683,0.0-4.7-2.7,4ntxytn7kqm,2022-09-19 14:52:42.864,5cfecc1e96681500168a1799,1,55,46,37,37,26,Male,,,"
  <table>
  <tr height=300>
    <td width=300 height=300><img src=""static/images/cards/6_of_black_moons.svg"" width=""175px"" height=""250px""></img></td>
    <td width=300 height=300><img src=""static/images/cards/back_of_black_moons.svg"" width=""175px"" height=""250px""></img></td>
  </tr>
  <tr height=200>
    <td width=300><img src=""static/images/keys/z.svg"" width=""35%"" height=""75%""></img></td>
    <td width=300></td>
  </tr>
</table>
  ",,,,,,,,,,,,,,,,,,,,,,,,,,,,
60,0,,html-keyboard-response,60,252205,0.0-4.7-3.7,4ntxytn7kqm,2022-09-19 14:52:42.864,5cfecc1e96681500168a1799,1,55,46,37,37,26,Male,,,"<p style=""font-size:50px"">You win!
+10 points this round!</p>",,,,,,,,,,,,,,,,,,,,,,,,,,,,
61,0,,html-keyboard-response,61,252722,0.0-4.7-4.7,4ntxytn7kqm,2022-09-19 14:52:42.864,5cfecc1e96681500168a1799,1,55,46,37,37,26,Male,,,,,,1.0,learning,7.0,B,,black,,moons,,,,B,black,moons,,0.0,1.0,1,left,352.7,6.0,1.0,1.0,,,
62,0,,html-keyboard-response,62,254228,0.0-4.8-0.8,4ntxytn7kqm,2022-09-19 14:52:42.864,5cfecc1e96681500168a1799,1,55,46,37,37,26,Male,,,"<img src=""static/images/cards/stack_of_red_stars.svg"" width=""175px"" height=""250px""></img>",,,,,,,,,,,,,,,,,,,,,,,,,,,,
63,0,,html-keyboard-response,63,255051,0.0-4.8-1.8,4ntxytn7kqm,2022-09-19 14:52:42.864,5cfecc1e96681500168a1799,1,55,46,37,37,26,Male,298.5,,"
  <table>
  <tr height=300>
    <td width=300 height=300><img src=""static/images/cards/back_of_red_stars.svg"" width=""175px"" height=""250px""></img></td>
    <td width=300 height=300><img src=""static/images/cards/back_of_red_stars.svg"" width=""175px"" height=""250px""></img></td>
  </tr>
  <tr height=200>
    <td width=300><img src=""static/images/keys/z.svg"" width=""35%"" height=""75%""></img></td>
    <td width=300><img src=""static/images/keys/m.svg"" width=""35%"" height=""75%""></img></td>
  </tr>
</table>
  ",77.0,1.0,,,,,,,,,,,,,,,,,,,,,,,,,,
64,0,,html-keyboard-response,64,256556,0.0-4.8-2.8,4ntxytn7kqm,2022-09-19 14:52:42.864,5cfecc1e96681500168a1799,1,55,46,37,37,26,Male,,,"
  <table>
  <tr height=300>
    <td width=300 height=300><img src=""static/images/cards/back_of_red_stars.svg"" width=""175px"" height=""250px""></img></td>
    <td width=300 height=300><img src=""static/images/cards/1_of_red_stars.svg"" width=""175px"" height=""250px""></img></td>
  </tr>
  <tr height=200>
    <td width=300><img src=""static/images/keys/z.svg"" width=""35%"" height=""75%""></img></td>
    <td width=300><img src=""static/images/keys/m.svg"" width=""35%"" height=""75%""></img></td>
  </tr>
</table>
  ",,,,,,,,,,,,,,,,,,,,,,,,,,,,
65,0,,html-keyboard-response,65,258075,0.0-4.8-3.8,4ntxytn7kqm,2022-09-19 14:52:42.864,5cfecc1e96681500168a1799,1,55,46,37,37,26,Male,,,"<p style=""font-size:50px"">You Lose!
No points this round.</p>",,,,,,,,,,,,,,,,,,,,,,,,,,,,
66,0,,html-keyboard-response,66,258594,0.0-4.8-4.8,4ntxytn7kqm,2022-09-19 14:52:42.864,5cfecc1e96681500168a1799,1,55,46,37,37,26,Male,,,,,,1.0,learning,8.0,C,,red,,stars,,,,C,red,stars,,1.0,0.0,NA,right,298.5,1.0,0.0,0.0,,,
67,0,,html-keyboard-response,67,260105,0.0-4.9-0.9,4ntxytn7kqm,2022-09-19 14:52:42.864,5cfecc1e96681500168a1799,1,55,46,37,37,26,Male,,,"<img src=""static/images/cards/stack_of_black_stars.svg"" width=""175px"" height=""250px""></img>",,,,,,,,,,,,,,,,,,,,,,,,,,,,
68,0,,html-keyboard-response,68,261179,0.0-4.9-1.9,4ntxytn7kqm,2022-09-19 14:52:42.864,5cfecc1e96681500168a1799,1,55,46,37,37,26,Male,558.5,,"
  <table>
  <tr height=300>
    <td width=300 height=300><img src=""static/images/cards/back_of_black_stars.svg"" width=""175px"" height=""250px""></img></td>
    <td width=300 height=300><img src=""static/images/cards/back_of_black_stars.svg"" width=""175px"" height=""250px""></img></td>
  </tr>
  <tr height=200>
    <td width=300></td>
    <td width=300><img src=""static/images/keys/m.svg"" width=""35%"" height=""75%""></img></td>
  </tr>
</table>
  ",77.0,1.0,,,,,,,,,,,,,,,,,,,,,,,,,,
69,0,,html-keyboard-response,69,262693,0.0-4.9-2.9,4ntxytn7kqm,2022-09-19 14:52:42.864,5cfecc1e96681500168a1799,1,55,46,37,37,26,Male,,,"
  <table>
  <tr height=300>
    <td width=300 height=300><img src=""static/images/cards/back_of_black_stars.svg"" width=""175px"" height=""250px""></img></td>
    <td width=300 height=300><img src=""static/images/cards/7_of_black_stars.svg"" width=""175px"" height=""250px""></img></td>
  </tr>
  <tr height=200>
    <td width=300></td>
    <td width=300><img src=""static/images/keys/m.svg"" width=""35%"" height=""75%""></img></td>
  </tr>
</table>
  ",,,,,,,,,,,,,,,,,,,,,,,,,,,,
70,0,,html-keyboard-response,70,264219,0.0-4.9-3.9,4ntxytn7kqm,2022-09-19 14:52:42.864,5cfecc1e96681500168a1799,1,55,46,37,37,26,Male,,,"<p style=""font-size:50px"">You win!
+10 points this round!</p>",,,,,,,,,,,,,,,,,,,,,,,,,,,,
71,0,,html-keyboard-response,71,264725,0.0-4.9-4.9,4ntxytn7kqm,2022-09-19 14:52:42.864,5cfecc1e96681500168a1799,1,55,46,37,37,26,Male,,,,,,1.0,learning,9.0,D,,black,,stars,,,,D,black,stars,,0.0,0.0,0,right,558.5,7.0,1.0,1.0,,,
72,0,,html-keyboard-response,72,266227,0.0-4.10-0.10,4ntxytn7kqm,2022-09-19 14:52:42.864,5cfecc1e96681500168a1799,1,55,46,37,37,26,Male,,,"<img src=""static/images/cards/stack_of_red_bolts.svg"" width=""175px"" height=""250px""></img>",,,,,,,,,,,,,,,,,,,,,,,,,,,,
73,0,,html-keyboard-response,73,267096,0.0-4.10-1.10,4ntxytn7kqm,2022-09-19 14:52:42.864,5cfecc1e96681500168a1799,1,55,46,37,37,26,Male,358.6,,"
  <table>
  <tr height=300>
    <td width=300 height=300><img src=""static/images/cards/back_of_red_bolts.svg"" width=""175px"" height=""250px""></img></td>
    <td width=300 height=300><img src=""static/images/cards/back_of_red_bolts.svg"" width=""175px"" height=""250px""></img></td>
  </tr>
  <tr height=200>
    <td width=300><img src=""static/images/keys/z.svg"" width=""35%"" height=""75%""></img></td>
    <td width=300><img src=""static/images/keys/m.svg"" width=""35%"" height=""75%""></img></td>
  </tr>
</table>
  ",77.0,1.0,,,,,,,,,,,,,,,,,,,,,,,,,,
74,0,,html-keyboard-response,74,268611,0.0-4.10-2.10,4ntxytn7kqm,2022-09-19 14:52:42.864,5cfecc1e96681500168a1799,1,55,46,37,37,26,Male,,,"
  <table>
  <tr height=300>
    <td width=300 height=300><img src=""static/images/cards/back_of_red_bolts.svg"" width=""175px"" height=""250px""></img></td>
    <td width=300 height=300><img src=""static/images/cards/10_of_red_bolts.svg"" width=""175px"" height=""250px""></img></td>
  </tr>
  <tr height=200>
    <td width=300><img src=""static/images/keys/z.svg"" width=""35%"" height=""75%""></img></td>
    <td width=300><img src=""static/images/keys/m.svg"" width=""35%"" height=""75%""></img></td>
  </tr>
</table>
  ",,,,,,,,,,,,,,,,,,,,,,,,,,,,
75,0,,html-keyboard-response,75,270132,0.0-4.10-3.10,4ntxytn7kqm,2022-09-19 14:52:42.864,5cfecc1e96681500168a1799,1,55,46,37,37,26,Male,,,"<p style=""font-size:50px"">You win!
+10 points this round!</p>",,,,,,,,,,,,,,,,,,,,,,,,,,,,
76,0,,html-keyboard-response,76,270642,0.0-4.10-4.10,4ntxytn7kqm,2022-09-19 14:52:42.864,5cfecc1e96681500168a1799,1,55,46,37,37,26,Male,,,,,,1.0,learning,10.0,Xc,,red,,bolts,,,,Xc,red,bolts,,1.0,0.0,NA,right,358.6,10.0,1.0,1.0,,,
77,0,,html-keyboard-response,77,272153,0.0-4.11-0.11,4ntxytn7kqm,2022-09-19 14:52:42.864,5cfecc1e96681500168a1799,1,55,46,37,37,26,Male,,,"<img src=""static/images/cards/stack_of_black_bolts.svg"" width=""175px"" height=""250px""></img>",,,,,,,,,,,,,,,,,,,,,,,,,,,,
78,0,,html-keyboard-response,78,273019,0.0-4.11-1.11,4ntxytn7kqm,2022-09-19 14:52:42.864,5cfecc1e96681500168a1799,1,55,46,37,37,26,Male,356.0,,"
  <table>
  <tr height=300>
    <td width=300 height=300><img src=""static/images/cards/back_of_black_bolts.svg"" width=""175px"" height=""250px""></img></td>
    <td width=300 height=300><img src=""static/images/cards/back_of_black_bolts.svg"" width=""175px"" height=""250px""></img></td>
  </tr>
  <tr height=200>
    <td width=300></td>
    <td width=300><img src=""static/images/keys/m.svg"" width=""35%"" height=""75%""></img></td>
  </tr>
</table>
  ",77.0,1.0,,,,,,,,,,,,,,,,,,,,,,,,,,
79,0,,html-keyboard-response,79,274534,0.0-4.11-2.11,4ntxytn7kqm,2022-09-19 14:52:42.864,5cfecc1e96681500168a1799,1,55,46,37,37,26,Male,,,"
  <table>
  <tr height=300>
    <td width=300 height=300><img src=""static/images/cards/back_of_black_bolts.svg"" width=""175px"" height=""250px""></img></td>
    <td width=300 height=300><img src=""static/images/cards/3_of_black_bolts.svg"" width=""175px"" height=""250px""></img></td>
  </tr>
  <tr height=200>
    <td width=300></td>
    <td width=300><img src=""static/images/keys/m.svg"" width=""35%"" height=""75%""></img></td>
  </tr>
</table>
  ",,,,,,,,,,,,,,,,,,,,,,,,,,,,
80,0,,html-keyboard-response,80,276049,0.0-4.11-3.11,4ntxytn7kqm,2022-09-19 14:52:42.864,5cfecc1e96681500168a1799,1,55,46,37,37,26,Male,,,"<p style=""font-size:50px"">You win!
+10 points this round!</p>",,,,,,,,,,,,,,,,,,,,,,,,,,,,
81,0,,html-keyboard-response,81,276556,0.0-4.11-4.11,4ntxytn7kqm,2022-09-19 14:52:42.864,5cfecc1e96681500168a1799,1,55,46,37,37,26,Male,,,,,,1.0,learning,11.0,Xnc,,black,,bolts,,,,Xnc,black,bolts,,0.0,0.0,0,right,356.0,3.0,0.0,1.0,,,
82,0,,html-keyboard-response,82,278062,0.0-4.12-0.12,4ntxytn7kqm,2022-09-19 14:52:42.864,5cfecc1e96681500168a1799,1,55,46,37,37,26,Male,,,"<img src=""static/images/cards/stack_of_red_moons.svg"" width=""175px"" height=""250px""></img>",,,,,,,,,,,,,,,,,,,,,,,,,,,,
83,0,,html-keyboard-response,83,278954,0.0-4.12-1.12,4ntxytn7kqm,2022-09-19 14:52:42.864,5cfecc1e96681500168a1799,1,55,46,37,37,26,Male,388.2,,"
  <table>
  <tr height=300>
    <td width=300 height=300><img src=""static/images/cards/back_of_red_moons.svg"" width=""175px"" height=""250px""></img></td>
    <td width=300 height=300><img src=""static/images/cards/back_of_red_moons.svg"" width=""175px"" height=""250px""></img></td>
  </tr>
  <tr height=200>
    <td width=300><img src=""static/images/keys/z.svg"" width=""35%"" height=""75%""></img></td>
    <td width=300><img src=""static/images/keys/m.svg"" width=""35%"" height=""75%""></img></td>
  </tr>
</table>
  ",90.0,1.0,,,,,,,,,,,,,,,,,,,,,,,,,,
84,0,,html-keyboard-response,84,280460,0.0-4.12-2.12,4ntxytn7kqm,2022-09-19 14:52:42.864,5cfecc1e96681500168a1799,1,55,46,37,37,26,Male,,,"
  <table>
  <tr height=300>
    <td width=300 height=300><img src=""static/images/cards/9_of_red_moons.svg"" width=""175px"" height=""250px""></img></td>
    <td width=300 height=300><img src=""static/images/cards/back_of_red_moons.svg"" width=""175px"" height=""250px""></img></td>
  </tr>
  <tr height=200>
    <td width=300><img src=""static/images/keys/z.svg"" width=""35%"" height=""75%""></img></td>
    <td width=300><img src=""static/images/keys/m.svg"" width=""35%"" height=""75%""></img></td>
  </tr>
</table>
  ",,,,,,,,,,,,,,,,,,,,,,,,,,,,
85,0,,html-keyboard-response,85,281989,0.0-4.12-3.12,4ntxytn7kqm,2022-09-19 14:52:42.864,5cfecc1e96681500168a1799,1,55,46,37,37,26,Male,,,"<p style=""font-size:50px"">You win!
+10 points this round!</p>",,,,,,,,,,,,,,,,,,,,,,,,,,,,
86,0,,html-keyboard-response,86,282509,0.0-4.12-4.12,4ntxytn7kqm,2022-09-19 14:52:42.864,5cfecc1e96681500168a1799,1,55,46,37,37,26,Male,,,,,,1.0,learning,12.0,A,,red,,moons,,,,A,red,moons,,1.0,1.0,NA,left,388.2,9.0,1.0,1.0,,,
87,0,,html-keyboard-response,87,284017,0.0-4.13-0.13,4ntxytn7kqm,2022-09-19 14:52:42.864,5cfecc1e96681500168a1799,1,55,46,37,37,26,Male,,,"<img src=""static/images/cards/stack_of_black_moons.svg"" width=""175px"" height=""250px""></img>",,,,,,,,,,,,,,,,,,,,,,,,,,,,
88,0,,html-keyboard-response,88,285149,0.0-4.13-1.13,4ntxytn7kqm,2022-09-19 14:52:42.864,5cfecc1e96681500168a1799,1,55,46,37,37,26,Male,620.0,,"
  <table>
  <tr height=300>
    <td width=300 height=300><img src=""static/images/cards/back_of_black_moons.svg"" width=""175px"" height=""250px""></img></td>
    <td width=300 height=300><img src=""static/images/cards/back_of_black_moons.svg"" width=""175px"" height=""250px""></img></td>
  </tr>
  <tr height=200>
    <td width=300></td>
    <td width=300><img src=""static/images/keys/m.svg"" width=""35%"" height=""75%""></img></td>
  </tr>
</table>
  ",77.0,1.0,,,,,,,,,,,,,,,,,,,,,,,,,,
89,0,,html-keyboard-response,89,286653,0.0-4.13-2.13,4ntxytn7kqm,2022-09-19 14:52:42.864,5cfecc1e96681500168a1799,1,55,46,37,37,26,Male,,,"
  <table>
  <tr height=300>
    <td width=300 height=300><img src=""static/images/cards/back_of_black_moons.svg"" width=""175px"" height=""250px""></img></td>
    <td width=300 height=300><img src=""static/images/cards/7_of_black_moons.svg"" width=""175px"" height=""250px""></img></td>
  </tr>
  <tr height=200>
    <td width=300></td>
    <td width=300><img src=""static/images/keys/m.svg"" width=""35%"" height=""75%""></img></td>
  </tr>
</table>
  ",,,,,,,,,,,,,,,,,,,,,,,,,,,,
90,0,,html-keyboard-response,90,288173,0.0-4.13-3.13,4ntxytn7kqm,2022-09-19 14:52:42.864,5cfecc1e96681500168a1799,1,55,46,37,37,26,Male,,,"<p style=""font-size:50px"">You win!
+10 points this round!</p>",,,,,,,,,,,,,,,,,,,,,,,,,,,,
91,0,,html-keyboard-response,91,288681,0.0-4.13-4.13,4ntxytn7kqm,2022-09-19 14:52:42.864,5cfecc1e96681500168a1799,1,55,46,37,37,26,Male,,,,,,1.0,learning,13.0,B,,black,,moons,,,,B,black,moons,,0.0,1.0,0,right,620.0,7.0,1.0,1.0,,,
92,0,,html-keyboard-response,92,290187,0.0-4.14-0.14,4ntxytn7kqm,2022-09-19 14:52:42.864,5cfecc1e96681500168a1799,1,55,46,37,37,26,Male,,,"<img src=""static/images/cards/stack_of_red_stars.svg"" width=""175px"" height=""250px""></img>",,,,,,,,,,,,,,,,,,,,,,,,,,,,
93,0,,html-keyboard-response,93,291896,0.0-4.14-1.14,4ntxytn7kqm,2022-09-19 14:52:42.864,5cfecc1e96681500168a1799,1,55,46,37,37,26,Male,1200.3,,"
  <table>
  <tr height=300>
    <td width=300 height=300><img src=""static/images/cards/back_of_red_stars.svg"" width=""175px"" height=""250px""></img></td>
    <td width=300 height=300><img src=""static/images/cards/back_of_red_stars.svg"" width=""175px"" height=""250px""></img></td>
  </tr>
  <tr height=200>
    <td width=300><img src=""static/images/keys/z.svg"" width=""35%"" height=""75%""></img></td>
    <td width=300><img src=""static/images/keys/m.svg"" width=""35%"" height=""75%""></img></td>
  </tr>
</table>
  ",77.0,1.0,,,,,,,,,,,,,,,,,,,,,,,,,,
94,0,,html-keyboard-response,94,293410,0.0-4.14-2.14,4ntxytn7kqm,2022-09-19 14:52:42.864,5cfecc1e96681500168a1799,1,55,46,37,37,26,Male,,,"
  <table>
  <tr height=300>
    <td width=300 height=300><img src=""static/images/cards/back_of_red_stars.svg"" width=""175px"" height=""250px""></img></td>
    <td width=300 height=300><img src=""static/images/cards/6_of_red_stars.svg"" width=""175px"" height=""250px""></img></td>
  </tr>
  <tr height=200>
    <td width=300><img src=""static/images/keys/z.svg"" width=""35%"" height=""75%""></img></td>
    <td width=300><img src=""static/images/keys/m.svg"" width=""35%"" height=""75%""></img></td>
  </tr>
</table>
  ",,,,,,,,,,,,,,,,,,,,,,,,,,,,
95,0,,html-keyboard-response,95,294936,0.0-4.14-3.14,4ntxytn7kqm,2022-09-19 14:52:42.864,5cfecc1e96681500168a1799,1,55,46,37,37,26,Male,,,"<p style=""font-size:50px"">You win!
+10 points this round!</p>",,,,,,,,,,,,,,,,,,,,,,,,,,,,
96,0,,html-keyboard-response,96,295441,0.0-4.14-4.14,4ntxytn7kqm,2022-09-19 14:52:42.864,5cfecc1e96681500168a1799,1,55,46,37,37,26,Male,,,,,,1.0,learning,14.0,C,,red,,stars,,,,C,red,stars,,1.0,0.0,NA,right,1200.3,6.0,1.0,1.0,,,
97,0,,html-keyboard-response,97,296943,0.0-4.15-0.15,4ntxytn7kqm,2022-09-19 14:52:42.864,5cfecc1e96681500168a1799,1,55,46,37,37,26,Male,,,"<img src=""static/images/cards/stack_of_black_stars.svg"" width=""175px"" height=""250px""></img>",,,,,,,,,,,,,,,,,,,,,,,,,,,,
98,0,,html-keyboard-response,98,298072,0.0-4.15-1.15,4ntxytn7kqm,2022-09-19 14:52:42.864,5cfecc1e96681500168a1799,1,55,46,37,37,26,Male,617.8,,"
  <table>
  <tr height=300>
    <td width=300 height=300><img src=""static/images/cards/back_of_black_stars.svg"" width=""175px"" height=""250px""></img></td>
    <td width=300 height=300><img src=""static/images/cards/back_of_black_stars.svg"" width=""175px"" height=""250px""></img></td>
  </tr>
  <tr height=200>
    <td width=300></td>
    <td width=300><img src=""static/images/keys/m.svg"" width=""35%"" height=""75%""></img></td>
  </tr>
</table>
  ",77.0,1.0,,,,,,,,,,,,,,,,,,,,,,,,,,
99,0,,html-keyboard-response,99,299585,0.0-4.15-2.15,4ntxytn7kqm,2022-09-19 14:52:42.864,5cfecc1e96681500168a1799,1,55,46,37,37,26,Male,,,"
  <table>
  <tr height=300>
    <td width=300 height=300><img src=""static/images/cards/back_of_black_stars.svg"" width=""175px"" height=""250px""></img></td>
    <td width=300 height=300><img src=""static/images/cards/1_of_black_stars.svg"" width=""175px"" height=""250px""></img></td>
  </tr>
  <tr height=200>
    <td width=300></td>
    <td width=300><img src=""static/images/keys/m.svg"" width=""35%"" height=""75%""></img></td>
  </tr>
</table>
  ",,,,,,,,,,,,,,,,,,,,,,,,,,,,
100,0,,html-keyboard-response,100,301090,0.0-4.15-3.15,4ntxytn7kqm,2022-09-19 14:52:42.864,5cfecc1e96681500168a1799,1,55,46,37,37,26,Male,,,"<p style=""font-size:50px"">You win!
+10 points this round!</p>",,,,,,,,,,,,,,,,,,,,,,,,,,,,
101,0,,html-keyboard-response,101,301608,0.0-4.15-4.15,4ntxytn7kqm,2022-09-19 14:52:42.864,5cfecc1e96681500168a1799,1,55,46,37,37,26,Male,,,,,,1.0,learning,15.0,D,,black,,stars,,,,D,black,stars,,0.0,0.0,0,right,617.8,1.0,0.0,1.0,,,
102,0,,html-keyboard-response,102,303113,0.0-4.16-0.16,4ntxytn7kqm,2022-09-19 14:52:42.864,5cfecc1e96681500168a1799,1,55,46,37,37,26,Male,,,"<img src=""static/images/cards/stack_of_red_bolts.svg"" width=""175px"" height=""250px""></img>",,,,,,,,,,,,,,,,,,,,,,,,,,,,
103,0,,html-keyboard-response,103,303958,0.0-4.16-1.16,4ntxytn7kqm,2022-09-19 14:52:42.864,5cfecc1e96681500168a1799,1,55,46,37,37,26,Male,338.7,,"
  <table>
  <tr height=300>
    <td width=300 height=300><img src=""static/images/cards/back_of_red_bolts.svg"" width=""175px"" height=""250px""></img></td>
    <td width=300 height=300><img src=""static/images/cards/back_of_red_bolts.svg"" width=""175px"" height=""250px""></img></td>
  </tr>
  <tr height=200>
    <td width=300><img src=""static/images/keys/z.svg"" width=""35%"" height=""75%""></img></td>
    <td width=300><img src=""static/images/keys/m.svg"" width=""35%"" height=""75%""></img></td>
  </tr>
</table>
  ",77.0,1.0,,,,,,,,,,,,,,,,,,,,,,,,,,
104,0,,html-keyboard-response,104,305462,0.0-4.16-2.16,4ntxytn7kqm,2022-09-19 14:52:42.864,5cfecc1e96681500168a1799,1,55,46,37,37,26,Male,,,"
  <table>
  <tr height=300>
    <td width=300 height=300><img src=""static/images/cards/back_of_red_bolts.svg"" width=""175px"" height=""250px""></img></td>
    <td width=300 height=300><img src=""static/images/cards/3_of_red_bolts.svg"" width=""175px"" height=""250px""></img></td>
  </tr>
  <tr height=200>
    <td width=300><img src=""static/images/keys/z.svg"" width=""35%"" height=""75%""></img></td>
    <td width=300><img src=""static/images/keys/m.svg"" width=""35%"" height=""75%""></img></td>
  </tr>
</table>
  ",,,,,,,,,,,,,,,,,,,,,,,,,,,,
105,0,,html-keyboard-response,105,306981,0.0-4.16-3.16,4ntxytn7kqm,2022-09-19 14:52:42.864,5cfecc1e96681500168a1799,1,55,46,37,37,26,Male,,,"<p style=""font-size:50px"">You win!
+10 points this round!</p>",,,,,,,,,,,,,,,,,,,,,,,,,,,,
106,0,,html-keyboard-response,106,307501,0.0-4.16-4.16,4ntxytn7kqm,2022-09-19 14:52:42.864,5cfecc1e96681500168a1799,1,55,46,37,37,26,Male,,,,,,1.0,learning,16.0,Xc,,red,,bolts,,,,Xc,red,bolts,,1.0,0.0,NA,right,338.7,3.0,0.0,1.0,,,
107,0,,html-keyboard-response,107,309009,0.0-4.17-0.17,4ntxytn7kqm,2022-09-19 14:52:42.864,5cfecc1e96681500168a1799,1,55,46,37,37,26,Male,,,"<img src=""static/images/cards/stack_of_black_bolts.svg"" width=""175px"" height=""250px""></img>",,,,,,,,,,,,,,,,,,,,,,,,,,,,
108,0,,html-keyboard-response,108,309833,0.0-4.17-1.17,4ntxytn7kqm,2022-09-19 14:52:42.864,5cfecc1e96681500168a1799,1,55,46,37,37,26,Male,320.2,,"
  <table>
  <tr height=300>
    <td width=300 height=300><img src=""static/images/cards/back_of_black_bolts.svg"" width=""175px"" height=""250px""></img></td>
    <td width=300 height=300><img src=""static/images/cards/back_of_black_bolts.svg"" width=""175px"" height=""250px""></img></td>
  </tr>
  <tr height=200>
    <td width=300></td>
    <td width=300><img src=""static/images/keys/m.svg"" width=""35%"" height=""75%""></img></td>
  </tr>
</table>
  ",77.0,1.0,,,,,,,,,,,,,,,,,,,,,,,,,,
109,0,,html-keyboard-response,109,311335,0.0-4.17-2.17,4ntxytn7kqm,2022-09-19 14:52:42.864,5cfecc1e96681500168a1799,1,55,46,37,37,26,Male,,,"
  <table>
  <tr height=300>
    <td width=300 height=300><img src=""static/images/cards/back_of_black_bolts.svg"" width=""175px"" height=""250px""></img></td>
    <td width=300 height=300><img src=""static/images/cards/7_of_black_bolts.svg"" width=""175px"" height=""250px""></img></td>
  </tr>
  <tr height=200>
    <td width=300></td>
    <td width=300><img src=""static/images/keys/m.svg"" width=""35%"" height=""75%""></img></td>
  </tr>
</table>
  ",,,,,,,,,,,,,,,,,,,,,,,,,,,,
110,0,,html-keyboard-response,110,312857,0.0-4.17-3.17,4ntxytn7kqm,2022-09-19 14:52:42.864,5cfecc1e96681500168a1799,1,55,46,37,37,26,Male,,,"<p style=""font-size:50px"">You win!
+10 points this round!</p>",,,,,,,,,,,,,,,,,,,,,,,,,,,,
111,0,,html-keyboard-response,111,313365,0.0-4.17-4.17,4ntxytn7kqm,2022-09-19 14:52:42.864,5cfecc1e96681500168a1799,1,55,46,37,37,26,Male,,,,,,1.0,learning,17.0,Xnc,,black,,bolts,,,,Xnc,black,bolts,,0.0,0.0,0,right,320.2,7.0,1.0,1.0,,,
112,0,,html-keyboard-response,112,314868,0.0-4.18-0.18,4ntxytn7kqm,2022-09-19 14:52:42.864,5cfecc1e96681500168a1799,1,55,46,37,37,26,Male,,,"<img src=""static/images/cards/stack_of_red_moons.svg"" width=""175px"" height=""250px""></img>",,,,,,,,,,,,,,,,,,,,,,,,,,,,
113,0,,html-keyboard-response,113,315660,0.0-4.18-1.18,4ntxytn7kqm,2022-09-19 14:52:42.864,5cfecc1e96681500168a1799,1,55,46,37,37,26,Male,287.8,,"
  <table>
  <tr height=300>
    <td width=300 height=300><img src=""static/images/cards/back_of_red_moons.svg"" width=""175px"" height=""250px""></img></td>
    <td width=300 height=300><img src=""static/images/cards/back_of_red_moons.svg"" width=""175px"" height=""250px""></img></td>
  </tr>
  <tr height=200>
    <td width=300><img src=""static/images/keys/z.svg"" width=""35%"" height=""75%""></img></td>
    <td width=300><img src=""static/images/keys/m.svg"" width=""35%"" height=""75%""></img></td>
  </tr>
</table>
  ",90.0,1.0,,,,,,,,,,,,,,,,,,,,,,,,,,
114,0,,html-keyboard-response,114,317175,0.0-4.18-2.18,4ntxytn7kqm,2022-09-19 14:52:42.864,5cfecc1e96681500168a1799,1,55,46,37,37,26,Male,,,"
  <table>
  <tr height=300>
    <td width=300 height=300><img src=""static/images/cards/2_of_red_moons.svg"" width=""175px"" height=""250px""></img></td>
    <td width=300 height=300><img src=""static/images/cards/back_of_red_moons.svg"" width=""175px"" height=""250px""></img></td>
  </tr>
  <tr height=200>
    <td width=300><img src=""static/images/keys/z.svg"" width=""35%"" height=""75%""></img></td>
    <td width=300><img src=""static/images/keys/m.svg"" width=""35%"" height=""75%""></img></td>
  </tr>
</table>
  ",,,,,,,,,,,,,,,,,,,,,,,,,,,,
115,0,,html-keyboard-response,115,318688,0.0-4.18-3.18,4ntxytn7kqm,2022-09-19 14:52:42.864,5cfecc1e96681500168a1799,1,55,46,37,37,26,Male,,,"<p style=""font-size:50px"">You Lose!
No points this round.</p>",,,,,,,,,,,,,,,,,,,,,,,,,,,,
116,0,,html-keyboard-response,116,319199,0.0-4.18-4.18,4ntxytn7kqm,2022-09-19 14:52:42.864,5cfecc1e96681500168a1799,1,55,46,37,37,26,Male,,,,,,1.0,learning,18.0,A,,red,,moons,,,,A,red,moons,,1.0,1.0,NA,left,287.8,2.0,0.0,0.0,,,
117,0,,html-keyboard-response,117,320700,0.0-4.19-0.19,4ntxytn7kqm,2022-09-19 14:52:42.864,5cfecc1e96681500168a1799,1,55,46,37,37,26,Male,,,"<img src=""static/images/cards/stack_of_black_moons.svg"" width=""175px"" height=""250px""></img>",,,,,,,,,,,,,,,,,,,,,,,,,,,,
118,0,,html-keyboard-response,118,321547,0.0-4.19-1.19,4ntxytn7kqm,2022-09-19 14:52:42.864,5cfecc1e96681500168a1799,1,55,46,37,37,26,Male,336.9,,"
  <table>
  <tr height=300>
    <td width=300 height=300><img src=""static/images/cards/back_of_black_moons.svg"" width=""175px"" height=""250px""></img></td>
    <td width=300 height=300><img src=""static/images/cards/back_of_black_moons.svg"" width=""175px"" height=""250px""></img></td>
  </tr>
  <tr height=200>
    <td width=300><img src=""static/images/keys/z.svg"" width=""35%"" height=""75%""></img></td>
    <td width=300></td>
  </tr>
</table>
  ",90.0,1.0,,,,,,,,,,,,,,,,,,,,,,,,,,
119,0,,html-keyboard-response,119,323050,0.0-4.19-2.19,4ntxytn7kqm,2022-09-19 14:52:42.864,5cfecc1e96681500168a1799,1,55,46,37,37,26,Male,,,"
  <table>
  <tr height=300>
    <td width=300 height=300><img src=""static/images/cards/2_of_black_moons.svg"" width=""175px"" height=""250px""></img></td>
    <td width=300 height=300><img src=""static/images/cards/back_of_black_moons.svg"" width=""175px"" height=""250px""></img></td>
  </tr>
  <tr height=200>
    <td width=300><img src=""static/images/keys/z.svg"" width=""35%"" height=""75%""></img></td>
    <td width=300></td>
  </tr>
</table>
  ",,,,,,,,,,,,,,,,,,,,,,,,,,,,
120,0,,html-keyboard-response,120,324555,0.0-4.19-3.19,4ntxytn7kqm,2022-09-19 14:52:42.864,5cfecc1e96681500168a1799,1,55,46,37,37,26,Male,,,"<p style=""font-size:50px"">You Lose!
No points this round.</p>",,,,,,,,,,,,,,,,,,,,,,,,,,,,
121,0,,html-keyboard-response,121,325073,0.0-4.19-4.19,4ntxytn7kqm,2022-09-19 14:52:42.864,5cfecc1e96681500168a1799,1,55,46,37,37,26,Male,,,,,,1.0,learning,19.0,B,,black,,moons,,,,B,black,moons,,0.0,1.0,1,left,336.9,2.0,0.0,0.0,,,
122,0,,html-keyboard-response,122,326584,0.0-4.20-0.20,4ntxytn7kqm,2022-09-19 14:52:42.864,5cfecc1e96681500168a1799,1,55,46,37,37,26,Male,,,"<img src=""static/images/cards/stack_of_red_stars.svg"" width=""175px"" height=""250px""></img>",,,,,,,,,,,,,,,,,,,,,,,,,,,,
123,0,,html-keyboard-response,123,327364,0.0-4.20-1.20,4ntxytn7kqm,2022-09-19 14:52:42.864,5cfecc1e96681500168a1799,1,55,46,37,37,26,Male,277.3,,"
  <table>
  <tr height=300>
    <td width=300 height=300><img src=""static/images/cards/back_of_red_stars.svg"" width=""175px"" height=""250px""></img></td>
    <td width=300 height=300><img src=""static/images/cards/back_of_red_stars.svg"" width=""175px"" height=""250px""></img></td>
  </tr>
  <tr height=200>
    <td width=300><img src=""static/images/keys/z.svg"" width=""35%"" height=""75%""></img></td>
    <td width=300><img src=""static/images/keys/m.svg"" width=""35%"" height=""75%""></img></td>
  </tr>
</table>
  ",90.0,1.0,,,,,,,,,,,,,,,,,,,,,,,,,,
124,0,,html-keyboard-response,124,328867,0.0-4.20-2.20,4ntxytn7kqm,2022-09-19 14:52:42.864,5cfecc1e96681500168a1799,1,55,46,37,37,26,Male,,,"
  <table>
  <tr height=300>
    <td width=300 height=300><img src=""static/images/cards/4_of_red_stars.svg"" width=""175px"" height=""250px""></img></td>
    <td width=300 height=300><img src=""static/images/cards/back_of_red_stars.svg"" width=""175px"" height=""250px""></img></td>
  </tr>
  <tr height=200>
    <td width=300><img src=""static/images/keys/z.svg"" width=""35%"" height=""75%""></img></td>
    <td width=300><img src=""static/images/keys/m.svg"" width=""35%"" height=""75%""></img></td>
  </tr>
</table>
  ",,,,,,,,,,,,,,,,,,,,,,,,,,,,
125,0,,html-keyboard-response,125,330390,0.0-4.20-3.20,4ntxytn7kqm,2022-09-19 14:52:42.864,5cfecc1e96681500168a1799,1,55,46,37,37,26,Male,,,"<p style=""font-size:50px"">You win!
+10 points this round!</p>",,,,,,,,,,,,,,,,,,,,,,,,,,,,
126,0,,html-keyboard-response,126,330906,0.0-4.20-4.20,4ntxytn7kqm,2022-09-19 14:52:42.864,5cfecc1e96681500168a1799,1,55,46,37,37,26,Male,,,,,,1.0,learning,20.0,C,,red,,stars,,,,C,red,stars,,1.0,0.0,NA,left,277.3,4.0,0.0,1.0,,,
127,0,,html-keyboard-response,127,332409,0.0-4.21-0.21,4ntxytn7kqm,2022-09-19 14:52:42.864,5cfecc1e96681500168a1799,1,55,46,37,37,26,Male,,,"<img src=""static/images/cards/stack_of_black_stars.svg"" width=""175px"" height=""250px""></img>",,,,,,,,,,,,,,,,,,,,,,,,,,,,
128,0,,html-keyboard-response,128,333911,0.0-4.21-1.21,4ntxytn7kqm,2022-09-19 14:52:42.864,5cfecc1e96681500168a1799,1,55,46,37,37,26,Male,992.6,,"
  <table>
  <tr height=300>
    <td width=300 height=300><img src=""static/images/cards/back_of_black_stars.svg"" width=""175px"" height=""250px""></img></td>
    <td width=300 height=300><img src=""static/images/cards/back_of_black_stars.svg"" width=""175px"" height=""250px""></img></td>
  </tr>
  <tr height=200>
    <td width=300><img src=""static/images/keys/z.svg"" width=""35%"" height=""75%""></img></td>
    <td width=300></td>
  </tr>
</table>
  ",90.0,1.0,,,,,,,,,,,,,,,,,,,,,,,,,,
129,0,,html-keyboard-response,129,335420,0.0-4.21-2.21,4ntxytn7kqm,2022-09-19 14:52:42.864,5cfecc1e96681500168a1799,1,55,46,37,37,26,Male,,,"
  <table>
  <tr height=300>
    <td width=300 height=300><img src=""static/images/cards/4_of_black_stars.svg"" width=""175px"" height=""250px""></img></td>
    <td width=300 height=300><img src=""static/images/cards/back_of_black_stars.svg"" width=""175px"" height=""250px""></img></td>
  </tr>
  <tr height=200>
    <td width=300><img src=""static/images/keys/z.svg"" width=""35%"" height=""75%""></img></td>
    <td width=300></td>
  </tr>
</table>
  ",,,,,,,,,,,,,,,,,,,,,,,,,,,,
130,0,,html-keyboard-response,130,336948,0.0-4.21-3.21,4ntxytn7kqm,2022-09-19 14:52:42.864,5cfecc1e96681500168a1799,1,55,46,37,37,26,Male,,,"<p style=""font-size:50px"">You Lose!
No points this round.</p>",,,,,,,,,,,,,,,,,,,,,,,,,,,,
131,0,,html-keyboard-response,131,337456,0.0-4.21-4.21,4ntxytn7kqm,2022-09-19 14:52:42.864,5cfecc1e96681500168a1799,1,55,46,37,37,26,Male,,,,,,1.0,learning,21.0,D,,black,,stars,,,,D,black,stars,,0.0,0.0,1,left,992.6,4.0,0.0,0.0,,,
132,0,,html-keyboard-response,132,338958,0.0-4.22-0.22,4ntxytn7kqm,2022-09-19 14:52:42.864,5cfecc1e96681500168a1799,1,55,46,37,37,26,Male,,,"<img src=""static/images/cards/stack_of_red_bolts.svg"" width=""175px"" height=""250px""></img>",,,,,,,,,,,,,,,,,,,,,,,,,,,,
133,0,,html-keyboard-response,133,340068,0.0-4.22-1.22,4ntxytn7kqm,2022-09-19 14:52:42.864,5cfecc1e96681500168a1799,1,55,46,37,37,26,Male,607.2,,"
  <table>
  <tr height=300>
    <td width=300 height=300><img src=""static/images/cards/back_of_red_bolts.svg"" width=""175px"" height=""250px""></img></td>
    <td width=300 height=300><img src=""static/images/cards/back_of_red_bolts.svg"" width=""175px"" height=""250px""></img></td>
  </tr>
  <tr height=200>
    <td width=300><img src=""static/images/keys/z.svg"" width=""35%"" height=""75%""></img></td>
    <td width=300><img src=""static/images/keys/m.svg"" width=""35%"" height=""75%""></img></td>
  </tr>
</table>
  ",77.0,1.0,,,,,,,,,,,,,,,,,,,,,,,,,,
134,0,,html-keyboard-response,134,341582,0.0-4.22-2.22,4ntxytn7kqm,2022-09-19 14:52:42.864,5cfecc1e96681500168a1799,1,55,46,37,37,26,Male,,,"
  <table>
  <tr height=300>
    <td width=300 height=300><img src=""static/images/cards/back_of_red_bolts.svg"" width=""175px"" height=""250px""></img></td>
    <td width=300 height=300><img src=""static/images/cards/6_of_red_bolts.svg"" width=""175px"" height=""250px""></img></td>
  </tr>
  <tr height=200>
    <td width=300><img src=""static/images/keys/z.svg"" width=""35%"" height=""75%""></img></td>
    <td width=300><img src=""static/images/keys/m.svg"" width=""35%"" height=""75%""></img></td>
  </tr>
</table>
  ",,,,,,,,,,,,,,,,,,,,,,,,,,,,
135,0,,html-keyboard-response,135,343108,0.0-4.22-3.22,4ntxytn7kqm,2022-09-19 14:52:42.864,5cfecc1e96681500168a1799,1,55,46,37,37,26,Male,,,"<p style=""font-size:50px"">You win!
+10 points this round!</p>",,,,,,,,,,,,,,,,,,,,,,,,,,,,
136,0,,html-keyboard-response,136,343624,0.0-4.22-4.22,4ntxytn7kqm,2022-09-19 14:52:42.864,5cfecc1e96681500168a1799,1,55,46,37,37,26,Male,,,,,,1.0,learning,22.0,Xc,,red,,bolts,,,,Xc,red,bolts,,1.0,0.0,NA,right,607.2,6.0,1.0,1.0,,,
137,0,,html-keyboard-response,137,345141,0.0-4.23-0.23,4ntxytn7kqm,2022-09-19 14:52:42.864,5cfecc1e96681500168a1799,1,55,46,37,37,26,Male,,,"<img src=""static/images/cards/stack_of_black_bolts.svg"" width=""175px"" height=""250px""></img>",,,,,,,,,,,,,,,,,,,,,,,,,,,,
138,0,,html-keyboard-response,138,345998,0.0-4.23-1.23,4ntxytn7kqm,2022-09-19 14:52:42.864,5cfecc1e96681500168a1799,1,55,46,37,37,26,Male,354.3,,"
  <table>
  <tr height=300>
    <td width=300 height=300><img src=""static/images/cards/back_of_black_bolts.svg"" width=""175px"" height=""250px""></img></td>
    <td width=300 height=300><img src=""static/images/cards/back_of_black_bolts.svg"" width=""175px"" height=""250px""></img></td>
  </tr>
  <tr height=200>
    <td width=300><img src=""static/images/keys/z.svg"" width=""35%"" height=""75%""></img></td>
    <td width=300></td>
  </tr>
</table>
  ",90.0,1.0,,,,,,,,,,,,,,,,,,,,,,,,,,
139,0,,html-keyboard-response,139,347509,0.0-4.23-2.23,4ntxytn7kqm,2022-09-19 14:52:42.864,5cfecc1e96681500168a1799,1,55,46,37,37,26,Male,,,"
  <table>
  <tr height=300>
    <td width=300 height=300><img src=""static/images/cards/4_of_black_bolts.svg"" width=""175px"" height=""250px""></img></td>
    <td width=300 height=300><img src=""static/images/cards/back_of_black_bolts.svg"" width=""175px"" height=""250px""></img></td>
  </tr>
  <tr height=200>
    <td width=300><img src=""static/images/keys/z.svg"" width=""35%"" height=""75%""></img></td>
    <td width=300></td>
  </tr>
</table>
  ",,,,,,,,,,,,,,,,,,,,,,,,,,,,
140,0,,html-keyboard-response,140,349016,0.0-4.23-3.23,4ntxytn7kqm,2022-09-19 14:52:42.864,5cfecc1e96681500168a1799,1,55,46,37,37,26,Male,,,"<p style=""font-size:50px"">You win!
+10 points this round!</p>",,,,,,,,,,,,,,,,,,,,,,,,,,,,
141,0,,html-keyboard-response,141,349535,0.0-4.23-4.23,4ntxytn7kqm,2022-09-19 14:52:42.864,5cfecc1e96681500168a1799,1,55,46,37,37,26,Male,,,,,,1.0,learning,23.0,Xnc,,black,,bolts,,,,Xnc,black,bolts,,0.0,0.0,1,left,354.3,4.0,0.0,1.0,,,
142,0,,call-function,142,349540,0.0-5.0,4ntxytn7kqm,2022-09-19 14:52:42.864,5cfecc1e96681500168a1799,1,55,46,37,37,26,Male,,,,,,,,,,,,,,,,,,,,,,,,,,,,,,,
143,0,,image-keyboard-response,143,354215,0.0-6.0-0.0,4ntxytn7kqm,2022-09-19 14:52:42.864,5cfecc1e96681500168a1799,1,55,46,37,37,26,Male,4674.8,,static/images/instructions_CB_1/Slide20.png,39.0,,,,,,,,,,,,,,,,,,,,,,,,,,,
144,0,,image-keyboard-response,144,369625,0.0-6.1-0.1,4ntxytn7kqm,2022-09-19 14:52:42.864,5cfecc1e96681500168a1799,1,55,46,37,37,26,Male,15409.1,,static/images/instructions_CB_1/Slide21.png,39.0,,,,,,,,,,,,,,,,,,,,,,,,,,,
145,0,,image-keyboard-response,145,384305,0.0-6.2-0.2,4ntxytn7kqm,2022-09-19 14:52:42.864,5cfecc1e96681500168a1799,1,55,46,37,37,26,Male,14687.8,,static/images/instructions_CB_1/Slide22.png,39.0,,,,,,,,,,,,,,,,,,,,,,,,,,,
146,0,,image-keyboard-response,146,399835,0.0-6.3-0.3,4ntxytn7kqm,2022-09-19 14:52:42.864,5cfecc1e96681500168a1799,1,55,46,37,37,26,Male,15528.9,,static/images/instructions_CB_1/Slide23.png,39.0,,,,,,,,,,,,,,,,,,,,,,,,,,,
147,0,,image-keyboard-response,147,401888,0.0-6.4-0.4,4ntxytn7kqm,2022-09-19 14:52:42.864,5cfecc1e96681500168a1799,1,55,46,37,37,26,Male,2052.7,,static/images/instructions_CB_1/Slide24.png,39.0,,,,,,,,,,,,,,,,,,,,,,,,,,,
148,0,,html-keyboard-response,148,403260,0.0-7.0-0.0,4ntxytn7kqm,2022-09-19 14:52:42.864,5cfecc1e96681500168a1799,1,55,46,37,37,26,Male,1370.9,,"
  <table>
  <tr height=300>
    <td width=300 height=300><img src=""static/images/cards/stack_of_red_moons.svg"" width=""175px"" height=""250px""></img></td>
    <td width=300 height=300><img src=""static/images/cards/stack_of_black_moons.svg"" width=""175px"" height=""250px""></img></td>
  </tr>
  <tr height=200>
    <td width=300><img src=""static/images/keys/w.svg"" width=""35%"" height=""75%""></img></td>
    <td width=300><img src=""static/images/keys/o.svg"" width=""35%"" height=""75%""></img></td>
  </tr>
</table>
  ",79.0,1.0,,,,,,,,,,,,,,,,,,,,,,,,,,
149,0,,html-keyboard-response,149,404508,0.0-7.0-1.0,4ntxytn7kqm,2022-09-19 14:52:42.864,5cfecc1e96681500168a1799,1,55,46,37,37,26,Male,740.7,,"
  <table>
  <tr height=300>
    <td width=300 height=300><img src=""static/images/cards/back_of_black_moons.svg"" width=""175px"" height=""250px""></img></td>
    <td width=300 height=300><img src=""static/images/cards/back_of_black_moons.svg"" width=""175px"" height=""250px""></img></td>
  </tr>
  <tr height=200>
    <td width=300></td>
    <td width=300><img src=""static/images/keys/m.svg"" width=""35%"" height=""75%""></img></td>
  </tr>
</table>
  ",77.0,1.0,,,,,,,,,,,,,,,,,,,,,,,,,,
150,0,,html-keyboard-response,150,406023,0.0-7.0-2.0,4ntxytn7kqm,2022-09-19 14:52:42.864,5cfecc1e96681500168a1799,1,55,46,37,37,26,Male,,,"
  <table>
  <tr height=300>
    <td width=300 height=300><img src=""static/images/cards/back_of_black_moons.svg"" width=""175px"" height=""250px""></img></td>
    <td width=300 height=300><img src=""static/images/cards/7_of_black_moons.svg"" width=""175px"" height=""250px""></img></td>
  </tr>
  <tr height=200>
    <td width=300></td>
    <td width=300><img src=""static/images/keys/m.svg"" width=""35%"" height=""75%""></img></td>
  </tr>
</table>
  ",,,,,,,,,,,,,,,,,,,,,,,,,,,,
151,0,,html-keyboard-response,151,407537,0.0-7.0-3.0,4ntxytn7kqm,2022-09-19 14:52:42.864,5cfecc1e96681500168a1799,1,55,46,37,37,26,Male,,,"<p style=""font-size:50px"">You win!
+10 points this round!</p>",,,,,,,,,,,,,,,,,,,,,,,,,,,,
152,0,,html-keyboard-response,152,408054,0.0-7.0-4.0,4ntxytn7kqm,2022-09-19 14:52:42.864,5cfecc1e96681500168a1799,1,55,46,37,37,26,Male,,,,,,1.0,choice,0.0,A,B,red,black,moons,moons,A,B,B,black,moons,1370.9,0.0,1.0,0,right,740.7,7.0,1.0,1.0,,,
153,0,,html-keyboard-response,153,409374,0.0-7.1-0.1,4ntxytn7kqm,2022-09-19 14:52:42.864,5cfecc1e96681500168a1799,1,55,46,37,37,26,Male,1318.7,,"
  <table>
  <tr height=300>
    <td width=300 height=300><img src=""static/images/cards/stack_of_red_stars.svg"" width=""175px"" height=""250px""></img></td>
    <td width=300 height=300><img src=""static/images/cards/stack_of_black_stars.svg"" width=""175px"" height=""250px""></img></td>
  </tr>
  <tr height=200>
    <td width=300><img src=""static/images/keys/w.svg"" width=""35%"" height=""75%""></img></td>
    <td width=300><img src=""static/images/keys/o.svg"" width=""35%"" height=""75%""></img></td>
  </tr>
</table>
  ",79.0,1.0,,,,,,,,,,,,,,,,,,,,,,,,,,
154,0,,html-keyboard-response,154,410391,0.0-7.1-1.1,4ntxytn7kqm,2022-09-19 14:52:42.864,5cfecc1e96681500168a1799,1,55,46,37,37,26,Male,511.1,,"
  <table>
  <tr height=300>
    <td width=300 height=300><img src=""static/images/cards/back_of_black_stars.svg"" width=""175px"" height=""250px""></img></td>
    <td width=300 height=300><img src=""static/images/cards/back_of_black_stars.svg"" width=""175px"" height=""250px""></img></td>
  </tr>
  <tr height=200>
    <td width=300><img src=""static/images/keys/z.svg"" width=""35%"" height=""75%""></img></td>
    <td width=300></td>
  </tr>
</table>
  ",90.0,1.0,,,,,,,,,,,,,,,,,,,,,,,,,,
155,0,,html-keyboard-response,155,411905,0.0-7.1-2.1,4ntxytn7kqm,2022-09-19 14:52:42.864,5cfecc1e96681500168a1799,1,55,46,37,37,26,Male,,,"
  <table>
  <tr height=300>
    <td width=300 height=300><img src=""static/images/cards/9_of_black_stars.svg"" width=""175px"" height=""250px""></img></td>
    <td width=300 height=300><img src=""static/images/cards/back_of_black_stars.svg"" width=""175px"" height=""250px""></img></td>
  </tr>
  <tr height=200>
    <td width=300><img src=""static/images/keys/z.svg"" width=""35%"" height=""75%""></img></td>
    <td width=300></td>
  </tr>
</table>
  ",,,,,,,,,,,,,,,,,,,,,,,,,,,,
156,0,,html-keyboard-response,156,413426,0.0-7.1-3.1,4ntxytn7kqm,2022-09-19 14:52:42.864,5cfecc1e96681500168a1799,1,55,46,37,37,26,Male,,,"<p style=""font-size:50px"">You Lose!
No points this round.</p>",,,,,,,,,,,,,,,,,,,,,,,,,,,,
157,0,,html-keyboard-response,157,413935,0.0-7.1-4.1,4ntxytn7kqm,2022-09-19 14:52:42.864,5cfecc1e96681500168a1799,1,55,46,37,37,26,Male,,,,,,1.0,choice,1.0,C,D,red,black,stars,stars,C,D,D,black,stars,1318.7,0.0,0.0,1,left,511.1,9.0,1.0,0.0,,,
158,0,,html-keyboard-response,158,414996,0.0-7.2-0.2,4ntxytn7kqm,2022-09-19 14:52:42.864,5cfecc1e96681500168a1799,1,55,46,37,37,26,Male,1059.1,,"
  <table>
  <tr height=300>
    <td width=300 height=300><img src=""static/images/cards/stack_of_red_moons.svg"" width=""175px"" height=""250px""></img></td>
    <td width=300 height=300><img src=""static/images/cards/stack_of_black_moons.svg"" width=""175px"" height=""250px""></img></td>
  </tr>
  <tr height=200>
    <td width=300><img src=""static/images/keys/w.svg"" width=""35%"" height=""75%""></img></td>
    <td width=300><img src=""static/images/keys/o.svg"" width=""35%"" height=""75%""></img></td>
  </tr>
</table>
  ",79.0,1.0,,,,,,,,,,,,,,,,,,,,,,,,,,
159,0,,html-keyboard-response,159,415911,0.0-7.2-1.2,4ntxytn7kqm,2022-09-19 14:52:42.864,5cfecc1e96681500168a1799,1,55,46,37,37,26,Male,406.7,,"
  <table>
  <tr height=300>
    <td width=300 height=300><img src=""static/images/cards/back_of_black_moons.svg"" width=""175px"" height=""250px""></img></td>
    <td width=300 height=300><img src=""static/images/cards/back_of_black_moons.svg"" width=""175px"" height=""250px""></img></td>
  </tr>
  <tr height=200>
    <td width=300></td>
    <td width=300><img src=""static/images/keys/m.svg"" width=""35%"" height=""75%""></img></td>
  </tr>
</table>
  ",77.0,1.0,,,,,,,,,,,,,,,,,,,,,,,,,,
160,0,,html-keyboard-response,160,417418,0.0-7.2-2.2,4ntxytn7kqm,2022-09-19 14:52:42.864,5cfecc1e96681500168a1799,1,55,46,37,37,26,Male,,,"
  <table>
  <tr height=300>
    <td width=300 height=300><img src=""static/images/cards/back_of_black_moons.svg"" width=""175px"" height=""250px""></img></td>
    <td width=300 height=300><img src=""static/images/cards/4_of_black_moons.svg"" width=""175px"" height=""250px""></img></td>
  </tr>
  <tr height=200>
    <td width=300></td>
    <td width=300><img src=""static/images/keys/m.svg"" width=""35%"" height=""75%""></img></td>
  </tr>
</table>
  ",,,,,,,,,,,,,,,,,,,,,,,,,,,,
161,0,,html-keyboard-response,161,418929,0.0-7.2-3.2,4ntxytn7kqm,2022-09-19 14:52:42.864,5cfecc1e96681500168a1799,1,55,46,37,37,26,Male,,,"<p style=""font-size:50px"">You Lose!
No points this round.</p>",,,,,,,,,,,,,,,,,,,,,,,,,,,,
162,0,,html-keyboard-response,162,419446,0.0-7.2-4.2,4ntxytn7kqm,2022-09-19 14:52:42.864,5cfecc1e96681500168a1799,1,55,46,37,37,26,Male,,,,,,1.0,choice,2.0,A,B,red,black,moons,moons,A,B,B,black,moons,1059.1,0.0,1.0,0,right,406.7,4.0,0.0,0.0,,,
163,0,,html-keyboard-response,163,420859,0.0-7.3-0.3,4ntxytn7kqm,2022-09-19 14:52:42.864,5cfecc1e96681500168a1799,1,55,46,37,37,26,Male,1412.3,,"
  <table>
  <tr height=300>
    <td width=300 height=300><img src=""static/images/cards/stack_of_red_moons.svg"" width=""175px"" height=""250px""></img></td>
    <td width=300 height=300><img src=""static/images/cards/stack_of_black_stars.svg"" width=""175px"" height=""250px""></img></td>
  </tr>
  <tr height=200>
    <td width=300><img src=""static/images/keys/w.svg"" width=""35%"" height=""75%""></img></td>
    <td width=300><img src=""static/images/keys/o.svg"" width=""35%"" height=""75%""></img></td>
  </tr>
</table>
  ",87.0,1.0,,,,,,,,,,,,,,,,,,,,,,,,,,
164,0,,html-keyboard-response,164,422312,0.0-7.3-1.3,4ntxytn7kqm,2022-09-19 14:52:42.864,5cfecc1e96681500168a1799,1,55,46,37,37,26,Male,942.7,,"
  <table>
  <tr height=300>
    <td width=300 height=300><img src=""static/images/cards/back_of_red_moons.svg"" width=""175px"" height=""250px""></img></td>
    <td width=300 height=300><img src=""static/images/cards/back_of_red_moons.svg"" width=""175px"" height=""250px""></img></td>
  </tr>
  <tr height=200>
    <td width=300><img src=""static/images/keys/z.svg"" width=""35%"" height=""75%""></img></td>
    <td width=300><img src=""static/images/keys/m.svg"" width=""35%"" height=""75%""></img></td>
  </tr>
</table>
  ",90.0,1.0,,,,,,,,,,,,,,,,,,,,,,,,,,
165,0,,html-keyboard-response,165,423827,0.0-7.3-2.3,4ntxytn7kqm,2022-09-19 14:52:42.864,5cfecc1e96681500168a1799,1,55,46,37,37,26,Male,,,"
  <table>
  <tr height=300>
    <td width=300 height=300><img src=""static/images/cards/2_of_red_moons.svg"" width=""175px"" height=""250px""></img></td>
    <td width=300 height=300><img src=""static/images/cards/back_of_red_moons.svg"" width=""175px"" height=""250px""></img></td>
  </tr>
  <tr height=200>
    <td width=300><img src=""static/images/keys/z.svg"" width=""35%"" height=""75%""></img></td>
    <td width=300><img src=""static/images/keys/m.svg"" width=""35%"" height=""75%""></img></td>
  </tr>
</table>
  ",,,,,,,,,,,,,,,,,,,,,,,,,,,,
166,0,,html-keyboard-response,166,425332,0.0-7.3-3.3,4ntxytn7kqm,2022-09-19 14:52:42.864,5cfecc1e96681500168a1799,1,55,46,37,37,26,Male,,,"<p style=""font-size:50px"">You Lose!
No points this round.</p>",,,,,,,,,,,,,,,,,,,,,,,,,,,,
167,0,,html-keyboard-response,167,425845,0.0-7.3-4.3,4ntxytn7kqm,2022-09-19 14:52:42.864,5cfecc1e96681500168a1799,1,55,46,37,37,26,Male,,,,,,1.0,choice,3.0,A,D,red,black,moons,stars,A,D,A,red,moons,1412.3,1.0,1.0,NA,left,942.7,2.0,0.0,0.0,,,
168,0,,html-keyboard-response,168,426714,0.0-7.4-0.4,4ntxytn7kqm,2022-09-19 14:52:42.864,5cfecc1e96681500168a1799,1,55,46,37,37,26,Male,867.7,,"
  <table>
  <tr height=300>
    <td width=300 height=300><img src=""static/images/cards/stack_of_red_moons.svg"" width=""175px"" height=""250px""></img></td>
    <td width=300 height=300><img src=""static/images/cards/stack_of_black_moons.svg"" width=""175px"" height=""250px""></img></td>
  </tr>
  <tr height=200>
    <td width=300><img src=""static/images/keys/w.svg"" width=""35%"" height=""75%""></img></td>
    <td width=300><img src=""static/images/keys/o.svg"" width=""35%"" height=""75%""></img></td>
  </tr>
</table>
  ",79.0,1.0,,,,,,,,,,,,,,,,,,,,,,,,,,
169,0,,html-keyboard-response,169,427593,0.0-7.4-1.4,4ntxytn7kqm,2022-09-19 14:52:42.864,5cfecc1e96681500168a1799,1,55,46,37,37,26,Male,366.8,,"
  <table>
  <tr height=300>
    <td width=300 height=300><img src=""static/images/cards/back_of_black_moons.svg"" width=""175px"" height=""250px""></img></td>
    <td width=300 height=300><img src=""static/images/cards/back_of_black_moons.svg"" width=""175px"" height=""250px""></img></td>
  </tr>
  <tr height=200>
    <td width=300></td>
    <td width=300><img src=""static/images/keys/m.svg"" width=""35%"" height=""75%""></img></td>
  </tr>
</table>
  ",77.0,1.0,,,,,,,,,,,,,,,,,,,,,,,,,,
170,0,,html-keyboard-response,170,429104,0.0-7.4-2.4,4ntxytn7kqm,2022-09-19 14:52:42.864,5cfecc1e96681500168a1799,1,55,46,37,37,26,Male,,,"
  <table>
  <tr height=300>
    <td width=300 height=300><img src=""static/images/cards/back_of_black_moons.svg"" width=""175px"" height=""250px""></img></td>
    <td width=300 height=300><img src=""static/images/cards/9_of_black_moons.svg"" width=""175px"" height=""250px""></img></td>
  </tr>
  <tr height=200>
    <td width=300></td>
    <td width=300><img src=""static/images/keys/m.svg"" width=""35%"" height=""75%""></img></td>
  </tr>
</table>
  ",,,,,,,,,,,,,,,,,,,,,,,,,,,,
171,0,,html-keyboard-response,171,430610,0.0-7.4-3.4,4ntxytn7kqm,2022-09-19 14:52:42.864,5cfecc1e96681500168a1799,1,55,46,37,37,26,Male,,,"<p style=""font-size:50px"">You win!
+10 points this round!</p>",,,,,,,,,,,,,,,,,,,,,,,,,,,,
172,0,,html-keyboard-response,172,431116,0.0-7.4-4.4,4ntxytn7kqm,2022-09-19 14:52:42.864,5cfecc1e96681500168a1799,1,55,46,37,37,26,Male,,,,,,1.0,choice,4.0,A,B,red,black,moons,moons,A,B,B,black,moons,867.7,0.0,1.0,0,right,366.8,9.0,1.0,1.0,,,
173,0,,html-keyboard-response,173,432262,0.0-7.5-0.5,4ntxytn7kqm,2022-09-19 14:52:42.864,5cfecc1e96681500168a1799,1,55,46,37,37,26,Male,1145.0,,"
  <table>
  <tr height=300>
    <td width=300 height=300><img src=""static/images/cards/stack_of_red_stars.svg"" width=""175px"" height=""250px""></img></td>
    <td width=300 height=300><img src=""static/images/cards/stack_of_black_stars.svg"" width=""175px"" height=""250px""></img></td>
  </tr>
  <tr height=200>
    <td width=300><img src=""static/images/keys/w.svg"" width=""35%"" height=""75%""></img></td>
    <td width=300><img src=""static/images/keys/o.svg"" width=""35%"" height=""75%""></img></td>
  </tr>
</table>
  ",87.0,1.0,,,,,,,,,,,,,,,,,,,,,,,,,,
174,0,,html-keyboard-response,174,434162,0.0-7.5-1.5,4ntxytn7kqm,2022-09-19 14:52:42.864,5cfecc1e96681500168a1799,1,55,46,37,37,26,Male,1387.3,,"
  <table>
  <tr height=300>
    <td width=300 height=300><img src=""static/images/cards/back_of_red_stars.svg"" width=""175px"" height=""250px""></img></td>
    <td width=300 height=300><img src=""static/images/cards/back_of_red_stars.svg"" width=""175px"" height=""250px""></img></td>
  </tr>
  <tr height=200>
    <td width=300><img src=""static/images/keys/z.svg"" width=""35%"" height=""75%""></img></td>
    <td width=300><img src=""static/images/keys/m.svg"" width=""35%"" height=""75%""></img></td>
  </tr>
</table>
  ",90.0,3.0,,,,,,,,,,,,,,,,,,,,,,,,,,
175,0,,html-keyboard-response,175,435680,0.0-7.5-2.5,4ntxytn7kqm,2022-09-19 14:52:42.864,5cfecc1e96681500168a1799,1,55,46,37,37,26,Male,,,"
  <table>
  <tr height=300>
    <td width=300 height=300><img src=""static/images/cards/2_of_red_stars.svg"" width=""175px"" height=""250px""></img></td>
    <td width=300 height=300><img src=""static/images/cards/back_of_red_stars.svg"" width=""175px"" height=""250px""></img></td>
  </tr>
  <tr height=200>
    <td width=300><img src=""static/images/keys/z.svg"" width=""35%"" height=""75%""></img></td>
    <td width=300><img src=""static/images/keys/m.svg"" width=""35%"" height=""75%""></img></td>
  </tr>
</table>
  ",,,,,,,,,,,,,,,,,,,,,,,,,,,,
176,0,,html-keyboard-response,176,437202,0.0-7.5-3.5,4ntxytn7kqm,2022-09-19 14:52:42.864,5cfecc1e96681500168a1799,1,55,46,37,37,26,Male,,,"<p style=""font-size:50px"">You win!
+10 points this round!</p>",,,,,,,,,,,,,,,,,,,,,,,,,,,,
177,0,,html-keyboard-response,177,437712,0.0-7.5-4.5,4ntxytn7kqm,2022-09-19 14:52:42.864,5cfecc1e96681500168a1799,1,55,46,37,37,26,Male,,,,,,1.0,choice,5.0,C,D,red,black,stars,stars,C,D,C,red,stars,1145.0,1.0,0.0,NA,left,1387.3,2.0,0.0,1.0,,,
178,0,,html-keyboard-response,178,438902,0.0-7.6-0.6,4ntxytn7kqm,2022-09-19 14:52:42.864,5cfecc1e96681500168a1799,1,55,46,37,37,26,Male,1188.8,,"
  <table>
  <tr height=300>
    <td width=300 height=300><img src=""static/images/cards/stack_of_black_moons.svg"" width=""175px"" height=""250px""></img></td>
    <td width=300 height=300><img src=""static/images/cards/stack_of_red_stars.svg"" width=""175px"" height=""250px""></img></td>
  </tr>
  <tr height=200>
    <td width=300><img src=""static/images/keys/w.svg"" width=""35%"" height=""75%""></img></td>
    <td width=300><img src=""static/images/keys/o.svg"" width=""35%"" height=""75%""></img></td>
  </tr>
</table>
  ",87.0,1.0,,,,,,,,,,,,,,,,,,,,,,,,,,
179,0,,html-keyboard-response,179,439860,0.0-7.6-1.6,4ntxytn7kqm,2022-09-19 14:52:42.864,5cfecc1e96681500168a1799,1,55,46,37,37,26,Male,454.9,,"
  <table>
  <tr height=300>
    <td width=300 height=300><img src=""static/images/cards/back_of_black_moons.svg"" width=""175px"" height=""250px""></img></td>
    <td width=300 height=300><img src=""static/images/cards/back_of_black_moons.svg"" width=""175px"" height=""250px""></img></td>
  </tr>
  <tr height=200>
    <td width=300><img src=""static/images/keys/z.svg"" width=""35%"" height=""75%""></img></td>
    <td width=300></td>
  </tr>
</table>
  ",90.0,1.0,,,,,,,,,,,,,,,,,,,,,,,,,,
180,0,,html-keyboard-response,180,441365,0.0-7.6-2.6,4ntxytn7kqm,2022-09-19 14:52:42.864,5cfecc1e96681500168a1799,1,55,46,37,37,26,Male,,,"
  <table>
  <tr height=300>
    <td width=300 height=300><img src=""static/images/cards/7_of_black_moons.svg"" width=""175px"" height=""250px""></img></td>
    <td width=300 height=300><img src=""static/images/cards/back_of_black_moons.svg"" width=""175px"" height=""250px""></img></td>
  </tr>
  <tr height=200>
    <td width=300><img src=""static/images/keys/z.svg"" width=""35%"" height=""75%""></img></td>
    <td width=300></td>
  </tr>
</table>
  ",,,,,,,,,,,,,,,,,,,,,,,,,,,,
181,0,,html-keyboard-response,181,442885,0.0-7.6-3.6,4ntxytn7kqm,2022-09-19 14:52:42.864,5cfecc1e96681500168a1799,1,55,46,37,37,26,Male,,,"<p style=""font-size:50px"">You win!
+10 points this round!</p>",,,,,,,,,,,,,,,,,,,,,,,,,,,,
182,0,,html-keyboard-response,182,443403,0.0-7.6-4.6,4ntxytn7kqm,2022-09-19 14:52:42.864,5cfecc1e96681500168a1799,1,55,46,37,37,26,Male,,,,,,1.0,choice,6.0,B,C,black,red,moons,stars,B,C,B,black,moons,1188.8,0.0,1.0,1,left,454.9,7.0,1.0,1.0,,,
183,0,,html-keyboard-response,183,444743,0.0-7.7-0.7,4ntxytn7kqm,2022-09-19 14:52:42.864,5cfecc1e96681500168a1799,1,55,46,37,37,26,Male,1333.7,,"
  <table>
  <tr height=300>
    <td width=300 height=300><img src=""static/images/cards/stack_of_black_bolts.svg"" width=""175px"" height=""250px""></img></td>
    <td width=300 height=300><img src=""static/images/cards/stack_of_black_moons.svg"" width=""175px"" height=""250px""></img></td>
  </tr>
  <tr height=200>
    <td width=300><img src=""static/images/keys/w.svg"" width=""35%"" height=""75%""></img></td>
    <td width=300><img src=""static/images/keys/o.svg"" width=""35%"" height=""75%""></img></td>
  </tr>
</table>
  ",87.0,1.0,,,,,,,,,,,,,,,,,,,,,,,,,,
184,0,,html-keyboard-response,184,445653,0.0-7.7-1.7,4ntxytn7kqm,2022-09-19 14:52:42.864,5cfecc1e96681500168a1799,1,55,46,37,37,26,Male,397.6,,"
  <table>
  <tr height=300>
    <td width=300 height=300><img src=""static/images/cards/back_of_black_bolts.svg"" width=""175px"" height=""250px""></img></td>
    <td width=300 height=300><img src=""static/images/cards/back_of_black_bolts.svg"" width=""175px"" height=""250px""></img></td>
  </tr>
  <tr height=200>
    <td width=300></td>
    <td width=300><img src=""static/images/keys/m.svg"" width=""35%"" height=""75%""></img></td>
  </tr>
</table>
  ",77.0,1.0,,,,,,,,,,,,,,,,,,,,,,,,,,
185,0,,html-keyboard-response,185,447168,0.0-7.7-2.7,4ntxytn7kqm,2022-09-19 14:52:42.864,5cfecc1e96681500168a1799,1,55,46,37,37,26,Male,,,"
  <table>
  <tr height=300>
    <td width=300 height=300><img src=""static/images/cards/back_of_black_bolts.svg"" width=""175px"" height=""250px""></img></td>
    <td width=300 height=300><img src=""static/images/cards/9_of_black_bolts.svg"" width=""175px"" height=""250px""></img></td>
  </tr>
  <tr height=200>
    <td width=300></td>
    <td width=300><img src=""static/images/keys/m.svg"" width=""35%"" height=""75%""></img></td>
  </tr>
</table>
  ",,,,,,,,,,,,,,,,,,,,,,,,,,,,
186,0,,html-keyboard-response,186,448672,0.0-7.7-3.7,4ntxytn7kqm,2022-09-19 14:52:42.864,5cfecc1e96681500168a1799,1,55,46,37,37,26,Male,,,"<p style=""font-size:50px"">You win!
+10 points this round!</p>",,,,,,,,,,,,,,,,,,,,,,,,,,,,
187,0,,html-keyboard-response,187,449183,0.0-7.7-4.7,4ntxytn7kqm,2022-09-19 14:52:42.864,5cfecc1e96681500168a1799,1,55,46,37,37,26,Male,,,,,,1.0,choice,7.0,B,Xnc,black,black,bolts,moons,Xnc,B,Xnc,black,bolts,1333.7,0.0,0.0,0,right,397.6,9.0,1.0,1.0,,,
188,0,,html-keyboard-response,188,450211,0.0-7.8-0.8,4ntxytn7kqm,2022-09-19 14:52:42.864,5cfecc1e96681500168a1799,1,55,46,37,37,26,Male,1026.7999999999,,"
  <table>
  <tr height=300>
    <td width=300 height=300><img src=""static/images/cards/stack_of_black_moons.svg"" width=""175px"" height=""250px""></img></td>
    <td width=300 height=300><img src=""static/images/cards/stack_of_black_stars.svg"" width=""175px"" height=""250px""></img></td>
  </tr>
  <tr height=200>
    <td width=300><img src=""static/images/keys/w.svg"" width=""35%"" height=""75%""></img></td>
    <td width=300><img src=""static/images/keys/o.svg"" width=""35%"" height=""75%""></img></td>
  </tr>
</table>
  ",87.0,1.0,,,,,,,,,,,,,,,,,,,,,,,,,,
189,0,,html-keyboard-response,189,451249,0.0-7.8-1.8,4ntxytn7kqm,2022-09-19 14:52:42.864,5cfecc1e96681500168a1799,1,55,46,37,37,26,Male,528.7,,"
  <table>
  <tr height=300>
    <td width=300 height=300><img src=""static/images/cards/back_of_black_moons.svg"" width=""175px"" height=""250px""></img></td>
    <td width=300 height=300><img src=""static/images/cards/back_of_black_moons.svg"" width=""175px"" height=""250px""></img></td>
  </tr>
  <tr height=200>
    <td width=300></td>
    <td width=300><img src=""static/images/keys/m.svg"" width=""35%"" height=""75%""></img></td>
  </tr>
</table>
  ",77.0,1.0,,,,,,,,,,,,,,,,,,,,,,,,,,
190,0,,html-keyboard-response,190,452753,0.0-7.8-2.8,4ntxytn7kqm,2022-09-19 14:52:42.864,5cfecc1e96681500168a1799,1,55,46,37,37,26,Male,,,"
  <table>
  <tr height=300>
    <td width=300 height=300><img src=""static/images/cards/back_of_black_moons.svg"" width=""175px"" height=""250px""></img></td>
    <td width=300 height=300><img src=""static/images/cards/2_of_black_moons.svg"" width=""175px"" height=""250px""></img></td>
  </tr>
  <tr height=200>
    <td width=300></td>
    <td width=300><img src=""static/images/keys/m.svg"" width=""35%"" height=""75%""></img></td>
  </tr>
</table>
  ",,,,,,,,,,,,,,,,,,,,,,,,,,,,
191,0,,html-keyboard-response,191,454268,0.0-7.8-3.8,4ntxytn7kqm,2022-09-19 14:52:42.864,5cfecc1e96681500168a1799,1,55,46,37,37,26,Male,,,"<p style=""font-size:50px"">You Lose!
No points this round.</p>",,,,,,,,,,,,,,,,,,,,,,,,,,,,
192,0,,html-keyboard-response,192,454783,0.0-7.8-4.8,4ntxytn7kqm,2022-09-19 14:52:42.864,5cfecc1e96681500168a1799,1,55,46,37,37,26,Male,,,,,,1.0,choice,8.0,B,D,black,black,moons,stars,B,D,B,black,moons,1026.7999999999,0.0,1.0,0,right,528.7,2.0,0.0,0.0,,,
193,0,,html-keyboard-response,193,456277,0.0-7.9-0.9,4ntxytn7kqm,2022-09-19 14:52:42.864,5cfecc1e96681500168a1799,1,55,46,37,37,26,Male,1493.0,,"
  <table>
  <tr height=300>
    <td width=300 height=300><img src=""static/images/cards/stack_of_red_stars.svg"" width=""175px"" height=""250px""></img></td>
    <td width=300 height=300><img src=""static/images/cards/stack_of_black_stars.svg"" width=""175px"" height=""250px""></img></td>
  </tr>
  <tr height=200>
    <td width=300><img src=""static/images/keys/w.svg"" width=""35%"" height=""75%""></img></td>
    <td width=300><img src=""static/images/keys/o.svg"" width=""35%"" height=""75%""></img></td>
  </tr>
</table>
  ",87.0,1.0,,,,,,,,,,,,,,,,,,,,,,,,,,
194,0,,html-keyboard-response,194,457590,0.0-7.9-1.9,4ntxytn7kqm,2022-09-19 14:52:42.864,5cfecc1e96681500168a1799,1,55,46,37,37,26,Male,802.5,,"
  <table>
  <tr height=300>
    <td width=300 height=300><img src=""static/images/cards/back_of_red_stars.svg"" width=""175px"" height=""250px""></img></td>
    <td width=300 height=300><img src=""static/images/cards/back_of_red_stars.svg"" width=""175px"" height=""250px""></img></td>
  </tr>
  <tr height=200>
    <td width=300><img src=""static/images/keys/z.svg"" width=""35%"" height=""75%""></img></td>
    <td width=300><img src=""static/images/keys/m.svg"" width=""35%"" height=""75%""></img></td>
  </tr>
</table>
  ",77.0,1.0,,,,,,,,,,,,,,,,,,,,,,,,,,
195,0,,html-keyboard-response,195,459098,0.0-7.9-2.9,4ntxytn7kqm,2022-09-19 14:52:42.864,5cfecc1e96681500168a1799,1,55,46,37,37,26,Male,,,"
  <table>
  <tr height=300>
    <td width=300 height=300><img src=""static/images/cards/back_of_red_stars.svg"" width=""175px"" height=""250px""></img></td>
    <td width=300 height=300><img src=""static/images/cards/4_of_red_stars.svg"" width=""175px"" height=""250px""></img></td>
  </tr>
  <tr height=200>
    <td width=300><img src=""static/images/keys/z.svg"" width=""35%"" height=""75%""></img></td>
    <td width=300><img src=""static/images/keys/m.svg"" width=""35%"" height=""75%""></img></td>
  </tr>
</table>
  ",,,,,,,,,,,,,,,,,,,,,,,,,,,,
196,0,,html-keyboard-response,196,460614,0.0-7.9-3.9,4ntxytn7kqm,2022-09-19 14:52:42.864,5cfecc1e96681500168a1799,1,55,46,37,37,26,Male,,,"<p style=""font-size:50px"">You win!
+10 points this round!</p>",,,,,,,,,,,,,,,,,,,,,,,,,,,,
197,0,,html-keyboard-response,197,461119,0.0-7.9-4.9,4ntxytn7kqm,2022-09-19 14:52:42.864,5cfecc1e96681500168a1799,1,55,46,37,37,26,Male,,,,,,1.0,choice,9.0,C,D,red,black,stars,stars,C,D,C,red,stars,1493.0,1.0,0.0,NA,right,802.5,4.0,0.0,1.0,,,
198,0,,html-keyboard-response,198,462519,0.0-7.10-0.10,4ntxytn7kqm,2022-09-19 14:52:42.864,5cfecc1e96681500168a1799,1,55,46,37,37,26,Male,1398.7999999999,,"
  <table>
  <tr height=300>
    <td width=300 height=300><img src=""static/images/cards/stack_of_black_stars.svg"" width=""175px"" height=""250px""></img></td>
    <td width=300 height=300><img src=""static/images/cards/stack_of_red_bolts.svg"" width=""175px"" height=""250px""></img></td>
  </tr>
  <tr height=200>
    <td width=300><img src=""static/images/keys/w.svg"" width=""35%"" height=""75%""></img></td>
    <td width=300><img src=""static/images/keys/o.svg"" width=""35%"" height=""75%""></img></td>
  </tr>
</table>
  ",79.0,1.0,,,,,,,,,,,,,,,,,,,,,,,,,,
199,0,,html-keyboard-response,199,463564,0.0-7.10-1.10,4ntxytn7kqm,2022-09-19 14:52:42.864,5cfecc1e96681500168a1799,1,55,46,37,37,26,Male,533.2999999999,,"
  <table>
  <tr height=300>
    <td width=300 height=300><img src=""static/images/cards/back_of_red_bolts.svg"" width=""175px"" height=""250px""></img></td>
    <td width=300 height=300><img src=""static/images/cards/back_of_red_bolts.svg"" width=""175px"" height=""250px""></img></td>
  </tr>
  <tr height=200>
    <td width=300><img src=""static/images/keys/z.svg"" width=""35%"" height=""75%""></img></td>
    <td width=300><img src=""static/images/keys/m.svg"" width=""35%"" height=""75%""></img></td>
  </tr>
</table>
  ",77.0,1.0,,,,,,,,,,,,,,,,,,,,,,,,,,
200,0,,html-keyboard-response,200,465068,0.0-7.10-2.10,4ntxytn7kqm,2022-09-19 14:52:42.864,5cfecc1e96681500168a1799,1,55,46,37,37,26,Male,,,"
  <table>
  <tr height=300>
    <td width=300 height=300><img src=""static/images/cards/back_of_red_bolts.svg"" width=""175px"" height=""250px""></img></td>
    <td width=300 height=300><img src=""static/images/cards/2_of_red_bolts.svg"" width=""175px"" height=""250px""></img></td>
  </tr>
  <tr height=200>
    <td width=300><img src=""static/images/keys/z.svg"" width=""35%"" height=""75%""></img></td>
    <td width=300><img src=""static/images/keys/m.svg"" width=""35%"" height=""75%""></img></td>
  </tr>
</table>
  ",,,,,,,,,,,,,,,,,,,,,,,,,,,,
201,0,,html-keyboard-response,201,466588,0.0-7.10-3.10,4ntxytn7kqm,2022-09-19 14:52:42.864,5cfecc1e96681500168a1799,1,55,46,37,37,26,Male,,,"<p style=""font-size:50px"">You win!
+10 points this round!</p>",,,,,,,,,,,,,,,,,,,,,,,,,,,,
202,0,,html-keyboard-response,202,467108,0.0-7.10-4.10,4ntxytn7kqm,2022-09-19 14:52:42.864,5cfecc1e96681500168a1799,1,55,46,37,37,26,Male,,,,,,1.0,choice,10.0,D,Xc,black,red,stars,bolts,D,Xc,Xc,red,bolts,1398.7999999999,1.0,0.0,NA,right,533.2999999999,2.0,0.0,1.0,,,
203,0,,html-keyboard-response,203,468484,0.0-7.11-0.11,4ntxytn7kqm,2022-09-19 14:52:42.864,5cfecc1e96681500168a1799,1,55,46,37,37,26,Male,1374.7,,"
  <table>
  <tr height=300>
    <td width=300 height=300><img src=""static/images/cards/stack_of_red_stars.svg"" width=""175px"" height=""250px""></img></td>
    <td width=300 height=300><img src=""static/images/cards/stack_of_black_moons.svg"" width=""175px"" height=""250px""></img></td>
  </tr>
  <tr height=200>
    <td width=300><img src=""static/images/keys/w.svg"" width=""35%"" height=""75%""></img></td>
    <td width=300><img src=""static/images/keys/o.svg"" width=""35%"" height=""75%""></img></td>
  </tr>
</table>
  ",79.0,1.0,,,,,,,,,,,,,,,,,,,,,,,,,,
204,0,,html-keyboard-response,204,469307,0.0-7.11-1.11,4ntxytn7kqm,2022-09-19 14:52:42.864,5cfecc1e96681500168a1799,1,55,46,37,37,26,Male,311.9,,"
  <table>
  <tr height=300>
    <td width=300 height=300><img src=""static/images/cards/back_of_black_moons.svg"" width=""175px"" height=""250px""></img></td>
    <td width=300 height=300><img src=""static/images/cards/back_of_black_moons.svg"" width=""175px"" height=""250px""></img></td>
  </tr>
  <tr height=200>
    <td width=300><img src=""static/images/keys/z.svg"" width=""35%"" height=""75%""></img></td>
    <td width=300></td>
  </tr>
</table>
  ",90.0,1.0,,,,,,,,,,,,,,,,,,,,,,,,,,
205,0,,html-keyboard-response,205,470812,0.0-7.11-2.11,4ntxytn7kqm,2022-09-19 14:52:42.864,5cfecc1e96681500168a1799,1,55,46,37,37,26,Male,,,"
  <table>
  <tr height=300>
    <td width=300 height=300><img src=""static/images/cards/4_of_black_moons.svg"" width=""175px"" height=""250px""></img></td>
    <td width=300 height=300><img src=""static/images/cards/back_of_black_moons.svg"" width=""175px"" height=""250px""></img></td>
  </tr>
  <tr height=200>
    <td width=300><img src=""static/images/keys/z.svg"" width=""35%"" height=""75%""></img></td>
    <td width=300></td>
  </tr>
</table>
  ",,,,,,,,,,,,,,,,,,,,,,,,,,,,
206,0,,html-keyboard-response,206,472331,0.0-7.11-3.11,4ntxytn7kqm,2022-09-19 14:52:42.864,5cfecc1e96681500168a1799,1,55,46,37,37,26,Male,,,"<p style=""font-size:50px"">You Lose!
No points this round.</p>",,,,,,,,,,,,,,,,,,,,,,,,,,,,
207,0,,html-keyboard-response,207,472851,0.0-7.11-4.11,4ntxytn7kqm,2022-09-19 14:52:42.864,5cfecc1e96681500168a1799,1,55,46,37,37,26,Male,,,,,,1.0,choice,11.0,B,C,red,black,stars,moons,C,B,B,black,moons,1374.7,0.0,1.0,1,left,311.9,4.0,0.0,0.0,,,
208,0,,html-keyboard-response,208,473999,0.0-7.12-0.12,4ntxytn7kqm,2022-09-19 14:52:42.864,5cfecc1e96681500168a1799,1,55,46,37,37,26,Male,1146.6,,"
  <table>
  <tr height=300>
    <td width=300 height=300><img src=""static/images/cards/stack_of_red_stars.svg"" width=""175px"" height=""250px""></img></td>
    <td width=300 height=300><img src=""static/images/cards/stack_of_black_stars.svg"" width=""175px"" height=""250px""></img></td>
  </tr>
  <tr height=200>
    <td width=300><img src=""static/images/keys/w.svg"" width=""35%"" height=""75%""></img></td>
    <td width=300><img src=""static/images/keys/o.svg"" width=""35%"" height=""75%""></img></td>
  </tr>
</table>
  ",87.0,1.0,,,,,,,,,,,,,,,,,,,,,,,,,,
209,0,,html-keyboard-response,209,474884,0.0-7.12-1.12,4ntxytn7kqm,2022-09-19 14:52:42.864,5cfecc1e96681500168a1799,1,55,46,37,37,26,Male,371.5,,"
  <table>
  <tr height=300>
    <td width=300 height=300><img src=""static/images/cards/back_of_red_stars.svg"" width=""175px"" height=""250px""></img></td>
    <td width=300 height=300><img src=""static/images/cards/back_of_red_stars.svg"" width=""175px"" height=""250px""></img></td>
  </tr>
  <tr height=200>
    <td width=300><img src=""static/images/keys/z.svg"" width=""35%"" height=""75%""></img></td>
    <td width=300><img src=""static/images/keys/m.svg"" width=""35%"" height=""75%""></img></td>
  </tr>
</table>
  ",90.0,1.0,,,,,,,,,,,,,,,,,,,,,,,,,,
210,0,,html-keyboard-response,210,476400,0.0-7.12-2.12,4ntxytn7kqm,2022-09-19 14:52:42.864,5cfecc1e96681500168a1799,1,55,46,37,37,26,Male,,,"
  <table>
  <tr height=300>
    <td width=300 height=300><img src=""static/images/cards/7_of_red_stars.svg"" width=""175px"" height=""250px""></img></td>
    <td width=300 height=300><img src=""static/images/cards/back_of_red_stars.svg"" width=""175px"" height=""250px""></img></td>
  </tr>
  <tr height=200>
    <td width=300><img src=""static/images/keys/z.svg"" width=""35%"" height=""75%""></img></td>
    <td width=300><img src=""static/images/keys/m.svg"" width=""35%"" height=""75%""></img></td>
  </tr>
</table>
  ",,,,,,,,,,,,,,,,,,,,,,,,,,,,
211,0,,html-keyboard-response,211,477915,0.0-7.12-3.12,4ntxytn7kqm,2022-09-19 14:52:42.864,5cfecc1e96681500168a1799,1,55,46,37,37,26,Male,,,"<p style=""font-size:50px"">You Lose!
No points this round.</p>",,,,,,,,,,,,,,,,,,,,,,,,,,,,
212,0,,html-keyboard-response,212,478427,0.0-7.12-4.12,4ntxytn7kqm,2022-09-19 14:52:42.864,5cfecc1e96681500168a1799,1,55,46,37,37,26,Male,,,,,,1.0,choice,12.0,C,D,red,black,stars,stars,C,D,C,red,stars,1146.6,1.0,0.0,NA,left,371.5,7.0,1.0,0.0,,,
213,0,,html-keyboard-response,213,479506,0.0-7.13-0.13,4ntxytn7kqm,2022-09-19 14:52:42.864,5cfecc1e96681500168a1799,1,55,46,37,37,26,Male,1077.6,,"
  <table>
  <tr height=300>
    <td width=300 height=300><img src=""static/images/cards/stack_of_black_stars.svg"" width=""175px"" height=""250px""></img></td>
    <td width=300 height=300><img src=""static/images/cards/stack_of_black_moons.svg"" width=""175px"" height=""250px""></img></td>
  </tr>
  <tr height=200>
    <td width=300><img src=""static/images/keys/w.svg"" width=""35%"" height=""75%""></img></td>
    <td width=300><img src=""static/images/keys/o.svg"" width=""35%"" height=""75%""></img></td>
  </tr>
</table>
  ",87.0,1.0,,,,,,,,,,,,,,,,,,,,,,,,,,
214,0,,html-keyboard-response,214,480343,0.0-7.13-1.13,4ntxytn7kqm,2022-09-19 14:52:42.864,5cfecc1e96681500168a1799,1,55,46,37,37,26,Male,320.6,,"
  <table>
  <tr height=300>
    <td width=300 height=300><img src=""static/images/cards/back_of_black_stars.svg"" width=""175px"" height=""250px""></img></td>
    <td width=300 height=300><img src=""static/images/cards/back_of_black_stars.svg"" width=""175px"" height=""250px""></img></td>
  </tr>
  <tr height=200>
    <td width=300></td>
    <td width=300><img src=""static/images/keys/m.svg"" width=""35%"" height=""75%""></img></td>
  </tr>
</table>
  ",77.0,1.0,,,,,,,,,,,,,,,,,,,,,,,,,,
215,0,,html-keyboard-response,215,481850,0.0-7.13-2.13,4ntxytn7kqm,2022-09-19 14:52:42.864,5cfecc1e96681500168a1799,1,55,46,37,37,26,Male,,,"
  <table>
  <tr height=300>
    <td width=300 height=300><img src=""static/images/cards/back_of_black_stars.svg"" width=""175px"" height=""250px""></img></td>
    <td width=300 height=300><img src=""static/images/cards/9_of_black_stars.svg"" width=""175px"" height=""250px""></img></td>
  </tr>
  <tr height=200>
    <td width=300></td>
    <td width=300><img src=""static/images/keys/m.svg"" width=""35%"" height=""75%""></img></td>
  </tr>
</table>
  ",,,,,,,,,,,,,,,,,,,,,,,,,,,,
216,0,,html-keyboard-response,216,483365,0.0-7.13-3.13,4ntxytn7kqm,2022-09-19 14:52:42.864,5cfecc1e96681500168a1799,1,55,46,37,37,26,Male,,,"<p style=""font-size:50px"">You Lose!
No points this round.</p>",,,,,,,,,,,,,,,,,,,,,,,,,,,,
217,0,,html-keyboard-response,217,483882,0.0-7.13-4.13,4ntxytn7kqm,2022-09-19 14:52:42.864,5cfecc1e96681500168a1799,1,55,46,37,37,26,Male,,,,,,1.0,choice,13.0,B,D,black,black,stars,moons,D,B,D,black,stars,1077.6,0.0,0.0,0,right,320.6,9.0,1.0,0.0,,,
218,0,,html-keyboard-response,218,484854,0.0-7.14-0.14,4ntxytn7kqm,2022-09-19 14:52:42.864,5cfecc1e96681500168a1799,1,55,46,37,37,26,Male,971.0,,"
  <table>
  <tr height=300>
    <td width=300 height=300><img src=""static/images/cards/stack_of_black_stars.svg"" width=""175px"" height=""250px""></img></td>
    <td width=300 height=300><img src=""static/images/cards/stack_of_black_moons.svg"" width=""175px"" height=""250px""></img></td>
  </tr>
  <tr height=200>
    <td width=300><img src=""static/images/keys/w.svg"" width=""35%"" height=""75%""></img></td>
    <td width=300><img src=""static/images/keys/o.svg"" width=""35%"" height=""75%""></img></td>
  </tr>
</table>
  ",79.0,1.0,,,,,,,,,,,,,,,,,,,,,,,,,,
219,0,,html-keyboard-response,219,485771,0.0-7.14-1.14,4ntxytn7kqm,2022-09-19 14:52:42.864,5cfecc1e96681500168a1799,1,55,46,37,37,26,Male,408.9,,"
  <table>
  <tr height=300>
    <td width=300 height=300><img src=""static/images/cards/back_of_black_moons.svg"" width=""175px"" height=""250px""></img></td>
    <td width=300 height=300><img src=""static/images/cards/back_of_black_moons.svg"" width=""175px"" height=""250px""></img></td>
  </tr>
  <tr height=200>
    <td width=300><img src=""static/images/keys/z.svg"" width=""35%"" height=""75%""></img></td>
    <td width=300></td>
  </tr>
</table>
  ",90.0,1.0,,,,,,,,,,,,,,,,,,,,,,,,,,
220,0,,html-keyboard-response,220,487276,0.0-7.14-2.14,4ntxytn7kqm,2022-09-19 14:52:42.864,5cfecc1e96681500168a1799,1,55,46,37,37,26,Male,,,"
  <table>
  <tr height=300>
    <td width=300 height=300><img src=""static/images/cards/2_of_black_moons.svg"" width=""175px"" height=""250px""></img></td>
    <td width=300 height=300><img src=""static/images/cards/back_of_black_moons.svg"" width=""175px"" height=""250px""></img></td>
  </tr>
  <tr height=200>
    <td width=300><img src=""static/images/keys/z.svg"" width=""35%"" height=""75%""></img></td>
    <td width=300></td>
  </tr>
</table>
  ",,,,,,,,,,,,,,,,,,,,,,,,,,,,
221,0,,html-keyboard-response,221,488791,0.0-7.14-3.14,4ntxytn7kqm,2022-09-19 14:52:42.864,5cfecc1e96681500168a1799,1,55,46,37,37,26,Male,,,"<p style=""font-size:50px"">You Lose!
No points this round.</p>",,,,,,,,,,,,,,,,,,,,,,,,,,,,
222,0,,html-keyboard-response,222,489299,0.0-7.14-4.14,4ntxytn7kqm,2022-09-19 14:52:42.864,5cfecc1e96681500168a1799,1,55,46,37,37,26,Male,,,,,,1.0,choice,14.0,B,D,black,black,stars,moons,D,B,B,black,moons,971.0,0.0,1.0,1,left,408.9,2.0,0.0,0.0,,,
223,0,,html-keyboard-response,223,490682,0.0-7.15-0.15,4ntxytn7kqm,2022-09-19 14:52:42.864,5cfecc1e96681500168a1799,1,55,46,37,37,26,Male,1381.7,,"
  <table>
  <tr height=300>
    <td width=300 height=300><img src=""static/images/cards/stack_of_red_moons.svg"" width=""175px"" height=""250px""></img></td>
    <td width=300 height=300><img src=""static/images/cards/stack_of_black_stars.svg"" width=""175px"" height=""250px""></img></td>
  </tr>
  <tr height=200>
    <td width=300><img src=""static/images/keys/w.svg"" width=""35%"" height=""75%""></img></td>
    <td width=300><img src=""static/images/keys/o.svg"" width=""35%"" height=""75%""></img></td>
  </tr>
</table>
  ",87.0,1.0,,,,,,,,,,,,,,,,,,,,,,,,,,
224,0,,html-keyboard-response,224,491985,0.0-7.15-1.15,4ntxytn7kqm,2022-09-19 14:52:42.864,5cfecc1e96681500168a1799,1,55,46,37,37,26,Male,789.2,,"
  <table>
  <tr height=300>
    <td width=300 height=300><img src=""static/images/cards/back_of_red_moons.svg"" width=""175px"" height=""250px""></img></td>
    <td width=300 height=300><img src=""static/images/cards/back_of_red_moons.svg"" width=""175px"" height=""250px""></img></td>
  </tr>
  <tr height=200>
    <td width=300><img src=""static/images/keys/z.svg"" width=""35%"" height=""75%""></img></td>
    <td width=300><img src=""static/images/keys/m.svg"" width=""35%"" height=""75%""></img></td>
  </tr>
</table>
  ",90.0,1.0,,,,,,,,,,,,,,,,,,,,,,,,,,
225,0,,html-keyboard-response,225,493499,0.0-7.15-2.15,4ntxytn7kqm,2022-09-19 14:52:42.864,5cfecc1e96681500168a1799,1,55,46,37,37,26,Male,,,"
  <table>
  <tr height=300>
    <td width=300 height=300><img src=""static/images/cards/3_of_red_moons.svg"" width=""175px"" height=""250px""></img></td>
    <td width=300 height=300><img src=""static/images/cards/back_of_red_moons.svg"" width=""175px"" height=""250px""></img></td>
  </tr>
  <tr height=200>
    <td width=300><img src=""static/images/keys/z.svg"" width=""35%"" height=""75%""></img></td>
    <td width=300><img src=""static/images/keys/m.svg"" width=""35%"" height=""75%""></img></td>
  </tr>
</table>
  ",,,,,,,,,,,,,,,,,,,,,,,,,,,,
226,0,,html-keyboard-response,226,495022,0.0-7.15-3.15,4ntxytn7kqm,2022-09-19 14:52:42.864,5cfecc1e96681500168a1799,1,55,46,37,37,26,Male,,,"<p style=""font-size:50px"">You Lose!
No points this round.</p>",,,,,,,,,,,,,,,,,,,,,,,,,,,,
227,0,,html-keyboard-response,227,495534,0.0-7.15-4.15,4ntxytn7kqm,2022-09-19 14:52:42.864,5cfecc1e96681500168a1799,1,55,46,37,37,26,Male,,,,,,1.0,choice,15.0,A,D,red,black,moons,stars,A,D,A,red,moons,1381.7,1.0,1.0,NA,left,789.2,3.0,0.0,0.0,,,
228,0,,html-keyboard-response,228,496906,0.0-7.16-0.16,4ntxytn7kqm,2022-09-19 14:52:42.864,5cfecc1e96681500168a1799,1,55,46,37,37,26,Male,1370.5,,"
  <table>
  <tr height=300>
    <td width=300 height=300><img src=""static/images/cards/stack_of_red_stars.svg"" width=""175px"" height=""250px""></img></td>
    <td width=300 height=300><img src=""static/images/cards/stack_of_black_moons.svg"" width=""175px"" height=""250px""></img></td>
  </tr>
  <tr height=200>
    <td width=300><img src=""static/images/keys/w.svg"" width=""35%"" height=""75%""></img></td>
    <td width=300><img src=""static/images/keys/o.svg"" width=""35%"" height=""75%""></img></td>
  </tr>
</table>
  ",87.0,1.0,,,,,,,,,,,,,,,,,,,,,,,,,,
229,0,,html-keyboard-response,229,497968,0.0-7.16-1.16,4ntxytn7kqm,2022-09-19 14:52:42.864,5cfecc1e96681500168a1799,1,55,46,37,37,26,Male,546.5,,"
  <table>
  <tr height=300>
    <td width=300 height=300><img src=""static/images/cards/back_of_red_stars.svg"" width=""175px"" height=""250px""></img></td>
    <td width=300 height=300><img src=""static/images/cards/back_of_red_stars.svg"" width=""175px"" height=""250px""></img></td>
  </tr>
  <tr height=200>
    <td width=300><img src=""static/images/keys/z.svg"" width=""35%"" height=""75%""></img></td>
    <td width=300><img src=""static/images/keys/m.svg"" width=""35%"" height=""75%""></img></td>
  </tr>
</table>
  ",77.0,1.0,,,,,,,,,,,,,,,,,,,,,,,,,,
230,0,,html-keyboard-response,230,499475,0.0-7.16-2.16,4ntxytn7kqm,2022-09-19 14:52:42.864,5cfecc1e96681500168a1799,1,55,46,37,37,26,Male,,,"
  <table>
  <tr height=300>
    <td width=300 height=300><img src=""static/images/cards/back_of_red_stars.svg"" width=""175px"" height=""250px""></img></td>
    <td width=300 height=300><img src=""static/images/cards/6_of_red_stars.svg"" width=""175px"" height=""250px""></img></td>
  </tr>
  <tr height=200>
    <td width=300><img src=""static/images/keys/z.svg"" width=""35%"" height=""75%""></img></td>
    <td width=300><img src=""static/images/keys/m.svg"" width=""35%"" height=""75%""></img></td>
  </tr>
</table>
  ",,,,,,,,,,,,,,,,,,,,,,,,,,,,
231,0,,html-keyboard-response,231,500985,0.0-7.16-3.16,4ntxytn7kqm,2022-09-19 14:52:42.864,5cfecc1e96681500168a1799,1,55,46,37,37,26,Male,,,"<p style=""font-size:50px"">You win!
+10 points this round!</p>",,,,,,,,,,,,,,,,,,,,,,,,,,,,
232,0,,html-keyboard-response,232,501493,0.0-7.16-4.16,4ntxytn7kqm,2022-09-19 14:52:42.864,5cfecc1e96681500168a1799,1,55,46,37,37,26,Male,,,,,,1.0,choice,16.0,B,C,red,black,stars,moons,C,B,C,red,stars,1370.5,1.0,0.0,NA,right,546.5,6.0,1.0,1.0,,,
233,0,,html-keyboard-response,233,502714,0.0-7.17-0.17,4ntxytn7kqm,2022-09-19 14:52:42.864,5cfecc1e96681500168a1799,1,55,46,37,37,26,Male,1219.1000000001,,"
  <table>
  <tr height=300>
    <td width=300 height=300><img src=""static/images/cards/stack_of_black_moons.svg"" width=""175px"" height=""250px""></img></td>
    <td width=300 height=300><img src=""static/images/cards/stack_of_red_stars.svg"" width=""175px"" height=""250px""></img></td>
  </tr>
  <tr height=200>
    <td width=300><img src=""static/images/keys/w.svg"" width=""35%"" height=""75%""></img></td>
    <td width=300><img src=""static/images/keys/o.svg"" width=""35%"" height=""75%""></img></td>
  </tr>
</table>
  ",79.0,1.0,,,,,,,,,,,,,,,,,,,,,,,,,,
234,0,,html-keyboard-response,234,503830,0.0-7.17-1.17,4ntxytn7kqm,2022-09-19 14:52:42.864,5cfecc1e96681500168a1799,1,55,46,37,37,26,Male,612.0,,"
  <table>
  <tr height=300>
    <td width=300 height=300><img src=""static/images/cards/back_of_red_stars.svg"" width=""175px"" height=""250px""></img></td>
    <td width=300 height=300><img src=""static/images/cards/back_of_red_stars.svg"" width=""175px"" height=""250px""></img></td>
  </tr>
  <tr height=200>
    <td width=300><img src=""static/images/keys/z.svg"" width=""35%"" height=""75%""></img></td>
    <td width=300><img src=""static/images/keys/m.svg"" width=""35%"" height=""75%""></img></td>
  </tr>
</table>
  ",77.0,1.0,,,,,,,,,,,,,,,,,,,,,,,,,,
235,0,,html-keyboard-response,235,505346,0.0-7.17-2.17,4ntxytn7kqm,2022-09-19 14:52:42.864,5cfecc1e96681500168a1799,1,55,46,37,37,26,Male,,,"
  <table>
  <tr height=300>
