,index,success,trial_type,trial_index,time_elapsed,internal_node_id,subject,date,prol_id,ctbl,sense_of_control_A,sense_of_control_B,sense_of_control_C,sense_of_control_D,age,gender,rt,url,stimulus,key_press,npress,is_data_trial,phase,trial,deck1,deck2,col1,col2,sym1,sym2,deck_l,deck_r,chosen_deck,chosen_col,chosen_sym,deck_rt,choose_choice,mutual_info,hidden_key,chosen_card,card_rt,player_num,win_card,outcome,mock_rating,response,responses
0,0,1.0,fullscreen,0,13192,0.0-0.0,pcldhzax57,2022-09-16 14:52:18.997,60fcbc0b079e2cfc50954745,2,54,36,25,4,20,female,,,,,,,,,,,,,,,,,,,,,,,,,,,,,,,
1,0,,external-html,1,16904,0.0-1.0,pcldhzax57,2022-09-16 14:52:18.997,60fcbc0b079e2cfc50954745,2,54,36,25,4,20,female,3598.7999999998,static/js/sub/consent.html,,,,,,,,,,,,,,,,,,,,,,,,,,,,,
2,0,,call-function,2,16906,0.0-2.0,pcldhzax57,2022-09-16 14:52:18.997,60fcbc0b079e2cfc50954745,2,54,36,25,4,20,female,,,,,,,,,,,,,,,,,,,,,,,,,,,,,,,
3,0,,image-keyboard-response,3,21471,0.0-3.0-0.0,pcldhzax57,2022-09-16 14:52:18.997,60fcbc0b079e2cfc50954745,2,54,36,25,4,20,female,4563.3000000007,,static/images/instructions_CB_2/Slide1.png,39.0,,,,,,,,,,,,,,,,,,,,,,,,,,,
4,0,,image-keyboard-response,4,32101,0.0-3.1-0.1,pcldhzax57,2022-09-16 14:52:18.997,60fcbc0b079e2cfc50954745,2,54,36,25,4,20,female,10628.1999999993,,static/images/instructions_CB_2/Slide2.png,39.0,,,,,,,,,,,,,,,,,,,,,,,,,,,
5,0,,image-keyboard-response,5,38214,0.0-3.2-0.2,pcldhzax57,2022-09-16 14:52:18.997,60fcbc0b079e2cfc50954745,2,54,36,25,4,20,female,6111.7000000002,,static/images/instructions_CB_2/Slide3.png,39.0,,,,,,,,,,,,,,,,,,,,,,,,,,,
6,0,,image-keyboard-response,6,43103,0.0-3.3-0.3,pcldhzax57,2022-09-16 14:52:18.997,60fcbc0b079e2cfc50954745,2,54,36,25,4,20,female,4887.5,,static/images/instructions_CB_2/Slide4.png,39.0,,,,,,,,,,,,,,,,,,,,,,,,,,,
7,0,,image-keyboard-response,7,50881,0.0-3.4-0.4,pcldhzax57,2022-09-16 14:52:18.997,60fcbc0b079e2cfc50954745,2,54,36,25,4,20,female,7776.1999999993,,static/images/instructions_CB_2/Slide5.png,39.0,,,,,,,,,,,,,,,,,,,,,,,,,,,
8,0,,image-keyboard-response,8,53993,0.0-3.5-0.5,pcldhzax57,2022-09-16 14:52:18.997,60fcbc0b079e2cfc50954745,2,54,36,25,4,20,female,3111.7000000002,,static/images/instructions_CB_2/Slide6.png,39.0,,,,,,,,,,,,,,,,,,,,,,,,,,,
9,0,,image-keyboard-response,9,58562,0.0-3.6-0.6,pcldhzax57,2022-09-16 14:52:18.997,60fcbc0b079e2cfc50954745,2,54,36,25,4,20,female,4568.0,,static/images/instructions_CB_2/Slide7.png,39.0,,,,,,,,,,,,,,,,,,,,,,,,,,,
10,0,,image-keyboard-response,10,76259,0.0-3.7-0.7,pcldhzax57,2022-09-16 14:52:18.997,60fcbc0b079e2cfc50954745,2,54,36,25,4,20,female,17695.5,,static/images/instructions_CB_2/Slide8.png,39.0,,,,,,,,,,,,,,,,,,,,,,,,,,,
11,0,,image-keyboard-response,11,84098,0.0-3.8-0.8,pcldhzax57,2022-09-16 14:52:18.997,60fcbc0b079e2cfc50954745,2,54,36,25,4,20,female,7837.7000000002,,static/images/instructions_CB_2/Slide9.png,39.0,,,,,,,,,,,,,,,,,,,,,,,,,,,
12,0,,image-keyboard-response,12,98330,0.0-3.9-0.9,pcldhzax57,2022-09-16 14:52:18.997,60fcbc0b079e2cfc50954745,2,54,36,25,4,20,female,14230.6000000006,,static/images/instructions_CB_2/Slide10.png,39.0,,,,,,,,,,,,,,,,,,,,,,,,,,,
13,0,,image-keyboard-response,13,109715,0.0-3.10-0.10,pcldhzax57,2022-09-16 14:52:18.997,60fcbc0b079e2cfc50954745,2,54,36,25,4,20,female,11384.0,,static/images/instructions_CB_2/Slide11.png,39.0,,,,,,,,,,,,,,,,,,,,,,,,,,,
14,0,,image-keyboard-response,14,129461,0.0-3.11-0.11,pcldhzax57,2022-09-16 14:52:18.997,60fcbc0b079e2cfc50954745,2,54,36,25,4,20,female,19744.0,,static/images/instructions_CB_2/Slide12.png,39.0,,,,,,,,,,,,,,,,,,,,,,,,,,,
15,0,,image-keyboard-response,15,145076,0.0-3.12-0.12,pcldhzax57,2022-09-16 14:52:18.997,60fcbc0b079e2cfc50954745,2,54,36,25,4,20,female,15614.3000000007,,static/images/instructions_CB_2/Slide13.png,39.0,,,,,,,,,,,,,,,,,,,,,,,,,,,
16,0,,image-keyboard-response,16,151778,0.0-3.13-0.13,pcldhzax57,2022-09-16 14:52:18.997,60fcbc0b079e2cfc50954745,2,54,36,25,4,20,female,6700.5999999996,,static/images/instructions_CB_2/Slide14.png,39.0,,,,,,,,,,,,,,,,,,,,,,,,,,,
17,0,,image-keyboard-response,17,160168,0.0-3.14-0.14,pcldhzax57,2022-09-16 14:52:18.997,60fcbc0b079e2cfc50954745,2,54,36,25,4,20,female,8389.0,,static/images/instructions_CB_2/Slide15.png,39.0,,,,,,,,,,,,,,,,,,,,,,,,,,,
18,0,,image-keyboard-response,18,174242,0.0-3.15-0.15,pcldhzax57,2022-09-16 14:52:18.997,60fcbc0b079e2cfc50954745,2,54,36,25,4,20,female,14072.8999999994,,static/images/instructions_CB_2/Slide16.png,39.0,,,,,,,,,,,,,,,,,,,,,,,,,,,
19,0,,image-keyboard-response,19,187164,0.0-3.16-0.16,pcldhzax57,2022-09-16 14:52:18.997,60fcbc0b079e2cfc50954745,2,54,36,25,4,20,female,12920.6000000006,,static/images/instructions_CB_2/Slide17.png,39.0,,,,,,,,,,,,,,,,,,,,,,,,,,,
20,0,,image-keyboard-response,20,207812,0.0-3.17-0.17,pcldhzax57,2022-09-16 14:52:18.997,60fcbc0b079e2cfc50954745,2,54,36,25,4,20,female,20646.4000000004,,static/images/instructions_CB_2/Slide18.png,39.0,,,,,,,,,,,,,,,,,,,,,,,,,,,
21,0,,image-keyboard-response,21,221687,0.0-3.18-0.18,pcldhzax57,2022-09-16 14:52:18.997,60fcbc0b079e2cfc50954745,2,54,36,25,4,20,female,13873.0999999996,,static/images/instructions_CB_2/Slide19.png,39.0,,,,,,,,,,,,,,,,,,,,,,,,,,,
22,0,,html-keyboard-response,22,223194,0.0-4.0-0.0,pcldhzax57,2022-09-16 14:52:18.997,60fcbc0b079e2cfc50954745,2,54,36,25,4,20,female,,,"<img src=""static/images/cards/stack_of_black_stars.svg"" width=""175px"" height=""250px""></img>",,,,,,,,,,,,,,,,,,,,,,,,,,,,
23,0,,html-keyboard-response,23,224709,0.0-4.0-1.0,pcldhzax57,2022-09-16 14:52:18.997,60fcbc0b079e2cfc50954745,2,54,36,25,4,20,female,1012.7000000002,,"
  <table>
  <tr height=300>
    <td width=300 height=300><img src=""static/images/cards/back_of_black_stars.svg"" width=""175px"" height=""250px""></img></td>
    <td width=300 height=300><img src=""static/images/cards/back_of_black_stars.svg"" width=""175px"" height=""250px""></img></td>
  </tr>
  <tr height=200>
    <td width=300><img src=""static/images/keys/z.svg"" width=""35%"" height=""75%""></img></td>
    <td width=300><img src=""static/images/keys/m.svg"" width=""35%"" height=""75%""></img></td>
  </tr>
</table>
  ",90.0,1.0,,,,,,,,,,,,,,,,,,,,,,,,,,
24,0,,html-keyboard-response,24,226215,0.0-4.0-2.0,pcldhzax57,2022-09-16 14:52:18.997,60fcbc0b079e2cfc50954745,2,54,36,25,4,20,female,,,"
  <table>
  <tr height=300>
    <td width=300 height=300><img src=""static/images/cards/10_of_black_stars.svg"" width=""175px"" height=""250px""></img></td>
    <td width=300 height=300><img src=""static/images/cards/back_of_black_stars.svg"" width=""175px"" height=""250px""></img></td>
  </tr>
  <tr height=200>
    <td width=300><img src=""static/images/keys/z.svg"" width=""35%"" height=""75%""></img></td>
    <td width=300><img src=""static/images/keys/m.svg"" width=""35%"" height=""75%""></img></td>
  </tr>
</table>
  ",,,,,,,,,,,,,,,,,,,,,,,,,,,,
25,0,,html-keyboard-response,25,227723,0.0-4.0-3.0,pcldhzax57,2022-09-16 14:52:18.997,60fcbc0b079e2cfc50954745,2,54,36,25,4,20,female,,,"<p style=""font-size:50px"">You win!
+10 points this round!</p>",,,,,,,,,,,,,,,,,,,,,,,,,,,,
26,0,,html-keyboard-response,26,228233,0.0-4.0-4.0,pcldhzax57,2022-09-16 14:52:18.997,60fcbc0b079e2cfc50954745,2,54,36,25,4,20,female,,,,,,1.0,learning,0.0,A,,black,,stars,,,,A,black,stars,,1.0,1.0,NA,left,1012.7000000002,10.0,1.0,1.0,,,
27,0,,html-keyboard-response,27,229735,0.0-4.1-0.1,pcldhzax57,2022-09-16 14:52:18.997,60fcbc0b079e2cfc50954745,2,54,36,25,4,20,female,,,"<img src=""static/images/cards/stack_of_red_stars.svg"" width=""175px"" height=""250px""></img>",,,,,,,,,,,,,,,,,,,,,,,,,,,,
28,0,,html-keyboard-response,28,230695,0.0-4.1-1.1,pcldhzax57,2022-09-16 14:52:18.997,60fcbc0b079e2cfc50954745,2,54,36,25,4,20,female,455.9000000004,,"
  <table>
  <tr height=300>
    <td width=300 height=300><img src=""static/images/cards/back_of_red_stars.svg"" width=""175px"" height=""250px""></img></td>
    <td width=300 height=300><img src=""static/images/cards/back_of_red_stars.svg"" width=""175px"" height=""250px""></img></td>
  </tr>
  <tr height=200>
    <td width=300><img src=""static/images/keys/z.svg"" width=""35%"" height=""75%""></img></td>
    <td width=300></td>
  </tr>
</table>
  ",90.0,1.0,,,,,,,,,,,,,,,,,,,,,,,,,,
29,0,,html-keyboard-response,29,232202,0.0-4.1-2.1,pcldhzax57,2022-09-16 14:52:18.997,60fcbc0b079e2cfc50954745,2,54,36,25,4,20,female,,,"
  <table>
  <tr height=300>
    <td width=300 height=300><img src=""static/images/cards/6_of_red_stars.svg"" width=""175px"" height=""250px""></img></td>
    <td width=300 height=300><img src=""static/images/cards/back_of_red_stars.svg"" width=""175px"" height=""250px""></img></td>
  </tr>
  <tr height=200>
    <td width=300><img src=""static/images/keys/z.svg"" width=""35%"" height=""75%""></img></td>
    <td width=300></td>
  </tr>
</table>
  ",,,,,,,,,,,,,,,,,,,,,,,,,,,,
30,0,,html-keyboard-response,30,233713,0.0-4.1-3.1,pcldhzax57,2022-09-16 14:52:18.997,60fcbc0b079e2cfc50954745,2,54,36,25,4,20,female,,,"<p style=""font-size:50px"">You win!
+10 points this round!</p>",,,,,,,,,,,,,,,,,,,,,,,,,,,,
31,0,,html-keyboard-response,31,234224,0.0-4.1-4.1,pcldhzax57,2022-09-16 14:52:18.997,60fcbc0b079e2cfc50954745,2,54,36,25,4,20,female,,,,,,1.0,learning,1.0,B,,red,,stars,,,,B,red,stars,,0.0,1.0,1,left,455.9000000004,6.0,1.0,1.0,,,
32,0,,html-keyboard-response,32,235725,0.0-4.2-0.2,pcldhzax57,2022-09-16 14:52:18.997,60fcbc0b079e2cfc50954745,2,54,36,25,4,20,female,,,"<img src=""static/images/cards/stack_of_black_moons.svg"" width=""175px"" height=""250px""></img>",,,,,,,,,,,,,,,,,,,,,,,,,,,,
33,0,,html-keyboard-response,33,236757,0.0-4.2-1.2,pcldhzax57,2022-09-16 14:52:18.997,60fcbc0b079e2cfc50954745,2,54,36,25,4,20,female,525.7000000002,,"
  <table>
  <tr height=300>
    <td width=300 height=300><img src=""static/images/cards/back_of_black_moons.svg"" width=""175px"" height=""250px""></img></td>
    <td width=300 height=300><img src=""static/images/cards/back_of_black_moons.svg"" width=""175px"" height=""250px""></img></td>
  </tr>
  <tr height=200>
    <td width=300><img src=""static/images/keys/z.svg"" width=""35%"" height=""75%""></img></td>
    <td width=300><img src=""static/images/keys/m.svg"" width=""35%"" height=""75%""></img></td>
  </tr>
</table>
  ",90.0,1.0,,,,,,,,,,,,,,,,,,,,,,,,,,
34,0,,html-keyboard-response,34,238263,0.0-4.2-2.2,pcldhzax57,2022-09-16 14:52:18.997,60fcbc0b079e2cfc50954745,2,54,36,25,4,20,female,,,"
  <table>
  <tr height=300>
    <td width=300 height=300><img src=""static/images/cards/2_of_black_moons.svg"" width=""175px"" height=""250px""></img></td>
    <td width=300 height=300><img src=""static/images/cards/back_of_black_moons.svg"" width=""175px"" height=""250px""></img></td>
  </tr>
  <tr height=200>
    <td width=300><img src=""static/images/keys/z.svg"" width=""35%"" height=""75%""></img></td>
    <td width=300><img src=""static/images/keys/m.svg"" width=""35%"" height=""75%""></img></td>
  </tr>
</table>
  ",,,,,,,,,,,,,,,,,,,,,,,,,,,,
35,0,,html-keyboard-response,35,239772,0.0-4.2-3.2,pcldhzax57,2022-09-16 14:52:18.997,60fcbc0b079e2cfc50954745,2,54,36,25,4,20,female,,,"<p style=""font-size:50px"">You win!
+10 points this round!</p>",,,,,,,,,,,,,,,,,,,,,,,,,,,,
36,0,,html-keyboard-response,36,240282,0.0-4.2-4.2,pcldhzax57,2022-09-16 14:52:18.997,60fcbc0b079e2cfc50954745,2,54,36,25,4,20,female,,,,,,1.0,learning,2.0,C,,black,,moons,,,,C,black,moons,,1.0,0.0,NA,left,525.7000000002,2.0,0.0,1.0,,,
37,0,,html-keyboard-response,37,241789,0.0-4.3-0.3,pcldhzax57,2022-09-16 14:52:18.997,60fcbc0b079e2cfc50954745,2,54,36,25,4,20,female,,,"<img src=""static/images/cards/stack_of_red_moons.svg"" width=""175px"" height=""250px""></img>",,,,,,,,,,,,,,,,,,,,,,,,,,,,
38,0,,html-keyboard-response,38,242851,0.0-4.3-1.3,pcldhzax57,2022-09-16 14:52:18.997,60fcbc0b079e2cfc50954745,2,54,36,25,4,20,female,556.6000000006,,"
  <table>
  <tr height=300>
    <td width=300 height=300><img src=""static/images/cards/back_of_red_moons.svg"" width=""175px"" height=""250px""></img></td>
    <td width=300 height=300><img src=""static/images/cards/back_of_red_moons.svg"" width=""175px"" height=""250px""></img></td>
  </tr>
  <tr height=200>
    <td width=300></td>
    <td width=300><img src=""static/images/keys/m.svg"" width=""35%"" height=""75%""></img></td>
  </tr>
</table>
  ",77.0,1.0,,,,,,,,,,,,,,,,,,,,,,,,,,
39,0,,html-keyboard-response,39,244355,0.0-4.3-2.3,pcldhzax57,2022-09-16 14:52:18.997,60fcbc0b079e2cfc50954745,2,54,36,25,4,20,female,,,"
  <table>
  <tr height=300>
    <td width=300 height=300><img src=""static/images/cards/back_of_red_moons.svg"" width=""175px"" height=""250px""></img></td>
    <td width=300 height=300><img src=""static/images/cards/10_of_red_moons.svg"" width=""175px"" height=""250px""></img></td>
  </tr>
  <tr height=200>
    <td width=300></td>
    <td width=300><img src=""static/images/keys/m.svg"" width=""35%"" height=""75%""></img></td>
  </tr>
</table>
  ",,,,,,,,,,,,,,,,,,,,,,,,,,,,
40,0,,html-keyboard-response,40,245863,0.0-4.3-3.3,pcldhzax57,2022-09-16 14:52:18.997,60fcbc0b079e2cfc50954745,2,54,36,25,4,20,female,,,"<p style=""font-size:50px"">You Lose!
No points this round.</p>",,,,,,,,,,,,,,,,,,,,,,,,,,,,
41,0,,html-keyboard-response,41,246371,0.0-4.3-4.3,pcldhzax57,2022-09-16 14:52:18.997,60fcbc0b079e2cfc50954745,2,54,36,25,4,20,female,,,,,,1.0,learning,3.0,D,,red,,moons,,,,D,red,moons,,0.0,0.0,0,right,556.6000000006,10.0,1.0,0.0,,,
42,0,,html-keyboard-response,42,247874,0.0-4.4-0.4,pcldhzax57,2022-09-16 14:52:18.997,60fcbc0b079e2cfc50954745,2,54,36,25,4,20,female,,,"<img src=""static/images/cards/stack_of_red_bolts.svg"" width=""175px"" height=""250px""></img>",,,,,,,,,,,,,,,,,,,,,,,,,,,,
43,0,,html-keyboard-response,43,249264,0.0-4.4-1.4,pcldhzax57,2022-09-16 14:52:18.997,60fcbc0b079e2cfc50954745,2,54,36,25,4,20,female,885.0999999996,,"
  <table>
  <tr height=300>
    <td width=300 height=300><img src=""static/images/cards/back_of_red_bolts.svg"" width=""175px"" height=""250px""></img></td>
    <td width=300 height=300><img src=""static/images/cards/back_of_red_bolts.svg"" width=""175px"" height=""250px""></img></td>
  </tr>
  <tr height=200>
    <td width=300><img src=""static/images/keys/z.svg"" width=""35%"" height=""75%""></img></td>
    <td width=300><img src=""static/images/keys/m.svg"" width=""35%"" height=""75%""></img></td>
  </tr>
</table>
  ",90.0,1.0,,,,,,,,,,,,,,,,,,,,,,,,,,
44,0,,html-keyboard-response,44,250769,0.0-4.4-2.4,pcldhzax57,2022-09-16 14:52:18.997,60fcbc0b079e2cfc50954745,2,54,36,25,4,20,female,,,"
  <table>
  <tr height=300>
    <td width=300 height=300><img src=""static/images/cards/7_of_red_bolts.svg"" width=""175px"" height=""250px""></img></td>
    <td width=300 height=300><img src=""static/images/cards/back_of_red_bolts.svg"" width=""175px"" height=""250px""></img></td>
  </tr>
  <tr height=200>
    <td width=300><img src=""static/images/keys/z.svg"" width=""35%"" height=""75%""></img></td>
    <td width=300><img src=""static/images/keys/m.svg"" width=""35%"" height=""75%""></img></td>
  </tr>
</table>
  ",,,,,,,,,,,,,,,,,,,,,,,,,,,,
45,0,,html-keyboard-response,45,252280,0.0-4.4-3.4,pcldhzax57,2022-09-16 14:52:18.997,60fcbc0b079e2cfc50954745,2,54,36,25,4,20,female,,,"<p style=""font-size:50px"">You win!
+10 points this round!</p>",,,,,,,,,,,,,,,,,,,,,,,,,,,,
46,0,,html-keyboard-response,46,252791,0.0-4.4-4.4,pcldhzax57,2022-09-16 14:52:18.997,60fcbc0b079e2cfc50954745,2,54,36,25,4,20,female,,,,,,1.0,learning,4.0,Xc,,red,,bolts,,,,Xc,red,bolts,,1.0,0.0,NA,left,885.0999999996,7.0,1.0,1.0,,,
47,0,,html-keyboard-response,47,254297,0.0-4.5-0.5,pcldhzax57,2022-09-16 14:52:18.997,60fcbc0b079e2cfc50954745,2,54,36,25,4,20,female,,,"<img src=""static/images/cards/stack_of_black_bolts.svg"" width=""175px"" height=""250px""></img>",,,,,,,,,,,,,,,,,,,,,,,,,,,,
48,0,,html-keyboard-response,48,255449,0.0-4.5-1.5,pcldhzax57,2022-09-16 14:52:18.997,60fcbc0b079e2cfc50954745,2,54,36,25,4,20,female,646.5999999996,,"
  <table>
  <tr height=300>
    <td width=300 height=300><img src=""static/images/cards/back_of_black_bolts.svg"" width=""175px"" height=""250px""></img></td>
    <td width=300 height=300><img src=""static/images/cards/back_of_black_bolts.svg"" width=""175px"" height=""250px""></img></td>
  </tr>
  <tr height=200>
    <td width=300></td>
    <td width=300><img src=""static/images/keys/m.svg"" width=""35%"" height=""75%""></img></td>
  </tr>
</table>
  ",77.0,1.0,,,,,,,,,,,,,,,,,,,,,,,,,,
49,0,,html-keyboard-response,49,256955,0.0-4.5-2.5,pcldhzax57,2022-09-16 14:52:18.997,60fcbc0b079e2cfc50954745,2,54,36,25,4,20,female,,,"
  <table>
  <tr height=300>
    <td width=300 height=300><img src=""static/images/cards/back_of_black_bolts.svg"" width=""175px"" height=""250px""></img></td>
    <td width=300 height=300><img src=""static/images/cards/8_of_black_bolts.svg"" width=""175px"" height=""250px""></img></td>
  </tr>
  <tr height=200>
    <td width=300></td>
    <td width=300><img src=""static/images/keys/m.svg"" width=""35%"" height=""75%""></img></td>
  </tr>
</table>
  ",,,,,,,,,,,,,,,,,,,,,,,,,,,,
50,0,,html-keyboard-response,50,258461,0.0-4.5-3.5,pcldhzax57,2022-09-16 14:52:18.997,60fcbc0b079e2cfc50954745,2,54,36,25,4,20,female,,,"<p style=""font-size:50px"">You win!
+10 points this round!</p>",,,,,,,,,,,,,,,,,,,,,,,,,,,,
51,0,,html-keyboard-response,51,258968,0.0-4.5-4.5,pcldhzax57,2022-09-16 14:52:18.997,60fcbc0b079e2cfc50954745,2,54,36,25,4,20,female,,,,,,1.0,learning,5.0,Xnc,,black,,bolts,,,,Xnc,black,bolts,,0.0,0.0,0,right,646.5999999996,8.0,1.0,1.0,,,
52,0,,html-keyboard-response,52,260474,0.0-4.6-0.6,pcldhzax57,2022-09-16 14:52:18.997,60fcbc0b079e2cfc50954745,2,54,36,25,4,20,female,,,"<img src=""static/images/cards/stack_of_black_stars.svg"" width=""175px"" height=""250px""></img>",,,,,,,,,,,,,,,,,,,,,,,,,,,,
53,0,,html-keyboard-response,53,261590,0.0-4.6-1.6,pcldhzax57,2022-09-16 14:52:18.997,60fcbc0b079e2cfc50954745,2,54,36,25,4,20,female,610.0999999996,,"
  <table>
  <tr height=300>
    <td width=300 height=300><img src=""static/images/cards/back_of_black_stars.svg"" width=""175px"" height=""250px""></img></td>
    <td width=300 height=300><img src=""static/images/cards/back_of_black_stars.svg"" width=""175px"" height=""250px""></img></td>
  </tr>
  <tr height=200>
    <td width=300><img src=""static/images/keys/z.svg"" width=""35%"" height=""75%""></img></td>
    <td width=300><img src=""static/images/keys/m.svg"" width=""35%"" height=""75%""></img></td>
  </tr>
</table>
  ",77.0,1.0,,,,,,,,,,,,,,,,,,,,,,,,,,
54,0,,html-keyboard-response,54,263097,0.0-4.6-2.6,pcldhzax57,2022-09-16 14:52:18.997,60fcbc0b079e2cfc50954745,2,54,36,25,4,20,female,,,"
  <table>
  <tr height=300>
    <td width=300 height=300><img src=""static/images/cards/back_of_black_stars.svg"" width=""175px"" height=""250px""></img></td>
    <td width=300 height=300><img src=""static/images/cards/2_of_black_stars.svg"" width=""175px"" height=""250px""></img></td>
  </tr>
  <tr height=200>
    <td width=300><img src=""static/images/keys/z.svg"" width=""35%"" height=""75%""></img></td>
    <td width=300><img src=""static/images/keys/m.svg"" width=""35%"" height=""75%""></img></td>
  </tr>
</table>
  ",,,,,,,,,,,,,,,,,,,,,,,,,,,,
55,0,,html-keyboard-response,55,264608,0.0-4.6-3.6,pcldhzax57,2022-09-16 14:52:18.997,60fcbc0b079e2cfc50954745,2,54,36,25,4,20,female,,,"<p style=""font-size:50px"">You Lose!
No points this round.</p>",,,,,,,,,,,,,,,,,,,,,,,,,,,,
56,0,,html-keyboard-response,56,265119,0.0-4.6-4.6,pcldhzax57,2022-09-16 14:52:18.997,60fcbc0b079e2cfc50954745,2,54,36,25,4,20,female,,,,,,1.0,learning,6.0,A,,black,,stars,,,,A,black,stars,,1.0,1.0,NA,right,610.0999999996,2.0,0.0,0.0,,,
57,0,,html-keyboard-response,57,266625,0.0-4.7-0.7,pcldhzax57,2022-09-16 14:52:18.997,60fcbc0b079e2cfc50954745,2,54,36,25,4,20,female,,,"<img src=""static/images/cards/stack_of_red_stars.svg"" width=""175px"" height=""250px""></img>",,,,,,,,,,,,,,,,,,,,,,,,,,,,
58,0,,html-keyboard-response,58,267538,0.0-4.7-1.7,pcldhzax57,2022-09-16 14:52:18.997,60fcbc0b079e2cfc50954745,2,54,36,25,4,20,female,408.5999999996,,"
  <table>
  <tr height=300>
    <td width=300 height=300><img src=""static/images/cards/back_of_red_stars.svg"" width=""175px"" height=""250px""></img></td>
    <td width=300 height=300><img src=""static/images/cards/back_of_red_stars.svg"" width=""175px"" height=""250px""></img></td>
  </tr>
  <tr height=200>
    <td width=300><img src=""static/images/keys/z.svg"" width=""35%"" height=""75%""></img></td>
    <td width=300></td>
  </tr>
</table>
  ",90.0,1.0,,,,,,,,,,,,,,,,,,,,,,,,,,
59,0,,html-keyboard-response,59,269045,0.0-4.7-2.7,pcldhzax57,2022-09-16 14:52:18.997,60fcbc0b079e2cfc50954745,2,54,36,25,4,20,female,,,"
  <table>
  <tr height=300>
    <td width=300 height=300><img src=""static/images/cards/3_of_red_stars.svg"" width=""175px"" height=""250px""></img></td>
    <td width=300 height=300><img src=""static/images/cards/back_of_red_stars.svg"" width=""175px"" height=""250px""></img></td>
  </tr>
  <tr height=200>
    <td width=300><img src=""static/images/keys/z.svg"" width=""35%"" height=""75%""></img></td>
    <td width=300></td>
  </tr>
</table>
  ",,,,,,,,,,,,,,,,,,,,,,,,,,,,
60,0,,html-keyboard-response,60,270556,0.0-4.7-3.7,pcldhzax57,2022-09-16 14:52:18.997,60fcbc0b079e2cfc50954745,2,54,36,25,4,20,female,,,"<p style=""font-size:50px"">You Lose!
No points this round.</p>",,,,,,,,,,,,,,,,,,,,,,,,,,,,
61,0,,html-keyboard-response,61,271067,0.0-4.7-4.7,pcldhzax57,2022-09-16 14:52:18.997,60fcbc0b079e2cfc50954745,2,54,36,25,4,20,female,,,,,,1.0,learning,7.0,B,,red,,stars,,,,B,red,stars,,0.0,1.0,1,left,408.5999999996,3.0,0.0,0.0,,,
62,0,,html-keyboard-response,62,272573,0.0-4.8-0.8,pcldhzax57,2022-09-16 14:52:18.997,60fcbc0b079e2cfc50954745,2,54,36,25,4,20,female,,,"<img src=""static/images/cards/stack_of_black_moons.svg"" width=""175px"" height=""250px""></img>",,,,,,,,,,,,,,,,,,,,,,,,,,,,
63,0,,html-keyboard-response,63,273592,0.0-4.8-1.8,pcldhzax57,2022-09-16 14:52:18.997,60fcbc0b079e2cfc50954745,2,54,36,25,4,20,female,511.9000000004,,"
  <table>
  <tr height=300>
    <td width=300 height=300><img src=""static/images/cards/back_of_black_moons.svg"" width=""175px"" height=""250px""></img></td>
    <td width=300 height=300><img src=""static/images/cards/back_of_black_moons.svg"" width=""175px"" height=""250px""></img></td>
  </tr>
  <tr height=200>
    <td width=300><img src=""static/images/keys/z.svg"" width=""35%"" height=""75%""></img></td>
    <td width=300><img src=""static/images/keys/m.svg"" width=""35%"" height=""75%""></img></td>
  </tr>
</table>
  ",90.0,1.0,,,,,,,,,,,,,,,,,,,,,,,,,,
64,0,,html-keyboard-response,64,275093,0.0-4.8-2.8,pcldhzax57,2022-09-16 14:52:18.997,60fcbc0b079e2cfc50954745,2,54,36,25,4,20,female,,,"
  <table>
  <tr height=300>
    <td width=300 height=300><img src=""static/images/cards/10_of_black_moons.svg"" width=""175px"" height=""250px""></img></td>
    <td width=300 height=300><img src=""static/images/cards/back_of_black_moons.svg"" width=""175px"" height=""250px""></img></td>
  </tr>
  <tr height=200>
    <td width=300><img src=""static/images/keys/z.svg"" width=""35%"" height=""75%""></img></td>
    <td width=300><img src=""static/images/keys/m.svg"" width=""35%"" height=""75%""></img></td>
  </tr>
</table>
  ",,,,,,,,,,,,,,,,,,,,,,,,,,,,
65,0,,html-keyboard-response,65,276594,0.0-4.8-3.8,pcldhzax57,2022-09-16 14:52:18.997,60fcbc0b079e2cfc50954745,2,54,36,25,4,20,female,,,"<p style=""font-size:50px"">You win!
+10 points this round!</p>",,,,,,,,,,,,,,,,,,,,,,,,,,,,
66,0,,html-keyboard-response,66,277105,0.0-4.8-4.8,pcldhzax57,2022-09-16 14:52:18.997,60fcbc0b079e2cfc50954745,2,54,36,25,4,20,female,,,,,,1.0,learning,8.0,C,,black,,moons,,,,C,black,moons,,1.0,0.0,NA,left,511.9000000004,10.0,1.0,1.0,,,
67,0,,html-keyboard-response,67,278611,0.0-4.9-0.9,pcldhzax57,2022-09-16 14:52:18.997,60fcbc0b079e2cfc50954745,2,54,36,25,4,20,female,,,"<img src=""static/images/cards/stack_of_red_moons.svg"" width=""175px"" height=""250px""></img>",,,,,,,,,,,,,,,,,,,,,,,,,,,,
68,0,,html-keyboard-response,68,279561,0.0-4.9-1.9,pcldhzax57,2022-09-16 14:52:18.997,60fcbc0b079e2cfc50954745,2,54,36,25,4,20,female,443.0999999996,,"
  <table>
  <tr height=300>
    <td width=300 height=300><img src=""static/images/cards/back_of_red_moons.svg"" width=""175px"" height=""250px""></img></td>
    <td width=300 height=300><img src=""static/images/cards/back_of_red_moons.svg"" width=""175px"" height=""250px""></img></td>
  </tr>
  <tr height=200>
    <td width=300></td>
    <td width=300><img src=""static/images/keys/m.svg"" width=""35%"" height=""75%""></img></td>
  </tr>
</table>
  ",77.0,1.0,,,,,,,,,,,,,,,,,,,,,,,,,,
69,0,,html-keyboard-response,69,281068,0.0-4.9-2.9,pcldhzax57,2022-09-16 14:52:18.997,60fcbc0b079e2cfc50954745,2,54,36,25,4,20,female,,,"
  <table>
  <tr height=300>
    <td width=300 height=300><img src=""static/images/cards/back_of_red_moons.svg"" width=""175px"" height=""250px""></img></td>
    <td width=300 height=300><img src=""static/images/cards/10_of_red_moons.svg"" width=""175px"" height=""250px""></img></td>
  </tr>
  <tr height=200>
    <td width=300></td>
    <td width=300><img src=""static/images/keys/m.svg"" width=""35%"" height=""75%""></img></td>
  </tr>
</table>
  ",,,,,,,,,,,,,,,,,,,,,,,,,,,,
70,0,,html-keyboard-response,70,282579,0.0-4.9-3.9,pcldhzax57,2022-09-16 14:52:18.997,60fcbc0b079e2cfc50954745,2,54,36,25,4,20,female,,,"<p style=""font-size:50px"">You win!
+10 points this round!</p>",,,,,,,,,,,,,,,,,,,,,,,,,,,,
71,0,,html-keyboard-response,71,283090,0.0-4.9-4.9,pcldhzax57,2022-09-16 14:52:18.997,60fcbc0b079e2cfc50954745,2,54,36,25,4,20,female,,,,,,1.0,learning,9.0,D,,red,,moons,,,,D,red,moons,,0.0,0.0,0,right,443.0999999996,10.0,1.0,1.0,,,
72,0,,html-keyboard-response,72,284596,0.0-4.10-0.10,pcldhzax57,2022-09-16 14:52:18.997,60fcbc0b079e2cfc50954745,2,54,36,25,4,20,female,,,"<img src=""static/images/cards/stack_of_red_bolts.svg"" width=""175px"" height=""250px""></img>",,,,,,,,,,,,,,,,,,,,,,,,,,,,
73,0,,html-keyboard-response,73,285605,0.0-4.10-1.10,pcldhzax57,2022-09-16 14:52:18.997,60fcbc0b079e2cfc50954745,2,54,36,25,4,20,female,502.5999999996,,"
  <table>
  <tr height=300>
    <td width=300 height=300><img src=""static/images/cards/back_of_red_bolts.svg"" width=""175px"" height=""250px""></img></td>
    <td width=300 height=300><img src=""static/images/cards/back_of_red_bolts.svg"" width=""175px"" height=""250px""></img></td>
  </tr>
  <tr height=200>
    <td width=300><img src=""static/images/keys/z.svg"" width=""35%"" height=""75%""></img></td>
    <td width=300><img src=""static/images/keys/m.svg"" width=""35%"" height=""75%""></img></td>
  </tr>
</table>
  ",77.0,1.0,,,,,,,,,,,,,,,,,,,,,,,,,,
74,0,,html-keyboard-response,74,287111,0.0-4.10-2.10,pcldhzax57,2022-09-16 14:52:18.997,60fcbc0b079e2cfc50954745,2,54,36,25,4,20,female,,,"
  <table>
  <tr height=300>
    <td width=300 height=300><img src=""static/images/cards/back_of_red_bolts.svg"" width=""175px"" height=""250px""></img></td>
    <td width=300 height=300><img src=""static/images/cards/9_of_red_bolts.svg"" width=""175px"" height=""250px""></img></td>
  </tr>
  <tr height=200>
    <td width=300><img src=""static/images/keys/z.svg"" width=""35%"" height=""75%""></img></td>
    <td width=300><img src=""static/images/keys/m.svg"" width=""35%"" height=""75%""></img></td>
  </tr>
</table>
  ",,,,,,,,,,,,,,,,,,,,,,,,,,,,
75,0,,html-keyboard-response,75,288622,0.0-4.10-3.10,pcldhzax57,2022-09-16 14:52:18.997,60fcbc0b079e2cfc50954745,2,54,36,25,4,20,female,,,"<p style=""font-size:50px"">You win!
+10 points this round!</p>",,,,,,,,,,,,,,,,,,,,,,,,,,,,
76,0,,html-keyboard-response,76,289132,0.0-4.10-4.10,pcldhzax57,2022-09-16 14:52:18.997,60fcbc0b079e2cfc50954745,2,54,36,25,4,20,female,,,,,,1.0,learning,10.0,Xc,,red,,bolts,,,,Xc,red,bolts,,1.0,0.0,NA,right,502.5999999996,9.0,1.0,1.0,,,
77,0,,html-keyboard-response,77,290639,0.0-4.11-0.11,pcldhzax57,2022-09-16 14:52:18.997,60fcbc0b079e2cfc50954745,2,54,36,25,4,20,female,,,"<img src=""static/images/cards/stack_of_black_bolts.svg"" width=""175px"" height=""250px""></img>",,,,,,,,,,,,,,,,,,,,,,,,,,,,
78,0,,html-keyboard-response,78,291605,0.0-4.11-1.11,pcldhzax57,2022-09-16 14:52:18.997,60fcbc0b079e2cfc50954745,2,54,36,25,4,20,female,461.9000000004,,"
  <table>
  <tr height=300>
    <td width=300 height=300><img src=""static/images/cards/back_of_black_bolts.svg"" width=""175px"" height=""250px""></img></td>
    <td width=300 height=300><img src=""static/images/cards/back_of_black_bolts.svg"" width=""175px"" height=""250px""></img></td>
  </tr>
  <tr height=200>
    <td width=300></td>
    <td width=300><img src=""static/images/keys/m.svg"" width=""35%"" height=""75%""></img></td>
  </tr>
</table>
  ",77.0,1.0,,,,,,,,,,,,,,,,,,,,,,,,,,
79,0,,html-keyboard-response,79,293111,0.0-4.11-2.11,pcldhzax57,2022-09-16 14:52:18.997,60fcbc0b079e2cfc50954745,2,54,36,25,4,20,female,,,"
  <table>
  <tr height=300>
    <td width=300 height=300><img src=""static/images/cards/back_of_black_bolts.svg"" width=""175px"" height=""250px""></img></td>
    <td width=300 height=300><img src=""static/images/cards/2_of_black_bolts.svg"" width=""175px"" height=""250px""></img></td>
  </tr>
  <tr height=200>
    <td width=300></td>
    <td width=300><img src=""static/images/keys/m.svg"" width=""35%"" height=""75%""></img></td>
  </tr>
</table>
  ",,,,,,,,,,,,,,,,,,,,,,,,,,,,
80,0,,html-keyboard-response,80,294613,0.0-4.11-3.11,pcldhzax57,2022-09-16 14:52:18.997,60fcbc0b079e2cfc50954745,2,54,36,25,4,20,female,,,"<p style=""font-size:50px"">You win!
+10 points this round!</p>",,,,,,,,,,,,,,,,,,,,,,,,,,,,
81,0,,html-keyboard-response,81,295122,0.0-4.11-4.11,pcldhzax57,2022-09-16 14:52:18.997,60fcbc0b079e2cfc50954745,2,54,36,25,4,20,female,,,,,,1.0,learning,11.0,Xnc,,black,,bolts,,,,Xnc,black,bolts,,0.0,0.0,0,right,461.9000000004,2.0,0.0,1.0,,,
82,0,,html-keyboard-response,82,296628,0.0-4.12-0.12,pcldhzax57,2022-09-16 14:52:18.997,60fcbc0b079e2cfc50954745,2,54,36,25,4,20,female,,,"<img src=""static/images/cards/stack_of_black_stars.svg"" width=""175px"" height=""250px""></img>",,,,,,,,,,,,,,,,,,,,,,,,,,,,
83,0,,html-keyboard-response,83,297805,0.0-4.12-1.12,pcldhzax57,2022-09-16 14:52:18.997,60fcbc0b079e2cfc50954745,2,54,36,25,4,20,female,673.0999999996,,"
  <table>
  <tr height=300>
    <td width=300 height=300><img src=""static/images/cards/back_of_black_stars.svg"" width=""175px"" height=""250px""></img></td>
    <td width=300 height=300><img src=""static/images/cards/back_of_black_stars.svg"" width=""175px"" height=""250px""></img></td>
  </tr>
  <tr height=200>
    <td width=300><img src=""static/images/keys/z.svg"" width=""35%"" height=""75%""></img></td>
    <td width=300><img src=""static/images/keys/m.svg"" width=""35%"" height=""75%""></img></td>
  </tr>
</table>
  ",90.0,1.0,,,,,,,,,,,,,,,,,,,,,,,,,,
84,0,,html-keyboard-response,84,299312,0.0-4.12-2.12,pcldhzax57,2022-09-16 14:52:18.997,60fcbc0b079e2cfc50954745,2,54,36,25,4,20,female,,,"
  <table>
  <tr height=300>
    <td width=300 height=300><img src=""static/images/cards/10_of_black_stars.svg"" width=""175px"" height=""250px""></img></td>
    <td width=300 height=300><img src=""static/images/cards/back_of_black_stars.svg"" width=""175px"" height=""250px""></img></td>
  </tr>
  <tr height=200>
    <td width=300><img src=""static/images/keys/z.svg"" width=""35%"" height=""75%""></img></td>
    <td width=300><img src=""static/images/keys/m.svg"" width=""35%"" height=""75%""></img></td>
  </tr>
</table>
  ",,,,,,,,,,,,,,,,,,,,,,,,,,,,
85,0,,html-keyboard-response,85,300823,0.0-4.12-3.12,pcldhzax57,2022-09-16 14:52:18.997,60fcbc0b079e2cfc50954745,2,54,36,25,4,20,female,,,"<p style=""font-size:50px"">You win!
+10 points this round!</p>",,,,,,,,,,,,,,,,,,,,,,,,,,,,
86,0,,html-keyboard-response,86,301334,0.0-4.12-4.12,pcldhzax57,2022-09-16 14:52:18.997,60fcbc0b079e2cfc50954745,2,54,36,25,4,20,female,,,,,,1.0,learning,12.0,A,,black,,stars,,,,A,black,stars,,1.0,1.0,NA,left,673.0999999996,10.0,1.0,1.0,,,
87,0,,html-keyboard-response,87,302840,0.0-4.13-0.13,pcldhzax57,2022-09-16 14:52:18.997,60fcbc0b079e2cfc50954745,2,54,36,25,4,20,female,,,"<img src=""static/images/cards/stack_of_red_stars.svg"" width=""175px"" height=""250px""></img>",,,,,,,,,,,,,,,,,,,,,,,,,,,,
88,0,,html-keyboard-response,88,303828,0.0-4.13-1.13,pcldhzax57,2022-09-16 14:52:18.997,60fcbc0b079e2cfc50954745,2,54,36,25,4,20,female,481.3000000007,,"
  <table>
  <tr height=300>
    <td width=300 height=300><img src=""static/images/cards/back_of_red_stars.svg"" width=""175px"" height=""250px""></img></td>
    <td width=300 height=300><img src=""static/images/cards/back_of_red_stars.svg"" width=""175px"" height=""250px""></img></td>
  </tr>
  <tr height=200>
    <td width=300><img src=""static/images/keys/z.svg"" width=""35%"" height=""75%""></img></td>
    <td width=300></td>
  </tr>
</table>
  ",90.0,1.0,,,,,,,,,,,,,,,,,,,,,,,,,,
89,0,,html-keyboard-response,89,305332,0.0-4.13-2.13,pcldhzax57,2022-09-16 14:52:18.997,60fcbc0b079e2cfc50954745,2,54,36,25,4,20,female,,,"
  <table>
  <tr height=300>
    <td width=300 height=300><img src=""static/images/cards/10_of_red_stars.svg"" width=""175px"" height=""250px""></img></td>
    <td width=300 height=300><img src=""static/images/cards/back_of_red_stars.svg"" width=""175px"" height=""250px""></img></td>
  </tr>
  <tr height=200>
    <td width=300><img src=""static/images/keys/z.svg"" width=""35%"" height=""75%""></img></td>
    <td width=300></td>
  </tr>
</table>
  ",,,,,,,,,,,,,,,,,,,,,,,,,,,,
90,0,,html-keyboard-response,90,306839,0.0-4.13-3.13,pcldhzax57,2022-09-16 14:52:18.997,60fcbc0b079e2cfc50954745,2,54,36,25,4,20,female,,,"<p style=""font-size:50px"">You win!
+10 points this round!</p>",,,,,,,,,,,,,,,,,,,,,,,,,,,,
91,0,,html-keyboard-response,91,307346,0.0-4.13-4.13,pcldhzax57,2022-09-16 14:52:18.997,60fcbc0b079e2cfc50954745,2,54,36,25,4,20,female,,,,,,1.0,learning,13.0,B,,red,,stars,,,,B,red,stars,,0.0,1.0,1,left,481.3000000007,10.0,1.0,1.0,,,
92,0,,html-keyboard-response,92,308847,0.0-4.14-0.14,pcldhzax57,2022-09-16 14:52:18.997,60fcbc0b079e2cfc50954745,2,54,36,25,4,20,female,,,"<img src=""static/images/cards/stack_of_black_moons.svg"" width=""175px"" height=""250px""></img>",,,,,,,,,,,,,,,,,,,,,,,,,,,,
93,0,,html-keyboard-response,93,309676,0.0-4.14-1.14,pcldhzax57,2022-09-16 14:52:18.997,60fcbc0b079e2cfc50954745,2,54,36,25,4,20,female,325.1999999993,,"
  <table>
  <tr height=300>
    <td width=300 height=300><img src=""static/images/cards/back_of_black_moons.svg"" width=""175px"" height=""250px""></img></td>
    <td width=300 height=300><img src=""static/images/cards/back_of_black_moons.svg"" width=""175px"" height=""250px""></img></td>
  </tr>
  <tr height=200>
    <td width=300><img src=""static/images/keys/z.svg"" width=""35%"" height=""75%""></img></td>
    <td width=300><img src=""static/images/keys/m.svg"" width=""35%"" height=""75%""></img></td>
  </tr>
</table>
  ",90.0,1.0,,,,,,,,,,,,,,,,,,,,,,,,,,
94,0,,html-keyboard-response,94,311183,0.0-4.14-2.14,pcldhzax57,2022-09-16 14:52:18.997,60fcbc0b079e2cfc50954745,2,54,36,25,4,20,female,,,"
  <table>
  <tr height=300>
    <td width=300 height=300><img src=""static/images/cards/4_of_black_moons.svg"" width=""175px"" height=""250px""></img></td>
    <td width=300 height=300><img src=""static/images/cards/back_of_black_moons.svg"" width=""175px"" height=""250px""></img></td>
  </tr>
  <tr height=200>
    <td width=300><img src=""static/images/keys/z.svg"" width=""35%"" height=""75%""></img></td>
    <td width=300><img src=""static/images/keys/m.svg"" width=""35%"" height=""75%""></img></td>
  </tr>
</table>
  ",,,,,,,,,,,,,,,,,,,,,,,,,,,,
95,0,,html-keyboard-response,95,312694,0.0-4.14-3.14,pcldhzax57,2022-09-16 14:52:18.997,60fcbc0b079e2cfc50954745,2,54,36,25,4,20,female,,,"<p style=""font-size:50px"">You win!
+10 points this round!</p>",,,,,,,,,,,,,,,,,,,,,,,,,,,,
96,0,,html-keyboard-response,96,313205,0.0-4.14-4.14,pcldhzax57,2022-09-16 14:52:18.997,60fcbc0b079e2cfc50954745,2,54,36,25,4,20,female,,,,,,1.0,learning,14.0,C,,black,,moons,,,,C,black,moons,,1.0,0.0,NA,left,325.1999999993,4.0,0.0,1.0,,,
97,0,,html-keyboard-response,97,314711,0.0-4.15-0.15,pcldhzax57,2022-09-16 14:52:18.997,60fcbc0b079e2cfc50954745,2,54,36,25,4,20,female,,,"<img src=""static/images/cards/stack_of_red_moons.svg"" width=""175px"" height=""250px""></img>",,,,,,,,,,,,,,,,,,,,,,,,,,,,
98,0,,html-keyboard-response,98,315677,0.0-4.15-1.15,pcldhzax57,2022-09-16 14:52:18.997,60fcbc0b079e2cfc50954745,2,54,36,25,4,20,female,459.0999999996,,"
  <table>
  <tr height=300>
    <td width=300 height=300><img src=""static/images/cards/back_of_red_moons.svg"" width=""175px"" height=""250px""></img></td>
    <td width=300 height=300><img src=""static/images/cards/back_of_red_moons.svg"" width=""175px"" height=""250px""></img></td>
  </tr>
  <tr height=200>
    <td width=300><img src=""static/images/keys/z.svg"" width=""35%"" height=""75%""></img></td>
    <td width=300></td>
  </tr>
</table>
  ",90.0,1.0,,,,,,,,,,,,,,,,,,,,,,,,,,
99,0,,html-keyboard-response,99,317183,0.0-4.15-2.15,pcldhzax57,2022-09-16 14:52:18.997,60fcbc0b079e2cfc50954745,2,54,36,25,4,20,female,,,"
  <table>
  <tr height=300>
    <td width=300 height=300><img src=""static/images/cards/1_of_red_moons.svg"" width=""175px"" height=""250px""></img></td>
    <td width=300 height=300><img src=""static/images/cards/back_of_red_moons.svg"" width=""175px"" height=""250px""></img></td>
  </tr>
  <tr height=200>
    <td width=300><img src=""static/images/keys/z.svg"" width=""35%"" height=""75%""></img></td>
    <td width=300></td>
  </tr>
</table>
  ",,,,,,,,,,,,,,,,,,,,,,,,,,,,
100,0,,html-keyboard-response,100,318694,0.0-4.15-3.15,pcldhzax57,2022-09-16 14:52:18.997,60fcbc0b079e2cfc50954745,2,54,36,25,4,20,female,,,"<p style=""font-size:50px"">You win!
+10 points this round!</p>",,,,,,,,,,,,,,,,,,,,,,,,,,,,
101,0,,html-keyboard-response,101,319205,0.0-4.15-4.15,pcldhzax57,2022-09-16 14:52:18.997,60fcbc0b079e2cfc50954745,2,54,36,25,4,20,female,,,,,,1.0,learning,15.0,D,,red,,moons,,,,D,red,moons,,0.0,0.0,1,left,459.0999999996,1.0,0.0,1.0,,,
102,0,,html-keyboard-response,102,320711,0.0-4.16-0.16,pcldhzax57,2022-09-16 14:52:18.997,60fcbc0b079e2cfc50954745,2,54,36,25,4,20,female,,,"<img src=""static/images/cards/stack_of_red_bolts.svg"" width=""175px"" height=""250px""></img>",,,,,,,,,,,,,,,,,,,,,,,,,,,,
103,0,,html-keyboard-response,103,321714,0.0-4.16-1.16,pcldhzax57,2022-09-16 14:52:18.997,60fcbc0b079e2cfc50954745,2,54,36,25,4,20,female,499.3999999985,,"
  <table>
  <tr height=300>
    <td width=300 height=300><img src=""static/images/cards/back_of_red_bolts.svg"" width=""175px"" height=""250px""></img></td>
    <td width=300 height=300><img src=""static/images/cards/back_of_red_bolts.svg"" width=""175px"" height=""250px""></img></td>
  </tr>
  <tr height=200>
    <td width=300><img src=""static/images/keys/z.svg"" width=""35%"" height=""75%""></img></td>
    <td width=300><img src=""static/images/keys/m.svg"" width=""35%"" height=""75%""></img></td>
  </tr>
</table>
  ",77.0,1.0,,,,,,,,,,,,,,,,,,,,,,,,,,
104,0,,html-keyboard-response,104,323221,0.0-4.16-2.16,pcldhzax57,2022-09-16 14:52:18.997,60fcbc0b079e2cfc50954745,2,54,36,25,4,20,female,,,"
  <table>
  <tr height=300>
    <td width=300 height=300><img src=""static/images/cards/back_of_red_bolts.svg"" width=""175px"" height=""250px""></img></td>
    <td width=300 height=300><img src=""static/images/cards/3_of_red_bolts.svg"" width=""175px"" height=""250px""></img></td>
  </tr>
  <tr height=200>
    <td width=300><img src=""static/images/keys/z.svg"" width=""35%"" height=""75%""></img></td>
    <td width=300><img src=""static/images/keys/m.svg"" width=""35%"" height=""75%""></img></td>
  </tr>
</table>
  ",,,,,,,,,,,,,,,,,,,,,,,,,,,,
105,0,,html-keyboard-response,105,324730,0.0-4.16-3.16,pcldhzax57,2022-09-16 14:52:18.997,60fcbc0b079e2cfc50954745,2,54,36,25,4,20,female,,,"<p style=""font-size:50px"">You win!
+10 points this round!</p>",,,,,,,,,,,,,,,,,,,,,,,,,,,,
106,0,,html-keyboard-response,106,325237,0.0-4.16-4.16,pcldhzax57,2022-09-16 14:52:18.997,60fcbc0b079e2cfc50954745,2,54,36,25,4,20,female,,,,,,1.0,learning,16.0,Xc,,red,,bolts,,,,Xc,red,bolts,,1.0,0.0,NA,right,499.3999999985,3.0,0.0,1.0,,,
107,0,,html-keyboard-response,107,326741,0.0-4.17-0.17,pcldhzax57,2022-09-16 14:52:18.997,60fcbc0b079e2cfc50954745,2,54,36,25,4,20,female,,,"<img src=""static/images/cards/stack_of_black_bolts.svg"" width=""175px"" height=""250px""></img>",,,,,,,,,,,,,,,,,,,,,,,,,,,,
108,0,,html-keyboard-response,108,327770,0.0-4.17-1.17,pcldhzax57,2022-09-16 14:52:18.997,60fcbc0b079e2cfc50954745,2,54,36,25,4,20,female,523.5999999996,,"
  <table>
  <tr height=300>
    <td width=300 height=300><img src=""static/images/cards/back_of_black_bolts.svg"" width=""175px"" height=""250px""></img></td>
    <td width=300 height=300><img src=""static/images/cards/back_of_black_bolts.svg"" width=""175px"" height=""250px""></img></td>
  </tr>
  <tr height=200>
    <td width=300></td>
    <td width=300><img src=""static/images/keys/m.svg"" width=""35%"" height=""75%""></img></td>
  </tr>
</table>
  ",77.0,1.0,,,,,,,,,,,,,,,,,,,,,,,,,,
109,0,,html-keyboard-response,109,329275,0.0-4.17-2.17,pcldhzax57,2022-09-16 14:52:18.997,60fcbc0b079e2cfc50954745,2,54,36,25,4,20,female,,,"
  <table>
  <tr height=300>
    <td width=300 height=300><img src=""static/images/cards/back_of_black_bolts.svg"" width=""175px"" height=""250px""></img></td>
    <td width=300 height=300><img src=""static/images/cards/4_of_black_bolts.svg"" width=""175px"" height=""250px""></img></td>
  </tr>
  <tr height=200>
    <td width=300></td>
    <td width=300><img src=""static/images/keys/m.svg"" width=""35%"" height=""75%""></img></td>
  </tr>
</table>
  ",,,,,,,,,,,,,,,,,,,,,,,,,,,,
110,0,,html-keyboard-response,110,330783,0.0-4.17-3.17,pcldhzax57,2022-09-16 14:52:18.997,60fcbc0b079e2cfc50954745,2,54,36,25,4,20,female,,,"<p style=""font-size:50px"">You win!
+10 points this round!</p>",,,,,,,,,,,,,,,,,,,,,,,,,,,,
111,0,,html-keyboard-response,111,331294,0.0-4.17-4.17,pcldhzax57,2022-09-16 14:52:18.997,60fcbc0b079e2cfc50954745,2,54,36,25,4,20,female,,,,,,1.0,learning,17.0,Xnc,,black,,bolts,,,,Xnc,black,bolts,,0.0,0.0,0,right,523.5999999996,4.0,0.0,1.0,,,
112,0,,html-keyboard-response,112,332797,0.0-4.18-0.18,pcldhzax57,2022-09-16 14:52:18.997,60fcbc0b079e2cfc50954745,2,54,36,25,4,20,female,,,"<img src=""static/images/cards/stack_of_black_stars.svg"" width=""175px"" height=""250px""></img>",,,,,,,,,,,,,,,,,,,,,,,,,,,,
113,0,,html-keyboard-response,113,333744,0.0-4.18-1.18,pcldhzax57,2022-09-16 14:52:18.997,60fcbc0b079e2cfc50954745,2,54,36,25,4,20,female,439.4000000004,,"
  <table>
  <tr height=300>
    <td width=300 height=300><img src=""static/images/cards/back_of_black_stars.svg"" width=""175px"" height=""250px""></img></td>
    <td width=300 height=300><img src=""static/images/cards/back_of_black_stars.svg"" width=""175px"" height=""250px""></img></td>
  </tr>
  <tr height=200>
    <td width=300><img src=""static/images/keys/z.svg"" width=""35%"" height=""75%""></img></td>
    <td width=300><img src=""static/images/keys/m.svg"" width=""35%"" height=""75%""></img></td>
  </tr>
</table>
  ",90.0,1.0,,,,,,,,,,,,,,,,,,,,,,,,,,
114,0,,html-keyboard-response,114,335251,0.0-4.18-2.18,pcldhzax57,2022-09-16 14:52:18.997,60fcbc0b079e2cfc50954745,2,54,36,25,4,20,female,,,"
  <table>
  <tr height=300>
    <td width=300 height=300><img src=""static/images/cards/1_of_black_stars.svg"" width=""175px"" height=""250px""></img></td>
    <td width=300 height=300><img src=""static/images/cards/back_of_black_stars.svg"" width=""175px"" height=""250px""></img></td>
  </tr>
  <tr height=200>
    <td width=300><img src=""static/images/keys/z.svg"" width=""35%"" height=""75%""></img></td>
    <td width=300><img src=""static/images/keys/m.svg"" width=""35%"" height=""75%""></img></td>
  </tr>
</table>
  ",,,,,,,,,,,,,,,,,,,,,,,,,,,,
115,0,,html-keyboard-response,115,336762,0.0-4.18-3.18,pcldhzax57,2022-09-16 14:52:18.997,60fcbc0b079e2cfc50954745,2,54,36,25,4,20,female,,,"<p style=""font-size:50px"">You Lose!
No points this round.</p>",,,,,,,,,,,,,,,,,,,,,,,,,,,,
116,0,,html-keyboard-response,116,337273,0.0-4.18-4.18,pcldhzax57,2022-09-16 14:52:18.997,60fcbc0b079e2cfc50954745,2,54,36,25,4,20,female,,,,,,1.0,learning,18.0,A,,black,,stars,,,,A,black,stars,,1.0,1.0,NA,left,439.4000000004,1.0,0.0,0.0,,,
117,0,,html-keyboard-response,117,338778,0.0-4.19-0.19,pcldhzax57,2022-09-16 14:52:18.997,60fcbc0b079e2cfc50954745,2,54,36,25,4,20,female,,,"<img src=""static/images/cards/stack_of_red_stars.svg"" width=""175px"" height=""250px""></img>",,,,,,,,,,,,,,,,,,,,,,,,,,,,
118,0,,html-keyboard-response,118,339861,0.0-4.19-1.19,pcldhzax57,2022-09-16 14:52:18.997,60fcbc0b079e2cfc50954745,2,54,36,25,4,20,female,577.0999999996,,"
  <table>
  <tr height=300>
    <td width=300 height=300><img src=""static/images/cards/back_of_red_stars.svg"" width=""175px"" height=""250px""></img></td>
    <td width=300 height=300><img src=""static/images/cards/back_of_red_stars.svg"" width=""175px"" height=""250px""></img></td>
  </tr>
  <tr height=200>
    <td width=300></td>
    <td width=300><img src=""static/images/keys/m.svg"" width=""35%"" height=""75%""></img></td>
  </tr>
</table>
  ",77.0,1.0,,,,,,,,,,,,,,,,,,,,,,,,,,
119,0,,html-keyboard-response,119,341364,0.0-4.19-2.19,pcldhzax57,2022-09-16 14:52:18.997,60fcbc0b079e2cfc50954745,2,54,36,25,4,20,female,,,"
  <table>
  <tr height=300>
    <td width=300 height=300><img src=""static/images/cards/back_of_red_stars.svg"" width=""175px"" height=""250px""></img></td>
    <td width=300 height=300><img src=""static/images/cards/4_of_red_stars.svg"" width=""175px"" height=""250px""></img></td>
  </tr>
  <tr height=200>
    <td width=300></td>
    <td width=300><img src=""static/images/keys/m.svg"" width=""35%"" height=""75%""></img></td>
  </tr>
</table>
  ",,,,,,,,,,,,,,,,,,,,,,,,,,,,
120,0,,html-keyboard-response,120,342871,0.0-4.19-3.19,pcldhzax57,2022-09-16 14:52:18.997,60fcbc0b079e2cfc50954745,2,54,36,25,4,20,female,,,"<p style=""font-size:50px"">You Lose!
No points this round.</p>",,,,,,,,,,,,,,,,,,,,,,,,,,,,
121,0,,html-keyboard-response,121,343377,0.0-4.19-4.19,pcldhzax57,2022-09-16 14:52:18.997,60fcbc0b079e2cfc50954745,2,54,36,25,4,20,female,,,,,,1.0,learning,19.0,B,,red,,stars,,,,B,red,stars,,0.0,1.0,0,right,577.0999999996,4.0,0.0,0.0,,,
122,0,,html-keyboard-response,122,344882,0.0-4.20-0.20,pcldhzax57,2022-09-16 14:52:18.997,60fcbc0b079e2cfc50954745,2,54,36,25,4,20,female,,,"<img src=""static/images/cards/stack_of_black_moons.svg"" width=""175px"" height=""250px""></img>",,,,,,,,,,,,,,,,,,,,,,,,,,,,
123,0,,html-keyboard-response,123,345895,0.0-4.20-1.20,pcldhzax57,2022-09-16 14:52:18.997,60fcbc0b079e2cfc50954745,2,54,36,25,4,20,female,509.7999999989,,"
  <table>
  <tr height=300>
    <td width=300 height=300><img src=""static/images/cards/back_of_black_moons.svg"" width=""175px"" height=""250px""></img></td>
    <td width=300 height=300><img src=""static/images/cards/back_of_black_moons.svg"" width=""175px"" height=""250px""></img></td>
  </tr>
  <tr height=200>
    <td width=300><img src=""static/images/keys/z.svg"" width=""35%"" height=""75%""></img></td>
    <td width=300><img src=""static/images/keys/m.svg"" width=""35%"" height=""75%""></img></td>
  </tr>
</table>
  ",77.0,1.0,,,,,,,,,,,,,,,,,,,,,,,,,,
124,0,,html-keyboard-response,124,347396,0.0-4.20-2.20,pcldhzax57,2022-09-16 14:52:18.997,60fcbc0b079e2cfc50954745,2,54,36,25,4,20,female,,,"
  <table>
  <tr height=300>
    <td width=300 height=300><img src=""static/images/cards/back_of_black_moons.svg"" width=""175px"" height=""250px""></img></td>
    <td width=300 height=300><img src=""static/images/cards/6_of_black_moons.svg"" width=""175px"" height=""250px""></img></td>
  </tr>
  <tr height=200>
    <td width=300><img src=""static/images/keys/z.svg"" width=""35%"" height=""75%""></img></td>
    <td width=300><img src=""static/images/keys/m.svg"" width=""35%"" height=""75%""></img></td>
  </tr>
</table>
  ",,,,,,,,,,,,,,,,,,,,,,,,,,,,
125,0,,html-keyboard-response,125,348908,0.0-4.20-3.20,pcldhzax57,2022-09-16 14:52:18.997,60fcbc0b079e2cfc50954745,2,54,36,25,4,20,female,,,"<p style=""font-size:50px"">You win!
+10 points this round!</p>",,,,,,,,,,,,,,,,,,,,,,,,,,,,
126,0,,html-keyboard-response,126,349417,0.0-4.20-4.20,pcldhzax57,2022-09-16 14:52:18.997,60fcbc0b079e2cfc50954745,2,54,36,25,4,20,female,,,,,,1.0,learning,20.0,C,,black,,moons,,,,C,black,moons,,1.0,0.0,NA,right,509.7999999989,6.0,1.0,1.0,,,
127,0,,html-keyboard-response,127,350921,0.0-4.21-0.21,pcldhzax57,2022-09-16 14:52:18.997,60fcbc0b079e2cfc50954745,2,54,36,25,4,20,female,,,"<img src=""static/images/cards/stack_of_red_moons.svg"" width=""175px"" height=""250px""></img>",,,,,,,,,,,,,,,,,,,,,,,,,,,,
128,0,,html-keyboard-response,128,351877,0.0-4.21-1.21,pcldhzax57,2022-09-16 14:52:18.997,60fcbc0b079e2cfc50954745,2,54,36,25,4,20,female,451.0,,"
  <table>
  <tr height=300>
    <td width=300 height=300><img src=""static/images/cards/back_of_red_moons.svg"" width=""175px"" height=""250px""></img></td>
    <td width=300 height=300><img src=""static/images/cards/back_of_red_moons.svg"" width=""175px"" height=""250px""></img></td>
  </tr>
  <tr height=200>
    <td width=300><img src=""static/images/keys/z.svg"" width=""35%"" height=""75%""></img></td>
    <td width=300></td>
  </tr>
</table>
  ",90.0,1.0,,,,,,,,,,,,,,,,,,,,,,,,,,
129,0,,html-keyboard-response,129,353382,0.0-4.21-2.21,pcldhzax57,2022-09-16 14:52:18.997,60fcbc0b079e2cfc50954745,2,54,36,25,4,20,female,,,"
  <table>
  <tr height=300>
    <td width=300 height=300><img src=""static/images/cards/1_of_red_moons.svg"" width=""175px"" height=""250px""></img></td>
    <td width=300 height=300><img src=""static/images/cards/back_of_red_moons.svg"" width=""175px"" height=""250px""></img></td>
  </tr>
  <tr height=200>
    <td width=300><img src=""static/images/keys/z.svg"" width=""35%"" height=""75%""></img></td>
    <td width=300></td>
  </tr>
</table>
  ",,,,,,,,,,,,,,,,,,,,,,,,,,,,
130,0,,html-keyboard-response,130,354893,0.0-4.21-3.21,pcldhzax57,2022-09-16 14:52:18.997,60fcbc0b079e2cfc50954745,2,54,36,25,4,20,female,,,"<p style=""font-size:50px"">You Lose!
No points this round.</p>",,,,,,,,,,,,,,,,,,,,,,,,,,,,
131,0,,html-keyboard-response,131,355404,0.0-4.21-4.21,pcldhzax57,2022-09-16 14:52:18.997,60fcbc0b079e2cfc50954745,2,54,36,25,4,20,female,,,,,,1.0,learning,21.0,D,,red,,moons,,,,D,red,moons,,0.0,0.0,1,left,451.0,1.0,0.0,0.0,,,
132,0,,html-keyboard-response,132,356910,0.0-4.22-0.22,pcldhzax57,2022-09-16 14:52:18.997,60fcbc0b079e2cfc50954745,2,54,36,25,4,20,female,,,"<img src=""static/images/cards/stack_of_red_bolts.svg"" width=""175px"" height=""250px""></img>",,,,,,,,,,,,,,,,,,,,,,,,,,,,
133,0,,html-keyboard-response,133,357970,0.0-4.22-1.22,pcldhzax57,2022-09-16 14:52:18.997,60fcbc0b079e2cfc50954745,2,54,36,25,4,20,female,553.3000000007,,"
  <table>
  <tr height=300>
    <td width=300 height=300><img src=""static/images/cards/back_of_red_bolts.svg"" width=""175px"" height=""250px""></img></td>
    <td width=300 height=300><img src=""static/images/cards/back_of_red_bolts.svg"" width=""175px"" height=""250px""></img></td>
  </tr>
  <tr height=200>
    <td width=300><img src=""static/images/keys/z.svg"" width=""35%"" height=""75%""></img></td>
    <td width=300><img src=""static/images/keys/m.svg"" width=""35%"" height=""75%""></img></td>
  </tr>
</table>
  ",77.0,1.0,,,,,,,,,,,,,,,,,,,,,,,,,,
134,0,,html-keyboard-response,134,359475,0.0-4.22-2.22,pcldhzax57,2022-09-16 14:52:18.997,60fcbc0b079e2cfc50954745,2,54,36,25,4,20,female,,,"
  <table>
  <tr height=300>
    <td width=300 height=300><img src=""static/images/cards/back_of_red_bolts.svg"" width=""175px"" height=""250px""></img></td>
    <td width=300 height=300><img src=""static/images/cards/1_of_red_bolts.svg"" width=""175px"" height=""250px""></img></td>
  </tr>
  <tr height=200>
    <td width=300><img src=""static/images/keys/z.svg"" width=""35%"" height=""75%""></img></td>
    <td width=300><img src=""static/images/keys/m.svg"" width=""35%"" height=""75%""></img></td>
  </tr>
</table>
  ",,,,,,,,,,,,,,,,,,,,,,,,,,,,
135,0,,html-keyboard-response,135,360984,0.0-4.22-3.22,pcldhzax57,2022-09-16 14:52:18.997,60fcbc0b079e2cfc50954745,2,54,36,25,4,20,female,,,"<p style=""font-size:50px"">You win!
+10 points this round!</p>",,,,,,,,,,,,,,,,,,,,,,,,,,,,
136,0,,html-keyboard-response,136,361493,0.0-4.22-4.22,pcldhzax57,2022-09-16 14:52:18.997,60fcbc0b079e2cfc50954745,2,54,36,25,4,20,female,,,,,,1.0,learning,22.0,Xc,,red,,bolts,,,,Xc,red,bolts,,1.0,0.0,NA,right,553.3000000007,1.0,0.0,1.0,,,
137,0,,html-keyboard-response,137,362997,0.0-4.23-0.23,pcldhzax57,2022-09-16 14:52:18.997,60fcbc0b079e2cfc50954745,2,54,36,25,4,20,female,,,"<img src=""static/images/cards/stack_of_black_bolts.svg"" width=""175px"" height=""250px""></img>",,,,,,,,,,,,,,,,,,,,,,,,,,,,
138,0,,html-keyboard-response,138,363929,0.0-4.23-1.23,pcldhzax57,2022-09-16 14:52:18.997,60fcbc0b079e2cfc50954745,2,54,36,25,4,20,female,428.0,,"
  <table>
  <tr height=300>
    <td width=300 height=300><img src=""static/images/cards/back_of_black_bolts.svg"" width=""175px"" height=""250px""></img></td>
    <td width=300 height=300><img src=""static/images/cards/back_of_black_bolts.svg"" width=""175px"" height=""250px""></img></td>
  </tr>
  <tr height=200>
    <td width=300></td>
    <td width=300><img src=""static/images/keys/m.svg"" width=""35%"" height=""75%""></img></td>
  </tr>
</table>
  ",77.0,1.0,,,,,,,,,,,,,,,,,,,,,,,,,,
139,0,,html-keyboard-response,139,365435,0.0-4.23-2.23,pcldhzax57,2022-09-16 14:52:18.997,60fcbc0b079e2cfc50954745,2,54,36,25,4,20,female,,,"
  <table>
  <tr height=300>
    <td width=300 height=300><img src=""static/images/cards/back_of_black_bolts.svg"" width=""175px"" height=""250px""></img></td>
    <td width=300 height=300><img src=""static/images/cards/9_of_black_bolts.svg"" width=""175px"" height=""250px""></img></td>
  </tr>
  <tr height=200>
    <td width=300></td>
    <td width=300><img src=""static/images/keys/m.svg"" width=""35%"" height=""75%""></img></td>
  </tr>
</table>
  ",,,,,,,,,,,,,,,,,,,,,,,,,,,,
140,0,,html-keyboard-response,140,366947,0.0-4.23-3.23,pcldhzax57,2022-09-16 14:52:18.997,60fcbc0b079e2cfc50954745,2,54,36,25,4,20,female,,,"<p style=""font-size:50px"">You win!
+10 points this round!</p>",,,,,,,,,,,,,,,,,,,,,,,,,,,,
141,0,,html-keyboard-response,141,367457,0.0-4.23-4.23,pcldhzax57,2022-09-16 14:52:18.997,60fcbc0b079e2cfc50954745,2,54,36,25,4,20,female,,,,,,1.0,learning,23.0,Xnc,,black,,bolts,,,,Xnc,black,bolts,,0.0,0.0,0,right,428.0,9.0,1.0,1.0,,,
142,0,,call-function,142,367483,0.0-5.0,pcldhzax57,2022-09-16 14:52:18.997,60fcbc0b079e2cfc50954745,2,54,36,25,4,20,female,,,,,,,,,,,,,,,,,,,,,,,,,,,,,,,
143,0,,image-keyboard-response,143,1196368,0.0-6.0-0.0,pcldhzax57,2022-09-16 14:52:18.997,60fcbc0b079e2cfc50954745,2,54,36,25,4,20,female,828843.0999999996,,static/images/instructions_CB_2/Slide20.png,39.0,,,,,,,,,,,,,,,,,,,,,,,,,,,
144,0,,image-keyboard-response,144,1231226,0.0-6.1-0.1,pcldhzax57,2022-09-16 14:52:18.997,60fcbc0b079e2cfc50954745,2,54,36,25,4,20,female,34856.5,,static/images/instructions_CB_2/Slide21.png,37.0,,,,,,,,,,,,,,,,,,,,,,,,,,,
145,0,,image-keyboard-response,145,1240815,0.0-6.2-0.2,pcldhzax57,2022-09-16 14:52:18.997,60fcbc0b079e2cfc50954745,2,54,36,25,4,20,female,9587.6999999993,,static/images/instructions_CB_2/Slide20.png,39.0,,,,,,,,,,,,,,,,,,,,,,,,,,,
146,0,,image-keyboard-response,146,1245087,0.0-6.3-0.3,pcldhzax57,2022-09-16 14:52:18.997,60fcbc0b079e2cfc50954745,2,54,36,25,4,20,female,4270.8999999985,,static/images/instructions_CB_2/Slide21.png,39.0,,,,,,,,,,,,,,,,,,,,,,,,,,,
147,0,,image-keyboard-response,147,1258880,0.0-6.4-0.4,pcldhzax57,2022-09-16 14:52:18.997,60fcbc0b079e2cfc50954745,2,54,36,25,4,20,female,13791.5,,static/images/instructions_CB_2/Slide22.png,39.0,,,,,,,,,,,,,,,,,,,,,,,,,,,
148,0,,image-keyboard-response,148,1280220,0.0-6.5-0.5,pcldhzax57,2022-09-16 14:52:18.997,60fcbc0b079e2cfc50954745,2,54,36,25,4,20,female,21338.7999999989,,static/images/instructions_CB_2/Slide23.png,39.0,,,,,,,,,,,,,,,,,,,,,,,,,,,
149,0,,image-keyboard-response,149,1287343,0.0-6.6-0.6,pcldhzax57,2022-09-16 14:52:18.997,60fcbc0b079e2cfc50954745,2,54,36,25,4,20,female,7122.3000000007,,static/images/instructions_CB_2/Slide24.png,39.0,,,,,,,,,,,,,,,,,,,,,,,,,,,
150,0,,html-keyboard-response,150,1292347,0.0-7.0-0.0,pcldhzax57,2022-09-16 14:52:18.997,60fcbc0b079e2cfc50954745,2,54,36,25,4,20,female,,,"
  <table>
  <tr height=300>
    <td width=300 height=300><img src=""static/images/cards/stack_of_red_moons.svg"" width=""175px"" height=""250px""></img></td>
    <td width=300 height=300><img src=""static/images/cards/stack_of_red_stars.svg"" width=""175px"" height=""250px""></img></td>
  </tr>
  <tr height=200>
    <td width=300><img src=""static/images/keys/w.svg"" width=""35%"" height=""75%""></img></td>
    <td width=300><img src=""static/images/keys/o.svg"" width=""35%"" height=""75%""></img></td>
  </tr>
</table>
  ",,,,,,,,,,,,,,,,,,,,,,,,,,,,
151,0,,html-keyboard-response,151,1292849,0.0-7.0-1.0,pcldhzax57,2022-09-16 14:52:18.997,60fcbc0b079e2cfc50954745,2,54,36,25,4,20,female,,,,,,,,,,,,,,,,,,,,,,,,,,,,,,,
152,0,,html-keyboard-response,152,1292849,0.0-7.0-2.0,pcldhzax57,2022-09-16 14:52:18.997,60fcbc0b079e2cfc50954745,2,54,36,25,4,20,female,,,,,,,,,,,,,,,,,,,,,,,,,,,,,,,
153,0,,html-keyboard-response,153,1294355,0.0-7.0-3.0,pcldhzax57,2022-09-16 14:52:18.997,60fcbc0b079e2cfc50954745,2,54,36,25,4,20,female,,,"<p style=""font-size:50px"">Too slow!</p>",,,,,,,,,,,,,,,,,,,,,,,,,,,,
154,0,,html-keyboard-response,154,1294866,0.0-7.0-4.0,pcldhzax57,2022-09-16 14:52:18.997,60fcbc0b079e2cfc50954745,2,54,36,25,4,20,female,,,,,,1.0,choice,0.0,B,D,red,red,moons,stars,D,B,,,,,0.0,0.0,0,,,9.0,1.0,1.0,,,
155,0,,html-keyboard-response,155,1296538,0.0-7.1-0.1,pcldhzax57,2022-09-16 14:52:18.997,60fcbc0b079e2cfc50954745,2,54,36,25,4,20,female,1670.2000000011,,"
  <table>
  <tr height=300>
    <td width=300 height=300><img src=""static/images/cards/stack_of_black_moons.svg"" width=""175px"" height=""250px""></img></td>
    <td width=300 height=300><img src=""static/images/cards/stack_of_red_stars.svg"" width=""175px"" height=""250px""></img></td>
  </tr>
  <tr height=200>
    <td width=300><img src=""static/images/keys/w.svg"" width=""35%"" height=""75%""></img></td>
    <td width=300><img src=""static/images/keys/o.svg"" width=""35%"" height=""75%""></img></td>
  </tr>
</table>
  ",79.0,1.0,,,,,,,,,,,,,,,,,,,,,,,,,,
156,0,,html-keyboard-response,156,1298356,0.0-7.1-1.1,pcldhzax57,2022-09-16 14:52:18.997,60fcbc0b079e2cfc50954745,2,54,36,25,4,20,female,1313.4000000004,,"
  <table>
  <tr height=300>
    <td width=300 height=300><img src=""static/images/cards/back_of_red_stars.svg"" width=""175px"" height=""250px""></img></td>
    <td width=300 height=300><img src=""static/images/cards/back_of_red_stars.svg"" width=""175px"" height=""250px""></img></td>
  </tr>
  <tr height=200>
    <td width=300><img src=""static/images/keys/z.svg"" width=""35%"" height=""75%""></img></td>
    <td width=300></td>
  </tr>
</table>
  ",90.0,1.0,,,,,,,,,,,,,,,,,,,,,,,,,,
157,0,,html-keyboard-response,157,1299863,0.0-7.1-2.1,pcldhzax57,2022-09-16 14:52:18.997,60fcbc0b079e2cfc50954745,2,54,36,25,4,20,female,,,"
  <table>
  <tr height=300>
    <td width=300 height=300><img src=""static/images/cards/7_of_red_stars.svg"" width=""175px"" height=""250px""></img></td>
    <td width=300 height=300><img src=""static/images/cards/back_of_red_stars.svg"" width=""175px"" height=""250px""></img></td>
  </tr>
  <tr height=200>
    <td width=300><img src=""static/images/keys/z.svg"" width=""35%"" height=""75%""></img></td>
    <td width=300></td>
  </tr>
</table>
  ",,,,,,,,,,,,,,,,,,,,,,,,,,,,
158,0,,html-keyboard-response,158,1301374,0.0-7.1-3.1,pcldhzax57,2022-09-16 14:52:18.997,60fcbc0b079e2cfc50954745,2,54,36,25,4,20,female,,,"<p style=""font-size:50px"">You win!
+10 points this round!</p>",,,,,,,,,,,,,,,,,,,,,,,,,,,,
159,0,,html-keyboard-response,159,1301885,0.0-7.1-4.1,pcldhzax57,2022-09-16 14:52:18.997,60fcbc0b079e2cfc50954745,2,54,36,25,4,20,female,,,,,,1.0,choice,1.0,B,C,black,red,moons,stars,C,B,B,red,stars,1670.2000000011,0.0,1.0,1,left,1313.4000000004,7.0,1.0,1.0,,,
160,0,,html-keyboard-response,160,1303672,0.0-7.2-0.2,pcldhzax57,2022-09-16 14:52:18.997,60fcbc0b079e2cfc50954745,2,54,36,25,4,20,female,1785.1999999993,,"
  <table>
  <tr height=300>
    <td width=300 height=300><img src=""static/images/cards/stack_of_black_stars.svg"" width=""175px"" height=""250px""></img></td>
    <td width=300 height=300><img src=""static/images/cards/stack_of_black_moons.svg"" width=""175px"" height=""250px""></img></td>
  </tr>
  <tr height=200>
    <td width=300><img src=""static/images/keys/w.svg"" width=""35%"" height=""75%""></img></td>
    <td width=300><img src=""static/images/keys/o.svg"" width=""35%"" height=""75%""></img></td>
  </tr>
</table>
  ",87.0,1.0,,,,,,,,,,,,,,,,,,,,,,,,,,
161,0,,html-keyboard-response,161,1305431,0.0-7.2-1.2,pcldhzax57,2022-09-16 14:52:18.997,60fcbc0b079e2cfc50954745,2,54,36,25,4,20,female,1254.6999999993,,"
  <table>
  <tr height=300>
    <td width=300 height=300><img src=""static/images/cards/back_of_black_stars.svg"" width=""175px"" height=""250px""></img></td>
    <td width=300 height=300><img src=""static/images/cards/back_of_black_stars.svg"" width=""175px"" height=""250px""></img></td>
  </tr>
  <tr height=200>
    <td width=300><img src=""static/images/keys/z.svg"" width=""35%"" height=""75%""></img></td>
    <td width=300><img src=""static/images/keys/m.svg"" width=""35%"" height=""75%""></img></td>
  </tr>
</table>
  ",77.0,1.0,,,,,,,,,,,,,,,,,,,,,,,,,,
162,0,,html-keyboard-response,162,1306937,0.0-7.2-2.2,pcldhzax57,2022-09-16 14:52:18.997,60fcbc0b079e2cfc50954745,2,54,36,25,4,20,female,,,"
  <table>
  <tr height=300>
    <td width=300 height=300><img src=""static/images/cards/back_of_black_stars.svg"" width=""175px"" height=""250px""></img></td>
    <td width=300 height=300><img src=""static/images/cards/10_of_black_stars.svg"" width=""175px"" height=""250px""></img></td>
  </tr>
  <tr height=200>
    <td width=300><img src=""static/images/keys/z.svg"" width=""35%"" height=""75%""></img></td>
    <td width=300><img src=""static/images/keys/m.svg"" width=""35%"" height=""75%""></img></td>
  </tr>
</table>
  ",,,,,,,,,,,,,,,,,,,,,,,,,,,,
163,0,,html-keyboard-response,163,1308446,0.0-7.2-3.2,pcldhzax57,2022-09-16 14:52:18.997,60fcbc0b079e2cfc50954745,2,54,36,25,4,20,female,,,"<p style=""font-size:50px"">You win!
+10 points this round!</p>",,,,,,,,,,,,,,,,,,,,,,,,,,,,
164,0,,html-keyboard-response,164,1308953,0.0-7.2-4.2,pcldhzax57,2022-09-16 14:52:18.997,60fcbc0b079e2cfc50954745,2,54,36,25,4,20,female,,,,,,1.0,choice,2.0,A,C,black,black,stars,moons,A,C,A,black,stars,1785.1999999993,1.0,1.0,NA,right,1254.6999999993,10.0,1.0,1.0,,,
165,0,,html-keyboard-response,165,1310565,0.0-7.3-0.3,pcldhzax57,2022-09-16 14:52:18.997,60fcbc0b079e2cfc50954745,2,54,36,25,4,20,female,1610.4000000004,,"
  <table>
  <tr height=300>
    <td width=300 height=300><img src=""static/images/cards/stack_of_black_stars.svg"" width=""175px"" height=""250px""></img></td>
    <td width=300 height=300><img src=""static/images/cards/stack_of_red_moons.svg"" width=""175px"" height=""250px""></img></td>
  </tr>
  <tr height=200>
    <td width=300><img src=""static/images/keys/w.svg"" width=""35%"" height=""75%""></img></td>
    <td width=300><img src=""static/images/keys/o.svg"" width=""35%"" height=""75%""></img></td>
  </tr>
</table>
  ",79.0,1.0,,,,,,,,,,,,,,,,,,,,,,,,,,
166,0,,html-keyboard-response,166,1311884,0.0-7.3-1.3,pcldhzax57,2022-09-16 14:52:18.997,60fcbc0b079e2cfc50954745,2,54,36,25,4,20,female,815.2999999989,,"
  <table>
  <tr height=300>
    <td width=300 height=300><img src=""static/images/cards/back_of_red_moons.svg"" width=""175px"" height=""250px""></img></td>
    <td width=300 height=300><img src=""static/images/cards/back_of_red_moons.svg"" width=""175px"" height=""250px""></img></td>
  </tr>
  <tr height=200>
    <td width=300><img src=""static/images/keys/z.svg"" width=""35%"" height=""75%""></img></td>
    <td width=300></td>
  </tr>
</table>
  ",90.0,1.0,,,,,,,,,,,,,,,,,,,,,,,,,,
167,0,,html-keyboard-response,167,1313390,0.0-7.3-2.3,pcldhzax57,2022-09-16 14:52:18.997,60fcbc0b079e2cfc50954745,2,54,36,25,4,20,female,,,"
  <table>
  <tr height=300>
    <td width=300 height=300><img src=""static/images/cards/10_of_red_moons.svg"" width=""175px"" height=""250px""></img></td>
    <td width=300 height=300><img src=""static/images/cards/back_of_red_moons.svg"" width=""175px"" height=""250px""></img></td>
  </tr>
  <tr height=200>
    <td width=300><img src=""static/images/keys/z.svg"" width=""35%"" height=""75%""></img></td>
    <td width=300></td>
  </tr>
</table>
  ",,,,,,,,,,,,,,,,,,,,,,,,,,,,
168,0,,html-keyboard-response,168,1314901,0.0-7.3-3.3,pcldhzax57,2022-09-16 14:52:18.997,60fcbc0b079e2cfc50954745,2,54,36,25,4,20,female,,,"<p style=""font-size:50px"">You Lose!
No points this round.</p>",,,,,,,,,,,,,,,,,,,,,,,,,,,,
169,0,,html-keyboard-response,169,1315412,0.0-7.3-4.3,pcldhzax57,2022-09-16 14:52:18.997,60fcbc0b079e2cfc50954745,2,54,36,25,4,20,female,,,,,,1.0,choice,3.0,A,D,black,red,stars,moons,A,D,D,red,moons,1610.4000000004,0.0,0.0,1,left,815.2999999989,10.0,1.0,0.0,,,
170,0,,html-keyboard-response,170,1316952,0.0-7.4-0.4,pcldhzax57,2022-09-16 14:52:18.997,60fcbc0b079e2cfc50954745,2,54,36,25,4,20,female,1538.5999999996,,"
  <table>
  <tr height=300>
    <td width=300 height=300><img src=""static/images/cards/stack_of_black_stars.svg"" width=""175px"" height=""250px""></img></td>
    <td width=300 height=300><img src=""static/images/cards/stack_of_red_stars.svg"" width=""175px"" height=""250px""></img></td>
  </tr>
  <tr height=200>
    <td width=300><img src=""static/images/keys/w.svg"" width=""35%"" height=""75%""></img></td>
    <td width=300><img src=""static/images/keys/o.svg"" width=""35%"" height=""75%""></img></td>
  </tr>
</table>
  ",79.0,1.0,,,,,,,,,,,,,,,,,,,,,,,,,,
171,0,,html-keyboard-response,171,1318036,0.0-7.4-1.4,pcldhzax57,2022-09-16 14:52:18.997,60fcbc0b079e2cfc50954745,2,54,36,25,4,20,female,579.4000000004,,"
  <table>
  <tr height=300>
    <td width=300 height=300><img src=""static/images/cards/back_of_red_stars.svg"" width=""175px"" height=""250px""></img></td>
    <td width=300 height=300><img src=""static/images/cards/back_of_red_stars.svg"" width=""175px"" height=""250px""></img></td>
  </tr>
  <tr height=200>
    <td width=300><img src=""static/images/keys/z.svg"" width=""35%"" height=""75%""></img></td>
    <td width=300></td>
  </tr>
</table>
  ",90.0,1.0,,,,,,,,,,,,,,,,,,,,,,,,,,
172,0,,html-keyboard-response,172,1319541,0.0-7.4-2.4,pcldhzax57,2022-09-16 14:52:18.997,60fcbc0b079e2cfc50954745,2,54,36,25,4,20,female,,,"
  <table>
  <tr height=300>
    <td width=300 height=300><img src=""static/images/cards/4_of_red_stars.svg"" width=""175px"" height=""250px""></img></td>
    <td width=300 height=300><img src=""static/images/cards/back_of_red_stars.svg"" width=""175px"" height=""250px""></img></td>
  </tr>
  <tr height=200>
    <td width=300><img src=""static/images/keys/z.svg"" width=""35%"" height=""75%""></img></td>
    <td width=300></td>
  </tr>
</table>
  ",,,,,,,,,,,,,,,,,,,,,,,,,,,,
173,0,,html-keyboard-response,173,1321053,0.0-7.4-3.4,pcldhzax57,2022-09-16 14:52:18.997,60fcbc0b079e2cfc50954745,2,54,36,25,4,20,female,,,"<p style=""font-size:50px"">You Lose!
No points this round.</p>",,,,,,,,,,,,,,,,,,,,,,,,,,,,
174,0,,html-keyboard-response,174,1321563,0.0-7.4-4.4,pcldhzax57,2022-09-16 14:52:18.997,60fcbc0b079e2cfc50954745,2,54,36,25,4,20,female,,,,,,1.0,choice,4.0,A,B,black,red,stars,stars,A,B,B,red,stars,1538.5999999996,0.0,1.0,1,left,579.4000000004,4.0,0.0,0.0,,,
175,0,,html-keyboard-response,175,1322777,0.0-7.5-0.5,pcldhzax57,2022-09-16 14:52:18.997,60fcbc0b079e2cfc50954745,2,54,36,25,4,20,female,1212.5999999996,,"
  <table>
  <tr height=300>
    <td width=300 height=300><img src=""static/images/cards/stack_of_black_stars.svg"" width=""175px"" height=""250px""></img></td>
    <td width=300 height=300><img src=""static/images/cards/stack_of_red_moons.svg"" width=""175px"" height=""250px""></img></td>
  </tr>
  <tr height=200>
    <td width=300><img src=""static/images/keys/w.svg"" width=""35%"" height=""75%""></img></td>
    <td width=300><img src=""static/images/keys/o.svg"" width=""35%"" height=""75%""></img></td>
  </tr>
</table>
  ",79.0,1.0,,,,,,,,,,,,,,,,,,,,,,,,,,
176,0,,html-keyboard-response,176,1323955,0.0-7.5-1.5,pcldhzax57,2022-09-16 14:52:18.997,60fcbc0b079e2cfc50954745,2,54,36,25,4,20,female,671.7000000011,,"
  <table>
  <tr height=300>
    <td width=300 height=300><img src=""static/images/cards/back_of_red_moons.svg"" width=""175px"" height=""250px""></img></td>
    <td width=300 height=300><img src=""static/images/cards/back_of_red_moons.svg"" width=""175px"" height=""250px""></img></td>
  </tr>
  <tr height=200>
    <td width=300><img src=""static/images/keys/z.svg"" width=""35%"" height=""75%""></img></td>
    <td width=300></td>
  </tr>
</table>
  ",90.0,1.0,,,,,,,,,,,,,,,,,,,,,,,,,,
177,0,,html-keyboard-response,177,1325462,0.0-7.5-2.5,pcldhzax57,2022-09-16 14:52:18.997,60fcbc0b079e2cfc50954745,2,54,36,25,4,20,female,,,"
  <table>
  <tr height=300>
    <td width=300 height=300><img src=""static/images/cards/6_of_red_moons.svg"" width=""175px"" height=""250px""></img></td>
    <td width=300 height=300><img src=""static/images/cards/back_of_red_moons.svg"" width=""175px"" height=""250px""></img></td>
  </tr>
  <tr height=200>
    <td width=300><img src=""static/images/keys/z.svg"" width=""35%"" height=""75%""></img></td>
    <td width=300></td>
  </tr>
</table>
  ",,,,,,,,,,,,,,,,,,,,,,,,,,,,
178,0,,html-keyboard-response,178,1326973,0.0-7.5-3.5,pcldhzax57,2022-09-16 14:52:18.997,60fcbc0b079e2cfc50954745,2,54,36,25,4,20,female,,,"<p style=""font-size:50px"">You win!
+10 points this round!</p>",,,,,,,,,,,,,,,,,,,,,,,,,,,,
179,0,,html-keyboard-response,179,1327483,0.0-7.5-4.5,pcldhzax57,2022-09-16 14:52:18.997,60fcbc0b079e2cfc50954745,2,54,36,25,4,20,female,,,,,,1.0,choice,5.0,A,D,black,red,stars,moons,A,D,D,red,moons,1212.5999999996,0.0,0.0,1,left,671.7000000011,6.0,1.0,1.0,,,
180,0,,html-keyboard-response,180,1328738,0.0-7.6-0.6,pcldhzax57,2022-09-16 14:52:18.997,60fcbc0b079e2cfc50954745,2,54,36,25,4,20,female,1252.8000000007,,"
  <table>
  <tr height=300>
    <td width=300 height=300><img src=""static/images/cards/stack_of_red_stars.svg"" width=""175px"" height=""250px""></img></td>
    <td width=300 height=300><img src=""static/images/cards/stack_of_black_stars.svg"" width=""175px"" height=""250px""></img></td>
  </tr>
  <tr height=200>
    <td width=300><img src=""static/images/keys/w.svg"" width=""35%"" height=""75%""></img></td>
    <td width=300><img src=""static/images/keys/o.svg"" width=""35%"" height=""75%""></img></td>
  </tr>
</table>
  ",87.0,1.0,,,,,,,,,,,,,,,,,,,,,,,,,,
181,0,,html-keyboard-response,181,1329863,0.0-7.6-1.6,pcldhzax57,2022-09-16 14:52:18.997,60fcbc0b079e2cfc50954745,2,54,36,25,4,20,female,622.7000000011,,"
  <table>
  <tr height=300>
    <td width=300 height=300><img src=""static/images/cards/back_of_red_stars.svg"" width=""175px"" height=""250px""></img></td>
    <td width=300 height=300><img src=""static/images/cards/back_of_red_stars.svg"" width=""175px"" height=""250px""></img></td>
  </tr>
  <tr height=200>
    <td width=300><img src=""static/images/keys/z.svg"" width=""35%"" height=""75%""></img></td>
    <td width=300></td>
  </tr>
</table>
  ",90.0,1.0,,,,,,,,,,,,,,,,,,,,,,,,,,
182,0,,html-keyboard-response,182,1331366,0.0-7.6-2.6,pcldhzax57,2022-09-16 14:52:18.997,60fcbc0b079e2cfc50954745,2,54,36,25,4,20,female,,,"
  <table>
  <tr height=300>
    <td width=300 height=300><img src=""static/images/cards/2_of_red_stars.svg"" width=""175px"" height=""250px""></img></td>
    <td width=300 height=300><img src=""static/images/cards/back_of_red_stars.svg"" width=""175px"" height=""250px""></img></td>
  </tr>
  <tr height=200>
    <td width=300><img src=""static/images/keys/z.svg"" width=""35%"" height=""75%""></img></td>
    <td width=300></td>
  </tr>
</table>
  ",,,,,,,,,,,,,,,,,,,,,,,,,,,,
183,0,,html-keyboard-response,183,1332877,0.0-7.6-3.6,pcldhzax57,2022-09-16 14:52:18.997,60fcbc0b079e2cfc50954745,2,54,36,25,4,20,female,,,"<p style=""font-size:50px"">You Lose!
No points this round.</p>",,,,,,,,,,,,,,,,,,,,,,,,,,,,
184,0,,html-keyboard-response,184,1333388,0.0-7.6-4.6,pcldhzax57,2022-09-16 14:52:18.997,60fcbc0b079e2cfc50954745,2,54,36,25,4,20,female,,,,,,1.0,choice,6.0,A,B,red,black,stars,stars,B,A,B,red,stars,1252.8000000007,0.0,1.0,1,left,622.7000000011,2.0,0.0,0.0,,,
185,0,,html-keyboard-response,185,1334719,0.0-7.7-0.7,pcldhzax57,2022-09-16 14:52:18.997,60fcbc0b079e2cfc50954745,2,54,36,25,4,20,female,1329.2000000011,,"
  <table>
  <tr height=300>
    <td width=300 height=300><img src=""static/images/cards/stack_of_black_moons.svg"" width=""175px"" height=""250px""></img></td>
    <td width=300 height=300><img src=""static/images/cards/stack_of_red_stars.svg"" width=""175px"" height=""250px""></img></td>
  </tr>
  <tr height=200>
    <td width=300><img src=""static/images/keys/w.svg"" width=""35%"" height=""75%""></img></td>
    <td width=300><img src=""static/images/keys/o.svg"" width=""35%"" height=""75%""></img></td>
  </tr>
</table>
  ",79.0,1.0,,,,,,,,,,,,,,,,,,,,,,,,,,
186,0,,html-keyboard-response,186,1335780,0.0-7.7-1.7,pcldhzax57,2022-09-16 14:52:18.997,60fcbc0b079e2cfc50954745,2,54,36,25,4,20,female,555.5,,"
  <table>
  <tr height=300>
    <td width=300 height=300><img src=""static/images/cards/back_of_red_stars.svg"" width=""175px"" height=""250px""></img></td>
    <td width=300 height=300><img src=""static/images/cards/back_of_red_stars.svg"" width=""175px"" height=""250px""></img></td>
  </tr>
  <tr height=200>
    <td width=300><img src=""static/images/keys/z.svg"" width=""35%"" height=""75%""></img></td>
    <td width=300></td>
  </tr>
</table>
  ",90.0,1.0,,,,,,,,,,,,,,,,,,,,,,,,,,
187,0,,html-keyboard-response,187,1337288,0.0-7.7-2.7,pcldhzax57,2022-09-16 14:52:18.997,60fcbc0b079e2cfc50954745,2,54,36,25,4,20,female,,,"
  <table>
  <tr height=300>
    <td width=300 height=300><img src=""static/images/cards/1_of_red_stars.svg"" width=""175px"" height=""250px""></img></td>
    <td width=300 height=300><img src=""static/images/cards/back_of_red_stars.svg"" width=""175px"" height=""250px""></img></td>
  </tr>
  <tr height=200>
    <td width=300><img src=""static/images/keys/z.svg"" width=""35%"" height=""75%""></img></td>
    <td width=300></td>
  </tr>
</table>
  ",,,,,,,,,,,,,,,,,,,,,,,,,,,,
188,0,,html-keyboard-response,188,1338799,0.0-7.7-3.7,pcldhzax57,2022-09-16 14:52:18.997,60fcbc0b079e2cfc50954745,2,54,36,25,4,20,female,,,"<p style=""font-size:50px"">You Lose!
No points this round.</p>",,,,,,,,,,,,,,,,,,,,,,,,,,,,
189,0,,html-keyboard-response,189,1339310,0.0-7.7-4.7,pcldhzax57,2022-09-16 14:52:18.997,60fcbc0b079e2cfc50954745,2,54,36,25,4,20,female,,,,,,1.0,choice,7.0,B,C,black,red,moons,stars,C,B,B,red,stars,1329.2000000011,0.0,1.0,1,left,555.5,1.0,0.0,0.0,,,
190,0,,html-keyboard-response,190,1340535,0.0-7.8-0.8,pcldhzax57,2022-09-16 14:52:18.997,60fcbc0b079e2cfc50954745,2,54,36,25,4,20,female,1223.6999999993,,"
  <table>
  <tr height=300>
    <td width=300 height=300><img src=""static/images/cards/stack_of_black_moons.svg"" width=""175px"" height=""250px""></img></td>
    <td width=300 height=300><img src=""static/images/cards/stack_of_black_stars.svg"" width=""175px"" height=""250px""></img></td>
  </tr>
  <tr height=200>
    <td width=300><img src=""static/images/keys/w.svg"" width=""35%"" height=""75%""></img></td>
    <td width=300><img src=""static/images/keys/o.svg"" width=""35%"" height=""75%""></img></td>
  </tr>
</table>
  ",79.0,1.0,,,,,,,,,,,,,,,,,,,,,,,,,,
191,0,,html-keyboard-response,191,1342068,0.0-7.8-1.8,pcldhzax57,2022-09-16 14:52:18.997,60fcbc0b079e2cfc50954745,2,54,36,25,4,20,female,1028.2000000011,,"
  <table>
  <tr height=300>
    <td width=300 height=300><img src=""static/images/cards/back_of_black_stars.svg"" width=""175px"" height=""250px""></img></td>
    <td width=300 height=300><img src=""static/images/cards/back_of_black_stars.svg"" width=""175px"" height=""250px""></img></td>
  </tr>
  <tr height=200>
    <td width=300><img src=""static/images/keys/z.svg"" width=""35%"" height=""75%""></img></td>
    <td width=300><img src=""static/images/keys/m.svg"" width=""35%"" height=""75%""></img></td>
  </tr>
</table>
  ",77.0,1.0,,,,,,,,,,,,,,,,,,,,,,,,,,
192,0,,html-keyboard-response,192,1343575,0.0-7.8-2.8,pcldhzax57,2022-09-16 14:52:18.997,60fcbc0b079e2cfc50954745,2,54,36,25,4,20,female,,,"
  <table>
  <tr height=300>
    <td width=300 height=300><img src=""static/images/cards/back_of_black_stars.svg"" width=""175px"" height=""250px""></img></td>
    <td width=300 height=300><img src=""static/images/cards/10_of_black_stars.svg"" width=""175px"" height=""250px""></img></td>
  </tr>
  <tr height=200>
    <td width=300><img src=""static/images/keys/z.svg"" width=""35%"" height=""75%""></img></td>
    <td width=300><img src=""static/images/keys/m.svg"" width=""35%"" height=""75%""></img></td>
  </tr>
</table>
  ",,,,,,,,,,,,,,,,,,,,,,,,,,,,
193,0,,html-keyboard-response,193,1345085,0.0-7.8-3.8,pcldhzax57,2022-09-16 14:52:18.997,60fcbc0b079e2cfc50954745,2,54,36,25,4,20,female,,,"<p style=""font-size:50px"">You win!
+10 points this round!</p>",,,,,,,,,,,,,,,,,,,,,,,,,,,,
194,0,,html-keyboard-response,194,1345595,0.0-7.8-4.8,pcldhzax57,2022-09-16 14:52:18.997,60fcbc0b079e2cfc50954745,2,54,36,25,4,20,female,,,,,,1.0,choice,8.0,A,C,black,black,moons,stars,C,A,A,black,stars,1223.6999999993,1.0,1.0,NA,right,1028.2000000011,10.0,1.0,1.0,,,
195,0,,html-keyboard-response,195,1346613,0.0-7.9-0.9,pcldhzax57,2022-09-16 14:52:18.997,60fcbc0b079e2cfc50954745,2,54,36,25,4,20,female,1015.8000000007,,"
  <table>
  <tr height=300>
    <td width=300 height=300><img src=""static/images/cards/stack_of_black_moons.svg"" width=""175px"" height=""250px""></img></td>
    <td width=300 height=300><img src=""static/images/cards/stack_of_black_stars.svg"" width=""175px"" height=""250px""></img></td>
  </tr>
  <tr height=200>
    <td width=300><img src=""static/images/keys/w.svg"" width=""35%"" height=""75%""></img></td>
    <td width=300><img src=""static/images/keys/o.svg"" width=""35%"" height=""75%""></img></td>
  </tr>
</table>
  ",87.0,1.0,,,,,,,,,,,,,,,,,,,,,,,,,,
196,0,,html-keyboard-response,196,1347720,0.0-7.9-1.9,pcldhzax57,2022-09-16 14:52:18.997,60fcbc0b079e2cfc50954745,2,54,36,25,4,20,female,602.9000000004,,"
  <table>
  <tr height=300>
    <td width=300 height=300><img src=""static/images/cards/back_of_black_moons.svg"" width=""175px"" height=""250px""></img></td>
    <td width=300 height=300><img src=""static/images/cards/back_of_black_moons.svg"" width=""175px"" height=""250px""></img></td>
  </tr>
  <tr height=200>
    <td width=300><img src=""static/images/keys/z.svg"" width=""35%"" height=""75%""></img></td>
    <td width=300><img src=""static/images/keys/m.svg"" width=""35%"" height=""75%""></img></td>
  </tr>
</table>
  ",90.0,1.0,,,,,,,,,,,,,,,,,,,,,,,,,,
197,0,,html-keyboard-response,197,1349227,0.0-7.9-2.9,pcldhzax57,2022-09-16 14:52:18.997,60fcbc0b079e2cfc50954745,2,54,36,25,4,20,female,,,"
  <table>
  <tr height=300>
    <td width=300 height=300><img src=""static/images/cards/6_of_black_moons.svg"" width=""175px"" height=""250px""></img></td>
    <td width=300 height=300><img src=""static/images/cards/back_of_black_moons.svg"" width=""175px"" height=""250px""></img></td>
  </tr>
  <tr height=200>
    <td width=300><img src=""static/images/keys/z.svg"" width=""35%"" height=""75%""></img></td>
    <td width=300><img src=""static/images/keys/m.svg"" width=""35%"" height=""75%""></img></td>
  </tr>
</table>
  ",,,,,,,,,,,,,,,,,,,,,,,,,,,,
198,0,,html-keyboard-response,198,1350734,0.0-7.9-3.9,pcldhzax57,2022-09-16 14:52:18.997,60fcbc0b079e2cfc50954745,2,54,36,25,4,20,female,,,"<p style=""font-size:50px"">You Lose!
No points this round.</p>",,,,,,,,,,,,,,,,,,,,,,,,,,,,
199,0,,html-keyboard-response,199,1351245,0.0-7.9-4.9,pcldhzax57,2022-09-16 14:52:18.997,60fcbc0b079e2cfc50954745,2,54,36,25,4,20,female,,,,,,1.0,choice,9.0,A,C,black,black,moons,stars,C,A,C,black,moons,1015.8000000007,1.0,0.0,NA,left,602.9000000004,6.0,1.0,0.0,,,
200,0,,html-keyboard-response,200,1352321,0.0-7.10-0.10,pcldhzax57,2022-09-16 14:52:18.997,60fcbc0b079e2cfc50954745,2,54,36,25,4,20,female,1074.4000000004,,"
  <table>
  <tr height=300>
    <td width=300 height=300><img src=""static/images/cards/stack_of_red_moons.svg"" width=""175px"" height=""250px""></img></td>
    <td width=300 height=300><img src=""static/images/cards/stack_of_red_stars.svg"" width=""175px"" height=""250px""></img></td>
  </tr>
  <tr height=200>
    <td width=300><img src=""static/images/keys/w.svg"" width=""35%"" height=""75%""></img></td>
    <td width=300><img src=""static/images/keys/o.svg"" width=""35%"" height=""75%""></img></td>
  </tr>
</table>
  ",79.0,1.0,,,,,,,,,,,,,,,,,,,,,,,,,,
201,0,,html-keyboard-response,201,1353550,0.0-7.10-1.10,pcldhzax57,2022-09-16 14:52:18.997,60fcbc0b079e2cfc50954745,2,54,36,25,4,20,female,723.0999999996,,"
  <table>
  <tr height=300>
    <td width=300 height=300><img src=""static/images/cards/back_of_red_stars.svg"" width=""175px"" height=""250px""></img></td>
    <td width=300 height=300><img src=""static/images/cards/back_of_red_stars.svg"" width=""175px"" height=""250px""></img></td>
  </tr>
  <tr height=200>
    <td width=300></td>
    <td width=300><img src=""static/images/keys/m.svg"" width=""35%"" height=""75%""></img></td>
  </tr>
</table>
  ",77.0,1.0,,,,,,,,,,,,,,,,,,,,,,,,,,
202,0,,html-keyboard-response,202,1355056,0.0-7.10-2.10,pcldhzax57,2022-09-16 14:52:18.997,60fcbc0b079e2cfc50954745,2,54,36,25,4,20,female,,,"
  <table>
  <tr height=300>
    <td width=300 height=300><img src=""static/images/cards/back_of_red_stars.svg"" width=""175px"" height=""250px""></img></td>
    <td width=300 height=300><img src=""static/images/cards/1_of_red_stars.svg"" width=""175px"" height=""250px""></img></td>
  </tr>
  <tr height=200>
    <td width=300></td>
    <td width=300><img src=""static/images/keys/m.svg"" width=""35%"" height=""75%""></img></td>
  </tr>
</table>
  ",,,,,,,,,,,,,,,,,,,,,,,,,,,,
203,0,,html-keyboard-response,203,1356563,0.0-7.10-3.10,pcldhzax57,2022-09-16 14:52:18.997,60fcbc0b079e2cfc50954745,2,54,36,25,4,20,female,,,"<p style=""font-size:50px"">You Lose!
No points this round.</p>",,,,,,,,,,,,,,,,,,,,,,,,,,,,
204,0,,html-keyboard-response,204,1357073,0.0-7.10-4.10,pcldhzax57,2022-09-16 14:52:18.997,60fcbc0b079e2cfc50954745,2,54,36,25,4,20,female,,,,,,1.0,choice,10.0,B,D,red,red,moons,stars,D,B,B,red,stars,1074.4000000004,0.0,1.0,0,right,723.0999999996,1.0,0.0,0.0,,,
205,0,,html-keyboard-response,205,1357844,0.0-7.11-0.11,pcldhzax57,2022-09-16 14:52:18.997,60fcbc0b079e2cfc50954745,2,54,36,25,4,20,female,768.9000000004,,"
  <table>
  <tr height=300>
    <td width=300 height=300><img src=""static/images/cards/stack_of_black_moons.svg"" width=""175px"" height=""250px""></img></td>
    <td width=300 height=300><img src=""static/images/cards/stack_of_black_stars.svg"" width=""175px"" height=""250px""></img></td>
  </tr>
  <tr height=200>
    <td width=300><img src=""static/images/keys/w.svg"" width=""35%"" height=""75%""></img></td>
    <td width=300><img src=""static/images/keys/o.svg"" width=""35%"" height=""75%""></img></td>
  </tr>
</table>
  ",79.0,1.0,,,,,,,,,,,,,,,,,,,,,,,,,,
206,0,,html-keyboard-response,206,1359082,0.0-7.11-1.11,pcldhzax57,2022-09-16 14:52:18.997,60fcbc0b079e2cfc50954745,2,54,36,25,4,20,female,736.6999999993,,"
  <table>
  <tr height=300>
    <td width=300 height=300><img src=""static/images/cards/back_of_black_stars.svg"" width=""175px"" height=""250px""></img></td>
    <td width=300 height=300><img src=""static/images/cards/back_of_black_stars.svg"" width=""175px"" height=""250px""></img></td>
  </tr>
  <tr height=200>
    <td width=300><img src=""static/images/keys/z.svg"" width=""35%"" height=""75%""></img></td>
    <td width=300><img src=""static/images/keys/m.svg"" width=""35%"" height=""75%""></img></td>
  </tr>
</table>
  ",77.0,1.0,,,,,,,,,,,,,,,,,,,,,,,,,,
207,0,,html-keyboard-response,207,1360589,0.0-7.11-2.11,pcldhzax57,2022-09-16 14:52:18.997,60fcbc0b079e2cfc50954745,2,54,36,25,4,20,female,,,"
  <table>
  <tr height=300>
    <td width=300 height=300><img src=""static/images/cards/back_of_black_stars.svg"" width=""175px"" height=""250px""></img></td>
    <td width=300 height=300><img src=""static/images/cards/1_of_black_stars.svg"" width=""175px"" height=""250px""></img></td>
  </tr>
  <tr height=200>
    <td width=300><img src=""static/images/keys/z.svg"" width=""35%"" height=""75%""></img></td>
    <td width=300><img src=""static/images/keys/m.svg"" width=""35%"" height=""75%""></img></td>
  </tr>
</table>
  ",,,,,,,,,,,,,,,,,,,,,,,,,,,,
208,0,,html-keyboard-response,208,1362094,0.0-7.11-3.11,pcldhzax57,2022-09-16 14:52:18.997,60fcbc0b079e2cfc50954745,2,54,36,25,4,20,female,,,"<p style=""font-size:50px"">You Lose!
No points this round.</p>",,,,,,,,,,,,,,,,,,,,,,,,,,,,
209,0,,html-keyboard-response,209,1362604,0.0-7.11-4.11,pcldhzax57,2022-09-16 14:52:18.997,60fcbc0b079e2cfc50954745,2,54,36,25,4,20,female,,,,,,1.0,choice,11.0,A,C,black,black,moons,stars,C,A,A,black,stars,768.9000000004,1.0,1.0,NA,right,736.6999999993,1.0,0.0,0.0,,,
210,0,,html-keyboard-response,210,1363627,0.0-7.12-0.12,pcldhzax57,2022-09-16 14:52:18.997,60fcbc0b079e2cfc50954745,2,54,36,25,4,20,female,1021.4000000004,,"
  <table>
  <tr height=300>
    <td width=300 height=300><img src=""static/images/cards/stack_of_red_stars.svg"" width=""175px"" height=""250px""></img></td>
    <td width=300 height=300><img src=""static/images/cards/stack_of_black_stars.svg"" width=""175px"" height=""250px""></img></td>
  </tr>
  <tr height=200>
    <td width=300><img src=""static/images/keys/w.svg"" width=""35%"" height=""75%""></img></td>
    <td width=300><img src=""static/images/keys/o.svg"" width=""35%"" height=""75%""></img></td>
  </tr>
</table>
  ",87.0,1.0,,,,,,,,,,,,,,,,,,,,,,,,,,
211,0,,html-keyboard-response,211,1364919,0.0-7.12-1.12,pcldhzax57,2022-09-16 14:52:18.997,60fcbc0b079e2cfc50954745,2,54,36,25,4,20,female,785.0999999996,,"
  <table>
  <tr height=300>
    <td width=300 height=300><img src=""static/images/cards/back_of_red_stars.svg"" width=""175px"" height=""250px""></img></td>
    <td width=300 height=300><img src=""static/images/cards/back_of_red_stars.svg"" width=""175px"" height=""250px""></img></td>
  </tr>
  <tr height=200>
    <td width=300></td>
    <td width=300><img src=""static/images/keys/m.svg"" width=""35%"" height=""75%""></img></td>
  </tr>
</table>
  ",77.0,1.0,,,,,,,,,,,,,,,,,,,,,,,,,,
212,0,,html-keyboard-response,212,1366425,0.0-7.12-2.12,pcldhzax57,2022-09-16 14:52:18.997,60fcbc0b079e2cfc50954745,2,54,36,25,4,20,female,,,"
  <table>
  <tr height=300>
    <td width=300 height=300><img src=""static/images/cards/back_of_red_stars.svg"" width=""175px"" height=""250px""></img></td>
    <td width=300 height=300><img src=""static/images/cards/4_of_red_stars.svg"" width=""175px"" height=""250px""></img></td>
  </tr>
  <tr height=200>
    <td width=300></td>
    <td width=300><img src=""static/images/keys/m.svg"" width=""35%"" height=""75%""></img></td>
  </tr>
</table>
  ",,,,,,,,,,,,,,,,,,,,,,,,,,,,
213,0,,html-keyboard-response,213,1367936,0.0-7.12-3.12,pcldhzax57,2022-09-16 14:52:18.997,60fcbc0b079e2cfc50954745,2,54,36,25,4,20,female,,,"<p style=""font-size:50px"">You Lose!
No points this round.</p>",,,,,,,,,,,,,,,,,,,,,,,,,,,,
214,0,,html-keyboard-response,214,1368447,0.0-7.12-4.12,pcldhzax57,2022-09-16 14:52:18.997,60fcbc0b079e2cfc50954745,2,54,36,25,4,20,female,,,,,,1.0,choice,12.0,A,B,red,black,stars,stars,B,A,B,red,stars,1021.4000000004,0.0,1.0,0,right,785.0999999996,4.0,0.0,0.0,,,
215,0,,html-keyboard-response,215,1369528,0.0-7.13-0.13,pcldhzax57,2022-09-16 14:52:18.997,60fcbc0b079e2cfc50954745,2,54,36,25,4,20,female,1079.5,,"
  <table>
  <tr height=300>
    <td width=300 height=300><img src=""static/images/cards/stack_of_black_moons.svg"" width=""175px"" height=""250px""></img></td>
    <td width=300 height=300><img src=""static/images/cards/stack_of_red_stars.svg"" width=""175px"" height=""250px""></img></td>
  </tr>
  <tr height=200>
    <td width=300><img src=""static/images/keys/w.svg"" width=""35%"" height=""75%""></img></td>
    <td width=300><img src=""static/images/keys/o.svg"" width=""35%"" height=""75%""></img></td>
  </tr>
</table>
  ",79.0,1.0,,,,,,,,,,,,,,,,,,,,,,,,,,
216,0,,html-keyboard-response,216,1371050,0.0-7.13-1.13,pcldhzax57,2022-09-16 14:52:18.997,60fcbc0b079e2cfc50954745,2,54,36,25,4,20,female,1016.4000000004,,"
  <table>
  <tr height=300>
    <td width=300 height=300><img src=""static/images/cards/back_of_red_stars.svg"" width=""175px"" height=""250px""></img></td>
    <td width=300 height=300><img src=""static/images/cards/back_of_red_stars.svg"" width=""175px"" height=""250px""></img></td>
  </tr>
  <tr height=200>
    <td width=300><img src=""static/images/keys/z.svg"" width=""35%"" height=""75%""></img></td>
    <td width=300></td>
  </tr>
</table>
  ",90.0,1.0,,,,,,,,,,,,,,,,,,,,,,,,,,
217,0,,html-keyboard-response,217,1372557,0.0-7.13-2.13,pcldhzax57,2022-09-16 14:52:18.997,60fcbc0b079e2cfc50954745,2,54,36,25,4,20,female,,,"
  <table>
  <tr height=300>
    <td width=300 height=300><img src=""static/images/cards/2_of_red_stars.svg"" width=""175px"" height=""250px""></img></td>
    <td width=300 height=300><img src=""static/images/cards/back_of_red_stars.svg"" width=""175px"" height=""250px""></img></td>
  </tr>
  <tr height=200>
    <td width=300><img src=""static/images/keys/z.svg"" width=""35%"" height=""75%""></img></td>
    <td width=300></td>
  </tr>
</table>
  ",,,,,,,,,,,,,,,,,,,,,,,,,,,,
218,0,,html-keyboard-response,218,1374068,0.0-7.13-3.13,pcldhzax57,2022-09-16 14:52:18.997,60fcbc0b079e2cfc50954745,2,54,36,25,4,20,female,,,"<p style=""font-size:50px"">You Lose!
No points this round.</p>",,,,,,,,,,,,,,,,,,,,,,,,,,,,
219,0,,html-keyboard-response,219,1374573,0.0-7.13-4.13,pcldhzax57,2022-09-16 14:52:18.997,60fcbc0b079e2cfc50954745,2,54,36,25,4,20,female,,,,,,1.0,choice,13.0,B,C,black,red,moons,stars,C,B,B,red,stars,1079.5,0.0,1.0,1,left,1016.4000000004,2.0,0.0,0.0,,,
220,0,,html-keyboard-response,220,1375767,0.0-7.14-0.14,pcldhzax57,2022-09-16 14:52:18.997,60fcbc0b079e2cfc50954745,2,54,36,25,4,20,female,1191.4000000004,,"
  <table>
  <tr height=300>
    <td width=300 height=300><img src=""static/images/cards/stack_of_red_moons.svg"" width=""175px"" height=""250px""></img></td>
    <td width=300 height=300><img src=""static/images/cards/stack_of_red_stars.svg"" width=""175px"" height=""250px""></img></td>
  </tr>
  <tr height=200>
    <td width=300><img src=""static/images/keys/w.svg"" width=""35%"" height=""75%""></img></td>
    <td width=300><img src=""static/images/keys/o.svg"" width=""35%"" height=""75%""></img></td>
  </tr>
</table>
  ",79.0,1.0,,,,,,,,,,,,,,,,,,,,,,,,,,
221,0,,html-keyboard-response,221,1377088,0.0-7.14-1.14,pcldhzax57,2022-09-16 14:52:18.997,60fcbc0b079e2cfc50954745,2,54,36,25,4,20,female,817.9000000004,,"
  <table>
  <tr height=300>
    <td width=300 height=300><img src=""static/images/cards/back_of_red_stars.svg"" width=""175px"" height=""250px""></img></td>
    <td width=300 height=300><img src=""static/images/cards/back_of_red_stars.svg"" width=""175px"" height=""250px""></img></td>
  </tr>
  <tr height=200>
    <td width=300></td>
    <td width=300><img src=""static/images/keys/m.svg"" width=""35%"" height=""75%""></img></td>
  </tr>
</table>
  ",77.0,1.0,,,,,,,,,,,,,,,,,,,,,,,,,,
222,0,,html-keyboard-response,222,1378594,0.0-7.14-2.14,pcldhzax57,2022-09-16 14:52:18.997,60fcbc0b079e2cfc50954745,2,54,36,25,4,20,female,,,"
  <table>
  <tr height=300>
    <td width=300 height=300><img src=""static/images/cards/back_of_red_stars.svg"" width=""175px"" height=""250px""></img></td>
    <td width=300 height=300><img src=""static/images/cards/8_of_red_stars.svg"" width=""175px"" height=""250px""></img></td>
  </tr>
  <tr height=200>
    <td width=300></td>
    <td width=300><img src=""static/images/keys/m.svg"" width=""35%"" height=""75%""></img></td>
  </tr>
</table>
  ",,,,,,,,,,,,,,,,,,,,,,,,,,,,
223,0,,html-keyboard-response,223,1380103,0.0-7.14-3.14,pcldhzax57,2022-09-16 14:52:18.997,60fcbc0b079e2cfc50954745,2,54,36,25,4,20,female,,,"<p style=""font-size:50px"">You win!
+10 points this round!</p>",,,,,,,,,,,,,,,,,,,,,,,,,,,,
224,0,,html-keyboard-response,224,1380614,0.0-7.14-4.14,pcldhzax57,2022-09-16 14:52:18.997,60fcbc0b079e2cfc50954745,2,54,36,25,4,20,female,,,,,,1.0,choice,14.0,B,D,red,red,moons,stars,D,B,B,red,stars,1191.4000000004,0.0,1.0,0,right,817.9000000004,8.0,1.0,1.0,,,
225,0,,html-keyboard-response,225,1381971,0.0-7.15-0.15,pcldhzax57,2022-09-16 14:52:18.997,60fcbc0b079e2cfc50954745,2,54,36,25,4,20,female,1355.8000000007,,"
  <table>
  <tr height=300>
    <td width=300 height=300><img src=""static/images/cards/stack_of_red_moons.svg"" width=""175px"" height=""250px""></img></td>
    <td width=300 height=300><img src=""static/images/cards/stack_of_red_stars.svg"" width=""175px"" height=""250px""></img></td>
  </tr>
  <tr height=200>
    <td width=300><img src=""static/images/keys/w.svg"" width=""35%"" height=""75%""></img></td>
    <td width=300><img src=""static/images/keys/o.svg"" width=""35%"" height=""75%""></img></td>
  </tr>
</table>
  ",79.0,1.0,,,,,,,,,,,,,,,,,,,,,,,,,,
226,0,,html-keyboard-response,226,1383408,0.0-7.15-1.15,pcldhzax57,2022-09-16 14:52:18.997,60fcbc0b079e2cfc50954745,2,54,36,25,4,20,female,930.5,,"
  <table>
  <tr height=300>
    <td width=300 height=300><img src=""static/images/cards/back_of_red_stars.svg"" width=""175px"" height=""250px""></img></td>
    <td width=300 height=300><img src=""static/images/cards/back_of_red_stars.svg"" width=""175px"" height=""250px""></img></td>
  </tr>
  <tr height=200>
    <td width=300></td>
    <td width=300><img src=""static/images/keys/m.svg"" width=""35%"" height=""75%""></img></td>
  </tr>
</table>
  ",77.0,1.0,,,,,,,,,,,,,,,,,,,,,,,,,,
227,0,,html-keyboard-response,227,1384914,0.0-7.15-2.15,pcldhzax57,2022-09-16 14:52:18.997,60fcbc0b079e2cfc50954745,2,54,36,25,4,20,female,,,"
  <table>
  <tr height=300>
    <td width=300 height=300><img src=""static/images/cards/back_of_red_stars.svg"" width=""175px"" height=""250px""></img></td>
    <td width=300 height=300><img src=""static/images/cards/2_of_red_stars.svg"" width=""175px"" height=""250px""></img></td>
  </tr>
  <tr height=200>
    <td width=300></td>
    <td width=300><img src=""static/images/keys/m.svg"" width=""35%"" height=""75%""></img></td>
  </tr>
</table>
  ",,,,,,,,,,,,,,,,,,,,,,,,,,,,
228,0,,html-keyboard-response,228,1386425,0.0-7.15-3.15,pcldhzax57,2022-09-16 14:52:18.997,60fcbc0b079e2cfc50954745,2,54,36,25,4,20,female,,,"<p style=""font-size:50px"">You Lose!
No points this round.</p>",,,,,,,,,,,,,,,,,,,,,,,,,,,,
229,0,,html-keyboard-response,229,1386936,0.0-7.15-4.15,pcldhzax57,2022-09-16 14:52:18.997,60fcbc0b079e2cfc50954745,2,54,36,25,4,20,female,,,,,,1.0,choice,15.0,B,D,red,red,moons,stars,D,B,B,red,stars,1355.8000000007,0.0,1.0,0,right,930.5,2.0,0.0,0.0,,,
230,0,,html-keyboard-response,230,1388071,0.0-7.16-0.16,pcldhzax57,2022-09-16 14:52:18.997,60fcbc0b079e2cfc50954745,2,54,36,25,4,20,female,1133.1999999993,,"
  <table>
  <tr height=300>
    <td width=300 height=300><img src=""static/images/cards/stack_of_black_moons.svg"" width=""175px"" height=""250px""></img></td>
    <td width=300 height=300><img src=""static/images/cards/stack_of_red_stars.svg"" width=""175px"" height=""250px""></img></td>
  </tr>
  <tr height=200>
    <td width=300><img src=""static/images/keys/w.svg"" width=""35%"" height=""75%""></img></td>
    <td width=300><img src=""static/images/keys/o.svg"" width=""35%"" height=""75%""></img></td>
  </tr>
</table>
  ",87.0,1.0,,,,,,,,,,,,,,,,,,,,,,,,,,
231,0,,html-keyboard-response,231,1389671,0.0-7.16-1.16,pcldhzax57,2022-09-16 14:52:18.997,60fcbc0b079e2cfc50954745,2,54,36,25,4,20,female,1094.1000000015,,"
  <table>
  <tr height=300>
    <td width=300 height=300><img src=""static/images/cards/back_of_black_moons.svg"" width=""175px"" height=""250px""></img></td>
    <td width=300 height=300><img src=""static/images/cards/back_of_black_moons.svg"" width=""175px"" height=""250px""></img></td>
  </tr>
  <tr height=200>
    <td width=300><img src=""static/images/keys/z.svg"" width=""35%"" height=""75%""></img></td>
    <td width=300><img src=""static/images/keys/m.svg"" width=""35%"" height=""75%""></img></td>
  </tr>
</table>
  ",77.0,1.0,,,,,,,,,,,,,,,,,,,,,,,,,,
232,0,,html-keyboard-response,232,1391178,0.0-7.16-2.16,pcldhzax57,2022-09-16 14:52:18.997,60fcbc0b079e2cfc50954745,2,54,36,25,4,20,female,,,"
  <table>
  <tr height=300>
    <td width=300 height=300><img src=""static/images/cards/back_of_black_moons.svg"" width=""175px"" height=""250px""></img></td>
    <td width=300 height=300><img src=""static/images/cards/8_of_black_moons.svg"" width=""175px"" height=""250px""></img></td>
  </tr>
  <tr height=200>
    <td width=300><img src=""static/images/keys/z.svg"" width=""35%"" height=""75%""></img></td>
    <td width=300><img src=""static/images/keys/m.svg"" width=""35%"" height=""75%""></img></td>
  </tr>
</table>
  ",,,,,,,,,,,,,,,,,,,,,,,,,,,,
233,0,,html-keyboard-response,233,1392689,0.0-7.16-3.16,pcldhzax57,2022-09-16 14:52:18.997,60fcbc0b079e2cfc50954745,2,54,36,25,4,20,female,,,"<p style=""font-size:50px"">You Lose!
No points this round.</p>",,,,,,,,,,,,,,,,,,,,,,,,,,,,
234,0,,html-keyboard-response,234,1393199,0.0-7.16-4.16,pcldhzax57,2022-09-16 14:52:18.997,60fcbc0b079e2cfc50954745,2,54,36,25,4,20,female,,,,,,1.0,choice,16.0,B,C,black,red,moons,stars,C,B,C,black,moons,1133.1999999993,1.0,0.0,NA,right,1094.1000000015,8.0,1.0,0.0,,,
235,0,,html-keyboard-response,235,1394573,0.0-7.17-0.17,pcldhzax57,2022-09-16 14:52:18.997,60fcbc0b079e2cfc50954745,2,54,36,25,4,20,female,1372.2999999989,,"
  <table>
  <tr height=300>
    <td width=300 height=300><img src=""static/images/cards/stack_of_black_moons.svg"" width=""175px"" height=""250px""></img></td>
    <td width=300 height=300><img src=""static/images/cards/stack_of_red_stars.svg"" width=""175px"" height=""250px""></img></td>
  </tr>
  <tr height=200>
    <td width=300><img src=""static/images/keys/w.svg"" width=""35%"" height=""75%""></img></td>
    <td width=300><img src=""static/images/keys/o.svg"" width=""35%"" height=""75%""></img></td>
  </tr>
</table>
  ",79.0,1.0,,,,,,,,,,,,,,,,,,,,,,,,,,
236,0,,html-keyboard-response,236,1395898,0.0-7.17-1.17,pcldhzax57,2022-09-16 14:52:18.997,60fcbc0b079e2cfc50954745,2,54,36,25,4,20,female,818.8000000007,,"
  <table>
  <tr height=300>
    <td width=300 height=300><img src=""static/images/cards/back_of_red_stars.svg"" width=""175px"" height=""250px""></img></td>
    <td width=300 height=300><img src=""static/images/cards/back_of_red_stars.svg"" width=""175px"" height=""250px""></img></td>
  </tr>
  <tr height=200>
    <td width=300></td>
    <td width=300><img src=""static/images/keys/m.svg"" width=""35%"" height=""75%""></img></td>
  </tr>
</table>
