,index,success,trial_type,trial_index,time_elapsed,internal_node_id,subject,date,prol_id,ctbl,sense_of_control_A,sense_of_control_B,sense_of_control_C,sense_of_control_D,age,gender,rt,url,stimulus,key_press,npress,is_data_trial,phase,trial,deck1,deck2,col1,col2,sym1,sym2,deck_l,deck_r,chosen_deck,chosen_col,chosen_sym,deck_rt,choose_choice,mutual_info,hidden_key,chosen_card,card_rt,player_num,win_card,outcome,mock_rating,response,responses
0,0,1.0,fullscreen,0,2795,0.0-0.0,7h42ahf2mbx,2022-09-19 13:29:15.132,5ee683596f9b570626faa11c,3,100,77,14,5,41,Male,,,,,,,,,,,,,,,,,,,,,,,,,,,,,,,
1,0,,external-html,1,6813,0.0-1.0,7h42ahf2mbx,2022-09-19 13:29:15.132,5ee683596f9b570626faa11c,3,100,77,14,5,41,Male,3888.2999999523,static/js/sub/consent.html,,,,,,,,,,,,,,,,,,,,,,,,,,,,,
2,0,,call-function,2,6814,0.0-2.0,7h42ahf2mbx,2022-09-19 13:29:15.132,5ee683596f9b570626faa11c,3,100,77,14,5,41,Male,,,,,,,,,,,,,,,,,,,,,,,,,,,,,,,
3,0,,image-keyboard-response,3,11605,0.0-3.0-0.0,7h42ahf2mbx,2022-09-19 13:29:15.132,5ee683596f9b570626faa11c,3,100,77,14,5,41,Male,4789.7000000477,,static/images/instructions_CB_3/Slide1.png,39.0,,,,,,,,,,,,,,,,,,,,,,,,,,,
4,0,,image-keyboard-response,4,21847,0.0-3.1-0.1,7h42ahf2mbx,2022-09-19 13:29:15.132,5ee683596f9b570626faa11c,3,100,77,14,5,41,Male,10240.6999999881,,static/images/instructions_CB_3/Slide2.png,39.0,,,,,,,,,,,,,,,,,,,,,,,,,,,
5,0,,image-keyboard-response,5,25805,0.0-3.2-0.2,7h42ahf2mbx,2022-09-19 13:29:15.132,5ee683596f9b570626faa11c,3,100,77,14,5,41,Male,3956.1000000238,,static/images/instructions_CB_3/Slide3.png,39.0,,,,,,,,,,,,,,,,,,,,,,,,,,,
6,0,,image-keyboard-response,6,31430,0.0-3.3-0.3,7h42ahf2mbx,2022-09-19 13:29:15.132,5ee683596f9b570626faa11c,3,100,77,14,5,41,Male,5624.2999999523,,static/images/instructions_CB_3/Slide4.png,39.0,,,,,,,,,,,,,,,,,,,,,,,,,,,
7,0,,image-keyboard-response,7,53108,0.0-3.4-0.4,7h42ahf2mbx,2022-09-19 13:29:15.132,5ee683596f9b570626faa11c,3,100,77,14,5,41,Male,21677.8000000119,,static/images/instructions_CB_3/Slide5.png,39.0,,,,,,,,,,,,,,,,,,,,,,,,,,,
8,0,,image-keyboard-response,8,57108,0.0-3.5-0.5,7h42ahf2mbx,2022-09-19 13:29:15.132,5ee683596f9b570626faa11c,3,100,77,14,5,41,Male,3999.1999999881,,static/images/instructions_CB_3/Slide6.png,39.0,,,,,,,,,,,,,,,,,,,,,,,,,,,
9,0,,image-keyboard-response,9,64206,0.0-3.6-0.6,7h42ahf2mbx,2022-09-19 13:29:15.132,5ee683596f9b570626faa11c,3,100,77,14,5,41,Male,7097.6999999881,,static/images/instructions_CB_3/Slide7.png,39.0,,,,,,,,,,,,,,,,,,,,,,,,,,,
10,0,,image-keyboard-response,10,87713,0.0-3.7-0.7,7h42ahf2mbx,2022-09-19 13:29:15.132,5ee683596f9b570626faa11c,3,100,77,14,5,41,Male,23505.8000000119,,static/images/instructions_CB_3/Slide8.png,37.0,,,,,,,,,,,,,,,,,,,,,,,,,,,
11,0,,image-keyboard-response,11,88860,0.0-3.8-0.8,7h42ahf2mbx,2022-09-19 13:29:15.132,5ee683596f9b570626faa11c,3,100,77,14,5,41,Male,1145.5,,static/images/instructions_CB_3/Slide7.png,37.0,,,,,,,,,,,,,,,,,,,,,,,,,,,
12,0,,image-keyboard-response,12,89997,0.0-3.9-0.9,7h42ahf2mbx,2022-09-19 13:29:15.132,5ee683596f9b570626faa11c,3,100,77,14,5,41,Male,1136.5,,static/images/instructions_CB_3/Slide6.png,37.0,,,,,,,,,,,,,,,,,,,,,,,,,,,
13,0,,image-keyboard-response,13,93301,0.0-3.10-0.10,7h42ahf2mbx,2022-09-19 13:29:15.132,5ee683596f9b570626faa11c,3,100,77,14,5,41,Male,3303.6000000238,,static/images/instructions_CB_3/Slide5.png,39.0,,,,,,,,,,,,,,,,,,,,,,,,,,,
14,0,,image-keyboard-response,14,94477,0.0-3.11-0.11,7h42ahf2mbx,2022-09-19 13:29:15.132,5ee683596f9b570626faa11c,3,100,77,14,5,41,Male,1174.9000000358,,static/images/instructions_CB_3/Slide6.png,39.0,,,,,,,,,,,,,,,,,,,,,,,,,,,
15,0,,image-keyboard-response,15,96625,0.0-3.12-0.12,7h42ahf2mbx,2022-09-19 13:29:15.132,5ee683596f9b570626faa11c,3,100,77,14,5,41,Male,2147.3999999762,,static/images/instructions_CB_3/Slide7.png,39.0,,,,,,,,,,,,,,,,,,,,,,,,,,,
16,0,,image-keyboard-response,16,99508,0.0-3.13-0.13,7h42ahf2mbx,2022-09-19 13:29:15.132,5ee683596f9b570626faa11c,3,100,77,14,5,41,Male,2882.7000000477,,static/images/instructions_CB_3/Slide8.png,39.0,,,,,,,,,,,,,,,,,,,,,,,,,,,
17,0,,image-keyboard-response,17,105672,0.0-3.14-0.14,7h42ahf2mbx,2022-09-19 13:29:15.132,5ee683596f9b570626faa11c,3,100,77,14,5,41,Male,6163.6000000238,,static/images/instructions_CB_3/Slide9.png,39.0,,,,,,,,,,,,,,,,,,,,,,,,,,,
18,0,,image-keyboard-response,18,114121,0.0-3.15-0.15,7h42ahf2mbx,2022-09-19 13:29:15.132,5ee683596f9b570626faa11c,3,100,77,14,5,41,Male,8449.1000000238,,static/images/instructions_CB_3/Slide10.png,37.0,,,,,,,,,,,,,,,,,,,,,,,,,,,
19,0,,image-keyboard-response,19,114389,0.0-3.16-0.16,7h42ahf2mbx,2022-09-19 13:29:15.132,5ee683596f9b570626faa11c,3,100,77,14,5,41,Male,266.6000000238,,static/images/instructions_CB_3/Slide9.png,37.0,,,,,,,,,,,,,,,,,,,,,,,,,,,
20,0,,image-keyboard-response,20,115053,0.0-3.17-0.17,7h42ahf2mbx,2022-09-19 13:29:15.132,5ee683596f9b570626faa11c,3,100,77,14,5,41,Male,662.6999999881,,static/images/instructions_CB_3/Slide8.png,39.0,,,,,,,,,,,,,,,,,,,,,,,,,,,
21,0,,image-keyboard-response,21,115301,0.0-3.18-0.18,7h42ahf2mbx,2022-09-19 13:29:15.132,5ee683596f9b570626faa11c,3,100,77,14,5,41,Male,247.1999999881,,static/images/instructions_CB_3/Slide9.png,39.0,,,,,,,,,,,,,,,,,,,,,,,,,,,
22,0,,image-keyboard-response,22,116571,0.0-3.19-0.19,7h42ahf2mbx,2022-09-19 13:29:15.132,5ee683596f9b570626faa11c,3,100,77,14,5,41,Male,1270.3999999762,,static/images/instructions_CB_3/Slide10.png,39.0,,,,,,,,,,,,,,,,,,,,,,,,,,,
23,0,,image-keyboard-response,23,129295,0.0-3.20-0.20,7h42ahf2mbx,2022-09-19 13:29:15.132,5ee683596f9b570626faa11c,3,100,77,14,5,41,Male,12723.5,,static/images/instructions_CB_3/Slide11.png,39.0,,,,,,,,,,,,,,,,,,,,,,,,,,,
24,0,,image-keyboard-response,24,153334,0.0-3.21-0.21,7h42ahf2mbx,2022-09-19 13:29:15.132,5ee683596f9b570626faa11c,3,100,77,14,5,41,Male,24037.8000000119,,static/images/instructions_CB_3/Slide12.png,39.0,,,,,,,,,,,,,,,,,,,,,,,,,,,
25,0,,image-keyboard-response,25,184669,0.0-3.22-0.22,7h42ahf2mbx,2022-09-19 13:29:15.132,5ee683596f9b570626faa11c,3,100,77,14,5,41,Male,31334.3000000119,,static/images/instructions_CB_3/Slide13.png,39.0,,,,,,,,,,,,,,,,,,,,,,,,,,,
26,0,,image-keyboard-response,26,193882,0.0-3.23-0.23,7h42ahf2mbx,2022-09-19 13:29:15.132,5ee683596f9b570626faa11c,3,100,77,14,5,41,Male,9213.0999999642,,static/images/instructions_CB_3/Slide14.png,37.0,,,,,,,,,,,,,,,,,,,,,,,,,,,
27,0,,image-keyboard-response,27,206035,0.0-3.24-0.24,7h42ahf2mbx,2022-09-19 13:29:15.132,5ee683596f9b570626faa11c,3,100,77,14,5,41,Male,12151.5,,static/images/instructions_CB_3/Slide13.png,39.0,,,,,,,,,,,,,,,,,,,,,,,,,,,
28,0,,image-keyboard-response,28,206775,0.0-3.25-0.25,7h42ahf2mbx,2022-09-19 13:29:15.132,5ee683596f9b570626faa11c,3,100,77,14,5,41,Male,738.8000000119,,static/images/instructions_CB_3/Slide14.png,37.0,,,,,,,,,,,,,,,,,,,,,,,,,,,
29,0,,image-keyboard-response,29,214760,0.0-3.26-0.26,7h42ahf2mbx,2022-09-19 13:29:15.132,5ee683596f9b570626faa11c,3,100,77,14,5,41,Male,7985.4000000358,,static/images/instructions_CB_3/Slide13.png,37.0,,,,,,,,,,,,,,,,,,,,,,,,,,,
30,0,,image-keyboard-response,30,216359,0.0-3.27-0.27,7h42ahf2mbx,2022-09-19 13:29:15.132,5ee683596f9b570626faa11c,3,100,77,14,5,41,Male,1598.1999999881,,static/images/instructions_CB_3/Slide12.png,39.0,,,,,,,,,,,,,,,,,,,,,,,,,,,
31,0,,image-keyboard-response,31,216977,0.0-3.28-0.28,7h42ahf2mbx,2022-09-19 13:29:15.132,5ee683596f9b570626faa11c,3,100,77,14,5,41,Male,617.4000000358,,static/images/instructions_CB_3/Slide13.png,39.0,,,,,,,,,,,,,,,,,,,,,,,,,,,
32,0,,image-keyboard-response,32,220320,0.0-3.29-0.29,7h42ahf2mbx,2022-09-19 13:29:15.132,5ee683596f9b570626faa11c,3,100,77,14,5,41,Male,3341.7000000477,,static/images/instructions_CB_3/Slide14.png,37.0,,,,,,,,,,,,,,,,,,,,,,,,,,,
33,0,,image-keyboard-response,33,220657,0.0-3.30-0.30,7h42ahf2mbx,2022-09-19 13:29:15.132,5ee683596f9b570626faa11c,3,100,77,14,5,41,Male,336.8000000119,,static/images/instructions_CB_3/Slide13.png,37.0,,,,,,,,,,,,,,,,,,,,,,,,,,,
34,0,,image-keyboard-response,34,221621,0.0-3.31-0.31,7h42ahf2mbx,2022-09-19 13:29:15.132,5ee683596f9b570626faa11c,3,100,77,14,5,41,Male,962.8000000119,,static/images/instructions_CB_3/Slide12.png,39.0,,,,,,,,,,,,,,,,,,,,,,,,,,,
35,0,,image-keyboard-response,35,233178,0.0-3.32-0.32,7h42ahf2mbx,2022-09-19 13:29:15.132,5ee683596f9b570626faa11c,3,100,77,14,5,41,Male,11556.5,,static/images/instructions_CB_3/Slide13.png,39.0,,,,,,,,,,,,,,,,,,,,,,,,,,,
36,0,,image-keyboard-response,36,234586,0.0-3.33-0.33,7h42ahf2mbx,2022-09-19 13:29:15.132,5ee683596f9b570626faa11c,3,100,77,14,5,41,Male,1408.3999999762,,static/images/instructions_CB_3/Slide14.png,37.0,,,,,,,,,,,,,,,,,,,,,,,,,,,
37,0,,image-keyboard-response,37,236994,0.0-3.34-0.34,7h42ahf2mbx,2022-09-19 13:29:15.132,5ee683596f9b570626faa11c,3,100,77,14,5,41,Male,2407.6000000238,,static/images/instructions_CB_3/Slide13.png,39.0,,,,,,,,,,,,,,,,,,,,,,,,,,,
38,0,,image-keyboard-response,38,240734,0.0-3.35-0.35,7h42ahf2mbx,2022-09-19 13:29:15.132,5ee683596f9b570626faa11c,3,100,77,14,5,41,Male,3738.3000000119,,static/images/instructions_CB_3/Slide14.png,39.0,,,,,,,,,,,,,,,,,,,,,,,,,,,
39,0,,image-keyboard-response,39,252036,0.0-3.36-0.36,7h42ahf2mbx,2022-09-19 13:29:15.132,5ee683596f9b570626faa11c,3,100,77,14,5,41,Male,11301.3000000119,,static/images/instructions_CB_3/Slide15.png,39.0,,,,,,,,,,,,,,,,,,,,,,,,,,,
40,0,,image-keyboard-response,40,257962,0.0-3.37-0.37,7h42ahf2mbx,2022-09-19 13:29:15.132,5ee683596f9b570626faa11c,3,100,77,14,5,41,Male,5925.6999999881,,static/images/instructions_CB_3/Slide16.png,39.0,,,,,,,,,,,,,,,,,,,,,,,,,,,
41,0,,image-keyboard-response,41,260776,0.0-3.38-0.38,7h42ahf2mbx,2022-09-19 13:29:15.132,5ee683596f9b570626faa11c,3,100,77,14,5,41,Male,2813.3000000119,,static/images/instructions_CB_3/Slide17.png,39.0,,,,,,,,,,,,,,,,,,,,,,,,,,,
42,0,,image-keyboard-response,42,278730,0.0-3.39-0.39,7h42ahf2mbx,2022-09-19 13:29:15.132,5ee683596f9b570626faa11c,3,100,77,14,5,41,Male,17953.6999999881,,static/images/instructions_CB_3/Slide18.png,39.0,,,,,,,,,,,,,,,,,,,,,,,,,,,
43,0,,image-keyboard-response,43,280462,0.0-3.40-0.40,7h42ahf2mbx,2022-09-19 13:29:15.132,5ee683596f9b570626faa11c,3,100,77,14,5,41,Male,1731.3999999762,,static/images/instructions_CB_3/Slide19.png,39.0,,,,,,,,,,,,,,,,,,,,,,,,,,,
44,0,,html-keyboard-response,44,281969,0.0-4.0-0.0,7h42ahf2mbx,2022-09-19 13:29:15.132,5ee683596f9b570626faa11c,3,100,77,14,5,41,Male,,,"<img src=""static/images/cards/stack_of_black_moons.svg"" width=""175px"" height=""250px""></img>",,,,,,,,,,,,,,,,,,,,,,,,,,,,
45,0,,html-keyboard-response,45,284452,0.0-4.0-1.0,7h42ahf2mbx,2022-09-19 13:29:15.132,5ee683596f9b570626faa11c,3,100,77,14,5,41,Male,1979.3000000119,,"
  <table>
  <tr height=300>
    <td width=300 height=300><img src=""static/images/cards/back_of_black_moons.svg"" width=""175px"" height=""250px""></img></td>
    <td width=300 height=300><img src=""static/images/cards/back_of_black_moons.svg"" width=""175px"" height=""250px""></img></td>
  </tr>
  <tr height=200>
    <td width=300><img src=""static/images/keys/z.svg"" width=""35%"" height=""75%""></img></td>
    <td width=300><img src=""static/images/keys/m.svg"" width=""35%"" height=""75%""></img></td>
  </tr>
</table>
  ",90.0,1.0,,,,,,,,,,,,,,,,,,,,,,,,,,
46,0,,html-keyboard-response,46,285953,0.0-4.0-2.0,7h42ahf2mbx,2022-09-19 13:29:15.132,5ee683596f9b570626faa11c,3,100,77,14,5,41,Male,,,"
  <table>
  <tr height=300>
    <td width=300 height=300><img src=""static/images/cards/6_of_black_moons.svg"" width=""175px"" height=""250px""></img></td>
    <td width=300 height=300><img src=""static/images/cards/back_of_black_moons.svg"" width=""175px"" height=""250px""></img></td>
  </tr>
  <tr height=200>
    <td width=300><img src=""static/images/keys/z.svg"" width=""35%"" height=""75%""></img></td>
    <td width=300><img src=""static/images/keys/m.svg"" width=""35%"" height=""75%""></img></td>
  </tr>
</table>
  ",,,,,,,,,,,,,,,,,,,,,,,,,,,,
47,0,,html-keyboard-response,47,287465,0.0-4.0-3.0,7h42ahf2mbx,2022-09-19 13:29:15.132,5ee683596f9b570626faa11c,3,100,77,14,5,41,Male,,,"<p style=""font-size:50px"">You win!
+10 points this round!</p>",,,,,,,,,,,,,,,,,,,,,,,,,,,,
48,0,,html-keyboard-response,48,287984,0.0-4.0-4.0,7h42ahf2mbx,2022-09-19 13:29:15.132,5ee683596f9b570626faa11c,3,100,77,14,5,41,Male,,,,,,1.0,learning,0.0,A,,black,,moons,,,,A,black,moons,,1.0,1.0,NA,left,1979.3000000119,6.0,1.0,1.0,,,
49,0,,html-keyboard-response,49,289495,0.0-4.1-0.1,7h42ahf2mbx,2022-09-19 13:29:15.132,5ee683596f9b570626faa11c,3,100,77,14,5,41,Male,,,"<img src=""static/images/cards/stack_of_red_moons.svg"" width=""175px"" height=""250px""></img>",,,,,,,,,,,,,,,,,,,,,,,,,,,,
50,0,,html-keyboard-response,50,292080,0.0-4.1-1.1,7h42ahf2mbx,2022-09-19 13:29:15.132,5ee683596f9b570626faa11c,3,100,77,14,5,41,Male,2081.9000000358,,"
  <table>
  <tr height=300>
    <td width=300 height=300><img src=""static/images/cards/back_of_red_moons.svg"" width=""175px"" height=""250px""></img></td>
    <td width=300 height=300><img src=""static/images/cards/back_of_red_moons.svg"" width=""175px"" height=""250px""></img></td>
  </tr>
  <tr height=200>
    <td width=300><img src=""static/images/keys/z.svg"" width=""35%"" height=""75%""></img></td>
    <td width=300></td>
  </tr>
</table>
  ",90.0,1.0,,,,,,,,,,,,,,,,,,,,,,,,,,
51,0,,html-keyboard-response,51,293582,0.0-4.1-2.1,7h42ahf2mbx,2022-09-19 13:29:15.132,5ee683596f9b570626faa11c,3,100,77,14,5,41,Male,,,"
  <table>
  <tr height=300>
    <td width=300 height=300><img src=""static/images/cards/9_of_red_moons.svg"" width=""175px"" height=""250px""></img></td>
    <td width=300 height=300><img src=""static/images/cards/back_of_red_moons.svg"" width=""175px"" height=""250px""></img></td>
  </tr>
  <tr height=200>
    <td width=300><img src=""static/images/keys/z.svg"" width=""35%"" height=""75%""></img></td>
    <td width=300></td>
  </tr>
</table>
  ",,,,,,,,,,,,,,,,,,,,,,,,,,,,
52,0,,html-keyboard-response,52,295098,0.0-4.1-3.1,7h42ahf2mbx,2022-09-19 13:29:15.132,5ee683596f9b570626faa11c,3,100,77,14,5,41,Male,,,"<p style=""font-size:50px"">You win!
+10 points this round!</p>",,,,,,,,,,,,,,,,,,,,,,,,,,,,
53,0,,html-keyboard-response,53,295618,0.0-4.1-4.1,7h42ahf2mbx,2022-09-19 13:29:15.132,5ee683596f9b570626faa11c,3,100,77,14,5,41,Male,,,,,,1.0,learning,1.0,B,,red,,moons,,,,B,red,moons,,0.0,1.0,1,left,2081.9000000358,9.0,1.0,1.0,,,
54,0,,html-keyboard-response,54,297129,0.0-4.2-0.2,7h42ahf2mbx,2022-09-19 13:29:15.132,5ee683596f9b570626faa11c,3,100,77,14,5,41,Male,,,"<img src=""static/images/cards/stack_of_black_stars.svg"" width=""175px"" height=""250px""></img>",,,,,,,,,,,,,,,,,,,,,,,,,,,,
55,0,,html-keyboard-response,55,298538,0.0-4.2-1.2,7h42ahf2mbx,2022-09-19 13:29:15.132,5ee683596f9b570626faa11c,3,100,77,14,5,41,Male,904.4000000358,,"
  <table>
  <tr height=300>
    <td width=300 height=300><img src=""static/images/cards/back_of_black_stars.svg"" width=""175px"" height=""250px""></img></td>
    <td width=300 height=300><img src=""static/images/cards/back_of_black_stars.svg"" width=""175px"" height=""250px""></img></td>
  </tr>
  <tr height=200>
    <td width=300><img src=""static/images/keys/z.svg"" width=""35%"" height=""75%""></img></td>
    <td width=300><img src=""static/images/keys/m.svg"" width=""35%"" height=""75%""></img></td>
  </tr>
</table>
  ",77.0,1.0,,,,,,,,,,,,,,,,,,,,,,,,,,
56,0,,html-keyboard-response,56,300053,0.0-4.2-2.2,7h42ahf2mbx,2022-09-19 13:29:15.132,5ee683596f9b570626faa11c,3,100,77,14,5,41,Male,,,"
  <table>
  <tr height=300>
    <td width=300 height=300><img src=""static/images/cards/back_of_black_stars.svg"" width=""175px"" height=""250px""></img></td>
    <td width=300 height=300><img src=""static/images/cards/2_of_black_stars.svg"" width=""175px"" height=""250px""></img></td>
  </tr>
  <tr height=200>
    <td width=300><img src=""static/images/keys/z.svg"" width=""35%"" height=""75%""></img></td>
    <td width=300><img src=""static/images/keys/m.svg"" width=""35%"" height=""75%""></img></td>
  </tr>
</table>
  ",,,,,,,,,,,,,,,,,,,,,,,,,,,,
57,0,,html-keyboard-response,57,301555,0.0-4.2-3.2,7h42ahf2mbx,2022-09-19 13:29:15.132,5ee683596f9b570626faa11c,3,100,77,14,5,41,Male,,,"<p style=""font-size:50px"">You win!
+10 points this round!</p>",,,,,,,,,,,,,,,,,,,,,,,,,,,,
58,0,,html-keyboard-response,58,302061,0.0-4.2-4.2,7h42ahf2mbx,2022-09-19 13:29:15.132,5ee683596f9b570626faa11c,3,100,77,14,5,41,Male,,,,,,1.0,learning,2.0,C,,black,,stars,,,,C,black,stars,,1.0,0.0,NA,right,904.4000000358,2.0,0.0,1.0,,,
59,0,,html-keyboard-response,59,303566,0.0-4.3-0.3,7h42ahf2mbx,2022-09-19 13:29:15.132,5ee683596f9b570626faa11c,3,100,77,14,5,41,Male,,,"<img src=""static/images/cards/stack_of_red_stars.svg"" width=""175px"" height=""250px""></img>",,,,,,,,,,,,,,,,,,,,,,,,,,,,
60,0,,html-keyboard-response,60,307090,0.0-4.3-1.3,7h42ahf2mbx,2022-09-19 13:29:15.132,5ee683596f9b570626faa11c,3,100,77,14,5,41,Male,,,"
  <table>
  <tr height=300>
    <td width=300 height=300><img src=""static/images/cards/back_of_red_stars.svg"" width=""175px"" height=""250px""></img></td>
    <td width=300 height=300><img src=""static/images/cards/back_of_red_stars.svg"" width=""175px"" height=""250px""></img></td>
  </tr>
  <tr height=200>
    <td width=300><img src=""static/images/keys/z.svg"" width=""35%"" height=""75%""></img></td>
    <td width=300></td>
  </tr>
</table>
  ",,,,,,,,,,,,,,,,,,,,,,,,,,,,
61,0,,html-keyboard-response,61,307095,0.0-4.3-2.3,7h42ahf2mbx,2022-09-19 13:29:15.132,5ee683596f9b570626faa11c,3,100,77,14,5,41,Male,,,,,,,,,,,,,,,,,,,,,,,,,,,,,,,
62,0,,html-keyboard-response,62,308618,0.0-4.3-3.3,7h42ahf2mbx,2022-09-19 13:29:15.132,5ee683596f9b570626faa11c,3,100,77,14,5,41,Male,,,"<p style=""font-size:50px"">Too slow!</p>",,,,,,,,,,,,,,,,,,,,,,,,,,,,
63,0,,html-keyboard-response,63,309133,0.0-4.3-4.3,7h42ahf2mbx,2022-09-19 13:29:15.132,5ee683596f9b570626faa11c,3,100,77,14,5,41,Male,,,,,,1.0,learning,3.0,D,,red,,stars,,,,D,red,stars,,0.0,0.0,1,,,2.0,0.0,1.0,,,
64,0,,html-keyboard-response,64,310640,0.0-4.4-0.4,7h42ahf2mbx,2022-09-19 13:29:15.132,5ee683596f9b570626faa11c,3,100,77,14,5,41,Male,,,"<img src=""static/images/cards/stack_of_red_bolts.svg"" width=""175px"" height=""250px""></img>",,,,,,,,,,,,,,,,,,,,,,,,,,,,
65,0,,html-keyboard-response,65,312220,0.0-4.4-1.4,7h42ahf2mbx,2022-09-19 13:29:15.132,5ee683596f9b570626faa11c,3,100,77,14,5,41,Male,1063.8000000119,,"
  <table>
  <tr height=300>
    <td width=300 height=300><img src=""static/images/cards/back_of_red_bolts.svg"" width=""175px"" height=""250px""></img></td>
    <td width=300 height=300><img src=""static/images/cards/back_of_red_bolts.svg"" width=""175px"" height=""250px""></img></td>
  </tr>
  <tr height=200>
    <td width=300><img src=""static/images/keys/z.svg"" width=""35%"" height=""75%""></img></td>
    <td width=300><img src=""static/images/keys/m.svg"" width=""35%"" height=""75%""></img></td>
  </tr>
</table>
  ",77.0,1.0,,,,,,,,,,,,,,,,,,,,,,,,,,
66,0,,html-keyboard-response,66,313722,0.0-4.4-2.4,7h42ahf2mbx,2022-09-19 13:29:15.132,5ee683596f9b570626faa11c,3,100,77,14,5,41,Male,,,"
  <table>
  <tr height=300>
    <td width=300 height=300><img src=""static/images/cards/back_of_red_bolts.svg"" width=""175px"" height=""250px""></img></td>
    <td width=300 height=300><img src=""static/images/cards/6_of_red_bolts.svg"" width=""175px"" height=""250px""></img></td>
  </tr>
  <tr height=200>
    <td width=300><img src=""static/images/keys/z.svg"" width=""35%"" height=""75%""></img></td>
    <td width=300><img src=""static/images/keys/m.svg"" width=""35%"" height=""75%""></img></td>
  </tr>
</table>
  ",,,,,,,,,,,,,,,,,,,,,,,,,,,,
67,0,,html-keyboard-response,67,315239,0.0-4.4-3.4,7h42ahf2mbx,2022-09-19 13:29:15.132,5ee683596f9b570626faa11c,3,100,77,14,5,41,Male,,,"<p style=""font-size:50px"">You win!
+10 points this round!</p>",,,,,,,,,,,,,,,,,,,,,,,,,,,,
68,0,,html-keyboard-response,68,315748,0.0-4.4-4.4,7h42ahf2mbx,2022-09-19 13:29:15.132,5ee683596f9b570626faa11c,3,100,77,14,5,41,Male,,,,,,1.0,learning,4.0,Xc,,red,,bolts,,,,Xc,red,bolts,,1.0,0.0,NA,right,1063.8000000119,6.0,1.0,1.0,,,
69,0,,html-keyboard-response,69,317262,0.0-4.5-0.5,7h42ahf2mbx,2022-09-19 13:29:15.132,5ee683596f9b570626faa11c,3,100,77,14,5,41,Male,,,"<img src=""static/images/cards/stack_of_black_bolts.svg"" width=""175px"" height=""250px""></img>",,,,,,,,,,,,,,,,,,,,,,,,,,,,
70,0,,html-keyboard-response,70,318396,0.0-4.5-1.5,7h42ahf2mbx,2022-09-19 13:29:15.132,5ee683596f9b570626faa11c,3,100,77,14,5,41,Male,630.9000000358,,"
  <table>
  <tr height=300>
    <td width=300 height=300><img src=""static/images/cards/back_of_black_bolts.svg"" width=""175px"" height=""250px""></img></td>
    <td width=300 height=300><img src=""static/images/cards/back_of_black_bolts.svg"" width=""175px"" height=""250px""></img></td>
  </tr>
  <tr height=200>
    <td width=300><img src=""static/images/keys/z.svg"" width=""35%"" height=""75%""></img></td>
    <td width=300></td>
  </tr>
</table>
  ",90.0,1.0,,,,,,,,,,,,,,,,,,,,,,,,,,
71,0,,html-keyboard-response,71,319904,0.0-4.5-2.5,7h42ahf2mbx,2022-09-19 13:29:15.132,5ee683596f9b570626faa11c,3,100,77,14,5,41,Male,,,"
  <table>
  <tr height=300>
    <td width=300 height=300><img src=""static/images/cards/1_of_black_bolts.svg"" width=""175px"" height=""250px""></img></td>
    <td width=300 height=300><img src=""static/images/cards/back_of_black_bolts.svg"" width=""175px"" height=""250px""></img></td>
  </tr>
  <tr height=200>
    <td width=300><img src=""static/images/keys/z.svg"" width=""35%"" height=""75%""></img></td>
    <td width=300></td>
  </tr>
</table>
  ",,,,,,,,,,,,,,,,,,,,,,,,,,,,
72,0,,html-keyboard-response,72,321417,0.0-4.5-3.5,7h42ahf2mbx,2022-09-19 13:29:15.132,5ee683596f9b570626faa11c,3,100,77,14,5,41,Male,,,"<p style=""font-size:50px"">You win!
+10 points this round!</p>",,,,,,,,,,,,,,,,,,,,,,,,,,,,
73,0,,html-keyboard-response,73,321935,0.0-4.5-4.5,7h42ahf2mbx,2022-09-19 13:29:15.132,5ee683596f9b570626faa11c,3,100,77,14,5,41,Male,,,,,,1.0,learning,5.0,Xnc,,black,,bolts,,,,Xnc,black,bolts,,0.0,0.0,1,left,630.9000000358,1.0,0.0,1.0,,,
74,0,,html-keyboard-response,74,323436,0.0-4.6-0.6,7h42ahf2mbx,2022-09-19 13:29:15.132,5ee683596f9b570626faa11c,3,100,77,14,5,41,Male,,,"<img src=""static/images/cards/stack_of_black_moons.svg"" width=""175px"" height=""250px""></img>",,,,,,,,,,,,,,,,,,,,,,,,,,,,
75,0,,html-keyboard-response,75,325240,0.0-4.6-1.6,7h42ahf2mbx,2022-09-19 13:29:15.132,5ee683596f9b570626faa11c,3,100,77,14,5,41,Male,1296.1000000238,,"
  <table>
  <tr height=300>
    <td width=300 height=300><img src=""static/images/cards/back_of_black_moons.svg"" width=""175px"" height=""250px""></img></td>
    <td width=300 height=300><img src=""static/images/cards/back_of_black_moons.svg"" width=""175px"" height=""250px""></img></td>
  </tr>
  <tr height=200>
    <td width=300><img src=""static/images/keys/z.svg"" width=""35%"" height=""75%""></img></td>
    <td width=300><img src=""static/images/keys/m.svg"" width=""35%"" height=""75%""></img></td>
  </tr>
</table>
  ",77.0,1.0,,,,,,,,,,,,,,,,,,,,,,,,,,
76,0,,html-keyboard-response,76,326751,0.0-4.6-2.6,7h42ahf2mbx,2022-09-19 13:29:15.132,5ee683596f9b570626faa11c,3,100,77,14,5,41,Male,,,"
  <table>
  <tr height=300>
    <td width=300 height=300><img src=""static/images/cards/back_of_black_moons.svg"" width=""175px"" height=""250px""></img></td>
    <td width=300 height=300><img src=""static/images/cards/1_of_black_moons.svg"" width=""175px"" height=""250px""></img></td>
  </tr>
  <tr height=200>
    <td width=300><img src=""static/images/keys/z.svg"" width=""35%"" height=""75%""></img></td>
    <td width=300><img src=""static/images/keys/m.svg"" width=""35%"" height=""75%""></img></td>
  </tr>
</table>
  ",,,,,,,,,,,,,,,,,,,,,,,,,,,,
77,0,,html-keyboard-response,77,328253,0.0-4.6-3.6,7h42ahf2mbx,2022-09-19 13:29:15.132,5ee683596f9b570626faa11c,3,100,77,14,5,41,Male,,,"<p style=""font-size:50px"">You Lose!
No points this round.</p>",,,,,,,,,,,,,,,,,,,,,,,,,,,,
78,0,,html-keyboard-response,78,328765,0.0-4.6-4.6,7h42ahf2mbx,2022-09-19 13:29:15.132,5ee683596f9b570626faa11c,3,100,77,14,5,41,Male,,,,,,1.0,learning,6.0,A,,black,,moons,,,,A,black,moons,,1.0,1.0,NA,right,1296.1000000238,1.0,0.0,0.0,,,
79,0,,html-keyboard-response,79,330273,0.0-4.7-0.7,7h42ahf2mbx,2022-09-19 13:29:15.132,5ee683596f9b570626faa11c,3,100,77,14,5,41,Male,,,"<img src=""static/images/cards/stack_of_red_moons.svg"" width=""175px"" height=""250px""></img>",,,,,,,,,,,,,,,,,,,,,,,,,,,,
80,0,,html-keyboard-response,80,332281,0.0-4.7-1.7,7h42ahf2mbx,2022-09-19 13:29:15.132,5ee683596f9b570626faa11c,3,100,77,14,5,41,Male,1506.0,,"
  <table>
  <tr height=300>
    <td width=300 height=300><img src=""static/images/cards/back_of_red_moons.svg"" width=""175px"" height=""250px""></img></td>
    <td width=300 height=300><img src=""static/images/cards/back_of_red_moons.svg"" width=""175px"" height=""250px""></img></td>
  </tr>
  <tr height=200>
    <td width=300></td>
    <td width=300><img src=""static/images/keys/m.svg"" width=""35%"" height=""75%""></img></td>
  </tr>
</table>
  ",77.0,1.0,,,,,,,,,,,,,,,,,,,,,,,,,,
81,0,,html-keyboard-response,81,333782,0.0-4.7-2.7,7h42ahf2mbx,2022-09-19 13:29:15.132,5ee683596f9b570626faa11c,3,100,77,14,5,41,Male,,,"
  <table>
  <tr height=300>
    <td width=300 height=300><img src=""static/images/cards/back_of_red_moons.svg"" width=""175px"" height=""250px""></img></td>
    <td width=300 height=300><img src=""static/images/cards/9_of_red_moons.svg"" width=""175px"" height=""250px""></img></td>
  </tr>
  <tr height=200>
    <td width=300></td>
    <td width=300><img src=""static/images/keys/m.svg"" width=""35%"" height=""75%""></img></td>
  </tr>
</table>
  ",,,,,,,,,,,,,,,,,,,,,,,,,,,,
82,0,,html-keyboard-response,82,335296,0.0-4.7-3.7,7h42ahf2mbx,2022-09-19 13:29:15.132,5ee683596f9b570626faa11c,3,100,77,14,5,41,Male,,,"<p style=""font-size:50px"">You win!
+10 points this round!</p>",,,,,,,,,,,,,,,,,,,,,,,,,,,,
83,0,,html-keyboard-response,83,335814,0.0-4.7-4.7,7h42ahf2mbx,2022-09-19 13:29:15.132,5ee683596f9b570626faa11c,3,100,77,14,5,41,Male,,,,,,1.0,learning,7.0,B,,red,,moons,,,,B,red,moons,,0.0,1.0,0,right,1506.0,9.0,1.0,1.0,,,
84,0,,html-keyboard-response,84,337322,0.0-4.8-0.8,7h42ahf2mbx,2022-09-19 13:29:15.132,5ee683596f9b570626faa11c,3,100,77,14,5,41,Male,,,"<img src=""static/images/cards/stack_of_black_stars.svg"" width=""175px"" height=""250px""></img>",,,,,,,,,,,,,,,,,,,,,,,,,,,,
85,0,,html-keyboard-response,85,338914,0.0-4.8-1.8,7h42ahf2mbx,2022-09-19 13:29:15.132,5ee683596f9b570626faa11c,3,100,77,14,5,41,Male,1077.5999999642,,"
  <table>
  <tr height=300>
    <td width=300 height=300><img src=""static/images/cards/back_of_black_stars.svg"" width=""175px"" height=""250px""></img></td>
    <td width=300 height=300><img src=""static/images/cards/back_of_black_stars.svg"" width=""175px"" height=""250px""></img></td>
  </tr>
  <tr height=200>
    <td width=300><img src=""static/images/keys/z.svg"" width=""35%"" height=""75%""></img></td>
    <td width=300><img src=""static/images/keys/m.svg"" width=""35%"" height=""75%""></img></td>
  </tr>
</table>
  ",90.0,1.0,,,,,,,,,,,,,,,,,,,,,,,,,,
86,0,,html-keyboard-response,86,340416,0.0-4.8-2.8,7h42ahf2mbx,2022-09-19 13:29:15.132,5ee683596f9b570626faa11c,3,100,77,14,5,41,Male,,,"
  <table>
  <tr height=300>
    <td width=300 height=300><img src=""static/images/cards/10_of_black_stars.svg"" width=""175px"" height=""250px""></img></td>
    <td width=300 height=300><img src=""static/images/cards/back_of_black_stars.svg"" width=""175px"" height=""250px""></img></td>
  </tr>
  <tr height=200>
    <td width=300><img src=""static/images/keys/z.svg"" width=""35%"" height=""75%""></img></td>
    <td width=300><img src=""static/images/keys/m.svg"" width=""35%"" height=""75%""></img></td>
  </tr>
</table>
  ",,,,,,,,,,,,,,,,,,,,,,,,,,,,
87,0,,html-keyboard-response,87,341924,0.0-4.8-3.8,7h42ahf2mbx,2022-09-19 13:29:15.132,5ee683596f9b570626faa11c,3,100,77,14,5,41,Male,,,"<p style=""font-size:50px"">You win!
+10 points this round!</p>",,,,,,,,,,,,,,,,,,,,,,,,,,,,
88,0,,html-keyboard-response,88,342429,0.0-4.8-4.8,7h42ahf2mbx,2022-09-19 13:29:15.132,5ee683596f9b570626faa11c,3,100,77,14,5,41,Male,,,,,,1.0,learning,8.0,C,,black,,stars,,,,C,black,stars,,1.0,0.0,NA,left,1077.5999999642,10.0,1.0,1.0,,,
89,0,,html-keyboard-response,89,343930,0.0-4.9-0.9,7h42ahf2mbx,2022-09-19 13:29:15.132,5ee683596f9b570626faa11c,3,100,77,14,5,41,Male,,,"<img src=""static/images/cards/stack_of_red_stars.svg"" width=""175px"" height=""250px""></img>",,,,,,,,,,,,,,,,,,,,,,,,,,,,
90,0,,html-keyboard-response,90,346643,0.0-4.9-1.9,7h42ahf2mbx,2022-09-19 13:29:15.132,5ee683596f9b570626faa11c,3,100,77,14,5,41,Male,2209.8000000119,,"
  <table>
  <tr height=300>
    <td width=300 height=300><img src=""static/images/cards/back_of_red_stars.svg"" width=""175px"" height=""250px""></img></td>
    <td width=300 height=300><img src=""static/images/cards/back_of_red_stars.svg"" width=""175px"" height=""250px""></img></td>
  </tr>
  <tr height=200>
    <td width=300><img src=""static/images/keys/z.svg"" width=""35%"" height=""75%""></img></td>
    <td width=300></td>
  </tr>
</table>
  ",90.0,2.0,,,,,,,,,,,,,,,,,,,,,,,,,,
91,0,,html-keyboard-response,91,348151,0.0-4.9-2.9,7h42ahf2mbx,2022-09-19 13:29:15.132,5ee683596f9b570626faa11c,3,100,77,14,5,41,Male,,,"
  <table>
  <tr height=300>
    <td width=300 height=300><img src=""static/images/cards/7_of_red_stars.svg"" width=""175px"" height=""250px""></img></td>
    <td width=300 height=300><img src=""static/images/cards/back_of_red_stars.svg"" width=""175px"" height=""250px""></img></td>
  </tr>
  <tr height=200>
    <td width=300><img src=""static/images/keys/z.svg"" width=""35%"" height=""75%""></img></td>
    <td width=300></td>
  </tr>
</table>
  ",,,,,,,,,,,,,,,,,,,,,,,,,,,,
92,0,,html-keyboard-response,92,349662,0.0-4.9-3.9,7h42ahf2mbx,2022-09-19 13:29:15.132,5ee683596f9b570626faa11c,3,100,77,14,5,41,Male,,,"<p style=""font-size:50px"">You Lose!
No points this round.</p>",,,,,,,,,,,,,,,,,,,,,,,,,,,,
93,0,,html-keyboard-response,93,350175,0.0-4.9-4.9,7h42ahf2mbx,2022-09-19 13:29:15.132,5ee683596f9b570626faa11c,3,100,77,14,5,41,Male,,,,,,1.0,learning,9.0,D,,red,,stars,,,,D,red,stars,,0.0,0.0,1,left,2209.8000000119,7.0,1.0,0.0,,,
94,0,,html-keyboard-response,94,351676,0.0-4.10-0.10,7h42ahf2mbx,2022-09-19 13:29:15.132,5ee683596f9b570626faa11c,3,100,77,14,5,41,Male,,,"<img src=""static/images/cards/stack_of_red_bolts.svg"" width=""175px"" height=""250px""></img>",,,,,,,,,,,,,,,,,,,,,,,,,,,,
95,0,,html-keyboard-response,95,353299,0.0-4.10-1.10,7h42ahf2mbx,2022-09-19 13:29:15.132,5ee683596f9b570626faa11c,3,100,77,14,5,41,Male,1119.8999999762,,"
  <table>
  <tr height=300>
    <td width=300 height=300><img src=""static/images/cards/back_of_red_bolts.svg"" width=""175px"" height=""250px""></img></td>
    <td width=300 height=300><img src=""static/images/cards/back_of_red_bolts.svg"" width=""175px"" height=""250px""></img></td>
  </tr>
  <tr height=200>
    <td width=300><img src=""static/images/keys/z.svg"" width=""35%"" height=""75%""></img></td>
    <td width=300><img src=""static/images/keys/m.svg"" width=""35%"" height=""75%""></img></td>
  </tr>
</table>
  ",77.0,1.0,,,,,,,,,,,,,,,,,,,,,,,,,,
96,0,,html-keyboard-response,96,354803,0.0-4.10-2.10,7h42ahf2mbx,2022-09-19 13:29:15.132,5ee683596f9b570626faa11c,3,100,77,14,5,41,Male,,,"
  <table>
  <tr height=300>
    <td width=300 height=300><img src=""static/images/cards/back_of_red_bolts.svg"" width=""175px"" height=""250px""></img></td>
    <td width=300 height=300><img src=""static/images/cards/1_of_red_bolts.svg"" width=""175px"" height=""250px""></img></td>
  </tr>
  <tr height=200>
    <td width=300><img src=""static/images/keys/z.svg"" width=""35%"" height=""75%""></img></td>
    <td width=300><img src=""static/images/keys/m.svg"" width=""35%"" height=""75%""></img></td>
  </tr>
</table>
  ",,,,,,,,,,,,,,,,,,,,,,,,,,,,
97,0,,html-keyboard-response,97,356317,0.0-4.10-3.10,7h42ahf2mbx,2022-09-19 13:29:15.132,5ee683596f9b570626faa11c,3,100,77,14,5,41,Male,,,"<p style=""font-size:50px"">You win!
+10 points this round!</p>",,,,,,,,,,,,,,,,,,,,,,,,,,,,
98,0,,html-keyboard-response,98,356822,0.0-4.10-4.10,7h42ahf2mbx,2022-09-19 13:29:15.132,5ee683596f9b570626faa11c,3,100,77,14,5,41,Male,,,,,,1.0,learning,10.0,Xc,,red,,bolts,,,,Xc,red,bolts,,1.0,0.0,NA,right,1119.8999999762,1.0,0.0,1.0,,,
99,0,,html-keyboard-response,99,358325,0.0-4.11-0.11,7h42ahf2mbx,2022-09-19 13:29:15.132,5ee683596f9b570626faa11c,3,100,77,14,5,41,Male,,,"<img src=""static/images/cards/stack_of_black_bolts.svg"" width=""175px"" height=""250px""></img>",,,,,,,,,,,,,,,,,,,,,,,,,,,,
100,0,,html-keyboard-response,100,360346,0.0-4.11-1.11,7h42ahf2mbx,2022-09-19 13:29:15.132,5ee683596f9b570626faa11c,3,100,77,14,5,41,Male,1520.1000000238,,"
  <table>
  <tr height=300>
    <td width=300 height=300><img src=""static/images/cards/back_of_black_bolts.svg"" width=""175px"" height=""250px""></img></td>
    <td width=300 height=300><img src=""static/images/cards/back_of_black_bolts.svg"" width=""175px"" height=""250px""></img></td>
  </tr>
  <tr height=200>
    <td width=300><img src=""static/images/keys/z.svg"" width=""35%"" height=""75%""></img></td>
    <td width=300></td>
  </tr>
</table>
  ",90.0,1.0,,,,,,,,,,,,,,,,,,,,,,,,,,
101,0,,html-keyboard-response,101,361848,0.0-4.11-2.11,7h42ahf2mbx,2022-09-19 13:29:15.132,5ee683596f9b570626faa11c,3,100,77,14,5,41,Male,,,"
  <table>
  <tr height=300>
    <td width=300 height=300><img src=""static/images/cards/9_of_black_bolts.svg"" width=""175px"" height=""250px""></img></td>
    <td width=300 height=300><img src=""static/images/cards/back_of_black_bolts.svg"" width=""175px"" height=""250px""></img></td>
  </tr>
  <tr height=200>
    <td width=300><img src=""static/images/keys/z.svg"" width=""35%"" height=""75%""></img></td>
    <td width=300></td>
  </tr>
</table>
  ",,,,,,,,,,,,,,,,,,,,,,,,,,,,
102,0,,html-keyboard-response,102,363349,0.0-4.11-3.11,7h42ahf2mbx,2022-09-19 13:29:15.132,5ee683596f9b570626faa11c,3,100,77,14,5,41,Male,,,"<p style=""font-size:50px"">You win!
+10 points this round!</p>",,,,,,,,,,,,,,,,,,,,,,,,,,,,
103,0,,html-keyboard-response,103,363860,0.0-4.11-4.11,7h42ahf2mbx,2022-09-19 13:29:15.132,5ee683596f9b570626faa11c,3,100,77,14,5,41,Male,,,,,,1.0,learning,11.0,Xnc,,black,,bolts,,,,Xnc,black,bolts,,0.0,0.0,1,left,1520.1000000238,9.0,1.0,1.0,,,
104,0,,html-keyboard-response,104,365368,0.0-4.12-0.12,7h42ahf2mbx,2022-09-19 13:29:15.132,5ee683596f9b570626faa11c,3,100,77,14,5,41,Male,,,"<img src=""static/images/cards/stack_of_black_moons.svg"" width=""175px"" height=""250px""></img>",,,,,,,,,,,,,,,,,,,,,,,,,,,,
105,0,,html-keyboard-response,105,367551,0.0-4.12-1.12,7h42ahf2mbx,2022-09-19 13:29:15.132,5ee683596f9b570626faa11c,3,100,77,14,5,41,Male,1669.3000000119,,"
  <table>
  <tr height=300>
    <td width=300 height=300><img src=""static/images/cards/back_of_black_moons.svg"" width=""175px"" height=""250px""></img></td>
    <td width=300 height=300><img src=""static/images/cards/back_of_black_moons.svg"" width=""175px"" height=""250px""></img></td>
  </tr>
  <tr height=200>
    <td width=300><img src=""static/images/keys/z.svg"" width=""35%"" height=""75%""></img></td>
    <td width=300><img src=""static/images/keys/m.svg"" width=""35%"" height=""75%""></img></td>
  </tr>
</table>
  ",77.0,1.0,,,,,,,,,,,,,,,,,,,,,,,,,,
106,0,,html-keyboard-response,106,369066,0.0-4.12-2.12,7h42ahf2mbx,2022-09-19 13:29:15.132,5ee683596f9b570626faa11c,3,100,77,14,5,41,Male,,,"
  <table>
  <tr height=300>
    <td width=300 height=300><img src=""static/images/cards/back_of_black_moons.svg"" width=""175px"" height=""250px""></img></td>
    <td width=300 height=300><img src=""static/images/cards/1_of_black_moons.svg"" width=""175px"" height=""250px""></img></td>
  </tr>
  <tr height=200>
    <td width=300><img src=""static/images/keys/z.svg"" width=""35%"" height=""75%""></img></td>
    <td width=300><img src=""static/images/keys/m.svg"" width=""35%"" height=""75%""></img></td>
  </tr>
</table>
  ",,,,,,,,,,,,,,,,,,,,,,,,,,,,
107,0,,html-keyboard-response,107,370581,0.0-4.12-3.12,7h42ahf2mbx,2022-09-19 13:29:15.132,5ee683596f9b570626faa11c,3,100,77,14,5,41,Male,,,"<p style=""font-size:50px"">You Lose!
No points this round.</p>",,,,,,,,,,,,,,,,,,,,,,,,,,,,
108,0,,html-keyboard-response,108,371102,0.0-4.12-4.12,7h42ahf2mbx,2022-09-19 13:29:15.132,5ee683596f9b570626faa11c,3,100,77,14,5,41,Male,,,,,,1.0,learning,12.0,A,,black,,moons,,,,A,black,moons,,1.0,1.0,NA,right,1669.3000000119,1.0,0.0,0.0,,,
109,0,,html-keyboard-response,109,372603,0.0-4.13-0.13,7h42ahf2mbx,2022-09-19 13:29:15.132,5ee683596f9b570626faa11c,3,100,77,14,5,41,Male,,,"<img src=""static/images/cards/stack_of_red_moons.svg"" width=""175px"" height=""250px""></img>",,,,,,,,,,,,,,,,,,,,,,,,,,,,
110,0,,html-keyboard-response,110,375211,0.0-4.13-1.13,7h42ahf2mbx,2022-09-19 13:29:15.132,5ee683596f9b570626faa11c,3,100,77,14,5,41,Male,2098.9000000358,,"
  <table>
  <tr height=300>
    <td width=300 height=300><img src=""static/images/cards/back_of_red_moons.svg"" width=""175px"" height=""250px""></img></td>
    <td width=300 height=300><img src=""static/images/cards/back_of_red_moons.svg"" width=""175px"" height=""250px""></img></td>
  </tr>
  <tr height=200>
    <td width=300><img src=""static/images/keys/z.svg"" width=""35%"" height=""75%""></img></td>
    <td width=300></td>
  </tr>
</table>
  ",90.0,3.0,,,,,,,,,,,,,,,,,,,,,,,,,,
111,0,,html-keyboard-response,111,376717,0.0-4.13-2.13,7h42ahf2mbx,2022-09-19 13:29:15.132,5ee683596f9b570626faa11c,3,100,77,14,5,41,Male,,,"
  <table>
  <tr height=300>
    <td width=300 height=300><img src=""static/images/cards/4_of_red_moons.svg"" width=""175px"" height=""250px""></img></td>
    <td width=300 height=300><img src=""static/images/cards/back_of_red_moons.svg"" width=""175px"" height=""250px""></img></td>
  </tr>
  <tr height=200>
    <td width=300><img src=""static/images/keys/z.svg"" width=""35%"" height=""75%""></img></td>
    <td width=300></td>
  </tr>
</table>
  ",,,,,,,,,,,,,,,,,,,,,,,,,,,,
112,0,,html-keyboard-response,112,378235,0.0-4.13-3.13,7h42ahf2mbx,2022-09-19 13:29:15.132,5ee683596f9b570626faa11c,3,100,77,14,5,41,Male,,,"<p style=""font-size:50px"">You Lose!
No points this round.</p>",,,,,,,,,,,,,,,,,,,,,,,,,,,,
113,0,,html-keyboard-response,113,378742,0.0-4.13-4.13,7h42ahf2mbx,2022-09-19 13:29:15.132,5ee683596f9b570626faa11c,3,100,77,14,5,41,Male,,,,,,1.0,learning,13.0,B,,red,,moons,,,,B,red,moons,,0.0,1.0,1,left,2098.9000000358,4.0,0.0,0.0,,,
114,0,,html-keyboard-response,114,380249,0.0-4.14-0.14,7h42ahf2mbx,2022-09-19 13:29:15.132,5ee683596f9b570626faa11c,3,100,77,14,5,41,Male,,,"<img src=""static/images/cards/stack_of_black_stars.svg"" width=""175px"" height=""250px""></img>",,,,,,,,,,,,,,,,,,,,,,,,,,,,
115,0,,html-keyboard-response,115,381492,0.0-4.14-1.14,7h42ahf2mbx,2022-09-19 13:29:15.132,5ee683596f9b570626faa11c,3,100,77,14,5,41,Male,728.3000000119,,"
  <table>
  <tr height=300>
    <td width=300 height=300><img src=""static/images/cards/back_of_black_stars.svg"" width=""175px"" height=""250px""></img></td>
    <td width=300 height=300><img src=""static/images/cards/back_of_black_stars.svg"" width=""175px"" height=""250px""></img></td>
  </tr>
  <tr height=200>
    <td width=300><img src=""static/images/keys/z.svg"" width=""35%"" height=""75%""></img></td>
    <td width=300><img src=""static/images/keys/m.svg"" width=""35%"" height=""75%""></img></td>
  </tr>
</table>
  ",77.0,1.0,,,,,,,,,,,,,,,,,,,,,,,,,,
116,0,,html-keyboard-response,116,383008,0.0-4.14-2.14,7h42ahf2mbx,2022-09-19 13:29:15.132,5ee683596f9b570626faa11c,3,100,77,14,5,41,Male,,,"
  <table>
  <tr height=300>
    <td width=300 height=300><img src=""static/images/cards/back_of_black_stars.svg"" width=""175px"" height=""250px""></img></td>
    <td width=300 height=300><img src=""static/images/cards/3_of_black_stars.svg"" width=""175px"" height=""250px""></img></td>
  </tr>
  <tr height=200>
    <td width=300><img src=""static/images/keys/z.svg"" width=""35%"" height=""75%""></img></td>
    <td width=300><img src=""static/images/keys/m.svg"" width=""35%"" height=""75%""></img></td>
  </tr>
</table>
  ",,,,,,,,,,,,,,,,,,,,,,,,,,,,
117,0,,html-keyboard-response,117,384524,0.0-4.14-3.14,7h42ahf2mbx,2022-09-19 13:29:15.132,5ee683596f9b570626faa11c,3,100,77,14,5,41,Male,,,"<p style=""font-size:50px"">You win!
+10 points this round!</p>",,,,,,,,,,,,,,,,,,,,,,,,,,,,
118,0,,html-keyboard-response,118,385044,0.0-4.14-4.14,7h42ahf2mbx,2022-09-19 13:29:15.132,5ee683596f9b570626faa11c,3,100,77,14,5,41,Male,,,,,,1.0,learning,14.0,C,,black,,stars,,,,C,black,stars,,1.0,0.0,NA,right,728.3000000119,3.0,0.0,1.0,,,
119,0,,html-keyboard-response,119,386552,0.0-4.15-0.15,7h42ahf2mbx,2022-09-19 13:29:15.132,5ee683596f9b570626faa11c,3,100,77,14,5,41,Male,,,"<img src=""static/images/cards/stack_of_red_stars.svg"" width=""175px"" height=""250px""></img>",,,,,,,,,,,,,,,,,,,,,,,,,,,,
120,0,,html-keyboard-response,120,388333,0.0-4.15-1.15,7h42ahf2mbx,2022-09-19 13:29:15.132,5ee683596f9b570626faa11c,3,100,77,14,5,41,Male,1264.1999999881,,"
  <table>
  <tr height=300>
    <td width=300 height=300><img src=""static/images/cards/back_of_red_stars.svg"" width=""175px"" height=""250px""></img></td>
    <td width=300 height=300><img src=""static/images/cards/back_of_red_stars.svg"" width=""175px"" height=""250px""></img></td>
  </tr>
  <tr height=200>
    <td width=300><img src=""static/images/keys/z.svg"" width=""35%"" height=""75%""></img></td>
    <td width=300></td>
  </tr>
</table>
  ",90.0,2.0,,,,,,,,,,,,,,,,,,,,,,,,,,
121,0,,html-keyboard-response,121,389840,0.0-4.15-2.15,7h42ahf2mbx,2022-09-19 13:29:15.132,5ee683596f9b570626faa11c,3,100,77,14,5,41,Male,,,"
  <table>
  <tr height=300>
    <td width=300 height=300><img src=""static/images/cards/9_of_red_stars.svg"" width=""175px"" height=""250px""></img></td>
    <td width=300 height=300><img src=""static/images/cards/back_of_red_stars.svg"" width=""175px"" height=""250px""></img></td>
  </tr>
  <tr height=200>
    <td width=300><img src=""static/images/keys/z.svg"" width=""35%"" height=""75%""></img></td>
    <td width=300></td>
  </tr>
</table>
  ",,,,,,,,,,,,,,,,,,,,,,,,,,,,
122,0,,html-keyboard-response,122,391355,0.0-4.15-3.15,7h42ahf2mbx,2022-09-19 13:29:15.132,5ee683596f9b570626faa11c,3,100,77,14,5,41,Male,,,"<p style=""font-size:50px"">You Lose!
No points this round.</p>",,,,,,,,,,,,,,,,,,,,,,,,,,,,
123,0,,html-keyboard-response,123,391861,0.0-4.15-4.15,7h42ahf2mbx,2022-09-19 13:29:15.132,5ee683596f9b570626faa11c,3,100,77,14,5,41,Male,,,,,,1.0,learning,15.0,D,,red,,stars,,,,D,red,stars,,0.0,0.0,1,left,1264.1999999881,9.0,1.0,0.0,,,
124,0,,html-keyboard-response,124,393369,0.0-4.16-0.16,7h42ahf2mbx,2022-09-19 13:29:15.132,5ee683596f9b570626faa11c,3,100,77,14,5,41,Male,,,"<img src=""static/images/cards/stack_of_red_bolts.svg"" width=""175px"" height=""250px""></img>",,,,,,,,,,,,,,,,,,,,,,,,,,,,
125,0,,html-keyboard-response,125,394617,0.0-4.16-1.16,7h42ahf2mbx,2022-09-19 13:29:15.132,5ee683596f9b570626faa11c,3,100,77,14,5,41,Male,733.1999999881,,"
  <table>
  <tr height=300>
    <td width=300 height=300><img src=""static/images/cards/back_of_red_bolts.svg"" width=""175px"" height=""250px""></img></td>
    <td width=300 height=300><img src=""static/images/cards/back_of_red_bolts.svg"" width=""175px"" height=""250px""></img></td>
  </tr>
  <tr height=200>
    <td width=300><img src=""static/images/keys/z.svg"" width=""35%"" height=""75%""></img></td>
    <td width=300><img src=""static/images/keys/m.svg"" width=""35%"" height=""75%""></img></td>
  </tr>
</table>
  ",90.0,1.0,,,,,,,,,,,,,,,,,,,,,,,,,,
126,0,,html-keyboard-response,126,396127,0.0-4.16-2.16,7h42ahf2mbx,2022-09-19 13:29:15.132,5ee683596f9b570626faa11c,3,100,77,14,5,41,Male,,,"
  <table>
  <tr height=300>
    <td width=300 height=300><img src=""static/images/cards/1_of_red_bolts.svg"" width=""175px"" height=""250px""></img></td>
    <td width=300 height=300><img src=""static/images/cards/back_of_red_bolts.svg"" width=""175px"" height=""250px""></img></td>
  </tr>
  <tr height=200>
    <td width=300><img src=""static/images/keys/z.svg"" width=""35%"" height=""75%""></img></td>
    <td width=300><img src=""static/images/keys/m.svg"" width=""35%"" height=""75%""></img></td>
  </tr>
</table>
  ",,,,,,,,,,,,,,,,,,,,,,,,,,,,
127,0,,html-keyboard-response,127,397653,0.0-4.16-3.16,7h42ahf2mbx,2022-09-19 13:29:15.132,5ee683596f9b570626faa11c,3,100,77,14,5,41,Male,,,"<p style=""font-size:50px"">You win!
+10 points this round!</p>",,,,,,,,,,,,,,,,,,,,,,,,,,,,
128,0,,html-keyboard-response,128,398158,0.0-4.16-4.16,7h42ahf2mbx,2022-09-19 13:29:15.132,5ee683596f9b570626faa11c,3,100,77,14,5,41,Male,,,,,,1.0,learning,16.0,Xc,,red,,bolts,,,,Xc,red,bolts,,1.0,0.0,NA,left,733.1999999881,1.0,0.0,1.0,,,
129,0,,html-keyboard-response,129,399669,0.0-4.17-0.17,7h42ahf2mbx,2022-09-19 13:29:15.132,5ee683596f9b570626faa11c,3,100,77,14,5,41,Male,,,"<img src=""static/images/cards/stack_of_black_bolts.svg"" width=""175px"" height=""250px""></img>",,,,,,,,,,,,,,,,,,,,,,,,,,,,
130,0,,html-keyboard-response,130,400969,0.0-4.17-1.17,7h42ahf2mbx,2022-09-19 13:29:15.132,5ee683596f9b570626faa11c,3,100,77,14,5,41,Male,798.0999999642,,"
  <table>
  <tr height=300>
    <td width=300 height=300><img src=""static/images/cards/back_of_black_bolts.svg"" width=""175px"" height=""250px""></img></td>
    <td width=300 height=300><img src=""static/images/cards/back_of_black_bolts.svg"" width=""175px"" height=""250px""></img></td>
  </tr>
  <tr height=200>
    <td width=300></td>
    <td width=300><img src=""static/images/keys/m.svg"" width=""35%"" height=""75%""></img></td>
  </tr>
</table>
  ",77.0,1.0,,,,,,,,,,,,,,,,,,,,,,,,,,
131,0,,html-keyboard-response,131,402480,0.0-4.17-2.17,7h42ahf2mbx,2022-09-19 13:29:15.132,5ee683596f9b570626faa11c,3,100,77,14,5,41,Male,,,"
  <table>
  <tr height=300>
    <td width=300 height=300><img src=""static/images/cards/back_of_black_bolts.svg"" width=""175px"" height=""250px""></img></td>
    <td width=300 height=300><img src=""static/images/cards/8_of_black_bolts.svg"" width=""175px"" height=""250px""></img></td>
  </tr>
  <tr height=200>
    <td width=300></td>
    <td width=300><img src=""static/images/keys/m.svg"" width=""35%"" height=""75%""></img></td>
  </tr>
</table>
  ",,,,,,,,,,,,,,,,,,,,,,,,,,,,
132,0,,html-keyboard-response,132,404006,0.0-4.17-3.17,7h42ahf2mbx,2022-09-19 13:29:15.132,5ee683596f9b570626faa11c,3,100,77,14,5,41,Male,,,"<p style=""font-size:50px"">You win!
+10 points this round!</p>",,,,,,,,,,,,,,,,,,,,,,,,,,,,
133,0,,html-keyboard-response,133,404513,0.0-4.17-4.17,7h42ahf2mbx,2022-09-19 13:29:15.132,5ee683596f9b570626faa11c,3,100,77,14,5,41,Male,,,,,,1.0,learning,17.0,Xnc,,black,,bolts,,,,Xnc,black,bolts,,0.0,0.0,0,right,798.0999999642,8.0,1.0,1.0,,,
134,0,,html-keyboard-response,134,406016,0.0-4.18-0.18,7h42ahf2mbx,2022-09-19 13:29:15.132,5ee683596f9b570626faa11c,3,100,77,14,5,41,Male,,,"<img src=""static/images/cards/stack_of_black_moons.svg"" width=""175px"" height=""250px""></img>",,,,,,,,,,,,,,,,,,,,,,,,,,,,
135,0,,html-keyboard-response,135,407484,0.0-4.18-1.18,7h42ahf2mbx,2022-09-19 13:29:15.132,5ee683596f9b570626faa11c,3,100,77,14,5,41,Male,966.2999999523,,"
  <table>
  <tr height=300>
    <td width=300 height=300><img src=""static/images/cards/back_of_black_moons.svg"" width=""175px"" height=""250px""></img></td>
    <td width=300 height=300><img src=""static/images/cards/back_of_black_moons.svg"" width=""175px"" height=""250px""></img></td>
  </tr>
  <tr height=200>
    <td width=300><img src=""static/images/keys/z.svg"" width=""35%"" height=""75%""></img></td>
    <td width=300><img src=""static/images/keys/m.svg"" width=""35%"" height=""75%""></img></td>
  </tr>
</table>
  ",77.0,1.0,,,,,,,,,,,,,,,,,,,,,,,,,,
136,0,,html-keyboard-response,136,408992,0.0-4.18-2.18,7h42ahf2mbx,2022-09-19 13:29:15.132,5ee683596f9b570626faa11c,3,100,77,14,5,41,Male,,,"
  <table>
  <tr height=300>
    <td width=300 height=300><img src=""static/images/cards/back_of_black_moons.svg"" width=""175px"" height=""250px""></img></td>
    <td width=300 height=300><img src=""static/images/cards/6_of_black_moons.svg"" width=""175px"" height=""250px""></img></td>
  </tr>
  <tr height=200>
    <td width=300><img src=""static/images/keys/z.svg"" width=""35%"" height=""75%""></img></td>
    <td width=300><img src=""static/images/keys/m.svg"" width=""35%"" height=""75%""></img></td>
  </tr>
</table>
  ",,,,,,,,,,,,,,,,,,,,,,,,,,,,
137,0,,html-keyboard-response,137,410518,0.0-4.18-3.18,7h42ahf2mbx,2022-09-19 13:29:15.132,5ee683596f9b570626faa11c,3,100,77,14,5,41,Male,,,"<p style=""font-size:50px"">You win!
+10 points this round!</p>",,,,,,,,,,,,,,,,,,,,,,,,,,,,
138,0,,html-keyboard-response,138,411039,0.0-4.18-4.18,7h42ahf2mbx,2022-09-19 13:29:15.132,5ee683596f9b570626faa11c,3,100,77,14,5,41,Male,,,,,,1.0,learning,18.0,A,,black,,moons,,,,A,black,moons,,1.0,1.0,NA,right,966.2999999523,6.0,1.0,1.0,,,
139,0,,html-keyboard-response,139,412539,0.0-4.19-0.19,7h42ahf2mbx,2022-09-19 13:29:15.132,5ee683596f9b570626faa11c,3,100,77,14,5,41,Male,,,"<img src=""static/images/cards/stack_of_red_moons.svg"" width=""175px"" height=""250px""></img>",,,,,,,,,,,,,,,,,,,,,,,,,,,,
140,0,,html-keyboard-response,140,413570,0.0-4.19-1.19,7h42ahf2mbx,2022-09-19 13:29:15.132,5ee683596f9b570626faa11c,3,100,77,14,5,41,Male,529.5,,"
  <table>
  <tr height=300>
    <td width=300 height=300><img src=""static/images/cards/back_of_red_moons.svg"" width=""175px"" height=""250px""></img></td>
    <td width=300 height=300><img src=""static/images/cards/back_of_red_moons.svg"" width=""175px"" height=""250px""></img></td>
  </tr>
  <tr height=200>
    <td width=300></td>
    <td width=300><img src=""static/images/keys/m.svg"" width=""35%"" height=""75%""></img></td>
  </tr>
</table>
  ",77.0,1.0,,,,,,,,,,,,,,,,,,,,,,,,,,
141,0,,html-keyboard-response,141,415077,0.0-4.19-2.19,7h42ahf2mbx,2022-09-19 13:29:15.132,5ee683596f9b570626faa11c,3,100,77,14,5,41,Male,,,"
  <table>
  <tr height=300>
    <td width=300 height=300><img src=""static/images/cards/back_of_red_moons.svg"" width=""175px"" height=""250px""></img></td>
    <td width=300 height=300><img src=""static/images/cards/3_of_red_moons.svg"" width=""175px"" height=""250px""></img></td>
  </tr>
  <tr height=200>
    <td width=300></td>
    <td width=300><img src=""static/images/keys/m.svg"" width=""35%"" height=""75%""></img></td>
  </tr>
</table>
  ",,,,,,,,,,,,,,,,,,,,,,,,,,,,
142,0,,html-keyboard-response,142,416601,0.0-4.19-3.19,7h42ahf2mbx,2022-09-19 13:29:15.132,5ee683596f9b570626faa11c,3,100,77,14,5,41,Male,,,"<p style=""font-size:50px"">You Lose!
No points this round.</p>",,,,,,,,,,,,,,,,,,,,,,,,,,,,
143,0,,html-keyboard-response,143,417107,0.0-4.19-4.19,7h42ahf2mbx,2022-09-19 13:29:15.132,5ee683596f9b570626faa11c,3,100,77,14,5,41,Male,,,,,,1.0,learning,19.0,B,,red,,moons,,,,B,red,moons,,0.0,1.0,0,right,529.5,3.0,0.0,0.0,,,
144,0,,html-keyboard-response,144,418608,0.0-4.20-0.20,7h42ahf2mbx,2022-09-19 13:29:15.132,5ee683596f9b570626faa11c,3,100,77,14,5,41,Male,,,"<img src=""static/images/cards/stack_of_black_stars.svg"" width=""175px"" height=""250px""></img>",,,,,,,,,,,,,,,,,,,,,,,,,,,,
145,0,,html-keyboard-response,145,419567,0.0-4.20-1.20,7h42ahf2mbx,2022-09-19 13:29:15.132,5ee683596f9b570626faa11c,3,100,77,14,5,41,Male,449.8000000119,,"
  <table>
  <tr height=300>
    <td width=300 height=300><img src=""static/images/cards/back_of_black_stars.svg"" width=""175px"" height=""250px""></img></td>
    <td width=300 height=300><img src=""static/images/cards/back_of_black_stars.svg"" width=""175px"" height=""250px""></img></td>
  </tr>
  <tr height=200>
    <td width=300><img src=""static/images/keys/z.svg"" width=""35%"" height=""75%""></img></td>
    <td width=300><img src=""static/images/keys/m.svg"" width=""35%"" height=""75%""></img></td>
  </tr>
</table>
  ",90.0,1.0,,,,,,,,,,,,,,,,,,,,,,,,,,
146,0,,html-keyboard-response,146,421076,0.0-4.20-2.20,7h42ahf2mbx,2022-09-19 13:29:15.132,5ee683596f9b570626faa11c,3,100,77,14,5,41,Male,,,"
  <table>
  <tr height=300>
    <td width=300 height=300><img src=""static/images/cards/7_of_black_stars.svg"" width=""175px"" height=""250px""></img></td>
    <td width=300 height=300><img src=""static/images/cards/back_of_black_stars.svg"" width=""175px"" height=""250px""></img></td>
  </tr>
  <tr height=200>
    <td width=300><img src=""static/images/keys/z.svg"" width=""35%"" height=""75%""></img></td>
    <td width=300><img src=""static/images/keys/m.svg"" width=""35%"" height=""75%""></img></td>
  </tr>
</table>
  ",,,,,,,,,,,,,,,,,,,,,,,,,,,,
147,0,,html-keyboard-response,147,422605,0.0-4.20-3.20,7h42ahf2mbx,2022-09-19 13:29:15.132,5ee683596f9b570626faa11c,3,100,77,14,5,41,Male,,,"<p style=""font-size:50px"">You win!
+10 points this round!</p>",,,,,,,,,,,,,,,,,,,,,,,,,,,,
148,0,,html-keyboard-response,148,423123,0.0-4.20-4.20,7h42ahf2mbx,2022-09-19 13:29:15.132,5ee683596f9b570626faa11c,3,100,77,14,5,41,Male,,,,,,1.0,learning,20.0,C,,black,,stars,,,,C,black,stars,,1.0,0.0,NA,left,449.8000000119,7.0,1.0,1.0,,,
149,0,,html-keyboard-response,149,424630,0.0-4.21-0.21,7h42ahf2mbx,2022-09-19 13:29:15.132,5ee683596f9b570626faa11c,3,100,77,14,5,41,Male,,,"<img src=""static/images/cards/stack_of_red_stars.svg"" width=""175px"" height=""250px""></img>",,,,,,,,,,,,,,,,,,,,,,,,,,,,
150,0,,html-keyboard-response,150,425795,0.0-4.21-1.21,7h42ahf2mbx,2022-09-19 13:29:15.132,5ee683596f9b570626faa11c,3,100,77,14,5,41,Male,653.1000000238,,"
  <table>
  <tr height=300>
    <td width=300 height=300><img src=""static/images/cards/back_of_red_stars.svg"" width=""175px"" height=""250px""></img></td>
    <td width=300 height=300><img src=""static/images/cards/back_of_red_stars.svg"" width=""175px"" height=""250px""></img></td>
  </tr>
  <tr height=200>
    <td width=300><img src=""static/images/keys/z.svg"" width=""35%"" height=""75%""></img></td>
    <td width=300></td>
  </tr>
</table>
  ",90.0,1.0,,,,,,,,,,,,,,,,,,,,,,,,,,
151,0,,html-keyboard-response,151,427303,0.0-4.21-2.21,7h42ahf2mbx,2022-09-19 13:29:15.132,5ee683596f9b570626faa11c,3,100,77,14,5,41,Male,,,"
  <table>
  <tr height=300>
    <td width=300 height=300><img src=""static/images/cards/1_of_red_stars.svg"" width=""175px"" height=""250px""></img></td>
    <td width=300 height=300><img src=""static/images/cards/back_of_red_stars.svg"" width=""175px"" height=""250px""></img></td>
  </tr>
  <tr height=200>
    <td width=300><img src=""static/images/keys/z.svg"" width=""35%"" height=""75%""></img></td>
    <td width=300></td>
  </tr>
</table>
  ",,,,,,,,,,,,,,,,,,,,,,,,,,,,
152,0,,html-keyboard-response,152,428828,0.0-4.21-3.21,7h42ahf2mbx,2022-09-19 13:29:15.132,5ee683596f9b570626faa11c,3,100,77,14,5,41,Male,,,"<p style=""font-size:50px"">You Lose!
No points this round.</p>",,,,,,,,,,,,,,,,,,,,,,,,,,,,
153,0,,html-keyboard-response,153,429349,0.0-4.21-4.21,7h42ahf2mbx,2022-09-19 13:29:15.132,5ee683596f9b570626faa11c,3,100,77,14,5,41,Male,,,,,,1.0,learning,21.0,D,,red,,stars,,,,D,red,stars,,0.0,0.0,1,left,653.1000000238,1.0,0.0,0.0,,,
154,0,,html-keyboard-response,154,430849,0.0-4.22-0.22,7h42ahf2mbx,2022-09-19 13:29:15.132,5ee683596f9b570626faa11c,3,100,77,14,5,41,Male,,,"<img src=""static/images/cards/stack_of_red_bolts.svg"" width=""175px"" height=""250px""></img>",,,,,,,,,,,,,,,,,,,,,,,,,,,,
155,0,,html-keyboard-response,155,432501,0.0-4.22-1.22,7h42ahf2mbx,2022-09-19 13:29:15.132,5ee683596f9b570626faa11c,3,100,77,14,5,41,Male,1150.1999999881,,"
  <table>
  <tr height=300>
    <td width=300 height=300><img src=""static/images/cards/back_of_red_bolts.svg"" width=""175px"" height=""250px""></img></td>
    <td width=300 height=300><img src=""static/images/cards/back_of_red_bolts.svg"" width=""175px"" height=""250px""></img></td>
  </tr>
  <tr height=200>
    <td width=300><img src=""static/images/keys/z.svg"" width=""35%"" height=""75%""></img></td>
    <td width=300><img src=""static/images/keys/m.svg"" width=""35%"" height=""75%""></img></td>
  </tr>
</table>
  ",77.0,1.0,,,,,,,,,,,,,,,,,,,,,,,,,,
156,0,,html-keyboard-response,156,434003,0.0-4.22-2.22,7h42ahf2mbx,2022-09-19 13:29:15.132,5ee683596f9b570626faa11c,3,100,77,14,5,41,Male,,,"
  <table>
  <tr height=300>
    <td width=300 height=300><img src=""static/images/cards/back_of_red_bolts.svg"" width=""175px"" height=""250px""></img></td>
    <td width=300 height=300><img src=""static/images/cards/6_of_red_bolts.svg"" width=""175px"" height=""250px""></img></td>
  </tr>
  <tr height=200>
    <td width=300><img src=""static/images/keys/z.svg"" width=""35%"" height=""75%""></img></td>
    <td width=300><img src=""static/images/keys/m.svg"" width=""35%"" height=""75%""></img></td>
  </tr>
</table>
  ",,,,,,,,,,,,,,,,,,,,,,,,,,,,
157,0,,html-keyboard-response,157,435531,0.0-4.22-3.22,7h42ahf2mbx,2022-09-19 13:29:15.132,5ee683596f9b570626faa11c,3,100,77,14,5,41,Male,,,"<p style=""font-size:50px"">You win!
+10 points this round!</p>",,,,,,,,,,,,,,,,,,,,,,,,,,,,
158,0,,html-keyboard-response,158,436050,0.0-4.22-4.22,7h42ahf2mbx,2022-09-19 13:29:15.132,5ee683596f9b570626faa11c,3,100,77,14,5,41,Male,,,,,,1.0,learning,22.0,Xc,,red,,bolts,,,,Xc,red,bolts,,1.0,0.0,NA,right,1150.1999999881,6.0,1.0,1.0,,,
159,0,,html-keyboard-response,159,437551,0.0-4.23-0.23,7h42ahf2mbx,2022-09-19 13:29:15.132,5ee683596f9b570626faa11c,3,100,77,14,5,41,Male,,,"<img src=""static/images/cards/stack_of_black_bolts.svg"" width=""175px"" height=""250px""></img>",,,,,,,,,,,,,,,,,,,,,,,,,,,,
160,0,,html-keyboard-response,160,438846,0.0-4.23-1.23,7h42ahf2mbx,2022-09-19 13:29:15.132,5ee683596f9b570626faa11c,3,100,77,14,5,41,Male,793.5999999642,,"
  <table>
  <tr height=300>
    <td width=300 height=300><img src=""static/images/cards/back_of_black_bolts.svg"" width=""175px"" height=""250px""></img></td>
    <td width=300 height=300><img src=""static/images/cards/back_of_black_bolts.svg"" width=""175px"" height=""250px""></img></td>
  </tr>
  <tr height=200>
    <td width=300></td>
    <td width=300><img src=""static/images/keys/m.svg"" width=""35%"" height=""75%""></img></td>
  </tr>
</table>
  ",77.0,1.0,,,,,,,,,,,,,,,,,,,,,,,,,,
161,0,,html-keyboard-response,161,440347,0.0-4.23-2.23,7h42ahf2mbx,2022-09-19 13:29:15.132,5ee683596f9b570626faa11c,3,100,77,14,5,41,Male,,,"
  <table>
  <tr height=300>
    <td width=300 height=300><img src=""static/images/cards/back_of_black_bolts.svg"" width=""175px"" height=""250px""></img></td>
    <td width=300 height=300><img src=""static/images/cards/4_of_black_bolts.svg"" width=""175px"" height=""250px""></img></td>
  </tr>
  <tr height=200>
    <td width=300></td>
    <td width=300><img src=""static/images/keys/m.svg"" width=""35%"" height=""75%""></img></td>
  </tr>
</table>
  ",,,,,,,,,,,,,,,,,,,,,,,,,,,,
162,0,,html-keyboard-response,162,441872,0.0-4.23-3.23,7h42ahf2mbx,2022-09-19 13:29:15.132,5ee683596f9b570626faa11c,3,100,77,14,5,41,Male,,,"<p style=""font-size:50px"">You win!
+10 points this round!</p>",,,,,,,,,,,,,,,,,,,,,,,,,,,,
163,0,,html-keyboard-response,163,442378,0.0-4.23-4.23,7h42ahf2mbx,2022-09-19 13:29:15.132,5ee683596f9b570626faa11c,3,100,77,14,5,41,Male,,,,,,1.0,learning,23.0,Xnc,,black,,bolts,,,,Xnc,black,bolts,,0.0,0.0,0,right,793.5999999642,4.0,0.0,1.0,,,
164,0,,call-function,164,442385,0.0-5.0,7h42ahf2mbx,2022-09-19 13:29:15.132,5ee683596f9b570626faa11c,3,100,77,14,5,41,Male,,,,,,,,,,,,,,,,,,,,,,,,,,,,,,,
165,0,,image-keyboard-response,165,450110,0.0-6.0-0.0,7h42ahf2mbx,2022-09-19 13:29:15.132,5ee683596f9b570626faa11c,3,100,77,14,5,41,Male,7724.6000000238,,static/images/instructions_CB_3/Slide20.png,39.0,,,,,,,,,,,,,,,,,,,,,,,,,,,
166,0,,image-keyboard-response,166,459002,0.0-6.1-0.1,7h42ahf2mbx,2022-09-19 13:29:15.132,5ee683596f9b570626faa11c,3,100,77,14,5,41,Male,8890.3999999762,,static/images/instructions_CB_3/Slide21.png,39.0,,,,,,,,,,,,,,,,,,,,,,,,,,,
167,0,,image-keyboard-response,167,475009,0.0-6.2-0.2,7h42ahf2mbx,2022-09-19 13:29:15.132,5ee683596f9b570626faa11c,3,100,77,14,5,41,Male,16006.2999999523,,static/images/instructions_CB_3/Slide22.png,39.0,,,,,,,,,,,,,,,,,,,,,,,,,,,
168,0,,image-keyboard-response,168,480845,0.0-6.3-0.3,7h42ahf2mbx,2022-09-19 13:29:15.132,5ee683596f9b570626faa11c,3,100,77,14,5,41,Male,5834.8999999762,,static/images/instructions_CB_3/Slide23.png,39.0,,,,,,,,,,,,,,,,,,,,,,,,,,,
169,0,,image-keyboard-response,169,481902,0.0-6.4-0.4,7h42ahf2mbx,2022-09-19 13:29:15.132,5ee683596f9b570626faa11c,3,100,77,14,5,41,Male,1056.3999999762,,static/images/instructions_CB_3/Slide24.png,39.0,,,,,,,,,,,,,,,,,,,,,,,,,,,
170,0,,html-keyboard-response,170,483958,0.0-7.0-0.0,7h42ahf2mbx,2022-09-19 13:29:15.132,5ee683596f9b570626faa11c,3,100,77,14,5,41,Male,2054.3999999762,,"
  <table>
  <tr height=300>
    <td width=300 height=300><img src=""static/images/cards/stack_of_red_moons.svg"" width=""175px"" height=""250px""></img></td>
    <td width=300 height=300><img src=""static/images/cards/stack_of_black_stars.svg"" width=""175px"" height=""250px""></img></td>
  </tr>
  <tr height=200>
    <td width=300><img src=""static/images/keys/w.svg"" width=""35%"" height=""75%""></img></td>
    <td width=300><img src=""static/images/keys/o.svg"" width=""35%"" height=""75%""></img></td>
  </tr>
</table>
  ",79.0,1.0,,,,,,,,,,,,,,,,,,,,,,,,,,
171,0,,html-keyboard-response,171,486306,0.0-7.0-1.0,7h42ahf2mbx,2022-09-19 13:29:15.132,5ee683596f9b570626faa11c,3,100,77,14,5,41,Male,1843.0,,"
  <table>
  <tr height=300>
    <td width=300 height=300><img src=""static/images/cards/back_of_black_stars.svg"" width=""175px"" height=""250px""></img></td>
    <td width=300 height=300><img src=""static/images/cards/back_of_black_stars.svg"" width=""175px"" height=""250px""></img></td>
  </tr>
  <tr height=200>
    <td width=300><img src=""static/images/keys/z.svg"" width=""35%"" height=""75%""></img></td>
    <td width=300><img src=""static/images/keys/m.svg"" width=""35%"" height=""75%""></img></td>
  </tr>
</table>
  ",77.0,1.0,,,,,,,,,,,,,,,,,,,,,,,,,,
172,0,,html-keyboard-response,172,487808,0.0-7.0-2.0,7h42ahf2mbx,2022-09-19 13:29:15.132,5ee683596f9b570626faa11c,3,100,77,14,5,41,Male,,,"
  <table>
  <tr height=300>
    <td width=300 height=300><img src=""static/images/cards/back_of_black_stars.svg"" width=""175px"" height=""250px""></img></td>
    <td width=300 height=300><img src=""static/images/cards/7_of_black_stars.svg"" width=""175px"" height=""250px""></img></td>
  </tr>
  <tr height=200>
    <td width=300><img src=""static/images/keys/z.svg"" width=""35%"" height=""75%""></img></td>
    <td width=300><img src=""static/images/keys/m.svg"" width=""35%"" height=""75%""></img></td>
  </tr>
</table>
  ",,,,,,,,,,,,,,,,,,,,,,,,,,,,
173,0,,html-keyboard-response,173,489326,0.0-7.0-3.0,7h42ahf2mbx,2022-09-19 13:29:15.132,5ee683596f9b570626faa11c,3,100,77,14,5,41,Male,,,"<p style=""font-size:50px"">You Lose!
No points this round.</p>",,,,,,,,,,,,,,,,,,,,,,,,,,,,
174,0,,html-keyboard-response,174,489833,0.0-7.0-4.0,7h42ahf2mbx,2022-09-19 13:29:15.132,5ee683596f9b570626faa11c,3,100,77,14,5,41,Male,,,,,,1.0,choice,0.0,B,C,red,black,moons,stars,B,C,C,black,stars,2054.3999999762,1.0,0.0,NA,right,1843.0,7.0,1.0,0.0,,,
175,0,,html-keyboard-response,175,490382,0.0-7.1-0.1,7h42ahf2mbx,2022-09-19 13:29:15.132,5ee683596f9b570626faa11c,3,100,77,14,5,41,Male,548.6000000238,,"
  <table>
  <tr height=300>
    <td width=300 height=300><img src=""static/images/cards/stack_of_red_stars.svg"" width=""175px"" height=""250px""></img></td>
    <td width=300 height=300><img src=""static/images/cards/stack_of_black_moons.svg"" width=""175px"" height=""250px""></img></td>
  </tr>
  <tr height=200>
    <td width=300><img src=""static/images/keys/w.svg"" width=""35%"" height=""75%""></img></td>
    <td width=300><img src=""static/images/keys/o.svg"" width=""35%"" height=""75%""></img></td>
  </tr>
</table>
  ",87.0,1.0,,,,,,,,,,,,,,,,,,,,,,,,,,
176,0,,html-keyboard-response,176,491937,0.0-7.1-1.1,7h42ahf2mbx,2022-09-19 13:29:15.132,5ee683596f9b570626faa11c,3,100,77,14,5,41,Male,1047.8000000119,,"
  <table>
  <tr height=300>
    <td width=300 height=300><img src=""static/images/cards/back_of_red_stars.svg"" width=""175px"" height=""250px""></img></td>
    <td width=300 height=300><img src=""static/images/cards/back_of_red_stars.svg"" width=""175px"" height=""250px""></img></td>
  </tr>
  <tr height=200>
    <td width=300></td>
    <td width=300><img src=""static/images/keys/m.svg"" width=""35%"" height=""75%""></img></td>
  </tr>
</table>
  ",77.0,1.0,,,,,,,,,,,,,,,,,,,,,,,,,,
177,0,,html-keyboard-response,177,493445,0.0-7.1-2.1,7h42ahf2mbx,2022-09-19 13:29:15.132,5ee683596f9b570626faa11c,3,100,77,14,5,41,Male,,,"
  <table>
  <tr height=300>
    <td width=300 height=300><img src=""static/images/cards/back_of_red_stars.svg"" width=""175px"" height=""250px""></img></td>
    <td width=300 height=300><img src=""static/images/cards/2_of_red_stars.svg"" width=""175px"" height=""250px""></img></td>
  </tr>
  <tr height=200>
    <td width=300></td>
    <td width=300><img src=""static/images/keys/m.svg"" width=""35%"" height=""75%""></img></td>
  </tr>
</table>
  ",,,,,,,,,,,,,,,,,,,,,,,,,,,,
178,0,,html-keyboard-response,178,494949,0.0-7.1-3.1,7h42ahf2mbx,2022-09-19 13:29:15.132,5ee683596f9b570626faa11c,3,100,77,14,5,41,Male,,,"<p style=""font-size:50px"">You win!
+10 points this round!</p>",,,,,,,,,,,,,,,,,,,,,,,,,,,,
179,0,,html-keyboard-response,179,495469,0.0-7.1-4.1,7h42ahf2mbx,2022-09-19 13:29:15.132,5ee683596f9b570626faa11c,3,100,77,14,5,41,Male,,,,,,1.0,choice,1.0,A,D,red,black,stars,moons,D,A,D,red,stars,548.6000000238,0.0,0.0,0,right,1047.8000000119,2.0,0.0,1.0,,,
180,0,,html-keyboard-response,180,496452,0.0-7.2-0.2,7h42ahf2mbx,2022-09-19 13:29:15.132,5ee683596f9b570626faa11c,3,100,77,14,5,41,Male,980.5999999642,,"
  <table>
  <tr height=300>
    <td width=300 height=300><img src=""static/images/cards/stack_of_black_moons.svg"" width=""175px"" height=""250px""></img></td>
    <td width=300 height=300><img src=""static/images/cards/stack_of_red_stars.svg"" width=""175px"" height=""250px""></img></td>
  </tr>
  <tr height=200>
    <td width=300><img src=""static/images/keys/w.svg"" width=""35%"" height=""75%""></img></td>
    <td width=300><img src=""static/images/keys/o.svg"" width=""35%"" height=""75%""></img></td>
  </tr>
</table>
  ",79.0,1.0,,,,,,,,,,,,,,,,,,,,,,,,,,
181,0,,html-keyboard-response,181,497708,0.0-7.2-1.2,7h42ahf2mbx,2022-09-19 13:29:15.132,5ee683596f9b570626faa11c,3,100,77,14,5,41,Male,748.1000000238,,"
  <table>
  <tr height=300>
    <td width=300 height=300><img src=""static/images/cards/back_of_red_stars.svg"" width=""175px"" height=""250px""></img></td>
    <td width=300 height=300><img src=""static/images/cards/back_of_red_stars.svg"" width=""175px"" height=""250px""></img></td>
  </tr>
  <tr height=200>
    <td width=300></td>
    <td width=300><img src=""static/images/keys/m.svg"" width=""35%"" height=""75%""></img></td>
  </tr>
</table>
  ",77.0,1.0,,,,,,,,,,,,,,,,,,,,,,,,,,
182,0,,html-keyboard-response,182,499212,0.0-7.2-2.2,7h42ahf2mbx,2022-09-19 13:29:15.132,5ee683596f9b570626faa11c,3,100,77,14,5,41,Male,,,"
  <table>
  <tr height=300>
    <td width=300 height=300><img src=""static/images/cards/back_of_red_stars.svg"" width=""175px"" height=""250px""></img></td>
    <td width=300 height=300><img src=""static/images/cards/10_of_red_stars.svg"" width=""175px"" height=""250px""></img></td>
  </tr>
  <tr height=200>
    <td width=300></td>
    <td width=300><img src=""static/images/keys/m.svg"" width=""35%"" height=""75%""></img></td>
  </tr>
</table>
  ",,,,,,,,,,,,,,,,,,,,,,,,,,,,
183,0,,html-keyboard-response,183,500713,0.0-7.2-3.2,7h42ahf2mbx,2022-09-19 13:29:15.132,5ee683596f9b570626faa11c,3,100,77,14,5,41,Male,,,"<p style=""font-size:50px"">You win!
+10 points this round!</p>",,,,,,,,,,,,,,,,,,,,,,,,,,,,
184,0,,html-keyboard-response,184,501228,0.0-7.2-4.2,7h42ahf2mbx,2022-09-19 13:29:15.132,5ee683596f9b570626faa11c,3,100,77,14,5,41,Male,,,,,,1.0,choice,2.0,A,D,black,red,moons,stars,A,D,D,red,stars,980.5999999642,0.0,0.0,0,right,748.1000000238,10.0,1.0,1.0,,,
185,0,,html-keyboard-response,185,502209,0.0-7.3-0.3,7h42ahf2mbx,2022-09-19 13:29:15.132,5ee683596f9b570626faa11c,3,100,77,14,5,41,Male,980.5,,"
  <table>
  <tr height=300>
    <td width=300 height=300><img src=""static/images/cards/stack_of_red_moons.svg"" width=""175px"" height=""250px""></img></td>
    <td width=300 height=300><img src=""static/images/cards/stack_of_black_stars.svg"" width=""175px"" height=""250px""></img></td>
  </tr>
  <tr height=200>
    <td width=300><img src=""static/images/keys/w.svg"" width=""35%"" height=""75%""></img></td>
    <td width=300><img src=""static/images/keys/o.svg"" width=""35%"" height=""75%""></img></td>
  </tr>
</table>
  ",87.0,1.0,,,,,,,,,,,,,,,,,,,,,,,,,,
186,0,,html-keyboard-response,186,503541,0.0-7.3-1.3,7h42ahf2mbx,2022-09-19 13:29:15.132,5ee683596f9b570626faa11c,3,100,77,14,5,41,Male,817.1000000238,,"
  <table>
  <tr height=300>
    <td width=300 height=300><img src=""static/images/cards/back_of_red_moons.svg"" width=""175px"" height=""250px""></img></td>
    <td width=300 height=300><img src=""static/images/cards/back_of_red_moons.svg"" width=""175px"" height=""250px""></img></td>
  </tr>
  <tr height=200>
    <td width=300></td>
    <td width=300><img src=""static/images/keys/m.svg"" width=""35%"" height=""75%""></img></td>
  </tr>
</table>
  ",77.0,1.0,,,,,,,,,,,,,,,,,,,,,,,,,,
187,0,,html-keyboard-response,187,505052,0.0-7.3-2.3,7h42ahf2mbx,2022-09-19 13:29:15.132,5ee683596f9b570626faa11c,3,100,77,14,5,41,Male,,,"
  <table>
  <tr height=300>
    <td width=300 height=300><img src=""static/images/cards/back_of_red_moons.svg"" width=""175px"" height=""250px""></img></td>
    <td width=300 height=300><img src=""static/images/cards/7_of_red_moons.svg"" width=""175px"" height=""250px""></img></td>
  </tr>
  <tr height=200>
    <td width=300></td>
    <td width=300><img src=""static/images/keys/m.svg"" width=""35%"" height=""75%""></img></td>
  </tr>
</table>
  ",,,,,,,,,,,,,,,,,,,,,,,,,,,,
188,0,,html-keyboard-response,188,506559,0.0-7.3-3.3,7h42ahf2mbx,2022-09-19 13:29:15.132,5ee683596f9b570626faa11c,3,100,77,14,5,41,Male,,,"<p style=""font-size:50px"">You win!
+10 points this round!</p>",,,,,,,,,,,,,,,,,,,,,,,,,,,,
189,0,,html-keyboard-response,189,507078,0.0-7.3-4.3,7h42ahf2mbx,2022-09-19 13:29:15.132,5ee683596f9b570626faa11c,3,100,77,14,5,41,Male,,,,,,1.0,choice,3.0,B,C,red,black,moons,stars,B,C,B,red,moons,980.5,0.0,1.0,0,right,817.1000000238,7.0,1.0,1.0,,,
190,0,,html-keyboard-response,190,508948,0.0-7.4-0.4,7h42ahf2mbx,2022-09-19 13:29:15.132,5ee683596f9b570626faa11c,3,100,77,14,5,41,Male,1869.2999999523,,"
  <table>
  <tr height=300>
    <td width=300 height=300><img src=""static/images/cards/stack_of_red_bolts.svg"" width=""175px"" height=""250px""></img></td>
    <td width=300 height=300><img src=""static/images/cards/stack_of_red_stars.svg"" width=""175px"" height=""250px""></img></td>
  </tr>
  <tr height=200>
    <td width=300><img src=""static/images/keys/w.svg"" width=""35%"" height=""75%""></img></td>
    <td width=300><img src=""static/images/keys/o.svg"" width=""35%"" height=""75%""></img></td>
  </tr>
</table>
  ",79.0,1.0,,,,,,,,,,,,,,,,,,,,,,,,,,
191,0,,html-keyboard-response,191,510744,0.0-7.4-1.4,7h42ahf2mbx,2022-09-19 13:29:15.132,5ee683596f9b570626faa11c,3,100,77,14,5,41,Male,1294.0,,"
  <table>
  <tr height=300>
    <td width=300 height=300><img src=""static/images/cards/back_of_red_stars.svg"" width=""175px"" height=""250px""></img></td>
    <td width=300 height=300><img src=""static/images/cards/back_of_red_stars.svg"" width=""175px"" height=""250px""></img></td>
  </tr>
  <tr height=200>
    <td width=300><img src=""static/images/keys/z.svg"" width=""35%"" height=""75%""></img></td>
    <td width=300></td>
  </tr>
</table>
  ",90.0,1.0,,,,,,,,,,,,,,,,,,,,,,,,,,
192,0,,html-keyboard-response,192,512256,0.0-7.4-2.4,7h42ahf2mbx,2022-09-19 13:29:15.132,5ee683596f9b570626faa11c,3,100,77,14,5,41,Male,,,"
  <table>
  <tr height=300>
    <td width=300 height=300><img src=""static/images/cards/3_of_red_stars.svg"" width=""175px"" height=""250px""></img></td>
    <td width=300 height=300><img src=""static/images/cards/back_of_red_stars.svg"" width=""175px"" height=""250px""></img></td>
  </tr>
  <tr height=200>
    <td width=300><img src=""static/images/keys/z.svg"" width=""35%"" height=""75%""></img></td>
    <td width=300></td>
  </tr>
</table>
  ",,,,,,,,,,,,,,,,,,,,,,,,,,,,
193,0,,html-keyboard-response,193,513763,0.0-7.4-3.4,7h42ahf2mbx,2022-09-19 13:29:15.132,5ee683596f9b570626faa11c,3,100,77,14,5,41,Male,,,"<p style=""font-size:50px"">You Lose!
No points this round.</p>",,,,,,,,,,,,,,,,,,,,,,,,,,,,
194,0,,html-keyboard-response,194,514268,0.0-7.4-4.4,7h42ahf2mbx,2022-09-19 13:29:15.132,5ee683596f9b570626faa11c,3,100,77,14,5,41,Male,,,,,,1.0,choice,4.0,D,Xc,red,red,bolts,stars,Xc,D,D,red,stars,1869.2999999523,0.0,0.0,1,left,1294.0,3.0,0.0,0.0,,,
195,0,,html-keyboard-response,195,516336,0.0-7.5-0.5,7h42ahf2mbx,2022-09-19 13:29:15.132,5ee683596f9b570626faa11c,3,100,77,14,5,41,Male,2067.1999999881,,"
  <table>
  <tr height=300>
    <td width=300 height=300><img src=""static/images/cards/stack_of_black_stars.svg"" width=""175px"" height=""250px""></img></td>
    <td width=300 height=300><img src=""static/images/cards/stack_of_red_moons.svg"" width=""175px"" height=""250px""></img></td>
  </tr>
  <tr height=200>
    <td width=300><img src=""static/images/keys/w.svg"" width=""35%"" height=""75%""></img></td>
    <td width=300><img src=""static/images/keys/o.svg"" width=""35%"" height=""75%""></img></td>
  </tr>
</table>
  ",79.0,2.0,,,,,,,,,,,,,,,,,,,,,,,,,,
196,0,,html-keyboard-response,196,517877,0.0-7.5-1.5,7h42ahf2mbx,2022-09-19 13:29:15.132,5ee683596f9b570626faa11c,3,100,77,14,5,41,Male,1040.1000000238,,"
  <table>
  <tr height=300>
    <td width=300 height=300><img src=""static/images/cards/back_of_red_moons.svg"" width=""175px"" height=""250px""></img></td>
    <td width=300 height=300><img src=""static/images/cards/back_of_red_moons.svg"" width=""175px"" height=""250px""></img></td>
  </tr>
  <tr height=200>
    <td width=300></td>
    <td width=300><img src=""static/images/keys/m.svg"" width=""35%"" height=""75%""></img></td>
  </tr>
</table>
  ",77.0,1.0,,,,,,,,,,,,,,,,,,,,,,,,,,
197,0,,html-keyboard-response,197,519386,0.0-7.5-2.5,7h42ahf2mbx,2022-09-19 13:29:15.132,5ee683596f9b570626faa11c,3,100,77,14,5,41,Male,,,"
  <table>
  <tr height=300>
    <td width=300 height=300><img src=""static/images/cards/back_of_red_moons.svg"" width=""175px"" height=""250px""></img></td>
    <td width=300 height=300><img src=""static/images/cards/9_of_red_moons.svg"" width=""175px"" height=""250px""></img></td>
  </tr>
  <tr height=200>
    <td width=300></td>
    <td width=300><img src=""static/images/keys/m.svg"" width=""35%"" height=""75%""></img></td>
  </tr>
</table>
  ",,,,,,,,,,,,,,,,,,,,,,,,,,,,
198,0,,html-keyboard-response,198,520887,0.0-7.5-3.5,7h42ahf2mbx,2022-09-19 13:29:15.132,5ee683596f9b570626faa11c,3,100,77,14,5,41,Male,,,"<p style=""font-size:50px"">You win!
+10 points this round!</p>",,,,,,,,,,,,,,,,,,,,,,,,,,,,
199,0,,html-keyboard-response,199,521402,0.0-7.5-4.5,7h42ahf2mbx,2022-09-19 13:29:15.132,5ee683596f9b570626faa11c,3,100,77,14,5,41,Male,,,,,,1.0,choice,5.0,B,C,black,red,stars,moons,C,B,B,red,moons,2067.1999999881,0.0,1.0,0,right,1040.1000000238,9.0,1.0,1.0,,,
200,0,,html-keyboard-response,200,524777,0.0-7.6-0.6,7h42ahf2mbx,2022-09-19 13:29:15.132,5ee683596f9b570626faa11c,3,100,77,14,5,41,Male,3374.8000000119,,"
  <table>
  <tr height=300>
    <td width=300 height=300><img src=""static/images/cards/stack_of_black_moons.svg"" width=""175px"" height=""250px""></img></td>
    <td width=300 height=300><img src=""static/images/cards/stack_of_red_moons.svg"" width=""175px"" height=""250px""></img></td>
  </tr>
  <tr height=200>
    <td width=300><img src=""static/images/keys/w.svg"" width=""35%"" height=""75%""></img></td>
    <td width=300><img src=""static/images/keys/o.svg"" width=""35%"" height=""75%""></img></td>
  </tr>
</table>
  ",87.0,2.0,,,,,,,,,,,,,,,,,,,,,,,,,,
201,0,,html-keyboard-response,201,526967,0.0-7.6-1.6,7h42ahf2mbx,2022-09-19 13:29:15.132,5ee683596f9b570626faa11c,3,100,77,14,5,41,Male,1689.0,,"
  <table>
  <tr height=300>
    <td width=300 height=300><img src=""static/images/cards/back_of_black_moons.svg"" width=""175px"" height=""250px""></img></td>
    <td width=300 height=300><img src=""static/images/cards/back_of_black_moons.svg"" width=""175px"" height=""250px""></img></td>
  </tr>
  <tr height=200>
    <td width=300><img src=""static/images/keys/z.svg"" width=""35%"" height=""75%""></img></td>
    <td width=300><img src=""static/images/keys/m.svg"" width=""35%"" height=""75%""></img></td>
  </tr>
</table>
  ",90.0,1.0,,,,,,,,,,,,,,,,,,,,,,,,,,
202,0,,html-keyboard-response,202,528473,0.0-7.6-2.6,7h42ahf2mbx,2022-09-19 13:29:15.132,5ee683596f9b570626faa11c,3,100,77,14,5,41,Male,,,"
  <table>
  <tr height=300>
    <td width=300 height=300><img src=""static/images/cards/1_of_black_moons.svg"" width=""175px"" height=""250px""></img></td>
    <td width=300 height=300><img src=""static/images/cards/back_of_black_moons.svg"" width=""175px"" height=""250px""></img></td>
  </tr>
  <tr height=200>
    <td width=300><img src=""static/images/keys/z.svg"" width=""35%"" height=""75%""></img></td>
    <td width=300><img src=""static/images/keys/m.svg"" width=""35%"" height=""75%""></img></td>
  </tr>
</table>
  ",,,,,,,,,,,,,,,,,,,,,,,,,,,,
203,0,,html-keyboard-response,203,529991,0.0-7.6-3.6,7h42ahf2mbx,2022-09-19 13:29:15.132,5ee683596f9b570626faa11c,3,100,77,14,5,41,Male,,,"<p style=""font-size:50px"">You Lose!
No points this round.</p>",,,,,,,,,,,,,,,,,,,,,,,,,,,,
204,0,,html-keyboard-response,204,530496,0.0-7.6-4.6,7h42ahf2mbx,2022-09-19 13:29:15.132,5ee683596f9b570626faa11c,3,100,77,14,5,41,Male,,,,,,1.0,choice,6.0,A,B,black,red,moons,moons,A,B,A,black,moons,3374.8000000119,1.0,1.0,NA,left,1689.0,1.0,0.0,0.0,,,
205,0,,html-keyboard-response,205,531876,0.0-7.7-0.7,7h42ahf2mbx,2022-09-19 13:29:15.132,5ee683596f9b570626faa11c,3,100,77,14,5,41,Male,1379.6000000238,,"
  <table>
  <tr height=300>
    <td width=300 height=300><img src=""static/images/cards/stack_of_red_moons.svg"" width=""175px"" height=""250px""></img></td>
    <td width=300 height=300><img src=""static/images/cards/stack_of_red_stars.svg"" width=""175px"" height=""250px""></img></td>
  </tr>
  <tr height=200>
    <td width=300><img src=""static/images/keys/w.svg"" width=""35%"" height=""75%""></img></td>
    <td width=300><img src=""static/images/keys/o.svg"" width=""35%"" height=""75%""></img></td>
  </tr>
</table>
  ",87.0,1.0,,,,,,,,,,,,,,,,,,,,,,,,,,
206,0,,html-keyboard-response,206,533001,0.0-7.7-1.7,7h42ahf2mbx,2022-09-19 13:29:15.132,5ee683596f9b570626faa11c,3,100,77,14,5,41,Male,611.5,,"
  <table>
  <tr height=300>
    <td width=300 height=300><img src=""static/images/cards/back_of_red_moons.svg"" width=""175px"" height=""250px""></img></td>
    <td width=300 height=300><img src=""static/images/cards/back_of_red_moons.svg"" width=""175px"" height=""250px""></img></td>
  </tr>
  <tr height=200>
    <td width=300></td>
    <td width=300><img src=""static/images/keys/m.svg"" width=""35%"" height=""75%""></img></td>
  </tr>
</table>
  ",77.0,1.0,,,,,,,,,,,,,,,,,,,,,,,,,,
207,0,,html-keyboard-response,207,534512,0.0-7.7-2.7,7h42ahf2mbx,2022-09-19 13:29:15.132,5ee683596f9b570626faa11c,3,100,77,14,5,41,Male,,,"
  <table>
  <tr height=300>
    <td width=300 height=300><img src=""static/images/cards/back_of_red_moons.svg"" width=""175px"" height=""250px""></img></td>
    <td width=300 height=300><img src=""static/images/cards/3_of_red_moons.svg"" width=""175px"" height=""250px""></img></td>
  </tr>
  <tr height=200>
    <td width=300></td>
    <td width=300><img src=""static/images/keys/m.svg"" width=""35%"" height=""75%""></img></td>
  </tr>
</table>
  ",,,,,,,,,,,,,,,,,,,,,,,,,,,,
208,0,,html-keyboard-response,208,536025,0.0-7.7-3.7,7h42ahf2mbx,2022-09-19 13:29:15.132,5ee683596f9b570626faa11c,3,100,77,14,5,41,Male,,,"<p style=""font-size:50px"">You Lose!
No points this round.</p>",,,,,,,,,,,,,,,,,,,,,,,,,,,,
209,0,,html-keyboard-response,209,536532,0.0-7.7-4.7,7h42ahf2mbx,2022-09-19 13:29:15.132,5ee683596f9b570626faa11c,3,100,77,14,5,41,Male,,,,,,1.0,choice,7.0,B,D,red,red,moons,stars,B,D,B,red,moons,1379.6000000238,0.0,1.0,0,right,611.5,3.0,0.0,0.0,,,
210,0,,html-keyboard-response,210,537296,0.0-7.8-0.8,7h42ahf2mbx,2022-09-19 13:29:15.132,5ee683596f9b570626faa11c,3,100,77,14,5,41,Male,762.1999999881,,"
  <table>
  <tr height=300>
    <td width=300 height=300><img src=""static/images/cards/stack_of_black_moons.svg"" width=""175px"" height=""250px""></img></td>
    <td width=300 height=300><img src=""static/images/cards/stack_of_red_moons.svg"" width=""175px"" height=""250px""></img></td>
  </tr>
  <tr height=200>
    <td width=300><img src=""static/images/keys/w.svg"" width=""35%"" height=""75%""></img></td>
    <td width=300><img src=""static/images/keys/o.svg"" width=""35%"" height=""75%""></img></td>
  </tr>
</table>
  ",79.0,1.0,,,,,,,,,,,,,,,,,,,,,,,,,,
211,0,,html-keyboard-response,211,538238,0.0-7.8-1.8,7h42ahf2mbx,2022-09-19 13:29:15.132,5ee683596f9b570626faa11c,3,100,77,14,5,41,Male,431.8000000119,,"
  <table>
  <tr height=300>
    <td width=300 height=300><img src=""static/images/cards/back_of_red_moons.svg"" width=""175px"" height=""250px""></img></td>
    <td width=300 height=300><img src=""static/images/cards/back_of_red_moons.svg"" width=""175px"" height=""250px""></img></td>
  </tr>
  <tr height=200>
    <td width=300></td>
    <td width=300><img src=""static/images/keys/m.svg"" width=""35%"" height=""75%""></img></td>
  </tr>
</table>
  ",77.0,1.0,,,,,,,,,,,,,,,,,,,,,,,,,,
212,0,,html-keyboard-response,212,539742,0.0-7.8-2.8,7h42ahf2mbx,2022-09-19 13:29:15.132,5ee683596f9b570626faa11c,3,100,77,14,5,41,Male,,,"
  <table>
  <tr height=300>
    <td width=300 height=300><img src=""static/images/cards/back_of_red_moons.svg"" width=""175px"" height=""250px""></img></td>
    <td width=300 height=300><img src=""static/images/cards/4_of_red_moons.svg"" width=""175px"" height=""250px""></img></td>
  </tr>
  <tr height=200>
    <td width=300></td>
    <td width=300><img src=""static/images/keys/m.svg"" width=""35%"" height=""75%""></img></td>
  </tr>
</table>
  ",,,,,,,,,,,,,,,,,,,,,,,,,,,,
213,0,,html-keyboard-response,213,541258,0.0-7.8-3.8,7h42ahf2mbx,2022-09-19 13:29:15.132,5ee683596f9b570626faa11c,3,100,77,14,5,41,Male,,,"<p style=""font-size:50px"">You Lose!
No points this round.</p>",,,,,,,,,,,,,,,,,,,,,,,,,,,,
214,0,,html-keyboard-response,214,541774,0.0-7.8-4.8,7h42ahf2mbx,2022-09-19 13:29:15.132,5ee683596f9b570626faa11c,3,100,77,14,5,41,Male,,,,,,1.0,choice,8.0,A,B,black,red,moons,moons,A,B,B,red,moons,762.1999999881,0.0,1.0,0,right,431.8000000119,4.0,0.0,0.0,,,
215,0,,html-keyboard-response,215,542539,0.0-7.9-0.9,7h42ahf2mbx,2022-09-19 13:29:15.132,5ee683596f9b570626faa11c,3,100,77,14,5,41,Male,764.5,,"
  <table>
  <tr height=300>
    <td width=300 height=300><img src=""static/images/cards/stack_of_black_stars.svg"" width=""175px"" height=""250px""></img></td>
    <td width=300 height=300><img src=""static/images/cards/stack_of_red_stars.svg"" width=""175px"" height=""250px""></img></td>
  </tr>
  <tr height=200>
    <td width=300><img src=""static/images/keys/w.svg"" width=""35%"" height=""75%""></img></td>
    <td width=300><img src=""static/images/keys/o.svg"" width=""35%"" height=""75%""></img></td>
  </tr>
</table>
  ",87.0,1.0,,,,,,,,,,,,,,,,,,,,,,,,,,
216,0,,html-keyboard-response,216,544145,0.0-7.9-1.9,7h42ahf2mbx,2022-09-19 13:29:15.132,5ee683596f9b570626faa11c,3,100,77,14,5,41,Male,1095.0,,"
  <table>
  <tr height=300>
    <td width=300 height=300><img src=""static/images/cards/back_of_black_stars.svg"" width=""175px"" height=""250px""></img></td>
    <td width=300 height=300><img src=""static/images/cards/back_of_black_stars.svg"" width=""175px"" height=""250px""></img></td>
  </tr>
  <tr height=200>
    <td width=300><img src=""static/images/keys/z.svg"" width=""35%"" height=""75%""></img></td>
    <td width=300><img src=""static/images/keys/m.svg"" width=""35%"" height=""75%""></img></td>
  </tr>
</table>
  ",77.0,1.0,,,,,,,,,,,,,,,,,,,,,,,,,,
217,0,,html-keyboard-response,217,545655,0.0-7.9-2.9,7h42ahf2mbx,2022-09-19 13:29:15.132,5ee683596f9b570626faa11c,3,100,77,14,5,41,Male,,,"
  <table>
  <tr height=300>
    <td width=300 height=300><img src=""static/images/cards/back_of_black_stars.svg"" width=""175px"" height=""250px""></img></td>
    <td width=300 height=300><img src=""static/images/cards/7_of_black_stars.svg"" width=""175px"" height=""250px""></img></td>
  </tr>
  <tr height=200>
    <td width=300><img src=""static/images/keys/z.svg"" width=""35%"" height=""75%""></img></td>
    <td width=300><img src=""static/images/keys/m.svg"" width=""35%"" height=""75%""></img></td>
  </tr>
</table>
  ",,,,,,,,,,,,,,,,,,,,,,,,,,,,
218,0,,html-keyboard-response,218,547182,0.0-7.9-3.9,7h42ahf2mbx,2022-09-19 13:29:15.132,5ee683596f9b570626faa11c,3,100,77,14,5,41,Male,,,"<p style=""font-size:50px"">You win!
+10 points this round!</p>",,,,,,,,,,,,,,,,,,,,,,,,,,,,
219,0,,html-keyboard-response,219,547687,0.0-7.9-4.9,7h42ahf2mbx,2022-09-19 13:29:15.132,5ee683596f9b570626faa11c,3,100,77,14,5,41,Male,,,,,,1.0,choice,9.0,C,D,black,red,stars,stars,C,D,C,black,stars,764.5,1.0,0.0,NA,right,1095.0,7.0,1.0,1.0,,,
220,0,,html-keyboard-response,220,549119,0.0-7.10-0.10,7h42ahf2mbx,2022-09-19 13:29:15.132,5ee683596f9b570626faa11c,3,100,77,14,5,41,Male,1431.6000000238,,"
  <table>
  <tr height=300>
    <td width=300 height=300><img src=""static/images/cards/stack_of_red_bolts.svg"" width=""175px"" height=""250px""></img></td>
    <td width=300 height=300><img src=""static/images/cards/stack_of_black_moons.svg"" width=""175px"" height=""250px""></img></td>
  </tr>
  <tr height=200>
    <td width=300><img src=""static/images/keys/w.svg"" width=""35%"" height=""75%""></img></td>
    <td width=300><img src=""static/images/keys/o.svg"" width=""35%"" height=""75%""></img></td>
  </tr>
</table>
  ",87.0,1.0,,,,,,,,,,,,,,,,,,,,,,,,,,
221,0,,html-keyboard-response,221,550491,0.0-7.10-1.10,7h42ahf2mbx,2022-09-19 13:29:15.132,5ee683596f9b570626faa11c,3,100,77,14,5,41,Male,870.8000000119,,"
  <table>
  <tr height=300>
    <td width=300 height=300><img src=""static/images/cards/back_of_red_bolts.svg"" width=""175px"" height=""250px""></img></td>
    <td width=300 height=300><img src=""static/images/cards/back_of_red_bolts.svg"" width=""175px"" height=""250px""></img></td>
  </tr>
  <tr height=200>
    <td width=300><img src=""static/images/keys/z.svg"" width=""35%"" height=""75%""></img></td>
    <td width=300><img src=""static/images/keys/m.svg"" width=""35%"" height=""75%""></img></td>
  </tr>
</table>
  ",77.0,1.0,,,,,,,,,,,,,,,,,,,,,,,,,,
222,0,,html-keyboard-response,222,551996,0.0-7.10-2.10,7h42ahf2mbx,2022-09-19 13:29:15.132,5ee683596f9b570626faa11c,3,100,77,14,5,41,Male,,,"
  <table>
  <tr height=300>
    <td width=300 height=300><img src=""static/images/cards/back_of_red_bolts.svg"" width=""175px"" height=""250px""></img></td>
    <td width=300 height=300><img src=""static/images/cards/2_of_red_bolts.svg"" width=""175px"" height=""250px""></img></td>
  </tr>
  <tr height=200>
    <td width=300><img src=""static/images/keys/z.svg"" width=""35%"" height=""75%""></img></td>
    <td width=300><img src=""static/images/keys/m.svg"" width=""35%"" height=""75%""></img></td>
  </tr>
</table>
  ",,,,,,,,,,,,,,,,,,,,,,,,,,,,
223,0,,html-keyboard-response,223,553523,0.0-7.10-3.10,7h42ahf2mbx,2022-09-19 13:29:15.132,5ee683596f9b570626faa11c,3,100,77,14,5,41,Male,,,"<p style=""font-size:50px"">You win!
+10 points this round!</p>",,,,,,,,,,,,,,,,,,,,,,,,,,,,
224,0,,html-keyboard-response,224,554028,0.0-7.10-4.10,7h42ahf2mbx,2022-09-19 13:29:15.132,5ee683596f9b570626faa11c,3,100,77,14,5,41,Male,,,,,,1.0,choice,10.0,A,Xc,red,black,bolts,moons,Xc,A,Xc,red,bolts,1431.6000000238,1.0,0.0,NA,right,870.8000000119,2.0,0.0,1.0,,,
225,0,,html-keyboard-response,225,556336,0.0-7.11-0.11,7h42ahf2mbx,2022-09-19 13:29:15.132,5ee683596f9b570626faa11c,3,100,77,14,5,41,Male,2306.5,,"
  <table>
  <tr height=300>
    <td width=300 height=300><img src=""static/images/cards/stack_of_black_moons.svg"" width=""175px"" height=""250px""></img></td>
    <td width=300 height=300><img src=""static/images/cards/stack_of_red_stars.svg"" width=""175px"" height=""250px""></img></td>
  </tr>
  <tr height=200>
    <td width=300><img src=""static/images/keys/w.svg"" width=""35%"" height=""75%""></img></td>
    <td width=300><img src=""static/images/keys/o.svg"" width=""35%"" height=""75%""></img></td>
  </tr>
</table>
  ",79.0,1.0,,,,,,,,,,,,,,,,,,,,,,,,,,
226,0,,html-keyboard-response,226,557478,0.0-7.11-1.11,7h42ahf2mbx,2022-09-19 13:29:15.132,5ee683596f9b570626faa11c,3,100,77,14,5,41,Male,631.6000000238,,"
  <table>
  <tr height=300>
    <td width=300 height=300><img src=""static/images/cards/back_of_red_stars.svg"" width=""175px"" height=""250px""></img></td>
    <td width=300 height=300><img src=""static/images/cards/back_of_red_stars.svg"" width=""175px"" height=""250px""></img></td>
  </tr>
  <tr height=200>
    <td width=300><img src=""static/images/keys/z.svg"" width=""35%"" height=""75%""></img></td>
    <td width=300></td>
  </tr>
</table>
  ",90.0,1.0,,,,,,,,,,,,,,,,,,,,,,,,,,
227,0,,html-keyboard-response,227,558991,0.0-7.11-2.11,7h42ahf2mbx,2022-09-19 13:29:15.132,5ee683596f9b570626faa11c,3,100,77,14,5,41,Male,,,"
  <table>
  <tr height=300>
    <td width=300 height=300><img src=""static/images/cards/10_of_red_stars.svg"" width=""175px"" height=""250px""></img></td>
    <td width=300 height=300><img src=""static/images/cards/back_of_red_stars.svg"" width=""175px"" height=""250px""></img></td>
  </tr>
  <tr height=200>
    <td width=300><img src=""static/images/keys/z.svg"" width=""35%"" height=""75%""></img></td>
    <td width=300></td>
  </tr>
</table>
  ",,,,,,,,,,,,,,,,,,,,,,,,,,,,
228,0,,html-keyboard-response,228,560507,0.0-7.11-3.11,7h42ahf2mbx,2022-09-19 13:29:15.132,5ee683596f9b570626faa11c,3,100,77,14,5,41,Male,,,"<p style=""font-size:50px"">You Lose!
No points this round.</p>",,,,,,,,,,,,,,,,,,,,,,,,,,,,
229,0,,html-keyboard-response,229,561026,0.0-7.11-4.11,7h42ahf2mbx,2022-09-19 13:29:15.132,5ee683596f9b570626faa11c,3,100,77,14,5,41,Male,,,,,,1.0,choice,11.0,A,D,black,red,moons,stars,A,D,D,red,stars,2306.5,0.0,0.0,1,left,631.6000000238,10.0,1.0,0.0,,,
230,0,,html-keyboard-response,230,562803,0.0-7.12-0.12,7h42ahf2mbx,2022-09-19 13:29:15.132,5ee683596f9b570626faa11c,3,100,77,14,5,41,Male,1776.6999999881,,"
  <table>
  <tr height=300>
    <td width=300 height=300><img src=""static/images/cards/stack_of_red_stars.svg"" width=""175px"" height=""250px""></img></td>
    <td width=300 height=300><img src=""static/images/cards/stack_of_black_stars.svg"" width=""175px"" height=""250px""></img></td>
  </tr>
  <tr height=200>
    <td width=300><img src=""static/images/keys/w.svg"" width=""35%"" height=""75%""></img></td>
    <td width=300><img src=""static/images/keys/o.svg"" width=""35%"" height=""75%""></img></td>
  </tr>
</table>
  ",79.0,1.0,,,,,,,,,,,,,,,,,,,,,,,,,,
231,0,,html-keyboard-response,231,564077,0.0-7.12-1.12,7h42ahf2mbx,2022-09-19 13:29:15.132,5ee683596f9b570626faa11c,3,100,77,14,5,41,Male,765.8999999762,,"
  <table>
  <tr height=300>
    <td width=300 height=300><img src=""static/images/cards/back_of_black_stars.svg"" width=""175px"" height=""250px""></img></td>
    <td width=300 height=300><img src=""static/images/cards/back_of_black_stars.svg"" width=""175px"" height=""250px""></img></td>
  </tr>
  <tr height=200>
    <td width=300><img src=""static/images/keys/z.svg"" width=""35%"" height=""75%""></img></td>
    <td width=300><img src=""static/images/keys/m.svg"" width=""35%"" height=""75%""></img></td>
  </tr>
</table>
  ",77.0,1.0,,,,,,,,,,,,,,,,,,,,,,,,,,
232,0,,html-keyboard-response,232,565588,0.0-7.12-2.12,7h42ahf2mbx,2022-09-19 13:29:15.132,5ee683596f9b570626faa11c,3,100,77,14,5,41,Male,,,"
  <table>
  <tr height=300>
    <td width=300 height=300><img src=""static/images/cards/back_of_black_stars.svg"" width=""175px"" height=""250px""></img></td>
    <td width=300 height=300><img src=""static/images/cards/10_of_black_stars.svg"" width=""175px"" height=""250px""></img></td>
  </tr>
  <tr height=200>
    <td width=300><img src=""static/images/keys/z.svg"" width=""35%"" height=""75%""></img></td>
    <td width=300><img src=""static/images/keys/m.svg"" width=""35%"" height=""75%""></img></td>
  </tr>
</table>
  ",,,,,,,,,,,,,,,,,,,,,,,,,,,,
233,0,,html-keyboard-response,233,567099,0.0-7.12-3.12,7h42ahf2mbx,2022-09-19 13:29:15.132,5ee683596f9b570626faa11c,3,100,77,14,5,41,Male,,,"<p style=""font-size:50px"">You Lose!
No points this round.</p>",,,,,,,,,,,,,,,,,,,,,,,,,,,,
234,0,,html-keyboard-response,234,567610,0.0-7.12-4.12,7h42ahf2mbx,2022-09-19 13:29:15.132,5ee683596f9b570626faa11c,3,100,77,14,5,41,Male,,,,,,1.0,choice,12.0,C,D,red,black,stars,stars,D,C,C,black,stars,1776.6999999881,1.0,0.0,NA,right,765.8999999762,10.0,1.0,0.0,,,
235,0,,html-keyboard-response,235,568771,0.0-7.13-0.13,7h42ahf2mbx,2022-09-19 13:29:15.132,5ee683596f9b570626faa11c,3,100,77,14,5,41,Male,1161.0,,"
  <table>
  <tr height=300>
    <td width=300 height=300><img src=""static/images/cards/stack_of_red_stars.svg"" width=""175px"" height=""250px""></img></td>
    <td width=300 height=300><img src=""static/images/cards/stack_of_black_stars.svg"" width=""175px"" height=""250px""></img></td>
  </tr>
  <tr height=200>
    <td width=300><img src=""static/images/keys/w.svg"" width=""35%"" height=""75%""></img></td>
    <td width=300><img src=""static/images/keys/o.svg"" width=""35%"" height=""75%""></img></td>
  </tr>
</table>
  ",87.0,1.0,,,,,,,,,,,,,,,,,,,,,,,,,,
236,0,,html-keyboard-response,236,569839,0.0-7.13-1.13,7h42ahf2mbx,2022-09-19 13:29:15.132,5ee683596f9b570626faa11c,3,100,77,14,5,41,Male,565.6000000238,,"
  <table>
  <tr height=300>
    <td width=300 height=300><img src=""static/images/cards/back_of_red_stars.svg"" width=""175px"" height=""250px""></img></td>
    <td width=300 height=300><img src=""static/images/cards/back_of_red_stars.svg"" width=""175px"" height=""250px""></img></td>
  </tr>
  <tr height=200>
    <td width=300><img src=""static/images/keys/z.svg"" width=""35%"" height=""75%""></img></td>
    <td width=300></td>
  </tr>
</table>
  ",90.0,1.0,,,,,,,,,,,,,,,,,,,,,,,,,,
237,0,,html-keyboard-response,237,571351,0.0-7.13-2.13,7h42ahf2mbx,2022-09-19 13:29:15.132,5ee683596f9b570626faa11c,3,100,77,14,5,41,Male,,,"
  <table>
  <tr height=300>
    <td width=300 height=300><img src=""static/images/cards/3_of_red_stars.svg"" width=""175px"" height=""250px""></img></td>
    <td width=300 height=300><img src=""static/images/cards/back_of_red_stars.svg"" width=""175px"" height=""250px""></img></td>
  </tr>
  <tr height=200>
    <td width=300><img src=""static/images/keys/z.svg"" width=""35%"" height=""75%""></img></td>
    <td width=300></td>
  </tr>
</table>
  ",,,,,,,,,,,,,,,,,,,,,,,,,,,,
238,0,,html-keyboard-response,238,572866,0.0-7.13-3.13,7h42ahf2mbx,2022-09-19 13:29:15.132,5ee683596f9b570626faa11c,3,100,77,14,5,41,Male,,,"<p style=""font-size:50px"">You Lose!
No points this round.</p>",,,,,,,,,,,,,,,,,,,,,,,,,,,,
239,0,,html-keyboard-response,239,573385,0.0-7.13-4.13,7h42ahf2mbx,2022-09-19 13:29:15.132,5ee683596f9b570626faa11c,3,100,77,14,5,41,Male,,,,,,1.0,choice,13.0,C,D,red,black,stars,stars,D,C,D,red,stars,1161.0,0.0,0.0,1,left,565.6000000238,3.0,0.0,0.0,,,
240,0,,html-keyboard-response,240,575475,0.0-7.14-0.14,7h42ahf2mbx,2022-09-19 13:29:15.132,5ee683596f9b570626faa11c,3,100,77,14,5,41,Male,2089.3000000119,,"
  <table>
  <tr height=300>
    <td width=300 height=300><img src=""static/images/cards/stack_of_red_moons.svg"" width=""175px"" height=""250px""></img></td>
    <td width=300 height=300><img src=""static/images/cards/stack_of_red_stars.svg"" width=""175px"" height=""250px""></img></td>
  </tr>
  <tr height=200>
    <td width=300><img src=""static/images/keys/w.svg"" width=""35%"" height=""75%""></img></td>
    <td width=300><img src=""static/images/keys/o.svg"" width=""35%"" height=""75%""></img></td>
  </tr>
</table>
  ",87.0,1.0,,,,,,,,,,,,,,,,,,,,,,,,,,
241,0,,html-keyboard-response,241,576595,0.0-7.14-1.14,7h42ahf2mbx,2022-09-19 13:29:15.132,5ee683596f9b570626faa11c,3,100,77,14,5,41,Male,604.6999999881,,"
  <table>
  <tr height=300>
    <td width=300 height=300><img src=""static/images/cards/back_of_red_moons.svg"" width=""175px"" height=""250px""></img></td>
    <td width=300 height=300><img src=""static/images/cards/back_of_red_moons.svg"" width=""175px"" height=""250px""></img></td>
  </tr>
  <tr height=200>
    <td width=300></td>
    <td width=300><img src=""static/images/keys/m.svg"" width=""35%"" height=""75%""></img></td>
  </tr>
</table>
  ",77.0,1.0,,,,,,,,,,,,,,,,,,,,,,,,,,
242,0,,html-keyboard-response,242,578102,0.0-7.14-2.14,7h42ahf2mbx,2022-09-19 13:29:15.132,5ee683596f9b570626faa11c,3,100,77,14,5,41,Male,,,"
  <table>
  <tr height=300>
    <td width=300 height=300><img src=""static/images/cards/back_of_red_moons.svg"" width=""175px"" height=""250px""></img></td>
    <td width=300 height=300><img src=""static/images/cards/10_of_red_moons.svg"" width=""175px"" height=""250px""></img></td>
  </tr>
  <tr height=200>
    <td width=300></td>
    <td width=300><img src=""static/images/keys/m.svg"" width=""35%"" height=""75%""></img></td>
  </tr>
</table>
  ",,,,,,,,,,,,,,,,,,,,,,,,,,,,
243,0,,html-keyboard-response,243,579608,0.0-7.14-3.14,7h42ahf2mbx,2022-09-19 13:29:15.132,5ee683596f9b570626faa11c,3,100,77,14,5,41,Male,,,"<p style=""font-size:50px"">You win!
+10 points this round!</p>",,,,,,,,,,,,,,,,,,,,,,,,,,,,
244,0,,html-keyboard-response,244,580127,0.0-7.14-4.14,7h42ahf2mbx,2022-09-19 13:29:15.132,5ee683596f9b570626faa11c,3,100,77,14,5,41,Male,,,,,,1.0,choice,14.0,B,D,red,red,moons,stars,B,D,B,red,moons,2089.3000000119,0.0,1.0,0,right,604.6999999881,10.0,1.0,1.0,,,
245,0,,html-keyboard-response,245,582148,0.0-7.15-0.15,7h42ahf2mbx,2022-09-19 13:29:15.132,5ee683596f9b570626faa11c,3,100,77,14,5,41,Male,2020.3000000119,,"
  <table>
  <tr height=300>
    <td width=300 height=300><img src=""static/images/cards/stack_of_red_moons.svg"" width=""175px"" height=""250px""></img></td>
    <td width=300 height=300><img src=""static/images/cards/stack_of_red_stars.svg"" width=""175px"" height=""250px""></img></td>
  </tr>
  <tr height=200>
    <td width=300><img src=""static/images/keys/w.svg"" width=""35%"" height=""75%""></img></td>
    <td width=300><img src=""static/images/keys/o.svg"" width=""35%"" height=""75%""></img></td>
  </tr>
</table>
  ",87.0,1.0,,,,,,,,,,,,,,,,,,,,,,,,,,
246,0,,html-keyboard-response,246,583208,0.0-7.15-1.15,7h42ahf2mbx,2022-09-19 13:29:15.132,5ee683596f9b570626faa11c,3,100,77,14,5,41,Male,558.9000000358,,"
  <table>
  <tr height=300>
    <td width=300 height=300><img src=""static/images/cards/back_of_red_moons.svg"" width=""175px"" height=""250px""></img></td>
    <td width=300 height=300><img src=""static/images/cards/back_of_red_moons.svg"" width=""175px"" height=""250px""></img></td>
  </tr>
  <tr height=200>
    <td width=300></td>
    <td width=300><img src=""static/images/keys/m.svg"" width=""35%"" height=""75%""></img></td>
  </tr>
</table>
  ",77.0,1.0,,,,,,,,,,,,,,,,,,,,,,,,,,
