,index,success,trial_type,trial_index,time_elapsed,internal_node_id,subject,date,prol_id,ctbl,sense_of_control_A,sense_of_control_B,sense_of_control_C,sense_of_control_D,age,gender,rt,url,stimulus,key_press,npress,is_data_trial,phase,trial,deck1,deck2,col1,col2,sym1,sym2,deck_l,deck_r,chosen_deck,chosen_col,chosen_sym,deck_rt,choose_choice,mutual_info,hidden_key,chosen_card,card_rt,player_num,win_card,outcome,mock_rating,response,responses
0,0,1.0,fullscreen,0,3120,0.0-0.0,qidsv3gz1p,2022-09-19 15:59:00.750,62a7970f8387f3fcc95b106b,2,27,30,31,28,31,Male,,,,,,,,,,,,,,,,,,,,,,,,,,,,,,,
1,0,,external-html,1,8827,0.0-1.0,qidsv3gz1p,2022-09-19 15:59:00.750,62a7970f8387f3fcc95b106b,2,27,30,31,28,31,Male,5413.6999999881,static/js/sub/consent.html,,,,,,,,,,,,,,,,,,,,,,,,,,,,,
2,0,,call-function,2,8829,0.0-2.0,qidsv3gz1p,2022-09-19 15:59:00.750,62a7970f8387f3fcc95b106b,2,27,30,31,28,31,Male,,,,,,,,,,,,,,,,,,,,,,,,,,,,,,,
3,0,,image-keyboard-response,3,13604,0.0-3.0-0.0,qidsv3gz1p,2022-09-19 15:59:00.750,62a7970f8387f3fcc95b106b,2,27,30,31,28,31,Male,4772.5,,static/images/instructions_CB_2/Slide1.png,39.0,,,,,,,,,,,,,,,,,,,,,,,,,,,
4,0,,image-keyboard-response,4,21533,0.0-3.1-0.1,qidsv3gz1p,2022-09-19 15:59:00.750,62a7970f8387f3fcc95b106b,2,27,30,31,28,31,Male,7926.3000000119,,static/images/instructions_CB_2/Slide2.png,39.0,,,,,,,,,,,,,,,,,,,,,,,,,,,
5,0,,image-keyboard-response,5,25528,0.0-3.2-0.2,qidsv3gz1p,2022-09-19 15:59:00.750,62a7970f8387f3fcc95b106b,2,27,30,31,28,31,Male,3992.6999999881,,static/images/instructions_CB_2/Slide3.png,39.0,,,,,,,,,,,,,,,,,,,,,,,,,,,
6,0,,image-keyboard-response,6,34796,0.0-3.3-0.3,qidsv3gz1p,2022-09-19 15:59:00.750,62a7970f8387f3fcc95b106b,2,27,30,31,28,31,Male,9266.6000000238,,static/images/instructions_CB_2/Slide4.png,39.0,,,,,,,,,,,,,,,,,,,,,,,,,,,
7,0,,image-keyboard-response,7,41094,0.0-3.4-0.4,qidsv3gz1p,2022-09-19 15:59:00.750,62a7970f8387f3fcc95b106b,2,27,30,31,28,31,Male,6295.4000000358,,static/images/instructions_CB_2/Slide5.png,39.0,,,,,,,,,,,,,,,,,,,,,,,,,,,
8,0,,image-keyboard-response,8,44407,0.0-3.5-0.5,qidsv3gz1p,2022-09-19 15:59:00.750,62a7970f8387f3fcc95b106b,2,27,30,31,28,31,Male,3311.8000000119,,static/images/instructions_CB_2/Slide6.png,39.0,,,,,,,,,,,,,,,,,,,,,,,,,,,
9,0,,image-keyboard-response,9,52062,0.0-3.6-0.6,qidsv3gz1p,2022-09-19 15:59:00.750,62a7970f8387f3fcc95b106b,2,27,30,31,28,31,Male,7653.3999999762,,static/images/instructions_CB_2/Slide7.png,39.0,,,,,,,,,,,,,,,,,,,,,,,,,,,
10,0,,image-keyboard-response,10,66367,0.0-3.7-0.7,qidsv3gz1p,2022-09-19 15:59:00.750,62a7970f8387f3fcc95b106b,2,27,30,31,28,31,Male,14304.1000000238,,static/images/instructions_CB_2/Slide8.png,39.0,,,,,,,,,,,,,,,,,,,,,,,,,,,
11,0,,image-keyboard-response,11,73462,0.0-3.8-0.8,qidsv3gz1p,2022-09-19 15:59:00.750,62a7970f8387f3fcc95b106b,2,27,30,31,28,31,Male,7094.1000000238,,static/images/instructions_CB_2/Slide9.png,39.0,,,,,,,,,,,,,,,,,,,,,,,,,,,
12,0,,image-keyboard-response,12,87180,0.0-3.9-0.9,qidsv3gz1p,2022-09-19 15:59:00.750,62a7970f8387f3fcc95b106b,2,27,30,31,28,31,Male,13716.5,,static/images/instructions_CB_2/Slide10.png,39.0,,,,,,,,,,,,,,,,,,,,,,,,,,,
13,0,,image-keyboard-response,13,92828,0.0-3.10-0.10,qidsv3gz1p,2022-09-19 15:59:00.750,62a7970f8387f3fcc95b106b,2,27,30,31,28,31,Male,5646.0999999642,,static/images/instructions_CB_2/Slide11.png,39.0,,,,,,,,,,,,,,,,,,,,,,,,,,,
14,0,,image-keyboard-response,14,106502,0.0-3.11-0.11,qidsv3gz1p,2022-09-19 15:59:00.750,62a7970f8387f3fcc95b106b,2,27,30,31,28,31,Male,13672.0,,static/images/instructions_CB_2/Slide12.png,39.0,,,,,,,,,,,,,,,,,,,,,,,,,,,
15,0,,image-keyboard-response,15,113707,0.0-3.12-0.12,qidsv3gz1p,2022-09-19 15:59:00.750,62a7970f8387f3fcc95b106b,2,27,30,31,28,31,Male,7204.2000000477,,static/images/instructions_CB_2/Slide13.png,39.0,,,,,,,,,,,,,,,,,,,,,,,,,,,
16,0,,image-keyboard-response,16,121515,0.0-3.13-0.13,qidsv3gz1p,2022-09-19 15:59:00.750,62a7970f8387f3fcc95b106b,2,27,30,31,28,31,Male,7806.6999999881,,static/images/instructions_CB_2/Slide14.png,37.0,,,,,,,,,,,,,,,,,,,,,,,,,,,
17,0,,image-keyboard-response,17,132200,0.0-3.14-0.14,qidsv3gz1p,2022-09-19 15:59:00.750,62a7970f8387f3fcc95b106b,2,27,30,31,28,31,Male,10682.6000000238,,static/images/instructions_CB_2/Slide13.png,39.0,,,,,,,,,,,,,,,,,,,,,,,,,,,
18,0,,image-keyboard-response,18,136374,0.0-3.15-0.15,qidsv3gz1p,2022-09-19 15:59:00.750,62a7970f8387f3fcc95b106b,2,27,30,31,28,31,Male,4172.5,,static/images/instructions_CB_2/Slide14.png,39.0,,,,,,,,,,,,,,,,,,,,,,,,,,,
19,0,,image-keyboard-response,19,143255,0.0-3.16-0.16,qidsv3gz1p,2022-09-19 15:59:00.750,62a7970f8387f3fcc95b106b,2,27,30,31,28,31,Male,6879.5,,static/images/instructions_CB_2/Slide15.png,39.0,,,,,,,,,,,,,,,,,,,,,,,,,,,
20,0,,image-keyboard-response,20,152118,0.0-3.17-0.17,qidsv3gz1p,2022-09-19 15:59:00.750,62a7970f8387f3fcc95b106b,2,27,30,31,28,31,Male,8861.5,,static/images/instructions_CB_2/Slide16.png,39.0,,,,,,,,,,,,,,,,,,,,,,,,,,,
21,0,,image-keyboard-response,21,161966,0.0-3.18-0.18,qidsv3gz1p,2022-09-19 15:59:00.750,62a7970f8387f3fcc95b106b,2,27,30,31,28,31,Male,9846.0,,static/images/instructions_CB_2/Slide17.png,39.0,,,,,,,,,,,,,,,,,,,,,,,,,,,
22,0,,image-keyboard-response,22,182364,0.0-3.19-0.19,qidsv3gz1p,2022-09-19 15:59:00.750,62a7970f8387f3fcc95b106b,2,27,30,31,28,31,Male,20396.7000000477,,static/images/instructions_CB_2/Slide18.png,39.0,,,,,,,,,,,,,,,,,,,,,,,,,,,
23,0,,image-keyboard-response,23,191767,0.0-3.20-0.20,qidsv3gz1p,2022-09-19 15:59:00.750,62a7970f8387f3fcc95b106b,2,27,30,31,28,31,Male,9402.1999999881,,static/images/instructions_CB_2/Slide19.png,39.0,,,,,,,,,,,,,,,,,,,,,,,,,,,
24,0,,html-keyboard-response,24,193272,0.0-4.0-0.0,qidsv3gz1p,2022-09-19 15:59:00.750,62a7970f8387f3fcc95b106b,2,27,30,31,28,31,Male,,,"<img src=""static/images/cards/stack_of_black_stars.svg"" width=""175px"" height=""250px""></img>",,,,,,,,,,,,,,,,,,,,,,,,,,,,
25,0,,html-keyboard-response,25,195459,0.0-4.0-1.0,qidsv3gz1p,2022-09-19 15:59:00.750,62a7970f8387f3fcc95b106b,2,27,30,31,28,31,Male,1682.0999999642,,"
  <table>
  <tr height=300>
    <td width=300 height=300><img src=""static/images/cards/back_of_black_stars.svg"" width=""175px"" height=""250px""></img></td>
    <td width=300 height=300><img src=""static/images/cards/back_of_black_stars.svg"" width=""175px"" height=""250px""></img></td>
  </tr>
  <tr height=200>
    <td width=300><img src=""static/images/keys/z.svg"" width=""35%"" height=""75%""></img></td>
    <td width=300><img src=""static/images/keys/m.svg"" width=""35%"" height=""75%""></img></td>
  </tr>
</table>
  ",90.0,1.0,,,,,,,,,,,,,,,,,,,,,,,,,,
26,0,,html-keyboard-response,26,196969,0.0-4.0-2.0,qidsv3gz1p,2022-09-19 15:59:00.750,62a7970f8387f3fcc95b106b,2,27,30,31,28,31,Male,,,"
  <table>
  <tr height=300>
    <td width=300 height=300><img src=""static/images/cards/2_of_black_stars.svg"" width=""175px"" height=""250px""></img></td>
    <td width=300 height=300><img src=""static/images/cards/back_of_black_stars.svg"" width=""175px"" height=""250px""></img></td>
  </tr>
  <tr height=200>
    <td width=300><img src=""static/images/keys/z.svg"" width=""35%"" height=""75%""></img></td>
    <td width=300><img src=""static/images/keys/m.svg"" width=""35%"" height=""75%""></img></td>
  </tr>
</table>
  ",,,,,,,,,,,,,,,,,,,,,,,,,,,,
27,0,,html-keyboard-response,27,198482,0.0-4.0-3.0,qidsv3gz1p,2022-09-19 15:59:00.750,62a7970f8387f3fcc95b106b,2,27,30,31,28,31,Male,,,"<p style=""font-size:50px"">You Lose!
No points this round.</p>",,,,,,,,,,,,,,,,,,,,,,,,,,,,
28,0,,html-keyboard-response,28,198990,0.0-4.0-4.0,qidsv3gz1p,2022-09-19 15:59:00.750,62a7970f8387f3fcc95b106b,2,27,30,31,28,31,Male,,,,,,1.0,learning,0.0,A,,black,,stars,,,,A,black,stars,,1.0,1.0,NA,left,1682.0999999642,2.0,0.0,0.0,,,
29,0,,html-keyboard-response,29,200503,0.0-4.1-0.1,qidsv3gz1p,2022-09-19 15:59:00.750,62a7970f8387f3fcc95b106b,2,27,30,31,28,31,Male,,,"<img src=""static/images/cards/stack_of_red_stars.svg"" width=""175px"" height=""250px""></img>",,,,,,,,,,,,,,,,,,,,,,,,,,,,
30,0,,html-keyboard-response,30,201653,0.0-4.1-1.1,qidsv3gz1p,2022-09-19 15:59:00.750,62a7970f8387f3fcc95b106b,2,27,30,31,28,31,Male,647.0,,"
  <table>
  <tr height=300>
    <td width=300 height=300><img src=""static/images/cards/back_of_red_stars.svg"" width=""175px"" height=""250px""></img></td>
    <td width=300 height=300><img src=""static/images/cards/back_of_red_stars.svg"" width=""175px"" height=""250px""></img></td>
  </tr>
  <tr height=200>
    <td width=300><img src=""static/images/keys/z.svg"" width=""35%"" height=""75%""></img></td>
    <td width=300></td>
  </tr>
</table>
  ",90.0,1.0,,,,,,,,,,,,,,,,,,,,,,,,,,
31,0,,html-keyboard-response,31,203157,0.0-4.1-2.1,qidsv3gz1p,2022-09-19 15:59:00.750,62a7970f8387f3fcc95b106b,2,27,30,31,28,31,Male,,,"
  <table>
  <tr height=300>
    <td width=300 height=300><img src=""static/images/cards/2_of_red_stars.svg"" width=""175px"" height=""250px""></img></td>
    <td width=300 height=300><img src=""static/images/cards/back_of_red_stars.svg"" width=""175px"" height=""250px""></img></td>
  </tr>
  <tr height=200>
    <td width=300><img src=""static/images/keys/z.svg"" width=""35%"" height=""75%""></img></td>
    <td width=300></td>
  </tr>
</table>
  ",,,,,,,,,,,,,,,,,,,,,,,,,,,,
32,0,,html-keyboard-response,32,204669,0.0-4.1-3.1,qidsv3gz1p,2022-09-19 15:59:00.750,62a7970f8387f3fcc95b106b,2,27,30,31,28,31,Male,,,"<p style=""font-size:50px"">You Lose!
No points this round.</p>",,,,,,,,,,,,,,,,,,,,,,,,,,,,
33,0,,html-keyboard-response,33,205182,0.0-4.1-4.1,qidsv3gz1p,2022-09-19 15:59:00.750,62a7970f8387f3fcc95b106b,2,27,30,31,28,31,Male,,,,,,1.0,learning,1.0,B,,red,,stars,,,,B,red,stars,,0.0,1.0,1,left,647.0,2.0,0.0,0.0,,,
34,0,,html-keyboard-response,34,206689,0.0-4.2-0.2,qidsv3gz1p,2022-09-19 15:59:00.750,62a7970f8387f3fcc95b106b,2,27,30,31,28,31,Male,,,"<img src=""static/images/cards/stack_of_black_moons.svg"" width=""175px"" height=""250px""></img>",,,,,,,,,,,,,,,,,,,,,,,,,,,,
35,0,,html-keyboard-response,35,208468,0.0-4.2-1.2,qidsv3gz1p,2022-09-19 15:59:00.750,62a7970f8387f3fcc95b106b,2,27,30,31,28,31,Male,1269.5,,"
  <table>
  <tr height=300>
    <td width=300 height=300><img src=""static/images/cards/back_of_black_moons.svg"" width=""175px"" height=""250px""></img></td>
    <td width=300 height=300><img src=""static/images/cards/back_of_black_moons.svg"" width=""175px"" height=""250px""></img></td>
  </tr>
  <tr height=200>
    <td width=300><img src=""static/images/keys/z.svg"" width=""35%"" height=""75%""></img></td>
    <td width=300><img src=""static/images/keys/m.svg"" width=""35%"" height=""75%""></img></td>
  </tr>
</table>
  ",77.0,1.0,,,,,,,,,,,,,,,,,,,,,,,,,,
36,0,,html-keyboard-response,36,209978,0.0-4.2-2.2,qidsv3gz1p,2022-09-19 15:59:00.750,62a7970f8387f3fcc95b106b,2,27,30,31,28,31,Male,,,"
  <table>
  <tr height=300>
    <td width=300 height=300><img src=""static/images/cards/back_of_black_moons.svg"" width=""175px"" height=""250px""></img></td>
    <td width=300 height=300><img src=""static/images/cards/6_of_black_moons.svg"" width=""175px"" height=""250px""></img></td>
  </tr>
  <tr height=200>
    <td width=300><img src=""static/images/keys/z.svg"" width=""35%"" height=""75%""></img></td>
    <td width=300><img src=""static/images/keys/m.svg"" width=""35%"" height=""75%""></img></td>
  </tr>
</table>
  ",,,,,,,,,,,,,,,,,,,,,,,,,,,,
37,0,,html-keyboard-response,37,211492,0.0-4.2-3.2,qidsv3gz1p,2022-09-19 15:59:00.750,62a7970f8387f3fcc95b106b,2,27,30,31,28,31,Male,,,"<p style=""font-size:50px"">You win!
+10 points this round!</p>",,,,,,,,,,,,,,,,,,,,,,,,,,,,
38,0,,html-keyboard-response,38,212004,0.0-4.2-4.2,qidsv3gz1p,2022-09-19 15:59:00.750,62a7970f8387f3fcc95b106b,2,27,30,31,28,31,Male,,,,,,1.0,learning,2.0,C,,black,,moons,,,,C,black,moons,,1.0,0.0,NA,right,1269.5,6.0,1.0,1.0,,,
39,0,,html-keyboard-response,39,213519,0.0-4.3-0.3,qidsv3gz1p,2022-09-19 15:59:00.750,62a7970f8387f3fcc95b106b,2,27,30,31,28,31,Male,,,"<img src=""static/images/cards/stack_of_red_moons.svg"" width=""175px"" height=""250px""></img>",,,,,,,,,,,,,,,,,,,,,,,,,,,,
40,0,,html-keyboard-response,40,214573,0.0-4.3-1.3,qidsv3gz1p,2022-09-19 15:59:00.750,62a7970f8387f3fcc95b106b,2,27,30,31,28,31,Male,545.8999999762,,"
  <table>
  <tr height=300>
    <td width=300 height=300><img src=""static/images/cards/back_of_red_moons.svg"" width=""175px"" height=""250px""></img></td>
    <td width=300 height=300><img src=""static/images/cards/back_of_red_moons.svg"" width=""175px"" height=""250px""></img></td>
  </tr>
  <tr height=200>
    <td width=300></td>
    <td width=300><img src=""static/images/keys/m.svg"" width=""35%"" height=""75%""></img></td>
  </tr>
</table>
  ",77.0,1.0,,,,,,,,,,,,,,,,,,,,,,,,,,
41,0,,html-keyboard-response,41,216088,0.0-4.3-2.3,qidsv3gz1p,2022-09-19 15:59:00.750,62a7970f8387f3fcc95b106b,2,27,30,31,28,31,Male,,,"
  <table>
  <tr height=300>
    <td width=300 height=300><img src=""static/images/cards/back_of_red_moons.svg"" width=""175px"" height=""250px""></img></td>
    <td width=300 height=300><img src=""static/images/cards/10_of_red_moons.svg"" width=""175px"" height=""250px""></img></td>
  </tr>
  <tr height=200>
    <td width=300></td>
    <td width=300><img src=""static/images/keys/m.svg"" width=""35%"" height=""75%""></img></td>
  </tr>
</table>
  ",,,,,,,,,,,,,,,,,,,,,,,,,,,,
42,0,,html-keyboard-response,42,217599,0.0-4.3-3.3,qidsv3gz1p,2022-09-19 15:59:00.750,62a7970f8387f3fcc95b106b,2,27,30,31,28,31,Male,,,"<p style=""font-size:50px"">You win!
+10 points this round!</p>",,,,,,,,,,,,,,,,,,,,,,,,,,,,
43,0,,html-keyboard-response,43,218106,0.0-4.3-4.3,qidsv3gz1p,2022-09-19 15:59:00.750,62a7970f8387f3fcc95b106b,2,27,30,31,28,31,Male,,,,,,1.0,learning,3.0,D,,red,,moons,,,,D,red,moons,,0.0,0.0,0,right,545.8999999762,10.0,1.0,1.0,,,
44,0,,html-keyboard-response,44,219617,0.0-4.4-0.4,qidsv3gz1p,2022-09-19 15:59:00.750,62a7970f8387f3fcc95b106b,2,27,30,31,28,31,Male,,,"<img src=""static/images/cards/stack_of_red_bolts.svg"" width=""175px"" height=""250px""></img>",,,,,,,,,,,,,,,,,,,,,,,,,,,,
45,0,,html-keyboard-response,45,220553,0.0-4.4-1.4,qidsv3gz1p,2022-09-19 15:59:00.750,62a7970f8387f3fcc95b106b,2,27,30,31,28,31,Male,430.6999999881,,"
  <table>
  <tr height=300>
    <td width=300 height=300><img src=""static/images/cards/back_of_red_bolts.svg"" width=""175px"" height=""250px""></img></td>
    <td width=300 height=300><img src=""static/images/cards/back_of_red_bolts.svg"" width=""175px"" height=""250px""></img></td>
  </tr>
  <tr height=200>
    <td width=300><img src=""static/images/keys/z.svg"" width=""35%"" height=""75%""></img></td>
    <td width=300><img src=""static/images/keys/m.svg"" width=""35%"" height=""75%""></img></td>
  </tr>
</table>
  ",90.0,1.0,,,,,,,,,,,,,,,,,,,,,,,,,,
46,0,,html-keyboard-response,46,222061,0.0-4.4-2.4,qidsv3gz1p,2022-09-19 15:59:00.750,62a7970f8387f3fcc95b106b,2,27,30,31,28,31,Male,,,"
  <table>
  <tr height=300>
    <td width=300 height=300><img src=""static/images/cards/2_of_red_bolts.svg"" width=""175px"" height=""250px""></img></td>
    <td width=300 height=300><img src=""static/images/cards/back_of_red_bolts.svg"" width=""175px"" height=""250px""></img></td>
  </tr>
  <tr height=200>
    <td width=300><img src=""static/images/keys/z.svg"" width=""35%"" height=""75%""></img></td>
    <td width=300><img src=""static/images/keys/m.svg"" width=""35%"" height=""75%""></img></td>
  </tr>
</table>
  ",,,,,,,,,,,,,,,,,,,,,,,,,,,,
47,0,,html-keyboard-response,47,223576,0.0-4.4-3.4,qidsv3gz1p,2022-09-19 15:59:00.750,62a7970f8387f3fcc95b106b,2,27,30,31,28,31,Male,,,"<p style=""font-size:50px"">You win!
+10 points this round!</p>",,,,,,,,,,,,,,,,,,,,,,,,,,,,
48,0,,html-keyboard-response,48,224086,0.0-4.4-4.4,qidsv3gz1p,2022-09-19 15:59:00.750,62a7970f8387f3fcc95b106b,2,27,30,31,28,31,Male,,,,,,1.0,learning,4.0,Xc,,red,,bolts,,,,Xc,red,bolts,,1.0,0.0,NA,left,430.6999999881,2.0,0.0,1.0,,,
49,0,,html-keyboard-response,49,225592,0.0-4.5-0.5,qidsv3gz1p,2022-09-19 15:59:00.750,62a7970f8387f3fcc95b106b,2,27,30,31,28,31,Male,,,"<img src=""static/images/cards/stack_of_black_bolts.svg"" width=""175px"" height=""250px""></img>",,,,,,,,,,,,,,,,,,,,,,,,,,,,
50,0,,html-keyboard-response,50,226782,0.0-4.5-1.5,qidsv3gz1p,2022-09-19 15:59:00.750,62a7970f8387f3fcc95b106b,2,27,30,31,28,31,Male,683.6000000238,,"
  <table>
  <tr height=300>
    <td width=300 height=300><img src=""static/images/cards/back_of_black_bolts.svg"" width=""175px"" height=""250px""></img></td>
    <td width=300 height=300><img src=""static/images/cards/back_of_black_bolts.svg"" width=""175px"" height=""250px""></img></td>
  </tr>
  <tr height=200>
    <td width=300><img src=""static/images/keys/z.svg"" width=""35%"" height=""75%""></img></td>
    <td width=300></td>
  </tr>
</table>
  ",90.0,1.0,,,,,,,,,,,,,,,,,,,,,,,,,,
51,0,,html-keyboard-response,51,228300,0.0-4.5-2.5,qidsv3gz1p,2022-09-19 15:59:00.750,62a7970f8387f3fcc95b106b,2,27,30,31,28,31,Male,,,"
  <table>
  <tr height=300>
    <td width=300 height=300><img src=""static/images/cards/9_of_black_bolts.svg"" width=""175px"" height=""250px""></img></td>
    <td width=300 height=300><img src=""static/images/cards/back_of_black_bolts.svg"" width=""175px"" height=""250px""></img></td>
  </tr>
  <tr height=200>
    <td width=300><img src=""static/images/keys/z.svg"" width=""35%"" height=""75%""></img></td>
    <td width=300></td>
  </tr>
</table>
  ",,,,,,,,,,,,,,,,,,,,,,,,,,,,
52,0,,html-keyboard-response,52,229823,0.0-4.5-3.5,qidsv3gz1p,2022-09-19 15:59:00.750,62a7970f8387f3fcc95b106b,2,27,30,31,28,31,Male,,,"<p style=""font-size:50px"">You win!
+10 points this round!</p>",,,,,,,,,,,,,,,,,,,,,,,,,,,,
53,0,,html-keyboard-response,53,230331,0.0-4.5-4.5,qidsv3gz1p,2022-09-19 15:59:00.750,62a7970f8387f3fcc95b106b,2,27,30,31,28,31,Male,,,,,,1.0,learning,5.0,Xnc,,black,,bolts,,,,Xnc,black,bolts,,0.0,0.0,1,left,683.6000000238,9.0,1.0,1.0,,,
54,0,,html-keyboard-response,54,231836,0.0-4.6-0.6,qidsv3gz1p,2022-09-19 15:59:00.750,62a7970f8387f3fcc95b106b,2,27,30,31,28,31,Male,,,"<img src=""static/images/cards/stack_of_black_stars.svg"" width=""175px"" height=""250px""></img>",,,,,,,,,,,,,,,,,,,,,,,,,,,,
55,0,,html-keyboard-response,55,233230,0.0-4.6-1.6,qidsv3gz1p,2022-09-19 15:59:00.750,62a7970f8387f3fcc95b106b,2,27,30,31,28,31,Male,892.0,,"
  <table>
  <tr height=300>
    <td width=300 height=300><img src=""static/images/cards/back_of_black_stars.svg"" width=""175px"" height=""250px""></img></td>
    <td width=300 height=300><img src=""static/images/cards/back_of_black_stars.svg"" width=""175px"" height=""250px""></img></td>
  </tr>
  <tr height=200>
    <td width=300><img src=""static/images/keys/z.svg"" width=""35%"" height=""75%""></img></td>
    <td width=300><img src=""static/images/keys/m.svg"" width=""35%"" height=""75%""></img></td>
  </tr>
</table>
  ",77.0,1.0,,,,,,,,,,,,,,,,,,,,,,,,,,
56,0,,html-keyboard-response,56,234733,0.0-4.6-2.6,qidsv3gz1p,2022-09-19 15:59:00.750,62a7970f8387f3fcc95b106b,2,27,30,31,28,31,Male,,,"
  <table>
  <tr height=300>
    <td width=300 height=300><img src=""static/images/cards/back_of_black_stars.svg"" width=""175px"" height=""250px""></img></td>
    <td width=300 height=300><img src=""static/images/cards/9_of_black_stars.svg"" width=""175px"" height=""250px""></img></td>
  </tr>
  <tr height=200>
    <td width=300><img src=""static/images/keys/z.svg"" width=""35%"" height=""75%""></img></td>
    <td width=300><img src=""static/images/keys/m.svg"" width=""35%"" height=""75%""></img></td>
  </tr>
</table>
  ",,,,,,,,,,,,,,,,,,,,,,,,,,,,
57,0,,html-keyboard-response,57,236241,0.0-4.6-3.6,qidsv3gz1p,2022-09-19 15:59:00.750,62a7970f8387f3fcc95b106b,2,27,30,31,28,31,Male,,,"<p style=""font-size:50px"">You win!
+10 points this round!</p>",,,,,,,,,,,,,,,,,,,,,,,,,,,,
58,0,,html-keyboard-response,58,236750,0.0-4.6-4.6,qidsv3gz1p,2022-09-19 15:59:00.750,62a7970f8387f3fcc95b106b,2,27,30,31,28,31,Male,,,,,,1.0,learning,6.0,A,,black,,stars,,,,A,black,stars,,1.0,1.0,NA,right,892.0,9.0,1.0,1.0,,,
59,0,,html-keyboard-response,59,238268,0.0-4.7-0.7,qidsv3gz1p,2022-09-19 15:59:00.750,62a7970f8387f3fcc95b106b,2,27,30,31,28,31,Male,,,"<img src=""static/images/cards/stack_of_red_stars.svg"" width=""175px"" height=""250px""></img>",,,,,,,,,,,,,,,,,,,,,,,,,,,,
60,0,,html-keyboard-response,60,239425,0.0-4.7-1.7,qidsv3gz1p,2022-09-19 15:59:00.750,62a7970f8387f3fcc95b106b,2,27,30,31,28,31,Male,640.6999999881,,"
  <table>
  <tr height=300>
    <td width=300 height=300><img src=""static/images/cards/back_of_red_stars.svg"" width=""175px"" height=""250px""></img></td>
    <td width=300 height=300><img src=""static/images/cards/back_of_red_stars.svg"" width=""175px"" height=""250px""></img></td>
  </tr>
  <tr height=200>
    <td width=300><img src=""static/images/keys/z.svg"" width=""35%"" height=""75%""></img></td>
    <td width=300></td>
  </tr>
</table>
  ",90.0,1.0,,,,,,,,,,,,,,,,,,,,,,,,,,
61,0,,html-keyboard-response,61,240936,0.0-4.7-2.7,qidsv3gz1p,2022-09-19 15:59:00.750,62a7970f8387f3fcc95b106b,2,27,30,31,28,31,Male,,,"
  <table>
  <tr height=300>
    <td width=300 height=300><img src=""static/images/cards/3_of_red_stars.svg"" width=""175px"" height=""250px""></img></td>
    <td width=300 height=300><img src=""static/images/cards/back_of_red_stars.svg"" width=""175px"" height=""250px""></img></td>
  </tr>
  <tr height=200>
    <td width=300><img src=""static/images/keys/z.svg"" width=""35%"" height=""75%""></img></td>
    <td width=300></td>
  </tr>
</table>
  ",,,,,,,,,,,,,,,,,,,,,,,,,,,,
62,0,,html-keyboard-response,62,242444,0.0-4.7-3.7,qidsv3gz1p,2022-09-19 15:59:00.750,62a7970f8387f3fcc95b106b,2,27,30,31,28,31,Male,,,"<p style=""font-size:50px"">You Lose!
No points this round.</p>",,,,,,,,,,,,,,,,,,,,,,,,,,,,
63,0,,html-keyboard-response,63,242952,0.0-4.7-4.7,qidsv3gz1p,2022-09-19 15:59:00.750,62a7970f8387f3fcc95b106b,2,27,30,31,28,31,Male,,,,,,1.0,learning,7.0,B,,red,,stars,,,,B,red,stars,,0.0,1.0,1,left,640.6999999881,3.0,0.0,0.0,,,
64,0,,html-keyboard-response,64,244465,0.0-4.8-0.8,qidsv3gz1p,2022-09-19 15:59:00.750,62a7970f8387f3fcc95b106b,2,27,30,31,28,31,Male,,,"<img src=""static/images/cards/stack_of_black_moons.svg"" width=""175px"" height=""250px""></img>",,,,,,,,,,,,,,,,,,,,,,,,,,,,
65,0,,html-keyboard-response,65,246022,0.0-4.8-1.8,qidsv3gz1p,2022-09-19 15:59:00.750,62a7970f8387f3fcc95b106b,2,27,30,31,28,31,Male,1051.8000000119,,"
  <table>
  <tr height=300>
    <td width=300 height=300><img src=""static/images/cards/back_of_black_moons.svg"" width=""175px"" height=""250px""></img></td>
    <td width=300 height=300><img src=""static/images/cards/back_of_black_moons.svg"" width=""175px"" height=""250px""></img></td>
  </tr>
  <tr height=200>
    <td width=300><img src=""static/images/keys/z.svg"" width=""35%"" height=""75%""></img></td>
    <td width=300><img src=""static/images/keys/m.svg"" width=""35%"" height=""75%""></img></td>
  </tr>
</table>
  ",77.0,1.0,,,,,,,,,,,,,,,,,,,,,,,,,,
66,0,,html-keyboard-response,66,247530,0.0-4.8-2.8,qidsv3gz1p,2022-09-19 15:59:00.750,62a7970f8387f3fcc95b106b,2,27,30,31,28,31,Male,,,"
  <table>
  <tr height=300>
    <td width=300 height=300><img src=""static/images/cards/back_of_black_moons.svg"" width=""175px"" height=""250px""></img></td>
    <td width=300 height=300><img src=""static/images/cards/3_of_black_moons.svg"" width=""175px"" height=""250px""></img></td>
  </tr>
  <tr height=200>
    <td width=300><img src=""static/images/keys/z.svg"" width=""35%"" height=""75%""></img></td>
    <td width=300><img src=""static/images/keys/m.svg"" width=""35%"" height=""75%""></img></td>
  </tr>
</table>
  ",,,,,,,,,,,,,,,,,,,,,,,,,,,,
67,0,,html-keyboard-response,67,249048,0.0-4.8-3.8,qidsv3gz1p,2022-09-19 15:59:00.750,62a7970f8387f3fcc95b106b,2,27,30,31,28,31,Male,,,"<p style=""font-size:50px"">You win!
+10 points this round!</p>",,,,,,,,,,,,,,,,,,,,,,,,,,,,
68,0,,html-keyboard-response,68,249554,0.0-4.8-4.8,qidsv3gz1p,2022-09-19 15:59:00.750,62a7970f8387f3fcc95b106b,2,27,30,31,28,31,Male,,,,,,1.0,learning,8.0,C,,black,,moons,,,,C,black,moons,,1.0,0.0,NA,right,1051.8000000119,3.0,0.0,1.0,,,
69,0,,html-keyboard-response,69,251059,0.0-4.9-0.9,qidsv3gz1p,2022-09-19 15:59:00.750,62a7970f8387f3fcc95b106b,2,27,30,31,28,31,Male,,,"<img src=""static/images/cards/stack_of_red_moons.svg"" width=""175px"" height=""250px""></img>",,,,,,,,,,,,,,,,,,,,,,,,,,,,
70,0,,html-keyboard-response,70,252375,0.0-4.9-1.9,qidsv3gz1p,2022-09-19 15:59:00.750,62a7970f8387f3fcc95b106b,2,27,30,31,28,31,Male,812.1999999881,,"
  <table>
  <tr height=300>
    <td width=300 height=300><img src=""static/images/cards/back_of_red_moons.svg"" width=""175px"" height=""250px""></img></td>
    <td width=300 height=300><img src=""static/images/cards/back_of_red_moons.svg"" width=""175px"" height=""250px""></img></td>
  </tr>
  <tr height=200>
    <td width=300></td>
    <td width=300><img src=""static/images/keys/m.svg"" width=""35%"" height=""75%""></img></td>
  </tr>
</table>
  ",77.0,1.0,,,,,,,,,,,,,,,,,,,,,,,,,,
71,0,,html-keyboard-response,71,253889,0.0-4.9-2.9,qidsv3gz1p,2022-09-19 15:59:00.750,62a7970f8387f3fcc95b106b,2,27,30,31,28,31,Male,,,"
  <table>
  <tr height=300>
    <td width=300 height=300><img src=""static/images/cards/back_of_red_moons.svg"" width=""175px"" height=""250px""></img></td>
    <td width=300 height=300><img src=""static/images/cards/1_of_red_moons.svg"" width=""175px"" height=""250px""></img></td>
  </tr>
  <tr height=200>
    <td width=300></td>
    <td width=300><img src=""static/images/keys/m.svg"" width=""35%"" height=""75%""></img></td>
  </tr>
</table>
  ",,,,,,,,,,,,,,,,,,,,,,,,,,,,
72,0,,html-keyboard-response,72,255406,0.0-4.9-3.9,qidsv3gz1p,2022-09-19 15:59:00.750,62a7970f8387f3fcc95b106b,2,27,30,31,28,31,Male,,,"<p style=""font-size:50px"">You win!
+10 points this round!</p>",,,,,,,,,,,,,,,,,,,,,,,,,,,,
73,0,,html-keyboard-response,73,255923,0.0-4.9-4.9,qidsv3gz1p,2022-09-19 15:59:00.750,62a7970f8387f3fcc95b106b,2,27,30,31,28,31,Male,,,,,,1.0,learning,9.0,D,,red,,moons,,,,D,red,moons,,0.0,0.0,0,right,812.1999999881,1.0,0.0,1.0,,,
74,0,,html-keyboard-response,74,257440,0.0-4.10-0.10,qidsv3gz1p,2022-09-19 15:59:00.750,62a7970f8387f3fcc95b106b,2,27,30,31,28,31,Male,,,"<img src=""static/images/cards/stack_of_red_bolts.svg"" width=""175px"" height=""250px""></img>",,,,,,,,,,,,,,,,,,,,,,,,,,,,
75,0,,html-keyboard-response,75,259005,0.0-4.10-1.10,qidsv3gz1p,2022-09-19 15:59:00.750,62a7970f8387f3fcc95b106b,2,27,30,31,28,31,Male,1055.6000000238,,"
  <table>
  <tr height=300>
    <td width=300 height=300><img src=""static/images/cards/back_of_red_bolts.svg"" width=""175px"" height=""250px""></img></td>
    <td width=300 height=300><img src=""static/images/cards/back_of_red_bolts.svg"" width=""175px"" height=""250px""></img></td>
  </tr>
  <tr height=200>
    <td width=300><img src=""static/images/keys/z.svg"" width=""35%"" height=""75%""></img></td>
    <td width=300><img src=""static/images/keys/m.svg"" width=""35%"" height=""75%""></img></td>
  </tr>
</table>
  ",77.0,1.0,,,,,,,,,,,,,,,,,,,,,,,,,,
76,0,,html-keyboard-response,76,260516,0.0-4.10-2.10,qidsv3gz1p,2022-09-19 15:59:00.750,62a7970f8387f3fcc95b106b,2,27,30,31,28,31,Male,,,"
  <table>
  <tr height=300>
    <td width=300 height=300><img src=""static/images/cards/back_of_red_bolts.svg"" width=""175px"" height=""250px""></img></td>
    <td width=300 height=300><img src=""static/images/cards/2_of_red_bolts.svg"" width=""175px"" height=""250px""></img></td>
  </tr>
  <tr height=200>
    <td width=300><img src=""static/images/keys/z.svg"" width=""35%"" height=""75%""></img></td>
    <td width=300><img src=""static/images/keys/m.svg"" width=""35%"" height=""75%""></img></td>
  </tr>
</table>
  ",,,,,,,,,,,,,,,,,,,,,,,,,,,,
77,0,,html-keyboard-response,77,262030,0.0-4.10-3.10,qidsv3gz1p,2022-09-19 15:59:00.750,62a7970f8387f3fcc95b106b,2,27,30,31,28,31,Male,,,"<p style=""font-size:50px"">You win!
+10 points this round!</p>",,,,,,,,,,,,,,,,,,,,,,,,,,,,
78,0,,html-keyboard-response,78,262538,0.0-4.10-4.10,qidsv3gz1p,2022-09-19 15:59:00.750,62a7970f8387f3fcc95b106b,2,27,30,31,28,31,Male,,,,,,1.0,learning,10.0,Xc,,red,,bolts,,,,Xc,red,bolts,,1.0,0.0,NA,right,1055.6000000238,2.0,0.0,1.0,,,
79,0,,html-keyboard-response,79,264048,0.0-4.11-0.11,qidsv3gz1p,2022-09-19 15:59:00.750,62a7970f8387f3fcc95b106b,2,27,30,31,28,31,Male,,,"<img src=""static/images/cards/stack_of_black_bolts.svg"" width=""175px"" height=""250px""></img>",,,,,,,,,,,,,,,,,,,,,,,,,,,,
80,0,,html-keyboard-response,80,265005,0.0-4.11-1.11,qidsv3gz1p,2022-09-19 15:59:00.750,62a7970f8387f3fcc95b106b,2,27,30,31,28,31,Male,451.2000000477,,"
  <table>
  <tr height=300>
    <td width=300 height=300><img src=""static/images/cards/back_of_black_bolts.svg"" width=""175px"" height=""250px""></img></td>
    <td width=300 height=300><img src=""static/images/cards/back_of_black_bolts.svg"" width=""175px"" height=""250px""></img></td>
  </tr>
  <tr height=200>
    <td width=300><img src=""static/images/keys/z.svg"" width=""35%"" height=""75%""></img></td>
    <td width=300></td>
  </tr>
</table>
  ",90.0,1.0,,,,,,,,,,,,,,,,,,,,,,,,,,
81,0,,html-keyboard-response,81,266520,0.0-4.11-2.11,qidsv3gz1p,2022-09-19 15:59:00.750,62a7970f8387f3fcc95b106b,2,27,30,31,28,31,Male,,,"
  <table>
  <tr height=300>
    <td width=300 height=300><img src=""static/images/cards/3_of_black_bolts.svg"" width=""175px"" height=""250px""></img></td>
    <td width=300 height=300><img src=""static/images/cards/back_of_black_bolts.svg"" width=""175px"" height=""250px""></img></td>
  </tr>
  <tr height=200>
    <td width=300><img src=""static/images/keys/z.svg"" width=""35%"" height=""75%""></img></td>
    <td width=300></td>
  </tr>
</table>
  ",,,,,,,,,,,,,,,,,,,,,,,,,,,,
82,0,,html-keyboard-response,82,268035,0.0-4.11-3.11,qidsv3gz1p,2022-09-19 15:59:00.750,62a7970f8387f3fcc95b106b,2,27,30,31,28,31,Male,,,"<p style=""font-size:50px"">You win!
+10 points this round!</p>",,,,,,,,,,,,,,,,,,,,,,,,,,,,
83,0,,html-keyboard-response,83,268543,0.0-4.11-4.11,qidsv3gz1p,2022-09-19 15:59:00.750,62a7970f8387f3fcc95b106b,2,27,30,31,28,31,Male,,,,,,1.0,learning,11.0,Xnc,,black,,bolts,,,,Xnc,black,bolts,,0.0,0.0,1,left,451.2000000477,3.0,0.0,1.0,,,
84,0,,html-keyboard-response,84,270049,0.0-4.12-0.12,qidsv3gz1p,2022-09-19 15:59:00.750,62a7970f8387f3fcc95b106b,2,27,30,31,28,31,Male,,,"<img src=""static/images/cards/stack_of_black_stars.svg"" width=""175px"" height=""250px""></img>",,,,,,,,,,,,,,,,,,,,,,,,,,,,
85,0,,html-keyboard-response,85,272645,0.0-4.12-1.12,qidsv3gz1p,2022-09-19 15:59:00.750,62a7970f8387f3fcc95b106b,2,27,30,31,28,31,Male,2092.5999999642,,"
  <table>
  <tr height=300>
    <td width=300 height=300><img src=""static/images/cards/back_of_black_stars.svg"" width=""175px"" height=""250px""></img></td>
    <td width=300 height=300><img src=""static/images/cards/back_of_black_stars.svg"" width=""175px"" height=""250px""></img></td>
  </tr>
  <tr height=200>
    <td width=300><img src=""static/images/keys/z.svg"" width=""35%"" height=""75%""></img></td>
    <td width=300><img src=""static/images/keys/m.svg"" width=""35%"" height=""75%""></img></td>
  </tr>
</table>
  ",77.0,1.0,,,,,,,,,,,,,,,,,,,,,,,,,,
86,0,,html-keyboard-response,86,274149,0.0-4.12-2.12,qidsv3gz1p,2022-09-19 15:59:00.750,62a7970f8387f3fcc95b106b,2,27,30,31,28,31,Male,,,"
  <table>
  <tr height=300>
    <td width=300 height=300><img src=""static/images/cards/back_of_black_stars.svg"" width=""175px"" height=""250px""></img></td>
    <td width=300 height=300><img src=""static/images/cards/7_of_black_stars.svg"" width=""175px"" height=""250px""></img></td>
  </tr>
  <tr height=200>
    <td width=300><img src=""static/images/keys/z.svg"" width=""35%"" height=""75%""></img></td>
    <td width=300><img src=""static/images/keys/m.svg"" width=""35%"" height=""75%""></img></td>
  </tr>
</table>
  ",,,,,,,,,,,,,,,,,,,,,,,,,,,,
87,0,,html-keyboard-response,87,275660,0.0-4.12-3.12,qidsv3gz1p,2022-09-19 15:59:00.750,62a7970f8387f3fcc95b106b,2,27,30,31,28,31,Male,,,"<p style=""font-size:50px"">You win!
+10 points this round!</p>",,,,,,,,,,,,,,,,,,,,,,,,,,,,
88,0,,html-keyboard-response,88,276170,0.0-4.12-4.12,qidsv3gz1p,2022-09-19 15:59:00.750,62a7970f8387f3fcc95b106b,2,27,30,31,28,31,Male,,,,,,1.0,learning,12.0,A,,black,,stars,,,,A,black,stars,,1.0,1.0,NA,right,2092.5999999642,7.0,1.0,1.0,,,
89,0,,html-keyboard-response,89,277678,0.0-4.13-0.13,qidsv3gz1p,2022-09-19 15:59:00.750,62a7970f8387f3fcc95b106b,2,27,30,31,28,31,Male,,,"<img src=""static/images/cards/stack_of_red_stars.svg"" width=""175px"" height=""250px""></img>",,,,,,,,,,,,,,,,,,,,,,,,,,,,
90,0,,html-keyboard-response,90,278774,0.0-4.13-1.13,qidsv3gz1p,2022-09-19 15:59:00.750,62a7970f8387f3fcc95b106b,2,27,30,31,28,31,Male,588.3000000119,,"
  <table>
  <tr height=300>
    <td width=300 height=300><img src=""static/images/cards/back_of_red_stars.svg"" width=""175px"" height=""250px""></img></td>
    <td width=300 height=300><img src=""static/images/cards/back_of_red_stars.svg"" width=""175px"" height=""250px""></img></td>
  </tr>
  <tr height=200>
    <td width=300></td>
    <td width=300><img src=""static/images/keys/m.svg"" width=""35%"" height=""75%""></img></td>
  </tr>
</table>
  ",77.0,1.0,,,,,,,,,,,,,,,,,,,,,,,,,,
91,0,,html-keyboard-response,91,280286,0.0-4.13-2.13,qidsv3gz1p,2022-09-19 15:59:00.750,62a7970f8387f3fcc95b106b,2,27,30,31,28,31,Male,,,"
  <table>
  <tr height=300>
    <td width=300 height=300><img src=""static/images/cards/back_of_red_stars.svg"" width=""175px"" height=""250px""></img></td>
    <td width=300 height=300><img src=""static/images/cards/7_of_red_stars.svg"" width=""175px"" height=""250px""></img></td>
  </tr>
  <tr height=200>
    <td width=300></td>
    <td width=300><img src=""static/images/keys/m.svg"" width=""35%"" height=""75%""></img></td>
  </tr>
</table>
  ",,,,,,,,,,,,,,,,,,,,,,,,,,,,
92,0,,html-keyboard-response,92,281799,0.0-4.13-3.13,qidsv3gz1p,2022-09-19 15:59:00.750,62a7970f8387f3fcc95b106b,2,27,30,31,28,31,Male,,,"<p style=""font-size:50px"">You win!
+10 points this round!</p>",,,,,,,,,,,,,,,,,,,,,,,,,,,,
93,0,,html-keyboard-response,93,282307,0.0-4.13-4.13,qidsv3gz1p,2022-09-19 15:59:00.750,62a7970f8387f3fcc95b106b,2,27,30,31,28,31,Male,,,,,,1.0,learning,13.0,B,,red,,stars,,,,B,red,stars,,0.0,1.0,0,right,588.3000000119,7.0,1.0,1.0,,,
94,0,,html-keyboard-response,94,283817,0.0-4.14-0.14,qidsv3gz1p,2022-09-19 15:59:00.750,62a7970f8387f3fcc95b106b,2,27,30,31,28,31,Male,,,"<img src=""static/images/cards/stack_of_black_moons.svg"" width=""175px"" height=""250px""></img>",,,,,,,,,,,,,,,,,,,,,,,,,,,,
95,0,,html-keyboard-response,95,284877,0.0-4.14-1.14,qidsv3gz1p,2022-09-19 15:59:00.750,62a7970f8387f3fcc95b106b,2,27,30,31,28,31,Male,557.5,,"
  <table>
  <tr height=300>
    <td width=300 height=300><img src=""static/images/cards/back_of_black_moons.svg"" width=""175px"" height=""250px""></img></td>
    <td width=300 height=300><img src=""static/images/cards/back_of_black_moons.svg"" width=""175px"" height=""250px""></img></td>
  </tr>
  <tr height=200>
    <td width=300><img src=""static/images/keys/z.svg"" width=""35%"" height=""75%""></img></td>
    <td width=300><img src=""static/images/keys/m.svg"" width=""35%"" height=""75%""></img></td>
  </tr>
</table>
  ",90.0,1.0,,,,,,,,,,,,,,,,,,,,,,,,,,
96,0,,html-keyboard-response,96,286382,0.0-4.14-2.14,qidsv3gz1p,2022-09-19 15:59:00.750,62a7970f8387f3fcc95b106b,2,27,30,31,28,31,Male,,,"
  <table>
  <tr height=300>
    <td width=300 height=300><img src=""static/images/cards/3_of_black_moons.svg"" width=""175px"" height=""250px""></img></td>
    <td width=300 height=300><img src=""static/images/cards/back_of_black_moons.svg"" width=""175px"" height=""250px""></img></td>
  </tr>
  <tr height=200>
    <td width=300><img src=""static/images/keys/z.svg"" width=""35%"" height=""75%""></img></td>
    <td width=300><img src=""static/images/keys/m.svg"" width=""35%"" height=""75%""></img></td>
  </tr>
</table>
  ",,,,,,,,,,,,,,,,,,,,,,,,,,,,
97,0,,html-keyboard-response,97,287904,0.0-4.14-3.14,qidsv3gz1p,2022-09-19 15:59:00.750,62a7970f8387f3fcc95b106b,2,27,30,31,28,31,Male,,,"<p style=""font-size:50px"">You win!
+10 points this round!</p>",,,,,,,,,,,,,,,,,,,,,,,,,,,,
98,0,,html-keyboard-response,98,288413,0.0-4.14-4.14,qidsv3gz1p,2022-09-19 15:59:00.750,62a7970f8387f3fcc95b106b,2,27,30,31,28,31,Male,,,,,,1.0,learning,14.0,C,,black,,moons,,,,C,black,moons,,1.0,0.0,NA,left,557.5,3.0,0.0,1.0,,,
99,0,,html-keyboard-response,99,289927,0.0-4.15-0.15,qidsv3gz1p,2022-09-19 15:59:00.750,62a7970f8387f3fcc95b106b,2,27,30,31,28,31,Male,,,"<img src=""static/images/cards/stack_of_red_moons.svg"" width=""175px"" height=""250px""></img>",,,,,,,,,,,,,,,,,,,,,,,,,,,,
100,0,,html-keyboard-response,100,291161,0.0-4.15-1.15,qidsv3gz1p,2022-09-19 15:59:00.750,62a7970f8387f3fcc95b106b,2,27,30,31,28,31,Male,726.5,,"
  <table>
  <tr height=300>
    <td width=300 height=300><img src=""static/images/cards/back_of_red_moons.svg"" width=""175px"" height=""250px""></img></td>
    <td width=300 height=300><img src=""static/images/cards/back_of_red_moons.svg"" width=""175px"" height=""250px""></img></td>
  </tr>
  <tr height=200>
    <td width=300></td>
    <td width=300><img src=""static/images/keys/m.svg"" width=""35%"" height=""75%""></img></td>
  </tr>
</table>
  ",77.0,1.0,,,,,,,,,,,,,,,,,,,,,,,,,,
101,0,,html-keyboard-response,101,292672,0.0-4.15-2.15,qidsv3gz1p,2022-09-19 15:59:00.750,62a7970f8387f3fcc95b106b,2,27,30,31,28,31,Male,,,"
  <table>
  <tr height=300>
    <td width=300 height=300><img src=""static/images/cards/back_of_red_moons.svg"" width=""175px"" height=""250px""></img></td>
    <td width=300 height=300><img src=""static/images/cards/1_of_red_moons.svg"" width=""175px"" height=""250px""></img></td>
  </tr>
  <tr height=200>
    <td width=300></td>
    <td width=300><img src=""static/images/keys/m.svg"" width=""35%"" height=""75%""></img></td>
  </tr>
</table>
  ",,,,,,,,,,,,,,,,,,,,,,,,,,,,
102,0,,html-keyboard-response,102,294196,0.0-4.15-3.15,qidsv3gz1p,2022-09-19 15:59:00.750,62a7970f8387f3fcc95b106b,2,27,30,31,28,31,Male,,,"<p style=""font-size:50px"">You win!
+10 points this round!</p>",,,,,,,,,,,,,,,,,,,,,,,,,,,,
103,0,,html-keyboard-response,103,294704,0.0-4.15-4.15,qidsv3gz1p,2022-09-19 15:59:00.750,62a7970f8387f3fcc95b106b,2,27,30,31,28,31,Male,,,,,,1.0,learning,15.0,D,,red,,moons,,,,D,red,moons,,0.0,0.0,0,right,726.5,1.0,0.0,1.0,,,
104,0,,html-keyboard-response,104,296220,0.0-4.16-0.16,qidsv3gz1p,2022-09-19 15:59:00.750,62a7970f8387f3fcc95b106b,2,27,30,31,28,31,Male,,,"<img src=""static/images/cards/stack_of_red_bolts.svg"" width=""175px"" height=""250px""></img>",,,,,,,,,,,,,,,,,,,,,,,,,,,,
105,0,,html-keyboard-response,105,297090,0.0-4.16-1.16,qidsv3gz1p,2022-09-19 15:59:00.750,62a7970f8387f3fcc95b106b,2,27,30,31,28,31,Male,363.1000000238,,"
  <table>
  <tr height=300>
    <td width=300 height=300><img src=""static/images/cards/back_of_red_bolts.svg"" width=""175px"" height=""250px""></img></td>
    <td width=300 height=300><img src=""static/images/cards/back_of_red_bolts.svg"" width=""175px"" height=""250px""></img></td>
  </tr>
  <tr height=200>
    <td width=300><img src=""static/images/keys/z.svg"" width=""35%"" height=""75%""></img></td>
    <td width=300><img src=""static/images/keys/m.svg"" width=""35%"" height=""75%""></img></td>
  </tr>
</table>
  ",77.0,1.0,,,,,,,,,,,,,,,,,,,,,,,,,,
106,0,,html-keyboard-response,106,298602,0.0-4.16-2.16,qidsv3gz1p,2022-09-19 15:59:00.750,62a7970f8387f3fcc95b106b,2,27,30,31,28,31,Male,,,"
  <table>
  <tr height=300>
    <td width=300 height=300><img src=""static/images/cards/back_of_red_bolts.svg"" width=""175px"" height=""250px""></img></td>
    <td width=300 height=300><img src=""static/images/cards/8_of_red_bolts.svg"" width=""175px"" height=""250px""></img></td>
  </tr>
  <tr height=200>
    <td width=300><img src=""static/images/keys/z.svg"" width=""35%"" height=""75%""></img></td>
    <td width=300><img src=""static/images/keys/m.svg"" width=""35%"" height=""75%""></img></td>
  </tr>
</table>
  ",,,,,,,,,,,,,,,,,,,,,,,,,,,,
107,0,,html-keyboard-response,107,300114,0.0-4.16-3.16,qidsv3gz1p,2022-09-19 15:59:00.750,62a7970f8387f3fcc95b106b,2,27,30,31,28,31,Male,,,"<p style=""font-size:50px"">You win!
+10 points this round!</p>",,,,,,,,,,,,,,,,,,,,,,,,,,,,
108,0,,html-keyboard-response,108,300620,0.0-4.16-4.16,qidsv3gz1p,2022-09-19 15:59:00.750,62a7970f8387f3fcc95b106b,2,27,30,31,28,31,Male,,,,,,1.0,learning,16.0,Xc,,red,,bolts,,,,Xc,red,bolts,,1.0,0.0,NA,right,363.1000000238,8.0,1.0,1.0,,,
109,0,,html-keyboard-response,109,302129,0.0-4.17-0.17,qidsv3gz1p,2022-09-19 15:59:00.750,62a7970f8387f3fcc95b106b,2,27,30,31,28,31,Male,,,"<img src=""static/images/cards/stack_of_black_bolts.svg"" width=""175px"" height=""250px""></img>",,,,,,,,,,,,,,,,,,,,,,,,,,,,
110,0,,html-keyboard-response,110,303457,0.0-4.17-1.17,qidsv3gz1p,2022-09-19 15:59:00.750,62a7970f8387f3fcc95b106b,2,27,30,31,28,31,Male,820.3000000119,,"
  <table>
  <tr height=300>
    <td width=300 height=300><img src=""static/images/cards/back_of_black_bolts.svg"" width=""175px"" height=""250px""></img></td>
    <td width=300 height=300><img src=""static/images/cards/back_of_black_bolts.svg"" width=""175px"" height=""250px""></img></td>
  </tr>
  <tr height=200>
    <td width=300><img src=""static/images/keys/z.svg"" width=""35%"" height=""75%""></img></td>
    <td width=300></td>
  </tr>
</table>
  ",90.0,1.0,,,,,,,,,,,,,,,,,,,,,,,,,,
111,0,,html-keyboard-response,111,304961,0.0-4.17-2.17,qidsv3gz1p,2022-09-19 15:59:00.750,62a7970f8387f3fcc95b106b,2,27,30,31,28,31,Male,,,"
  <table>
  <tr height=300>
    <td width=300 height=300><img src=""static/images/cards/2_of_black_bolts.svg"" width=""175px"" height=""250px""></img></td>
    <td width=300 height=300><img src=""static/images/cards/back_of_black_bolts.svg"" width=""175px"" height=""250px""></img></td>
  </tr>
  <tr height=200>
    <td width=300><img src=""static/images/keys/z.svg"" width=""35%"" height=""75%""></img></td>
    <td width=300></td>
  </tr>
</table>
  ",,,,,,,,,,,,,,,,,,,,,,,,,,,,
112,0,,html-keyboard-response,112,306466,0.0-4.17-3.17,qidsv3gz1p,2022-09-19 15:59:00.750,62a7970f8387f3fcc95b106b,2,27,30,31,28,31,Male,,,"<p style=""font-size:50px"">You win!
+10 points this round!</p>",,,,,,,,,,,,,,,,,,,,,,,,,,,,
113,0,,html-keyboard-response,113,306976,0.0-4.17-4.17,qidsv3gz1p,2022-09-19 15:59:00.750,62a7970f8387f3fcc95b106b,2,27,30,31,28,31,Male,,,,,,1.0,learning,17.0,Xnc,,black,,bolts,,,,Xnc,black,bolts,,0.0,0.0,1,left,820.3000000119,2.0,0.0,1.0,,,
114,0,,html-keyboard-response,114,308486,0.0-4.18-0.18,qidsv3gz1p,2022-09-19 15:59:00.750,62a7970f8387f3fcc95b106b,2,27,30,31,28,31,Male,,,"<img src=""static/images/cards/stack_of_black_stars.svg"" width=""175px"" height=""250px""></img>",,,,,,,,,,,,,,,,,,,,,,,,,,,,
115,0,,html-keyboard-response,115,309500,0.0-4.18-1.18,qidsv3gz1p,2022-09-19 15:59:00.750,62a7970f8387f3fcc95b106b,2,27,30,31,28,31,Male,505.0999999642,,"
  <table>
  <tr height=300>
    <td width=300 height=300><img src=""static/images/cards/back_of_black_stars.svg"" width=""175px"" height=""250px""></img></td>
    <td width=300 height=300><img src=""static/images/cards/back_of_black_stars.svg"" width=""175px"" height=""250px""></img></td>
  </tr>
  <tr height=200>
    <td width=300><img src=""static/images/keys/z.svg"" width=""35%"" height=""75%""></img></td>
    <td width=300><img src=""static/images/keys/m.svg"" width=""35%"" height=""75%""></img></td>
  </tr>
</table>
  ",77.0,1.0,,,,,,,,,,,,,,,,,,,,,,,,,,
116,0,,html-keyboard-response,116,311016,0.0-4.18-2.18,qidsv3gz1p,2022-09-19 15:59:00.750,62a7970f8387f3fcc95b106b,2,27,30,31,28,31,Male,,,"
  <table>
  <tr height=300>
    <td width=300 height=300><img src=""static/images/cards/back_of_black_stars.svg"" width=""175px"" height=""250px""></img></td>
    <td width=300 height=300><img src=""static/images/cards/4_of_black_stars.svg"" width=""175px"" height=""250px""></img></td>
  </tr>
  <tr height=200>
    <td width=300><img src=""static/images/keys/z.svg"" width=""35%"" height=""75%""></img></td>
    <td width=300><img src=""static/images/keys/m.svg"" width=""35%"" height=""75%""></img></td>
  </tr>
</table>
  ",,,,,,,,,,,,,,,,,,,,,,,,,,,,
117,0,,html-keyboard-response,117,312540,0.0-4.18-3.18,qidsv3gz1p,2022-09-19 15:59:00.750,62a7970f8387f3fcc95b106b,2,27,30,31,28,31,Male,,,"<p style=""font-size:50px"">You Lose!
No points this round.</p>",,,,,,,,,,,,,,,,,,,,,,,,,,,,
118,0,,html-keyboard-response,118,313048,0.0-4.18-4.18,qidsv3gz1p,2022-09-19 15:59:00.750,62a7970f8387f3fcc95b106b,2,27,30,31,28,31,Male,,,,,,1.0,learning,18.0,A,,black,,stars,,,,A,black,stars,,1.0,1.0,NA,right,505.0999999642,4.0,0.0,0.0,,,
119,0,,html-keyboard-response,119,314558,0.0-4.19-0.19,qidsv3gz1p,2022-09-19 15:59:00.750,62a7970f8387f3fcc95b106b,2,27,30,31,28,31,Male,,,"<img src=""static/images/cards/stack_of_red_stars.svg"" width=""175px"" height=""250px""></img>",,,,,,,,,,,,,,,,,,,,,,,,,,,,
120,0,,html-keyboard-response,120,315519,0.0-4.19-1.19,qidsv3gz1p,2022-09-19 15:59:00.750,62a7970f8387f3fcc95b106b,2,27,30,31,28,31,Male,454.9000000358,,"
  <table>
  <tr height=300>
    <td width=300 height=300><img src=""static/images/cards/back_of_red_stars.svg"" width=""175px"" height=""250px""></img></td>
    <td width=300 height=300><img src=""static/images/cards/back_of_red_stars.svg"" width=""175px"" height=""250px""></img></td>
  </tr>
  <tr height=200>
    <td width=300></td>
    <td width=300><img src=""static/images/keys/m.svg"" width=""35%"" height=""75%""></img></td>
  </tr>
</table>
  ",77.0,1.0,,,,,,,,,,,,,,,,,,,,,,,,,,
121,0,,html-keyboard-response,121,317023,0.0-4.19-2.19,qidsv3gz1p,2022-09-19 15:59:00.750,62a7970f8387f3fcc95b106b,2,27,30,31,28,31,Male,,,"
  <table>
  <tr height=300>
    <td width=300 height=300><img src=""static/images/cards/back_of_red_stars.svg"" width=""175px"" height=""250px""></img></td>
    <td width=300 height=300><img src=""static/images/cards/8_of_red_stars.svg"" width=""175px"" height=""250px""></img></td>
  </tr>
  <tr height=200>
    <td width=300></td>
    <td width=300><img src=""static/images/keys/m.svg"" width=""35%"" height=""75%""></img></td>
  </tr>
</table>
  ",,,,,,,,,,,,,,,,,,,,,,,,,,,,
122,0,,html-keyboard-response,122,318543,0.0-4.19-3.19,qidsv3gz1p,2022-09-19 15:59:00.750,62a7970f8387f3fcc95b106b,2,27,30,31,28,31,Male,,,"<p style=""font-size:50px"">You win!
+10 points this round!</p>",,,,,,,,,,,,,,,,,,,,,,,,,,,,
123,0,,html-keyboard-response,123,319055,0.0-4.19-4.19,qidsv3gz1p,2022-09-19 15:59:00.750,62a7970f8387f3fcc95b106b,2,27,30,31,28,31,Male,,,,,,1.0,learning,19.0,B,,red,,stars,,,,B,red,stars,,0.0,1.0,0,right,454.9000000358,8.0,1.0,1.0,,,
124,0,,html-keyboard-response,124,320569,0.0-4.20-0.20,qidsv3gz1p,2022-09-19 15:59:00.750,62a7970f8387f3fcc95b106b,2,27,30,31,28,31,Male,,,"<img src=""static/images/cards/stack_of_black_moons.svg"" width=""175px"" height=""250px""></img>",,,,,,,,,,,,,,,,,,,,,,,,,,,,
125,0,,html-keyboard-response,125,321535,0.0-4.20-1.20,qidsv3gz1p,2022-09-19 15:59:00.750,62a7970f8387f3fcc95b106b,2,27,30,31,28,31,Male,455.8000000119,,"
  <table>
  <tr height=300>
    <td width=300 height=300><img src=""static/images/cards/back_of_black_moons.svg"" width=""175px"" height=""250px""></img></td>
    <td width=300 height=300><img src=""static/images/cards/back_of_black_moons.svg"" width=""175px"" height=""250px""></img></td>
  </tr>
  <tr height=200>
    <td width=300><img src=""static/images/keys/z.svg"" width=""35%"" height=""75%""></img></td>
    <td width=300><img src=""static/images/keys/m.svg"" width=""35%"" height=""75%""></img></td>
  </tr>
</table>
  ",77.0,1.0,,,,,,,,,,,,,,,,,,,,,,,,,,
126,0,,html-keyboard-response,126,323059,0.0-4.20-2.20,qidsv3gz1p,2022-09-19 15:59:00.750,62a7970f8387f3fcc95b106b,2,27,30,31,28,31,Male,,,"
  <table>
  <tr height=300>
    <td width=300 height=300><img src=""static/images/cards/back_of_black_moons.svg"" width=""175px"" height=""250px""></img></td>
    <td width=300 height=300><img src=""static/images/cards/6_of_black_moons.svg"" width=""175px"" height=""250px""></img></td>
  </tr>
  <tr height=200>
    <td width=300><img src=""static/images/keys/z.svg"" width=""35%"" height=""75%""></img></td>
    <td width=300><img src=""static/images/keys/m.svg"" width=""35%"" height=""75%""></img></td>
  </tr>
</table>
  ",,,,,,,,,,,,,,,,,,,,,,,,,,,,
127,0,,html-keyboard-response,127,324578,0.0-4.20-3.20,qidsv3gz1p,2022-09-19 15:59:00.750,62a7970f8387f3fcc95b106b,2,27,30,31,28,31,Male,,,"<p style=""font-size:50px"">You win!
+10 points this round!</p>",,,,,,,,,,,,,,,,,,,,,,,,,,,,
128,0,,html-keyboard-response,128,325087,0.0-4.20-4.20,qidsv3gz1p,2022-09-19 15:59:00.750,62a7970f8387f3fcc95b106b,2,27,30,31,28,31,Male,,,,,,1.0,learning,20.0,C,,black,,moons,,,,C,black,moons,,1.0,0.0,NA,right,455.8000000119,6.0,1.0,1.0,,,
129,0,,html-keyboard-response,129,326599,0.0-4.21-0.21,qidsv3gz1p,2022-09-19 15:59:00.750,62a7970f8387f3fcc95b106b,2,27,30,31,28,31,Male,,,"<img src=""static/images/cards/stack_of_red_moons.svg"" width=""175px"" height=""250px""></img>",,,,,,,,,,,,,,,,,,,,,,,,,,,,
130,0,,html-keyboard-response,130,327704,0.0-4.21-1.21,qidsv3gz1p,2022-09-19 15:59:00.750,62a7970f8387f3fcc95b106b,2,27,30,31,28,31,Male,600.1999999881,,"
  <table>
  <tr height=300>
    <td width=300 height=300><img src=""static/images/cards/back_of_red_moons.svg"" width=""175px"" height=""250px""></img></td>
    <td width=300 height=300><img src=""static/images/cards/back_of_red_moons.svg"" width=""175px"" height=""250px""></img></td>
  </tr>
  <tr height=200>
    <td width=300><img src=""static/images/keys/z.svg"" width=""35%"" height=""75%""></img></td>
    <td width=300></td>
  </tr>
</table>
  ",90.0,1.0,,,,,,,,,,,,,,,,,,,,,,,,,,
131,0,,html-keyboard-response,131,329218,0.0-4.21-2.21,qidsv3gz1p,2022-09-19 15:59:00.750,62a7970f8387f3fcc95b106b,2,27,30,31,28,31,Male,,,"
  <table>
  <tr height=300>
    <td width=300 height=300><img src=""static/images/cards/6_of_red_moons.svg"" width=""175px"" height=""250px""></img></td>
    <td width=300 height=300><img src=""static/images/cards/back_of_red_moons.svg"" width=""175px"" height=""250px""></img></td>
  </tr>
  <tr height=200>
    <td width=300><img src=""static/images/keys/z.svg"" width=""35%"" height=""75%""></img></td>
    <td width=300></td>
  </tr>
</table>
  ",,,,,,,,,,,,,,,,,,,,,,,,,,,,
132,0,,html-keyboard-response,132,330725,0.0-4.21-3.21,qidsv3gz1p,2022-09-19 15:59:00.750,62a7970f8387f3fcc95b106b,2,27,30,31,28,31,Male,,,"<p style=""font-size:50px"">You win!
+10 points this round!</p>",,,,,,,,,,,,,,,,,,,,,,,,,,,,
133,0,,html-keyboard-response,133,331232,0.0-4.21-4.21,qidsv3gz1p,2022-09-19 15:59:00.750,62a7970f8387f3fcc95b106b,2,27,30,31,28,31,Male,,,,,,1.0,learning,21.0,D,,red,,moons,,,,D,red,moons,,0.0,0.0,1,left,600.1999999881,6.0,1.0,1.0,,,
134,0,,html-keyboard-response,134,332734,0.0-4.22-0.22,qidsv3gz1p,2022-09-19 15:59:00.750,62a7970f8387f3fcc95b106b,2,27,30,31,28,31,Male,,,"<img src=""static/images/cards/stack_of_red_bolts.svg"" width=""175px"" height=""250px""></img>",,,,,,,,,,,,,,,,,,,,,,,,,,,,
135,0,,html-keyboard-response,135,334546,0.0-4.22-1.22,qidsv3gz1p,2022-09-19 15:59:00.750,62a7970f8387f3fcc95b106b,2,27,30,31,28,31,Male,1296.8000000119,,"
  <table>
  <tr height=300>
    <td width=300 height=300><img src=""static/images/cards/back_of_red_bolts.svg"" width=""175px"" height=""250px""></img></td>
    <td width=300 height=300><img src=""static/images/cards/back_of_red_bolts.svg"" width=""175px"" height=""250px""></img></td>
  </tr>
  <tr height=200>
    <td width=300><img src=""static/images/keys/z.svg"" width=""35%"" height=""75%""></img></td>
    <td width=300><img src=""static/images/keys/m.svg"" width=""35%"" height=""75%""></img></td>
  </tr>
</table>
  ",77.0,1.0,,,,,,,,,,,,,,,,,,,,,,,,,,
136,0,,html-keyboard-response,136,336058,0.0-4.22-2.22,qidsv3gz1p,2022-09-19 15:59:00.750,62a7970f8387f3fcc95b106b,2,27,30,31,28,31,Male,,,"
  <table>
  <tr height=300>
    <td width=300 height=300><img src=""static/images/cards/back_of_red_bolts.svg"" width=""175px"" height=""250px""></img></td>
    <td width=300 height=300><img src=""static/images/cards/8_of_red_bolts.svg"" width=""175px"" height=""250px""></img></td>
  </tr>
  <tr height=200>
    <td width=300><img src=""static/images/keys/z.svg"" width=""35%"" height=""75%""></img></td>
    <td width=300><img src=""static/images/keys/m.svg"" width=""35%"" height=""75%""></img></td>
  </tr>
</table>
  ",,,,,,,,,,,,,,,,,,,,,,,,,,,,
137,0,,html-keyboard-response,137,337581,0.0-4.22-3.22,qidsv3gz1p,2022-09-19 15:59:00.750,62a7970f8387f3fcc95b106b,2,27,30,31,28,31,Male,,,"<p style=""font-size:50px"">You win!
+10 points this round!</p>",,,,,,,,,,,,,,,,,,,,,,,,,,,,
138,0,,html-keyboard-response,138,338099,0.0-4.22-4.22,qidsv3gz1p,2022-09-19 15:59:00.750,62a7970f8387f3fcc95b106b,2,27,30,31,28,31,Male,,,,,,1.0,learning,22.0,Xc,,red,,bolts,,,,Xc,red,bolts,,1.0,0.0,NA,right,1296.8000000119,8.0,1.0,1.0,,,
139,0,,html-keyboard-response,139,339612,0.0-4.23-0.23,qidsv3gz1p,2022-09-19 15:59:00.750,62a7970f8387f3fcc95b106b,2,27,30,31,28,31,Male,,,"<img src=""static/images/cards/stack_of_black_bolts.svg"" width=""175px"" height=""250px""></img>",,,,,,,,,,,,,,,,,,,,,,,,,,,,
140,0,,html-keyboard-response,140,340555,0.0-4.23-1.23,qidsv3gz1p,2022-09-19 15:59:00.750,62a7970f8387f3fcc95b106b,2,27,30,31,28,31,Male,438.8000000119,,"
  <table>
  <tr height=300>
    <td width=300 height=300><img src=""static/images/cards/back_of_black_bolts.svg"" width=""175px"" height=""250px""></img></td>
    <td width=300 height=300><img src=""static/images/cards/back_of_black_bolts.svg"" width=""175px"" height=""250px""></img></td>
  </tr>
  <tr height=200>
    <td width=300></td>
    <td width=300><img src=""static/images/keys/m.svg"" width=""35%"" height=""75%""></img></td>
  </tr>
</table>
  ",77.0,1.0,,,,,,,,,,,,,,,,,,,,,,,,,,
141,0,,html-keyboard-response,141,342066,0.0-4.23-2.23,qidsv3gz1p,2022-09-19 15:59:00.750,62a7970f8387f3fcc95b106b,2,27,30,31,28,31,Male,,,"
  <table>
  <tr height=300>
    <td width=300 height=300><img src=""static/images/cards/back_of_black_bolts.svg"" width=""175px"" height=""250px""></img></td>
    <td width=300 height=300><img src=""static/images/cards/10_of_black_bolts.svg"" width=""175px"" height=""250px""></img></td>
  </tr>
  <tr height=200>
    <td width=300></td>
    <td width=300><img src=""static/images/keys/m.svg"" width=""35%"" height=""75%""></img></td>
  </tr>
</table>
  ",,,,,,,,,,,,,,,,,,,,,,,,,,,,
142,0,,html-keyboard-response,142,343571,0.0-4.23-3.23,qidsv3gz1p,2022-09-19 15:59:00.750,62a7970f8387f3fcc95b106b,2,27,30,31,28,31,Male,,,"<p style=""font-size:50px"">You win!
+10 points this round!</p>",,,,,,,,,,,,,,,,,,,,,,,,,,,,
143,0,,html-keyboard-response,143,344079,0.0-4.23-4.23,qidsv3gz1p,2022-09-19 15:59:00.750,62a7970f8387f3fcc95b106b,2,27,30,31,28,31,Male,,,,,,1.0,learning,23.0,Xnc,,black,,bolts,,,,Xnc,black,bolts,,0.0,0.0,0,right,438.8000000119,10.0,1.0,1.0,,,
144,0,,call-function,144,344086,0.0-5.0,qidsv3gz1p,2022-09-19 15:59:00.750,62a7970f8387f3fcc95b106b,2,27,30,31,28,31,Male,,,,,,,,,,,,,,,,,,,,,,,,,,,,,,,
145,0,,image-keyboard-response,145,353285,0.0-6.0-0.0,qidsv3gz1p,2022-09-19 15:59:00.750,62a7970f8387f3fcc95b106b,2,27,30,31,28,31,Male,9197.1000000238,,static/images/instructions_CB_2/Slide20.png,39.0,,,,,,,,,,,,,,,,,,,,,,,,,,,
146,0,,image-keyboard-response,146,374289,0.0-6.1-0.1,qidsv3gz1p,2022-09-19 15:59:00.750,62a7970f8387f3fcc95b106b,2,27,30,31,28,31,Male,21001.6000000238,,static/images/instructions_CB_2/Slide21.png,39.0,,,,,,,,,,,,,,,,,,,,,,,,,,,
147,0,,image-keyboard-response,147,389394,0.0-6.2-0.2,qidsv3gz1p,2022-09-19 15:59:00.750,62a7970f8387f3fcc95b106b,2,27,30,31,28,31,Male,15103.1000000238,,static/images/instructions_CB_2/Slide22.png,39.0,,,,,,,,,,,,,,,,,,,,,,,,,,,
148,0,,image-keyboard-response,148,408636,0.0-6.3-0.3,qidsv3gz1p,2022-09-19 15:59:00.750,62a7970f8387f3fcc95b106b,2,27,30,31,28,31,Male,19240.8999999762,,static/images/instructions_CB_2/Slide23.png,39.0,,,,,,,,,,,,,,,,,,,,,,,,,,,
149,0,,image-keyboard-response,149,413865,0.0-6.4-0.4,qidsv3gz1p,2022-09-19 15:59:00.750,62a7970f8387f3fcc95b106b,2,27,30,31,28,31,Male,5226.9000000358,,static/images/instructions_CB_2/Slide24.png,39.0,,,,,,,,,,,,,,,,,,,,,,,,,,,
150,0,,html-keyboard-response,150,417326,0.0-7.0-0.0,qidsv3gz1p,2022-09-19 15:59:00.750,62a7970f8387f3fcc95b106b,2,27,30,31,28,31,Male,3460.0,,"
  <table>
  <tr height=300>
    <td width=300 height=300><img src=""static/images/cards/stack_of_black_moons.svg"" width=""175px"" height=""250px""></img></td>
    <td width=300 height=300><img src=""static/images/cards/stack_of_red_stars.svg"" width=""175px"" height=""250px""></img></td>
  </tr>
  <tr height=200>
    <td width=300><img src=""static/images/keys/w.svg"" width=""35%"" height=""75%""></img></td>
    <td width=300><img src=""static/images/keys/o.svg"" width=""35%"" height=""75%""></img></td>
  </tr>
</table>
  ",87.0,1.0,,,,,,,,,,,,,,,,,,,,,,,,,,
151,0,,html-keyboard-response,151,419229,0.0-7.0-1.0,qidsv3gz1p,2022-09-19 15:59:00.750,62a7970f8387f3fcc95b106b,2,27,30,31,28,31,Male,1392.5,,"
  <table>
  <tr height=300>
    <td width=300 height=300><img src=""static/images/cards/back_of_black_moons.svg"" width=""175px"" height=""250px""></img></td>
    <td width=300 height=300><img src=""static/images/cards/back_of_black_moons.svg"" width=""175px"" height=""250px""></img></td>
  </tr>
  <tr height=200>
    <td width=300><img src=""static/images/keys/z.svg"" width=""35%"" height=""75%""></img></td>
    <td width=300><img src=""static/images/keys/m.svg"" width=""35%"" height=""75%""></img></td>
  </tr>
</table>
  ",77.0,1.0,,,,,,,,,,,,,,,,,,,,,,,,,,
152,0,,html-keyboard-response,152,420739,0.0-7.0-2.0,qidsv3gz1p,2022-09-19 15:59:00.750,62a7970f8387f3fcc95b106b,2,27,30,31,28,31,Male,,,"
  <table>
  <tr height=300>
    <td width=300 height=300><img src=""static/images/cards/back_of_black_moons.svg"" width=""175px"" height=""250px""></img></td>
    <td width=300 height=300><img src=""static/images/cards/4_of_black_moons.svg"" width=""175px"" height=""250px""></img></td>
  </tr>
  <tr height=200>
    <td width=300><img src=""static/images/keys/z.svg"" width=""35%"" height=""75%""></img></td>
    <td width=300><img src=""static/images/keys/m.svg"" width=""35%"" height=""75%""></img></td>
  </tr>
</table>
  ",,,,,,,,,,,,,,,,,,,,,,,,,,,,
153,0,,html-keyboard-response,153,422262,0.0-7.0-3.0,qidsv3gz1p,2022-09-19 15:59:00.750,62a7970f8387f3fcc95b106b,2,27,30,31,28,31,Male,,,"<p style=""font-size:50px"">You Lose!
No points this round.</p>",,,,,,,,,,,,,,,,,,,,,,,,,,,,
154,0,,html-keyboard-response,154,422783,0.0-7.0-4.0,qidsv3gz1p,2022-09-19 15:59:00.750,62a7970f8387f3fcc95b106b,2,27,30,31,28,31,Male,,,,,,1.0,choice,0.0,B,C,black,red,moons,stars,C,B,C,black,moons,3460.0,1.0,0.0,NA,right,1392.5,4.0,0.0,0.0,,,
155,0,,html-keyboard-response,155,424130,0.0-7.1-0.1,qidsv3gz1p,2022-09-19 15:59:00.750,62a7970f8387f3fcc95b106b,2,27,30,31,28,31,Male,1344.1999999881,,"
  <table>
  <tr height=300>
    <td width=300 height=300><img src=""static/images/cards/stack_of_red_moons.svg"" width=""175px"" height=""250px""></img></td>
    <td width=300 height=300><img src=""static/images/cards/stack_of_black_bolts.svg"" width=""175px"" height=""250px""></img></td>
  </tr>
  <tr height=200>
    <td width=300><img src=""static/images/keys/w.svg"" width=""35%"" height=""75%""></img></td>
    <td width=300><img src=""static/images/keys/o.svg"" width=""35%"" height=""75%""></img></td>
  </tr>
</table>
  ",79.0,1.0,,,,,,,,,,,,,,,,,,,,,,,,,,
156,0,,html-keyboard-response,156,425682,0.0-7.1-1.1,qidsv3gz1p,2022-09-19 15:59:00.750,62a7970f8387f3fcc95b106b,2,27,30,31,28,31,Male,1049.6999999881,,"
  <table>
  <tr height=300>
    <td width=300 height=300><img src=""static/images/cards/back_of_black_bolts.svg"" width=""175px"" height=""250px""></img></td>
    <td width=300 height=300><img src=""static/images/cards/back_of_black_bolts.svg"" width=""175px"" height=""250px""></img></td>
  </tr>
  <tr height=200>
    <td width=300><img src=""static/images/keys/z.svg"" width=""35%"" height=""75%""></img></td>
    <td width=300></td>
  </tr>
</table>
  ",90.0,1.0,,,,,,,,,,,,,,,,,,,,,,,,,,
157,0,,html-keyboard-response,157,427199,0.0-7.1-2.1,qidsv3gz1p,2022-09-19 15:59:00.750,62a7970f8387f3fcc95b106b,2,27,30,31,28,31,Male,,,"
  <table>
  <tr height=300>
    <td width=300 height=300><img src=""static/images/cards/4_of_black_bolts.svg"" width=""175px"" height=""250px""></img></td>
    <td width=300 height=300><img src=""static/images/cards/back_of_black_bolts.svg"" width=""175px"" height=""250px""></img></td>
  </tr>
  <tr height=200>
    <td width=300><img src=""static/images/keys/z.svg"" width=""35%"" height=""75%""></img></td>
    <td width=300></td>
  </tr>
</table>
  ",,,,,,,,,,,,,,,,,,,,,,,,,,,,
158,0,,html-keyboard-response,158,428715,0.0-7.1-3.1,qidsv3gz1p,2022-09-19 15:59:00.750,62a7970f8387f3fcc95b106b,2,27,30,31,28,31,Male,,,"<p style=""font-size:50px"">You win!
+10 points this round!</p>",,,,,,,,,,,,,,,,,,,,,,,,,,,,
159,0,,html-keyboard-response,159,429223,0.0-7.1-4.1,qidsv3gz1p,2022-09-19 15:59:00.750,62a7970f8387f3fcc95b106b,2,27,30,31,28,31,Male,,,,,,1.0,choice,1.0,D,Xnc,red,black,moons,bolts,D,Xnc,Xnc,black,bolts,1344.1999999881,0.0,0.0,1,left,1049.6999999881,4.0,0.0,1.0,,,
160,0,,html-keyboard-response,160,430557,0.0-7.2-0.2,qidsv3gz1p,2022-09-19 15:59:00.750,62a7970f8387f3fcc95b106b,2,27,30,31,28,31,Male,1331.5999999642,,"
  <table>
  <tr height=300>
    <td width=300 height=300><img src=""static/images/cards/stack_of_red_stars.svg"" width=""175px"" height=""250px""></img></td>
    <td width=300 height=300><img src=""static/images/cards/stack_of_black_bolts.svg"" width=""175px"" height=""250px""></img></td>
  </tr>
  <tr height=200>
    <td width=300><img src=""static/images/keys/w.svg"" width=""35%"" height=""75%""></img></td>
    <td width=300><img src=""static/images/keys/o.svg"" width=""35%"" height=""75%""></img></td>
  </tr>
</table>
  ",79.0,1.0,,,,,,,,,,,,,,,,,,,,,,,,,,
161,0,,html-keyboard-response,161,432134,0.0-7.2-1.2,qidsv3gz1p,2022-09-19 15:59:00.750,62a7970f8387f3fcc95b106b,2,27,30,31,28,31,Male,1067.6000000238,,"
  <table>
  <tr height=300>
    <td width=300 height=300><img src=""static/images/cards/back_of_black_bolts.svg"" width=""175px"" height=""250px""></img></td>
    <td width=300 height=300><img src=""static/images/cards/back_of_black_bolts.svg"" width=""175px"" height=""250px""></img></td>
  </tr>
  <tr height=200>
    <td width=300><img src=""static/images/keys/z.svg"" width=""35%"" height=""75%""></img></td>
    <td width=300></td>
  </tr>
</table>
  ",90.0,1.0,,,,,,,,,,,,,,,,,,,,,,,,,,
162,0,,html-keyboard-response,162,433637,0.0-7.2-2.2,qidsv3gz1p,2022-09-19 15:59:00.750,62a7970f8387f3fcc95b106b,2,27,30,31,28,31,Male,,,"
  <table>
  <tr height=300>
    <td width=300 height=300><img src=""static/images/cards/9_of_black_bolts.svg"" width=""175px"" height=""250px""></img></td>
    <td width=300 height=300><img src=""static/images/cards/back_of_black_bolts.svg"" width=""175px"" height=""250px""></img></td>
  </tr>
  <tr height=200>
    <td width=300><img src=""static/images/keys/z.svg"" width=""35%"" height=""75%""></img></td>
    <td width=300></td>
  </tr>
</table>
  ",,,,,,,,,,,,,,,,,,,,,,,,,,,,
163,0,,html-keyboard-response,163,435148,0.0-7.2-3.2,qidsv3gz1p,2022-09-19 15:59:00.750,62a7970f8387f3fcc95b106b,2,27,30,31,28,31,Male,,,"<p style=""font-size:50px"">You win!
+10 points this round!</p>",,,,,,,,,,,,,,,,,,,,,,,,,,,,
164,0,,html-keyboard-response,164,435658,0.0-7.2-4.2,qidsv3gz1p,2022-09-19 15:59:00.750,62a7970f8387f3fcc95b106b,2,27,30,31,28,31,Male,,,,,,1.0,choice,2.0,B,Xnc,red,black,stars,bolts,B,Xnc,Xnc,black,bolts,1331.5999999642,0.0,0.0,1,left,1067.6000000238,9.0,1.0,1.0,,,
165,0,,html-keyboard-response,165,436791,0.0-7.3-0.3,qidsv3gz1p,2022-09-19 15:59:00.750,62a7970f8387f3fcc95b106b,2,27,30,31,28,31,Male,1130.8999999762,,"
  <table>
  <tr height=300>
    <td width=300 height=300><img src=""static/images/cards/stack_of_black_bolts.svg"" width=""175px"" height=""250px""></img></td>
    <td width=300 height=300><img src=""static/images/cards/stack_of_black_moons.svg"" width=""175px"" height=""250px""></img></td>
  </tr>
  <tr height=200>
    <td width=300><img src=""static/images/keys/w.svg"" width=""35%"" height=""75%""></img></td>
    <td width=300><img src=""static/images/keys/o.svg"" width=""35%"" height=""75%""></img></td>
  </tr>
</table>
  ",87.0,1.0,,,,,,,,,,,,,,,,,,,,,,,,,,
166,0,,html-keyboard-response,166,438093,0.0-7.3-1.3,qidsv3gz1p,2022-09-19 15:59:00.750,62a7970f8387f3fcc95b106b,2,27,30,31,28,31,Male,787.7999999523,,"
  <table>
  <tr height=300>
    <td width=300 height=300><img src=""static/images/cards/back_of_black_bolts.svg"" width=""175px"" height=""250px""></img></td>
    <td width=300 height=300><img src=""static/images/cards/back_of_black_bolts.svg"" width=""175px"" height=""250px""></img></td>
  </tr>
  <tr height=200>
    <td width=300></td>
    <td width=300><img src=""static/images/keys/m.svg"" width=""35%"" height=""75%""></img></td>
  </tr>
</table>
  ",77.0,1.0,,,,,,,,,,,,,,,,,,,,,,,,,,
167,0,,html-keyboard-response,167,439602,0.0-7.3-2.3,qidsv3gz1p,2022-09-19 15:59:00.750,62a7970f8387f3fcc95b106b,2,27,30,31,28,31,Male,,,"
  <table>
  <tr height=300>
    <td width=300 height=300><img src=""static/images/cards/back_of_black_bolts.svg"" width=""175px"" height=""250px""></img></td>
    <td width=300 height=300><img src=""static/images/cards/6_of_black_bolts.svg"" width=""175px"" height=""250px""></img></td>
  </tr>
  <tr height=200>
    <td width=300></td>
    <td width=300><img src=""static/images/keys/m.svg"" width=""35%"" height=""75%""></img></td>
  </tr>
</table>
  ",,,,,,,,,,,,,,,,,,,,,,,,,,,,
168,0,,html-keyboard-response,168,441115,0.0-7.3-3.3,qidsv3gz1p,2022-09-19 15:59:00.750,62a7970f8387f3fcc95b106b,2,27,30,31,28,31,Male,,,"<p style=""font-size:50px"">You win!
+10 points this round!</p>",,,,,,,,,,,,,,,,,,,,,,,,,,,,
169,0,,html-keyboard-response,169,441627,0.0-7.3-4.3,qidsv3gz1p,2022-09-19 15:59:00.750,62a7970f8387f3fcc95b106b,2,27,30,31,28,31,Male,,,,,,1.0,choice,3.0,C,Xnc,black,black,bolts,moons,Xnc,C,Xnc,black,bolts,1130.8999999762,0.0,0.0,0,right,787.7999999523,6.0,1.0,1.0,,,
170,0,,html-keyboard-response,170,443378,0.0-7.4-0.4,qidsv3gz1p,2022-09-19 15:59:00.750,62a7970f8387f3fcc95b106b,2,27,30,31,28,31,Male,1747.6999999881,,"
  <table>
  <tr height=300>
    <td width=300 height=300><img src=""static/images/cards/stack_of_red_stars.svg"" width=""175px"" height=""250px""></img></td>
    <td width=300 height=300><img src=""static/images/cards/stack_of_red_moons.svg"" width=""175px"" height=""250px""></img></td>
  </tr>
  <tr height=200>
    <td width=300><img src=""static/images/keys/w.svg"" width=""35%"" height=""75%""></img></td>
    <td width=300><img src=""static/images/keys/o.svg"" width=""35%"" height=""75%""></img></td>
  </tr>
</table>
  ",87.0,1.0,,,,,,,,,,,,,,,,,,,,,,,,,,
171,0,,html-keyboard-response,171,445142,0.0-7.4-1.4,qidsv3gz1p,2022-09-19 15:59:00.750,62a7970f8387f3fcc95b106b,2,27,30,31,28,31,Male,1252.9000000358,,"
  <table>
  <tr height=300>
    <td width=300 height=300><img src=""static/images/cards/back_of_red_stars.svg"" width=""175px"" height=""250px""></img></td>
    <td width=300 height=300><img src=""static/images/cards/back_of_red_stars.svg"" width=""175px"" height=""250px""></img></td>
  </tr>
  <tr height=200>
    <td width=300><img src=""static/images/keys/z.svg"" width=""35%"" height=""75%""></img></td>
    <td width=300></td>
  </tr>
</table>
  ",90.0,1.0,,,,,,,,,,,,,,,,,,,,,,,,,,
172,0,,html-keyboard-response,172,446648,0.0-7.4-2.4,qidsv3gz1p,2022-09-19 15:59:00.750,62a7970f8387f3fcc95b106b,2,27,30,31,28,31,Male,,,"
  <table>
  <tr height=300>
    <td width=300 height=300><img src=""static/images/cards/2_of_red_stars.svg"" width=""175px"" height=""250px""></img></td>
    <td width=300 height=300><img src=""static/images/cards/back_of_red_stars.svg"" width=""175px"" height=""250px""></img></td>
  </tr>
  <tr height=200>
    <td width=300><img src=""static/images/keys/z.svg"" width=""35%"" height=""75%""></img></td>
    <td width=300></td>
  </tr>
</table>
  ",,,,,,,,,,,,,,,,,,,,,,,,,,,,
173,0,,html-keyboard-response,173,448167,0.0-7.4-3.4,qidsv3gz1p,2022-09-19 15:59:00.750,62a7970f8387f3fcc95b106b,2,27,30,31,28,31,Male,,,"<p style=""font-size:50px"">You Lose!
No points this round.</p>",,,,,,,,,,,,,,,,,,,,,,,,,,,,
174,0,,html-keyboard-response,174,448674,0.0-7.4-4.4,qidsv3gz1p,2022-09-19 15:59:00.750,62a7970f8387f3fcc95b106b,2,27,30,31,28,31,Male,,,,,,1.0,choice,4.0,B,D,red,red,stars,moons,B,D,B,red,stars,1747.6999999881,0.0,1.0,1,left,1252.9000000358,2.0,0.0,0.0,,,
175,0,,html-keyboard-response,175,450816,0.0-7.5-0.5,qidsv3gz1p,2022-09-19 15:59:00.750,62a7970f8387f3fcc95b106b,2,27,30,31,28,31,Male,2139.0,,"
  <table>
  <tr height=300>
    <td width=300 height=300><img src=""static/images/cards/stack_of_black_moons.svg"" width=""175px"" height=""250px""></img></td>
    <td width=300 height=300><img src=""static/images/cards/stack_of_black_stars.svg"" width=""175px"" height=""250px""></img></td>
  </tr>
  <tr height=200>
    <td width=300><img src=""static/images/keys/w.svg"" width=""35%"" height=""75%""></img></td>
    <td width=300><img src=""static/images/keys/o.svg"" width=""35%"" height=""75%""></img></td>
  </tr>
</table>
  ",79.0,1.0,,,,,,,,,,,,,,,,,,,,,,,,,,
176,0,,html-keyboard-response,176,452628,0.0-7.5-1.5,qidsv3gz1p,2022-09-19 15:59:00.750,62a7970f8387f3fcc95b106b,2,27,30,31,28,31,Male,1308.3000000119,,"
  <table>
  <tr height=300>
    <td width=300 height=300><img src=""static/images/cards/back_of_black_stars.svg"" width=""175px"" height=""250px""></img></td>
    <td width=300 height=300><img src=""static/images/cards/back_of_black_stars.svg"" width=""175px"" height=""250px""></img></td>
  </tr>
  <tr height=200>
    <td width=300><img src=""static/images/keys/z.svg"" width=""35%"" height=""75%""></img></td>
    <td width=300><img src=""static/images/keys/m.svg"" width=""35%"" height=""75%""></img></td>
  </tr>
</table>
  ",77.0,1.0,,,,,,,,,,,,,,,,,,,,,,,,,,
177,0,,html-keyboard-response,177,454140,0.0-7.5-2.5,qidsv3gz1p,2022-09-19 15:59:00.750,62a7970f8387f3fcc95b106b,2,27,30,31,28,31,Male,,,"
  <table>
  <tr height=300>
    <td width=300 height=300><img src=""static/images/cards/back_of_black_stars.svg"" width=""175px"" height=""250px""></img></td>
    <td width=300 height=300><img src=""static/images/cards/6_of_black_stars.svg"" width=""175px"" height=""250px""></img></td>
  </tr>
  <tr height=200>
    <td width=300><img src=""static/images/keys/z.svg"" width=""35%"" height=""75%""></img></td>
    <td width=300><img src=""static/images/keys/m.svg"" width=""35%"" height=""75%""></img></td>
  </tr>
</table>
  ",,,,,,,,,,,,,,,,,,,,,,,,,,,,
178,0,,html-keyboard-response,178,455652,0.0-7.5-3.5,qidsv3gz1p,2022-09-19 15:59:00.750,62a7970f8387f3fcc95b106b,2,27,30,31,28,31,Male,,,"<p style=""font-size:50px"">You win!
+10 points this round!</p>",,,,,,,,,,,,,,,,,,,,,,,,,,,,
179,0,,html-keyboard-response,179,456161,0.0-7.5-4.5,qidsv3gz1p,2022-09-19 15:59:00.750,62a7970f8387f3fcc95b106b,2,27,30,31,28,31,Male,,,,,,1.0,choice,5.0,A,C,black,black,moons,stars,C,A,A,black,stars,2139.0,1.0,1.0,NA,right,1308.3000000119,6.0,1.0,1.0,,,
180,0,,html-keyboard-response,180,458127,0.0-7.6-0.6,qidsv3gz1p,2022-09-19 15:59:00.750,62a7970f8387f3fcc95b106b,2,27,30,31,28,31,Male,1963.8000000119,,"
  <table>
  <tr height=300>
    <td width=300 height=300><img src=""static/images/cards/stack_of_black_moons.svg"" width=""175px"" height=""250px""></img></td>
    <td width=300 height=300><img src=""static/images/cards/stack_of_black_stars.svg"" width=""175px"" height=""250px""></img></td>
  </tr>
  <tr height=200>
    <td width=300><img src=""static/images/keys/w.svg"" width=""35%"" height=""75%""></img></td>
    <td width=300><img src=""static/images/keys/o.svg"" width=""35%"" height=""75%""></img></td>
  </tr>
</table>
  ",87.0,1.0,,,,,,,,,,,,,,,,,,,,,,,,,,
181,0,,html-keyboard-response,181,459444,0.0-7.6-1.6,qidsv3gz1p,2022-09-19 15:59:00.750,62a7970f8387f3fcc95b106b,2,27,30,31,28,31,Male,812.1000000238,,"
  <table>
  <tr height=300>
    <td width=300 height=300><img src=""static/images/cards/back_of_black_moons.svg"" width=""175px"" height=""250px""></img></td>
    <td width=300 height=300><img src=""static/images/cards/back_of_black_moons.svg"" width=""175px"" height=""250px""></img></td>
  </tr>
  <tr height=200>
    <td width=300><img src=""static/images/keys/z.svg"" width=""35%"" height=""75%""></img></td>
    <td width=300><img src=""static/images/keys/m.svg"" width=""35%"" height=""75%""></img></td>
  </tr>
</table>
  ",77.0,1.0,,,,,,,,,,,,,,,,,,,,,,,,,,
182,0,,html-keyboard-response,182,460950,0.0-7.6-2.6,qidsv3gz1p,2022-09-19 15:59:00.750,62a7970f8387f3fcc95b106b,2,27,30,31,28,31,Male,,,"
  <table>
  <tr height=300>
    <td width=300 height=300><img src=""static/images/cards/back_of_black_moons.svg"" width=""175px"" height=""250px""></img></td>
    <td width=300 height=300><img src=""static/images/cards/1_of_black_moons.svg"" width=""175px"" height=""250px""></img></td>
  </tr>
  <tr height=200>
    <td width=300><img src=""static/images/keys/z.svg"" width=""35%"" height=""75%""></img></td>
    <td width=300><img src=""static/images/keys/m.svg"" width=""35%"" height=""75%""></img></td>
  </tr>
</table>
  ",,,,,,,,,,,,,,,,,,,,,,,,,,,,
183,0,,html-keyboard-response,183,462466,0.0-7.6-3.6,qidsv3gz1p,2022-09-19 15:59:00.750,62a7970f8387f3fcc95b106b,2,27,30,31,28,31,Male,,,"<p style=""font-size:50px"">You win!
+10 points this round!</p>",,,,,,,,,,,,,,,,,,,,,,,,,,,,
184,0,,html-keyboard-response,184,462977,0.0-7.6-4.6,qidsv3gz1p,2022-09-19 15:59:00.750,62a7970f8387f3fcc95b106b,2,27,30,31,28,31,Male,,,,,,1.0,choice,6.0,A,C,black,black,moons,stars,C,A,C,black,moons,1963.8000000119,1.0,0.0,NA,right,812.1000000238,1.0,0.0,1.0,,,
185,0,,html-keyboard-response,185,465571,0.0-7.7-0.7,qidsv3gz1p,2022-09-19 15:59:00.750,62a7970f8387f3fcc95b106b,2,27,30,31,28,31,Male,2591.9000000358,,"
  <table>
  <tr height=300>
    <td width=300 height=300><img src=""static/images/cards/stack_of_red_stars.svg"" width=""175px"" height=""250px""></img></td>
    <td width=300 height=300><img src=""static/images/cards/stack_of_black_stars.svg"" width=""175px"" height=""250px""></img></td>
  </tr>
  <tr height=200>
    <td width=300><img src=""static/images/keys/w.svg"" width=""35%"" height=""75%""></img></td>
    <td width=300><img src=""static/images/keys/o.svg"" width=""35%"" height=""75%""></img></td>
  </tr>
</table>
  ",87.0,1.0,,,,,,,,,,,,,,,,,,,,,,,,,,
186,0,,html-keyboard-response,186,466880,0.0-7.7-1.7,qidsv3gz1p,2022-09-19 15:59:00.750,62a7970f8387f3fcc95b106b,2,27,30,31,28,31,Male,798.5,,"
  <table>
  <tr height=300>
    <td width=300 height=300><img src=""static/images/cards/back_of_red_stars.svg"" width=""175px"" height=""250px""></img></td>
    <td width=300 height=300><img src=""static/images/cards/back_of_red_stars.svg"" width=""175px"" height=""250px""></img></td>
  </tr>
  <tr height=200>
    <td width=300></td>
    <td width=300><img src=""static/images/keys/m.svg"" width=""35%"" height=""75%""></img></td>
  </tr>
</table>
  ",77.0,1.0,,,,,,,,,,,,,,,,,,,,,,,,,,
187,0,,html-keyboard-response,187,468393,0.0-7.7-2.7,qidsv3gz1p,2022-09-19 15:59:00.750,62a7970f8387f3fcc95b106b,2,27,30,31,28,31,Male,,,"
  <table>
  <tr height=300>
    <td width=300 height=300><img src=""static/images/cards/back_of_red_stars.svg"" width=""175px"" height=""250px""></img></td>
    <td width=300 height=300><img src=""static/images/cards/10_of_red_stars.svg"" width=""175px"" height=""250px""></img></td>
  </tr>
  <tr height=200>
    <td width=300></td>
    <td width=300><img src=""static/images/keys/m.svg"" width=""35%"" height=""75%""></img></td>
  </tr>
</table>
  ",,,,,,,,,,,,,,,,,,,,,,,,,,,,
188,0,,html-keyboard-response,188,469910,0.0-7.7-3.7,qidsv3gz1p,2022-09-19 15:59:00.750,62a7970f8387f3fcc95b106b,2,27,30,31,28,31,Male,,,"<p style=""font-size:50px"">You win!
+10 points this round!</p>",,,,,,,,,,,,,,,,,,,,,,,,,,,,
189,0,,html-keyboard-response,189,470421,0.0-7.7-4.7,qidsv3gz1p,2022-09-19 15:59:00.750,62a7970f8387f3fcc95b106b,2,27,30,31,28,31,Male,,,,,,1.0,choice,7.0,A,B,red,black,stars,stars,B,A,B,red,stars,2591.9000000358,0.0,1.0,0,right,798.5,10.0,1.0,1.0,,,
190,0,,html-keyboard-response,190,471558,0.0-7.8-0.8,qidsv3gz1p,2022-09-19 15:59:00.750,62a7970f8387f3fcc95b106b,2,27,30,31,28,31,Male,1134.5,,"
  <table>
  <tr height=300>
    <td width=300 height=300><img src=""static/images/cards/stack_of_black_stars.svg"" width=""175px"" height=""250px""></img></td>
    <td width=300 height=300><img src=""static/images/cards/stack_of_black_bolts.svg"" width=""175px"" height=""250px""></img></td>
  </tr>
  <tr height=200>
    <td width=300><img src=""static/images/keys/w.svg"" width=""35%"" height=""75%""></img></td>
    <td width=300><img src=""static/images/keys/o.svg"" width=""35%"" height=""75%""></img></td>
  </tr>
</table>
  ",79.0,1.0,,,,,,,,,,,,,,,,,,,,,,,,,,
191,0,,html-keyboard-response,191,472743,0.0-7.8-1.8,qidsv3gz1p,2022-09-19 15:59:00.750,62a7970f8387f3fcc95b106b,2,27,30,31,28,31,Male,678.8000000119,,"
  <table>
  <tr height=300>
    <td width=300 height=300><img src=""static/images/cards/back_of_black_bolts.svg"" width=""175px"" height=""250px""></img></td>
    <td width=300 height=300><img src=""static/images/cards/back_of_black_bolts.svg"" width=""175px"" height=""250px""></img></td>
  </tr>
  <tr height=200>
    <td width=300></td>
    <td width=300><img src=""static/images/keys/m.svg"" width=""35%"" height=""75%""></img></td>
  </tr>
</table>
  ",77.0,1.0,,,,,,,,,,,,,,,,,,,,,,,,,,
192,0,,html-keyboard-response,192,474251,0.0-7.8-2.8,qidsv3gz1p,2022-09-19 15:59:00.750,62a7970f8387f3fcc95b106b,2,27,30,31,28,31,Male,,,"
  <table>
  <tr height=300>
    <td width=300 height=300><img src=""static/images/cards/back_of_black_bolts.svg"" width=""175px"" height=""250px""></img></td>
    <td width=300 height=300><img src=""static/images/cards/3_of_black_bolts.svg"" width=""175px"" height=""250px""></img></td>
  </tr>
  <tr height=200>
    <td width=300></td>
    <td width=300><img src=""static/images/keys/m.svg"" width=""35%"" height=""75%""></img></td>
  </tr>
</table>
  ",,,,,,,,,,,,,,,,,,,,,,,,,,,,
193,0,,html-keyboard-response,193,475760,0.0-7.8-3.8,qidsv3gz1p,2022-09-19 15:59:00.750,62a7970f8387f3fcc95b106b,2,27,30,31,28,31,Male,,,"<p style=""font-size:50px"">You win!
+10 points this round!</p>",,,,,,,,,,,,,,,,,,,,,,,,,,,,
194,0,,html-keyboard-response,194,476268,0.0-7.8-4.8,qidsv3gz1p,2022-09-19 15:59:00.750,62a7970f8387f3fcc95b106b,2,27,30,31,28,31,Male,,,,,,1.0,choice,8.0,A,Xnc,black,black,stars,bolts,A,Xnc,Xnc,black,bolts,1134.5,0.0,0.0,0,right,678.8000000119,3.0,0.0,1.0,,,
195,0,,html-keyboard-response,195,477890,0.0-7.9-0.9,qidsv3gz1p,2022-09-19 15:59:00.750,62a7970f8387f3fcc95b106b,2,27,30,31,28,31,Male,1619.6999999881,,"
  <table>
  <tr height=300>
    <td width=300 height=300><img src=""static/images/cards/stack_of_red_moons.svg"" width=""175px"" height=""250px""></img></td>
    <td width=300 height=300><img src=""static/images/cards/stack_of_black_moons.svg"" width=""175px"" height=""250px""></img></td>
  </tr>
  <tr height=200>
    <td width=300><img src=""static/images/keys/w.svg"" width=""35%"" height=""75%""></img></td>
    <td width=300><img src=""static/images/keys/o.svg"" width=""35%"" height=""75%""></img></td>
  </tr>
</table>
  ",79.0,1.0,,,,,,,,,,,,,,,,,,,,,,,,,,
196,0,,html-keyboard-response,196,479135,0.0-7.9-1.9,qidsv3gz1p,2022-09-19 15:59:00.750,62a7970f8387f3fcc95b106b,2,27,30,31,28,31,Male,730.0,,"
  <table>
  <tr height=300>
    <td width=300 height=300><img src=""static/images/cards/back_of_black_moons.svg"" width=""175px"" height=""250px""></img></td>
    <td width=300 height=300><img src=""static/images/cards/back_of_black_moons.svg"" width=""175px"" height=""250px""></img></td>
  </tr>
  <tr height=200>
    <td width=300><img src=""static/images/keys/z.svg"" width=""35%"" height=""75%""></img></td>
    <td width=300><img src=""static/images/keys/m.svg"" width=""35%"" height=""75%""></img></td>
  </tr>
</table>
  ",77.0,1.0,,,,,,,,,,,,,,,,,,,,,,,,,,
197,0,,html-keyboard-response,197,480638,0.0-7.9-2.9,qidsv3gz1p,2022-09-19 15:59:00.750,62a7970f8387f3fcc95b106b,2,27,30,31,28,31,Male,,,"
  <table>
  <tr height=300>
    <td width=300 height=300><img src=""static/images/cards/back_of_black_moons.svg"" width=""175px"" height=""250px""></img></td>
    <td width=300 height=300><img src=""static/images/cards/2_of_black_moons.svg"" width=""175px"" height=""250px""></img></td>
  </tr>
  <tr height=200>
    <td width=300><img src=""static/images/keys/z.svg"" width=""35%"" height=""75%""></img></td>
    <td width=300><img src=""static/images/keys/m.svg"" width=""35%"" height=""75%""></img></td>
  </tr>
</table>
  ",,,,,,,,,,,,,,,,,,,,,,,,,,,,
198,0,,html-keyboard-response,198,482147,0.0-7.9-3.9,qidsv3gz1p,2022-09-19 15:59:00.750,62a7970f8387f3fcc95b106b,2,27,30,31,28,31,Male,,,"<p style=""font-size:50px"">You Lose!
No points this round.</p>",,,,,,,,,,,,,,,,,,,,,,,,,,,,
199,0,,html-keyboard-response,199,482659,0.0-7.9-4.9,qidsv3gz1p,2022-09-19 15:59:00.750,62a7970f8387f3fcc95b106b,2,27,30,31,28,31,Male,,,,,,1.0,choice,9.0,C,D,red,black,moons,moons,D,C,C,black,moons,1619.6999999881,1.0,0.0,NA,right,730.0,2.0,0.0,0.0,,,
200,0,,html-keyboard-response,200,483674,0.0-7.10-0.10,qidsv3gz1p,2022-09-19 15:59:00.750,62a7970f8387f3fcc95b106b,2,27,30,31,28,31,Male,1013.6000000238,,"
  <table>
  <tr height=300>
    <td width=300 height=300><img src=""static/images/cards/stack_of_red_moons.svg"" width=""175px"" height=""250px""></img></td>
    <td width=300 height=300><img src=""static/images/cards/stack_of_red_stars.svg"" width=""175px"" height=""250px""></img></td>
  </tr>
  <tr height=200>
    <td width=300><img src=""static/images/keys/w.svg"" width=""35%"" height=""75%""></img></td>
    <td width=300><img src=""static/images/keys/o.svg"" width=""35%"" height=""75%""></img></td>
  </tr>
</table>
  ",79.0,1.0,,,,,,,,,,,,,,,,,,,,,,,,,,
201,0,,html-keyboard-response,201,484823,0.0-7.10-1.10,qidsv3gz1p,2022-09-19 15:59:00.750,62a7970f8387f3fcc95b106b,2,27,30,31,28,31,Male,635.5,,"
  <table>
  <tr height=300>
    <td width=300 height=300><img src=""static/images/cards/back_of_red_stars.svg"" width=""175px"" height=""250px""></img></td>
    <td width=300 height=300><img src=""static/images/cards/back_of_red_stars.svg"" width=""175px"" height=""250px""></img></td>
  </tr>
  <tr height=200>
    <td width=300></td>
    <td width=300><img src=""static/images/keys/m.svg"" width=""35%"" height=""75%""></img></td>
  </tr>
</table>
  ",77.0,1.0,,,,,,,,,,,,,,,,,,,,,,,,,,
202,0,,html-keyboard-response,202,486334,0.0-7.10-2.10,qidsv3gz1p,2022-09-19 15:59:00.750,62a7970f8387f3fcc95b106b,2,27,30,31,28,31,Male,,,"
  <table>
  <tr height=300>
    <td width=300 height=300><img src=""static/images/cards/back_of_red_stars.svg"" width=""175px"" height=""250px""></img></td>
    <td width=300 height=300><img src=""static/images/cards/9_of_red_stars.svg"" width=""175px"" height=""250px""></img></td>
  </tr>
  <tr height=200>
    <td width=300></td>
    <td width=300><img src=""static/images/keys/m.svg"" width=""35%"" height=""75%""></img></td>
  </tr>
</table>
  ",,,,,,,,,,,,,,,,,,,,,,,,,,,,
203,0,,html-keyboard-response,203,487838,0.0-7.10-3.10,qidsv3gz1p,2022-09-19 15:59:00.750,62a7970f8387f3fcc95b106b,2,27,30,31,28,31,Male,,,"<p style=""font-size:50px"">You win!
+10 points this round!</p>",,,,,,,,,,,,,,,,,,,,,,,,,,,,
204,0,,html-keyboard-response,204,488353,0.0-7.10-4.10,qidsv3gz1p,2022-09-19 15:59:00.750,62a7970f8387f3fcc95b106b,2,27,30,31,28,31,Male,,,,,,1.0,choice,10.0,B,D,red,red,moons,stars,D,B,B,red,stars,1013.6000000238,0.0,1.0,0,right,635.5,9.0,1.0,1.0,,,
205,0,,html-keyboard-response,205,489750,0.0-7.11-0.11,qidsv3gz1p,2022-09-19 15:59:00.750,62a7970f8387f3fcc95b106b,2,27,30,31,28,31,Male,1394.8999999762,,"
  <table>
  <tr height=300>
    <td width=300 height=300><img src=""static/images/cards/stack_of_red_stars.svg"" width=""175px"" height=""250px""></img></td>
    <td width=300 height=300><img src=""static/images/cards/stack_of_black_stars.svg"" width=""175px"" height=""250px""></img></td>
  </tr>
  <tr height=200>
    <td width=300><img src=""static/images/keys/w.svg"" width=""35%"" height=""75%""></img></td>
    <td width=300><img src=""static/images/keys/o.svg"" width=""35%"" height=""75%""></img></td>
  </tr>
</table>
  ",79.0,1.0,,,,,,,,,,,,,,,,,,,,,,,,,,
206,0,,html-keyboard-response,206,490970,0.0-7.11-1.11,qidsv3gz1p,2022-09-19 15:59:00.750,62a7970f8387f3fcc95b106b,2,27,30,31,28,31,Male,717.5,,"
  <table>
  <tr height=300>
    <td width=300 height=300><img src=""static/images/cards/back_of_black_stars.svg"" width=""175px"" height=""250px""></img></td>
    <td width=300 height=300><img src=""static/images/cards/back_of_black_stars.svg"" width=""175px"" height=""250px""></img></td>
  </tr>
  <tr height=200>
    <td width=300><img src=""static/images/keys/z.svg"" width=""35%"" height=""75%""></img></td>
    <td width=300><img src=""static/images/keys/m.svg"" width=""35%"" height=""75%""></img></td>
  </tr>
</table>
  ",77.0,1.0,,,,,,,,,,,,,,,,,,,,,,,,,,
207,0,,html-keyboard-response,207,492491,0.0-7.11-2.11,qidsv3gz1p,2022-09-19 15:59:00.750,62a7970f8387f3fcc95b106b,2,27,30,31,28,31,Male,,,"
  <table>
  <tr height=300>
    <td width=300 height=300><img src=""static/images/cards/back_of_black_stars.svg"" width=""175px"" height=""250px""></img></td>
    <td width=300 height=300><img src=""static/images/cards/4_of_black_stars.svg"" width=""175px"" height=""250px""></img></td>
  </tr>
  <tr height=200>
    <td width=300><img src=""static/images/keys/z.svg"" width=""35%"" height=""75%""></img></td>
    <td width=300><img src=""static/images/keys/m.svg"" width=""35%"" height=""75%""></img></td>
  </tr>
</table>
  ",,,,,,,,,,,,,,,,,,,,,,,,,,,,
208,0,,html-keyboard-response,208,494017,0.0-7.11-3.11,qidsv3gz1p,2022-09-19 15:59:00.750,62a7970f8387f3fcc95b106b,2,27,30,31,28,31,Male,,,"<p style=""font-size:50px"">You Lose!
No points this round.</p>",,,,,,,,,,,,,,,,,,,,,,,,,,,,
209,0,,html-keyboard-response,209,494526,0.0-7.11-4.11,qidsv3gz1p,2022-09-19 15:59:00.750,62a7970f8387f3fcc95b106b,2,27,30,31,28,31,Male,,,,,,1.0,choice,11.0,A,B,red,black,stars,stars,B,A,A,black,stars,1394.8999999762,1.0,1.0,NA,right,717.5,4.0,0.0,0.0,,,
210,0,,html-keyboard-response,210,496320,0.0-7.12-0.12,qidsv3gz1p,2022-09-19 15:59:00.750,62a7970f8387f3fcc95b106b,2,27,30,31,28,31,Male,1792.0,,"
  <table>
  <tr height=300>
    <td width=300 height=300><img src=""static/images/cards/stack_of_black_stars.svg"" width=""175px"" height=""250px""></img></td>
    <td width=300 height=300><img src=""static/images/cards/stack_of_red_moons.svg"" width=""175px"" height=""250px""></img></td>
  </tr>
  <tr height=200>
    <td width=300><img src=""static/images/keys/w.svg"" width=""35%"" height=""75%""></img></td>
    <td width=300><img src=""static/images/keys/o.svg"" width=""35%"" height=""75%""></img></td>
  </tr>
</table>
  ",79.0,1.0,,,,,,,,,,,,,,,,,,,,,,,,,,
211,0,,html-keyboard-response,211,497822,0.0-7.12-1.12,qidsv3gz1p,2022-09-19 15:59:00.750,62a7970f8387f3fcc95b106b,2,27,30,31,28,31,Male,986.6000000238,,"
  <table>
  <tr height=300>
    <td width=300 height=300><img src=""static/images/cards/back_of_red_moons.svg"" width=""175px"" height=""250px""></img></td>
    <td width=300 height=300><img src=""static/images/cards/back_of_red_moons.svg"" width=""175px"" height=""250px""></img></td>
  </tr>
  <tr height=200>
    <td width=300><img src=""static/images/keys/z.svg"" width=""35%"" height=""75%""></img></td>
    <td width=300></td>
  </tr>
</table>
  ",90.0,1.0,,,,,,,,,,,,,,,,,,,,,,,,,,
212,0,,html-keyboard-response,212,499337,0.0-7.12-2.12,qidsv3gz1p,2022-09-19 15:59:00.750,62a7970f8387f3fcc95b106b,2,27,30,31,28,31,Male,,,"
  <table>
  <tr height=300>
    <td width=300 height=300><img src=""static/images/cards/4_of_red_moons.svg"" width=""175px"" height=""250px""></img></td>
    <td width=300 height=300><img src=""static/images/cards/back_of_red_moons.svg"" width=""175px"" height=""250px""></img></td>
  </tr>
  <tr height=200>
    <td width=300><img src=""static/images/keys/z.svg"" width=""35%"" height=""75%""></img></td>
    <td width=300></td>
  </tr>
</table>
  ",,,,,,,,,,,,,,,,,,,,,,,,,,,,
213,0,,html-keyboard-response,213,500849,0.0-7.12-3.12,qidsv3gz1p,2022-09-19 15:59:00.750,62a7970f8387f3fcc95b106b,2,27,30,31,28,31,Male,,,"<p style=""font-size:50px"">You Lose!
No points this round.</p>",,,,,,,,,,,,,,,,,,,,,,,,,,,,
214,0,,html-keyboard-response,214,501360,0.0-7.12-4.12,qidsv3gz1p,2022-09-19 15:59:00.750,62a7970f8387f3fcc95b106b,2,27,30,31,28,31,Male,,,,,,1.0,choice,12.0,A,D,black,red,stars,moons,A,D,D,red,moons,1792.0,0.0,0.0,1,left,986.6000000238,4.0,0.0,0.0,,,
215,0,,html-keyboard-response,215,502649,0.0-7.13-0.13,qidsv3gz1p,2022-09-19 15:59:00.750,62a7970f8387f3fcc95b106b,2,27,30,31,28,31,Male,1287.1999999881,,"
  <table>
  <tr height=300>
    <td width=300 height=300><img src=""static/images/cards/stack_of_black_moons.svg"" width=""175px"" height=""250px""></img></td>
    <td width=300 height=300><img src=""static/images/cards/stack_of_red_moons.svg"" width=""175px"" height=""250px""></img></td>
  </tr>
  <tr height=200>
    <td width=300><img src=""static/images/keys/w.svg"" width=""35%"" height=""75%""></img></td>
    <td width=300><img src=""static/images/keys/o.svg"" width=""35%"" height=""75%""></img></td>
  </tr>
</table>
  ",87.0,1.0,,,,,,,,,,,,,,,,,,,,,,,,,,
216,0,,html-keyboard-response,216,504766,0.0-7.13-1.13,qidsv3gz1p,2022-09-19 15:59:00.750,62a7970f8387f3fcc95b106b,2,27,30,31,28,31,Male,1606.1000000238,,"
  <table>
  <tr height=300>
    <td width=300 height=300><img src=""static/images/cards/back_of_black_moons.svg"" width=""175px"" height=""250px""></img></td>
    <td width=300 height=300><img src=""static/images/cards/back_of_black_moons.svg"" width=""175px"" height=""250px""></img></td>
  </tr>
  <tr height=200>
    <td width=300><img src=""static/images/keys/z.svg"" width=""35%"" height=""75%""></img></td>
    <td width=300><img src=""static/images/keys/m.svg"" width=""35%"" height=""75%""></img></td>
  </tr>
</table>
  ",77.0,1.0,,,,,,,,,,,,,,,,,,,,,,,,,,
217,0,,html-keyboard-response,217,506276,0.0-7.13-2.13,qidsv3gz1p,2022-09-19 15:59:00.750,62a7970f8387f3fcc95b106b,2,27,30,31,28,31,Male,,,"
  <table>
  <tr height=300>
    <td width=300 height=300><img src=""static/images/cards/back_of_black_moons.svg"" width=""175px"" height=""250px""></img></td>
    <td width=300 height=300><img src=""static/images/cards/6_of_black_moons.svg"" width=""175px"" height=""250px""></img></td>
  </tr>
  <tr height=200>
    <td width=300><img src=""static/images/keys/z.svg"" width=""35%"" height=""75%""></img></td>
    <td width=300><img src=""static/images/keys/m.svg"" width=""35%"" height=""75%""></img></td>
  </tr>
</table>
  ",,,,,,,,,,,,,,,,,,,,,,,,,,,,
218,0,,html-keyboard-response,218,507788,0.0-7.13-3.13,qidsv3gz1p,2022-09-19 15:59:00.750,62a7970f8387f3fcc95b106b,2,27,30,31,28,31,Male,,,"<p style=""font-size:50px"">You Lose!
No points this round.</p>",,,,,,,,,,,,,,,,,,,,,,,,,,,,
219,0,,html-keyboard-response,219,508309,0.0-7.13-4.13,qidsv3gz1p,2022-09-19 15:59:00.750,62a7970f8387f3fcc95b106b,2,27,30,31,28,31,Male,,,,,,1.0,choice,13.0,C,D,black,red,moons,moons,C,D,C,black,moons,1287.1999999881,1.0,0.0,NA,right,1606.1000000238,6.0,1.0,0.0,,,
220,0,,html-keyboard-response,220,509997,0.0-7.14-0.14,qidsv3gz1p,2022-09-19 15:59:00.750,62a7970f8387f3fcc95b106b,2,27,30,31,28,31,Male,1686.1999999881,,"
  <table>
  <tr height=300>
    <td width=300 height=300><img src=""static/images/cards/stack_of_black_stars.svg"" width=""175px"" height=""250px""></img></td>
    <td width=300 height=300><img src=""static/images/cards/stack_of_red_moons.svg"" width=""175px"" height=""250px""></img></td>
  </tr>
  <tr height=200>
    <td width=300><img src=""static/images/keys/w.svg"" width=""35%"" height=""75%""></img></td>
    <td width=300><img src=""static/images/keys/o.svg"" width=""35%"" height=""75%""></img></td>
  </tr>
</table>
  ",79.0,1.0,,,,,,,,,,,,,,,,,,,,,,,,,,
221,0,,html-keyboard-response,221,511135,0.0-7.14-1.14,qidsv3gz1p,2022-09-19 15:59:00.750,62a7970f8387f3fcc95b106b,2,27,30,31,28,31,Male,630.5,,"
  <table>
  <tr height=300>
    <td width=300 height=300><img src=""static/images/cards/back_of_red_moons.svg"" width=""175px"" height=""250px""></img></td>
    <td width=300 height=300><img src=""static/images/cards/back_of_red_moons.svg"" width=""175px"" height=""250px""></img></td>
  </tr>
  <tr height=200>
    <td width=300></td>
    <td width=300><img src=""static/images/keys/m.svg"" width=""35%"" height=""75%""></img></td>
  </tr>
</table>
  ",77.0,1.0,,,,,,,,,,,,,,,,,,,,,,,,,,
222,0,,html-keyboard-response,222,512650,0.0-7.14-2.14,qidsv3gz1p,2022-09-19 15:59:00.750,62a7970f8387f3fcc95b106b,2,27,30,31,28,31,Male,,,"
  <table>
  <tr height=300>
    <td width=300 height=300><img src=""static/images/cards/back_of_red_moons.svg"" width=""175px"" height=""250px""></img></td>
    <td width=300 height=300><img src=""static/images/cards/2_of_red_moons.svg"" width=""175px"" height=""250px""></img></td>
  </tr>
  <tr height=200>
    <td width=300></td>
    <td width=300><img src=""static/images/keys/m.svg"" width=""35%"" height=""75%""></img></td>
  </tr>
</table>
  ",,,,,,,,,,,,,,,,,,,,,,,,,,,,
223,0,,html-keyboard-response,223,514155,0.0-7.14-3.14,qidsv3gz1p,2022-09-19 15:59:00.750,62a7970f8387f3fcc95b106b,2,27,30,31,28,31,Male,,,"<p style=""font-size:50px"">You Lose!
No points this round.</p>",,,,,,,,,,,,,,,,,,,,,,,,,,,,
224,0,,html-keyboard-response,224,514666,0.0-7.14-4.14,qidsv3gz1p,2022-09-19 15:59:00.750,62a7970f8387f3fcc95b106b,2,27,30,31,28,31,Male,,,,,,1.0,choice,14.0,A,D,black,red,stars,moons,A,D,D,red,moons,1686.1999999881,0.0,0.0,0,right,630.5,2.0,0.0,0.0,,,
225,0,,html-keyboard-response,225,516032,0.0-7.15-0.15,qidsv3gz1p,2022-09-19 15:59:00.750,62a7970f8387f3fcc95b106b,2,27,30,31,28,31,Male,1363.8999999762,,"
  <table>
  <tr height=300>
    <td width=300 height=300><img src=""static/images/cards/stack_of_red_stars.svg"" width=""175px"" height=""250px""></img></td>
    <td width=300 height=300><img src=""static/images/cards/stack_of_red_moons.svg"" width=""175px"" height=""250px""></img></td>
  </tr>
  <tr height=200>
    <td width=300><img src=""static/images/keys/w.svg"" width=""35%"" height=""75%""></img></td>
    <td width=300><img src=""static/images/keys/o.svg"" width=""35%"" height=""75%""></img></td>
  </tr>
</table>
  ",87.0,1.0,,,,,,,,,,,,,,,,,,,,,,,,,,
226,0,,html-keyboard-response,226,517713,0.0-7.15-1.15,qidsv3gz1p,2022-09-19 15:59:00.750,62a7970f8387f3fcc95b106b,2,27,30,31,28,31,Male,1170.0,,"
  <table>
  <tr height=300>
    <td width=300 height=300><img src=""static/images/cards/back_of_red_stars.svg"" width=""175px"" height=""250px""></img></td>
    <td width=300 height=300><img src=""static/images/cards/back_of_red_stars.svg"" width=""175px"" height=""250px""></img></td>
  </tr>
  <tr height=200>
    <td width=300><img src=""static/images/keys/z.svg"" width=""35%"" height=""75%""></img></td>
    <td width=300></td>
  </tr>
</table>
  ",90.0,1.0,,,,,,,,,,,,,,,,,,,,,,,,,,
227,0,,html-keyboard-response,227,519219,0.0-7.15-2.15,qidsv3gz1p,2022-09-19 15:59:00.750,62a7970f8387f3fcc95b106b,2,27,30,31,28,31,Male,,,"
  <table>
  <tr height=300>
    <td width=300 height=300><img src=""static/images/cards/4_of_red_stars.svg"" width=""175px"" height=""250px""></img></td>
    <td width=300 height=300><img src=""static/images/cards/back_of_red_stars.svg"" width=""175px"" height=""250px""></img></td>
  </tr>
  <tr height=200>
    <td width=300><img src=""static/images/keys/z.svg"" width=""35%"" height=""75%""></img></td>
    <td width=300></td>
  </tr>
</table>
  ",,,,,,,,,,,,,,,,,,,,,,,,,,,,
228,0,,html-keyboard-response,228,520737,0.0-7.15-3.15,qidsv3gz1p,2022-09-19 15:59:00.750,62a7970f8387f3fcc95b106b,2,27,30,31,28,31,Male,,,"<p style=""font-size:50px"">You Lose!
No points this round.</p>",,,,,,,,,,,,,,,,,,,,,,,,,,,,
229,0,,html-keyboard-response,229,521244,0.0-7.15-4.15,qidsv3gz1p,2022-09-19 15:59:00.750,62a7970f8387f3fcc95b106b,2,27,30,31,28,31,Male,,,,,,1.0,choice,15.0,B,D,red,red,stars,moons,B,D,B,red,stars,1363.8999999762,0.0,1.0,1,left,1170.0,4.0,0.0,0.0,,,
230,0,,html-keyboard-response,230,522908,0.0-7.16-0.16,qidsv3gz1p,2022-09-19 15:59:00.750,62a7970f8387f3fcc95b106b,2,27,30,31,28,31,Male,1662.5,,"
  <table>
  <tr height=300>
    <td width=300 height=300><img src=""static/images/cards/stack_of_red_moons.svg"" width=""175px"" height=""250px""></img></td>
    <td width=300 height=300><img src=""static/images/cards/stack_of_red_stars.svg"" width=""175px"" height=""250px""></img></td>
  </tr>
  <tr height=200>
    <td width=300><img src=""static/images/keys/w.svg"" width=""35%"" height=""75%""></img></td>
    <td width=300><img src=""static/images/keys/o.svg"" width=""35%"" height=""75%""></img></td>
  </tr>
</table>
  ",79.0,1.0,,,,,,,,,,,,,,,,,,,,,,,,,,
231,0,,html-keyboard-response,231,524395,0.0-7.16-1.16,qidsv3gz1p,2022-09-19 15:59:00.750,62a7970f8387f3fcc95b106b,2,27,30,31,28,31,Male,972.3000000119,,"
  <table>
  <tr height=300>
    <td width=300 height=300><img src=""static/images/cards/back_of_red_stars.svg"" width=""175px"" height=""250px""></img></td>
    <td width=300 height=300><img src=""static/images/cards/back_of_red_stars.svg"" width=""175px"" height=""250px""></img></td>
  </tr>
  <tr height=200>
    <td width=300><img src=""static/images/keys/z.svg"" width=""35%"" height=""75%""></img></td>
    <td width=300></td>
  </tr>
</table>
  ",90.0,1.0,,,,,,,,,,,,,,,,,,,,,,,,,,
232,0,,html-keyboard-response,232,525905,0.0-7.16-2.16,qidsv3gz1p,2022-09-19 15:59:00.750,62a7970f8387f3fcc95b106b,2,27,30,31,28,31,Male,,,"
  <table>
  <tr height=300>
    <td width=300 height=300><img src=""static/images/cards/4_of_red_stars.svg"" width=""175px"" height=""250px""></img></td>
    <td width=300 height=300><img src=""static/images/cards/back_of_red_stars.svg"" width=""175px"" height=""250px""></img></td>
  </tr>
  <tr height=200>
    <td width=300><img src=""static/images/keys/z.svg"" width=""35%"" height=""75%""></img></td>
    <td width=300></td>
  </tr>
</table>
  ",,,,,,,,,,,,,,,,,,,,,,,,,,,,
233,0,,html-keyboard-response,233,527416,0.0-7.16-3.16,qidsv3gz1p,2022-09-19 15:59:00.750,62a7970f8387f3fcc95b106b,2,27,30,31,28,31,Male,,,"<p style=""font-size:50px"">You Lose!
No points this round.</p>",,,,,,,,,,,,,,,,,,,,,,,,,,,,
234,0,,html-keyboard-response,234,527923,0.0-7.16-4.16,qidsv3gz1p,2022-09-19 15:59:00.750,62a7970f8387f3fcc95b106b,2,27,30,31,28,31,Male,,,,,,1.0,choice,16.0,B,D,red,red,moons,stars,D,B,B,red,stars,1662.5,0.0,1.0,1,left,972.3000000119,4.0,0.0,0.0,,,
235,0,,html-keyboard-response,235,529194,0.0-7.17-0.17,qidsv3gz1p,2022-09-19 15:59:00.750,62a7970f8387f3fcc95b106b,2,27,30,31,28,31,Male,1269.1000000238,,"
  <table>
  <tr height=300>
    <td width=300 height=300><img src=""static/images/cards/stack_of_red_stars.svg"" width=""175px"" height=""250px""></img></td>
    <td width=300 height=300><img src=""static/images/cards/stack_of_black_moons.svg"" width=""175px"" height=""250px""></img></td>
  </tr>
  <tr height=200>
    <td width=300><img src=""static/images/keys/w.svg"" width=""35%"" height=""75%""></img></td>
