,index,success,trial_type,trial_index,time_elapsed,internal_node_id,subject,date,prol_id,ctbl,sense_of_control_A,sense_of_control_B,sense_of_control_C,sense_of_control_D,age,gender,rt,url,stimulus,key_press,npress,is_data_trial,phase,trial,deck1,deck2,col1,col2,sym1,sym2,deck_l,deck_r,chosen_deck,chosen_col,chosen_sym,deck_rt,choose_choice,mutual_info,hidden_key,chosen_card,card_rt,player_num,win_card,outcome,mock_rating,response,responses
0,0,1.0,fullscreen,0,99089,0.0-0.0,c6koxwkbe28,2022-09-19 16:45:43.845,62ab505d7e36b71cb8acd2d8,2,80,40,24,74,28,male,,,,,,,,,,,,,,,,,,,,,,,,,,,,,,,
1,0,,external-html,1,103764,0.0-1.0,c6koxwkbe28,2022-09-19 16:45:43.845,62ab505d7e36b71cb8acd2d8,2,80,40,24,74,28,male,3143.8000000715,static/js/sub/consent.html,,,,,,,,,,,,,,,,,,,,,,,,,,,,,
2,0,,call-function,2,103765,0.0-2.0,c6koxwkbe28,2022-09-19 16:45:43.845,62ab505d7e36b71cb8acd2d8,2,80,40,24,74,28,male,,,,,,,,,,,,,,,,,,,,,,,,,,,,,,,
3,0,,image-keyboard-response,3,107004,0.0-3.0-0.0,c6koxwkbe28,2022-09-19 16:45:43.845,62ab505d7e36b71cb8acd2d8,2,80,40,24,74,28,male,3237.6000000238,,static/images/instructions_CB_2/Slide1.png,39.0,,,,,,,,,,,,,,,,,,,,,,,,,,,
4,0,,image-keyboard-response,4,246242,0.0-3.1-0.1,c6koxwkbe28,2022-09-19 16:45:43.845,62ab505d7e36b71cb8acd2d8,2,80,40,24,74,28,male,139236.5,,static/images/instructions_CB_2/Slide2.png,39.0,,,,,,,,,,,,,,,,,,,,,,,,,,,
5,0,,image-keyboard-response,5,251816,0.0-3.2-0.2,c6koxwkbe28,2022-09-19 16:45:43.845,62ab505d7e36b71cb8acd2d8,2,80,40,24,74,28,male,5572.2999999523,,static/images/instructions_CB_2/Slide3.png,39.0,,,,,,,,,,,,,,,,,,,,,,,,,,,
6,0,,image-keyboard-response,6,255012,0.0-3.3-0.3,c6koxwkbe28,2022-09-19 16:45:43.845,62ab505d7e36b71cb8acd2d8,2,80,40,24,74,28,male,3195.2999999523,,static/images/instructions_CB_2/Slide4.png,37.0,,,,,,,,,,,,,,,,,,,,,,,,,,,
7,0,,image-keyboard-response,7,295565,0.0-3.4-0.4,c6koxwkbe28,2022-09-19 16:45:43.845,62ab505d7e36b71cb8acd2d8,2,80,40,24,74,28,male,40551.3999999762,,static/images/instructions_CB_2/Slide3.png,39.0,,,,,,,,,,,,,,,,,,,,,,,,,,,
8,0,,image-keyboard-response,8,301810,0.0-3.5-0.5,c6koxwkbe28,2022-09-19 16:45:43.845,62ab505d7e36b71cb8acd2d8,2,80,40,24,74,28,male,6244.0,,static/images/instructions_CB_2/Slide4.png,39.0,,,,,,,,,,,,,,,,,,,,,,,,,,,
9,0,,image-keyboard-response,9,302725,0.0-3.6-0.6,c6koxwkbe28,2022-09-19 16:45:43.845,62ab505d7e36b71cb8acd2d8,2,80,40,24,74,28,male,914.7000000477,,static/images/instructions_CB_2/Slide5.png,37.0,,,,,,,,,,,,,,,,,,,,,,,,,,,
10,0,,image-keyboard-response,10,304864,0.0-3.7-0.7,c6koxwkbe28,2022-09-19 16:45:43.845,62ab505d7e36b71cb8acd2d8,2,80,40,24,74,28,male,2137.8000000715,,static/images/instructions_CB_2/Slide4.png,39.0,,,,,,,,,,,,,,,,,,,,,,,,,,,
11,0,,image-keyboard-response,11,313150,0.0-3.8-0.8,c6koxwkbe28,2022-09-19 16:45:43.845,62ab505d7e36b71cb8acd2d8,2,80,40,24,74,28,male,8285.1999999285,,static/images/instructions_CB_2/Slide5.png,39.0,,,,,,,,,,,,,,,,,,,,,,,,,,,
12,0,,image-keyboard-response,12,317185,0.0-3.9-0.9,c6koxwkbe28,2022-09-19 16:45:43.845,62ab505d7e36b71cb8acd2d8,2,80,40,24,74,28,male,4033.3999999762,,static/images/instructions_CB_2/Slide6.png,39.0,,,,,,,,,,,,,,,,,,,,,,,,,,,
13,0,,image-keyboard-response,13,322023,0.0-3.10-0.10,c6koxwkbe28,2022-09-19 16:45:43.845,62ab505d7e36b71cb8acd2d8,2,80,40,24,74,28,male,4837.8000000715,,static/images/instructions_CB_2/Slide7.png,39.0,,,,,,,,,,,,,,,,,,,,,,,,,,,
14,0,,image-keyboard-response,14,334546,0.0-3.11-0.11,c6koxwkbe28,2022-09-19 16:45:43.845,62ab505d7e36b71cb8acd2d8,2,80,40,24,74,28,male,12521.8999999762,,static/images/instructions_CB_2/Slide8.png,39.0,,,,,,,,,,,,,,,,,,,,,,,,,,,
15,0,,image-keyboard-response,15,368871,0.0-3.12-0.12,c6koxwkbe28,2022-09-19 16:45:43.845,62ab505d7e36b71cb8acd2d8,2,80,40,24,74,28,male,34328.1000000238,,static/images/instructions_CB_2/Slide9.png,39.0,,,,,,,,,,,,,,,,,,,,,,,,,,,
16,0,,image-keyboard-response,16,388623,0.0-3.13-0.13,c6koxwkbe28,2022-09-19 16:45:43.845,62ab505d7e36b71cb8acd2d8,2,80,40,24,74,28,male,19751.1000000238,,static/images/instructions_CB_2/Slide10.png,39.0,,,,,,,,,,,,,,,,,,,,,,,,,,,
17,0,,image-keyboard-response,17,395374,0.0-3.14-0.14,c6koxwkbe28,2022-09-19 16:45:43.845,62ab505d7e36b71cb8acd2d8,2,80,40,24,74,28,male,6749.7999999523,,static/images/instructions_CB_2/Slide11.png,39.0,,,,,,,,,,,,,,,,,,,,,,,,,,,
18,0,,image-keyboard-response,18,420036,0.0-3.15-0.15,c6koxwkbe28,2022-09-19 16:45:43.845,62ab505d7e36b71cb8acd2d8,2,80,40,24,74,28,male,24661.5,,static/images/instructions_CB_2/Slide12.png,39.0,,,,,,,,,,,,,,,,,,,,,,,,,,,
19,0,,image-keyboard-response,19,429405,0.0-3.16-0.16,c6koxwkbe28,2022-09-19 16:45:43.845,62ab505d7e36b71cb8acd2d8,2,80,40,24,74,28,male,9364.2000000477,,static/images/instructions_CB_2/Slide13.png,39.0,,,,,,,,,,,,,,,,,,,,,,,,,,,
20,0,,image-keyboard-response,20,444383,0.0-3.17-0.17,c6koxwkbe28,2022-09-19 16:45:43.845,62ab505d7e36b71cb8acd2d8,2,80,40,24,74,28,male,14977.1000000238,,static/images/instructions_CB_2/Slide14.png,39.0,,,,,,,,,,,,,,,,,,,,,,,,,,,
21,0,,image-keyboard-response,21,493805,0.0-3.18-0.18,c6koxwkbe28,2022-09-19 16:45:43.845,62ab505d7e36b71cb8acd2d8,2,80,40,24,74,28,male,49422.6999999285,,static/images/instructions_CB_2/Slide15.png,39.0,,,,,,,,,,,,,,,,,,,,,,,,,,,
22,0,,image-keyboard-response,22,503791,0.0-3.19-0.19,c6koxwkbe28,2022-09-19 16:45:43.845,62ab505d7e36b71cb8acd2d8,2,80,40,24,74,28,male,9985.0999999046,,static/images/instructions_CB_2/Slide16.png,39.0,,,,,,,,,,,,,,,,,,,,,,,,,,,
23,0,,image-keyboard-response,23,519543,0.0-3.20-0.20,c6koxwkbe28,2022-09-19 16:45:43.845,62ab505d7e36b71cb8acd2d8,2,80,40,24,74,28,male,15751.2999999523,,static/images/instructions_CB_2/Slide17.png,39.0,,,,,,,,,,,,,,,,,,,,,,,,,,,
24,0,,image-keyboard-response,24,541210,0.0-3.21-0.21,c6koxwkbe28,2022-09-19 16:45:43.845,62ab505d7e36b71cb8acd2d8,2,80,40,24,74,28,male,21665.6999999285,,static/images/instructions_CB_2/Slide18.png,39.0,,,,,,,,,,,,,,,,,,,,,,,,,,,
25,0,,image-keyboard-response,25,550058,0.0-3.22-0.22,c6koxwkbe28,2022-09-19 16:45:43.845,62ab505d7e36b71cb8acd2d8,2,80,40,24,74,28,male,8847.2999999523,,static/images/instructions_CB_2/Slide19.png,39.0,,,,,,,,,,,,,,,,,,,,,,,,,,,
26,0,,html-keyboard-response,26,551566,0.0-4.0-0.0,c6koxwkbe28,2022-09-19 16:45:43.845,62ab505d7e36b71cb8acd2d8,2,80,40,24,74,28,male,,,"<img src=""static/images/cards/stack_of_black_stars.svg"" width=""175px"" height=""250px""></img>",,,,,,,,,,,,,,,,,,,,,,,,,,,,
27,0,,html-keyboard-response,27,552840,0.0-4.0-1.0,c6koxwkbe28,2022-09-19 16:45:43.845,62ab505d7e36b71cb8acd2d8,2,80,40,24,74,28,male,771.6999999285,,"
  <table>
  <tr height=300>
    <td width=300 height=300><img src=""static/images/cards/back_of_black_stars.svg"" width=""175px"" height=""250px""></img></td>
    <td width=300 height=300><img src=""static/images/cards/back_of_black_stars.svg"" width=""175px"" height=""250px""></img></td>
  </tr>
  <tr height=200>
    <td width=300><img src=""static/images/keys/z.svg"" width=""35%"" height=""75%""></img></td>
    <td width=300><img src=""static/images/keys/m.svg"" width=""35%"" height=""75%""></img></td>
  </tr>
</table>
  ",90.0,1.0,,,,,,,,,,,,,,,,,,,,,,,,,,
28,0,,html-keyboard-response,28,554342,0.0-4.0-2.0,c6koxwkbe28,2022-09-19 16:45:43.845,62ab505d7e36b71cb8acd2d8,2,80,40,24,74,28,male,,,"
  <table>
  <tr height=300>
    <td width=300 height=300><img src=""static/images/cards/7_of_black_stars.svg"" width=""175px"" height=""250px""></img></td>
    <td width=300 height=300><img src=""static/images/cards/back_of_black_stars.svg"" width=""175px"" height=""250px""></img></td>
  </tr>
  <tr height=200>
    <td width=300><img src=""static/images/keys/z.svg"" width=""35%"" height=""75%""></img></td>
    <td width=300><img src=""static/images/keys/m.svg"" width=""35%"" height=""75%""></img></td>
  </tr>
</table>
  ",,,,,,,,,,,,,,,,,,,,,,,,,,,,
29,0,,html-keyboard-response,29,555860,0.0-4.0-3.0,c6koxwkbe28,2022-09-19 16:45:43.845,62ab505d7e36b71cb8acd2d8,2,80,40,24,74,28,male,,,"<p style=""font-size:50px"">You win!
+10 points this round!</p>",,,,,,,,,,,,,,,,,,,,,,,,,,,,
30,0,,html-keyboard-response,30,556369,0.0-4.0-4.0,c6koxwkbe28,2022-09-19 16:45:43.845,62ab505d7e36b71cb8acd2d8,2,80,40,24,74,28,male,,,,,,1.0,learning,0.0,A,,black,,stars,,,,A,black,stars,,1.0,1.0,NA,left,771.6999999285,7.0,1.0,1.0,,,
31,0,,html-keyboard-response,31,557880,0.0-4.1-0.1,c6koxwkbe28,2022-09-19 16:45:43.845,62ab505d7e36b71cb8acd2d8,2,80,40,24,74,28,male,,,"<img src=""static/images/cards/stack_of_red_stars.svg"" width=""175px"" height=""250px""></img>",,,,,,,,,,,,,,,,,,,,,,,,,,,,
32,0,,html-keyboard-response,32,559278,0.0-4.1-1.1,c6koxwkbe28,2022-09-19 16:45:43.845,62ab505d7e36b71cb8acd2d8,2,80,40,24,74,28,male,882.7000000477,,"
  <table>
  <tr height=300>
    <td width=300 height=300><img src=""static/images/cards/back_of_red_stars.svg"" width=""175px"" height=""250px""></img></td>
    <td width=300 height=300><img src=""static/images/cards/back_of_red_stars.svg"" width=""175px"" height=""250px""></img></td>
  </tr>
  <tr height=200>
    <td width=300><img src=""static/images/keys/z.svg"" width=""35%"" height=""75%""></img></td>
    <td width=300></td>
  </tr>
</table>
  ",90.0,1.0,,,,,,,,,,,,,,,,,,,,,,,,,,
33,0,,html-keyboard-response,33,560785,0.0-4.1-2.1,c6koxwkbe28,2022-09-19 16:45:43.845,62ab505d7e36b71cb8acd2d8,2,80,40,24,74,28,male,,,"
  <table>
  <tr height=300>
    <td width=300 height=300><img src=""static/images/cards/4_of_red_stars.svg"" width=""175px"" height=""250px""></img></td>
    <td width=300 height=300><img src=""static/images/cards/back_of_red_stars.svg"" width=""175px"" height=""250px""></img></td>
  </tr>
  <tr height=200>
    <td width=300><img src=""static/images/keys/z.svg"" width=""35%"" height=""75%""></img></td>
    <td width=300></td>
  </tr>
</table>
  ",,,,,,,,,,,,,,,,,,,,,,,,,,,,
34,0,,html-keyboard-response,34,562293,0.0-4.1-3.1,c6koxwkbe28,2022-09-19 16:45:43.845,62ab505d7e36b71cb8acd2d8,2,80,40,24,74,28,male,,,"<p style=""font-size:50px"">You Lose!
No points this round.</p>",,,,,,,,,,,,,,,,,,,,,,,,,,,,
35,0,,html-keyboard-response,35,562812,0.0-4.1-4.1,c6koxwkbe28,2022-09-19 16:45:43.845,62ab505d7e36b71cb8acd2d8,2,80,40,24,74,28,male,,,,,,1.0,learning,1.0,B,,red,,stars,,,,B,red,stars,,0.0,1.0,1,left,882.7000000477,4.0,0.0,0.0,,,
36,0,,html-keyboard-response,36,564316,0.0-4.2-0.2,c6koxwkbe28,2022-09-19 16:45:43.845,62ab505d7e36b71cb8acd2d8,2,80,40,24,74,28,male,,,"<img src=""static/images/cards/stack_of_black_moons.svg"" width=""175px"" height=""250px""></img>",,,,,,,,,,,,,,,,,,,,,,,,,,,,
37,0,,html-keyboard-response,37,565643,0.0-4.2-1.2,c6koxwkbe28,2022-09-19 16:45:43.845,62ab505d7e36b71cb8acd2d8,2,80,40,24,74,28,male,824.8000000715,,"
  <table>
  <tr height=300>
    <td width=300 height=300><img src=""static/images/cards/back_of_black_moons.svg"" width=""175px"" height=""250px""></img></td>
    <td width=300 height=300><img src=""static/images/cards/back_of_black_moons.svg"" width=""175px"" height=""250px""></img></td>
  </tr>
  <tr height=200>
    <td width=300><img src=""static/images/keys/z.svg"" width=""35%"" height=""75%""></img></td>
    <td width=300><img src=""static/images/keys/m.svg"" width=""35%"" height=""75%""></img></td>
  </tr>
</table>
  ",77.0,1.0,,,,,,,,,,,,,,,,,,,,,,,,,,
38,0,,html-keyboard-response,38,567147,0.0-4.2-2.2,c6koxwkbe28,2022-09-19 16:45:43.845,62ab505d7e36b71cb8acd2d8,2,80,40,24,74,28,male,,,"
  <table>
  <tr height=300>
    <td width=300 height=300><img src=""static/images/cards/back_of_black_moons.svg"" width=""175px"" height=""250px""></img></td>
    <td width=300 height=300><img src=""static/images/cards/9_of_black_moons.svg"" width=""175px"" height=""250px""></img></td>
  </tr>
  <tr height=200>
    <td width=300><img src=""static/images/keys/z.svg"" width=""35%"" height=""75%""></img></td>
    <td width=300><img src=""static/images/keys/m.svg"" width=""35%"" height=""75%""></img></td>
  </tr>
</table>
  ",,,,,,,,,,,,,,,,,,,,,,,,,,,,
39,0,,html-keyboard-response,39,568670,0.0-4.2-3.2,c6koxwkbe28,2022-09-19 16:45:43.845,62ab505d7e36b71cb8acd2d8,2,80,40,24,74,28,male,,,"<p style=""font-size:50px"">You win!
+10 points this round!</p>",,,,,,,,,,,,,,,,,,,,,,,,,,,,
40,0,,html-keyboard-response,40,569183,0.0-4.2-4.2,c6koxwkbe28,2022-09-19 16:45:43.845,62ab505d7e36b71cb8acd2d8,2,80,40,24,74,28,male,,,,,,1.0,learning,2.0,C,,black,,moons,,,,C,black,moons,,1.0,0.0,NA,right,824.8000000715,9.0,1.0,1.0,,,
41,0,,html-keyboard-response,41,570696,0.0-4.3-0.3,c6koxwkbe28,2022-09-19 16:45:43.845,62ab505d7e36b71cb8acd2d8,2,80,40,24,74,28,male,,,"<img src=""static/images/cards/stack_of_red_moons.svg"" width=""175px"" height=""250px""></img>",,,,,,,,,,,,,,,,,,,,,,,,,,,,
42,0,,html-keyboard-response,42,571753,0.0-4.3-1.3,c6koxwkbe28,2022-09-19 16:45:43.845,62ab505d7e36b71cb8acd2d8,2,80,40,24,74,28,male,552.7000000477,,"
  <table>
  <tr height=300>
    <td width=300 height=300><img src=""static/images/cards/back_of_red_moons.svg"" width=""175px"" height=""250px""></img></td>
    <td width=300 height=300><img src=""static/images/cards/back_of_red_moons.svg"" width=""175px"" height=""250px""></img></td>
  </tr>
  <tr height=200>
    <td width=300><img src=""static/images/keys/z.svg"" width=""35%"" height=""75%""></img></td>
    <td width=300></td>
  </tr>
</table>
  ",90.0,1.0,,,,,,,,,,,,,,,,,,,,,,,,,,
43,0,,html-keyboard-response,43,573264,0.0-4.3-2.3,c6koxwkbe28,2022-09-19 16:45:43.845,62ab505d7e36b71cb8acd2d8,2,80,40,24,74,28,male,,,"
  <table>
  <tr height=300>
    <td width=300 height=300><img src=""static/images/cards/3_of_red_moons.svg"" width=""175px"" height=""250px""></img></td>
    <td width=300 height=300><img src=""static/images/cards/back_of_red_moons.svg"" width=""175px"" height=""250px""></img></td>
  </tr>
  <tr height=200>
    <td width=300><img src=""static/images/keys/z.svg"" width=""35%"" height=""75%""></img></td>
    <td width=300></td>
  </tr>
</table>
  ",,,,,,,,,,,,,,,,,,,,,,,,,,,,
44,0,,html-keyboard-response,44,574779,0.0-4.3-3.3,c6koxwkbe28,2022-09-19 16:45:43.845,62ab505d7e36b71cb8acd2d8,2,80,40,24,74,28,male,,,"<p style=""font-size:50px"">You Lose!
No points this round.</p>",,,,,,,,,,,,,,,,,,,,,,,,,,,,
45,0,,html-keyboard-response,45,575298,0.0-4.3-4.3,c6koxwkbe28,2022-09-19 16:45:43.845,62ab505d7e36b71cb8acd2d8,2,80,40,24,74,28,male,,,,,,1.0,learning,3.0,D,,red,,moons,,,,D,red,moons,,0.0,0.0,1,left,552.7000000477,3.0,0.0,0.0,,,
46,0,,html-keyboard-response,46,576810,0.0-4.4-0.4,c6koxwkbe28,2022-09-19 16:45:43.845,62ab505d7e36b71cb8acd2d8,2,80,40,24,74,28,male,,,"<img src=""static/images/cards/stack_of_red_bolts.svg"" width=""175px"" height=""250px""></img>",,,,,,,,,,,,,,,,,,,,,,,,,,,,
47,0,,html-keyboard-response,47,577918,0.0-4.4-1.4,c6koxwkbe28,2022-09-19 16:45:43.845,62ab505d7e36b71cb8acd2d8,2,80,40,24,74,28,male,603.5,,"
  <table>
  <tr height=300>
    <td width=300 height=300><img src=""static/images/cards/back_of_red_bolts.svg"" width=""175px"" height=""250px""></img></td>
    <td width=300 height=300><img src=""static/images/cards/back_of_red_bolts.svg"" width=""175px"" height=""250px""></img></td>
  </tr>
  <tr height=200>
    <td width=300><img src=""static/images/keys/z.svg"" width=""35%"" height=""75%""></img></td>
    <td width=300><img src=""static/images/keys/m.svg"" width=""35%"" height=""75%""></img></td>
  </tr>
</table>
  ",77.0,1.0,,,,,,,,,,,,,,,,,,,,,,,,,,
48,0,,html-keyboard-response,48,579425,0.0-4.4-2.4,c6koxwkbe28,2022-09-19 16:45:43.845,62ab505d7e36b71cb8acd2d8,2,80,40,24,74,28,male,,,"
  <table>
  <tr height=300>
    <td width=300 height=300><img src=""static/images/cards/back_of_red_bolts.svg"" width=""175px"" height=""250px""></img></td>
    <td width=300 height=300><img src=""static/images/cards/1_of_red_bolts.svg"" width=""175px"" height=""250px""></img></td>
  </tr>
  <tr height=200>
    <td width=300><img src=""static/images/keys/z.svg"" width=""35%"" height=""75%""></img></td>
    <td width=300><img src=""static/images/keys/m.svg"" width=""35%"" height=""75%""></img></td>
  </tr>
</table>
  ",,,,,,,,,,,,,,,,,,,,,,,,,,,,
49,0,,html-keyboard-response,49,580935,0.0-4.4-3.4,c6koxwkbe28,2022-09-19 16:45:43.845,62ab505d7e36b71cb8acd2d8,2,80,40,24,74,28,male,,,"<p style=""font-size:50px"">You win!
+10 points this round!</p>",,,,,,,,,,,,,,,,,,,,,,,,,,,,
50,0,,html-keyboard-response,50,581452,0.0-4.4-4.4,c6koxwkbe28,2022-09-19 16:45:43.845,62ab505d7e36b71cb8acd2d8,2,80,40,24,74,28,male,,,,,,1.0,learning,4.0,Xc,,red,,bolts,,,,Xc,red,bolts,,1.0,0.0,NA,right,603.5,1.0,0.0,1.0,,,
51,0,,html-keyboard-response,51,582960,0.0-4.5-0.5,c6koxwkbe28,2022-09-19 16:45:43.845,62ab505d7e36b71cb8acd2d8,2,80,40,24,74,28,male,,,"<img src=""static/images/cards/stack_of_black_bolts.svg"" width=""175px"" height=""250px""></img>",,,,,,,,,,,,,,,,,,,,,,,,,,,,
52,0,,html-keyboard-response,52,583830,0.0-4.5-1.5,c6koxwkbe28,2022-09-19 16:45:43.845,62ab505d7e36b71cb8acd2d8,2,80,40,24,74,28,male,367.8000000715,,"
  <table>
  <tr height=300>
    <td width=300 height=300><img src=""static/images/cards/back_of_black_bolts.svg"" width=""175px"" height=""250px""></img></td>
    <td width=300 height=300><img src=""static/images/cards/back_of_black_bolts.svg"" width=""175px"" height=""250px""></img></td>
  </tr>
  <tr height=200>
    <td width=300><img src=""static/images/keys/z.svg"" width=""35%"" height=""75%""></img></td>
    <td width=300></td>
  </tr>
</table>
  ",90.0,1.0,,,,,,,,,,,,,,,,,,,,,,,,,,
53,0,,html-keyboard-response,53,585337,0.0-4.5-2.5,c6koxwkbe28,2022-09-19 16:45:43.845,62ab505d7e36b71cb8acd2d8,2,80,40,24,74,28,male,,,"
  <table>
  <tr height=300>
    <td width=300 height=300><img src=""static/images/cards/7_of_black_bolts.svg"" width=""175px"" height=""250px""></img></td>
    <td width=300 height=300><img src=""static/images/cards/back_of_black_bolts.svg"" width=""175px"" height=""250px""></img></td>
  </tr>
  <tr height=200>
    <td width=300><img src=""static/images/keys/z.svg"" width=""35%"" height=""75%""></img></td>
    <td width=300></td>
  </tr>
</table>
  ",,,,,,,,,,,,,,,,,,,,,,,,,,,,
54,0,,html-keyboard-response,54,586855,0.0-4.5-3.5,c6koxwkbe28,2022-09-19 16:45:43.845,62ab505d7e36b71cb8acd2d8,2,80,40,24,74,28,male,,,"<p style=""font-size:50px"">You win!
+10 points this round!</p>",,,,,,,,,,,,,,,,,,,,,,,,,,,,
55,0,,html-keyboard-response,55,587370,0.0-4.5-4.5,c6koxwkbe28,2022-09-19 16:45:43.845,62ab505d7e36b71cb8acd2d8,2,80,40,24,74,28,male,,,,,,1.0,learning,5.0,Xnc,,black,,bolts,,,,Xnc,black,bolts,,0.0,0.0,1,left,367.8000000715,7.0,1.0,1.0,,,
56,0,,html-keyboard-response,56,588878,0.0-4.6-0.6,c6koxwkbe28,2022-09-19 16:45:43.845,62ab505d7e36b71cb8acd2d8,2,80,40,24,74,28,male,,,"<img src=""static/images/cards/stack_of_black_stars.svg"" width=""175px"" height=""250px""></img>",,,,,,,,,,,,,,,,,,,,,,,,,,,,
57,0,,html-keyboard-response,57,589862,0.0-4.6-1.6,c6koxwkbe28,2022-09-19 16:45:43.845,62ab505d7e36b71cb8acd2d8,2,80,40,24,74,28,male,479.7999999523,,"
  <table>
  <tr height=300>
    <td width=300 height=300><img src=""static/images/cards/back_of_black_stars.svg"" width=""175px"" height=""250px""></img></td>
    <td width=300 height=300><img src=""static/images/cards/back_of_black_stars.svg"" width=""175px"" height=""250px""></img></td>
  </tr>
  <tr height=200>
    <td width=300><img src=""static/images/keys/z.svg"" width=""35%"" height=""75%""></img></td>
    <td width=300><img src=""static/images/keys/m.svg"" width=""35%"" height=""75%""></img></td>
  </tr>
</table>
  ",90.0,1.0,,,,,,,,,,,,,,,,,,,,,,,,,,
58,0,,html-keyboard-response,58,591369,0.0-4.6-2.6,c6koxwkbe28,2022-09-19 16:45:43.845,62ab505d7e36b71cb8acd2d8,2,80,40,24,74,28,male,,,"
  <table>
  <tr height=300>
    <td width=300 height=300><img src=""static/images/cards/10_of_black_stars.svg"" width=""175px"" height=""250px""></img></td>
    <td width=300 height=300><img src=""static/images/cards/back_of_black_stars.svg"" width=""175px"" height=""250px""></img></td>
  </tr>
  <tr height=200>
    <td width=300><img src=""static/images/keys/z.svg"" width=""35%"" height=""75%""></img></td>
    <td width=300><img src=""static/images/keys/m.svg"" width=""35%"" height=""75%""></img></td>
  </tr>
</table>
  ",,,,,,,,,,,,,,,,,,,,,,,,,,,,
59,0,,html-keyboard-response,59,592893,0.0-4.6-3.6,c6koxwkbe28,2022-09-19 16:45:43.845,62ab505d7e36b71cb8acd2d8,2,80,40,24,74,28,male,,,"<p style=""font-size:50px"">You win!
+10 points this round!</p>",,,,,,,,,,,,,,,,,,,,,,,,,,,,
60,0,,html-keyboard-response,60,593407,0.0-4.6-4.6,c6koxwkbe28,2022-09-19 16:45:43.845,62ab505d7e36b71cb8acd2d8,2,80,40,24,74,28,male,,,,,,1.0,learning,6.0,A,,black,,stars,,,,A,black,stars,,1.0,1.0,NA,left,479.7999999523,10.0,1.0,1.0,,,
61,0,,html-keyboard-response,61,594912,0.0-4.7-0.7,c6koxwkbe28,2022-09-19 16:45:43.845,62ab505d7e36b71cb8acd2d8,2,80,40,24,74,28,male,,,"<img src=""static/images/cards/stack_of_red_stars.svg"" width=""175px"" height=""250px""></img>",,,,,,,,,,,,,,,,,,,,,,,,,,,,
62,0,,html-keyboard-response,62,595965,0.0-4.7-1.7,c6koxwkbe28,2022-09-19 16:45:43.845,62ab505d7e36b71cb8acd2d8,2,80,40,24,74,28,male,538.4000000954,,"
  <table>
  <tr height=300>
    <td width=300 height=300><img src=""static/images/cards/back_of_red_stars.svg"" width=""175px"" height=""250px""></img></td>
    <td width=300 height=300><img src=""static/images/cards/back_of_red_stars.svg"" width=""175px"" height=""250px""></img></td>
  </tr>
  <tr height=200>
    <td width=300></td>
    <td width=300><img src=""static/images/keys/m.svg"" width=""35%"" height=""75%""></img></td>
  </tr>
</table>
  ",77.0,1.0,,,,,,,,,,,,,,,,,,,,,,,,,,
63,0,,html-keyboard-response,63,597481,0.0-4.7-2.7,c6koxwkbe28,2022-09-19 16:45:43.845,62ab505d7e36b71cb8acd2d8,2,80,40,24,74,28,male,,,"
  <table>
  <tr height=300>
    <td width=300 height=300><img src=""static/images/cards/back_of_red_stars.svg"" width=""175px"" height=""250px""></img></td>
    <td width=300 height=300><img src=""static/images/cards/9_of_red_stars.svg"" width=""175px"" height=""250px""></img></td>
  </tr>
  <tr height=200>
    <td width=300></td>
    <td width=300><img src=""static/images/keys/m.svg"" width=""35%"" height=""75%""></img></td>
  </tr>
</table>
  ",,,,,,,,,,,,,,,,,,,,,,,,,,,,
64,0,,html-keyboard-response,64,599008,0.0-4.7-3.7,c6koxwkbe28,2022-09-19 16:45:43.845,62ab505d7e36b71cb8acd2d8,2,80,40,24,74,28,male,,,"<p style=""font-size:50px"">You win!
+10 points this round!</p>",,,,,,,,,,,,,,,,,,,,,,,,,,,,
65,0,,html-keyboard-response,65,599527,0.0-4.7-4.7,c6koxwkbe28,2022-09-19 16:45:43.845,62ab505d7e36b71cb8acd2d8,2,80,40,24,74,28,male,,,,,,1.0,learning,7.0,B,,red,,stars,,,,B,red,stars,,0.0,1.0,0,right,538.4000000954,9.0,1.0,1.0,,,
66,0,,html-keyboard-response,66,601031,0.0-4.8-0.8,c6koxwkbe28,2022-09-19 16:45:43.845,62ab505d7e36b71cb8acd2d8,2,80,40,24,74,28,male,,,"<img src=""static/images/cards/stack_of_black_moons.svg"" width=""175px"" height=""250px""></img>",,,,,,,,,,,,,,,,,,,,,,,,,,,,
67,0,,html-keyboard-response,67,602475,0.0-4.8-1.8,c6koxwkbe28,2022-09-19 16:45:43.845,62ab505d7e36b71cb8acd2d8,2,80,40,24,74,28,male,932.5999999046,,"
  <table>
  <tr height=300>
    <td width=300 height=300><img src=""static/images/cards/back_of_black_moons.svg"" width=""175px"" height=""250px""></img></td>
    <td width=300 height=300><img src=""static/images/cards/back_of_black_moons.svg"" width=""175px"" height=""250px""></img></td>
  </tr>
  <tr height=200>
    <td width=300><img src=""static/images/keys/z.svg"" width=""35%"" height=""75%""></img></td>
    <td width=300><img src=""static/images/keys/m.svg"" width=""35%"" height=""75%""></img></td>
  </tr>
</table>
  ",77.0,1.0,,,,,,,,,,,,,,,,,,,,,,,,,,
68,0,,html-keyboard-response,68,603977,0.0-4.8-2.8,c6koxwkbe28,2022-09-19 16:45:43.845,62ab505d7e36b71cb8acd2d8,2,80,40,24,74,28,male,,,"
  <table>
  <tr height=300>
    <td width=300 height=300><img src=""static/images/cards/back_of_black_moons.svg"" width=""175px"" height=""250px""></img></td>
    <td width=300 height=300><img src=""static/images/cards/3_of_black_moons.svg"" width=""175px"" height=""250px""></img></td>
  </tr>
  <tr height=200>
    <td width=300><img src=""static/images/keys/z.svg"" width=""35%"" height=""75%""></img></td>
    <td width=300><img src=""static/images/keys/m.svg"" width=""35%"" height=""75%""></img></td>
  </tr>
</table>
  ",,,,,,,,,,,,,,,,,,,,,,,,,,,,
69,0,,html-keyboard-response,69,605500,0.0-4.8-3.8,c6koxwkbe28,2022-09-19 16:45:43.845,62ab505d7e36b71cb8acd2d8,2,80,40,24,74,28,male,,,"<p style=""font-size:50px"">You win!
+10 points this round!</p>",,,,,,,,,,,,,,,,,,,,,,,,,,,,
70,0,,html-keyboard-response,70,606020,0.0-4.8-4.8,c6koxwkbe28,2022-09-19 16:45:43.845,62ab505d7e36b71cb8acd2d8,2,80,40,24,74,28,male,,,,,,1.0,learning,8.0,C,,black,,moons,,,,C,black,moons,,1.0,0.0,NA,right,932.5999999046,3.0,0.0,1.0,,,
71,0,,html-keyboard-response,71,607523,0.0-4.9-0.9,c6koxwkbe28,2022-09-19 16:45:43.845,62ab505d7e36b71cb8acd2d8,2,80,40,24,74,28,male,,,"<img src=""static/images/cards/stack_of_red_moons.svg"" width=""175px"" height=""250px""></img>",,,,,,,,,,,,,,,,,,,,,,,,,,,,
72,0,,html-keyboard-response,72,608494,0.0-4.9-1.9,c6koxwkbe28,2022-09-19 16:45:43.845,62ab505d7e36b71cb8acd2d8,2,80,40,24,74,28,male,459.1000000238,,"
  <table>
  <tr height=300>
    <td width=300 height=300><img src=""static/images/cards/back_of_red_moons.svg"" width=""175px"" height=""250px""></img></td>
    <td width=300 height=300><img src=""static/images/cards/back_of_red_moons.svg"" width=""175px"" height=""250px""></img></td>
  </tr>
  <tr height=200>
    <td width=300><img src=""static/images/keys/z.svg"" width=""35%"" height=""75%""></img></td>
    <td width=300></td>
  </tr>
</table>
  ",90.0,1.0,,,,,,,,,,,,,,,,,,,,,,,,,,
73,0,,html-keyboard-response,73,609999,0.0-4.9-2.9,c6koxwkbe28,2022-09-19 16:45:43.845,62ab505d7e36b71cb8acd2d8,2,80,40,24,74,28,male,,,"
  <table>
  <tr height=300>
    <td width=300 height=300><img src=""static/images/cards/6_of_red_moons.svg"" width=""175px"" height=""250px""></img></td>
    <td width=300 height=300><img src=""static/images/cards/back_of_red_moons.svg"" width=""175px"" height=""250px""></img></td>
  </tr>
  <tr height=200>
    <td width=300><img src=""static/images/keys/z.svg"" width=""35%"" height=""75%""></img></td>
    <td width=300></td>
  </tr>
</table>
  ",,,,,,,,,,,,,,,,,,,,,,,,,,,,
74,0,,html-keyboard-response,74,611520,0.0-4.9-3.9,c6koxwkbe28,2022-09-19 16:45:43.845,62ab505d7e36b71cb8acd2d8,2,80,40,24,74,28,male,,,"<p style=""font-size:50px"">You Lose!
No points this round.</p>",,,,,,,,,,,,,,,,,,,,,,,,,,,,
75,0,,html-keyboard-response,75,612039,0.0-4.9-4.9,c6koxwkbe28,2022-09-19 16:45:43.845,62ab505d7e36b71cb8acd2d8,2,80,40,24,74,28,male,,,,,,1.0,learning,9.0,D,,red,,moons,,,,D,red,moons,,0.0,0.0,1,left,459.1000000238,6.0,1.0,0.0,,,
76,0,,html-keyboard-response,76,613552,0.0-4.10-0.10,c6koxwkbe28,2022-09-19 16:45:43.845,62ab505d7e36b71cb8acd2d8,2,80,40,24,74,28,male,,,"<img src=""static/images/cards/stack_of_red_bolts.svg"" width=""175px"" height=""250px""></img>",,,,,,,,,,,,,,,,,,,,,,,,,,,,
77,0,,html-keyboard-response,77,614680,0.0-4.10-1.10,c6koxwkbe28,2022-09-19 16:45:43.845,62ab505d7e36b71cb8acd2d8,2,80,40,24,74,28,male,624.0,,"
  <table>
  <tr height=300>
    <td width=300 height=300><img src=""static/images/cards/back_of_red_bolts.svg"" width=""175px"" height=""250px""></img></td>
    <td width=300 height=300><img src=""static/images/cards/back_of_red_bolts.svg"" width=""175px"" height=""250px""></img></td>
  </tr>
  <tr height=200>
    <td width=300><img src=""static/images/keys/z.svg"" width=""35%"" height=""75%""></img></td>
    <td width=300><img src=""static/images/keys/m.svg"" width=""35%"" height=""75%""></img></td>
  </tr>
</table>
  ",90.0,1.0,,,,,,,,,,,,,,,,,,,,,,,,,,
78,0,,html-keyboard-response,78,616191,0.0-4.10-2.10,c6koxwkbe28,2022-09-19 16:45:43.845,62ab505d7e36b71cb8acd2d8,2,80,40,24,74,28,male,,,"
  <table>
  <tr height=300>
    <td width=300 height=300><img src=""static/images/cards/8_of_red_bolts.svg"" width=""175px"" height=""250px""></img></td>
    <td width=300 height=300><img src=""static/images/cards/back_of_red_bolts.svg"" width=""175px"" height=""250px""></img></td>
  </tr>
  <tr height=200>
    <td width=300><img src=""static/images/keys/z.svg"" width=""35%"" height=""75%""></img></td>
    <td width=300><img src=""static/images/keys/m.svg"" width=""35%"" height=""75%""></img></td>
  </tr>
</table>
  ",,,,,,,,,,,,,,,,,,,,,,,,,,,,
79,0,,html-keyboard-response,79,617708,0.0-4.10-3.10,c6koxwkbe28,2022-09-19 16:45:43.845,62ab505d7e36b71cb8acd2d8,2,80,40,24,74,28,male,,,"<p style=""font-size:50px"">You win!
+10 points this round!</p>",,,,,,,,,,,,,,,,,,,,,,,,,,,,
80,0,,html-keyboard-response,80,618225,0.0-4.10-4.10,c6koxwkbe28,2022-09-19 16:45:43.845,62ab505d7e36b71cb8acd2d8,2,80,40,24,74,28,male,,,,,,1.0,learning,10.0,Xc,,red,,bolts,,,,Xc,red,bolts,,1.0,0.0,NA,left,624.0,8.0,1.0,1.0,,,
81,0,,html-keyboard-response,81,619738,0.0-4.11-0.11,c6koxwkbe28,2022-09-19 16:45:43.845,62ab505d7e36b71cb8acd2d8,2,80,40,24,74,28,male,,,"<img src=""static/images/cards/stack_of_black_bolts.svg"" width=""175px"" height=""250px""></img>",,,,,,,,,,,,,,,,,,,,,,,,,,,,
82,0,,html-keyboard-response,82,620707,0.0-4.11-1.11,c6koxwkbe28,2022-09-19 16:45:43.845,62ab505d7e36b71cb8acd2d8,2,80,40,24,74,28,male,460.7000000477,,"
  <table>
  <tr height=300>
    <td width=300 height=300><img src=""static/images/cards/back_of_black_bolts.svg"" width=""175px"" height=""250px""></img></td>
    <td width=300 height=300><img src=""static/images/cards/back_of_black_bolts.svg"" width=""175px"" height=""250px""></img></td>
  </tr>
  <tr height=200>
    <td width=300></td>
    <td width=300><img src=""static/images/keys/m.svg"" width=""35%"" height=""75%""></img></td>
  </tr>
</table>
  ",77.0,1.0,,,,,,,,,,,,,,,,,,,,,,,,,,
83,0,,html-keyboard-response,83,622214,0.0-4.11-2.11,c6koxwkbe28,2022-09-19 16:45:43.845,62ab505d7e36b71cb8acd2d8,2,80,40,24,74,28,male,,,"
  <table>
  <tr height=300>
    <td width=300 height=300><img src=""static/images/cards/back_of_black_bolts.svg"" width=""175px"" height=""250px""></img></td>
    <td width=300 height=300><img src=""static/images/cards/4_of_black_bolts.svg"" width=""175px"" height=""250px""></img></td>
  </tr>
  <tr height=200>
    <td width=300></td>
    <td width=300><img src=""static/images/keys/m.svg"" width=""35%"" height=""75%""></img></td>
  </tr>
</table>
  ",,,,,,,,,,,,,,,,,,,,,,,,,,,,
84,0,,html-keyboard-response,84,623739,0.0-4.11-3.11,c6koxwkbe28,2022-09-19 16:45:43.845,62ab505d7e36b71cb8acd2d8,2,80,40,24,74,28,male,,,"<p style=""font-size:50px"">You win!
+10 points this round!</p>",,,,,,,,,,,,,,,,,,,,,,,,,,,,
85,0,,html-keyboard-response,85,624259,0.0-4.11-4.11,c6koxwkbe28,2022-09-19 16:45:43.845,62ab505d7e36b71cb8acd2d8,2,80,40,24,74,28,male,,,,,,1.0,learning,11.0,Xnc,,black,,bolts,,,,Xnc,black,bolts,,0.0,0.0,0,right,460.7000000477,4.0,0.0,1.0,,,
86,0,,html-keyboard-response,86,625769,0.0-4.12-0.12,c6koxwkbe28,2022-09-19 16:45:43.845,62ab505d7e36b71cb8acd2d8,2,80,40,24,74,28,male,,,"<img src=""static/images/cards/stack_of_black_stars.svg"" width=""175px"" height=""250px""></img>",,,,,,,,,,,,,,,,,,,,,,,,,,,,
87,0,,html-keyboard-response,87,626736,0.0-4.12-1.12,c6koxwkbe28,2022-09-19 16:45:43.845,62ab505d7e36b71cb8acd2d8,2,80,40,24,74,28,male,462.2999999523,,"
  <table>
  <tr height=300>
    <td width=300 height=300><img src=""static/images/cards/back_of_black_stars.svg"" width=""175px"" height=""250px""></img></td>
    <td width=300 height=300><img src=""static/images/cards/back_of_black_stars.svg"" width=""175px"" height=""250px""></img></td>
  </tr>
  <tr height=200>
    <td width=300><img src=""static/images/keys/z.svg"" width=""35%"" height=""75%""></img></td>
    <td width=300><img src=""static/images/keys/m.svg"" width=""35%"" height=""75%""></img></td>
  </tr>
</table>
  ",90.0,1.0,,,,,,,,,,,,,,,,,,,,,,,,,,
88,0,,html-keyboard-response,88,628251,0.0-4.12-2.12,c6koxwkbe28,2022-09-19 16:45:43.845,62ab505d7e36b71cb8acd2d8,2,80,40,24,74,28,male,,,"
  <table>
  <tr height=300>
    <td width=300 height=300><img src=""static/images/cards/1_of_black_stars.svg"" width=""175px"" height=""250px""></img></td>
    <td width=300 height=300><img src=""static/images/cards/back_of_black_stars.svg"" width=""175px"" height=""250px""></img></td>
  </tr>
  <tr height=200>
    <td width=300><img src=""static/images/keys/z.svg"" width=""35%"" height=""75%""></img></td>
    <td width=300><img src=""static/images/keys/m.svg"" width=""35%"" height=""75%""></img></td>
  </tr>
</table>
  ",,,,,,,,,,,,,,,,,,,,,,,,,,,,
89,0,,html-keyboard-response,89,629762,0.0-4.12-3.12,c6koxwkbe28,2022-09-19 16:45:43.845,62ab505d7e36b71cb8acd2d8,2,80,40,24,74,28,male,,,"<p style=""font-size:50px"">You Lose!
No points this round.</p>",,,,,,,,,,,,,,,,,,,,,,,,,,,,
90,0,,html-keyboard-response,90,630282,0.0-4.12-4.12,c6koxwkbe28,2022-09-19 16:45:43.845,62ab505d7e36b71cb8acd2d8,2,80,40,24,74,28,male,,,,,,1.0,learning,12.0,A,,black,,stars,,,,A,black,stars,,1.0,1.0,NA,left,462.2999999523,1.0,0.0,0.0,,,
91,0,,html-keyboard-response,91,631790,0.0-4.13-0.13,c6koxwkbe28,2022-09-19 16:45:43.845,62ab505d7e36b71cb8acd2d8,2,80,40,24,74,28,male,,,"<img src=""static/images/cards/stack_of_red_stars.svg"" width=""175px"" height=""250px""></img>",,,,,,,,,,,,,,,,,,,,,,,,,,,,
92,0,,html-keyboard-response,92,632751,0.0-4.13-1.13,c6koxwkbe28,2022-09-19 16:45:43.845,62ab505d7e36b71cb8acd2d8,2,80,40,24,74,28,male,446.1999999285,,"
  <table>
  <tr height=300>
    <td width=300 height=300><img src=""static/images/cards/back_of_red_stars.svg"" width=""175px"" height=""250px""></img></td>
    <td width=300 height=300><img src=""static/images/cards/back_of_red_stars.svg"" width=""175px"" height=""250px""></img></td>
  </tr>
  <tr height=200>
    <td width=300></td>
    <td width=300><img src=""static/images/keys/m.svg"" width=""35%"" height=""75%""></img></td>
  </tr>
</table>
  ",77.0,1.0,,,,,,,,,,,,,,,,,,,,,,,,,,
93,0,,html-keyboard-response,93,634254,0.0-4.13-2.13,c6koxwkbe28,2022-09-19 16:45:43.845,62ab505d7e36b71cb8acd2d8,2,80,40,24,74,28,male,,,"
  <table>
  <tr height=300>
    <td width=300 height=300><img src=""static/images/cards/back_of_red_stars.svg"" width=""175px"" height=""250px""></img></td>
    <td width=300 height=300><img src=""static/images/cards/6_of_red_stars.svg"" width=""175px"" height=""250px""></img></td>
  </tr>
  <tr height=200>
    <td width=300></td>
    <td width=300><img src=""static/images/keys/m.svg"" width=""35%"" height=""75%""></img></td>
  </tr>
</table>
  ",,,,,,,,,,,,,,,,,,,,,,,,,,,,
94,0,,html-keyboard-response,94,635769,0.0-4.13-3.13,c6koxwkbe28,2022-09-19 16:45:43.845,62ab505d7e36b71cb8acd2d8,2,80,40,24,74,28,male,,,"<p style=""font-size:50px"">You win!
+10 points this round!</p>",,,,,,,,,,,,,,,,,,,,,,,,,,,,
95,0,,html-keyboard-response,95,636287,0.0-4.13-4.13,c6koxwkbe28,2022-09-19 16:45:43.845,62ab505d7e36b71cb8acd2d8,2,80,40,24,74,28,male,,,,,,1.0,learning,13.0,B,,red,,stars,,,,B,red,stars,,0.0,1.0,0,right,446.1999999285,6.0,1.0,1.0,,,
96,0,,html-keyboard-response,96,637797,0.0-4.14-0.14,c6koxwkbe28,2022-09-19 16:45:43.845,62ab505d7e36b71cb8acd2d8,2,80,40,24,74,28,male,,,"<img src=""static/images/cards/stack_of_black_moons.svg"" width=""175px"" height=""250px""></img>",,,,,,,,,,,,,,,,,,,,,,,,,,,,
97,0,,html-keyboard-response,97,639094,0.0-4.14-1.14,c6koxwkbe28,2022-09-19 16:45:43.845,62ab505d7e36b71cb8acd2d8,2,80,40,24,74,28,male,786.6999999285,,"
  <table>
  <tr height=300>
    <td width=300 height=300><img src=""static/images/cards/back_of_black_moons.svg"" width=""175px"" height=""250px""></img></td>
    <td width=300 height=300><img src=""static/images/cards/back_of_black_moons.svg"" width=""175px"" height=""250px""></img></td>
  </tr>
  <tr height=200>
    <td width=300><img src=""static/images/keys/z.svg"" width=""35%"" height=""75%""></img></td>
    <td width=300><img src=""static/images/keys/m.svg"" width=""35%"" height=""75%""></img></td>
  </tr>
</table>
  ",90.0,1.0,,,,,,,,,,,,,,,,,,,,,,,,,,
98,0,,html-keyboard-response,98,640600,0.0-4.14-2.14,c6koxwkbe28,2022-09-19 16:45:43.845,62ab505d7e36b71cb8acd2d8,2,80,40,24,74,28,male,,,"
  <table>
  <tr height=300>
    <td width=300 height=300><img src=""static/images/cards/4_of_black_moons.svg"" width=""175px"" height=""250px""></img></td>
    <td width=300 height=300><img src=""static/images/cards/back_of_black_moons.svg"" width=""175px"" height=""250px""></img></td>
  </tr>
  <tr height=200>
    <td width=300><img src=""static/images/keys/z.svg"" width=""35%"" height=""75%""></img></td>
    <td width=300><img src=""static/images/keys/m.svg"" width=""35%"" height=""75%""></img></td>
  </tr>
</table>
  ",,,,,,,,,,,,,,,,,,,,,,,,,,,,
99,0,,html-keyboard-response,99,642111,0.0-4.14-3.14,c6koxwkbe28,2022-09-19 16:45:43.845,62ab505d7e36b71cb8acd2d8,2,80,40,24,74,28,male,,,"<p style=""font-size:50px"">You win!
+10 points this round!</p>",,,,,,,,,,,,,,,,,,,,,,,,,,,,
100,0,,html-keyboard-response,100,642631,0.0-4.14-4.14,c6koxwkbe28,2022-09-19 16:45:43.845,62ab505d7e36b71cb8acd2d8,2,80,40,24,74,28,male,,,,,,1.0,learning,14.0,C,,black,,moons,,,,C,black,moons,,1.0,0.0,NA,left,786.6999999285,4.0,0.0,1.0,,,
101,0,,html-keyboard-response,101,644146,0.0-4.15-0.15,c6koxwkbe28,2022-09-19 16:45:43.845,62ab505d7e36b71cb8acd2d8,2,80,40,24,74,28,male,,,"<img src=""static/images/cards/stack_of_red_moons.svg"" width=""175px"" height=""250px""></img>",,,,,,,,,,,,,,,,,,,,,,,,,,,,
102,0,,html-keyboard-response,102,645131,0.0-4.15-1.15,c6koxwkbe28,2022-09-19 16:45:43.845,62ab505d7e36b71cb8acd2d8,2,80,40,24,74,28,male,469.1999999285,,"
  <table>
  <tr height=300>
    <td width=300 height=300><img src=""static/images/cards/back_of_red_moons.svg"" width=""175px"" height=""250px""></img></td>
    <td width=300 height=300><img src=""static/images/cards/back_of_red_moons.svg"" width=""175px"" height=""250px""></img></td>
  </tr>
  <tr height=200>
    <td width=300></td>
    <td width=300><img src=""static/images/keys/m.svg"" width=""35%"" height=""75%""></img></td>
  </tr>
</table>
  ",77.0,1.0,,,,,,,,,,,,,,,,,,,,,,,,,,
103,0,,html-keyboard-response,103,646641,0.0-4.15-2.15,c6koxwkbe28,2022-09-19 16:45:43.845,62ab505d7e36b71cb8acd2d8,2,80,40,24,74,28,male,,,"
  <table>
  <tr height=300>
    <td width=300 height=300><img src=""static/images/cards/back_of_red_moons.svg"" width=""175px"" height=""250px""></img></td>
    <td width=300 height=300><img src=""static/images/cards/1_of_red_moons.svg"" width=""175px"" height=""250px""></img></td>
  </tr>
  <tr height=200>
    <td width=300></td>
    <td width=300><img src=""static/images/keys/m.svg"" width=""35%"" height=""75%""></img></td>
  </tr>
</table>
  ",,,,,,,,,,,,,,,,,,,,,,,,,,,,
104,0,,html-keyboard-response,104,648151,0.0-4.15-3.15,c6koxwkbe28,2022-09-19 16:45:43.845,62ab505d7e36b71cb8acd2d8,2,80,40,24,74,28,male,,,"<p style=""font-size:50px"">You Lose!
No points this round.</p>",,,,,,,,,,,,,,,,,,,,,,,,,,,,
105,0,,html-keyboard-response,105,648662,0.0-4.15-4.15,c6koxwkbe28,2022-09-19 16:45:43.845,62ab505d7e36b71cb8acd2d8,2,80,40,24,74,28,male,,,,,,1.0,learning,15.0,D,,red,,moons,,,,D,red,moons,,0.0,0.0,0,right,469.1999999285,1.0,0.0,0.0,,,
106,0,,html-keyboard-response,106,650177,0.0-4.16-0.16,c6koxwkbe28,2022-09-19 16:45:43.845,62ab505d7e36b71cb8acd2d8,2,80,40,24,74,28,male,,,"<img src=""static/images/cards/stack_of_red_bolts.svg"" width=""175px"" height=""250px""></img>",,,,,,,,,,,,,,,,,,,,,,,,,,,,
107,0,,html-keyboard-response,107,651545,0.0-4.16-1.16,c6koxwkbe28,2022-09-19 16:45:43.845,62ab505d7e36b71cb8acd2d8,2,80,40,24,74,28,male,861.0,,"
  <table>
  <tr height=300>
    <td width=300 height=300><img src=""static/images/cards/back_of_red_bolts.svg"" width=""175px"" height=""250px""></img></td>
    <td width=300 height=300><img src=""static/images/cards/back_of_red_bolts.svg"" width=""175px"" height=""250px""></img></td>
  </tr>
  <tr height=200>
    <td width=300><img src=""static/images/keys/z.svg"" width=""35%"" height=""75%""></img></td>
    <td width=300><img src=""static/images/keys/m.svg"" width=""35%"" height=""75%""></img></td>
  </tr>
</table>
  ",77.0,1.0,,,,,,,,,,,,,,,,,,,,,,,,,,
108,0,,html-keyboard-response,108,653057,0.0-4.16-2.16,c6koxwkbe28,2022-09-19 16:45:43.845,62ab505d7e36b71cb8acd2d8,2,80,40,24,74,28,male,,,"
  <table>
  <tr height=300>
    <td width=300 height=300><img src=""static/images/cards/back_of_red_bolts.svg"" width=""175px"" height=""250px""></img></td>
    <td width=300 height=300><img src=""static/images/cards/1_of_red_bolts.svg"" width=""175px"" height=""250px""></img></td>
  </tr>
  <tr height=200>
    <td width=300><img src=""static/images/keys/z.svg"" width=""35%"" height=""75%""></img></td>
    <td width=300><img src=""static/images/keys/m.svg"" width=""35%"" height=""75%""></img></td>
  </tr>
</table>
  ",,,,,,,,,,,,,,,,,,,,,,,,,,,,
109,0,,html-keyboard-response,109,654582,0.0-4.16-3.16,c6koxwkbe28,2022-09-19 16:45:43.845,62ab505d7e36b71cb8acd2d8,2,80,40,24,74,28,male,,,"<p style=""font-size:50px"">You win!
+10 points this round!</p>",,,,,,,,,,,,,,,,,,,,,,,,,,,,
110,0,,html-keyboard-response,110,655104,0.0-4.16-4.16,c6koxwkbe28,2022-09-19 16:45:43.845,62ab505d7e36b71cb8acd2d8,2,80,40,24,74,28,male,,,,,,1.0,learning,16.0,Xc,,red,,bolts,,,,Xc,red,bolts,,1.0,0.0,NA,right,861.0,1.0,0.0,1.0,,,
111,0,,html-keyboard-response,111,656610,0.0-4.17-0.17,c6koxwkbe28,2022-09-19 16:45:43.845,62ab505d7e36b71cb8acd2d8,2,80,40,24,74,28,male,,,"<img src=""static/images/cards/stack_of_black_bolts.svg"" width=""175px"" height=""250px""></img>",,,,,,,,,,,,,,,,,,,,,,,,,,,,
112,0,,html-keyboard-response,112,657608,0.0-4.17-1.17,c6koxwkbe28,2022-09-19 16:45:43.845,62ab505d7e36b71cb8acd2d8,2,80,40,24,74,28,male,484.3999999762,,"
  <table>
  <tr height=300>
    <td width=300 height=300><img src=""static/images/cards/back_of_black_bolts.svg"" width=""175px"" height=""250px""></img></td>
    <td width=300 height=300><img src=""static/images/cards/back_of_black_bolts.svg"" width=""175px"" height=""250px""></img></td>
  </tr>
  <tr height=200>
    <td width=300><img src=""static/images/keys/z.svg"" width=""35%"" height=""75%""></img></td>
    <td width=300></td>
  </tr>
</table>
  ",90.0,1.0,,,,,,,,,,,,,,,,,,,,,,,,,,
113,0,,html-keyboard-response,113,659113,0.0-4.17-2.17,c6koxwkbe28,2022-09-19 16:45:43.845,62ab505d7e36b71cb8acd2d8,2,80,40,24,74,28,male,,,"
  <table>
  <tr height=300>
    <td width=300 height=300><img src=""static/images/cards/10_of_black_bolts.svg"" width=""175px"" height=""250px""></img></td>
    <td width=300 height=300><img src=""static/images/cards/back_of_black_bolts.svg"" width=""175px"" height=""250px""></img></td>
  </tr>
  <tr height=200>
    <td width=300><img src=""static/images/keys/z.svg"" width=""35%"" height=""75%""></img></td>
    <td width=300></td>
  </tr>
</table>
  ",,,,,,,,,,,,,,,,,,,,,,,,,,,,
114,0,,html-keyboard-response,114,660637,0.0-4.17-3.17,c6koxwkbe28,2022-09-19 16:45:43.845,62ab505d7e36b71cb8acd2d8,2,80,40,24,74,28,male,,,"<p style=""font-size:50px"">You win!
+10 points this round!</p>",,,,,,,,,,,,,,,,,,,,,,,,,,,,
115,0,,html-keyboard-response,115,661143,0.0-4.17-4.17,c6koxwkbe28,2022-09-19 16:45:43.845,62ab505d7e36b71cb8acd2d8,2,80,40,24,74,28,male,,,,,,1.0,learning,17.0,Xnc,,black,,bolts,,,,Xnc,black,bolts,,0.0,0.0,1,left,484.3999999762,10.0,1.0,1.0,,,
116,0,,html-keyboard-response,116,662659,0.0-4.18-0.18,c6koxwkbe28,2022-09-19 16:45:43.845,62ab505d7e36b71cb8acd2d8,2,80,40,24,74,28,male,,,"<img src=""static/images/cards/stack_of_black_stars.svg"" width=""175px"" height=""250px""></img>",,,,,,,,,,,,,,,,,,,,,,,,,,,,
117,0,,html-keyboard-response,117,663711,0.0-4.18-1.18,c6koxwkbe28,2022-09-19 16:45:43.845,62ab505d7e36b71cb8acd2d8,2,80,40,24,74,28,male,549.6999999285,,"
  <table>
  <tr height=300>
    <td width=300 height=300><img src=""static/images/cards/back_of_black_stars.svg"" width=""175px"" height=""250px""></img></td>
    <td width=300 height=300><img src=""static/images/cards/back_of_black_stars.svg"" width=""175px"" height=""250px""></img></td>
  </tr>
  <tr height=200>
    <td width=300><img src=""static/images/keys/z.svg"" width=""35%"" height=""75%""></img></td>
    <td width=300><img src=""static/images/keys/m.svg"" width=""35%"" height=""75%""></img></td>
  </tr>
</table>
  ",77.0,1.0,,,,,,,,,,,,,,,,,,,,,,,,,,
118,0,,html-keyboard-response,118,665219,0.0-4.18-2.18,c6koxwkbe28,2022-09-19 16:45:43.845,62ab505d7e36b71cb8acd2d8,2,80,40,24,74,28,male,,,"
  <table>
  <tr height=300>
    <td width=300 height=300><img src=""static/images/cards/back_of_black_stars.svg"" width=""175px"" height=""250px""></img></td>
    <td width=300 height=300><img src=""static/images/cards/3_of_black_stars.svg"" width=""175px"" height=""250px""></img></td>
  </tr>
  <tr height=200>
    <td width=300><img src=""static/images/keys/z.svg"" width=""35%"" height=""75%""></img></td>
    <td width=300><img src=""static/images/keys/m.svg"" width=""35%"" height=""75%""></img></td>
  </tr>
</table>
  ",,,,,,,,,,,,,,,,,,,,,,,,,,,,
119,0,,html-keyboard-response,119,666749,0.0-4.18-3.18,c6koxwkbe28,2022-09-19 16:45:43.845,62ab505d7e36b71cb8acd2d8,2,80,40,24,74,28,male,,,"<p style=""font-size:50px"">You Lose!
No points this round.</p>",,,,,,,,,,,,,,,,,,,,,,,,,,,,
120,0,,html-keyboard-response,120,667269,0.0-4.18-4.18,c6koxwkbe28,2022-09-19 16:45:43.845,62ab505d7e36b71cb8acd2d8,2,80,40,24,74,28,male,,,,,,1.0,learning,18.0,A,,black,,stars,,,,A,black,stars,,1.0,1.0,NA,right,549.6999999285,3.0,0.0,0.0,,,
121,0,,html-keyboard-response,121,668777,0.0-4.19-0.19,c6koxwkbe28,2022-09-19 16:45:43.845,62ab505d7e36b71cb8acd2d8,2,80,40,24,74,28,male,,,"<img src=""static/images/cards/stack_of_red_stars.svg"" width=""175px"" height=""250px""></img>",,,,,,,,,,,,,,,,,,,,,,,,,,,,
122,0,,html-keyboard-response,122,669763,0.0-4.19-1.19,c6koxwkbe28,2022-09-19 16:45:43.845,62ab505d7e36b71cb8acd2d8,2,80,40,24,74,28,male,476.1000000238,,"
  <table>
  <tr height=300>
    <td width=300 height=300><img src=""static/images/cards/back_of_red_stars.svg"" width=""175px"" height=""250px""></img></td>
    <td width=300 height=300><img src=""static/images/cards/back_of_red_stars.svg"" width=""175px"" height=""250px""></img></td>
  </tr>
  <tr height=200>
    <td width=300><img src=""static/images/keys/z.svg"" width=""35%"" height=""75%""></img></td>
    <td width=300></td>
  </tr>
</table>
  ",90.0,1.0,,,,,,,,,,,,,,,,,,,,,,,,,,
123,0,,html-keyboard-response,123,671274,0.0-4.19-2.19,c6koxwkbe28,2022-09-19 16:45:43.845,62ab505d7e36b71cb8acd2d8,2,80,40,24,74,28,male,,,"
  <table>
  <tr height=300>
    <td width=300 height=300><img src=""static/images/cards/2_of_red_stars.svg"" width=""175px"" height=""250px""></img></td>
    <td width=300 height=300><img src=""static/images/cards/back_of_red_stars.svg"" width=""175px"" height=""250px""></img></td>
  </tr>
  <tr height=200>
    <td width=300><img src=""static/images/keys/z.svg"" width=""35%"" height=""75%""></img></td>
    <td width=300></td>
  </tr>
</table>
  ",,,,,,,,,,,,,,,,,,,,,,,,,,,,
124,0,,html-keyboard-response,124,672801,0.0-4.19-3.19,c6koxwkbe28,2022-09-19 16:45:43.845,62ab505d7e36b71cb8acd2d8,2,80,40,24,74,28,male,,,"<p style=""font-size:50px"">You Lose!
No points this round.</p>",,,,,,,,,,,,,,,,,,,,,,,,,,,,
125,0,,html-keyboard-response,125,673322,0.0-4.19-4.19,c6koxwkbe28,2022-09-19 16:45:43.845,62ab505d7e36b71cb8acd2d8,2,80,40,24,74,28,male,,,,,,1.0,learning,19.0,B,,red,,stars,,,,B,red,stars,,0.0,1.0,1,left,476.1000000238,2.0,0.0,0.0,,,
126,0,,html-keyboard-response,126,674827,0.0-4.20-0.20,c6koxwkbe28,2022-09-19 16:45:43.845,62ab505d7e36b71cb8acd2d8,2,80,40,24,74,28,male,,,"<img src=""static/images/cards/stack_of_black_moons.svg"" width=""175px"" height=""250px""></img>",,,,,,,,,,,,,,,,,,,,,,,,,,,,
127,0,,html-keyboard-response,127,676107,0.0-4.20-1.20,c6koxwkbe28,2022-09-19 16:45:43.845,62ab505d7e36b71cb8acd2d8,2,80,40,24,74,28,male,767.1000000238,,"
  <table>
  <tr height=300>
    <td width=300 height=300><img src=""static/images/cards/back_of_black_moons.svg"" width=""175px"" height=""250px""></img></td>
    <td width=300 height=300><img src=""static/images/cards/back_of_black_moons.svg"" width=""175px"" height=""250px""></img></td>
  </tr>
  <tr height=200>
    <td width=300><img src=""static/images/keys/z.svg"" width=""35%"" height=""75%""></img></td>
    <td width=300><img src=""static/images/keys/m.svg"" width=""35%"" height=""75%""></img></td>
  </tr>
</table>
  ",90.0,1.0,,,,,,,,,,,,,,,,,,,,,,,,,,
128,0,,html-keyboard-response,128,677619,0.0-4.20-2.20,c6koxwkbe28,2022-09-19 16:45:43.845,62ab505d7e36b71cb8acd2d8,2,80,40,24,74,28,male,,,"
  <table>
  <tr height=300>
    <td width=300 height=300><img src=""static/images/cards/9_of_black_moons.svg"" width=""175px"" height=""250px""></img></td>
    <td width=300 height=300><img src=""static/images/cards/back_of_black_moons.svg"" width=""175px"" height=""250px""></img></td>
  </tr>
  <tr height=200>
    <td width=300><img src=""static/images/keys/z.svg"" width=""35%"" height=""75%""></img></td>
    <td width=300><img src=""static/images/keys/m.svg"" width=""35%"" height=""75%""></img></td>
  </tr>
</table>
  ",,,,,,,,,,,,,,,,,,,,,,,,,,,,
129,0,,html-keyboard-response,129,679141,0.0-4.20-3.20,c6koxwkbe28,2022-09-19 16:45:43.845,62ab505d7e36b71cb8acd2d8,2,80,40,24,74,28,male,,,"<p style=""font-size:50px"">You win!
+10 points this round!</p>",,,,,,,,,,,,,,,,,,,,,,,,,,,,
130,0,,html-keyboard-response,130,679650,0.0-4.20-4.20,c6koxwkbe28,2022-09-19 16:45:43.845,62ab505d7e36b71cb8acd2d8,2,80,40,24,74,28,male,,,,,,1.0,learning,20.0,C,,black,,moons,,,,C,black,moons,,1.0,0.0,NA,left,767.1000000238,9.0,1.0,1.0,,,
131,0,,html-keyboard-response,131,681152,0.0-4.21-0.21,c6koxwkbe28,2022-09-19 16:45:43.845,62ab505d7e36b71cb8acd2d8,2,80,40,24,74,28,male,,,"<img src=""static/images/cards/stack_of_red_moons.svg"" width=""175px"" height=""250px""></img>",,,,,,,,,,,,,,,,,,,,,,,,,,,,
132,0,,html-keyboard-response,132,682001,0.0-4.21-1.21,c6koxwkbe28,2022-09-19 16:45:43.845,62ab505d7e36b71cb8acd2d8,2,80,40,24,74,28,male,335.0,,"
  <table>
  <tr height=300>
    <td width=300 height=300><img src=""static/images/cards/back_of_red_moons.svg"" width=""175px"" height=""250px""></img></td>
    <td width=300 height=300><img src=""static/images/cards/back_of_red_moons.svg"" width=""175px"" height=""250px""></img></td>
  </tr>
  <tr height=200>
    <td width=300></td>
    <td width=300><img src=""static/images/keys/m.svg"" width=""35%"" height=""75%""></img></td>
  </tr>
</table>
  ",77.0,1.0,,,,,,,,,,,,,,,,,,,,,,,,,,
133,0,,html-keyboard-response,133,683507,0.0-4.21-2.21,c6koxwkbe28,2022-09-19 16:45:43.845,62ab505d7e36b71cb8acd2d8,2,80,40,24,74,28,male,,,"
  <table>
  <tr height=300>
    <td width=300 height=300><img src=""static/images/cards/back_of_red_moons.svg"" width=""175px"" height=""250px""></img></td>
    <td width=300 height=300><img src=""static/images/cards/7_of_red_moons.svg"" width=""175px"" height=""250px""></img></td>
  </tr>
  <tr height=200>
    <td width=300></td>
    <td width=300><img src=""static/images/keys/m.svg"" width=""35%"" height=""75%""></img></td>
  </tr>
</table>
  ",,,,,,,,,,,,,,,,,,,,,,,,,,,,
134,0,,html-keyboard-response,134,685017,0.0-4.21-3.21,c6koxwkbe28,2022-09-19 16:45:43.845,62ab505d7e36b71cb8acd2d8,2,80,40,24,74,28,male,,,"<p style=""font-size:50px"">You Lose!
No points this round.</p>",,,,,,,,,,,,,,,,,,,,,,,,,,,,
135,0,,html-keyboard-response,135,685525,0.0-4.21-4.21,c6koxwkbe28,2022-09-19 16:45:43.845,62ab505d7e36b71cb8acd2d8,2,80,40,24,74,28,male,,,,,,1.0,learning,21.0,D,,red,,moons,,,,D,red,moons,,0.0,0.0,0,right,335.0,7.0,1.0,0.0,,,
136,0,,html-keyboard-response,136,687033,0.0-4.22-0.22,c6koxwkbe28,2022-09-19 16:45:43.845,62ab505d7e36b71cb8acd2d8,2,80,40,24,74,28,male,,,"<img src=""static/images/cards/stack_of_red_bolts.svg"" width=""175px"" height=""250px""></img>",,,,,,,,,,,,,,,,,,,,,,,,,,,,
137,0,,html-keyboard-response,137,687955,0.0-4.22-1.22,c6koxwkbe28,2022-09-19 16:45:43.845,62ab505d7e36b71cb8acd2d8,2,80,40,24,74,28,male,413.8999999762,,"
  <table>
  <tr height=300>
    <td width=300 height=300><img src=""static/images/cards/back_of_red_bolts.svg"" width=""175px"" height=""250px""></img></td>
    <td width=300 height=300><img src=""static/images/cards/back_of_red_bolts.svg"" width=""175px"" height=""250px""></img></td>
  </tr>
  <tr height=200>
    <td width=300><img src=""static/images/keys/z.svg"" width=""35%"" height=""75%""></img></td>
    <td width=300><img src=""static/images/keys/m.svg"" width=""35%"" height=""75%""></img></td>
  </tr>
</table>
  ",90.0,1.0,,,,,,,,,,,,,,,,,,,,,,,,,,
138,0,,html-keyboard-response,138,689469,0.0-4.22-2.22,c6koxwkbe28,2022-09-19 16:45:43.845,62ab505d7e36b71cb8acd2d8,2,80,40,24,74,28,male,,,"
  <table>
  <tr height=300>
    <td width=300 height=300><img src=""static/images/cards/6_of_red_bolts.svg"" width=""175px"" height=""250px""></img></td>
    <td width=300 height=300><img src=""static/images/cards/back_of_red_bolts.svg"" width=""175px"" height=""250px""></img></td>
  </tr>
  <tr height=200>
    <td width=300><img src=""static/images/keys/z.svg"" width=""35%"" height=""75%""></img></td>
    <td width=300><img src=""static/images/keys/m.svg"" width=""35%"" height=""75%""></img></td>
  </tr>
</table>
  ",,,,,,,,,,,,,,,,,,,,,,,,,,,,
139,0,,html-keyboard-response,139,690992,0.0-4.22-3.22,c6koxwkbe28,2022-09-19 16:45:43.845,62ab505d7e36b71cb8acd2d8,2,80,40,24,74,28,male,,,"<p style=""font-size:50px"">You win!
+10 points this round!</p>",,,,,,,,,,,,,,,,,,,,,,,,,,,,
140,0,,html-keyboard-response,140,691499,0.0-4.22-4.22,c6koxwkbe28,2022-09-19 16:45:43.845,62ab505d7e36b71cb8acd2d8,2,80,40,24,74,28,male,,,,,,1.0,learning,22.0,Xc,,red,,bolts,,,,Xc,red,bolts,,1.0,0.0,NA,left,413.8999999762,6.0,1.0,1.0,,,
141,0,,html-keyboard-response,141,693009,0.0-4.23-0.23,c6koxwkbe28,2022-09-19 16:45:43.845,62ab505d7e36b71cb8acd2d8,2,80,40,24,74,28,male,,,"<img src=""static/images/cards/stack_of_black_bolts.svg"" width=""175px"" height=""250px""></img>",,,,,,,,,,,,,,,,,,,,,,,,,,,,
142,0,,html-keyboard-response,142,694027,0.0-4.23-1.23,c6koxwkbe28,2022-09-19 16:45:43.845,62ab505d7e36b71cb8acd2d8,2,80,40,24,74,28,male,513.6000000238,,"
  <table>
  <tr height=300>
    <td width=300 height=300><img src=""static/images/cards/back_of_black_bolts.svg"" width=""175px"" height=""250px""></img></td>
    <td width=300 height=300><img src=""static/images/cards/back_of_black_bolts.svg"" width=""175px"" height=""250px""></img></td>
  </tr>
  <tr height=200>
    <td width=300><img src=""static/images/keys/z.svg"" width=""35%"" height=""75%""></img></td>
    <td width=300></td>
  </tr>
</table>
  ",90.0,1.0,,,,,,,,,,,,,,,,,,,,,,,,,,
143,0,,html-keyboard-response,143,695542,0.0-4.23-2.23,c6koxwkbe28,2022-09-19 16:45:43.845,62ab505d7e36b71cb8acd2d8,2,80,40,24,74,28,male,,,"
  <table>
  <tr height=300>
    <td width=300 height=300><img src=""static/images/cards/2_of_black_bolts.svg"" width=""175px"" height=""250px""></img></td>
    <td width=300 height=300><img src=""static/images/cards/back_of_black_bolts.svg"" width=""175px"" height=""250px""></img></td>
  </tr>
  <tr height=200>
    <td width=300><img src=""static/images/keys/z.svg"" width=""35%"" height=""75%""></img></td>
    <td width=300></td>
  </tr>
</table>
  ",,,,,,,,,,,,,,,,,,,,,,,,,,,,
144,0,,html-keyboard-response,144,697060,0.0-4.23-3.23,c6koxwkbe28,2022-09-19 16:45:43.845,62ab505d7e36b71cb8acd2d8,2,80,40,24,74,28,male,,,"<p style=""font-size:50px"">You win!
+10 points this round!</p>",,,,,,,,,,,,,,,,,,,,,,,,,,,,
145,0,,html-keyboard-response,145,697574,0.0-4.23-4.23,c6koxwkbe28,2022-09-19 16:45:43.845,62ab505d7e36b71cb8acd2d8,2,80,40,24,74,28,male,,,,,,1.0,learning,23.0,Xnc,,black,,bolts,,,,Xnc,black,bolts,,0.0,0.0,1,left,513.6000000238,2.0,0.0,1.0,,,
146,0,,call-function,146,697578,0.0-5.0,c6koxwkbe28,2022-09-19 16:45:43.845,62ab505d7e36b71cb8acd2d8,2,80,40,24,74,28,male,,,,,,,,,,,,,,,,,,,,,,,,,,,,,,,
147,0,,image-keyboard-response,147,708832,0.0-6.0-0.0,c6koxwkbe28,2022-09-19 16:45:43.845,62ab505d7e36b71cb8acd2d8,2,80,40,24,74,28,male,11253.1999999285,,static/images/instructions_CB_2/Slide20.png,39.0,,,,,,,,,,,,,,,,,,,,,,,,,,,
148,0,,image-keyboard-response,148,726538,0.0-6.1-0.1,c6koxwkbe28,2022-09-19 16:45:43.845,62ab505d7e36b71cb8acd2d8,2,80,40,24,74,28,male,17705.2999999523,,static/images/instructions_CB_2/Slide21.png,39.0,,,,,,,,,,,,,,,,,,,,,,,,,,,
149,0,,image-keyboard-response,149,741633,0.0-6.2-0.2,c6koxwkbe28,2022-09-19 16:45:43.845,62ab505d7e36b71cb8acd2d8,2,80,40,24,74,28,male,15095.3999999762,,static/images/instructions_CB_2/Slide22.png,39.0,,,,,,,,,,,,,,,,,,,,,,,,,,,
150,0,,image-keyboard-response,150,755442,0.0-6.3-0.3,c6koxwkbe28,2022-09-19 16:45:43.845,62ab505d7e36b71cb8acd2d8,2,80,40,24,74,28,male,13807.7000000477,,static/images/instructions_CB_2/Slide23.png,39.0,,,,,,,,,,,,,,,,,,,,,,,,,,,
151,0,,image-keyboard-response,151,785709,0.0-6.4-0.4,c6koxwkbe28,2022-09-19 16:45:43.845,62ab505d7e36b71cb8acd2d8,2,80,40,24,74,28,male,30266.2000000477,,static/images/instructions_CB_2/Slide24.png,39.0,,,,,,,,,,,,,,,,,,,,,,,,,,,
152,0,,html-keyboard-response,152,788554,0.0-7.0-0.0,c6koxwkbe28,2022-09-19 16:45:43.845,62ab505d7e36b71cb8acd2d8,2,80,40,24,74,28,male,2843.2000000477,,"
  <table>
  <tr height=300>
    <td width=300 height=300><img src=""static/images/cards/stack_of_red_stars.svg"" width=""175px"" height=""250px""></img></td>
    <td width=300 height=300><img src=""static/images/cards/stack_of_red_moons.svg"" width=""175px"" height=""250px""></img></td>
  </tr>
  <tr height=200>
    <td width=300><img src=""static/images/keys/w.svg"" width=""35%"" height=""75%""></img></td>
    <td width=300><img src=""static/images/keys/o.svg"" width=""35%"" height=""75%""></img></td>
  </tr>
</table>
  ",87.0,1.0,,,,,,,,,,,,,,,,,,,,,,,,,,
153,0,,html-keyboard-response,153,790596,0.0-7.0-1.0,c6koxwkbe28,2022-09-19 16:45:43.845,62ab505d7e36b71cb8acd2d8,2,80,40,24,74,28,male,1536.6000000238,,"
  <table>
  <tr height=300>
    <td width=300 height=300><img src=""static/images/cards/back_of_red_stars.svg"" width=""175px"" height=""250px""></img></td>
    <td width=300 height=300><img src=""static/images/cards/back_of_red_stars.svg"" width=""175px"" height=""250px""></img></td>
  </tr>
  <tr height=200>
    <td width=300><img src=""static/images/keys/z.svg"" width=""35%"" height=""75%""></img></td>
    <td width=300></td>
  </tr>
</table>
  ",90.0,1.0,,,,,,,,,,,,,,,,,,,,,,,,,,
154,0,,html-keyboard-response,154,792108,0.0-7.0-2.0,c6koxwkbe28,2022-09-19 16:45:43.845,62ab505d7e36b71cb8acd2d8,2,80,40,24,74,28,male,,,"
  <table>
  <tr height=300>
    <td width=300 height=300><img src=""static/images/cards/6_of_red_stars.svg"" width=""175px"" height=""250px""></img></td>
    <td width=300 height=300><img src=""static/images/cards/back_of_red_stars.svg"" width=""175px"" height=""250px""></img></td>
  </tr>
  <tr height=200>
    <td width=300><img src=""static/images/keys/z.svg"" width=""35%"" height=""75%""></img></td>
    <td width=300></td>
  </tr>
</table>
  ",,,,,,,,,,,,,,,,,,,,,,,,,,,,
155,0,,html-keyboard-response,155,793622,0.0-7.0-3.0,c6koxwkbe28,2022-09-19 16:45:43.845,62ab505d7e36b71cb8acd2d8,2,80,40,24,74,28,male,,,"<p style=""font-size:50px"">You win!
+10 points this round!</p>",,,,,,,,,,,,,,,,,,,,,,,,,,,,
156,0,,html-keyboard-response,156,794129,0.0-7.0-4.0,c6koxwkbe28,2022-09-19 16:45:43.845,62ab505d7e36b71cb8acd2d8,2,80,40,24,74,28,male,,,,,,1.0,choice,0.0,B,D,red,red,stars,moons,B,D,B,red,stars,2843.2000000477,0.0,1.0,1,left,1536.6000000238,6.0,1.0,1.0,,,
157,0,,html-keyboard-response,157,795696,0.0-7.1-0.1,c6koxwkbe28,2022-09-19 16:45:43.845,62ab505d7e36b71cb8acd2d8,2,80,40,24,74,28,male,1565.2000000477,,"
  <table>
  <tr height=300>
    <td width=300 height=300><img src=""static/images/cards/stack_of_red_moons.svg"" width=""175px"" height=""250px""></img></td>
    <td width=300 height=300><img src=""static/images/cards/stack_of_black_moons.svg"" width=""175px"" height=""250px""></img></td>
  </tr>
  <tr height=200>
    <td width=300><img src=""static/images/keys/w.svg"" width=""35%"" height=""75%""></img></td>
    <td width=300><img src=""static/images/keys/o.svg"" width=""35%"" height=""75%""></img></td>
  </tr>
</table>
  ",79.0,1.0,,,,,,,,,,,,,,,,,,,,,,,,,,
158,0,,html-keyboard-response,158,797720,0.0-7.1-1.1,c6koxwkbe28,2022-09-19 16:45:43.845,62ab505d7e36b71cb8acd2d8,2,80,40,24,74,28,male,1512.2000000477,,"
  <table>
  <tr height=300>
    <td width=300 height=300><img src=""static/images/cards/back_of_black_moons.svg"" width=""175px"" height=""250px""></img></td>
    <td width=300 height=300><img src=""static/images/cards/back_of_black_moons.svg"" width=""175px"" height=""250px""></img></td>
  </tr>
  <tr height=200>
    <td width=300><img src=""static/images/keys/z.svg"" width=""35%"" height=""75%""></img></td>
    <td width=300><img src=""static/images/keys/m.svg"" width=""35%"" height=""75%""></img></td>
  </tr>
</table>
  ",77.0,1.0,,,,,,,,,,,,,,,,,,,,,,,,,,
159,0,,html-keyboard-response,159,799229,0.0-7.1-2.1,c6koxwkbe28,2022-09-19 16:45:43.845,62ab505d7e36b71cb8acd2d8,2,80,40,24,74,28,male,,,"
  <table>
  <tr height=300>
    <td width=300 height=300><img src=""static/images/cards/back_of_black_moons.svg"" width=""175px"" height=""250px""></img></td>
    <td width=300 height=300><img src=""static/images/cards/3_of_black_moons.svg"" width=""175px"" height=""250px""></img></td>
  </tr>
  <tr height=200>
    <td width=300><img src=""static/images/keys/z.svg"" width=""35%"" height=""75%""></img></td>
    <td width=300><img src=""static/images/keys/m.svg"" width=""35%"" height=""75%""></img></td>
  </tr>
</table>
  ",,,,,,,,,,,,,,,,,,,,,,,,,,,,
160,0,,html-keyboard-response,160,800759,0.0-7.1-3.1,c6koxwkbe28,2022-09-19 16:45:43.845,62ab505d7e36b71cb8acd2d8,2,80,40,24,74,28,male,,,"<p style=""font-size:50px"">You Lose!
No points this round.</p>",,,,,,,,,,,,,,,,,,,,,,,,,,,,
161,0,,html-keyboard-response,161,801278,0.0-7.1-4.1,c6koxwkbe28,2022-09-19 16:45:43.845,62ab505d7e36b71cb8acd2d8,2,80,40,24,74,28,male,,,,,,1.0,choice,1.0,C,D,red,black,moons,moons,D,C,C,black,moons,1565.2000000477,1.0,0.0,NA,right,1512.2000000477,3.0,0.0,0.0,,,
162,0,,html-keyboard-response,162,802360,0.0-7.2-0.2,c6koxwkbe28,2022-09-19 16:45:43.845,62ab505d7e36b71cb8acd2d8,2,80,40,24,74,28,male,1080.5,,"
  <table>
  <tr height=300>
    <td width=300 height=300><img src=""static/images/cards/stack_of_red_stars.svg"" width=""175px"" height=""250px""></img></td>
    <td width=300 height=300><img src=""static/images/cards/stack_of_black_moons.svg"" width=""175px"" height=""250px""></img></td>
  </tr>
  <tr height=200>
    <td width=300><img src=""static/images/keys/w.svg"" width=""35%"" height=""75%""></img></td>
    <td width=300><img src=""static/images/keys/o.svg"" width=""35%"" height=""75%""></img></td>
  </tr>
</table>
  ",87.0,1.0,,,,,,,,,,,,,,,,,,,,,,,,,,
163,0,,html-keyboard-response,163,803595,0.0-7.2-1.2,c6koxwkbe28,2022-09-19 16:45:43.845,62ab505d7e36b71cb8acd2d8,2,80,40,24,74,28,male,722.0,,"
  <table>
  <tr height=300>
    <td width=300 height=300><img src=""static/images/cards/back_of_red_stars.svg"" width=""175px"" height=""250px""></img></td>
    <td width=300 height=300><img src=""static/images/cards/back_of_red_stars.svg"" width=""175px"" height=""250px""></img></td>
  </tr>
  <tr height=200>
    <td width=300></td>
    <td width=300><img src=""static/images/keys/m.svg"" width=""35%"" height=""75%""></img></td>
  </tr>
</table>
  ",77.0,1.0,,,,,,,,,,,,,,,,,,,,,,,,,,
164,0,,html-keyboard-response,164,805100,0.0-7.2-2.2,c6koxwkbe28,2022-09-19 16:45:43.845,62ab505d7e36b71cb8acd2d8,2,80,40,24,74,28,male,,,"
  <table>
  <tr height=300>
    <td width=300 height=300><img src=""static/images/cards/back_of_red_stars.svg"" width=""175px"" height=""250px""></img></td>
    <td width=300 height=300><img src=""static/images/cards/10_of_red_stars.svg"" width=""175px"" height=""250px""></img></td>
  </tr>
  <tr height=200>
    <td width=300></td>
    <td width=300><img src=""static/images/keys/m.svg"" width=""35%"" height=""75%""></img></td>
  </tr>
</table>
  ",,,,,,,,,,,,,,,,,,,,,,,,,,,,
165,0,,html-keyboard-response,165,806616,0.0-7.2-3.2,c6koxwkbe28,2022-09-19 16:45:43.845,62ab505d7e36b71cb8acd2d8,2,80,40,24,74,28,male,,,"<p style=""font-size:50px"">You win!
+10 points this round!</p>",,,,,,,,,,,,,,,,,,,,,,,,,,,,
166,0,,html-keyboard-response,166,807125,0.0-7.2-4.2,c6koxwkbe28,2022-09-19 16:45:43.845,62ab505d7e36b71cb8acd2d8,2,80,40,24,74,28,male,,,,,,1.0,choice,2.0,B,C,red,black,stars,moons,B,C,B,red,stars,1080.5,0.0,1.0,0,right,722.0,10.0,1.0,1.0,,,
167,0,,html-keyboard-response,167,807902,0.0-7.3-0.3,c6koxwkbe28,2022-09-19 16:45:43.845,62ab505d7e36b71cb8acd2d8,2,80,40,24,74,28,male,775.7999999523,,"
  <table>
  <tr height=300>
    <td width=300 height=300><img src=""static/images/cards/stack_of_red_stars.svg"" width=""175px"" height=""250px""></img></td>
    <td width=300 height=300><img src=""static/images/cards/stack_of_black_moons.svg"" width=""175px"" height=""250px""></img></td>
  </tr>
  <tr height=200>
    <td width=300><img src=""static/images/keys/w.svg"" width=""35%"" height=""75%""></img></td>
    <td width=300><img src=""static/images/keys/o.svg"" width=""35%"" height=""75%""></img></td>
  </tr>
</table>
  ",79.0,1.0,,,,,,,,,,,,,,,,,,,,,,,,,,
168,0,,html-keyboard-response,168,808989,0.0-7.3-1.3,c6koxwkbe28,2022-09-19 16:45:43.845,62ab505d7e36b71cb8acd2d8,2,80,40,24,74,28,male,571.6999999285,,"
  <table>
  <tr height=300>
    <td width=300 height=300><img src=""static/images/cards/back_of_black_moons.svg"" width=""175px"" height=""250px""></img></td>
    <td width=300 height=300><img src=""static/images/cards/back_of_black_moons.svg"" width=""175px"" height=""250px""></img></td>
  </tr>
  <tr height=200>
    <td width=300><img src=""static/images/keys/z.svg"" width=""35%"" height=""75%""></img></td>
    <td width=300><img src=""static/images/keys/m.svg"" width=""35%"" height=""75%""></img></td>
  </tr>
</table>
  ",77.0,1.0,,,,,,,,,,,,,,,,,,,,,,,,,,
169,0,,html-keyboard-response,169,810496,0.0-7.3-2.3,c6koxwkbe28,2022-09-19 16:45:43.845,62ab505d7e36b71cb8acd2d8,2,80,40,24,74,28,male,,,"
  <table>
  <tr height=300>
    <td width=300 height=300><img src=""static/images/cards/back_of_black_moons.svg"" width=""175px"" height=""250px""></img></td>
    <td width=300 height=300><img src=""static/images/cards/1_of_black_moons.svg"" width=""175px"" height=""250px""></img></td>
  </tr>
  <tr height=200>
    <td width=300><img src=""static/images/keys/z.svg"" width=""35%"" height=""75%""></img></td>
    <td width=300><img src=""static/images/keys/m.svg"" width=""35%"" height=""75%""></img></td>
  </tr>
</table>
  ",,,,,,,,,,,,,,,,,,,,,,,,,,,,
170,0,,html-keyboard-response,170,812010,0.0-7.3-3.3,c6koxwkbe28,2022-09-19 16:45:43.845,62ab505d7e36b71cb8acd2d8,2,80,40,24,74,28,male,,,"<p style=""font-size:50px"">You Lose!
No points this round.</p>",,,,,,,,,,,,,,,,,,,,,,,,,,,,
171,0,,html-keyboard-response,171,812529,0.0-7.3-4.3,c6koxwkbe28,2022-09-19 16:45:43.845,62ab505d7e36b71cb8acd2d8,2,80,40,24,74,28,male,,,,,,1.0,choice,3.0,B,C,red,black,stars,moons,B,C,C,black,moons,775.7999999523,1.0,0.0,NA,right,571.6999999285,1.0,0.0,0.0,,,
172,0,,html-keyboard-response,172,813112,0.0-7.4-0.4,c6koxwkbe28,2022-09-19 16:45:43.845,62ab505d7e36b71cb8acd2d8,2,80,40,24,74,28,male,581.5999999046,,"
  <table>
  <tr height=300>
    <td width=300 height=300><img src=""static/images/cards/stack_of_black_stars.svg"" width=""175px"" height=""250px""></img></td>
    <td width=300 height=300><img src=""static/images/cards/stack_of_red_moons.svg"" width=""175px"" height=""250px""></img></td>
  </tr>
  <tr height=200>
    <td width=300><img src=""static/images/keys/w.svg"" width=""35%"" height=""75%""></img></td>
    <td width=300><img src=""static/images/keys/o.svg"" width=""35%"" height=""75%""></img></td>
  </tr>
</table>
  ",79.0,1.0,,,,,,,,,,,,,,,,,,,,,,,,,,
173,0,,html-keyboard-response,173,814571,0.0-7.4-1.4,c6koxwkbe28,2022-09-19 16:45:43.845,62ab505d7e36b71cb8acd2d8,2,80,40,24,74,28,male,956.7000000477,,"
  <table>
  <tr height=300>
    <td width=300 height=300><img src=""static/images/cards/back_of_red_moons.svg"" width=""175px"" height=""250px""></img></td>
    <td width=300 height=300><img src=""static/images/cards/back_of_red_moons.svg"" width=""175px"" height=""250px""></img></td>
  </tr>
  <tr height=200>
    <td width=300><img src=""static/images/keys/z.svg"" width=""35%"" height=""75%""></img></td>
    <td width=300></td>
  </tr>
</table>
  ",90.0,1.0,,,,,,,,,,,,,,,,,,,,,,,,,,
174,0,,html-keyboard-response,174,816085,0.0-7.4-2.4,c6koxwkbe28,2022-09-19 16:45:43.845,62ab505d7e36b71cb8acd2d8,2,80,40,24,74,28,male,,,"
  <table>
  <tr height=300>
    <td width=300 height=300><img src=""static/images/cards/4_of_red_moons.svg"" width=""175px"" height=""250px""></img></td>
    <td width=300 height=300><img src=""static/images/cards/back_of_red_moons.svg"" width=""175px"" height=""250px""></img></td>
  </tr>
  <tr height=200>
    <td width=300><img src=""static/images/keys/z.svg"" width=""35%"" height=""75%""></img></td>
    <td width=300></td>
  </tr>
</table>
  ",,,,,,,,,,,,,,,,,,,,,,,,,,,,
175,0,,html-keyboard-response,175,817610,0.0-7.4-3.4,c6koxwkbe28,2022-09-19 16:45:43.845,62ab505d7e36b71cb8acd2d8,2,80,40,24,74,28,male,,,"<p style=""font-size:50px"">You win!
+10 points this round!</p>",,,,,,,,,,,,,,,,,,,,,,,,,,,,
176,0,,html-keyboard-response,176,818121,0.0-7.4-4.4,c6koxwkbe28,2022-09-19 16:45:43.845,62ab505d7e36b71cb8acd2d8,2,80,40,24,74,28,male,,,,,,1.0,choice,4.0,A,D,black,red,stars,moons,A,D,D,red,moons,581.5999999046,0.0,0.0,1,left,956.7000000477,4.0,0.0,1.0,,,
177,0,,html-keyboard-response,177,819747,0.0-7.5-0.5,c6koxwkbe28,2022-09-19 16:45:43.845,62ab505d7e36b71cb8acd2d8,2,80,40,24,74,28,male,1624.3000000715,,"
  <table>
  <tr height=300>
    <td width=300 height=300><img src=""static/images/cards/stack_of_black_moons.svg"" width=""175px"" height=""250px""></img></td>
    <td width=300 height=300><img src=""static/images/cards/stack_of_black_stars.svg"" width=""175px"" height=""250px""></img></td>
  </tr>
  <tr height=200>
    <td width=300><img src=""static/images/keys/w.svg"" width=""35%"" height=""75%""></img></td>
    <td width=300><img src=""static/images/keys/o.svg"" width=""35%"" height=""75%""></img></td>
  </tr>
</table>
  ",79.0,1.0,,,,,,,,,,,,,,,,,,,,,,,,,,
178,0,,html-keyboard-response,178,821189,0.0-7.5-1.5,c6koxwkbe28,2022-09-19 16:45:43.845,62ab505d7e36b71cb8acd2d8,2,80,40,24,74,28,male,935.3000000715,,"
  <table>
  <tr height=300>
    <td width=300 height=300><img src=""static/images/cards/back_of_black_stars.svg"" width=""175px"" height=""250px""></img></td>
    <td width=300 height=300><img src=""static/images/cards/back_of_black_stars.svg"" width=""175px"" height=""250px""></img></td>
  </tr>
  <tr height=200>
    <td width=300><img src=""static/images/keys/z.svg"" width=""35%"" height=""75%""></img></td>
    <td width=300><img src=""static/images/keys/m.svg"" width=""35%"" height=""75%""></img></td>
  </tr>
</table>
  ",90.0,1.0,,,,,,,,,,,,,,,,,,,,,,,,,,
179,0,,html-keyboard-response,179,822698,0.0-7.5-2.5,c6koxwkbe28,2022-09-19 16:45:43.845,62ab505d7e36b71cb8acd2d8,2,80,40,24,74,28,male,,,"
  <table>
  <tr height=300>
    <td width=300 height=300><img src=""static/images/cards/4_of_black_stars.svg"" width=""175px"" height=""250px""></img></td>
    <td width=300 height=300><img src=""static/images/cards/back_of_black_stars.svg"" width=""175px"" height=""250px""></img></td>
  </tr>
  <tr height=200>
    <td width=300><img src=""static/images/keys/z.svg"" width=""35%"" height=""75%""></img></td>
    <td width=300><img src=""static/images/keys/m.svg"" width=""35%"" height=""75%""></img></td>
  </tr>
</table>
  ",,,,,,,,,,,,,,,,,,,,,,,,,,,,
180,0,,html-keyboard-response,180,824222,0.0-7.5-3.5,c6koxwkbe28,2022-09-19 16:45:43.845,62ab505d7e36b71cb8acd2d8,2,80,40,24,74,28,male,,,"<p style=""font-size:50px"">You Lose!
No points this round.</p>",,,,,,,,,,,,,,,,,,,,,,,,,,,,
181,0,,html-keyboard-response,181,824731,0.0-7.5-4.5,c6koxwkbe28,2022-09-19 16:45:43.845,62ab505d7e36b71cb8acd2d8,2,80,40,24,74,28,male,,,,,,1.0,choice,5.0,A,C,black,black,moons,stars,C,A,A,black,stars,1624.3000000715,1.0,1.0,NA,left,935.3000000715,4.0,0.0,0.0,,,
182,0,,html-keyboard-response,182,826553,0.0-7.6-0.6,c6koxwkbe28,2022-09-19 16:45:43.845,62ab505d7e36b71cb8acd2d8,2,80,40,24,74,28,male,1820.1999999285,,"
  <table>
  <tr height=300>
    <td width=300 height=300><img src=""static/images/cards/stack_of_black_moons.svg"" width=""175px"" height=""250px""></img></td>
    <td width=300 height=300><img src=""static/images/cards/stack_of_black_stars.svg"" width=""175px"" height=""250px""></img></td>
  </tr>
  <tr height=200>
    <td width=300><img src=""static/images/keys/w.svg"" width=""35%"" height=""75%""></img></td>
    <td width=300><img src=""static/images/keys/o.svg"" width=""35%"" height=""75%""></img></td>
  </tr>
</table>
  ",87.0,2.0,,,,,,,,,,,,,,,,,,,,,,,,,,
183,0,,html-keyboard-response,183,827928,0.0-7.6-1.6,c6koxwkbe28,2022-09-19 16:45:43.845,62ab505d7e36b71cb8acd2d8,2,80,40,24,74,28,male,859.7999999523,,"
  <table>
  <tr height=300>
    <td width=300 height=300><img src=""static/images/cards/back_of_black_moons.svg"" width=""175px"" height=""250px""></img></td>
    <td width=300 height=300><img src=""static/images/cards/back_of_black_moons.svg"" width=""175px"" height=""250px""></img></td>
  </tr>
  <tr height=200>
    <td width=300><img src=""static/images/keys/z.svg"" width=""35%"" height=""75%""></img></td>
    <td width=300><img src=""static/images/keys/m.svg"" width=""35%"" height=""75%""></img></td>
  </tr>
</table>
  ",77.0,1.0,,,,,,,,,,,,,,,,,,,,,,,,,,
184,0,,html-keyboard-response,184,829432,0.0-7.6-2.6,c6koxwkbe28,2022-09-19 16:45:43.845,62ab505d7e36b71cb8acd2d8,2,80,40,24,74,28,male,,,"
  <table>
  <tr height=300>
    <td width=300 height=300><img src=""static/images/cards/back_of_black_moons.svg"" width=""175px"" height=""250px""></img></td>
    <td width=300 height=300><img src=""static/images/cards/8_of_black_moons.svg"" width=""175px"" height=""250px""></img></td>
  </tr>
  <tr height=200>
    <td width=300><img src=""static/images/keys/z.svg"" width=""35%"" height=""75%""></img></td>
    <td width=300><img src=""static/images/keys/m.svg"" width=""35%"" height=""75%""></img></td>
  </tr>
</table>
  ",,,,,,,,,,,,,,,,,,,,,,,,,,,,
185,0,,html-keyboard-response,185,830948,0.0-7.6-3.6,c6koxwkbe28,2022-09-19 16:45:43.845,62ab505d7e36b71cb8acd2d8,2,80,40,24,74,28,male,,,"<p style=""font-size:50px"">You Lose!
No points this round.</p>",,,,,,,,,,,,,,,,,,,,,,,,,,,,
186,0,,html-keyboard-response,186,831469,0.0-7.6-4.6,c6koxwkbe28,2022-09-19 16:45:43.845,62ab505d7e36b71cb8acd2d8,2,80,40,24,74,28,male,,,,,,1.0,choice,6.0,A,C,black,black,moons,stars,C,A,C,black,moons,1820.1999999285,1.0,0.0,NA,right,859.7999999523,8.0,1.0,0.0,,,
187,0,,html-keyboard-response,187,832653,0.0-7.7-0.7,c6koxwkbe28,2022-09-19 16:45:43.845,62ab505d7e36b71cb8acd2d8,2,80,40,24,74,28,male,1182.6000000238,,"
  <table>
  <tr height=300>
    <td width=300 height=300><img src=""static/images/cards/stack_of_red_moons.svg"" width=""175px"" height=""250px""></img></td>
    <td width=300 height=300><img src=""static/images/cards/stack_of_black_bolts.svg"" width=""175px"" height=""250px""></img></td>
  </tr>
  <tr height=200>
    <td width=300><img src=""static/images/keys/w.svg"" width=""35%"" height=""75%""></img></td>
    <td width=300><img src=""static/images/keys/o.svg"" width=""35%"" height=""75%""></img></td>
  </tr>
</table>
  ",87.0,1.0,,,,,,,,,,,,,,,,,,,,,,,,,,
188,0,,html-keyboard-response,188,834163,0.0-7.7-1.7,c6koxwkbe28,2022-09-19 16:45:43.845,62ab505d7e36b71cb8acd2d8,2,80,40,24,74,28,male,1003.2999999523,,"
  <table>
  <tr height=300>
    <td width=300 height=300><img src=""static/images/cards/back_of_red_moons.svg"" width=""175px"" height=""250px""></img></td>
    <td width=300 height=300><img src=""static/images/cards/back_of_red_moons.svg"" width=""175px"" height=""250px""></img></td>
  </tr>
  <tr height=200>
    <td width=300><img src=""static/images/keys/z.svg"" width=""35%"" height=""75%""></img></td>
    <td width=300></td>
  </tr>
</table>
  ",90.0,1.0,,,,,,,,,,,,,,,,,,,,,,,,,,
189,0,,html-keyboard-response,189,835674,0.0-7.7-2.7,c6koxwkbe28,2022-09-19 16:45:43.845,62ab505d7e36b71cb8acd2d8,2,80,40,24,74,28,male,,,"
  <table>
  <tr height=300>
    <td width=300 height=300><img src=""static/images/cards/10_of_red_moons.svg"" width=""175px"" height=""250px""></img></td>
    <td width=300 height=300><img src=""static/images/cards/back_of_red_moons.svg"" width=""175px"" height=""250px""></img></td>
  </tr>
  <tr height=200>
    <td width=300><img src=""static/images/keys/z.svg"" width=""35%"" height=""75%""></img></td>
    <td width=300></td>
  </tr>
</table>
  ",,,,,,,,,,,,,,,,,,,,,,,,,,,,
190,0,,html-keyboard-response,190,837186,0.0-7.7-3.7,c6koxwkbe28,2022-09-19 16:45:43.845,62ab505d7e36b71cb8acd2d8,2,80,40,24,74,28,male,,,"<p style=""font-size:50px"">You win!
+10 points this round!</p>",,,,,,,,,,,,,,,,,,,,,,,,,,,,
191,0,,html-keyboard-response,191,837697,0.0-7.7-4.7,c6koxwkbe28,2022-09-19 16:45:43.845,62ab505d7e36b71cb8acd2d8,2,80,40,24,74,28,male,,,,,,1.0,choice,7.0,D,Xnc,red,black,moons,bolts,D,Xnc,D,red,moons,1182.6000000238,0.0,0.0,1,left,1003.2999999523,10.0,1.0,1.0,,,
192,0,,html-keyboard-response,192,839382,0.0-7.8-0.8,c6koxwkbe28,2022-09-19 16:45:43.845,62ab505d7e36b71cb8acd2d8,2,80,40,24,74,28,male,1684.1999999285,,"
  <table>
  <tr height=300>
    <td width=300 height=300><img src=""static/images/cards/stack_of_red_stars.svg"" width=""175px"" height=""250px""></img></td>
    <td width=300 height=300><img src=""static/images/cards/stack_of_black_moons.svg"" width=""175px"" height=""250px""></img></td>
  </tr>
  <tr height=200>
    <td width=300><img src=""static/images/keys/w.svg"" width=""35%"" height=""75%""></img></td>
    <td width=300><img src=""static/images/keys/o.svg"" width=""35%"" height=""75%""></img></td>
  </tr>
</table>
  ",79.0,1.0,,,,,,,,,,,,,,,,,,,,,,,,,,
193,0,,html-keyboard-response,193,840961,0.0-7.8-1.8,c6koxwkbe28,2022-09-19 16:45:43.845,62ab505d7e36b71cb8acd2d8,2,80,40,24,74,28,male,1064.3999999762,,"
  <table>
  <tr height=300>
    <td width=300 height=300><img src=""static/images/cards/back_of_black_moons.svg"" width=""175px"" height=""250px""></img></td>
    <td width=300 height=300><img src=""static/images/cards/back_of_black_moons.svg"" width=""175px"" height=""250px""></img></td>
  </tr>
  <tr height=200>
    <td width=300><img src=""static/images/keys/z.svg"" width=""35%"" height=""75%""></img></td>
    <td width=300><img src=""static/images/keys/m.svg"" width=""35%"" height=""75%""></img></td>
  </tr>
</table>
  ",90.0,1.0,,,,,,,,,,,,,,,,,,,,,,,,,,
194,0,,html-keyboard-response,194,842475,0.0-7.8-2.8,c6koxwkbe28,2022-09-19 16:45:43.845,62ab505d7e36b71cb8acd2d8,2,80,40,24,74,28,male,,,"
  <table>
  <tr height=300>
    <td width=300 height=300><img src=""static/images/cards/7_of_black_moons.svg"" width=""175px"" height=""250px""></img></td>
    <td width=300 height=300><img src=""static/images/cards/back_of_black_moons.svg"" width=""175px"" height=""250px""></img></td>
  </tr>
  <tr height=200>
    <td width=300><img src=""static/images/keys/z.svg"" width=""35%"" height=""75%""></img></td>
    <td width=300><img src=""static/images/keys/m.svg"" width=""35%"" height=""75%""></img></td>
  </tr>
</table>
  ",,,,,,,,,,,,,,,,,,,,,,,,,,,,
195,0,,html-keyboard-response,195,843997,0.0-7.8-3.8,c6koxwkbe28,2022-09-19 16:45:43.845,62ab505d7e36b71cb8acd2d8,2,80,40,24,74,28,male,,,"<p style=""font-size:50px"">You Lose!
No points this round.</p>",,,,,,,,,,,,,,,,,,,,,,,,,,,,
196,0,,html-keyboard-response,196,844503,0.0-7.8-4.8,c6koxwkbe28,2022-09-19 16:45:43.845,62ab505d7e36b71cb8acd2d8,2,80,40,24,74,28,male,,,,,,1.0,choice,8.0,B,C,red,black,stars,moons,B,C,C,black,moons,1684.1999999285,1.0,0.0,NA,left,1064.3999999762,7.0,1.0,0.0,,,
197,0,,html-keyboard-response,197,845053,0.0-7.9-0.9,c6koxwkbe28,2022-09-19 16:45:43.845,62ab505d7e36b71cb8acd2d8,2,80,40,24,74,28,male,549.0,,"
  <table>
  <tr height=300>
    <td width=300 height=300><img src=""static/images/cards/stack_of_black_stars.svg"" width=""175px"" height=""250px""></img></td>
    <td width=300 height=300><img src=""static/images/cards/stack_of_red_moons.svg"" width=""175px"" height=""250px""></img></td>
  </tr>
  <tr height=200>
    <td width=300><img src=""static/images/keys/w.svg"" width=""35%"" height=""75%""></img></td>
    <td width=300><img src=""static/images/keys/o.svg"" width=""35%"" height=""75%""></img></td>
  </tr>
</table>
  ",79.0,1.0,,,,,,,,,,,,,,,,,,,,,,,,,,
198,0,,html-keyboard-response,198,846205,0.0-7.9-1.9,c6koxwkbe28,2022-09-19 16:45:43.845,62ab505d7e36b71cb8acd2d8,2,80,40,24,74,28,male,649.7000000477,,"
  <table>
  <tr height=300>
    <td width=300 height=300><img src=""static/images/cards/back_of_red_moons.svg"" width=""175px"" height=""250px""></img></td>
    <td width=300 height=300><img src=""static/images/cards/back_of_red_moons.svg"" width=""175px"" height=""250px""></img></td>
  </tr>
  <tr height=200>
    <td width=300><img src=""static/images/keys/z.svg"" width=""35%"" height=""75%""></img></td>
    <td width=300></td>
  </tr>
</table>
  ",90.0,1.0,,,,,,,,,,,,,,,,,,,,,,,,,,
199,0,,html-keyboard-response,199,847713,0.0-7.9-2.9,c6koxwkbe28,2022-09-19 16:45:43.845,62ab505d7e36b71cb8acd2d8,2,80,40,24,74,28,male,,,"
  <table>
  <tr height=300>
    <td width=300 height=300><img src=""static/images/cards/8_of_red_moons.svg"" width=""175px"" height=""250px""></img></td>
    <td width=300 height=300><img src=""static/images/cards/back_of_red_moons.svg"" width=""175px"" height=""250px""></img></td>
  </tr>
  <tr height=200>
    <td width=300><img src=""static/images/keys/z.svg"" width=""35%"" height=""75%""></img></td>
    <td width=300></td>
  </tr>
</table>
  ",,,,,,,,,,,,,,,,,,,,,,,,,,,,
200,0,,html-keyboard-response,200,849236,0.0-7.9-3.9,c6koxwkbe28,2022-09-19 16:45:43.845,62ab505d7e36b71cb8acd2d8,2,80,40,24,74,28,male,,,"<p style=""font-size:50px"">You Lose!
No points this round.</p>",,,,,,,,,,,,,,,,,,,,,,,,,,,,
201,0,,html-keyboard-response,201,849749,0.0-7.9-4.9,c6koxwkbe28,2022-09-19 16:45:43.845,62ab505d7e36b71cb8acd2d8,2,80,40,24,74,28,male,,,,,,1.0,choice,9.0,A,D,black,red,stars,moons,A,D,D,red,moons,549.0,0.0,0.0,1,left,649.7000000477,8.0,1.0,0.0,,,
202,0,,html-keyboard-response,202,851160,0.0-7.10-0.10,c6koxwkbe28,2022-09-19 16:45:43.845,62ab505d7e36b71cb8acd2d8,2,80,40,24,74,28,male,1410.0,,"
  <table>
  <tr height=300>
    <td width=300 height=300><img src=""static/images/cards/stack_of_red_stars.svg"" width=""175px"" height=""250px""></img></td>
    <td width=300 height=300><img src=""static/images/cards/stack_of_red_moons.svg"" width=""175px"" height=""250px""></img></td>
  </tr>
  <tr height=200>
    <td width=300><img src=""static/images/keys/w.svg"" width=""35%"" height=""75%""></img></td>
    <td width=300><img src=""static/images/keys/o.svg"" width=""35%"" height=""75%""></img></td>
  </tr>
</table>
  ",87.0,1.0,,,,,,,,,,,,,,,,,,,,,,,,,,
203,0,,html-keyboard-response,203,852149,0.0-7.10-1.10,c6koxwkbe28,2022-09-19 16:45:43.845,62ab505d7e36b71cb8acd2d8,2,80,40,24,74,28,male,486.3999999762,,"
  <table>
  <tr height=300>
    <td width=300 height=300><img src=""static/images/cards/back_of_red_stars.svg"" width=""175px"" height=""250px""></img></td>
    <td width=300 height=300><img src=""static/images/cards/back_of_red_stars.svg"" width=""175px"" height=""250px""></img></td>
  </tr>
  <tr height=200>
    <td width=300></td>
    <td width=300><img src=""static/images/keys/m.svg"" width=""35%"" height=""75%""></img></td>
  </tr>
</table>
  ",77.0,1.0,,,,,,,,,,,,,,,,,,,,,,,,,,
204,0,,html-keyboard-response,204,853664,0.0-7.10-2.10,c6koxwkbe28,2022-09-19 16:45:43.845,62ab505d7e36b71cb8acd2d8,2,80,40,24,74,28,male,,,"
  <table>
  <tr height=300>
    <td width=300 height=300><img src=""static/images/cards/back_of_red_stars.svg"" width=""175px"" height=""250px""></img></td>
    <td width=300 height=300><img src=""static/images/cards/8_of_red_stars.svg"" width=""175px"" height=""250px""></img></td>
  </tr>
  <tr height=200>
    <td width=300></td>
    <td width=300><img src=""static/images/keys/m.svg"" width=""35%"" height=""75%""></img></td>
  </tr>
</table>
  ",,,,,,,,,,,,,,,,,,,,,,,,,,,,
205,0,,html-keyboard-response,205,855183,0.0-7.10-3.10,c6koxwkbe28,2022-09-19 16:45:43.845,62ab505d7e36b71cb8acd2d8,2,80,40,24,74,28,male,,,"<p style=""font-size:50px"">You win!
+10 points this round!</p>",,,,,,,,,,,,,,,,,,,,,,,,,,,,
206,0,,html-keyboard-response,206,855704,0.0-7.10-4.10,c6koxwkbe28,2022-09-19 16:45:43.845,62ab505d7e36b71cb8acd2d8,2,80,40,24,74,28,male,,,,,,1.0,choice,10.0,B,D,red,red,stars,moons,B,D,B,red,stars,1410.0,0.0,1.0,0,right,486.3999999762,8.0,1.0,1.0,,,
207,0,,html-keyboard-response,207,856837,0.0-7.11-0.11,c6koxwkbe28,2022-09-19 16:45:43.845,62ab505d7e36b71cb8acd2d8,2,80,40,24,74,28,male,1131.5,,"
  <table>
  <tr height=300>
    <td width=300 height=300><img src=""static/images/cards/stack_of_red_moons.svg"" width=""175px"" height=""250px""></img></td>
    <td width=300 height=300><img src=""static/images/cards/stack_of_red_bolts.svg"" width=""175px"" height=""250px""></img></td>
  </tr>
  <tr height=200>
    <td width=300><img src=""static/images/keys/w.svg"" width=""35%"" height=""75%""></img></td>
    <td width=300><img src=""static/images/keys/o.svg"" width=""35%"" height=""75%""></img></td>
  </tr>
</table>
  ",79.0,1.0,,,,,,,,,,,,,,,,,,,,,,,,,,
208,0,,html-keyboard-response,208,858237,0.0-7.11-1.11,c6koxwkbe28,2022-09-19 16:45:43.845,62ab505d7e36b71cb8acd2d8,2,80,40,24,74,28,male,898.3999999762,,"
  <table>
  <tr height=300>
    <td width=300 height=300><img src=""static/images/cards/back_of_red_bolts.svg"" width=""175px"" height=""250px""></img></td>
    <td width=300 height=300><img src=""static/images/cards/back_of_red_bolts.svg"" width=""175px"" height=""250px""></img></td>
  </tr>
  <tr height=200>
    <td width=300><img src=""static/images/keys/z.svg"" width=""35%"" height=""75%""></img></td>
    <td width=300><img src=""static/images/keys/m.svg"" width=""35%"" height=""75%""></img></td>
  </tr>
</table>
  ",77.0,1.0,,,,,,,,,,,,,,,,,,,,,,,,,,
209,0,,html-keyboard-response,209,859743,0.0-7.11-2.11,c6koxwkbe28,2022-09-19 16:45:43.845,62ab505d7e36b71cb8acd2d8,2,80,40,24,74,28,male,,,"
  <table>
  <tr height=300>
    <td width=300 height=300><img src=""static/images/cards/back_of_red_bolts.svg"" width=""175px"" height=""250px""></img></td>
    <td width=300 height=300><img src=""static/images/cards/9_of_red_bolts.svg"" width=""175px"" height=""250px""></img></td>
  </tr>
  <tr height=200>
    <td width=300><img src=""static/images/keys/z.svg"" width=""35%"" height=""75%""></img></td>
    <td width=300><img src=""static/images/keys/m.svg"" width=""35%"" height=""75%""></img></td>
  </tr>
</table>
  ",,,,,,,,,,,,,,,,,,,,,,,,,,,,
210,0,,html-keyboard-response,210,861258,0.0-7.11-3.11,c6koxwkbe28,2022-09-19 16:45:43.845,62ab505d7e36b71cb8acd2d8,2,80,40,24,74,28,male,,,"<p style=""font-size:50px"">You win!
+10 points this round!</p>",,,,,,,,,,,,,,,,,,,,,,,,,,,,
211,0,,html-keyboard-response,211,861766,0.0-7.11-4.11,c6koxwkbe28,2022-09-19 16:45:43.845,62ab505d7e36b71cb8acd2d8,2,80,40,24,74,28,male,,,,,,1.0,choice,11.0,D,Xc,red,red,moons,bolts,D,Xc,Xc,red,bolts,1131.5,1.0,0.0,NA,right,898.3999999762,9.0,1.0,1.0,,,
212,0,,html-keyboard-response,212,862906,0.0-7.12-0.12,c6koxwkbe28,2022-09-19 16:45:43.845,62ab505d7e36b71cb8acd2d8,2,80,40,24,74,28,male,1139.3999999762,,"
  <table>
  <tr height=300>
    <td width=300 height=300><img src=""static/images/cards/stack_of_red_moons.svg"" width=""175px"" height=""250px""></img></td>
    <td width=300 height=300><img src=""static/images/cards/stack_of_black_stars.svg"" width=""175px"" height=""250px""></img></td>
  </tr>
  <tr height=200>
    <td width=300><img src=""static/images/keys/w.svg"" width=""35%"" height=""75%""></img></td>
    <td width=300><img src=""static/images/keys/o.svg"" width=""35%"" height=""75%""></img></td>
  </tr>
</table>
  ",87.0,1.0,,,,,,,,,,,,,,,,,,,,,,,,,,
213,0,,html-keyboard-response,213,864342,0.0-7.12-1.12,c6koxwkbe28,2022-09-19 16:45:43.845,62ab505d7e36b71cb8acd2d8,2,80,40,24,74,28,male,929.5,,"
  <table>
  <tr height=300>
    <td width=300 height=300><img src=""static/images/cards/back_of_red_moons.svg"" width=""175px"" height=""250px""></img></td>
    <td width=300 height=300><img src=""static/images/cards/back_of_red_moons.svg"" width=""175px"" height=""250px""></img></td>
  </tr>
  <tr height=200>
    <td width=300><img src=""static/images/keys/z.svg"" width=""35%"" height=""75%""></img></td>
    <td width=300></td>
  </tr>
</table>
  ",90.0,1.0,,,,,,,,,,,,,,,,,,,,,,,,,,
214,0,,html-keyboard-response,214,865855,0.0-7.12-2.12,c6koxwkbe28,2022-09-19 16:45:43.845,62ab505d7e36b71cb8acd2d8,2,80,40,24,74,28,male,,,"
  <table>
  <tr height=300>
    <td width=300 height=300><img src=""static/images/cards/2_of_red_moons.svg"" width=""175px"" height=""250px""></img></td>
    <td width=300 height=300><img src=""static/images/cards/back_of_red_moons.svg"" width=""175px"" height=""250px""></img></td>
  </tr>
  <tr height=200>
    <td width=300><img src=""static/images/keys/z.svg"" width=""35%"" height=""75%""></img></td>
    <td width=300></td>
  </tr>
</table>
  ",,,,,,,,,,,,,,,,,,,,,,,,,,,,
215,0,,html-keyboard-response,215,867371,0.0-7.12-3.12,c6koxwkbe28,2022-09-19 16:45:43.845,62ab505d7e36b71cb8acd2d8,2,80,40,24,74,28,male,,,"<p style=""font-size:50px"">You Lose!
No points this round.</p>",,,,,,,,,,,,,,,,,,,,,,,,,,,,
216,0,,html-keyboard-response,216,867892,0.0-7.12-4.12,c6koxwkbe28,2022-09-19 16:45:43.845,62ab505d7e36b71cb8acd2d8,2,80,40,24,74,28,male,,,,,,1.0,choice,12.0,A,D,red,black,moons,stars,D,A,D,red,moons,1139.3999999762,0.0,0.0,1,left,929.5,2.0,0.0,0.0,,,
217,0,,html-keyboard-response,217,869422,0.0-7.13-0.13,c6koxwkbe28,2022-09-19 16:45:43.845,62ab505d7e36b71cb8acd2d8,2,80,40,24,74,28,male,1528.7999999523,,"
  <table>
  <tr height=300>
    <td width=300 height=300><img src=""static/images/cards/stack_of_black_moons.svg"" width=""175px"" height=""250px""></img></td>
    <td width=300 height=300><img src=""static/images/cards/stack_of_red_moons.svg"" width=""175px"" height=""250px""></img></td>
  </tr>
  <tr height=200>
    <td width=300><img src=""static/images/keys/w.svg"" width=""35%"" height=""75%""></img></td>
    <td width=300><img src=""static/images/keys/o.svg"" width=""35%"" height=""75%""></img></td>
  </tr>
</table>
  ",87.0,1.0,,,,,,,,,,,,,,,,,,,,,,,,,,
218,0,,html-keyboard-response,218,871131,0.0-7.13-1.13,c6koxwkbe28,2022-09-19 16:45:43.845,62ab505d7e36b71cb8acd2d8,2,80,40,24,74,28,male,1194.2000000477,,"
  <table>
  <tr height=300>
    <td width=300 height=300><img src=""static/images/cards/back_of_black_moons.svg"" width=""175px"" height=""250px""></img></td>
    <td width=300 height=300><img src=""static/images/cards/back_of_black_moons.svg"" width=""175px"" height=""250px""></img></td>
  </tr>
  <tr height=200>
    <td width=300><img src=""static/images/keys/z.svg"" width=""35%"" height=""75%""></img></td>
    <td width=300><img src=""static/images/keys/m.svg"" width=""35%"" height=""75%""></img></td>
  </tr>
</table>
  ",77.0,1.0,,,,,,,,,,,,,,,,,,,,,,,,,,
219,0,,html-keyboard-response,219,872639,0.0-7.13-2.13,c6koxwkbe28,2022-09-19 16:45:43.845,62ab505d7e36b71cb8acd2d8,2,80,40,24,74,28,male,,,"
  <table>
  <tr height=300>
    <td width=300 height=300><img src=""static/images/cards/back_of_black_moons.svg"" width=""175px"" height=""250px""></img></td>
    <td width=300 height=300><img src=""static/images/cards/1_of_black_moons.svg"" width=""175px"" height=""250px""></img></td>
  </tr>
  <tr height=200>
    <td width=300><img src=""static/images/keys/z.svg"" width=""35%"" height=""75%""></img></td>
    <td width=300><img src=""static/images/keys/m.svg"" width=""35%"" height=""75%""></img></td>
  </tr>
</table>
  ",,,,,,,,,,,,,,,,,,,,,,,,,,,,
220,0,,html-keyboard-response,220,874166,0.0-7.13-3.13,c6koxwkbe28,2022-09-19 16:45:43.845,62ab505d7e36b71cb8acd2d8,2,80,40,24,74,28,male,,,"<p style=""font-size:50px"">You Lose!
No points this round.</p>",,,,,,,,,,,,,,,,,,,,,,,,,,,,
221,0,,html-keyboard-response,221,874679,0.0-7.13-4.13,c6koxwkbe28,2022-09-19 16:45:43.845,62ab505d7e36b71cb8acd2d8,2,80,40,24,74,28,male,,,,,,1.0,choice,13.0,C,D,black,red,moons,moons,C,D,C,black,moons,1528.7999999523,1.0,0.0,NA,right,1194.2000000477,1.0,0.0,0.0,,,
222,0,,html-keyboard-response,222,876317,0.0-7.14-0.14,c6koxwkbe28,2022-09-19 16:45:43.845,62ab505d7e36b71cb8acd2d8,2,80,40,24,74,28,male,1637.2000000477,,"
  <table>
  <tr height=300>
    <td width=300 height=300><img src=""static/images/cards/stack_of_black_stars.svg"" width=""175px"" height=""250px""></img></td>
    <td width=300 height=300><img src=""static/images/cards/stack_of_black_moons.svg"" width=""175px"" height=""250px""></img></td>
  </tr>
  <tr height=200>
    <td width=300><img src=""static/images/keys/w.svg"" width=""35%"" height=""75%""></img></td>
    <td width=300><img src=""static/images/keys/o.svg"" width=""35%"" height=""75%""></img></td>
  </tr>
</table>
  ",87.0,1.0,,,,,,,,,,,,,,,,,,,,,,,,,,
223,0,,html-keyboard-response,223,877472,0.0-7.14-1.14,c6koxwkbe28,2022-09-19 16:45:43.845,62ab505d7e36b71cb8acd2d8,2,80,40,24,74,28,male,649.5,,"
  <table>
  <tr height=300>
    <td width=300 height=300><img src=""static/images/cards/back_of_black_stars.svg"" width=""175px"" height=""250px""></img></td>
    <td width=300 height=300><img src=""static/images/cards/back_of_black_stars.svg"" width=""175px"" height=""250px""></img></td>
  </tr>
  <tr height=200>
    <td width=300><img src=""static/images/keys/z.svg"" width=""35%"" height=""75%""></img></td>
    <td width=300><img src=""static/images/keys/m.svg"" width=""35%"" height=""75%""></img></td>
  </tr>
</table>
  ",90.0,1.0,,,,,,,,,,,,,,,,,,,,,,,,,,
224,0,,html-keyboard-response,224,878979,0.0-7.14-2.14,c6koxwkbe28,2022-09-19 16:45:43.845,62ab505d7e36b71cb8acd2d8,2,80,40,24,74,28,male,,,"
  <table>
  <tr height=300>
    <td width=300 height=300><img src=""static/images/cards/1_of_black_stars.svg"" width=""175px"" height=""250px""></img></td>
    <td width=300 height=300><img src=""static/images/cards/back_of_black_stars.svg"" width=""175px"" height=""250px""></img></td>
  </tr>
  <tr height=200>
    <td width=300><img src=""static/images/keys/z.svg"" width=""35%"" height=""75%""></img></td>
    <td width=300><img src=""static/images/keys/m.svg"" width=""35%"" height=""75%""></img></td>
  </tr>
</table>
  ",,,,,,,,,,,,,,,,,,,,,,,,,,,,
225,0,,html-keyboard-response,225,880510,0.0-7.14-3.14,c6koxwkbe28,2022-09-19 16:45:43.845,62ab505d7e36b71cb8acd2d8,2,80,40,24,74,28,male,,,"<p style=""font-size:50px"">You Lose!
No points this round.</p>",,,,,,,,,,,,,,,,,,,,,,,,,,,,
226,0,,html-keyboard-response,226,881018,0.0-7.14-4.14,c6koxwkbe28,2022-09-19 16:45:43.845,62ab505d7e36b71cb8acd2d8,2,80,40,24,74,28,male,,,,,,1.0,choice,14.0,A,C,black,black,stars,moons,A,C,A,black,stars,1637.2000000477,1.0,1.0,NA,left,649.5,1.0,0.0,0.0,,,
227,0,,html-keyboard-response,227,882773,0.0-7.15-0.15,c6koxwkbe28,2022-09-19 16:45:43.845,62ab505d7e36b71cb8acd2d8,2,80,40,24,74,28,male,1754.0,,"
  <table>
  <tr height=300>
    <td width=300 height=300><img src=""static/images/cards/stack_of_red_moons.svg"" width=""175px"" height=""250px""></img></td>
    <td width=300 height=300><img src=""static/images/cards/stack_of_red_stars.svg"" width=""175px"" height=""250px""></img></td>
  </tr>
  <tr height=200>
    <td width=300><img src=""static/images/keys/w.svg"" width=""35%"" height=""75%""></img></td>
    <td width=300><img src=""static/images/keys/o.svg"" width=""35%"" height=""75%""></img></td>
  </tr>
</table>
  ",87.0,1.0,,,,,,,,,,,,,,,,,,,,,,,,,,
228,0,,html-keyboard-response,228,884501,0.0-7.15-1.15,c6koxwkbe28,2022-09-19 16:45:43.845,62ab505d7e36b71cb8acd2d8,2,80,40,24,74,28,male,1216.3000000715,,"
  <table>
  <tr height=300>
    <td width=300 height=300><img src=""static/images/cards/back_of_red_moons.svg"" width=""175px"" height=""250px""></img></td>
    <td width=300 height=300><img src=""static/images/cards/back_of_red_moons.svg"" width=""175px"" height=""250px""></img></td>
  </tr>
  <tr height=200>
    <td width=300><img src=""static/images/keys/z.svg"" width=""35%"" height=""75%""></img></td>
    <td width=300></td>
  </tr>
</table>
  ",90.0,1.0,,,,,,,,,,,,,,,,,,,,,,,,,,
229,0,,html-keyboard-response,229,886013,0.0-7.15-2.15,c6koxwkbe28,2022-09-19 16:45:43.845,62ab505d7e36b71cb8acd2d8,2,80,40,24,74,28,male,,,"
  <table>
  <tr height=300>
    <td width=300 height=300><img src=""static/images/cards/4_of_red_moons.svg"" width=""175px"" height=""250px""></img></td>
    <td width=300 height=300><img src=""static/images/cards/back_of_red_moons.svg"" width=""175px"" height=""250px""></img></td>
  </tr>
  <tr height=200>
    <td width=300><img src=""static/images/keys/z.svg"" width=""35%"" height=""75%""></img></td>
    <td width=300></td>
  </tr>
</table>
  ",,,,,,,,,,,,,,,,,,,,,,,,,,,,
230,0,,html-keyboard-response,230,887534,0.0-7.15-3.15,c6koxwkbe28,2022-09-19 16:45:43.845,62ab505d7e36b71cb8acd2d8,2,80,40,24,74,28,male,,,"<p style=""font-size:50px"">You Lose!
No points this round.</p>",,,,,,,,,,,,,,,,,,,,,,,,,,,,
231,0,,html-keyboard-response,231,888046,0.0-7.15-4.15,c6koxwkbe28,2022-09-19 16:45:43.845,62ab505d7e36b71cb8acd2d8,2,80,40,24,74,28,male,,,,,,1.0,choice,15.0,B,D,red,red,moons,stars,D,B,D,red,moons,1754.0,0.0,0.0,1,left,1216.3000000715,4.0,0.0,0.0,,,
232,0,,html-keyboard-response,232,889649,0.0-7.16-0.16,c6koxwkbe28,2022-09-19 16:45:43.845,62ab505d7e36b71cb8acd2d8,2,80,40,24,74,28,male,1601.7999999523,,"
  <table>
  <tr height=300>
    <td width=300 height=300><img src=""static/images/cards/stack_of_black_stars.svg"" width=""175px"" height=""250px""></img></td>
    <td width=300 height=300><img src=""static/images/cards/stack_of_red_stars.svg"" width=""175px"" height=""250px""></img></td>
  </tr>
  <tr height=200>
    <td width=300><img src=""static/images/keys/w.svg"" width=""35%"" height=""75%""></img></td>
    <td width=300><img src=""static/images/keys/o.svg"" width=""35%"" height=""75%""></img></td>
  </tr>
</table>
  ",79.0,1.0,,,,,,,,,,,,,,,,,,,,,,,,,,
233,0,,html-keyboard-response,233,890588,0.0-7.16-1.16,c6koxwkbe28,2022-09-19 16:45:43.845,62ab505d7e36b71cb8acd2d8,2,80,40,24,74,28,male,422.3999999762,,"
  <table>
  <tr height=300>
    <td width=300 height=300><img src=""static/images/cards/back_of_red_stars.svg"" width=""175px"" height=""250px""></img></td>
    <td width=300 height=300><img src=""static/images/cards/back_of_red_stars.svg"" width=""175px"" height=""250px""></img></td>
  </tr>
  <tr height=200>
    <td width=300></td>
    <td width=300><img src=""static/images/keys/m.svg"" width=""35%"" height=""75%""></img></td>
  </tr>
</table>
  ",77.0,1.0,,,,,,,,,,,,,,,,,,,,,,,,,,
234,0,,html-keyboard-response,234,892093,0.0-7.16-2.16,c6koxwkbe28,2022-09-19 16:45:43.845,62ab505d7e36b71cb8acd2d8,2,80,40,24,74,28,male,,,"
  <table>
  <tr height=300>
    <td width=300 height=300><img src=""static/images/cards/back_of_red_stars.svg"" width=""175px"" height=""250px""></img></td>
    <td width=300 height=300><img src=""static/images/cards/10_of_red_stars.svg"" width=""175px"" height=""250px""></img></td>
  </tr>
  <tr height=200>
    <td width=300></td>
    <td width=300><img src=""static/images/keys/m.svg"" width=""35%"" height=""75%""></img></td>
  </tr>
</table>
  ",,,,,,,,,,,,,,,,,,,,,,,,,,,,
