,index,success,trial_type,trial_index,time_elapsed,internal_node_id,subject,date,prol_id,ctbl,sense_of_control_A,sense_of_control_B,sense_of_control_C,sense_of_control_D,age,gender,rt,url,stimulus,key_press,npress,is_data_trial,phase,trial,deck1,deck2,col1,col2,sym1,sym2,deck_l,deck_r,chosen_deck,chosen_col,chosen_sym,deck_rt,choose_choice,mutual_info,hidden_key,chosen_card,card_rt,player_num,win_card,outcome,mock_rating,response,responses
0,0,1.0,fullscreen,0,10476,0.0-0.0,6p374z0qqb,2022-09-19 16:45:07.994,5ea96886ef7ece0604eee527,2,36,60,41,56,61,male,,,,,,,,,,,,,,,,,,,,,,,,,,,,,,,
1,0,,external-html,1,18115,0.0-1.0,6p374z0qqb,2022-09-19 16:45:07.994,5ea96886ef7ece0604eee527,2,36,60,41,56,61,male,7527.5,static/js/sub/consent.html,,,,,,,,,,,,,,,,,,,,,,,,,,,,,
2,0,,call-function,2,18117,0.0-2.0,6p374z0qqb,2022-09-19 16:45:07.994,5ea96886ef7ece0604eee527,2,36,60,41,56,61,male,,,,,,,,,,,,,,,,,,,,,,,,,,,,,,,
3,0,,image-keyboard-response,3,26566,0.0-3.0-0.0,6p374z0qqb,2022-09-19 16:45:07.994,5ea96886ef7ece0604eee527,2,36,60,41,56,61,male,8447.2999999821,,static/images/instructions_CB_2/Slide1.png,39.0,,,,,,,,,,,,,,,,,,,,,,,,,,,
4,0,,image-keyboard-response,4,33818,0.0-3.1-0.1,6p374z0qqb,2022-09-19 16:45:07.994,5ea96886ef7ece0604eee527,2,36,60,41,56,61,male,7250.1999999881,,static/images/instructions_CB_2/Slide2.png,39.0,,,,,,,,,,,,,,,,,,,,,,,,,,,
5,0,,image-keyboard-response,5,37858,0.0-3.2-0.2,6p374z0qqb,2022-09-19 16:45:07.994,5ea96886ef7ece0604eee527,2,36,60,41,56,61,male,4038.6999999881,,static/images/instructions_CB_2/Slide3.png,39.0,,,,,,,,,,,,,,,,,,,,,,,,,,,
6,0,,image-keyboard-response,6,41354,0.0-3.3-0.3,6p374z0qqb,2022-09-19 16:45:07.994,5ea96886ef7ece0604eee527,2,36,60,41,56,61,male,3494.0,,static/images/instructions_CB_2/Slide4.png,39.0,,,,,,,,,,,,,,,,,,,,,,,,,,,
7,0,,image-keyboard-response,7,46682,0.0-3.4-0.4,6p374z0qqb,2022-09-19 16:45:07.994,5ea96886ef7ece0604eee527,2,36,60,41,56,61,male,5326.6999999881,,static/images/instructions_CB_2/Slide5.png,39.0,,,,,,,,,,,,,,,,,,,,,,,,,,,
8,0,,image-keyboard-response,8,48354,0.0-3.5-0.5,6p374z0qqb,2022-09-19 16:45:07.994,5ea96886ef7ece0604eee527,2,36,60,41,56,61,male,1671.0,,static/images/instructions_CB_2/Slide6.png,39.0,,,,,,,,,,,,,,,,,,,,,,,,,,,
9,0,,image-keyboard-response,9,51402,0.0-3.6-0.6,6p374z0qqb,2022-09-19 16:45:07.994,5ea96886ef7ece0604eee527,2,36,60,41,56,61,male,3046.5,,static/images/instructions_CB_2/Slide7.png,39.0,,,,,,,,,,,,,,,,,,,,,,,,,,,
10,0,,image-keyboard-response,10,59314,0.0-3.7-0.7,6p374z0qqb,2022-09-19 16:45:07.994,5ea96886ef7ece0604eee527,2,36,60,41,56,61,male,7911.2000000179,,static/images/instructions_CB_2/Slide8.png,39.0,,,,,,,,,,,,,,,,,,,,,,,,,,,
11,0,,image-keyboard-response,11,63034,0.0-3.8-0.8,6p374z0qqb,2022-09-19 16:45:07.994,5ea96886ef7ece0604eee527,2,36,60,41,56,61,male,3718.900000006,,static/images/instructions_CB_2/Slide9.png,39.0,,,,,,,,,,,,,,,,,,,,,,,,,,,
12,0,,image-keyboard-response,12,137234,0.0-3.9-0.9,6p374z0qqb,2022-09-19 16:45:07.994,5ea96886ef7ece0604eee527,2,36,60,41,56,61,male,74198.900000006,,static/images/instructions_CB_2/Slide10.png,39.0,,,,,,,,,,,,,,,,,,,,,,,,,,,
13,0,,image-keyboard-response,13,141081,0.0-3.10-0.10,6p374z0qqb,2022-09-19 16:45:07.994,5ea96886ef7ece0604eee527,2,36,60,41,56,61,male,3846.3000000119,,static/images/instructions_CB_2/Slide11.png,39.0,,,,,,,,,,,,,,,,,,,,,,,,,,,
14,0,,image-keyboard-response,14,152258,0.0-3.11-0.11,6p374z0qqb,2022-09-19 16:45:07.994,5ea96886ef7ece0604eee527,2,36,60,41,56,61,male,11175.099999994,,static/images/instructions_CB_2/Slide12.png,39.0,,,,,,,,,,,,,,,,,,,,,,,,,,,
15,0,,image-keyboard-response,15,165490,0.0-3.12-0.12,6p374z0qqb,2022-09-19 16:45:07.994,5ea96886ef7ece0604eee527,2,36,60,41,56,61,male,13230.8999999762,,static/images/instructions_CB_2/Slide13.png,39.0,,,,,,,,,,,,,,,,,,,,,,,,,,,
16,0,,image-keyboard-response,16,168729,0.0-3.13-0.13,6p374z0qqb,2022-09-19 16:45:07.994,5ea96886ef7ece0604eee527,2,36,60,41,56,61,male,3238.400000006,,static/images/instructions_CB_2/Slide14.png,37.0,,,,,,,,,,,,,,,,,,,,,,,,,,,
17,0,,image-keyboard-response,17,171713,0.0-3.14-0.14,6p374z0qqb,2022-09-19 16:45:07.994,5ea96886ef7ece0604eee527,2,36,60,41,56,61,male,2983.0,,static/images/instructions_CB_2/Slide13.png,39.0,,,,,,,,,,,,,,,,,,,,,,,,,,,
18,0,,image-keyboard-response,18,174097,0.0-3.15-0.15,6p374z0qqb,2022-09-19 16:45:07.994,5ea96886ef7ece0604eee527,2,36,60,41,56,61,male,2382.8000000119,,static/images/instructions_CB_2/Slide14.png,37.0,,,,,,,,,,,,,,,,,,,,,,,,,,,
19,0,,image-keyboard-response,19,176690,0.0-3.16-0.16,6p374z0qqb,2022-09-19 16:45:07.994,5ea96886ef7ece0604eee527,2,36,60,41,56,61,male,2591.400000006,,static/images/instructions_CB_2/Slide13.png,39.0,,,,,,,,,,,,,,,,,,,,,,,,,,,
20,0,,image-keyboard-response,20,180089,0.0-3.17-0.17,6p374z0qqb,2022-09-19 16:45:07.994,5ea96886ef7ece0604eee527,2,36,60,41,56,61,male,3398.599999994,,static/images/instructions_CB_2/Slide14.png,39.0,,,,,,,,,,,,,,,,,,,,,,,,,,,
21,0,,image-keyboard-response,21,187434,0.0-3.18-0.18,6p374z0qqb,2022-09-19 16:45:07.994,5ea96886ef7ece0604eee527,2,36,60,41,56,61,male,7343.400000006,,static/images/instructions_CB_2/Slide15.png,39.0,,,,,,,,,,,,,,,,,,,,,,,,,,,
22,0,,image-keyboard-response,22,193402,0.0-3.19-0.19,6p374z0qqb,2022-09-19 16:45:07.994,5ea96886ef7ece0604eee527,2,36,60,41,56,61,male,5966.6999999881,,static/images/instructions_CB_2/Slide16.png,39.0,,,,,,,,,,,,,,,,,,,,,,,,,,,
23,0,,image-keyboard-response,23,198026,0.0-3.20-0.20,6p374z0qqb,2022-09-19 16:45:07.994,5ea96886ef7ece0604eee527,2,36,60,41,56,61,male,4622.900000006,,static/images/instructions_CB_2/Slide17.png,39.0,,,,,,,,,,,,,,,,,,,,,,,,,,,
24,0,,image-keyboard-response,24,246841,0.0-3.21-0.21,6p374z0qqb,2022-09-19 16:45:07.994,5ea96886ef7ece0604eee527,2,36,60,41,56,61,male,48814.7999999821,,static/images/instructions_CB_2/Slide18.png,39.0,,,,,,,,,,,,,,,,,,,,,,,,,,,
25,0,,image-keyboard-response,25,253162,0.0-3.22-0.22,6p374z0qqb,2022-09-19 16:45:07.994,5ea96886ef7ece0604eee527,2,36,60,41,56,61,male,6319.3000000119,,static/images/instructions_CB_2/Slide19.png,39.0,,,,,,,,,,,,,,,,,,,,,,,,,,,
26,0,,html-keyboard-response,26,254681,0.0-4.0-0.0,6p374z0qqb,2022-09-19 16:45:07.994,5ea96886ef7ece0604eee527,2,36,60,41,56,61,male,,,"<img src=""static/images/cards/stack_of_black_stars.svg"" width=""175px"" height=""250px""></img>",,,,,,,,,,,,,,,,,,,,,,,,,,,,
27,0,,html-keyboard-response,27,257162,0.0-4.0-1.0,6p374z0qqb,2022-09-19 16:45:07.994,5ea96886ef7ece0604eee527,2,36,60,41,56,61,male,1975.2000000179,,"
  <table>
  <tr height=300>
    <td width=300 height=300><img src=""static/images/cards/back_of_black_stars.svg"" width=""175px"" height=""250px""></img></td>
    <td width=300 height=300><img src=""static/images/cards/back_of_black_stars.svg"" width=""175px"" height=""250px""></img></td>
  </tr>
  <tr height=200>
    <td width=300><img src=""static/images/keys/z.svg"" width=""35%"" height=""75%""></img></td>
    <td width=300><img src=""static/images/keys/m.svg"" width=""35%"" height=""75%""></img></td>
  </tr>
</table>
  ",90.0,1.0,,,,,,,,,,,,,,,,,,,,,,,,,,
28,0,,html-keyboard-response,28,258678,0.0-4.0-2.0,6p374z0qqb,2022-09-19 16:45:07.994,5ea96886ef7ece0604eee527,2,36,60,41,56,61,male,,,"
  <table>
  <tr height=300>
    <td width=300 height=300><img src=""static/images/cards/1_of_black_stars.svg"" width=""175px"" height=""250px""></img></td>
    <td width=300 height=300><img src=""static/images/cards/back_of_black_stars.svg"" width=""175px"" height=""250px""></img></td>
  </tr>
  <tr height=200>
    <td width=300><img src=""static/images/keys/z.svg"" width=""35%"" height=""75%""></img></td>
    <td width=300><img src=""static/images/keys/m.svg"" width=""35%"" height=""75%""></img></td>
  </tr>
</table>
  ",,,,,,,,,,,,,,,,,,,,,,,,,,,,
29,0,,html-keyboard-response,29,260183,0.0-4.0-3.0,6p374z0qqb,2022-09-19 16:45:07.994,5ea96886ef7ece0604eee527,2,36,60,41,56,61,male,,,"<p style=""font-size:50px"">You Lose!
No points this round.</p>",,,,,,,,,,,,,,,,,,,,,,,,,,,,
30,0,,html-keyboard-response,30,260704,0.0-4.0-4.0,6p374z0qqb,2022-09-19 16:45:07.994,5ea96886ef7ece0604eee527,2,36,60,41,56,61,male,,,,,,1.0,learning,0.0,A,,black,,stars,,,,A,black,stars,,1.0,1.0,NA,left,1975.2000000179,1.0,0.0,0.0,,,
31,0,,html-keyboard-response,31,262216,0.0-4.1-0.1,6p374z0qqb,2022-09-19 16:45:07.994,5ea96886ef7ece0604eee527,2,36,60,41,56,61,male,,,"<img src=""static/images/cards/stack_of_red_stars.svg"" width=""175px"" height=""250px""></img>",,,,,,,,,,,,,,,,,,,,,,,,,,,,
32,0,,html-keyboard-response,32,263833,0.0-4.1-1.1,6p374z0qqb,2022-09-19 16:45:07.994,5ea96886ef7ece0604eee527,2,36,60,41,56,61,male,1106.900000006,,"
  <table>
  <tr height=300>
    <td width=300 height=300><img src=""static/images/cards/back_of_red_stars.svg"" width=""175px"" height=""250px""></img></td>
    <td width=300 height=300><img src=""static/images/cards/back_of_red_stars.svg"" width=""175px"" height=""250px""></img></td>
  </tr>
  <tr height=200>
    <td width=300><img src=""static/images/keys/z.svg"" width=""35%"" height=""75%""></img></td>
    <td width=300></td>
  </tr>
</table>
  ",90.0,1.0,,,,,,,,,,,,,,,,,,,,,,,,,,
33,0,,html-keyboard-response,33,265345,0.0-4.1-2.1,6p374z0qqb,2022-09-19 16:45:07.994,5ea96886ef7ece0604eee527,2,36,60,41,56,61,male,,,"
  <table>
  <tr height=300>
    <td width=300 height=300><img src=""static/images/cards/8_of_red_stars.svg"" width=""175px"" height=""250px""></img></td>
    <td width=300 height=300><img src=""static/images/cards/back_of_red_stars.svg"" width=""175px"" height=""250px""></img></td>
  </tr>
  <tr height=200>
    <td width=300><img src=""static/images/keys/z.svg"" width=""35%"" height=""75%""></img></td>
    <td width=300></td>
  </tr>
</table>
  ",,,,,,,,,,,,,,,,,,,,,,,,,,,,
34,0,,html-keyboard-response,34,266866,0.0-4.1-3.1,6p374z0qqb,2022-09-19 16:45:07.994,5ea96886ef7ece0604eee527,2,36,60,41,56,61,male,,,"<p style=""font-size:50px"">You win!
+10 points this round!</p>",,,,,,,,,,,,,,,,,,,,,,,,,,,,
35,0,,html-keyboard-response,35,267387,0.0-4.1-4.1,6p374z0qqb,2022-09-19 16:45:07.994,5ea96886ef7ece0604eee527,2,36,60,41,56,61,male,,,,,,1.0,learning,1.0,B,,red,,stars,,,,B,red,stars,,0.0,1.0,1,left,1106.900000006,8.0,1.0,1.0,,,
36,0,,html-keyboard-response,36,268901,0.0-4.2-0.2,6p374z0qqb,2022-09-19 16:45:07.994,5ea96886ef7ece0604eee527,2,36,60,41,56,61,male,,,"<img src=""static/images/cards/stack_of_black_moons.svg"" width=""175px"" height=""250px""></img>",,,,,,,,,,,,,,,,,,,,,,,,,,,,
37,0,,html-keyboard-response,37,270722,0.0-4.2-1.2,6p374z0qqb,2022-09-19 16:45:07.994,5ea96886ef7ece0604eee527,2,36,60,41,56,61,male,1312.3000000119,,"
  <table>
  <tr height=300>
    <td width=300 height=300><img src=""static/images/cards/back_of_black_moons.svg"" width=""175px"" height=""250px""></img></td>
    <td width=300 height=300><img src=""static/images/cards/back_of_black_moons.svg"" width=""175px"" height=""250px""></img></td>
  </tr>
  <tr height=200>
    <td width=300><img src=""static/images/keys/z.svg"" width=""35%"" height=""75%""></img></td>
    <td width=300><img src=""static/images/keys/m.svg"" width=""35%"" height=""75%""></img></td>
  </tr>
</table>
  ",90.0,1.0,,,,,,,,,,,,,,,,,,,,,,,,,,
38,0,,html-keyboard-response,38,272229,0.0-4.2-2.2,6p374z0qqb,2022-09-19 16:45:07.994,5ea96886ef7ece0604eee527,2,36,60,41,56,61,male,,,"
  <table>
  <tr height=300>
    <td width=300 height=300><img src=""static/images/cards/2_of_black_moons.svg"" width=""175px"" height=""250px""></img></td>
    <td width=300 height=300><img src=""static/images/cards/back_of_black_moons.svg"" width=""175px"" height=""250px""></img></td>
  </tr>
  <tr height=200>
    <td width=300><img src=""static/images/keys/z.svg"" width=""35%"" height=""75%""></img></td>
    <td width=300><img src=""static/images/keys/m.svg"" width=""35%"" height=""75%""></img></td>
  </tr>
</table>
  ",,,,,,,,,,,,,,,,,,,,,,,,,,,,
39,0,,html-keyboard-response,39,273759,0.0-4.2-3.2,6p374z0qqb,2022-09-19 16:45:07.994,5ea96886ef7ece0604eee527,2,36,60,41,56,61,male,,,"<p style=""font-size:50px"">You Lose!
No points this round.</p>",,,,,,,,,,,,,,,,,,,,,,,,,,,,
40,0,,html-keyboard-response,40,274272,0.0-4.2-4.2,6p374z0qqb,2022-09-19 16:45:07.994,5ea96886ef7ece0604eee527,2,36,60,41,56,61,male,,,,,,1.0,learning,2.0,C,,black,,moons,,,,C,black,moons,,1.0,0.0,NA,left,1312.3000000119,2.0,0.0,0.0,,,
41,0,,html-keyboard-response,41,275783,0.0-4.3-0.3,6p374z0qqb,2022-09-19 16:45:07.994,5ea96886ef7ece0604eee527,2,36,60,41,56,61,male,,,"<img src=""static/images/cards/stack_of_red_moons.svg"" width=""175px"" height=""250px""></img>",,,,,,,,,,,,,,,,,,,,,,,,,,,,
42,0,,html-keyboard-response,42,277513,0.0-4.3-1.3,6p374z0qqb,2022-09-19 16:45:07.994,5ea96886ef7ece0604eee527,2,36,60,41,56,61,male,1217.099999994,,"
  <table>
  <tr height=300>
    <td width=300 height=300><img src=""static/images/cards/back_of_red_moons.svg"" width=""175px"" height=""250px""></img></td>
    <td width=300 height=300><img src=""static/images/cards/back_of_red_moons.svg"" width=""175px"" height=""250px""></img></td>
  </tr>
  <tr height=200>
    <td width=300></td>
    <td width=300><img src=""static/images/keys/m.svg"" width=""35%"" height=""75%""></img></td>
  </tr>
</table>
  ",77.0,1.0,,,,,,,,,,,,,,,,,,,,,,,,,,
43,0,,html-keyboard-response,43,279032,0.0-4.3-2.3,6p374z0qqb,2022-09-19 16:45:07.994,5ea96886ef7ece0604eee527,2,36,60,41,56,61,male,,,"
  <table>
  <tr height=300>
    <td width=300 height=300><img src=""static/images/cards/back_of_red_moons.svg"" width=""175px"" height=""250px""></img></td>
    <td width=300 height=300><img src=""static/images/cards/4_of_red_moons.svg"" width=""175px"" height=""250px""></img></td>
  </tr>
  <tr height=200>
    <td width=300></td>
    <td width=300><img src=""static/images/keys/m.svg"" width=""35%"" height=""75%""></img></td>
  </tr>
</table>
  ",,,,,,,,,,,,,,,,,,,,,,,,,,,,
44,0,,html-keyboard-response,44,280541,0.0-4.3-3.3,6p374z0qqb,2022-09-19 16:45:07.994,5ea96886ef7ece0604eee527,2,36,60,41,56,61,male,,,"<p style=""font-size:50px"">You win!
+10 points this round!</p>",,,,,,,,,,,,,,,,,,,,,,,,,,,,
45,0,,html-keyboard-response,45,281055,0.0-4.3-4.3,6p374z0qqb,2022-09-19 16:45:07.994,5ea96886ef7ece0604eee527,2,36,60,41,56,61,male,,,,,,1.0,learning,3.0,D,,red,,moons,,,,D,red,moons,,0.0,0.0,0,right,1217.099999994,4.0,0.0,1.0,,,
46,0,,html-keyboard-response,46,282562,0.0-4.4-0.4,6p374z0qqb,2022-09-19 16:45:07.994,5ea96886ef7ece0604eee527,2,36,60,41,56,61,male,,,"<img src=""static/images/cards/stack_of_red_bolts.svg"" width=""175px"" height=""250px""></img>",,,,,,,,,,,,,,,,,,,,,,,,,,,,
47,0,,html-keyboard-response,47,284450,0.0-4.4-1.4,6p374z0qqb,2022-09-19 16:45:07.994,5ea96886ef7ece0604eee527,2,36,60,41,56,61,male,1371.5,,"
  <table>
  <tr height=300>
    <td width=300 height=300><img src=""static/images/cards/back_of_red_bolts.svg"" width=""175px"" height=""250px""></img></td>
    <td width=300 height=300><img src=""static/images/cards/back_of_red_bolts.svg"" width=""175px"" height=""250px""></img></td>
  </tr>
  <tr height=200>
    <td width=300><img src=""static/images/keys/z.svg"" width=""35%"" height=""75%""></img></td>
    <td width=300><img src=""static/images/keys/m.svg"" width=""35%"" height=""75%""></img></td>
  </tr>
</table>
  ",77.0,1.0,,,,,,,,,,,,,,,,,,,,,,,,,,
48,0,,html-keyboard-response,48,285957,0.0-4.4-2.4,6p374z0qqb,2022-09-19 16:45:07.994,5ea96886ef7ece0604eee527,2,36,60,41,56,61,male,,,"
  <table>
  <tr height=300>
    <td width=300 height=300><img src=""static/images/cards/back_of_red_bolts.svg"" width=""175px"" height=""250px""></img></td>
    <td width=300 height=300><img src=""static/images/cards/1_of_red_bolts.svg"" width=""175px"" height=""250px""></img></td>
  </tr>
  <tr height=200>
    <td width=300><img src=""static/images/keys/z.svg"" width=""35%"" height=""75%""></img></td>
    <td width=300><img src=""static/images/keys/m.svg"" width=""35%"" height=""75%""></img></td>
  </tr>
</table>
  ",,,,,,,,,,,,,,,,,,,,,,,,,,,,
49,0,,html-keyboard-response,49,287476,0.0-4.4-3.4,6p374z0qqb,2022-09-19 16:45:07.994,5ea96886ef7ece0604eee527,2,36,60,41,56,61,male,,,"<p style=""font-size:50px"">You win!
+10 points this round!</p>",,,,,,,,,,,,,,,,,,,,,,,,,,,,
50,0,,html-keyboard-response,50,288004,0.0-4.4-4.4,6p374z0qqb,2022-09-19 16:45:07.994,5ea96886ef7ece0604eee527,2,36,60,41,56,61,male,,,,,,1.0,learning,4.0,Xc,,red,,bolts,,,,Xc,red,bolts,,1.0,0.0,NA,right,1371.5,1.0,0.0,1.0,,,
51,0,,html-keyboard-response,51,289514,0.0-4.5-0.5,6p374z0qqb,2022-09-19 16:45:07.994,5ea96886ef7ece0604eee527,2,36,60,41,56,61,male,,,"<img src=""static/images/cards/stack_of_black_bolts.svg"" width=""175px"" height=""250px""></img>",,,,,,,,,,,,,,,,,,,,,,,,,,,,
52,0,,html-keyboard-response,52,291305,0.0-4.5-1.5,6p374z0qqb,2022-09-19 16:45:07.994,5ea96886ef7ece0604eee527,2,36,60,41,56,61,male,1283.2999999821,,"
  <table>
  <tr height=300>
    <td width=300 height=300><img src=""static/images/cards/back_of_black_bolts.svg"" width=""175px"" height=""250px""></img></td>
    <td width=300 height=300><img src=""static/images/cards/back_of_black_bolts.svg"" width=""175px"" height=""250px""></img></td>
  </tr>
  <tr height=200>
    <td width=300></td>
    <td width=300><img src=""static/images/keys/m.svg"" width=""35%"" height=""75%""></img></td>
  </tr>
</table>
  ",77.0,1.0,,,,,,,,,,,,,,,,,,,,,,,,,,
53,0,,html-keyboard-response,53,292820,0.0-4.5-2.5,6p374z0qqb,2022-09-19 16:45:07.994,5ea96886ef7ece0604eee527,2,36,60,41,56,61,male,,,"
  <table>
  <tr height=300>
    <td width=300 height=300><img src=""static/images/cards/back_of_black_bolts.svg"" width=""175px"" height=""250px""></img></td>
    <td width=300 height=300><img src=""static/images/cards/1_of_black_bolts.svg"" width=""175px"" height=""250px""></img></td>
  </tr>
  <tr height=200>
    <td width=300></td>
    <td width=300><img src=""static/images/keys/m.svg"" width=""35%"" height=""75%""></img></td>
  </tr>
</table>
  ",,,,,,,,,,,,,,,,,,,,,,,,,,,,
54,0,,html-keyboard-response,54,294344,0.0-4.5-3.5,6p374z0qqb,2022-09-19 16:45:07.994,5ea96886ef7ece0604eee527,2,36,60,41,56,61,male,,,"<p style=""font-size:50px"">You win!
+10 points this round!</p>",,,,,,,,,,,,,,,,,,,,,,,,,,,,
55,0,,html-keyboard-response,55,294872,0.0-4.5-4.5,6p374z0qqb,2022-09-19 16:45:07.994,5ea96886ef7ece0604eee527,2,36,60,41,56,61,male,,,,,,1.0,learning,5.0,Xnc,,black,,bolts,,,,Xnc,black,bolts,,0.0,0.0,0,right,1283.2999999821,1.0,0.0,1.0,,,
56,0,,html-keyboard-response,56,296388,0.0-4.6-0.6,6p374z0qqb,2022-09-19 16:45:07.994,5ea96886ef7ece0604eee527,2,36,60,41,56,61,male,,,"<img src=""static/images/cards/stack_of_black_stars.svg"" width=""175px"" height=""250px""></img>",,,,,,,,,,,,,,,,,,,,,,,,,,,,
57,0,,html-keyboard-response,57,297874,0.0-4.6-1.6,6p374z0qqb,2022-09-19 16:45:07.994,5ea96886ef7ece0604eee527,2,36,60,41,56,61,male,966.900000006,,"
  <table>
  <tr height=300>
    <td width=300 height=300><img src=""static/images/cards/back_of_black_stars.svg"" width=""175px"" height=""250px""></img></td>
    <td width=300 height=300><img src=""static/images/cards/back_of_black_stars.svg"" width=""175px"" height=""250px""></img></td>
  </tr>
  <tr height=200>
    <td width=300><img src=""static/images/keys/z.svg"" width=""35%"" height=""75%""></img></td>
    <td width=300><img src=""static/images/keys/m.svg"" width=""35%"" height=""75%""></img></td>
  </tr>
</table>
  ",90.0,1.0,,,,,,,,,,,,,,,,,,,,,,,,,,
58,0,,html-keyboard-response,58,299393,0.0-4.6-2.6,6p374z0qqb,2022-09-19 16:45:07.994,5ea96886ef7ece0604eee527,2,36,60,41,56,61,male,,,"
  <table>
  <tr height=300>
    <td width=300 height=300><img src=""static/images/cards/10_of_black_stars.svg"" width=""175px"" height=""250px""></img></td>
    <td width=300 height=300><img src=""static/images/cards/back_of_black_stars.svg"" width=""175px"" height=""250px""></img></td>
  </tr>
  <tr height=200>
    <td width=300><img src=""static/images/keys/z.svg"" width=""35%"" height=""75%""></img></td>
    <td width=300><img src=""static/images/keys/m.svg"" width=""35%"" height=""75%""></img></td>
  </tr>
</table>
  ",,,,,,,,,,,,,,,,,,,,,,,,,,,,
59,0,,html-keyboard-response,59,300922,0.0-4.6-3.6,6p374z0qqb,2022-09-19 16:45:07.994,5ea96886ef7ece0604eee527,2,36,60,41,56,61,male,,,"<p style=""font-size:50px"">You win!
+10 points this round!</p>",,,,,,,,,,,,,,,,,,,,,,,,,,,,
60,0,,html-keyboard-response,60,301444,0.0-4.6-4.6,6p374z0qqb,2022-09-19 16:45:07.994,5ea96886ef7ece0604eee527,2,36,60,41,56,61,male,,,,,,1.0,learning,6.0,A,,black,,stars,,,,A,black,stars,,1.0,1.0,NA,left,966.900000006,10.0,1.0,1.0,,,
61,0,,html-keyboard-response,61,302956,0.0-4.7-0.7,6p374z0qqb,2022-09-19 16:45:07.994,5ea96886ef7ece0604eee527,2,36,60,41,56,61,male,,,"<img src=""static/images/cards/stack_of_red_stars.svg"" width=""175px"" height=""250px""></img>",,,,,,,,,,,,,,,,,,,,,,,,,,,,
62,0,,html-keyboard-response,62,304121,0.0-4.7-1.7,6p374z0qqb,2022-09-19 16:45:07.994,5ea96886ef7ece0604eee527,2,36,60,41,56,61,male,653.099999994,,"
  <table>
  <tr height=300>
    <td width=300 height=300><img src=""static/images/cards/back_of_red_stars.svg"" width=""175px"" height=""250px""></img></td>
    <td width=300 height=300><img src=""static/images/cards/back_of_red_stars.svg"" width=""175px"" height=""250px""></img></td>
  </tr>
  <tr height=200>
    <td width=300><img src=""static/images/keys/z.svg"" width=""35%"" height=""75%""></img></td>
    <td width=300></td>
  </tr>
</table>
  ",90.0,1.0,,,,,,,,,,,,,,,,,,,,,,,,,,
63,0,,html-keyboard-response,63,305627,0.0-4.7-2.7,6p374z0qqb,2022-09-19 16:45:07.994,5ea96886ef7ece0604eee527,2,36,60,41,56,61,male,,,"
  <table>
  <tr height=300>
    <td width=300 height=300><img src=""static/images/cards/9_of_red_stars.svg"" width=""175px"" height=""250px""></img></td>
    <td width=300 height=300><img src=""static/images/cards/back_of_red_stars.svg"" width=""175px"" height=""250px""></img></td>
  </tr>
  <tr height=200>
    <td width=300><img src=""static/images/keys/z.svg"" width=""35%"" height=""75%""></img></td>
    <td width=300></td>
  </tr>
</table>
  ",,,,,,,,,,,,,,,,,,,,,,,,,,,,
64,0,,html-keyboard-response,64,307148,0.0-4.7-3.7,6p374z0qqb,2022-09-19 16:45:07.994,5ea96886ef7ece0604eee527,2,36,60,41,56,61,male,,,"<p style=""font-size:50px"">You win!
+10 points this round!</p>",,,,,,,,,,,,,,,,,,,,,,,,,,,,
65,0,,html-keyboard-response,65,307672,0.0-4.7-4.7,6p374z0qqb,2022-09-19 16:45:07.994,5ea96886ef7ece0604eee527,2,36,60,41,56,61,male,,,,,,1.0,learning,7.0,B,,red,,stars,,,,B,red,stars,,0.0,1.0,1,left,653.099999994,9.0,1.0,1.0,,,
66,0,,html-keyboard-response,66,309180,0.0-4.8-0.8,6p374z0qqb,2022-09-19 16:45:07.994,5ea96886ef7ece0604eee527,2,36,60,41,56,61,male,,,"<img src=""static/images/cards/stack_of_black_moons.svg"" width=""175px"" height=""250px""></img>",,,,,,,,,,,,,,,,,,,,,,,,,,,,
67,0,,html-keyboard-response,67,310578,0.0-4.8-1.8,6p374z0qqb,2022-09-19 16:45:07.994,5ea96886ef7ece0604eee527,2,36,60,41,56,61,male,894.1000000238,,"
  <table>
  <tr height=300>
    <td width=300 height=300><img src=""static/images/cards/back_of_black_moons.svg"" width=""175px"" height=""250px""></img></td>
    <td width=300 height=300><img src=""static/images/cards/back_of_black_moons.svg"" width=""175px"" height=""250px""></img></td>
  </tr>
  <tr height=200>
    <td width=300><img src=""static/images/keys/z.svg"" width=""35%"" height=""75%""></img></td>
    <td width=300><img src=""static/images/keys/m.svg"" width=""35%"" height=""75%""></img></td>
  </tr>
</table>
  ",90.0,1.0,,,,,,,,,,,,,,,,,,,,,,,,,,
68,0,,html-keyboard-response,68,312088,0.0-4.8-2.8,6p374z0qqb,2022-09-19 16:45:07.994,5ea96886ef7ece0604eee527,2,36,60,41,56,61,male,,,"
  <table>
  <tr height=300>
    <td width=300 height=300><img src=""static/images/cards/3_of_black_moons.svg"" width=""175px"" height=""250px""></img></td>
    <td width=300 height=300><img src=""static/images/cards/back_of_black_moons.svg"" width=""175px"" height=""250px""></img></td>
  </tr>
  <tr height=200>
    <td width=300><img src=""static/images/keys/z.svg"" width=""35%"" height=""75%""></img></td>
    <td width=300><img src=""static/images/keys/m.svg"" width=""35%"" height=""75%""></img></td>
  </tr>
</table>
  ",,,,,,,,,,,,,,,,,,,,,,,,,,,,
69,0,,html-keyboard-response,69,313598,0.0-4.8-3.8,6p374z0qqb,2022-09-19 16:45:07.994,5ea96886ef7ece0604eee527,2,36,60,41,56,61,male,,,"<p style=""font-size:50px"">You Lose!
No points this round.</p>",,,,,,,,,,,,,,,,,,,,,,,,,,,,
70,0,,html-keyboard-response,70,314123,0.0-4.8-4.8,6p374z0qqb,2022-09-19 16:45:07.994,5ea96886ef7ece0604eee527,2,36,60,41,56,61,male,,,,,,1.0,learning,8.0,C,,black,,moons,,,,C,black,moons,,1.0,0.0,NA,left,894.1000000238,3.0,0.0,0.0,,,
71,0,,html-keyboard-response,71,315625,0.0-4.9-0.9,6p374z0qqb,2022-09-19 16:45:07.994,5ea96886ef7ece0604eee527,2,36,60,41,56,61,male,,,"<img src=""static/images/cards/stack_of_red_moons.svg"" width=""175px"" height=""250px""></img>",,,,,,,,,,,,,,,,,,,,,,,,,,,,
72,0,,html-keyboard-response,72,317578,0.0-4.9-1.9,6p374z0qqb,2022-09-19 16:45:07.994,5ea96886ef7ece0604eee527,2,36,60,41,56,61,male,1438.900000006,,"
  <table>
  <tr height=300>
    <td width=300 height=300><img src=""static/images/cards/back_of_red_moons.svg"" width=""175px"" height=""250px""></img></td>
    <td width=300 height=300><img src=""static/images/cards/back_of_red_moons.svg"" width=""175px"" height=""250px""></img></td>
  </tr>
  <tr height=200>
    <td width=300></td>
    <td width=300><img src=""static/images/keys/m.svg"" width=""35%"" height=""75%""></img></td>
  </tr>
</table>
  ",77.0,1.0,,,,,,,,,,,,,,,,,,,,,,,,,,
73,0,,html-keyboard-response,73,319087,0.0-4.9-2.9,6p374z0qqb,2022-09-19 16:45:07.994,5ea96886ef7ece0604eee527,2,36,60,41,56,61,male,,,"
  <table>
  <tr height=300>
    <td width=300 height=300><img src=""static/images/cards/back_of_red_moons.svg"" width=""175px"" height=""250px""></img></td>
    <td width=300 height=300><img src=""static/images/cards/7_of_red_moons.svg"" width=""175px"" height=""250px""></img></td>
  </tr>
  <tr height=200>
    <td width=300></td>
    <td width=300><img src=""static/images/keys/m.svg"" width=""35%"" height=""75%""></img></td>
  </tr>
</table>
  ",,,,,,,,,,,,,,,,,,,,,,,,,,,,
74,0,,html-keyboard-response,74,320611,0.0-4.9-3.9,6p374z0qqb,2022-09-19 16:45:07.994,5ea96886ef7ece0604eee527,2,36,60,41,56,61,male,,,"<p style=""font-size:50px"">You win!
+10 points this round!</p>",,,,,,,,,,,,,,,,,,,,,,,,,,,,
75,0,,html-keyboard-response,75,321134,0.0-4.9-4.9,6p374z0qqb,2022-09-19 16:45:07.994,5ea96886ef7ece0604eee527,2,36,60,41,56,61,male,,,,,,1.0,learning,9.0,D,,red,,moons,,,,D,red,moons,,0.0,0.0,0,right,1438.900000006,7.0,1.0,1.0,,,
76,0,,html-keyboard-response,76,322645,0.0-4.10-0.10,6p374z0qqb,2022-09-19 16:45:07.994,5ea96886ef7ece0604eee527,2,36,60,41,56,61,male,,,"<img src=""static/images/cards/stack_of_red_bolts.svg"" width=""175px"" height=""250px""></img>",,,,,,,,,,,,,,,,,,,,,,,,,,,,
77,0,,html-keyboard-response,77,323587,0.0-4.10-1.10,6p374z0qqb,2022-09-19 16:45:07.994,5ea96886ef7ece0604eee527,2,36,60,41,56,61,male,435.3000000119,,"
  <table>
  <tr height=300>
    <td width=300 height=300><img src=""static/images/cards/back_of_red_bolts.svg"" width=""175px"" height=""250px""></img></td>
    <td width=300 height=300><img src=""static/images/cards/back_of_red_bolts.svg"" width=""175px"" height=""250px""></img></td>
  </tr>
  <tr height=200>
    <td width=300><img src=""static/images/keys/z.svg"" width=""35%"" height=""75%""></img></td>
    <td width=300><img src=""static/images/keys/m.svg"" width=""35%"" height=""75%""></img></td>
  </tr>
</table>
  ",90.0,1.0,,,,,,,,,,,,,,,,,,,,,,,,,,
78,0,,html-keyboard-response,78,325102,0.0-4.10-2.10,6p374z0qqb,2022-09-19 16:45:07.994,5ea96886ef7ece0604eee527,2,36,60,41,56,61,male,,,"
  <table>
  <tr height=300>
    <td width=300 height=300><img src=""static/images/cards/7_of_red_bolts.svg"" width=""175px"" height=""250px""></img></td>
    <td width=300 height=300><img src=""static/images/cards/back_of_red_bolts.svg"" width=""175px"" height=""250px""></img></td>
  </tr>
  <tr height=200>
    <td width=300><img src=""static/images/keys/z.svg"" width=""35%"" height=""75%""></img></td>
    <td width=300><img src=""static/images/keys/m.svg"" width=""35%"" height=""75%""></img></td>
  </tr>
</table>
  ",,,,,,,,,,,,,,,,,,,,,,,,,,,,
79,0,,html-keyboard-response,79,326628,0.0-4.10-3.10,6p374z0qqb,2022-09-19 16:45:07.994,5ea96886ef7ece0604eee527,2,36,60,41,56,61,male,,,"<p style=""font-size:50px"">You win!
+10 points this round!</p>",,,,,,,,,,,,,,,,,,,,,,,,,,,,
80,0,,html-keyboard-response,80,327152,0.0-4.10-4.10,6p374z0qqb,2022-09-19 16:45:07.994,5ea96886ef7ece0604eee527,2,36,60,41,56,61,male,,,,,,1.0,learning,10.0,Xc,,red,,bolts,,,,Xc,red,bolts,,1.0,0.0,NA,left,435.3000000119,7.0,1.0,1.0,,,
81,0,,html-keyboard-response,81,328665,0.0-4.11-0.11,6p374z0qqb,2022-09-19 16:45:07.994,5ea96886ef7ece0604eee527,2,36,60,41,56,61,male,,,"<img src=""static/images/cards/stack_of_black_bolts.svg"" width=""175px"" height=""250px""></img>",,,,,,,,,,,,,,,,,,,,,,,,,,,,
82,0,,html-keyboard-response,82,330338,0.0-4.11-1.11,6p374z0qqb,2022-09-19 16:45:07.994,5ea96886ef7ece0604eee527,2,36,60,41,56,61,male,1168.2999999821,,"
  <table>
  <tr height=300>
    <td width=300 height=300><img src=""static/images/cards/back_of_black_bolts.svg"" width=""175px"" height=""250px""></img></td>
    <td width=300 height=300><img src=""static/images/cards/back_of_black_bolts.svg"" width=""175px"" height=""250px""></img></td>
  </tr>
  <tr height=200>
    <td width=300></td>
    <td width=300><img src=""static/images/keys/m.svg"" width=""35%"" height=""75%""></img></td>
  </tr>
</table>
  ",77.0,1.0,,,,,,,,,,,,,,,,,,,,,,,,,,
83,0,,html-keyboard-response,83,331843,0.0-4.11-2.11,6p374z0qqb,2022-09-19 16:45:07.994,5ea96886ef7ece0604eee527,2,36,60,41,56,61,male,,,"
  <table>
  <tr height=300>
    <td width=300 height=300><img src=""static/images/cards/back_of_black_bolts.svg"" width=""175px"" height=""250px""></img></td>
    <td width=300 height=300><img src=""static/images/cards/7_of_black_bolts.svg"" width=""175px"" height=""250px""></img></td>
  </tr>
  <tr height=200>
    <td width=300></td>
    <td width=300><img src=""static/images/keys/m.svg"" width=""35%"" height=""75%""></img></td>
  </tr>
</table>
  ",,,,,,,,,,,,,,,,,,,,,,,,,,,,
84,0,,html-keyboard-response,84,333353,0.0-4.11-3.11,6p374z0qqb,2022-09-19 16:45:07.994,5ea96886ef7ece0604eee527,2,36,60,41,56,61,male,,,"<p style=""font-size:50px"">You win!
+10 points this round!</p>",,,,,,,,,,,,,,,,,,,,,,,,,,,,
85,0,,html-keyboard-response,85,333874,0.0-4.11-4.11,6p374z0qqb,2022-09-19 16:45:07.994,5ea96886ef7ece0604eee527,2,36,60,41,56,61,male,,,,,,1.0,learning,11.0,Xnc,,black,,bolts,,,,Xnc,black,bolts,,0.0,0.0,0,right,1168.2999999821,7.0,1.0,1.0,,,
86,0,,html-keyboard-response,86,335383,0.0-4.12-0.12,6p374z0qqb,2022-09-19 16:45:07.994,5ea96886ef7ece0604eee527,2,36,60,41,56,61,male,,,"<img src=""static/images/cards/stack_of_black_stars.svg"" width=""175px"" height=""250px""></img>",,,,,,,,,,,,,,,,,,,,,,,,,,,,
87,0,,html-keyboard-response,87,336922,0.0-4.12-1.12,6p374z0qqb,2022-09-19 16:45:07.994,5ea96886ef7ece0604eee527,2,36,60,41,56,61,male,1017.5,,"
  <table>
  <tr height=300>
    <td width=300 height=300><img src=""static/images/cards/back_of_black_stars.svg"" width=""175px"" height=""250px""></img></td>
    <td width=300 height=300><img src=""static/images/cards/back_of_black_stars.svg"" width=""175px"" height=""250px""></img></td>
  </tr>
  <tr height=200>
    <td width=300><img src=""static/images/keys/z.svg"" width=""35%"" height=""75%""></img></td>
    <td width=300><img src=""static/images/keys/m.svg"" width=""35%"" height=""75%""></img></td>
  </tr>
</table>
  ",90.0,1.0,,,,,,,,,,,,,,,,,,,,,,,,,,
88,0,,html-keyboard-response,88,338428,0.0-4.12-2.12,6p374z0qqb,2022-09-19 16:45:07.994,5ea96886ef7ece0604eee527,2,36,60,41,56,61,male,,,"
  <table>
  <tr height=300>
    <td width=300 height=300><img src=""static/images/cards/4_of_black_stars.svg"" width=""175px"" height=""250px""></img></td>
    <td width=300 height=300><img src=""static/images/cards/back_of_black_stars.svg"" width=""175px"" height=""250px""></img></td>
  </tr>
  <tr height=200>
    <td width=300><img src=""static/images/keys/z.svg"" width=""35%"" height=""75%""></img></td>
    <td width=300><img src=""static/images/keys/m.svg"" width=""35%"" height=""75%""></img></td>
  </tr>
</table>
  ",,,,,,,,,,,,,,,,,,,,,,,,,,,,
89,0,,html-keyboard-response,89,339952,0.0-4.12-3.12,6p374z0qqb,2022-09-19 16:45:07.994,5ea96886ef7ece0604eee527,2,36,60,41,56,61,male,,,"<p style=""font-size:50px"">You Lose!
No points this round.</p>",,,,,,,,,,,,,,,,,,,,,,,,,,,,
90,0,,html-keyboard-response,90,340485,0.0-4.12-4.12,6p374z0qqb,2022-09-19 16:45:07.994,5ea96886ef7ece0604eee527,2,36,60,41,56,61,male,,,,,,1.0,learning,12.0,A,,black,,stars,,,,A,black,stars,,1.0,1.0,NA,left,1017.5,4.0,0.0,0.0,,,
91,0,,html-keyboard-response,91,341990,0.0-4.13-0.13,6p374z0qqb,2022-09-19 16:45:07.994,5ea96886ef7ece0604eee527,2,36,60,41,56,61,male,,,"<img src=""static/images/cards/stack_of_red_stars.svg"" width=""175px"" height=""250px""></img>",,,,,,,,,,,,,,,,,,,,,,,,,,,,
92,0,,html-keyboard-response,92,343842,0.0-4.13-1.13,6p374z0qqb,2022-09-19 16:45:07.994,5ea96886ef7ece0604eee527,2,36,60,41,56,61,male,1348.1999999881,,"
  <table>
  <tr height=300>
    <td width=300 height=300><img src=""static/images/cards/back_of_red_stars.svg"" width=""175px"" height=""250px""></img></td>
    <td width=300 height=300><img src=""static/images/cards/back_of_red_stars.svg"" width=""175px"" height=""250px""></img></td>
  </tr>
  <tr height=200>
    <td width=300></td>
    <td width=300><img src=""static/images/keys/m.svg"" width=""35%"" height=""75%""></img></td>
  </tr>
</table>
  ",77.0,1.0,,,,,,,,,,,,,,,,,,,,,,,,,,
93,0,,html-keyboard-response,93,345357,0.0-4.13-2.13,6p374z0qqb,2022-09-19 16:45:07.994,5ea96886ef7ece0604eee527,2,36,60,41,56,61,male,,,"
  <table>
  <tr height=300>
    <td width=300 height=300><img src=""static/images/cards/back_of_red_stars.svg"" width=""175px"" height=""250px""></img></td>
    <td width=300 height=300><img src=""static/images/cards/2_of_red_stars.svg"" width=""175px"" height=""250px""></img></td>
  </tr>
  <tr height=200>
    <td width=300></td>
    <td width=300><img src=""static/images/keys/m.svg"" width=""35%"" height=""75%""></img></td>
  </tr>
</table>
  ",,,,,,,,,,,,,,,,,,,,,,,,,,,,
94,0,,html-keyboard-response,94,346879,0.0-4.13-3.13,6p374z0qqb,2022-09-19 16:45:07.994,5ea96886ef7ece0604eee527,2,36,60,41,56,61,male,,,"<p style=""font-size:50px"">You Lose!
No points this round.</p>",,,,,,,,,,,,,,,,,,,,,,,,,,,,
95,0,,html-keyboard-response,95,347402,0.0-4.13-4.13,6p374z0qqb,2022-09-19 16:45:07.994,5ea96886ef7ece0604eee527,2,36,60,41,56,61,male,,,,,,1.0,learning,13.0,B,,red,,stars,,,,B,red,stars,,0.0,1.0,0,right,1348.1999999881,2.0,0.0,0.0,,,
96,0,,html-keyboard-response,96,348916,0.0-4.14-0.14,6p374z0qqb,2022-09-19 16:45:07.994,5ea96886ef7ece0604eee527,2,36,60,41,56,61,male,,,"<img src=""static/images/cards/stack_of_black_moons.svg"" width=""175px"" height=""250px""></img>",,,,,,,,,,,,,,,,,,,,,,,,,,,,
97,0,,html-keyboard-response,97,350114,0.0-4.14-1.14,6p374z0qqb,2022-09-19 16:45:07.994,5ea96886ef7ece0604eee527,2,36,60,41,56,61,male,683.1999999881,,"
  <table>
  <tr height=300>
    <td width=300 height=300><img src=""static/images/cards/back_of_black_moons.svg"" width=""175px"" height=""250px""></img></td>
    <td width=300 height=300><img src=""static/images/cards/back_of_black_moons.svg"" width=""175px"" height=""250px""></img></td>
  </tr>
  <tr height=200>
    <td width=300><img src=""static/images/keys/z.svg"" width=""35%"" height=""75%""></img></td>
    <td width=300><img src=""static/images/keys/m.svg"" width=""35%"" height=""75%""></img></td>
  </tr>
</table>
  ",90.0,1.0,,,,,,,,,,,,,,,,,,,,,,,,,,
98,0,,html-keyboard-response,98,351628,0.0-4.14-2.14,6p374z0qqb,2022-09-19 16:45:07.994,5ea96886ef7ece0604eee527,2,36,60,41,56,61,male,,,"
  <table>
  <tr height=300>
    <td width=300 height=300><img src=""static/images/cards/10_of_black_moons.svg"" width=""175px"" height=""250px""></img></td>
    <td width=300 height=300><img src=""static/images/cards/back_of_black_moons.svg"" width=""175px"" height=""250px""></img></td>
  </tr>
  <tr height=200>
    <td width=300><img src=""static/images/keys/z.svg"" width=""35%"" height=""75%""></img></td>
    <td width=300><img src=""static/images/keys/m.svg"" width=""35%"" height=""75%""></img></td>
  </tr>
</table>
  ",,,,,,,,,,,,,,,,,,,,,,,,,,,,
99,0,,html-keyboard-response,99,353150,0.0-4.14-3.14,6p374z0qqb,2022-09-19 16:45:07.994,5ea96886ef7ece0604eee527,2,36,60,41,56,61,male,,,"<p style=""font-size:50px"">You Lose!
No points this round.</p>",,,,,,,,,,,,,,,,,,,,,,,,,,,,
100,0,,html-keyboard-response,100,353674,0.0-4.14-4.14,6p374z0qqb,2022-09-19 16:45:07.994,5ea96886ef7ece0604eee527,2,36,60,41,56,61,male,,,,,,1.0,learning,14.0,C,,black,,moons,,,,C,black,moons,,1.0,0.0,NA,left,683.1999999881,10.0,1.0,0.0,,,
101,0,,html-keyboard-response,101,355185,0.0-4.15-0.15,6p374z0qqb,2022-09-19 16:45:07.994,5ea96886ef7ece0604eee527,2,36,60,41,56,61,male,,,"<img src=""static/images/cards/stack_of_red_moons.svg"" width=""175px"" height=""250px""></img>",,,,,,,,,,,,,,,,,,,,,,,,,,,,
102,0,,html-keyboard-response,102,356970,0.0-4.15-1.15,6p374z0qqb,2022-09-19 16:45:07.994,5ea96886ef7ece0604eee527,2,36,60,41,56,61,male,1272.6999999881,,"
  <table>
  <tr height=300>
    <td width=300 height=300><img src=""static/images/cards/back_of_red_moons.svg"" width=""175px"" height=""250px""></img></td>
    <td width=300 height=300><img src=""static/images/cards/back_of_red_moons.svg"" width=""175px"" height=""250px""></img></td>
  </tr>
  <tr height=200>
    <td width=300></td>
    <td width=300><img src=""static/images/keys/m.svg"" width=""35%"" height=""75%""></img></td>
  </tr>
</table>
  ",77.0,1.0,,,,,,,,,,,,,,,,,,,,,,,,,,
103,0,,html-keyboard-response,103,358478,0.0-4.15-2.15,6p374z0qqb,2022-09-19 16:45:07.994,5ea96886ef7ece0604eee527,2,36,60,41,56,61,male,,,"
  <table>
  <tr height=300>
    <td width=300 height=300><img src=""static/images/cards/back_of_red_moons.svg"" width=""175px"" height=""250px""></img></td>
    <td width=300 height=300><img src=""static/images/cards/1_of_red_moons.svg"" width=""175px"" height=""250px""></img></td>
  </tr>
  <tr height=200>
    <td width=300></td>
    <td width=300><img src=""static/images/keys/m.svg"" width=""35%"" height=""75%""></img></td>
  </tr>
</table>
  ",,,,,,,,,,,,,,,,,,,,,,,,,,,,
104,0,,html-keyboard-response,104,360003,0.0-4.15-3.15,6p374z0qqb,2022-09-19 16:45:07.994,5ea96886ef7ece0604eee527,2,36,60,41,56,61,male,,,"<p style=""font-size:50px"">You Lose!
No points this round.</p>",,,,,,,,,,,,,,,,,,,,,,,,,,,,
105,0,,html-keyboard-response,105,360519,0.0-4.15-4.15,6p374z0qqb,2022-09-19 16:45:07.994,5ea96886ef7ece0604eee527,2,36,60,41,56,61,male,,,,,,1.0,learning,15.0,D,,red,,moons,,,,D,red,moons,,0.0,0.0,0,right,1272.6999999881,1.0,0.0,0.0,,,
106,0,,html-keyboard-response,106,362024,0.0-4.16-0.16,6p374z0qqb,2022-09-19 16:45:07.994,5ea96886ef7ece0604eee527,2,36,60,41,56,61,male,,,"<img src=""static/images/cards/stack_of_red_bolts.svg"" width=""175px"" height=""250px""></img>",,,,,,,,,,,,,,,,,,,,,,,,,,,,
107,0,,html-keyboard-response,107,363307,0.0-4.16-1.16,6p374z0qqb,2022-09-19 16:45:07.994,5ea96886ef7ece0604eee527,2,36,60,41,56,61,male,768.3000000119,,"
  <table>
  <tr height=300>
    <td width=300 height=300><img src=""static/images/cards/back_of_red_bolts.svg"" width=""175px"" height=""250px""></img></td>
    <td width=300 height=300><img src=""static/images/cards/back_of_red_bolts.svg"" width=""175px"" height=""250px""></img></td>
  </tr>
  <tr height=200>
    <td width=300><img src=""static/images/keys/z.svg"" width=""35%"" height=""75%""></img></td>
    <td width=300><img src=""static/images/keys/m.svg"" width=""35%"" height=""75%""></img></td>
  </tr>
</table>
  ",90.0,1.0,,,,,,,,,,,,,,,,,,,,,,,,,,
108,0,,html-keyboard-response,108,364818,0.0-4.16-2.16,6p374z0qqb,2022-09-19 16:45:07.994,5ea96886ef7ece0604eee527,2,36,60,41,56,61,male,,,"
  <table>
  <tr height=300>
    <td width=300 height=300><img src=""static/images/cards/9_of_red_bolts.svg"" width=""175px"" height=""250px""></img></td>
    <td width=300 height=300><img src=""static/images/cards/back_of_red_bolts.svg"" width=""175px"" height=""250px""></img></td>
  </tr>
  <tr height=200>
    <td width=300><img src=""static/images/keys/z.svg"" width=""35%"" height=""75%""></img></td>
    <td width=300><img src=""static/images/keys/m.svg"" width=""35%"" height=""75%""></img></td>
  </tr>
</table>
  ",,,,,,,,,,,,,,,,,,,,,,,,,,,,
109,0,,html-keyboard-response,109,366328,0.0-4.16-3.16,6p374z0qqb,2022-09-19 16:45:07.994,5ea96886ef7ece0604eee527,2,36,60,41,56,61,male,,,"<p style=""font-size:50px"">You win!
+10 points this round!</p>",,,,,,,,,,,,,,,,,,,,,,,,,,,,
110,0,,html-keyboard-response,110,366843,0.0-4.16-4.16,6p374z0qqb,2022-09-19 16:45:07.994,5ea96886ef7ece0604eee527,2,36,60,41,56,61,male,,,,,,1.0,learning,16.0,Xc,,red,,bolts,,,,Xc,red,bolts,,1.0,0.0,NA,left,768.3000000119,9.0,1.0,1.0,,,
111,0,,html-keyboard-response,111,368350,0.0-4.17-0.17,6p374z0qqb,2022-09-19 16:45:07.994,5ea96886ef7ece0604eee527,2,36,60,41,56,61,male,,,"<img src=""static/images/cards/stack_of_black_bolts.svg"" width=""175px"" height=""250px""></img>",,,,,,,,,,,,,,,,,,,,,,,,,,,,
112,0,,html-keyboard-response,112,370082,0.0-4.17-1.17,6p374z0qqb,2022-09-19 16:45:07.994,5ea96886ef7ece0604eee527,2,36,60,41,56,61,male,1226.7999999821,,"
  <table>
  <tr height=300>
    <td width=300 height=300><img src=""static/images/cards/back_of_black_bolts.svg"" width=""175px"" height=""250px""></img></td>
    <td width=300 height=300><img src=""static/images/cards/back_of_black_bolts.svg"" width=""175px"" height=""250px""></img></td>
  </tr>
  <tr height=200>
    <td width=300></td>
    <td width=300><img src=""static/images/keys/m.svg"" width=""35%"" height=""75%""></img></td>
  </tr>
</table>
  ",77.0,1.0,,,,,,,,,,,,,,,,,,,,,,,,,,
113,0,,html-keyboard-response,113,371592,0.0-4.17-2.17,6p374z0qqb,2022-09-19 16:45:07.994,5ea96886ef7ece0604eee527,2,36,60,41,56,61,male,,,"
  <table>
  <tr height=300>
    <td width=300 height=300><img src=""static/images/cards/back_of_black_bolts.svg"" width=""175px"" height=""250px""></img></td>
    <td width=300 height=300><img src=""static/images/cards/2_of_black_bolts.svg"" width=""175px"" height=""250px""></img></td>
  </tr>
  <tr height=200>
    <td width=300></td>
    <td width=300><img src=""static/images/keys/m.svg"" width=""35%"" height=""75%""></img></td>
  </tr>
</table>
  ",,,,,,,,,,,,,,,,,,,,,,,,,,,,
114,0,,html-keyboard-response,114,373107,0.0-4.17-3.17,6p374z0qqb,2022-09-19 16:45:07.994,5ea96886ef7ece0604eee527,2,36,60,41,56,61,male,,,"<p style=""font-size:50px"">You win!
+10 points this round!</p>",,,,,,,,,,,,,,,,,,,,,,,,,,,,
115,0,,html-keyboard-response,115,373619,0.0-4.17-4.17,6p374z0qqb,2022-09-19 16:45:07.994,5ea96886ef7ece0604eee527,2,36,60,41,56,61,male,,,,,,1.0,learning,17.0,Xnc,,black,,bolts,,,,Xnc,black,bolts,,0.0,0.0,0,right,1226.7999999821,2.0,0.0,1.0,,,
116,0,,html-keyboard-response,116,375134,0.0-4.18-0.18,6p374z0qqb,2022-09-19 16:45:07.994,5ea96886ef7ece0604eee527,2,36,60,41,56,61,male,,,"<img src=""static/images/cards/stack_of_black_stars.svg"" width=""175px"" height=""250px""></img>",,,,,,,,,,,,,,,,,,,,,,,,,,,,
117,0,,html-keyboard-response,117,376362,0.0-4.18-1.18,6p374z0qqb,2022-09-19 16:45:07.994,5ea96886ef7ece0604eee527,2,36,60,41,56,61,male,724.599999994,,"
  <table>
  <tr height=300>
    <td width=300 height=300><img src=""static/images/cards/back_of_black_stars.svg"" width=""175px"" height=""250px""></img></td>
    <td width=300 height=300><img src=""static/images/cards/back_of_black_stars.svg"" width=""175px"" height=""250px""></img></td>
  </tr>
  <tr height=200>
    <td width=300><img src=""static/images/keys/z.svg"" width=""35%"" height=""75%""></img></td>
    <td width=300><img src=""static/images/keys/m.svg"" width=""35%"" height=""75%""></img></td>
  </tr>
</table>
  ",90.0,1.0,,,,,,,,,,,,,,,,,,,,,,,,,,
118,0,,html-keyboard-response,118,377878,0.0-4.18-2.18,6p374z0qqb,2022-09-19 16:45:07.994,5ea96886ef7ece0604eee527,2,36,60,41,56,61,male,,,"
  <table>
  <tr height=300>
    <td width=300 height=300><img src=""static/images/cards/9_of_black_stars.svg"" width=""175px"" height=""250px""></img></td>
    <td width=300 height=300><img src=""static/images/cards/back_of_black_stars.svg"" width=""175px"" height=""250px""></img></td>
  </tr>
  <tr height=200>
    <td width=300><img src=""static/images/keys/z.svg"" width=""35%"" height=""75%""></img></td>
    <td width=300><img src=""static/images/keys/m.svg"" width=""35%"" height=""75%""></img></td>
  </tr>
</table>
  ",,,,,,,,,,,,,,,,,,,,,,,,,,,,
119,0,,html-keyboard-response,119,379400,0.0-4.18-3.18,6p374z0qqb,2022-09-19 16:45:07.994,5ea96886ef7ece0604eee527,2,36,60,41,56,61,male,,,"<p style=""font-size:50px"">You win!
+10 points this round!</p>",,,,,,,,,,,,,,,,,,,,,,,,,,,,
120,0,,html-keyboard-response,120,379920,0.0-4.18-4.18,6p374z0qqb,2022-09-19 16:45:07.994,5ea96886ef7ece0604eee527,2,36,60,41,56,61,male,,,,,,1.0,learning,18.0,A,,black,,stars,,,,A,black,stars,,1.0,1.0,NA,left,724.599999994,9.0,1.0,1.0,,,
121,0,,html-keyboard-response,121,381421,0.0-4.19-0.19,6p374z0qqb,2022-09-19 16:45:07.994,5ea96886ef7ece0604eee527,2,36,60,41,56,61,male,,,"<img src=""static/images/cards/stack_of_red_stars.svg"" width=""175px"" height=""250px""></img>",,,,,,,,,,,,,,,,,,,,,,,,,,,,
122,0,,html-keyboard-response,122,382522,0.0-4.19-1.19,6p374z0qqb,2022-09-19 16:45:07.994,5ea96886ef7ece0604eee527,2,36,60,41,56,61,male,592.1999999881,,"
  <table>
  <tr height=300>
    <td width=300 height=300><img src=""static/images/cards/back_of_red_stars.svg"" width=""175px"" height=""250px""></img></td>
    <td width=300 height=300><img src=""static/images/cards/back_of_red_stars.svg"" width=""175px"" height=""250px""></img></td>
  </tr>
  <tr height=200>
    <td width=300><img src=""static/images/keys/z.svg"" width=""35%"" height=""75%""></img></td>
    <td width=300></td>
  </tr>
</table>
  ",90.0,1.0,,,,,,,,,,,,,,,,,,,,,,,,,,
123,0,,html-keyboard-response,123,384035,0.0-4.19-2.19,6p374z0qqb,2022-09-19 16:45:07.994,5ea96886ef7ece0604eee527,2,36,60,41,56,61,male,,,"
  <table>
  <tr height=300>
    <td width=300 height=300><img src=""static/images/cards/1_of_red_stars.svg"" width=""175px"" height=""250px""></img></td>
    <td width=300 height=300><img src=""static/images/cards/back_of_red_stars.svg"" width=""175px"" height=""250px""></img></td>
  </tr>
  <tr height=200>
    <td width=300><img src=""static/images/keys/z.svg"" width=""35%"" height=""75%""></img></td>
    <td width=300></td>
  </tr>
</table>
  ",,,,,,,,,,,,,,,,,,,,,,,,,,,,
124,0,,html-keyboard-response,124,385551,0.0-4.19-3.19,6p374z0qqb,2022-09-19 16:45:07.994,5ea96886ef7ece0604eee527,2,36,60,41,56,61,male,,,"<p style=""font-size:50px"">You Lose!
No points this round.</p>",,,,,,,,,,,,,,,,,,,,,,,,,,,,
125,0,,html-keyboard-response,125,386070,0.0-4.19-4.19,6p374z0qqb,2022-09-19 16:45:07.994,5ea96886ef7ece0604eee527,2,36,60,41,56,61,male,,,,,,1.0,learning,19.0,B,,red,,stars,,,,B,red,stars,,0.0,1.0,1,left,592.1999999881,1.0,0.0,0.0,,,
126,0,,html-keyboard-response,126,387579,0.0-4.20-0.20,6p374z0qqb,2022-09-19 16:45:07.994,5ea96886ef7ece0604eee527,2,36,60,41,56,61,male,,,"<img src=""static/images/cards/stack_of_black_moons.svg"" width=""175px"" height=""250px""></img>",,,,,,,,,,,,,,,,,,,,,,,,,,,,
127,0,,html-keyboard-response,127,388722,0.0-4.20-1.20,6p374z0qqb,2022-09-19 16:45:07.994,5ea96886ef7ece0604eee527,2,36,60,41,56,61,male,632.599999994,,"
  <table>
  <tr height=300>
    <td width=300 height=300><img src=""static/images/cards/back_of_black_moons.svg"" width=""175px"" height=""250px""></img></td>
    <td width=300 height=300><img src=""static/images/cards/back_of_black_moons.svg"" width=""175px"" height=""250px""></img></td>
  </tr>
  <tr height=200>
    <td width=300><img src=""static/images/keys/z.svg"" width=""35%"" height=""75%""></img></td>
    <td width=300><img src=""static/images/keys/m.svg"" width=""35%"" height=""75%""></img></td>
  </tr>
</table>
  ",90.0,1.0,,,,,,,,,,,,,,,,,,,,,,,,,,
128,0,,html-keyboard-response,128,390238,0.0-4.20-2.20,6p374z0qqb,2022-09-19 16:45:07.994,5ea96886ef7ece0604eee527,2,36,60,41,56,61,male,,,"
  <table>
  <tr height=300>
    <td width=300 height=300><img src=""static/images/cards/7_of_black_moons.svg"" width=""175px"" height=""250px""></img></td>
    <td width=300 height=300><img src=""static/images/cards/back_of_black_moons.svg"" width=""175px"" height=""250px""></img></td>
  </tr>
  <tr height=200>
    <td width=300><img src=""static/images/keys/z.svg"" width=""35%"" height=""75%""></img></td>
    <td width=300><img src=""static/images/keys/m.svg"" width=""35%"" height=""75%""></img></td>
  </tr>
</table>
  ",,,,,,,,,,,,,,,,,,,,,,,,,,,,
129,0,,html-keyboard-response,129,391748,0.0-4.20-3.20,6p374z0qqb,2022-09-19 16:45:07.994,5ea96886ef7ece0604eee527,2,36,60,41,56,61,male,,,"<p style=""font-size:50px"">You Lose!
No points this round.</p>",,,,,,,,,,,,,,,,,,,,,,,,,,,,
130,0,,html-keyboard-response,130,392261,0.0-4.20-4.20,6p374z0qqb,2022-09-19 16:45:07.994,5ea96886ef7ece0604eee527,2,36,60,41,56,61,male,,,,,,1.0,learning,20.0,C,,black,,moons,,,,C,black,moons,,1.0,0.0,NA,left,632.599999994,7.0,1.0,0.0,,,
131,0,,html-keyboard-response,131,393780,0.0-4.21-0.21,6p374z0qqb,2022-09-19 16:45:07.994,5ea96886ef7ece0604eee527,2,36,60,41,56,61,male,,,"<img src=""static/images/cards/stack_of_red_moons.svg"" width=""175px"" height=""250px""></img>",,,,,,,,,,,,,,,,,,,,,,,,,,,,
132,0,,html-keyboard-response,132,395602,0.0-4.21-1.21,6p374z0qqb,2022-09-19 16:45:07.994,5ea96886ef7ece0604eee527,2,36,60,41,56,61,male,1306.6999999881,,"
  <table>
  <tr height=300>
    <td width=300 height=300><img src=""static/images/cards/back_of_red_moons.svg"" width=""175px"" height=""250px""></img></td>
    <td width=300 height=300><img src=""static/images/cards/back_of_red_moons.svg"" width=""175px"" height=""250px""></img></td>
  </tr>
  <tr height=200>
    <td width=300></td>
    <td width=300><img src=""static/images/keys/m.svg"" width=""35%"" height=""75%""></img></td>
  </tr>
</table>
  ",77.0,1.0,,,,,,,,,,,,,,,,,,,,,,,,,,
133,0,,html-keyboard-response,133,397105,0.0-4.21-2.21,6p374z0qqb,2022-09-19 16:45:07.994,5ea96886ef7ece0604eee527,2,36,60,41,56,61,male,,,"
  <table>
  <tr height=300>
    <td width=300 height=300><img src=""static/images/cards/back_of_red_moons.svg"" width=""175px"" height=""250px""></img></td>
    <td width=300 height=300><img src=""static/images/cards/8_of_red_moons.svg"" width=""175px"" height=""250px""></img></td>
  </tr>
  <tr height=200>
    <td width=300></td>
    <td width=300><img src=""static/images/keys/m.svg"" width=""35%"" height=""75%""></img></td>
  </tr>
</table>
  ",,,,,,,,,,,,,,,,,,,,,,,,,,,,
134,0,,html-keyboard-response,134,398633,0.0-4.21-3.21,6p374z0qqb,2022-09-19 16:45:07.994,5ea96886ef7ece0604eee527,2,36,60,41,56,61,male,,,"<p style=""font-size:50px"">You Lose!
No points this round.</p>",,,,,,,,,,,,,,,,,,,,,,,,,,,,
135,0,,html-keyboard-response,135,399155,0.0-4.21-4.21,6p374z0qqb,2022-09-19 16:45:07.994,5ea96886ef7ece0604eee527,2,36,60,41,56,61,male,,,,,,1.0,learning,21.0,D,,red,,moons,,,,D,red,moons,,0.0,0.0,0,right,1306.6999999881,8.0,1.0,0.0,,,
136,0,,html-keyboard-response,136,400660,0.0-4.22-0.22,6p374z0qqb,2022-09-19 16:45:07.994,5ea96886ef7ece0604eee527,2,36,60,41,56,61,male,,,"<img src=""static/images/cards/stack_of_red_bolts.svg"" width=""175px"" height=""250px""></img>",,,,,,,,,,,,,,,,,,,,,,,,,,,,
137,0,,html-keyboard-response,137,401682,0.0-4.22-1.22,6p374z0qqb,2022-09-19 16:45:07.994,5ea96886ef7ece0604eee527,2,36,60,41,56,61,male,515.8000000119,,"
  <table>
  <tr height=300>
    <td width=300 height=300><img src=""static/images/cards/back_of_red_bolts.svg"" width=""175px"" height=""250px""></img></td>
    <td width=300 height=300><img src=""static/images/cards/back_of_red_bolts.svg"" width=""175px"" height=""250px""></img></td>
  </tr>
  <tr height=200>
    <td width=300><img src=""static/images/keys/z.svg"" width=""35%"" height=""75%""></img></td>
    <td width=300><img src=""static/images/keys/m.svg"" width=""35%"" height=""75%""></img></td>
  </tr>
</table>
  ",90.0,1.0,,,,,,,,,,,,,,,,,,,,,,,,,,
138,0,,html-keyboard-response,138,403199,0.0-4.22-2.22,6p374z0qqb,2022-09-19 16:45:07.994,5ea96886ef7ece0604eee527,2,36,60,41,56,61,male,,,"
  <table>
  <tr height=300>
    <td width=300 height=300><img src=""static/images/cards/3_of_red_bolts.svg"" width=""175px"" height=""250px""></img></td>
    <td width=300 height=300><img src=""static/images/cards/back_of_red_bolts.svg"" width=""175px"" height=""250px""></img></td>
  </tr>
  <tr height=200>
    <td width=300><img src=""static/images/keys/z.svg"" width=""35%"" height=""75%""></img></td>
    <td width=300><img src=""static/images/keys/m.svg"" width=""35%"" height=""75%""></img></td>
  </tr>
</table>
  ",,,,,,,,,,,,,,,,,,,,,,,,,,,,
139,0,,html-keyboard-response,139,404732,0.0-4.22-3.22,6p374z0qqb,2022-09-19 16:45:07.994,5ea96886ef7ece0604eee527,2,36,60,41,56,61,male,,,"<p style=""font-size:50px"">You win!
+10 points this round!</p>",,,,,,,,,,,,,,,,,,,,,,,,,,,,
140,0,,html-keyboard-response,140,405245,0.0-4.22-4.22,6p374z0qqb,2022-09-19 16:45:07.994,5ea96886ef7ece0604eee527,2,36,60,41,56,61,male,,,,,,1.0,learning,22.0,Xc,,red,,bolts,,,,Xc,red,bolts,,1.0,0.0,NA,left,515.8000000119,3.0,0.0,1.0,,,
141,0,,html-keyboard-response,141,406767,0.0-4.23-0.23,6p374z0qqb,2022-09-19 16:45:07.994,5ea96886ef7ece0604eee527,2,36,60,41,56,61,male,,,"<img src=""static/images/cards/stack_of_black_bolts.svg"" width=""175px"" height=""250px""></img>",,,,,,,,,,,,,,,,,,,,,,,,,,,,
142,0,,html-keyboard-response,142,408106,0.0-4.23-1.23,6p374z0qqb,2022-09-19 16:45:07.994,5ea96886ef7ece0604eee527,2,36,60,41,56,61,male,830.099999994,,"
  <table>
  <tr height=300>
    <td width=300 height=300><img src=""static/images/cards/back_of_black_bolts.svg"" width=""175px"" height=""250px""></img></td>
    <td width=300 height=300><img src=""static/images/cards/back_of_black_bolts.svg"" width=""175px"" height=""250px""></img></td>
  </tr>
  <tr height=200>
    <td width=300></td>
    <td width=300><img src=""static/images/keys/m.svg"" width=""35%"" height=""75%""></img></td>
  </tr>
</table>
  ",77.0,1.0,,,,,,,,,,,,,,,,,,,,,,,,,,
143,0,,html-keyboard-response,143,409613,0.0-4.23-2.23,6p374z0qqb,2022-09-19 16:45:07.994,5ea96886ef7ece0604eee527,2,36,60,41,56,61,male,,,"
  <table>
  <tr height=300>
    <td width=300 height=300><img src=""static/images/cards/back_of_black_bolts.svg"" width=""175px"" height=""250px""></img></td>
    <td width=300 height=300><img src=""static/images/cards/9_of_black_bolts.svg"" width=""175px"" height=""250px""></img></td>
  </tr>
  <tr height=200>
    <td width=300></td>
    <td width=300><img src=""static/images/keys/m.svg"" width=""35%"" height=""75%""></img></td>
  </tr>
</table>
  ",,,,,,,,,,,,,,,,,,,,,,,,,,,,
144,0,,html-keyboard-response,144,411128,0.0-4.23-3.23,6p374z0qqb,2022-09-19 16:45:07.994,5ea96886ef7ece0604eee527,2,36,60,41,56,61,male,,,"<p style=""font-size:50px"">You win!
+10 points this round!</p>",,,,,,,,,,,,,,,,,,,,,,,,,,,,
145,0,,html-keyboard-response,145,411645,0.0-4.23-4.23,6p374z0qqb,2022-09-19 16:45:07.994,5ea96886ef7ece0604eee527,2,36,60,41,56,61,male,,,,,,1.0,learning,23.0,Xnc,,black,,bolts,,,,Xnc,black,bolts,,0.0,0.0,0,right,830.099999994,9.0,1.0,1.0,,,
146,0,,call-function,146,411655,0.0-5.0,6p374z0qqb,2022-09-19 16:45:07.994,5ea96886ef7ece0604eee527,2,36,60,41,56,61,male,,,,,,,,,,,,,,,,,,,,,,,,,,,,,,,
147,0,,image-keyboard-response,147,416290,0.0-6.0-0.0,6p374z0qqb,2022-09-19 16:45:07.994,5ea96886ef7ece0604eee527,2,36,60,41,56,61,male,4633.7000000179,,static/images/instructions_CB_2/Slide20.png,39.0,,,,,,,,,,,,,,,,,,,,,,,,,,,
148,0,,image-keyboard-response,148,423649,0.0-6.1-0.1,6p374z0qqb,2022-09-19 16:45:07.994,5ea96886ef7ece0604eee527,2,36,60,41,56,61,male,7358.599999994,,static/images/instructions_CB_2/Slide21.png,39.0,,,,,,,,,,,,,,,,,,,,,,,,,,,
149,0,,image-keyboard-response,149,460051,0.0-6.2-0.2,6p374z0qqb,2022-09-19 16:45:07.994,5ea96886ef7ece0604eee527,2,36,60,41,56,61,male,36415.5,,static/images/instructions_CB_2/Slide22.png,37.0,,,,,,,,,,,,,,,,,,,,,,,,,,,
150,0,,image-keyboard-response,150,463979,0.0-6.3-0.3,6p374z0qqb,2022-09-19 16:45:07.994,5ea96886ef7ece0604eee527,2,36,60,41,56,61,male,3926.6000000238,,static/images/instructions_CB_2/Slide21.png,39.0,,,,,,,,,,,,,,,,,,,,,,,,,,,
151,0,,image-keyboard-response,151,482587,0.0-6.4-0.4,6p374z0qqb,2022-09-19 16:45:07.994,5ea96886ef7ece0604eee527,2,36,60,41,56,61,male,18606.7999999821,,static/images/instructions_CB_2/Slide22.png,39.0,,,,,,,,,,,,,,,,,,,,,,,,,,,
152,0,,image-keyboard-response,152,484011,0.0-6.5-0.5,6p374z0qqb,2022-09-19 16:45:07.994,5ea96886ef7ece0604eee527,2,36,60,41,56,61,male,1422.7999999821,,static/images/instructions_CB_2/Slide23.png,39.0,,,,,,,,,,,,,,,,,,,,,,,,,,,
153,0,,image-keyboard-response,153,486355,0.0-6.6-0.6,6p374z0qqb,2022-09-19 16:45:07.994,5ea96886ef7ece0604eee527,2,36,60,41,56,61,male,2342.0,,static/images/instructions_CB_2/Slide24.png,39.0,,,,,,,,,,,,,,,,,,,,,,,,,,,
154,0,,html-keyboard-response,154,488843,0.0-7.0-0.0,6p374z0qqb,2022-09-19 16:45:07.994,5ea96886ef7ece0604eee527,2,36,60,41,56,61,male,2486.1999999881,,"
  <table>
  <tr height=300>
    <td width=300 height=300><img src=""static/images/cards/stack_of_red_stars.svg"" width=""175px"" height=""250px""></img></td>
    <td width=300 height=300><img src=""static/images/cards/stack_of_black_moons.svg"" width=""175px"" height=""250px""></img></td>
  </tr>
  <tr height=200>
    <td width=300><img src=""static/images/keys/w.svg"" width=""35%"" height=""75%""></img></td>
    <td width=300><img src=""static/images/keys/o.svg"" width=""35%"" height=""75%""></img></td>
  </tr>
</table>
  ",87.0,1.0,,,,,,,,,,,,,,,,,,,,,,,,,,
155,0,,html-keyboard-response,155,491435,0.0-7.0-1.0,6p374z0qqb,2022-09-19 16:45:07.994,5ea96886ef7ece0604eee527,2,36,60,41,56,61,male,2087.099999994,,"
  <table>
  <tr height=300>
    <td width=300 height=300><img src=""static/images/cards/back_of_red_stars.svg"" width=""175px"" height=""250px""></img></td>
    <td width=300 height=300><img src=""static/images/cards/back_of_red_stars.svg"" width=""175px"" height=""250px""></img></td>
  </tr>
  <tr height=200>
    <td width=300><img src=""static/images/keys/z.svg"" width=""35%"" height=""75%""></img></td>
    <td width=300></td>
  </tr>
</table>
  ",90.0,1.0,,,,,,,,,,,,,,,,,,,,,,,,,,
156,0,,html-keyboard-response,156,492938,0.0-7.0-2.0,6p374z0qqb,2022-09-19 16:45:07.994,5ea96886ef7ece0604eee527,2,36,60,41,56,61,male,,,"
  <table>
  <tr height=300>
    <td width=300 height=300><img src=""static/images/cards/3_of_red_stars.svg"" width=""175px"" height=""250px""></img></td>
    <td width=300 height=300><img src=""static/images/cards/back_of_red_stars.svg"" width=""175px"" height=""250px""></img></td>
  </tr>
  <tr height=200>
    <td width=300><img src=""static/images/keys/z.svg"" width=""35%"" height=""75%""></img></td>
    <td width=300></td>
  </tr>
</table>
  ",,,,,,,,,,,,,,,,,,,,,,,,,,,,
157,0,,html-keyboard-response,157,494464,0.0-7.0-3.0,6p374z0qqb,2022-09-19 16:45:07.994,5ea96886ef7ece0604eee527,2,36,60,41,56,61,male,,,"<p style=""font-size:50px"">You Lose!
No points this round.</p>",,,,,,,,,,,,,,,,,,,,,,,,,,,,
158,0,,html-keyboard-response,158,494984,0.0-7.0-4.0,6p374z0qqb,2022-09-19 16:45:07.994,5ea96886ef7ece0604eee527,2,36,60,41,56,61,male,,,,,,1.0,choice,0.0,B,C,red,black,stars,moons,B,C,B,red,stars,2486.1999999881,0.0,1.0,1,left,2087.099999994,3.0,0.0,0.0,,,
159,0,,html-keyboard-response,159,497940,0.0-7.1-0.1,6p374z0qqb,2022-09-19 16:45:07.994,5ea96886ef7ece0604eee527,2,36,60,41,56,61,male,2954.900000006,,"
  <table>
  <tr height=300>
    <td width=300 height=300><img src=""static/images/cards/stack_of_red_moons.svg"" width=""175px"" height=""250px""></img></td>
    <td width=300 height=300><img src=""static/images/cards/stack_of_black_moons.svg"" width=""175px"" height=""250px""></img></td>
  </tr>
  <tr height=200>
    <td width=300><img src=""static/images/keys/w.svg"" width=""35%"" height=""75%""></img></td>
    <td width=300><img src=""static/images/keys/o.svg"" width=""35%"" height=""75%""></img></td>
  </tr>
</table>
  ",87.0,1.0,,,,,,,,,,,,,,,,,,,,,,,,,,
160,0,,html-keyboard-response,160,499075,0.0-7.1-1.1,6p374z0qqb,2022-09-19 16:45:07.994,5ea96886ef7ece0604eee527,2,36,60,41,56,61,male,616.599999994,,"
  <table>
  <tr height=300>
    <td width=300 height=300><img src=""static/images/cards/back_of_red_moons.svg"" width=""175px"" height=""250px""></img></td>
    <td width=300 height=300><img src=""static/images/cards/back_of_red_moons.svg"" width=""175px"" height=""250px""></img></td>
  </tr>
  <tr height=200>
    <td width=300><img src=""static/images/keys/z.svg"" width=""35%"" height=""75%""></img></td>
    <td width=300></td>
  </tr>
</table>
  ",90.0,1.0,,,,,,,,,,,,,,,,,,,,,,,,,,
161,0,,html-keyboard-response,161,500592,0.0-7.1-2.1,6p374z0qqb,2022-09-19 16:45:07.994,5ea96886ef7ece0604eee527,2,36,60,41,56,61,male,,,"
  <table>
  <tr height=300>
    <td width=300 height=300><img src=""static/images/cards/8_of_red_moons.svg"" width=""175px"" height=""250px""></img></td>
    <td width=300 height=300><img src=""static/images/cards/back_of_red_moons.svg"" width=""175px"" height=""250px""></img></td>
  </tr>
  <tr height=200>
    <td width=300><img src=""static/images/keys/z.svg"" width=""35%"" height=""75%""></img></td>
    <td width=300></td>
  </tr>
</table>
  ",,,,,,,,,,,,,,,,,,,,,,,,,,,,
162,0,,html-keyboard-response,162,502110,0.0-7.1-3.1,6p374z0qqb,2022-09-19 16:45:07.994,5ea96886ef7ece0604eee527,2,36,60,41,56,61,male,,,"<p style=""font-size:50px"">You Lose!
No points this round.</p>",,,,,,,,,,,,,,,,,,,,,,,,,,,,
163,0,,html-keyboard-response,163,502629,0.0-7.1-4.1,6p374z0qqb,2022-09-19 16:45:07.994,5ea96886ef7ece0604eee527,2,36,60,41,56,61,male,,,,,,1.0,choice,1.0,C,D,red,black,moons,moons,D,C,D,red,moons,2954.900000006,0.0,0.0,1,left,616.599999994,8.0,1.0,0.0,,,
164,0,,html-keyboard-response,164,503187,0.0-7.2-0.2,6p374z0qqb,2022-09-19 16:45:07.994,5ea96886ef7ece0604eee527,2,36,60,41,56,61,male,556.400000006,,"
  <table>
  <tr height=300>
    <td width=300 height=300><img src=""static/images/cards/stack_of_red_moons.svg"" width=""175px"" height=""250px""></img></td>
    <td width=300 height=300><img src=""static/images/cards/stack_of_red_stars.svg"" width=""175px"" height=""250px""></img></td>
  </tr>
  <tr height=200>
    <td width=300><img src=""static/images/keys/w.svg"" width=""35%"" height=""75%""></img></td>
    <td width=300><img src=""static/images/keys/o.svg"" width=""35%"" height=""75%""></img></td>
  </tr>
</table>
  ",87.0,1.0,,,,,,,,,,,,,,,,,,,,,,,,,,
165,0,,html-keyboard-response,165,504235,0.0-7.2-1.2,6p374z0qqb,2022-09-19 16:45:07.994,5ea96886ef7ece0604eee527,2,36,60,41,56,61,male,546.599999994,,"
  <table>
  <tr height=300>
    <td width=300 height=300><img src=""static/images/cards/back_of_red_moons.svg"" width=""175px"" height=""250px""></img></td>
    <td width=300 height=300><img src=""static/images/cards/back_of_red_moons.svg"" width=""175px"" height=""250px""></img></td>
  </tr>
  <tr height=200>
    <td width=300><img src=""static/images/keys/z.svg"" width=""35%"" height=""75%""></img></td>
    <td width=300></td>
  </tr>
</table>
  ",90.0,1.0,,,,,,,,,,,,,,,,,,,,,,,,,,
166,0,,html-keyboard-response,166,505743,0.0-7.2-2.2,6p374z0qqb,2022-09-19 16:45:07.994,5ea96886ef7ece0604eee527,2,36,60,41,56,61,male,,,"
  <table>
  <tr height=300>
    <td width=300 height=300><img src=""static/images/cards/1_of_red_moons.svg"" width=""175px"" height=""250px""></img></td>
    <td width=300 height=300><img src=""static/images/cards/back_of_red_moons.svg"" width=""175px"" height=""250px""></img></td>
  </tr>
  <tr height=200>
    <td width=300><img src=""static/images/keys/z.svg"" width=""35%"" height=""75%""></img></td>
    <td width=300></td>
  </tr>
</table>
  ",,,,,,,,,,,,,,,,,,,,,,,,,,,,
167,0,,html-keyboard-response,167,507251,0.0-7.2-3.2,6p374z0qqb,2022-09-19 16:45:07.994,5ea96886ef7ece0604eee527,2,36,60,41,56,61,male,,,"<p style=""font-size:50px"">You win!
+10 points this round!</p>",,,,,,,,,,,,,,,,,,,,,,,,,,,,
168,0,,html-keyboard-response,168,507771,0.0-7.2-4.2,6p374z0qqb,2022-09-19 16:45:07.994,5ea96886ef7ece0604eee527,2,36,60,41,56,61,male,,,,,,1.0,choice,2.0,B,D,red,red,moons,stars,D,B,D,red,moons,556.400000006,0.0,0.0,1,left,546.599999994,1.0,0.0,1.0,,,
169,0,,html-keyboard-response,169,510904,0.0-7.3-0.3,6p374z0qqb,2022-09-19 16:45:07.994,5ea96886ef7ece0604eee527,2,36,60,41,56,61,male,3118.400000006,,"
  <table>
  <tr height=300>
    <td width=300 height=300><img src=""static/images/cards/stack_of_black_moons.svg"" width=""175px"" height=""250px""></img></td>
    <td width=300 height=300><img src=""static/images/cards/stack_of_red_stars.svg"" width=""175px"" height=""250px""></img></td>
  </tr>
  <tr height=200>
    <td width=300><img src=""static/images/keys/w.svg"" width=""35%"" height=""75%""></img></td>
    <td width=300><img src=""static/images/keys/o.svg"" width=""35%"" height=""75%""></img></td>
  </tr>
</table>
  ",79.0,1.0,,,,,,,,,,,,,,,,,,,,,,,,,,
170,0,,html-keyboard-response,170,512752,0.0-7.3-1.3,6p374z0qqb,2022-09-19 16:45:07.994,5ea96886ef7ece0604eee527,2,36,60,41,56,61,male,1329.0,,"
  <table>
  <tr height=300>
    <td width=300 height=300><img src=""static/images/cards/back_of_red_stars.svg"" width=""175px"" height=""250px""></img></td>
    <td width=300 height=300><img src=""static/images/cards/back_of_red_stars.svg"" width=""175px"" height=""250px""></img></td>
  </tr>
  <tr height=200>
    <td width=300></td>
    <td width=300><img src=""static/images/keys/m.svg"" width=""35%"" height=""75%""></img></td>
  </tr>
</table>
  ",77.0,1.0,,,,,,,,,,,,,,,,,,,,,,,,,,
171,0,,html-keyboard-response,171,514266,0.0-7.3-2.3,6p374z0qqb,2022-09-19 16:45:07.994,5ea96886ef7ece0604eee527,2,36,60,41,56,61,male,,,"
  <table>
  <tr height=300>
    <td width=300 height=300><img src=""static/images/cards/back_of_red_stars.svg"" width=""175px"" height=""250px""></img></td>
    <td width=300 height=300><img src=""static/images/cards/9_of_red_stars.svg"" width=""175px"" height=""250px""></img></td>
  </tr>
  <tr height=200>
    <td width=300></td>
    <td width=300><img src=""static/images/keys/m.svg"" width=""35%"" height=""75%""></img></td>
  </tr>
</table>
  ",,,,,,,,,,,,,,,,,,,,,,,,,,,,
172,0,,html-keyboard-response,172,515788,0.0-7.3-3.3,6p374z0qqb,2022-09-19 16:45:07.994,5ea96886ef7ece0604eee527,2,36,60,41,56,61,male,,,"<p style=""font-size:50px"">You win!
+10 points this round!</p>",,,,,,,,,,,,,,,,,,,,,,,,,,,,
173,0,,html-keyboard-response,173,516310,0.0-7.3-4.3,6p374z0qqb,2022-09-19 16:45:07.994,5ea96886ef7ece0604eee527,2,36,60,41,56,61,male,,,,,,1.0,choice,3.0,B,C,black,red,moons,stars,C,B,B,red,stars,3118.400000006,0.0,1.0,0,right,1329.0,9.0,1.0,1.0,,,
174,0,,html-keyboard-response,174,519832,0.0-7.4-0.4,6p374z0qqb,2022-09-19 16:45:07.994,5ea96886ef7ece0604eee527,2,36,60,41,56,61,male,3521.0,,"
  <table>
  <tr height=300>
    <td width=300 height=300><img src=""static/images/cards/stack_of_black_stars.svg"" width=""175px"" height=""250px""></img></td>
    <td width=300 height=300><img src=""static/images/cards/stack_of_red_moons.svg"" width=""175px"" height=""250px""></img></td>
  </tr>
  <tr height=200>
    <td width=300><img src=""static/images/keys/w.svg"" width=""35%"" height=""75%""></img></td>
    <td width=300><img src=""static/images/keys/o.svg"" width=""35%"" height=""75%""></img></td>
  </tr>
</table>
  ",79.0,1.0,,,,,,,,,,,,,,,,,,,,,,,,,,
175,0,,html-keyboard-response,175,521864,0.0-7.4-1.4,6p374z0qqb,2022-09-19 16:45:07.994,5ea96886ef7ece0604eee527,2,36,60,41,56,61,male,1527.3999999762,,"
  <table>
  <tr height=300>
    <td width=300 height=300><img src=""static/images/cards/back_of_red_moons.svg"" width=""175px"" height=""250px""></img></td>
    <td width=300 height=300><img src=""static/images/cards/back_of_red_moons.svg"" width=""175px"" height=""250px""></img></td>
  </tr>
  <tr height=200>
    <td width=300><img src=""static/images/keys/z.svg"" width=""35%"" height=""75%""></img></td>
    <td width=300></td>
  </tr>
</table>
  ",90.0,1.0,,,,,,,,,,,,,,,,,,,,,,,,,,
176,0,,html-keyboard-response,176,523383,0.0-7.4-2.4,6p374z0qqb,2022-09-19 16:45:07.994,5ea96886ef7ece0604eee527,2,36,60,41,56,61,male,,,"
  <table>
  <tr height=300>
    <td width=300 height=300><img src=""static/images/cards/4_of_red_moons.svg"" width=""175px"" height=""250px""></img></td>
    <td width=300 height=300><img src=""static/images/cards/back_of_red_moons.svg"" width=""175px"" height=""250px""></img></td>
  </tr>
  <tr height=200>
    <td width=300><img src=""static/images/keys/z.svg"" width=""35%"" height=""75%""></img></td>
    <td width=300></td>
  </tr>
</table>
  ",,,,,,,,,,,,,,,,,,,,,,,,,,,,
177,0,,html-keyboard-response,177,524920,0.0-7.4-3.4,6p374z0qqb,2022-09-19 16:45:07.994,5ea96886ef7ece0604eee527,2,36,60,41,56,61,male,,,"<p style=""font-size:50px"">You Lose!
No points this round.</p>",,,,,,,,,,,,,,,,,,,,,,,,,,,,
178,0,,html-keyboard-response,178,525443,0.0-7.4-4.4,6p374z0qqb,2022-09-19 16:45:07.994,5ea96886ef7ece0604eee527,2,36,60,41,56,61,male,,,,,,1.0,choice,4.0,A,D,black,red,stars,moons,A,D,D,red,moons,3521.0,0.0,0.0,1,left,1527.3999999762,4.0,0.0,0.0,,,
179,0,,html-keyboard-response,179,526896,0.0-7.5-0.5,6p374z0qqb,2022-09-19 16:45:07.994,5ea96886ef7ece0604eee527,2,36,60,41,56,61,male,1451.5,,"
  <table>
  <tr height=300>
    <td width=300 height=300><img src=""static/images/cards/stack_of_red_moons.svg"" width=""175px"" height=""250px""></img></td>
    <td width=300 height=300><img src=""static/images/cards/stack_of_red_stars.svg"" width=""175px"" height=""250px""></img></td>
  </tr>
  <tr height=200>
    <td width=300><img src=""static/images/keys/w.svg"" width=""35%"" height=""75%""></img></td>
    <td width=300><img src=""static/images/keys/o.svg"" width=""35%"" height=""75%""></img></td>
  </tr>
</table>
  ",87.0,1.0,,,,,,,,,,,,,,,,,,,,,,,,,,
180,0,,html-keyboard-response,180,528608,0.0-7.5-1.5,6p374z0qqb,2022-09-19 16:45:07.994,5ea96886ef7ece0604eee527,2,36,60,41,56,61,male,1197.2999999821,,"
  <table>
  <tr height=300>
    <td width=300 height=300><img src=""static/images/cards/back_of_red_moons.svg"" width=""175px"" height=""250px""></img></td>
    <td width=300 height=300><img src=""static/images/cards/back_of_red_moons.svg"" width=""175px"" height=""250px""></img></td>
  </tr>
  <tr height=200>
    <td width=300></td>
    <td width=300><img src=""static/images/keys/m.svg"" width=""35%"" height=""75%""></img></td>
  </tr>
</table>
  ",77.0,1.0,,,,,,,,,,,,,,,,,,,,,,,,,,
181,0,,html-keyboard-response,181,530125,0.0-7.5-2.5,6p374z0qqb,2022-09-19 16:45:07.994,5ea96886ef7ece0604eee527,2,36,60,41,56,61,male,,,"
  <table>
  <tr height=300>
    <td width=300 height=300><img src=""static/images/cards/back_of_red_moons.svg"" width=""175px"" height=""250px""></img></td>
    <td width=300 height=300><img src=""static/images/cards/6_of_red_moons.svg"" width=""175px"" height=""250px""></img></td>
  </tr>
  <tr height=200>
    <td width=300></td>
    <td width=300><img src=""static/images/keys/m.svg"" width=""35%"" height=""75%""></img></td>
  </tr>
</table>
  ",,,,,,,,,,,,,,,,,,,,,,,,,,,,
182,0,,html-keyboard-response,182,531652,0.0-7.5-3.5,6p374z0qqb,2022-09-19 16:45:07.994,5ea96886ef7ece0604eee527,2,36,60,41,56,61,male,,,"<p style=""font-size:50px"">You Lose!
No points this round.</p>",,,,,,,,,,,,,,,,,,,,,,,,,,,,
183,0,,html-keyboard-response,183,532177,0.0-7.5-4.5,6p374z0qqb,2022-09-19 16:45:07.994,5ea96886ef7ece0604eee527,2,36,60,41,56,61,male,,,,,,1.0,choice,5.0,B,D,red,red,moons,stars,D,B,D,red,moons,1451.5,0.0,0.0,0,right,1197.2999999821,6.0,1.0,0.0,,,
184,0,,html-keyboard-response,184,533552,0.0-7.6-0.6,6p374z0qqb,2022-09-19 16:45:07.994,5ea96886ef7ece0604eee527,2,36,60,41,56,61,male,1373.599999994,,"
  <table>
  <tr height=300>
    <td width=300 height=300><img src=""static/images/cards/stack_of_black_moons.svg"" width=""175px"" height=""250px""></img></td>
    <td width=300 height=300><img src=""static/images/cards/stack_of_red_moons.svg"" width=""175px"" height=""250px""></img></td>
  </tr>
  <tr height=200>
    <td width=300><img src=""static/images/keys/w.svg"" width=""35%"" height=""75%""></img></td>
    <td width=300><img src=""static/images/keys/o.svg"" width=""35%"" height=""75%""></img></td>
  </tr>
</table>
  ",87.0,1.0,,,,,,,,,,,,,,,,,,,,,,,,,,
185,0,,html-keyboard-response,185,535176,0.0-7.6-1.6,6p374z0qqb,2022-09-19 16:45:07.994,5ea96886ef7ece0604eee527,2,36,60,41,56,61,male,1120.0,,"
  <table>
  <tr height=300>
    <td width=300 height=300><img src=""static/images/cards/back_of_black_moons.svg"" width=""175px"" height=""250px""></img></td>
    <td width=300 height=300><img src=""static/images/cards/back_of_black_moons.svg"" width=""175px"" height=""250px""></img></td>
  </tr>
  <tr height=200>
    <td width=300><img src=""static/images/keys/z.svg"" width=""35%"" height=""75%""></img></td>
    <td width=300><img src=""static/images/keys/m.svg"" width=""35%"" height=""75%""></img></td>
  </tr>
</table>
  ",77.0,1.0,,,,,,,,,,,,,,,,,,,,,,,,,,
186,0,,html-keyboard-response,186,536692,0.0-7.6-2.6,6p374z0qqb,2022-09-19 16:45:07.994,5ea96886ef7ece0604eee527,2,36,60,41,56,61,male,,,"
  <table>
  <tr height=300>
    <td width=300 height=300><img src=""static/images/cards/back_of_black_moons.svg"" width=""175px"" height=""250px""></img></td>
    <td width=300 height=300><img src=""static/images/cards/1_of_black_moons.svg"" width=""175px"" height=""250px""></img></td>
  </tr>
  <tr height=200>
    <td width=300><img src=""static/images/keys/z.svg"" width=""35%"" height=""75%""></img></td>
    <td width=300><img src=""static/images/keys/m.svg"" width=""35%"" height=""75%""></img></td>
  </tr>
</table>
  ",,,,,,,,,,,,,,,,,,,,,,,,,,,,
187,0,,html-keyboard-response,187,538207,0.0-7.6-3.6,6p374z0qqb,2022-09-19 16:45:07.994,5ea96886ef7ece0604eee527,2,36,60,41,56,61,male,,,"<p style=""font-size:50px"">You win!
+10 points this round!</p>",,,,,,,,,,,,,,,,,,,,,,,,,,,,
188,0,,html-keyboard-response,188,538732,0.0-7.6-4.6,6p374z0qqb,2022-09-19 16:45:07.994,5ea96886ef7ece0604eee527,2,36,60,41,56,61,male,,,,,,1.0,choice,6.0,C,D,black,red,moons,moons,C,D,C,black,moons,1373.599999994,1.0,0.0,NA,right,1120.0,1.0,0.0,1.0,,,
189,0,,html-keyboard-response,189,539904,0.0-7.7-0.7,6p374z0qqb,2022-09-19 16:45:07.994,5ea96886ef7ece0604eee527,2,36,60,41,56,61,male,1170.8000000119,,"
  <table>
  <tr height=300>
    <td width=300 height=300><img src=""static/images/cards/stack_of_red_moons.svg"" width=""175px"" height=""250px""></img></td>
    <td width=300 height=300><img src=""static/images/cards/stack_of_black_stars.svg"" width=""175px"" height=""250px""></img></td>
  </tr>
  <tr height=200>
    <td width=300><img src=""static/images/keys/w.svg"" width=""35%"" height=""75%""></img></td>
    <td width=300><img src=""static/images/keys/o.svg"" width=""35%"" height=""75%""></img></td>
  </tr>
</table>
  ",87.0,1.0,,,,,,,,,,,,,,,,,,,,,,,,,,
190,0,,html-keyboard-response,190,541720,0.0-7.7-1.7,6p374z0qqb,2022-09-19 16:45:07.994,5ea96886ef7ece0604eee527,2,36,60,41,56,61,male,1297.400000006,,"
  <table>
  <tr height=300>
    <td width=300 height=300><img src=""static/images/cards/back_of_red_moons.svg"" width=""175px"" height=""250px""></img></td>
    <td width=300 height=300><img src=""static/images/cards/back_of_red_moons.svg"" width=""175px"" height=""250px""></img></td>
  </tr>
  <tr height=200>
    <td width=300><img src=""static/images/keys/z.svg"" width=""35%"" height=""75%""></img></td>
    <td width=300></td>
  </tr>
</table>
  ",90.0,1.0,,,,,,,,,,,,,,,,,,,,,,,,,,
191,0,,html-keyboard-response,191,543236,0.0-7.7-2.7,6p374z0qqb,2022-09-19 16:45:07.994,5ea96886ef7ece0604eee527,2,36,60,41,56,61,male,,,"
  <table>
  <tr height=300>
    <td width=300 height=300><img src=""static/images/cards/7_of_red_moons.svg"" width=""175px"" height=""250px""></img></td>
    <td width=300 height=300><img src=""static/images/cards/back_of_red_moons.svg"" width=""175px"" height=""250px""></img></td>
  </tr>
  <tr height=200>
    <td width=300><img src=""static/images/keys/z.svg"" width=""35%"" height=""75%""></img></td>
    <td width=300></td>
  </tr>
</table>
  ",,,,,,,,,,,,,,,,,,,,,,,,,,,,
192,0,,html-keyboard-response,192,544753,0.0-7.7-3.7,6p374z0qqb,2022-09-19 16:45:07.994,5ea96886ef7ece0604eee527,2,36,60,41,56,61,male,,,"<p style=""font-size:50px"">You win!
+10 points this round!</p>",,,,,,,,,,,,,,,,,,,,,,,,,,,,
193,0,,html-keyboard-response,193,545283,0.0-7.7-4.7,6p374z0qqb,2022-09-19 16:45:07.994,5ea96886ef7ece0604eee527,2,36,60,41,56,61,male,,,,,,1.0,choice,7.0,A,D,red,black,moons,stars,D,A,D,red,moons,1170.8000000119,0.0,0.0,1,left,1297.400000006,7.0,1.0,1.0,,,
194,0,,html-keyboard-response,194,546440,0.0-7.8-0.8,6p374z0qqb,2022-09-19 16:45:07.994,5ea96886ef7ece0604eee527,2,36,60,41,56,61,male,1156.0,,"
  <table>
  <tr height=300>
    <td width=300 height=300><img src=""static/images/cards/stack_of_red_bolts.svg"" width=""175px"" height=""250px""></img></td>
    <td width=300 height=300><img src=""static/images/cards/stack_of_black_stars.svg"" width=""175px"" height=""250px""></img></td>
  </tr>
  <tr height=200>
    <td width=300><img src=""static/images/keys/w.svg"" width=""35%"" height=""75%""></img></td>
    <td width=300><img src=""static/images/keys/o.svg"" width=""35%"" height=""75%""></img></td>
  </tr>
</table>
  ",87.0,1.0,,,,,,,,,,,,,,,,,,,,,,,,,,
195,0,,html-keyboard-response,195,547616,0.0-7.8-1.8,6p374z0qqb,2022-09-19 16:45:07.994,5ea96886ef7ece0604eee527,2,36,60,41,56,61,male,664.599999994,,"
  <table>
  <tr height=300>
    <td width=300 height=300><img src=""static/images/cards/back_of_red_bolts.svg"" width=""175px"" height=""250px""></img></td>
    <td width=300 height=300><img src=""static/images/cards/back_of_red_bolts.svg"" width=""175px"" height=""250px""></img></td>
  </tr>
  <tr height=200>
    <td width=300><img src=""static/images/keys/z.svg"" width=""35%"" height=""75%""></img></td>
    <td width=300><img src=""static/images/keys/m.svg"" width=""35%"" height=""75%""></img></td>
  </tr>
</table>
  ",90.0,1.0,,,,,,,,,,,,,,,,,,,,,,,,,,
196,0,,html-keyboard-response,196,549123,0.0-7.8-2.8,6p374z0qqb,2022-09-19 16:45:07.994,5ea96886ef7ece0604eee527,2,36,60,41,56,61,male,,,"
  <table>
  <tr height=300>
    <td width=300 height=300><img src=""static/images/cards/3_of_red_bolts.svg"" width=""175px"" height=""250px""></img></td>
    <td width=300 height=300><img src=""static/images/cards/back_of_red_bolts.svg"" width=""175px"" height=""250px""></img></td>
  </tr>
  <tr height=200>
    <td width=300><img src=""static/images/keys/z.svg"" width=""35%"" height=""75%""></img></td>
    <td width=300><img src=""static/images/keys/m.svg"" width=""35%"" height=""75%""></img></td>
  </tr>
</table>
  ",,,,,,,,,,,,,,,,,,,,,,,,,,,,
197,0,,html-keyboard-response,197,550634,0.0-7.8-3.8,6p374z0qqb,2022-09-19 16:45:07.994,5ea96886ef7ece0604eee527,2,36,60,41,56,61,male,,,"<p style=""font-size:50px"">You win!
+10 points this round!</p>",,,,,,,,,,,,,,,,,,,,,,,,,,,,
198,0,,html-keyboard-response,198,551152,0.0-7.8-4.8,6p374z0qqb,2022-09-19 16:45:07.994,5ea96886ef7ece0604eee527,2,36,60,41,56,61,male,,,,,,1.0,choice,8.0,A,Xc,red,black,bolts,stars,Xc,A,Xc,red,bolts,1156.0,1.0,0.0,NA,left,664.599999994,3.0,0.0,1.0,,,
199,0,,html-keyboard-response,199,551872,0.0-7.9-0.9,6p374z0qqb,2022-09-19 16:45:07.994,5ea96886ef7ece0604eee527,2,36,60,41,56,61,male,719.099999994,,"
  <table>
  <tr height=300>
    <td width=300 height=300><img src=""static/images/cards/stack_of_red_stars.svg"" width=""175px"" height=""250px""></img></td>
    <td width=300 height=300><img src=""static/images/cards/stack_of_black_moons.svg"" width=""175px"" height=""250px""></img></td>
  </tr>
  <tr height=200>
    <td width=300><img src=""static/images/keys/w.svg"" width=""35%"" height=""75%""></img></td>
    <td width=300><img src=""static/images/keys/o.svg"" width=""35%"" height=""75%""></img></td>
  </tr>
</table>
  ",87.0,1.0,,,,,,,,,,,,,,,,,,,,,,,,,,
200,0,,html-keyboard-response,200,553000,0.0-7.9-1.9,6p374z0qqb,2022-09-19 16:45:07.994,5ea96886ef7ece0604eee527,2,36,60,41,56,61,male,624.3999999762,,"
  <table>
  <tr height=300>
    <td width=300 height=300><img src=""static/images/cards/back_of_red_stars.svg"" width=""175px"" height=""250px""></img></td>
    <td width=300 height=300><img src=""static/images/cards/back_of_red_stars.svg"" width=""175px"" height=""250px""></img></td>
  </tr>
  <tr height=200>
    <td width=300><img src=""static/images/keys/z.svg"" width=""35%"" height=""75%""></img></td>
    <td width=300></td>
  </tr>
</table>
  ",90.0,1.0,,,,,,,,,,,,,,,,,,,,,,,,,,
201,0,,html-keyboard-response,201,554502,0.0-7.9-2.9,6p374z0qqb,2022-09-19 16:45:07.994,5ea96886ef7ece0604eee527,2,36,60,41,56,61,male,,,"
  <table>
  <tr height=300>
    <td width=300 height=300><img src=""static/images/cards/4_of_red_stars.svg"" width=""175px"" height=""250px""></img></td>
    <td width=300 height=300><img src=""static/images/cards/back_of_red_stars.svg"" width=""175px"" height=""250px""></img></td>
  </tr>
  <tr height=200>
    <td width=300><img src=""static/images/keys/z.svg"" width=""35%"" height=""75%""></img></td>
    <td width=300></td>
  </tr>
</table>
  ",,,,,,,,,,,,,,,,,,,,,,,,,,,,
202,0,,html-keyboard-response,202,556022,0.0-7.9-3.9,6p374z0qqb,2022-09-19 16:45:07.994,5ea96886ef7ece0604eee527,2,36,60,41,56,61,male,,,"<p style=""font-size:50px"">You Lose!
No points this round.</p>",,,,,,,,,,,,,,,,,,,,,,,,,,,,
203,0,,html-keyboard-response,203,556550,0.0-7.9-4.9,6p374z0qqb,2022-09-19 16:45:07.994,5ea96886ef7ece0604eee527,2,36,60,41,56,61,male,,,,,,1.0,choice,9.0,B,C,red,black,stars,moons,B,C,B,red,stars,719.099999994,0.0,1.0,1,left,624.3999999762,4.0,0.0,0.0,,,
204,0,,html-keyboard-response,204,557168,0.0-7.10-0.10,6p374z0qqb,2022-09-19 16:45:07.994,5ea96886ef7ece0604eee527,2,36,60,41,56,61,male,616.8999999762,,"
  <table>
  <tr height=300>
    <td width=300 height=300><img src=""static/images/cards/stack_of_red_stars.svg"" width=""175px"" height=""250px""></img></td>
    <td width=300 height=300><img src=""static/images/cards/stack_of_black_stars.svg"" width=""175px"" height=""250px""></img></td>
  </tr>
  <tr height=200>
    <td width=300><img src=""static/images/keys/w.svg"" width=""35%"" height=""75%""></img></td>
    <td width=300><img src=""static/images/keys/o.svg"" width=""35%"" height=""75%""></img></td>
  </tr>
</table>
  ",87.0,1.0,,,,,,,,,,,,,,,,,,,,,,,,,,
205,0,,html-keyboard-response,205,558304,0.0-7.10-1.10,6p374z0qqb,2022-09-19 16:45:07.994,5ea96886ef7ece0604eee527,2,36,60,41,56,61,male,619.3999999762,,"
  <table>
  <tr height=300>
    <td width=300 height=300><img src=""static/images/cards/back_of_red_stars.svg"" width=""175px"" height=""250px""></img></td>
    <td width=300 height=300><img src=""static/images/cards/back_of_red_stars.svg"" width=""175px"" height=""250px""></img></td>
  </tr>
  <tr height=200>
    <td width=300><img src=""static/images/keys/z.svg"" width=""35%"" height=""75%""></img></td>
    <td width=300></td>
  </tr>
</table>
  ",90.0,1.0,,,,,,,,,,,,,,,,,,,,,,,,,,
206,0,,html-keyboard-response,206,559816,0.0-7.10-2.10,6p374z0qqb,2022-09-19 16:45:07.994,5ea96886ef7ece0604eee527,2,36,60,41,56,61,male,,,"
  <table>
  <tr height=300>
    <td width=300 height=300><img src=""static/images/cards/7_of_red_stars.svg"" width=""175px"" height=""250px""></img></td>
    <td width=300 height=300><img src=""static/images/cards/back_of_red_stars.svg"" width=""175px"" height=""250px""></img></td>
  </tr>
  <tr height=200>
    <td width=300><img src=""static/images/keys/z.svg"" width=""35%"" height=""75%""></img></td>
    <td width=300></td>
  </tr>
</table>
  ",,,,,,,,,,,,,,,,,,,,,,,,,,,,
207,0,,html-keyboard-response,207,561338,0.0-7.10-3.10,6p374z0qqb,2022-09-19 16:45:07.994,5ea96886ef7ece0604eee527,2,36,60,41,56,61,male,,,"<p style=""font-size:50px"">You win!
+10 points this round!</p>",,,,,,,,,,,,,,,,,,,,,,,,,,,,
208,0,,html-keyboard-response,208,561862,0.0-7.10-4.10,6p374z0qqb,2022-09-19 16:45:07.994,5ea96886ef7ece0604eee527,2,36,60,41,56,61,male,,,,,,1.0,choice,10.0,A,B,red,black,stars,stars,B,A,B,red,stars,616.8999999762,0.0,1.0,1,left,619.3999999762,7.0,1.0,1.0,,,
209,0,,html-keyboard-response,209,562360,0.0-7.11-0.11,6p374z0qqb,2022-09-19 16:45:07.994,5ea96886ef7ece0604eee527,2,36,60,41,56,61,male,496.5,,"
  <table>
  <tr height=300>
    <td width=300 height=300><img src=""static/images/cards/stack_of_black_moons.svg"" width=""175px"" height=""250px""></img></td>
    <td width=300 height=300><img src=""static/images/cards/stack_of_red_stars.svg"" width=""175px"" height=""250px""></img></td>
  </tr>
  <tr height=200>
    <td width=300><img src=""static/images/keys/w.svg"" width=""35%"" height=""75%""></img></td>
    <td width=300><img src=""static/images/keys/o.svg"" width=""35%"" height=""75%""></img></td>
  </tr>
</table>
  ",87.0,1.0,,,,,,,,,,,,,,,,,,,,,,,,,,
210,0,,html-keyboard-response,210,563512,0.0-7.11-1.11,6p374z0qqb,2022-09-19 16:45:07.994,5ea96886ef7ece0604eee527,2,36,60,41,56,61,male,643.0,,"
  <table>
  <tr height=300>
    <td width=300 height=300><img src=""static/images/cards/back_of_black_moons.svg"" width=""175px"" height=""250px""></img></td>
    <td width=300 height=300><img src=""static/images/cards/back_of_black_moons.svg"" width=""175px"" height=""250px""></img></td>
  </tr>
  <tr height=200>
    <td width=300><img src=""static/images/keys/z.svg"" width=""35%"" height=""75%""></img></td>
    <td width=300><img src=""static/images/keys/m.svg"" width=""35%"" height=""75%""></img></td>
  </tr>
</table>
  ",90.0,1.0,,,,,,,,,,,,,,,,,,,,,,,,,,
211,0,,html-keyboard-response,211,565027,0.0-7.11-2.11,6p374z0qqb,2022-09-19 16:45:07.994,5ea96886ef7ece0604eee527,2,36,60,41,56,61,male,,,"
  <table>
  <tr height=300>
    <td width=300 height=300><img src=""static/images/cards/2_of_black_moons.svg"" width=""175px"" height=""250px""></img></td>
    <td width=300 height=300><img src=""static/images/cards/back_of_black_moons.svg"" width=""175px"" height=""250px""></img></td>
  </tr>
  <tr height=200>
    <td width=300><img src=""static/images/keys/z.svg"" width=""35%"" height=""75%""></img></td>
    <td width=300><img src=""static/images/keys/m.svg"" width=""35%"" height=""75%""></img></td>
  </tr>
</table>
  ",,,,,,,,,,,,,,,,,,,,,,,,,,,,
212,0,,html-keyboard-response,212,566543,0.0-7.11-3.11,6p374z0qqb,2022-09-19 16:45:07.994,5ea96886ef7ece0604eee527,2,36,60,41,56,61,male,,,"<p style=""font-size:50px"">You win!
+10 points this round!</p>",,,,,,,,,,,,,,,,,,,,,,,,,,,,
213,0,,html-keyboard-response,213,567069,0.0-7.11-4.11,6p374z0qqb,2022-09-19 16:45:07.994,5ea96886ef7ece0604eee527,2,36,60,41,56,61,male,,,,,,1.0,choice,11.0,B,C,black,red,moons,stars,C,B,C,black,moons,496.5,1.0,0.0,NA,left,643.0,2.0,0.0,1.0,,,
214,0,,html-keyboard-response,214,567593,0.0-7.12-0.12,6p374z0qqb,2022-09-19 16:45:07.994,5ea96886ef7ece0604eee527,2,36,60,41,56,61,male,521.400000006,,"
  <table>
  <tr height=300>
    <td width=300 height=300><img src=""static/images/cards/stack_of_black_moons.svg"" width=""175px"" height=""250px""></img></td>
    <td width=300 height=300><img src=""static/images/cards/stack_of_red_moons.svg"" width=""175px"" height=""250px""></img></td>
  </tr>
  <tr height=200>
    <td width=300><img src=""static/images/keys/w.svg"" width=""35%"" height=""75%""></img></td>
    <td width=300><img src=""static/images/keys/o.svg"" width=""35%"" height=""75%""></img></td>
  </tr>
</table>
  ",87.0,1.0,,,,,,,,,,,,,,,,,,,,,,,,,,
215,0,,html-keyboard-response,215,568649,0.0-7.12-1.12,6p374z0qqb,2022-09-19 16:45:07.994,5ea96886ef7ece0604eee527,2,36,60,41,56,61,male,542.1999999881,,"
  <table>
  <tr height=300>
    <td width=300 height=300><img src=""static/images/cards/back_of_black_moons.svg"" width=""175px"" height=""250px""></img></td>
    <td width=300 height=300><img src=""static/images/cards/back_of_black_moons.svg"" width=""175px"" height=""250px""></img></td>
  </tr>
  <tr height=200>
    <td width=300><img src=""static/images/keys/z.svg"" width=""35%"" height=""75%""></img></td>
    <td width=300><img src=""static/images/keys/m.svg"" width=""35%"" height=""75%""></img></td>
  </tr>
</table>
  ",90.0,1.0,,,,,,,,,,,,,,,,,,,,,,,,,,
216,0,,html-keyboard-response,216,570160,0.0-7.12-2.12,6p374z0qqb,2022-09-19 16:45:07.994,5ea96886ef7ece0604eee527,2,36,60,41,56,61,male,,,"
  <table>
  <tr height=300>
    <td width=300 height=300><img src=""static/images/cards/6_of_black_moons.svg"" width=""175px"" height=""250px""></img></td>
    <td width=300 height=300><img src=""static/images/cards/back_of_black_moons.svg"" width=""175px"" height=""250px""></img></td>
  </tr>
  <tr height=200>
    <td width=300><img src=""static/images/keys/z.svg"" width=""35%"" height=""75%""></img></td>
    <td width=300><img src=""static/images/keys/m.svg"" width=""35%"" height=""75%""></img></td>
  </tr>
</table>
  ",,,,,,,,,,,,,,,,,,,,,,,,,,,,
217,0,,html-keyboard-response,217,571696,0.0-7.12-3.12,6p374z0qqb,2022-09-19 16:45:07.994,5ea96886ef7ece0604eee527,2,36,60,41,56,61,male,,,"<p style=""font-size:50px"">You Lose!
No points this round.</p>",,,,,,,,,,,,,,,,,,,,,,,,,,,,
218,0,,html-keyboard-response,218,572220,0.0-7.12-4.12,6p374z0qqb,2022-09-19 16:45:07.994,5ea96886ef7ece0604eee527,2,36,60,41,56,61,male,,,,,,1.0,choice,12.0,C,D,black,red,moons,moons,C,D,C,black,moons,521.400000006,1.0,0.0,NA,left,542.1999999881,6.0,1.0,0.0,,,
219,0,,html-keyboard-response,219,572930,0.0-7.13-0.13,6p374z0qqb,2022-09-19 16:45:07.994,5ea96886ef7ece0604eee527,2,36,60,41,56,61,male,709.099999994,,"
  <table>
  <tr height=300>
    <td width=300 height=300><img src=""static/images/cards/stack_of_red_stars.svg"" width=""175px"" height=""250px""></img></td>
    <td width=300 height=300><img src=""static/images/cards/stack_of_black_stars.svg"" width=""175px"" height=""250px""></img></td>
  </tr>
  <tr height=200>
    <td width=300><img src=""static/images/keys/w.svg"" width=""35%"" height=""75%""></img></td>
    <td width=300><img src=""static/images/keys/o.svg"" width=""35%"" height=""75%""></img></td>
  </tr>
</table>
  ",87.0,1.0,,,,,,,,,,,,,,,,,,,,,,,,,,
220,0,,html-keyboard-response,220,573867,0.0-7.13-1.13,6p374z0qqb,2022-09-19 16:45:07.994,5ea96886ef7ece0604eee527,2,36,60,41,56,61,male,426.5,,"
  <table>
  <tr height=300>
    <td width=300 height=300><img src=""static/images/cards/back_of_red_stars.svg"" width=""175px"" height=""250px""></img></td>
    <td width=300 height=300><img src=""static/images/cards/back_of_red_stars.svg"" width=""175px"" height=""250px""></img></td>
  </tr>
  <tr height=200>
    <td width=300><img src=""static/images/keys/z.svg"" width=""35%"" height=""75%""></img></td>
    <td width=300></td>
  </tr>
</table>
  ",90.0,1.0,,,,,,,,,,,,,,,,,,,,,,,,,,
221,0,,html-keyboard-response,221,575376,0.0-7.13-2.13,6p374z0qqb,2022-09-19 16:45:07.994,5ea96886ef7ece0604eee527,2,36,60,41,56,61,male,,,"
  <table>
  <tr height=300>
    <td width=300 height=300><img src=""static/images/cards/6_of_red_stars.svg"" width=""175px"" height=""250px""></img></td>
    <td width=300 height=300><img src=""static/images/cards/back_of_red_stars.svg"" width=""175px"" height=""250px""></img></td>
  </tr>
  <tr height=200>
    <td width=300><img src=""static/images/keys/z.svg"" width=""35%"" height=""75%""></img></td>
    <td width=300></td>
  </tr>
</table>
  ",,,,,,,,,,,,,,,,,,,,,,,,,,,,
222,0,,html-keyboard-response,222,576889,0.0-7.13-3.13,6p374z0qqb,2022-09-19 16:45:07.994,5ea96886ef7ece0604eee527,2,36,60,41,56,61,male,,,"<p style=""font-size:50px"">You win!
+10 points this round!</p>",,,,,,,,,,,,,,,,,,,,,,,,,,,,
223,0,,html-keyboard-response,223,577415,0.0-7.13-4.13,6p374z0qqb,2022-09-19 16:45:07.994,5ea96886ef7ece0604eee527,2,36,60,41,56,61,male,,,,,,1.0,choice,13.0,A,B,red,black,stars,stars,B,A,B,red,stars,709.099999994,0.0,1.0,1,left,426.5,6.0,1.0,1.0,,,
224,0,,html-keyboard-response,224,577954,0.0-7.14-0.14,6p374z0qqb,2022-09-19 16:45:07.994,5ea96886ef7ece0604eee527,2,36,60,41,56,61,male,537.599999994,,"
  <table>
  <tr height=300>
    <td width=300 height=300><img src=""static/images/cards/stack_of_red_stars.svg"" width=""175px"" height=""250px""></img></td>
    <td width=300 height=300><img src=""static/images/cards/stack_of_black_stars.svg"" width=""175px"" height=""250px""></img></td>
  </tr>
  <tr height=200>
    <td width=300><img src=""static/images/keys/w.svg"" width=""35%"" height=""75%""></img></td>
    <td width=300><img src=""static/images/keys/o.svg"" width=""35%"" height=""75%""></img></td>
  </tr>
</table>
  ",87.0,1.0,,,,,,,,,,,,,,,,,,,,,,,,,,
225,0,,html-keyboard-response,225,579426,0.0-7.14-1.14,6p374z0qqb,2022-09-19 16:45:07.994,5ea96886ef7ece0604eee527,2,36,60,41,56,61,male,957.0,,"
  <table>
  <tr height=300>
    <td width=300 height=300><img src=""static/images/cards/back_of_red_stars.svg"" width=""175px"" height=""250px""></img></td>
    <td width=300 height=300><img src=""static/images/cards/back_of_red_stars.svg"" width=""175px"" height=""250px""></img></td>
  </tr>
  <tr height=200>
    <td width=300></td>
    <td width=300><img src=""static/images/keys/m.svg"" width=""35%"" height=""75%""></img></td>
  </tr>
</table>
  ",77.0,1.0,,,,,,,,,,,,,,,,,,,,,,,,,,
226,0,,html-keyboard-response,226,580942,0.0-7.14-2.14,6p374z0qqb,2022-09-19 16:45:07.994,5ea96886ef7ece0604eee527,2,36,60,41,56,61,male,,,"
  <table>
  <tr height=300>
    <td width=300 height=300><img src=""static/images/cards/back_of_red_stars.svg"" width=""175px"" height=""250px""></img></td>
    <td width=300 height=300><img src=""static/images/cards/2_of_red_stars.svg"" width=""175px"" height=""250px""></img></td>
  </tr>
  <tr height=200>
    <td width=300></td>
    <td width=300><img src=""static/images/keys/m.svg"" width=""35%"" height=""75%""></img></td>
  </tr>
</table>
  ",,,,,,,,,,,,,,,,,,,,,,,,,,,,
227,0,,html-keyboard-response,227,582449,0.0-7.14-3.14,6p374z0qqb,2022-09-19 16:45:07.994,5ea96886ef7ece0604eee527,2,36,60,41,56,61,male,,,"<p style=""font-size:50px"">You Lose!
No points this round.</p>",,,,,,,,,,,,,,,,,,,,,,,,,,,,
228,0,,html-keyboard-response,228,582972,0.0-7.14-4.14,6p374z0qqb,2022-09-19 16:45:07.994,5ea96886ef7ece0604eee527,2,36,60,41,56,61,male,,,,,,1.0,choice,14.0,A,B,red,black,stars,stars,B,A,B,red,stars,537.599999994,0.0,1.0,0,right,957.0,2.0,0.0,0.0,,,
229,0,,html-keyboard-response,229,584066,0.0-7.15-0.15,6p374z0qqb,2022-09-19 16:45:07.994,5ea96886ef7ece0604eee527,2,36,60,41,56,61,male,1092.1999999881,,"
  <table>
  <tr height=300>
    <td width=300 height=300><img src=""static/images/cards/stack_of_red_stars.svg"" width=""175px"" height=""250px""></img></td>
    <td width=300 height=300><img src=""static/images/cards/stack_of_red_moons.svg"" width=""175px"" height=""250px""></img></td>
  </tr>
  <tr height=200>
    <td width=300><img src=""static/images/keys/w.svg"" width=""35%"" height=""75%""></img></td>
    <td width=300><img src=""static/images/keys/o.svg"" width=""35%"" height=""75%""></img></td>
  </tr>
</table>
  ",87.0,1.0,,,,,,,,,,,,,,,,,,,,,,,,,,
230,0,,html-keyboard-response,230,585211,0.0-7.15-1.15,6p374z0qqb,2022-09-19 16:45:07.994,5ea96886ef7ece0604eee527,2,36,60,41,56,61,male,625.7000000179,,"
  <table>
  <tr height=300>
    <td width=300 height=300><img src=""static/images/cards/back_of_red_stars.svg"" width=""175px"" height=""250px""></img></td>
    <td width=300 height=300><img src=""static/images/cards/back_of_red_stars.svg"" width=""175px"" height=""250px""></img></td>
  </tr>
  <tr height=200>
    <td width=300><img src=""static/images/keys/z.svg"" width=""35%"" height=""75%""></img></td>
    <td width=300></td>
  </tr>
</table>
  ",90.0,1.0,,,,,,,,,,,,,,,,,,,,,,,,,,
231,0,,html-keyboard-response,231,586717,0.0-7.15-2.15,6p374z0qqb,2022-09-19 16:45:07.994,5ea96886ef7ece0604eee527,2,36,60,41,56,61,male,,,"
  <table>
  <tr height=300>
    <td width=300 height=300><img src=""static/images/cards/1_of_red_stars.svg"" width=""175px"" height=""250px""></img></td>
    <td width=300 height=300><img src=""static/images/cards/back_of_red_stars.svg"" width=""175px"" height=""250px""></img></td>
  </tr>
  <tr height=200>
    <td width=300><img src=""static/images/keys/z.svg"" width=""35%"" height=""75%""></img></td>
    <td width=300></td>
  </tr>
</table>
  ",,,,,,,,,,,,,,,,,,,,,,,,,,,,
232,0,,html-keyboard-response,232,588226,0.0-7.15-3.15,6p374z0qqb,2022-09-19 16:45:07.994,5ea96886ef7ece0604eee527,2,36,60,41,56,61,male,,,"<p style=""font-size:50px"">You Lose!
No points this round.</p>",,,,,,,,,,,,,,,,,,,,,,,,,,,,
233,0,,html-keyboard-response,233,588756,0.0-7.15-4.15,6p374z0qqb,2022-09-19 16:45:07.994,5ea96886ef7ece0604eee527,2,36,60,41,56,61,male,,,,,,1.0,choice,15.0,B,D,red,red,stars,moons,B,D,B,red,stars,1092.1999999881,0.0,1.0,1,left,625.7000000179,1.0,0.0,0.0,,,
234,0,,html-keyboard-response,234,590531,0.0-7.16-0.16,6p374z0qqb,2022-09-19 16:45:07.994,5ea96886ef7ece0604eee527,2,36,60,41,56,61,male,1772.8000000119,,"
  <table>
  <tr height=300>
    <td width=300 height=300><img src=""static/images/cards/stack_of_black_stars.svg"" width=""175px"" height=""250px""></img></td>
    <td width=300 height=300><img src=""static/images/cards/stack_of_black_moons.svg"" width=""175px"" height=""250px""></img></td>
  </tr>
  <tr height=200>
    <td width=300><img src=""static/images/keys/w.svg"" width=""35%"" height=""75%""></img></td>
    <td width=300><img src=""static/images/keys/o.svg"" width=""35%"" height=""75%""></img></td>
  </tr>
</table>
  ",87.0,1.0,,,,,,,,,,,,,,,,,,,,,,,,,,
235,0,,html-keyboard-response,235,591618,0.0-7.16-1.16,6p374z0qqb,2022-09-19 16:45:07.994,5ea96886ef7ece0604eee527,2,36,60,41,56,61,male,577.0,,"
  <table>
  <tr height=300>
    <td width=300 height=300><img src=""static/images/cards/back_of_black_stars.svg"" width=""175px"" height=""250px""></img></td>
    <td width=300 height=300><img src=""static/images/cards/back_of_black_stars.svg"" width=""175px"" height=""250px""></img></td>
  </tr>
  <tr height=200>
    <td width=300><img src=""static/images/keys/z.svg"" width=""35%"" height=""75%""></img></td>
    <td width=300><img src=""static/images/keys/m.svg"" width=""35%"" height=""75%""></img></td>
  </tr>
</table>
  ",90.0,1.0,,,,,,,,,,,,,,,,,,,,,,,,,,
236,0,,html-keyboard-response,236,593124,0.0-7.16-2.16,6p374z0qqb,2022-09-19 16:45:07.994,5ea96886ef7ece0604eee527,2,36,60,41,56,61,male,,,"
  <table>
  <tr height=300>
    <td width=300 height=300><img src=""static/images/cards/6_of_black_stars.svg"" width=""175px"" height=""250px""></img></td>
    <td width=300 height=300><img src=""static/images/cards/back_of_black_stars.svg"" width=""175px"" height=""250px""></img></td>
  </tr>
  <tr height=200>
    <td width=300><img src=""static/images/keys/z.svg"" width=""35%"" height=""75%""></img></td>
    <td width=300><img src=""static/images/keys/m.svg"" width=""35%"" height=""75%""></img></td>
  </tr>
</table>
  ",,,,,,,,,,,,,,,,,,,,,,,,,,,,
237,0,,html-keyboard-response,237,594633,0.0-7.16-3.16,6p374z0qqb,2022-09-19 16:45:07.994,5ea96886ef7ece0604eee527,2,36,60,41,56,61,male,,,"<p style=""font-size:50px"">You win!
+10 points this round!</p>",,,,,,,,,,,,,,,,,,,,,,,,,,,,
