,index,success,trial_type,trial_index,time_elapsed,internal_node_id,subject,date,prol_id,ctbl,sense_of_control_A,sense_of_control_B,sense_of_control_C,sense_of_control_D,age,gender,rt,url,stimulus,key_press,npress,is_data_trial,phase,trial,deck1,deck2,col1,col2,sym1,sym2,deck_l,deck_r,chosen_deck,chosen_col,chosen_sym,deck_rt,choose_choice,mutual_info,hidden_key,chosen_card,card_rt,player_num,win_card,outcome,mock_rating,response,responses
0,0,1.0,fullscreen,0,2849,0.0-0.0,rymq5q90co,2022-09-19 17:11:30.192,5b48f2d0ff7497000125165e,1,50,8,19,3,31,male,,,,,,,,,,,,,,,,,,,,,,,,,,,,,,,
1,0,,external-html,1,62826,0.0-1.0,rymq5q90co,2022-09-19 17:11:30.192,5b48f2d0ff7497000125165e,1,50,8,19,3,31,male,59868.0,static/js/sub/consent.html,,,,,,,,,,,,,,,,,,,,,,,,,,,,,
2,0,,call-function,2,62827,0.0-2.0,rymq5q90co,2022-09-19 17:11:30.192,5b48f2d0ff7497000125165e,1,50,8,19,3,31,male,,,,,,,,,,,,,,,,,,,,,,,,,,,,,,,
3,0,,image-keyboard-response,3,67216,0.0-3.0-0.0,rymq5q90co,2022-09-19 17:11:30.192,5b48f2d0ff7497000125165e,1,50,8,19,3,31,male,4387.700000003,,static/images/instructions_CB_1/Slide1.png,39.0,,,,,,,,,,,,,,,,,,,,,,,,,,,
4,0,,image-keyboard-response,4,72891,0.0-3.1-0.1,rymq5q90co,2022-09-19 17:11:30.192,5b48f2d0ff7497000125165e,1,50,8,19,3,31,male,5672.6999999993,,static/images/instructions_CB_1/Slide2.png,39.0,,,,,,,,,,,,,,,,,,,,,,,,,,,
5,0,,image-keyboard-response,5,75583,0.0-3.2-0.2,rymq5q90co,2022-09-19 17:11:30.192,5b48f2d0ff7497000125165e,1,50,8,19,3,31,male,2690.200000003,,static/images/instructions_CB_1/Slide3.png,39.0,,,,,,,,,,,,,,,,,,,,,,,,,,,
6,0,,image-keyboard-response,6,79577,0.0-3.3-0.3,rymq5q90co,2022-09-19 17:11:30.192,5b48f2d0ff7497000125165e,1,50,8,19,3,31,male,3992.6000000015,,static/images/instructions_CB_1/Slide4.png,39.0,,,,,,,,,,,,,,,,,,,,,,,,,,,
7,0,,image-keyboard-response,7,84946,0.0-3.4-0.4,rymq5q90co,2022-09-19 17:11:30.192,5b48f2d0ff7497000125165e,1,50,8,19,3,31,male,5367.3999999985,,static/images/instructions_CB_1/Slide5.png,39.0,,,,,,,,,,,,,,,,,,,,,,,,,,,
8,0,,image-keyboard-response,8,87126,0.0-3.5-0.5,rymq5q90co,2022-09-19 17:11:30.192,5b48f2d0ff7497000125165e,1,50,8,19,3,31,male,2179.3000000007,,static/images/instructions_CB_1/Slide6.png,39.0,,,,,,,,,,,,,,,,,,,,,,,,,,,
9,0,,image-keyboard-response,9,90092,0.0-3.6-0.6,rymq5q90co,2022-09-19 17:11:30.192,5b48f2d0ff7497000125165e,1,50,8,19,3,31,male,2964.5,,static/images/instructions_CB_1/Slide7.png,39.0,,,,,,,,,,,,,,,,,,,,,,,,,,,
10,0,,image-keyboard-response,10,125942,0.0-3.7-0.7,rymq5q90co,2022-09-19 17:11:30.192,5b48f2d0ff7497000125165e,1,50,8,19,3,31,male,35849.6000000015,,static/images/instructions_CB_1/Slide8.png,39.0,,,,,,,,,,,,,,,,,,,,,,,,,,,
11,0,,image-keyboard-response,11,129263,0.0-3.8-0.8,rymq5q90co,2022-09-19 17:11:30.192,5b48f2d0ff7497000125165e,1,50,8,19,3,31,male,3318.9000000022,,static/images/instructions_CB_1/Slide9.png,39.0,,,,,,,,,,,,,,,,,,,,,,,,,,,
12,0,,image-keyboard-response,12,137177,0.0-3.9-0.9,rymq5q90co,2022-09-19 17:11:30.192,5b48f2d0ff7497000125165e,1,50,8,19,3,31,male,7913.3000000007,,static/images/instructions_CB_1/Slide10.png,39.0,,,,,,,,,,,,,,,,,,,,,,,,,,,
13,0,,image-keyboard-response,13,140336,0.0-3.10-0.10,rymq5q90co,2022-09-19 17:11:30.192,5b48f2d0ff7497000125165e,1,50,8,19,3,31,male,3157.1000000015,,static/images/instructions_CB_1/Slide11.png,39.0,,,,,,,,,,,,,,,,,,,,,,,,,,,
14,0,,image-keyboard-response,14,157576,0.0-3.11-0.11,rymq5q90co,2022-09-19 17:11:30.192,5b48f2d0ff7497000125165e,1,50,8,19,3,31,male,17239.6000000015,,static/images/instructions_CB_1/Slide12.png,39.0,,,,,,,,,,,,,,,,,,,,,,,,,,,
15,0,,image-keyboard-response,15,162942,0.0-3.12-0.12,rymq5q90co,2022-09-19 17:11:30.192,5b48f2d0ff7497000125165e,1,50,8,19,3,31,male,5363.9000000022,,static/images/instructions_CB_1/Slide13.png,39.0,,,,,,,,,,,,,,,,,,,,,,,,,,,
16,0,,image-keyboard-response,16,169309,0.0-3.13-0.13,rymq5q90co,2022-09-19 17:11:30.192,5b48f2d0ff7497000125165e,1,50,8,19,3,31,male,6366.5999999978,,static/images/instructions_CB_1/Slide14.png,37.0,,,,,,,,,,,,,,,,,,,,,,,,,,,
17,0,,image-keyboard-response,17,181895,0.0-3.14-0.14,rymq5q90co,2022-09-19 17:11:30.192,5b48f2d0ff7497000125165e,1,50,8,19,3,31,male,12585.1000000015,,static/images/instructions_CB_1/Slide13.png,39.0,,,,,,,,,,,,,,,,,,,,,,,,,,,
18,0,,image-keyboard-response,18,184346,0.0-3.15-0.15,rymq5q90co,2022-09-19 17:11:30.192,5b48f2d0ff7497000125165e,1,50,8,19,3,31,male,2449.8000000007,,static/images/instructions_CB_1/Slide14.png,37.0,,,,,,,,,,,,,,,,,,,,,,,,,,,
19,0,,image-keyboard-response,19,189420,0.0-3.16-0.16,rymq5q90co,2022-09-19 17:11:30.192,5b48f2d0ff7497000125165e,1,50,8,19,3,31,male,5071.8999999985,,static/images/instructions_CB_1/Slide13.png,39.0,,,,,,,,,,,,,,,,,,,,,,,,,,,
20,0,,image-keyboard-response,20,194073,0.0-3.17-0.17,rymq5q90co,2022-09-19 17:11:30.192,5b48f2d0ff7497000125165e,1,50,8,19,3,31,male,4651.8000000007,,static/images/instructions_CB_1/Slide14.png,39.0,,,,,,,,,,,,,,,,,,,,,,,,,,,
21,0,,image-keyboard-response,21,199538,0.0-3.18-0.18,rymq5q90co,2022-09-19 17:11:30.192,5b48f2d0ff7497000125165e,1,50,8,19,3,31,male,5463.8000000007,,static/images/instructions_CB_1/Slide15.png,39.0,,,,,,,,,,,,,,,,,,,,,,,,,,,
22,0,,image-keyboard-response,22,204531,0.0-3.19-0.19,rymq5q90co,2022-09-19 17:11:30.192,5b48f2d0ff7497000125165e,1,50,8,19,3,31,male,4992.4000000022,,static/images/instructions_CB_1/Slide16.png,39.0,,,,,,,,,,,,,,,,,,,,,,,,,,,
23,0,,image-keyboard-response,23,212980,0.0-3.20-0.20,rymq5q90co,2022-09-19 17:11:30.192,5b48f2d0ff7497000125165e,1,50,8,19,3,31,male,8447.200000003,,static/images/instructions_CB_1/Slide17.png,39.0,,,,,,,,,,,,,,,,,,,,,,,,,,,
24,0,,image-keyboard-response,24,231707,0.0-3.21-0.21,rymq5q90co,2022-09-19 17:11:30.192,5b48f2d0ff7497000125165e,1,50,8,19,3,31,male,18725.8000000007,,static/images/instructions_CB_1/Slide18.png,39.0,,,,,,,,,,,,,,,,,,,,,,,,,,,
25,0,,image-keyboard-response,25,232719,0.0-3.22-0.22,rymq5q90co,2022-09-19 17:11:30.192,5b48f2d0ff7497000125165e,1,50,8,19,3,31,male,1011.0,,static/images/instructions_CB_1/Slide19.png,37.0,,,,,,,,,,,,,,,,,,,,,,,,,,,
26,0,,image-keyboard-response,26,238081,0.0-3.23-0.23,rymq5q90co,2022-09-19 17:11:30.192,5b48f2d0ff7497000125165e,1,50,8,19,3,31,male,5360.6999999993,,static/images/instructions_CB_1/Slide18.png,39.0,,,,,,,,,,,,,,,,,,,,,,,,,,,
27,0,,image-keyboard-response,27,245282,0.0-3.24-0.24,rymq5q90co,2022-09-19 17:11:30.192,5b48f2d0ff7497000125165e,1,50,8,19,3,31,male,7200.4000000022,,static/images/instructions_CB_1/Slide19.png,39.0,,,,,,,,,,,,,,,,,,,,,,,,,,,
28,0,,html-keyboard-response,28,246785,0.0-4.0-0.0,rymq5q90co,2022-09-19 17:11:30.192,5b48f2d0ff7497000125165e,1,50,8,19,3,31,male,,,"<img src=""static/images/cards/stack_of_red_moons.svg"" width=""175px"" height=""250px""></img>",,,,,,,,,,,,,,,,,,,,,,,,,,,,
29,0,,html-keyboard-response,29,248624,0.0-4.0-1.0,rymq5q90co,2022-09-19 17:11:30.192,5b48f2d0ff7497000125165e,1,50,8,19,3,31,male,1335.8999999985,,"
  <table>
  <tr height=300>
    <td width=300 height=300><img src=""static/images/cards/back_of_red_moons.svg"" width=""175px"" height=""250px""></img></td>
    <td width=300 height=300><img src=""static/images/cards/back_of_red_moons.svg"" width=""175px"" height=""250px""></img></td>
  </tr>
  <tr height=200>
    <td width=300><img src=""static/images/keys/z.svg"" width=""35%"" height=""75%""></img></td>
    <td width=300><img src=""static/images/keys/m.svg"" width=""35%"" height=""75%""></img></td>
  </tr>
</table>
  ",77.0,1.0,,,,,,,,,,,,,,,,,,,,,,,,,,
30,0,,html-keyboard-response,30,250127,0.0-4.0-2.0,rymq5q90co,2022-09-19 17:11:30.192,5b48f2d0ff7497000125165e,1,50,8,19,3,31,male,,,"
  <table>
  <tr height=300>
    <td width=300 height=300><img src=""static/images/cards/back_of_red_moons.svg"" width=""175px"" height=""250px""></img></td>
    <td width=300 height=300><img src=""static/images/cards/9_of_red_moons.svg"" width=""175px"" height=""250px""></img></td>
  </tr>
  <tr height=200>
    <td width=300><img src=""static/images/keys/z.svg"" width=""35%"" height=""75%""></img></td>
    <td width=300><img src=""static/images/keys/m.svg"" width=""35%"" height=""75%""></img></td>
  </tr>
</table>
  ",,,,,,,,,,,,,,,,,,,,,,,,,,,,
31,0,,html-keyboard-response,31,251631,0.0-4.0-3.0,rymq5q90co,2022-09-19 17:11:30.192,5b48f2d0ff7497000125165e,1,50,8,19,3,31,male,,,"<p style=""font-size:50px"">You win!
+10 points this round!</p>",,,,,,,,,,,,,,,,,,,,,,,,,,,,
32,0,,html-keyboard-response,32,252138,0.0-4.0-4.0,rymq5q90co,2022-09-19 17:11:30.192,5b48f2d0ff7497000125165e,1,50,8,19,3,31,male,,,,,,1.0,learning,0.0,A,,red,,moons,,,,A,red,moons,,1.0,1.0,NA,right,1335.8999999985,9.0,1.0,1.0,,,
33,0,,html-keyboard-response,33,253641,0.0-4.1-0.1,rymq5q90co,2022-09-19 17:11:30.192,5b48f2d0ff7497000125165e,1,50,8,19,3,31,male,,,"<img src=""static/images/cards/stack_of_black_moons.svg"" width=""175px"" height=""250px""></img>",,,,,,,,,,,,,,,,,,,,,,,,,,,,
34,0,,html-keyboard-response,34,254591,0.0-4.1-1.1,rymq5q90co,2022-09-19 17:11:30.192,5b48f2d0ff7497000125165e,1,50,8,19,3,31,male,447.1000000015,,"
  <table>
  <tr height=300>
    <td width=300 height=300><img src=""static/images/cards/back_of_black_moons.svg"" width=""175px"" height=""250px""></img></td>
    <td width=300 height=300><img src=""static/images/cards/back_of_black_moons.svg"" width=""175px"" height=""250px""></img></td>
  </tr>
  <tr height=200>
    <td width=300></td>
    <td width=300><img src=""static/images/keys/m.svg"" width=""35%"" height=""75%""></img></td>
  </tr>
</table>
  ",77.0,1.0,,,,,,,,,,,,,,,,,,,,,,,,,,
35,0,,html-keyboard-response,35,256095,0.0-4.1-2.1,rymq5q90co,2022-09-19 17:11:30.192,5b48f2d0ff7497000125165e,1,50,8,19,3,31,male,,,"
  <table>
  <tr height=300>
    <td width=300 height=300><img src=""static/images/cards/back_of_black_moons.svg"" width=""175px"" height=""250px""></img></td>
    <td width=300 height=300><img src=""static/images/cards/10_of_black_moons.svg"" width=""175px"" height=""250px""></img></td>
  </tr>
  <tr height=200>
    <td width=300></td>
    <td width=300><img src=""static/images/keys/m.svg"" width=""35%"" height=""75%""></img></td>
  </tr>
</table>
  ",,,,,,,,,,,,,,,,,,,,,,,,,,,,
36,0,,html-keyboard-response,36,257599,0.0-4.1-3.1,rymq5q90co,2022-09-19 17:11:30.192,5b48f2d0ff7497000125165e,1,50,8,19,3,31,male,,,"<p style=""font-size:50px"">You win!
+10 points this round!</p>",,,,,,,,,,,,,,,,,,,,,,,,,,,,
37,0,,html-keyboard-response,37,258105,0.0-4.1-4.1,rymq5q90co,2022-09-19 17:11:30.192,5b48f2d0ff7497000125165e,1,50,8,19,3,31,male,,,,,,1.0,learning,1.0,B,,black,,moons,,,,B,black,moons,,0.0,1.0,0,right,447.1000000015,10.0,1.0,1.0,,,
38,0,,html-keyboard-response,38,259608,0.0-4.2-0.2,rymq5q90co,2022-09-19 17:11:30.192,5b48f2d0ff7497000125165e,1,50,8,19,3,31,male,,,"<img src=""static/images/cards/stack_of_red_stars.svg"" width=""175px"" height=""250px""></img>",,,,,,,,,,,,,,,,,,,,,,,,,,,,
39,0,,html-keyboard-response,39,260778,0.0-4.2-1.2,rymq5q90co,2022-09-19 17:11:30.192,5b48f2d0ff7497000125165e,1,50,8,19,3,31,male,668.1999999993,,"
  <table>
  <tr height=300>
    <td width=300 height=300><img src=""static/images/cards/back_of_red_stars.svg"" width=""175px"" height=""250px""></img></td>
    <td width=300 height=300><img src=""static/images/cards/back_of_red_stars.svg"" width=""175px"" height=""250px""></img></td>
  </tr>
  <tr height=200>
    <td width=300><img src=""static/images/keys/z.svg"" width=""35%"" height=""75%""></img></td>
    <td width=300><img src=""static/images/keys/m.svg"" width=""35%"" height=""75%""></img></td>
  </tr>
</table>
  ",90.0,1.0,,,,,,,,,,,,,,,,,,,,,,,,,,
40,0,,html-keyboard-response,40,262281,0.0-4.2-2.2,rymq5q90co,2022-09-19 17:11:30.192,5b48f2d0ff7497000125165e,1,50,8,19,3,31,male,,,"
  <table>
  <tr height=300>
    <td width=300 height=300><img src=""static/images/cards/8_of_red_stars.svg"" width=""175px"" height=""250px""></img></td>
    <td width=300 height=300><img src=""static/images/cards/back_of_red_stars.svg"" width=""175px"" height=""250px""></img></td>
  </tr>
  <tr height=200>
    <td width=300><img src=""static/images/keys/z.svg"" width=""35%"" height=""75%""></img></td>
    <td width=300><img src=""static/images/keys/m.svg"" width=""35%"" height=""75%""></img></td>
  </tr>
</table>
  ",,,,,,,,,,,,,,,,,,,,,,,,,,,,
41,0,,html-keyboard-response,41,263783,0.0-4.2-3.2,rymq5q90co,2022-09-19 17:11:30.192,5b48f2d0ff7497000125165e,1,50,8,19,3,31,male,,,"<p style=""font-size:50px"">You win!
+10 points this round!</p>",,,,,,,,,,,,,,,,,,,,,,,,,,,,
42,0,,html-keyboard-response,42,264289,0.0-4.2-4.2,rymq5q90co,2022-09-19 17:11:30.192,5b48f2d0ff7497000125165e,1,50,8,19,3,31,male,,,,,,1.0,learning,2.0,C,,red,,stars,,,,C,red,stars,,1.0,0.0,NA,left,668.1999999993,8.0,1.0,1.0,,,
43,0,,html-keyboard-response,43,265791,0.0-4.3-0.3,rymq5q90co,2022-09-19 17:11:30.192,5b48f2d0ff7497000125165e,1,50,8,19,3,31,male,,,"<img src=""static/images/cards/stack_of_black_stars.svg"" width=""175px"" height=""250px""></img>",,,,,,,,,,,,,,,,,,,,,,,,,,,,
44,0,,html-keyboard-response,44,266677,0.0-4.3-1.3,rymq5q90co,2022-09-19 17:11:30.192,5b48f2d0ff7497000125165e,1,50,8,19,3,31,male,384.4000000022,,"
  <table>
  <tr height=300>
    <td width=300 height=300><img src=""static/images/cards/back_of_black_stars.svg"" width=""175px"" height=""250px""></img></td>
    <td width=300 height=300><img src=""static/images/cards/back_of_black_stars.svg"" width=""175px"" height=""250px""></img></td>
  </tr>
  <tr height=200>
    <td width=300></td>
    <td width=300><img src=""static/images/keys/m.svg"" width=""35%"" height=""75%""></img></td>
  </tr>
</table>
  ",77.0,1.0,,,,,,,,,,,,,,,,,,,,,,,,,,
45,0,,html-keyboard-response,45,268180,0.0-4.3-2.3,rymq5q90co,2022-09-19 17:11:30.192,5b48f2d0ff7497000125165e,1,50,8,19,3,31,male,,,"
  <table>
  <tr height=300>
    <td width=300 height=300><img src=""static/images/cards/back_of_black_stars.svg"" width=""175px"" height=""250px""></img></td>
    <td width=300 height=300><img src=""static/images/cards/2_of_black_stars.svg"" width=""175px"" height=""250px""></img></td>
  </tr>
  <tr height=200>
    <td width=300></td>
    <td width=300><img src=""static/images/keys/m.svg"" width=""35%"" height=""75%""></img></td>
  </tr>
</table>
  ",,,,,,,,,,,,,,,,,,,,,,,,,,,,
46,0,,html-keyboard-response,46,269681,0.0-4.3-3.3,rymq5q90co,2022-09-19 17:11:30.192,5b48f2d0ff7497000125165e,1,50,8,19,3,31,male,,,"<p style=""font-size:50px"">You Lose!
No points this round.</p>",,,,,,,,,,,,,,,,,,,,,,,,,,,,
47,0,,html-keyboard-response,47,270188,0.0-4.3-4.3,rymq5q90co,2022-09-19 17:11:30.192,5b48f2d0ff7497000125165e,1,50,8,19,3,31,male,,,,,,1.0,learning,3.0,D,,black,,stars,,,,D,black,stars,,0.0,0.0,0,right,384.4000000022,2.0,0.0,0.0,,,
48,0,,html-keyboard-response,48,271690,0.0-4.4-0.4,rymq5q90co,2022-09-19 17:11:30.192,5b48f2d0ff7497000125165e,1,50,8,19,3,31,male,,,"<img src=""static/images/cards/stack_of_red_bolts.svg"" width=""175px"" height=""250px""></img>",,,,,,,,,,,,,,,,,,,,,,,,,,,,
49,0,,html-keyboard-response,49,272487,0.0-4.4-1.4,rymq5q90co,2022-09-19 17:11:30.192,5b48f2d0ff7497000125165e,1,50,8,19,3,31,male,294.1000000015,,"
  <table>
  <tr height=300>
    <td width=300 height=300><img src=""static/images/cards/back_of_red_bolts.svg"" width=""175px"" height=""250px""></img></td>
    <td width=300 height=300><img src=""static/images/cards/back_of_red_bolts.svg"" width=""175px"" height=""250px""></img></td>
  </tr>
  <tr height=200>
    <td width=300><img src=""static/images/keys/z.svg"" width=""35%"" height=""75%""></img></td>
    <td width=300><img src=""static/images/keys/m.svg"" width=""35%"" height=""75%""></img></td>
  </tr>
</table>
  ",90.0,1.0,,,,,,,,,,,,,,,,,,,,,,,,,,
50,0,,html-keyboard-response,50,273990,0.0-4.4-2.4,rymq5q90co,2022-09-19 17:11:30.192,5b48f2d0ff7497000125165e,1,50,8,19,3,31,male,,,"
  <table>
  <tr height=300>
    <td width=300 height=300><img src=""static/images/cards/10_of_red_bolts.svg"" width=""175px"" height=""250px""></img></td>
    <td width=300 height=300><img src=""static/images/cards/back_of_red_bolts.svg"" width=""175px"" height=""250px""></img></td>
  </tr>
  <tr height=200>
    <td width=300><img src=""static/images/keys/z.svg"" width=""35%"" height=""75%""></img></td>
    <td width=300><img src=""static/images/keys/m.svg"" width=""35%"" height=""75%""></img></td>
  </tr>
</table>
  ",,,,,,,,,,,,,,,,,,,,,,,,,,,,
51,0,,html-keyboard-response,51,275493,0.0-4.4-3.4,rymq5q90co,2022-09-19 17:11:30.192,5b48f2d0ff7497000125165e,1,50,8,19,3,31,male,,,"<p style=""font-size:50px"">You win!
+10 points this round!</p>",,,,,,,,,,,,,,,,,,,,,,,,,,,,
52,0,,html-keyboard-response,52,276000,0.0-4.4-4.4,rymq5q90co,2022-09-19 17:11:30.192,5b48f2d0ff7497000125165e,1,50,8,19,3,31,male,,,,,,1.0,learning,4.0,Xc,,red,,bolts,,,,Xc,red,bolts,,1.0,0.0,NA,left,294.1000000015,10.0,1.0,1.0,,,
53,0,,html-keyboard-response,53,277502,0.0-4.5-0.5,rymq5q90co,2022-09-19 17:11:30.192,5b48f2d0ff7497000125165e,1,50,8,19,3,31,male,,,"<img src=""static/images/cards/stack_of_black_bolts.svg"" width=""175px"" height=""250px""></img>",,,,,,,,,,,,,,,,,,,,,,,,,,,,
54,0,,html-keyboard-response,54,278360,0.0-4.5-1.5,rymq5q90co,2022-09-19 17:11:30.192,5b48f2d0ff7497000125165e,1,50,8,19,3,31,male,356.0,,"
  <table>
  <tr height=300>
    <td width=300 height=300><img src=""static/images/cards/back_of_black_bolts.svg"" width=""175px"" height=""250px""></img></td>
    <td width=300 height=300><img src=""static/images/cards/back_of_black_bolts.svg"" width=""175px"" height=""250px""></img></td>
  </tr>
  <tr height=200>
    <td width=300></td>
    <td width=300><img src=""static/images/keys/m.svg"" width=""35%"" height=""75%""></img></td>
  </tr>
</table>
  ",77.0,1.0,,,,,,,,,,,,,,,,,,,,,,,,,,
55,0,,html-keyboard-response,55,279863,0.0-4.5-2.5,rymq5q90co,2022-09-19 17:11:30.192,5b48f2d0ff7497000125165e,1,50,8,19,3,31,male,,,"
  <table>
  <tr height=300>
    <td width=300 height=300><img src=""static/images/cards/back_of_black_bolts.svg"" width=""175px"" height=""250px""></img></td>
    <td width=300 height=300><img src=""static/images/cards/4_of_black_bolts.svg"" width=""175px"" height=""250px""></img></td>
  </tr>
  <tr height=200>
    <td width=300></td>
    <td width=300><img src=""static/images/keys/m.svg"" width=""35%"" height=""75%""></img></td>
  </tr>
</table>
  ",,,,,,,,,,,,,,,,,,,,,,,,,,,,
56,0,,html-keyboard-response,56,281366,0.0-4.5-3.5,rymq5q90co,2022-09-19 17:11:30.192,5b48f2d0ff7497000125165e,1,50,8,19,3,31,male,,,"<p style=""font-size:50px"">You win!
+10 points this round!</p>",,,,,,,,,,,,,,,,,,,,,,,,,,,,
57,0,,html-keyboard-response,57,281873,0.0-4.5-4.5,rymq5q90co,2022-09-19 17:11:30.192,5b48f2d0ff7497000125165e,1,50,8,19,3,31,male,,,,,,1.0,learning,5.0,Xnc,,black,,bolts,,,,Xnc,black,bolts,,0.0,0.0,0,right,356.0,4.0,0.0,1.0,,,
58,0,,html-keyboard-response,58,283376,0.0-4.6-0.6,rymq5q90co,2022-09-19 17:11:30.192,5b48f2d0ff7497000125165e,1,50,8,19,3,31,male,,,"<img src=""static/images/cards/stack_of_red_moons.svg"" width=""175px"" height=""250px""></img>",,,,,,,,,,,,,,,,,,,,,,,,,,,,
59,0,,html-keyboard-response,59,284481,0.0-4.6-1.6,rymq5q90co,2022-09-19 17:11:30.192,5b48f2d0ff7497000125165e,1,50,8,19,3,31,male,602.0,,"
  <table>
  <tr height=300>
    <td width=300 height=300><img src=""static/images/cards/back_of_red_moons.svg"" width=""175px"" height=""250px""></img></td>
    <td width=300 height=300><img src=""static/images/cards/back_of_red_moons.svg"" width=""175px"" height=""250px""></img></td>
  </tr>
  <tr height=200>
    <td width=300><img src=""static/images/keys/z.svg"" width=""35%"" height=""75%""></img></td>
    <td width=300><img src=""static/images/keys/m.svg"" width=""35%"" height=""75%""></img></td>
  </tr>
</table>
  ",90.0,1.0,,,,,,,,,,,,,,,,,,,,,,,,,,
60,0,,html-keyboard-response,60,285984,0.0-4.6-2.6,rymq5q90co,2022-09-19 17:11:30.192,5b48f2d0ff7497000125165e,1,50,8,19,3,31,male,,,"
  <table>
  <tr height=300>
    <td width=300 height=300><img src=""static/images/cards/4_of_red_moons.svg"" width=""175px"" height=""250px""></img></td>
    <td width=300 height=300><img src=""static/images/cards/back_of_red_moons.svg"" width=""175px"" height=""250px""></img></td>
  </tr>
  <tr height=200>
    <td width=300><img src=""static/images/keys/z.svg"" width=""35%"" height=""75%""></img></td>
    <td width=300><img src=""static/images/keys/m.svg"" width=""35%"" height=""75%""></img></td>
  </tr>
</table>
  ",,,,,,,,,,,,,,,,,,,,,,,,,,,,
61,0,,html-keyboard-response,61,287486,0.0-4.6-3.6,rymq5q90co,2022-09-19 17:11:30.192,5b48f2d0ff7497000125165e,1,50,8,19,3,31,male,,,"<p style=""font-size:50px"">You Lose!
No points this round.</p>",,,,,,,,,,,,,,,,,,,,,,,,,,,,
62,0,,html-keyboard-response,62,287993,0.0-4.6-4.6,rymq5q90co,2022-09-19 17:11:30.192,5b48f2d0ff7497000125165e,1,50,8,19,3,31,male,,,,,,1.0,learning,6.0,A,,red,,moons,,,,A,red,moons,,1.0,1.0,NA,left,602.0,4.0,0.0,0.0,,,
63,0,,html-keyboard-response,63,289495,0.0-4.7-0.7,rymq5q90co,2022-09-19 17:11:30.192,5b48f2d0ff7497000125165e,1,50,8,19,3,31,male,,,"<img src=""static/images/cards/stack_of_black_moons.svg"" width=""175px"" height=""250px""></img>",,,,,,,,,,,,,,,,,,,,,,,,,,,,
64,0,,html-keyboard-response,64,290623,0.0-4.7-1.7,rymq5q90co,2022-09-19 17:11:30.192,5b48f2d0ff7497000125165e,1,50,8,19,3,31,male,624.8000000007,,"
  <table>
  <tr height=300>
    <td width=300 height=300><img src=""static/images/cards/back_of_black_moons.svg"" width=""175px"" height=""250px""></img></td>
    <td width=300 height=300><img src=""static/images/cards/back_of_black_moons.svg"" width=""175px"" height=""250px""></img></td>
  </tr>
  <tr height=200>
    <td width=300></td>
    <td width=300><img src=""static/images/keys/m.svg"" width=""35%"" height=""75%""></img></td>
  </tr>
</table>
  ",77.0,1.0,,,,,,,,,,,,,,,,,,,,,,,,,,
65,0,,html-keyboard-response,65,292125,0.0-4.7-2.7,rymq5q90co,2022-09-19 17:11:30.192,5b48f2d0ff7497000125165e,1,50,8,19,3,31,male,,,"
  <table>
  <tr height=300>
    <td width=300 height=300><img src=""static/images/cards/back_of_black_moons.svg"" width=""175px"" height=""250px""></img></td>
    <td width=300 height=300><img src=""static/images/cards/9_of_black_moons.svg"" width=""175px"" height=""250px""></img></td>
  </tr>
  <tr height=200>
    <td width=300></td>
    <td width=300><img src=""static/images/keys/m.svg"" width=""35%"" height=""75%""></img></td>
  </tr>
</table>
  ",,,,,,,,,,,,,,,,,,,,,,,,,,,,
66,0,,html-keyboard-response,66,293628,0.0-4.7-3.7,rymq5q90co,2022-09-19 17:11:30.192,5b48f2d0ff7497000125165e,1,50,8,19,3,31,male,,,"<p style=""font-size:50px"">You win!
+10 points this round!</p>",,,,,,,,,,,,,,,,,,,,,,,,,,,,
67,0,,html-keyboard-response,67,294135,0.0-4.7-4.7,rymq5q90co,2022-09-19 17:11:30.192,5b48f2d0ff7497000125165e,1,50,8,19,3,31,male,,,,,,1.0,learning,7.0,B,,black,,moons,,,,B,black,moons,,0.0,1.0,0,right,624.8000000007,9.0,1.0,1.0,,,
68,0,,html-keyboard-response,68,295638,0.0-4.8-0.8,rymq5q90co,2022-09-19 17:11:30.192,5b48f2d0ff7497000125165e,1,50,8,19,3,31,male,,,"<img src=""static/images/cards/stack_of_red_stars.svg"" width=""175px"" height=""250px""></img>",,,,,,,,,,,,,,,,,,,,,,,,,,,,
69,0,,html-keyboard-response,69,296917,0.0-4.8-1.8,rymq5q90co,2022-09-19 17:11:30.192,5b48f2d0ff7497000125165e,1,50,8,19,3,31,male,775.200000003,,"
  <table>
  <tr height=300>
    <td width=300 height=300><img src=""static/images/cards/back_of_red_stars.svg"" width=""175px"" height=""250px""></img></td>
    <td width=300 height=300><img src=""static/images/cards/back_of_red_stars.svg"" width=""175px"" height=""250px""></img></td>
  </tr>
  <tr height=200>
    <td width=300><img src=""static/images/keys/z.svg"" width=""35%"" height=""75%""></img></td>
    <td width=300><img src=""static/images/keys/m.svg"" width=""35%"" height=""75%""></img></td>
  </tr>
</table>
  ",77.0,1.0,,,,,,,,,,,,,,,,,,,,,,,,,,
70,0,,html-keyboard-response,70,298419,0.0-4.8-2.8,rymq5q90co,2022-09-19 17:11:30.192,5b48f2d0ff7497000125165e,1,50,8,19,3,31,male,,,"
  <table>
  <tr height=300>
    <td width=300 height=300><img src=""static/images/cards/back_of_red_stars.svg"" width=""175px"" height=""250px""></img></td>
    <td width=300 height=300><img src=""static/images/cards/10_of_red_stars.svg"" width=""175px"" height=""250px""></img></td>
  </tr>
  <tr height=200>
    <td width=300><img src=""static/images/keys/z.svg"" width=""35%"" height=""75%""></img></td>
    <td width=300><img src=""static/images/keys/m.svg"" width=""35%"" height=""75%""></img></td>
  </tr>
</table>
  ",,,,,,,,,,,,,,,,,,,,,,,,,,,,
71,0,,html-keyboard-response,71,299922,0.0-4.8-3.8,rymq5q90co,2022-09-19 17:11:30.192,5b48f2d0ff7497000125165e,1,50,8,19,3,31,male,,,"<p style=""font-size:50px"">You Lose!
No points this round.</p>",,,,,,,,,,,,,,,,,,,,,,,,,,,,
72,0,,html-keyboard-response,72,300430,0.0-4.8-4.8,rymq5q90co,2022-09-19 17:11:30.192,5b48f2d0ff7497000125165e,1,50,8,19,3,31,male,,,,,,1.0,learning,8.0,C,,red,,stars,,,,C,red,stars,,1.0,0.0,NA,right,775.200000003,10.0,1.0,0.0,,,
73,0,,html-keyboard-response,73,301931,0.0-4.9-0.9,rymq5q90co,2022-09-19 17:11:30.192,5b48f2d0ff7497000125165e,1,50,8,19,3,31,male,,,"<img src=""static/images/cards/stack_of_black_stars.svg"" width=""175px"" height=""250px""></img>",,,,,,,,,,,,,,,,,,,,,,,,,,,,
74,0,,html-keyboard-response,74,303161,0.0-4.9-1.9,rymq5q90co,2022-09-19 17:11:30.192,5b48f2d0ff7497000125165e,1,50,8,19,3,31,male,727.700000003,,"
  <table>
  <tr height=300>
    <td width=300 height=300><img src=""static/images/cards/back_of_black_stars.svg"" width=""175px"" height=""250px""></img></td>
    <td width=300 height=300><img src=""static/images/cards/back_of_black_stars.svg"" width=""175px"" height=""250px""></img></td>
  </tr>
  <tr height=200>
    <td width=300></td>
    <td width=300><img src=""static/images/keys/m.svg"" width=""35%"" height=""75%""></img></td>
  </tr>
</table>
  ",77.0,1.0,,,,,,,,,,,,,,,,,,,,,,,,,,
75,0,,html-keyboard-response,75,304663,0.0-4.9-2.9,rymq5q90co,2022-09-19 17:11:30.192,5b48f2d0ff7497000125165e,1,50,8,19,3,31,male,,,"
  <table>
  <tr height=300>
    <td width=300 height=300><img src=""static/images/cards/back_of_black_stars.svg"" width=""175px"" height=""250px""></img></td>
    <td width=300 height=300><img src=""static/images/cards/7_of_black_stars.svg"" width=""175px"" height=""250px""></img></td>
  </tr>
  <tr height=200>
    <td width=300></td>
    <td width=300><img src=""static/images/keys/m.svg"" width=""35%"" height=""75%""></img></td>
  </tr>
</table>
  ",,,,,,,,,,,,,,,,,,,,,,,,,,,,
76,0,,html-keyboard-response,76,306166,0.0-4.9-3.9,rymq5q90co,2022-09-19 17:11:30.192,5b48f2d0ff7497000125165e,1,50,8,19,3,31,male,,,"<p style=""font-size:50px"">You win!
+10 points this round!</p>",,,,,,,,,,,,,,,,,,,,,,,,,,,,
77,0,,html-keyboard-response,77,306672,0.0-4.9-4.9,rymq5q90co,2022-09-19 17:11:30.192,5b48f2d0ff7497000125165e,1,50,8,19,3,31,male,,,,,,1.0,learning,9.0,D,,black,,stars,,,,D,black,stars,,0.0,0.0,0,right,727.700000003,7.0,1.0,1.0,,,
78,0,,html-keyboard-response,78,308174,0.0-4.10-0.10,rymq5q90co,2022-09-19 17:11:30.192,5b48f2d0ff7497000125165e,1,50,8,19,3,31,male,,,"<img src=""static/images/cards/stack_of_red_bolts.svg"" width=""175px"" height=""250px""></img>",,,,,,,,,,,,,,,,,,,,,,,,,,,,
79,0,,html-keyboard-response,79,308963,0.0-4.10-1.10,rymq5q90co,2022-09-19 17:11:30.192,5b48f2d0ff7497000125165e,1,50,8,19,3,31,male,286.1999999993,,"
  <table>
  <tr height=300>
    <td width=300 height=300><img src=""static/images/cards/back_of_red_bolts.svg"" width=""175px"" height=""250px""></img></td>
    <td width=300 height=300><img src=""static/images/cards/back_of_red_bolts.svg"" width=""175px"" height=""250px""></img></td>
  </tr>
  <tr height=200>
    <td width=300><img src=""static/images/keys/z.svg"" width=""35%"" height=""75%""></img></td>
    <td width=300><img src=""static/images/keys/m.svg"" width=""35%"" height=""75%""></img></td>
  </tr>
</table>
  ",90.0,1.0,,,,,,,,,,,,,,,,,,,,,,,,,,
80,0,,html-keyboard-response,80,310465,0.0-4.10-2.10,rymq5q90co,2022-09-19 17:11:30.192,5b48f2d0ff7497000125165e,1,50,8,19,3,31,male,,,"
  <table>
  <tr height=300>
    <td width=300 height=300><img src=""static/images/cards/4_of_red_bolts.svg"" width=""175px"" height=""250px""></img></td>
    <td width=300 height=300><img src=""static/images/cards/back_of_red_bolts.svg"" width=""175px"" height=""250px""></img></td>
  </tr>
  <tr height=200>
    <td width=300><img src=""static/images/keys/z.svg"" width=""35%"" height=""75%""></img></td>
    <td width=300><img src=""static/images/keys/m.svg"" width=""35%"" height=""75%""></img></td>
  </tr>
</table>
  ",,,,,,,,,,,,,,,,,,,,,,,,,,,,
81,0,,html-keyboard-response,81,311968,0.0-4.10-3.10,rymq5q90co,2022-09-19 17:11:30.192,5b48f2d0ff7497000125165e,1,50,8,19,3,31,male,,,"<p style=""font-size:50px"">You win!
+10 points this round!</p>",,,,,,,,,,,,,,,,,,,,,,,,,,,,
82,0,,html-keyboard-response,82,312474,0.0-4.10-4.10,rymq5q90co,2022-09-19 17:11:30.192,5b48f2d0ff7497000125165e,1,50,8,19,3,31,male,,,,,,1.0,learning,10.0,Xc,,red,,bolts,,,,Xc,red,bolts,,1.0,0.0,NA,left,286.1999999993,4.0,0.0,1.0,,,
83,0,,html-keyboard-response,83,313976,0.0-4.11-0.11,rymq5q90co,2022-09-19 17:11:30.192,5b48f2d0ff7497000125165e,1,50,8,19,3,31,male,,,"<img src=""static/images/cards/stack_of_black_bolts.svg"" width=""175px"" height=""250px""></img>",,,,,,,,,,,,,,,,,,,,,,,,,,,,
84,0,,html-keyboard-response,84,314913,0.0-4.11-1.11,rymq5q90co,2022-09-19 17:11:30.192,5b48f2d0ff7497000125165e,1,50,8,19,3,31,male,434.3999999985,,"
  <table>
  <tr height=300>
    <td width=300 height=300><img src=""static/images/cards/back_of_black_bolts.svg"" width=""175px"" height=""250px""></img></td>
    <td width=300 height=300><img src=""static/images/cards/back_of_black_bolts.svg"" width=""175px"" height=""250px""></img></td>
  </tr>
  <tr height=200>
    <td width=300></td>
    <td width=300><img src=""static/images/keys/m.svg"" width=""35%"" height=""75%""></img></td>
  </tr>
</table>
  ",77.0,1.0,,,,,,,,,,,,,,,,,,,,,,,,,,
85,0,,html-keyboard-response,85,316415,0.0-4.11-2.11,rymq5q90co,2022-09-19 17:11:30.192,5b48f2d0ff7497000125165e,1,50,8,19,3,31,male,,,"
  <table>
  <tr height=300>
    <td width=300 height=300><img src=""static/images/cards/back_of_black_bolts.svg"" width=""175px"" height=""250px""></img></td>
    <td width=300 height=300><img src=""static/images/cards/4_of_black_bolts.svg"" width=""175px"" height=""250px""></img></td>
  </tr>
  <tr height=200>
    <td width=300></td>
    <td width=300><img src=""static/images/keys/m.svg"" width=""35%"" height=""75%""></img></td>
  </tr>
</table>
  ",,,,,,,,,,,,,,,,,,,,,,,,,,,,
86,0,,html-keyboard-response,86,317917,0.0-4.11-3.11,rymq5q90co,2022-09-19 17:11:30.192,5b48f2d0ff7497000125165e,1,50,8,19,3,31,male,,,"<p style=""font-size:50px"">You win!
+10 points this round!</p>",,,,,,,,,,,,,,,,,,,,,,,,,,,,
87,0,,html-keyboard-response,87,318423,0.0-4.11-4.11,rymq5q90co,2022-09-19 17:11:30.192,5b48f2d0ff7497000125165e,1,50,8,19,3,31,male,,,,,,1.0,learning,11.0,Xnc,,black,,bolts,,,,Xnc,black,bolts,,0.0,0.0,0,right,434.3999999985,4.0,0.0,1.0,,,
88,0,,html-keyboard-response,88,319925,0.0-4.12-0.12,rymq5q90co,2022-09-19 17:11:30.192,5b48f2d0ff7497000125165e,1,50,8,19,3,31,male,,,"<img src=""static/images/cards/stack_of_red_moons.svg"" width=""175px"" height=""250px""></img>",,,,,,,,,,,,,,,,,,,,,,,,,,,,
89,0,,html-keyboard-response,89,320998,0.0-4.12-1.12,rymq5q90co,2022-09-19 17:11:30.192,5b48f2d0ff7497000125165e,1,50,8,19,3,31,male,571.3000000007,,"
  <table>
  <tr height=300>
    <td width=300 height=300><img src=""static/images/cards/back_of_red_moons.svg"" width=""175px"" height=""250px""></img></td>
    <td width=300 height=300><img src=""static/images/cards/back_of_red_moons.svg"" width=""175px"" height=""250px""></img></td>
  </tr>
  <tr height=200>
    <td width=300><img src=""static/images/keys/z.svg"" width=""35%"" height=""75%""></img></td>
    <td width=300><img src=""static/images/keys/m.svg"" width=""35%"" height=""75%""></img></td>
  </tr>
</table>
  ",90.0,1.0,,,,,,,,,,,,,,,,,,,,,,,,,,
90,0,,html-keyboard-response,90,322503,0.0-4.12-2.12,rymq5q90co,2022-09-19 17:11:30.192,5b48f2d0ff7497000125165e,1,50,8,19,3,31,male,,,"
  <table>
  <tr height=300>
    <td width=300 height=300><img src=""static/images/cards/3_of_red_moons.svg"" width=""175px"" height=""250px""></img></td>
    <td width=300 height=300><img src=""static/images/cards/back_of_red_moons.svg"" width=""175px"" height=""250px""></img></td>
  </tr>
  <tr height=200>
    <td width=300><img src=""static/images/keys/z.svg"" width=""35%"" height=""75%""></img></td>
    <td width=300><img src=""static/images/keys/m.svg"" width=""35%"" height=""75%""></img></td>
  </tr>
</table>
  ",,,,,,,,,,,,,,,,,,,,,,,,,,,,
91,0,,html-keyboard-response,91,324005,0.0-4.12-3.12,rymq5q90co,2022-09-19 17:11:30.192,5b48f2d0ff7497000125165e,1,50,8,19,3,31,male,,,"<p style=""font-size:50px"">You Lose!
No points this round.</p>",,,,,,,,,,,,,,,,,,,,,,,,,,,,
92,0,,html-keyboard-response,92,324512,0.0-4.12-4.12,rymq5q90co,2022-09-19 17:11:30.192,5b48f2d0ff7497000125165e,1,50,8,19,3,31,male,,,,,,1.0,learning,12.0,A,,red,,moons,,,,A,red,moons,,1.0,1.0,NA,left,571.3000000007,3.0,0.0,0.0,,,
93,0,,html-keyboard-response,93,326014,0.0-4.13-0.13,rymq5q90co,2022-09-19 17:11:30.192,5b48f2d0ff7497000125165e,1,50,8,19,3,31,male,,,"<img src=""static/images/cards/stack_of_black_moons.svg"" width=""175px"" height=""250px""></img>",,,,,,,,,,,,,,,,,,,,,,,,,,,,
94,0,,html-keyboard-response,94,327073,0.0-4.13-1.13,rymq5q90co,2022-09-19 17:11:30.192,5b48f2d0ff7497000125165e,1,50,8,19,3,31,male,556.0,,"
  <table>
  <tr height=300>
    <td width=300 height=300><img src=""static/images/cards/back_of_black_moons.svg"" width=""175px"" height=""250px""></img></td>
    <td width=300 height=300><img src=""static/images/cards/back_of_black_moons.svg"" width=""175px"" height=""250px""></img></td>
  </tr>
  <tr height=200>
    <td width=300></td>
    <td width=300><img src=""static/images/keys/m.svg"" width=""35%"" height=""75%""></img></td>
  </tr>
</table>
  ",77.0,1.0,,,,,,,,,,,,,,,,,,,,,,,,,,
95,0,,html-keyboard-response,95,328575,0.0-4.13-2.13,rymq5q90co,2022-09-19 17:11:30.192,5b48f2d0ff7497000125165e,1,50,8,19,3,31,male,,,"
  <table>
  <tr height=300>
    <td width=300 height=300><img src=""static/images/cards/back_of_black_moons.svg"" width=""175px"" height=""250px""></img></td>
    <td width=300 height=300><img src=""static/images/cards/4_of_black_moons.svg"" width=""175px"" height=""250px""></img></td>
  </tr>
  <tr height=200>
    <td width=300></td>
    <td width=300><img src=""static/images/keys/m.svg"" width=""35%"" height=""75%""></img></td>
  </tr>
</table>
  ",,,,,,,,,,,,,,,,,,,,,,,,,,,,
96,0,,html-keyboard-response,96,330077,0.0-4.13-3.13,rymq5q90co,2022-09-19 17:11:30.192,5b48f2d0ff7497000125165e,1,50,8,19,3,31,male,,,"<p style=""font-size:50px"">You Lose!
No points this round.</p>",,,,,,,,,,,,,,,,,,,,,,,,,,,,
97,0,,html-keyboard-response,97,330584,0.0-4.13-4.13,rymq5q90co,2022-09-19 17:11:30.192,5b48f2d0ff7497000125165e,1,50,8,19,3,31,male,,,,,,1.0,learning,13.0,B,,black,,moons,,,,B,black,moons,,0.0,1.0,0,right,556.0,4.0,0.0,0.0,,,
98,0,,html-keyboard-response,98,332087,0.0-4.14-0.14,rymq5q90co,2022-09-19 17:11:30.192,5b48f2d0ff7497000125165e,1,50,8,19,3,31,male,,,"<img src=""static/images/cards/stack_of_red_stars.svg"" width=""175px"" height=""250px""></img>",,,,,,,,,,,,,,,,,,,,,,,,,,,,
99,0,,html-keyboard-response,99,333134,0.0-4.14-1.14,rymq5q90co,2022-09-19 17:11:30.192,5b48f2d0ff7497000125165e,1,50,8,19,3,31,male,544.0999999978,,"
  <table>
  <tr height=300>
    <td width=300 height=300><img src=""static/images/cards/back_of_red_stars.svg"" width=""175px"" height=""250px""></img></td>
    <td width=300 height=300><img src=""static/images/cards/back_of_red_stars.svg"" width=""175px"" height=""250px""></img></td>
  </tr>
  <tr height=200>
    <td width=300><img src=""static/images/keys/z.svg"" width=""35%"" height=""75%""></img></td>
    <td width=300><img src=""static/images/keys/m.svg"" width=""35%"" height=""75%""></img></td>
  </tr>
</table>
  ",77.0,1.0,,,,,,,,,,,,,,,,,,,,,,,,,,
100,0,,html-keyboard-response,100,334638,0.0-4.14-2.14,rymq5q90co,2022-09-19 17:11:30.192,5b48f2d0ff7497000125165e,1,50,8,19,3,31,male,,,"
  <table>
  <tr height=300>
    <td width=300 height=300><img src=""static/images/cards/back_of_red_stars.svg"" width=""175px"" height=""250px""></img></td>
    <td width=300 height=300><img src=""static/images/cards/1_of_red_stars.svg"" width=""175px"" height=""250px""></img></td>
  </tr>
  <tr height=200>
    <td width=300><img src=""static/images/keys/z.svg"" width=""35%"" height=""75%""></img></td>
    <td width=300><img src=""static/images/keys/m.svg"" width=""35%"" height=""75%""></img></td>
  </tr>
</table>
  ",,,,,,,,,,,,,,,,,,,,,,,,,,,,
101,0,,html-keyboard-response,101,336141,0.0-4.14-3.14,rymq5q90co,2022-09-19 17:11:30.192,5b48f2d0ff7497000125165e,1,50,8,19,3,31,male,,,"<p style=""font-size:50px"">You Lose!
No points this round.</p>",,,,,,,,,,,,,,,,,,,,,,,,,,,,
102,0,,html-keyboard-response,102,336647,0.0-4.14-4.14,rymq5q90co,2022-09-19 17:11:30.192,5b48f2d0ff7497000125165e,1,50,8,19,3,31,male,,,,,,1.0,learning,14.0,C,,red,,stars,,,,C,red,stars,,1.0,0.0,NA,right,544.0999999978,1.0,0.0,0.0,,,
103,0,,html-keyboard-response,103,338149,0.0-4.15-0.15,rymq5q90co,2022-09-19 17:11:30.192,5b48f2d0ff7497000125165e,1,50,8,19,3,31,male,,,"<img src=""static/images/cards/stack_of_black_stars.svg"" width=""175px"" height=""250px""></img>",,,,,,,,,,,,,,,,,,,,,,,,,,,,
104,0,,html-keyboard-response,104,339185,0.0-4.15-1.15,rymq5q90co,2022-09-19 17:11:30.192,5b48f2d0ff7497000125165e,1,50,8,19,3,31,male,533.3000000007,,"
  <table>
  <tr height=300>
    <td width=300 height=300><img src=""static/images/cards/back_of_black_stars.svg"" width=""175px"" height=""250px""></img></td>
    <td width=300 height=300><img src=""static/images/cards/back_of_black_stars.svg"" width=""175px"" height=""250px""></img></td>
  </tr>
  <tr height=200>
    <td width=300><img src=""static/images/keys/z.svg"" width=""35%"" height=""75%""></img></td>
    <td width=300></td>
  </tr>
</table>
  ",90.0,1.0,,,,,,,,,,,,,,,,,,,,,,,,,,
105,0,,html-keyboard-response,105,340688,0.0-4.15-2.15,rymq5q90co,2022-09-19 17:11:30.192,5b48f2d0ff7497000125165e,1,50,8,19,3,31,male,,,"
  <table>
  <tr height=300>
    <td width=300 height=300><img src=""static/images/cards/1_of_black_stars.svg"" width=""175px"" height=""250px""></img></td>
    <td width=300 height=300><img src=""static/images/cards/back_of_black_stars.svg"" width=""175px"" height=""250px""></img></td>
  </tr>
  <tr height=200>
    <td width=300><img src=""static/images/keys/z.svg"" width=""35%"" height=""75%""></img></td>
    <td width=300></td>
  </tr>
</table>
  ",,,,,,,,,,,,,,,,,,,,,,,,,,,,
106,0,,html-keyboard-response,106,342191,0.0-4.15-3.15,rymq5q90co,2022-09-19 17:11:30.192,5b48f2d0ff7497000125165e,1,50,8,19,3,31,male,,,"<p style=""font-size:50px"">You win!
+10 points this round!</p>",,,,,,,,,,,,,,,,,,,,,,,,,,,,
107,0,,html-keyboard-response,107,342698,0.0-4.15-4.15,rymq5q90co,2022-09-19 17:11:30.192,5b48f2d0ff7497000125165e,1,50,8,19,3,31,male,,,,,,1.0,learning,15.0,D,,black,,stars,,,,D,black,stars,,0.0,0.0,1,left,533.3000000007,1.0,0.0,1.0,,,
108,0,,html-keyboard-response,108,344200,0.0-4.16-0.16,rymq5q90co,2022-09-19 17:11:30.192,5b48f2d0ff7497000125165e,1,50,8,19,3,31,male,,,"<img src=""static/images/cards/stack_of_red_bolts.svg"" width=""175px"" height=""250px""></img>",,,,,,,,,,,,,,,,,,,,,,,,,,,,
109,0,,html-keyboard-response,109,345489,0.0-4.16-1.16,rymq5q90co,2022-09-19 17:11:30.192,5b48f2d0ff7497000125165e,1,50,8,19,3,31,male,786.5,,"
  <table>
  <tr height=300>
    <td width=300 height=300><img src=""static/images/cards/back_of_red_bolts.svg"" width=""175px"" height=""250px""></img></td>
    <td width=300 height=300><img src=""static/images/cards/back_of_red_bolts.svg"" width=""175px"" height=""250px""></img></td>
  </tr>
  <tr height=200>
    <td width=300><img src=""static/images/keys/z.svg"" width=""35%"" height=""75%""></img></td>
    <td width=300><img src=""static/images/keys/m.svg"" width=""35%"" height=""75%""></img></td>
  </tr>
</table>
  ",90.0,1.0,,,,,,,,,,,,,,,,,,,,,,,,,,
110,0,,html-keyboard-response,110,346992,0.0-4.16-2.16,rymq5q90co,2022-09-19 17:11:30.192,5b48f2d0ff7497000125165e,1,50,8,19,3,31,male,,,"
  <table>
  <tr height=300>
    <td width=300 height=300><img src=""static/images/cards/3_of_red_bolts.svg"" width=""175px"" height=""250px""></img></td>
    <td width=300 height=300><img src=""static/images/cards/back_of_red_bolts.svg"" width=""175px"" height=""250px""></img></td>
  </tr>
  <tr height=200>
    <td width=300><img src=""static/images/keys/z.svg"" width=""35%"" height=""75%""></img></td>
    <td width=300><img src=""static/images/keys/m.svg"" width=""35%"" height=""75%""></img></td>
  </tr>
</table>
  ",,,,,,,,,,,,,,,,,,,,,,,,,,,,
111,0,,html-keyboard-response,111,348495,0.0-4.16-3.16,rymq5q90co,2022-09-19 17:11:30.192,5b48f2d0ff7497000125165e,1,50,8,19,3,31,male,,,"<p style=""font-size:50px"">You win!
+10 points this round!</p>",,,,,,,,,,,,,,,,,,,,,,,,,,,,
112,0,,html-keyboard-response,112,349001,0.0-4.16-4.16,rymq5q90co,2022-09-19 17:11:30.192,5b48f2d0ff7497000125165e,1,50,8,19,3,31,male,,,,,,1.0,learning,16.0,Xc,,red,,bolts,,,,Xc,red,bolts,,1.0,0.0,NA,left,786.5,3.0,0.0,1.0,,,
113,0,,html-keyboard-response,113,350503,0.0-4.17-0.17,rymq5q90co,2022-09-19 17:11:30.192,5b48f2d0ff7497000125165e,1,50,8,19,3,31,male,,,"<img src=""static/images/cards/stack_of_black_bolts.svg"" width=""175px"" height=""250px""></img>",,,,,,,,,,,,,,,,,,,,,,,,,,,,
114,0,,html-keyboard-response,114,351407,0.0-4.17-1.17,rymq5q90co,2022-09-19 17:11:30.192,5b48f2d0ff7497000125165e,1,50,8,19,3,31,male,401.6999999993,,"
  <table>
  <tr height=300>
    <td width=300 height=300><img src=""static/images/cards/back_of_black_bolts.svg"" width=""175px"" height=""250px""></img></td>
    <td width=300 height=300><img src=""static/images/cards/back_of_black_bolts.svg"" width=""175px"" height=""250px""></img></td>
  </tr>
  <tr height=200>
    <td width=300><img src=""static/images/keys/z.svg"" width=""35%"" height=""75%""></img></td>
    <td width=300></td>
  </tr>
</table>
  ",90.0,1.0,,,,,,,,,,,,,,,,,,,,,,,,,,
115,0,,html-keyboard-response,115,352909,0.0-4.17-2.17,rymq5q90co,2022-09-19 17:11:30.192,5b48f2d0ff7497000125165e,1,50,8,19,3,31,male,,,"
  <table>
  <tr height=300>
    <td width=300 height=300><img src=""static/images/cards/6_of_black_bolts.svg"" width=""175px"" height=""250px""></img></td>
    <td width=300 height=300><img src=""static/images/cards/back_of_black_bolts.svg"" width=""175px"" height=""250px""></img></td>
  </tr>
  <tr height=200>
    <td width=300><img src=""static/images/keys/z.svg"" width=""35%"" height=""75%""></img></td>
    <td width=300></td>
  </tr>
</table>
  ",,,,,,,,,,,,,,,,,,,,,,,,,,,,
116,0,,html-keyboard-response,116,354412,0.0-4.17-3.17,rymq5q90co,2022-09-19 17:11:30.192,5b48f2d0ff7497000125165e,1,50,8,19,3,31,male,,,"<p style=""font-size:50px"">You win!
+10 points this round!</p>",,,,,,,,,,,,,,,,,,,,,,,,,,,,
117,0,,html-keyboard-response,117,354918,0.0-4.17-4.17,rymq5q90co,2022-09-19 17:11:30.192,5b48f2d0ff7497000125165e,1,50,8,19,3,31,male,,,,,,1.0,learning,17.0,Xnc,,black,,bolts,,,,Xnc,black,bolts,,0.0,0.0,1,left,401.6999999993,6.0,1.0,1.0,,,
118,0,,html-keyboard-response,118,356420,0.0-4.18-0.18,rymq5q90co,2022-09-19 17:11:30.192,5b48f2d0ff7497000125165e,1,50,8,19,3,31,male,,,"<img src=""static/images/cards/stack_of_red_moons.svg"" width=""175px"" height=""250px""></img>",,,,,,,,,,,,,,,,,,,,,,,,,,,,
119,0,,html-keyboard-response,119,357386,0.0-4.18-1.18,rymq5q90co,2022-09-19 17:11:30.192,5b48f2d0ff7497000125165e,1,50,8,19,3,31,male,463.5,,"
  <table>
  <tr height=300>
    <td width=300 height=300><img src=""static/images/cards/back_of_red_moons.svg"" width=""175px"" height=""250px""></img></td>
    <td width=300 height=300><img src=""static/images/cards/back_of_red_moons.svg"" width=""175px"" height=""250px""></img></td>
  </tr>
  <tr height=200>
    <td width=300><img src=""static/images/keys/z.svg"" width=""35%"" height=""75%""></img></td>
    <td width=300><img src=""static/images/keys/m.svg"" width=""35%"" height=""75%""></img></td>
  </tr>
</table>
  ",90.0,1.0,,,,,,,,,,,,,,,,,,,,,,,,,,
120,0,,html-keyboard-response,120,358889,0.0-4.18-2.18,rymq5q90co,2022-09-19 17:11:30.192,5b48f2d0ff7497000125165e,1,50,8,19,3,31,male,,,"
  <table>
  <tr height=300>
    <td width=300 height=300><img src=""static/images/cards/6_of_red_moons.svg"" width=""175px"" height=""250px""></img></td>
    <td width=300 height=300><img src=""static/images/cards/back_of_red_moons.svg"" width=""175px"" height=""250px""></img></td>
  </tr>
  <tr height=200>
    <td width=300><img src=""static/images/keys/z.svg"" width=""35%"" height=""75%""></img></td>
    <td width=300><img src=""static/images/keys/m.svg"" width=""35%"" height=""75%""></img></td>
  </tr>
</table>
  ",,,,,,,,,,,,,,,,,,,,,,,,,,,,
121,0,,html-keyboard-response,121,360392,0.0-4.18-3.18,rymq5q90co,2022-09-19 17:11:30.192,5b48f2d0ff7497000125165e,1,50,8,19,3,31,male,,,"<p style=""font-size:50px"">You win!
+10 points this round!</p>",,,,,,,,,,,,,,,,,,,,,,,,,,,,
122,0,,html-keyboard-response,122,360898,0.0-4.18-4.18,rymq5q90co,2022-09-19 17:11:30.192,5b48f2d0ff7497000125165e,1,50,8,19,3,31,male,,,,,,1.0,learning,18.0,A,,red,,moons,,,,A,red,moons,,1.0,1.0,NA,left,463.5,6.0,1.0,1.0,,,
123,0,,html-keyboard-response,123,362400,0.0-4.19-0.19,rymq5q90co,2022-09-19 17:11:30.192,5b48f2d0ff7497000125165e,1,50,8,19,3,31,male,,,"<img src=""static/images/cards/stack_of_black_moons.svg"" width=""175px"" height=""250px""></img>",,,,,,,,,,,,,,,,,,,,,,,,,,,,
124,0,,html-keyboard-response,124,363455,0.0-4.19-1.19,rymq5q90co,2022-09-19 17:11:30.192,5b48f2d0ff7497000125165e,1,50,8,19,3,31,male,552.8000000007,,"
  <table>
  <tr height=300>
    <td width=300 height=300><img src=""static/images/cards/back_of_black_moons.svg"" width=""175px"" height=""250px""></img></td>
    <td width=300 height=300><img src=""static/images/cards/back_of_black_moons.svg"" width=""175px"" height=""250px""></img></td>
  </tr>
  <tr height=200>
    <td width=300></td>
    <td width=300><img src=""static/images/keys/m.svg"" width=""35%"" height=""75%""></img></td>
  </tr>
</table>
  ",77.0,1.0,,,,,,,,,,,,,,,,,,,,,,,,,,
125,0,,html-keyboard-response,125,364957,0.0-4.19-2.19,rymq5q90co,2022-09-19 17:11:30.192,5b48f2d0ff7497000125165e,1,50,8,19,3,31,male,,,"
  <table>
  <tr height=300>
    <td width=300 height=300><img src=""static/images/cards/back_of_black_moons.svg"" width=""175px"" height=""250px""></img></td>
    <td width=300 height=300><img src=""static/images/cards/4_of_black_moons.svg"" width=""175px"" height=""250px""></img></td>
  </tr>
  <tr height=200>
    <td width=300></td>
    <td width=300><img src=""static/images/keys/m.svg"" width=""35%"" height=""75%""></img></td>
  </tr>
</table>
  ",,,,,,,,,,,,,,,,,,,,,,,,,,,,
126,0,,html-keyboard-response,126,366460,0.0-4.19-3.19,rymq5q90co,2022-09-19 17:11:30.192,5b48f2d0ff7497000125165e,1,50,8,19,3,31,male,,,"<p style=""font-size:50px"">You Lose!
No points this round.</p>",,,,,,,,,,,,,,,,,,,,,,,,,,,,
127,0,,html-keyboard-response,127,366968,0.0-4.19-4.19,rymq5q90co,2022-09-19 17:11:30.192,5b48f2d0ff7497000125165e,1,50,8,19,3,31,male,,,,,,1.0,learning,19.0,B,,black,,moons,,,,B,black,moons,,0.0,1.0,0,right,552.8000000007,4.0,0.0,0.0,,,
128,0,,html-keyboard-response,128,368470,0.0-4.20-0.20,rymq5q90co,2022-09-19 17:11:30.192,5b48f2d0ff7497000125165e,1,50,8,19,3,31,male,,,"<img src=""static/images/cards/stack_of_red_stars.svg"" width=""175px"" height=""250px""></img>",,,,,,,,,,,,,,,,,,,,,,,,,,,,
129,0,,html-keyboard-response,129,369515,0.0-4.20-1.20,rymq5q90co,2022-09-19 17:11:30.192,5b48f2d0ff7497000125165e,1,50,8,19,3,31,male,543.6999999993,,"
  <table>
  <tr height=300>
    <td width=300 height=300><img src=""static/images/cards/back_of_red_stars.svg"" width=""175px"" height=""250px""></img></td>
    <td width=300 height=300><img src=""static/images/cards/back_of_red_stars.svg"" width=""175px"" height=""250px""></img></td>
  </tr>
  <tr height=200>
    <td width=300><img src=""static/images/keys/z.svg"" width=""35%"" height=""75%""></img></td>
    <td width=300><img src=""static/images/keys/m.svg"" width=""35%"" height=""75%""></img></td>
  </tr>
</table>
  ",90.0,1.0,,,,,,,,,,,,,,,,,,,,,,,,,,
130,0,,html-keyboard-response,130,371018,0.0-4.20-2.20,rymq5q90co,2022-09-19 17:11:30.192,5b48f2d0ff7497000125165e,1,50,8,19,3,31,male,,,"
  <table>
  <tr height=300>
    <td width=300 height=300><img src=""static/images/cards/1_of_red_stars.svg"" width=""175px"" height=""250px""></img></td>
    <td width=300 height=300><img src=""static/images/cards/back_of_red_stars.svg"" width=""175px"" height=""250px""></img></td>
  </tr>
  <tr height=200>
    <td width=300><img src=""static/images/keys/z.svg"" width=""35%"" height=""75%""></img></td>
    <td width=300><img src=""static/images/keys/m.svg"" width=""35%"" height=""75%""></img></td>
  </tr>
</table>
  ",,,,,,,,,,,,,,,,,,,,,,,,,,,,
131,0,,html-keyboard-response,131,372521,0.0-4.20-3.20,rymq5q90co,2022-09-19 17:11:30.192,5b48f2d0ff7497000125165e,1,50,8,19,3,31,male,,,"<p style=""font-size:50px"">You win!
+10 points this round!</p>",,,,,,,,,,,,,,,,,,,,,,,,,,,,
132,0,,html-keyboard-response,132,373027,0.0-4.20-4.20,rymq5q90co,2022-09-19 17:11:30.192,5b48f2d0ff7497000125165e,1,50,8,19,3,31,male,,,,,,1.0,learning,20.0,C,,red,,stars,,,,C,red,stars,,1.0,0.0,NA,left,543.6999999993,1.0,0.0,1.0,,,
133,0,,html-keyboard-response,133,374529,0.0-4.21-0.21,rymq5q90co,2022-09-19 17:11:30.192,5b48f2d0ff7497000125165e,1,50,8,19,3,31,male,,,"<img src=""static/images/cards/stack_of_black_stars.svg"" width=""175px"" height=""250px""></img>",,,,,,,,,,,,,,,,,,,,,,,,,,,,
134,0,,html-keyboard-response,134,375495,0.0-4.21-1.21,rymq5q90co,2022-09-19 17:11:30.192,5b48f2d0ff7497000125165e,1,50,8,19,3,31,male,464.0,,"
  <table>
  <tr height=300>
    <td width=300 height=300><img src=""static/images/cards/back_of_black_stars.svg"" width=""175px"" height=""250px""></img></td>
    <td width=300 height=300><img src=""static/images/cards/back_of_black_stars.svg"" width=""175px"" height=""250px""></img></td>
  </tr>
  <tr height=200>
    <td width=300></td>
    <td width=300><img src=""static/images/keys/m.svg"" width=""35%"" height=""75%""></img></td>
  </tr>
</table>
  ",77.0,1.0,,,,,,,,,,,,,,,,,,,,,,,,,,
135,0,,html-keyboard-response,135,376997,0.0-4.21-2.21,rymq5q90co,2022-09-19 17:11:30.192,5b48f2d0ff7497000125165e,1,50,8,19,3,31,male,,,"
  <table>
  <tr height=300>
    <td width=300 height=300><img src=""static/images/cards/back_of_black_stars.svg"" width=""175px"" height=""250px""></img></td>
    <td width=300 height=300><img src=""static/images/cards/7_of_black_stars.svg"" width=""175px"" height=""250px""></img></td>
  </tr>
  <tr height=200>
    <td width=300></td>
    <td width=300><img src=""static/images/keys/m.svg"" width=""35%"" height=""75%""></img></td>
  </tr>
</table>
  ",,,,,,,,,,,,,,,,,,,,,,,,,,,,
136,0,,html-keyboard-response,136,378499,0.0-4.21-3.21,rymq5q90co,2022-09-19 17:11:30.192,5b48f2d0ff7497000125165e,1,50,8,19,3,31,male,,,"<p style=""font-size:50px"">You Lose!
No points this round.</p>",,,,,,,,,,,,,,,,,,,,,,,,,,,,
137,0,,html-keyboard-response,137,379006,0.0-4.21-4.21,rymq5q90co,2022-09-19 17:11:30.192,5b48f2d0ff7497000125165e,1,50,8,19,3,31,male,,,,,,1.0,learning,21.0,D,,black,,stars,,,,D,black,stars,,0.0,0.0,0,right,464.0,7.0,1.0,0.0,,,
138,0,,html-keyboard-response,138,380508,0.0-4.22-0.22,rymq5q90co,2022-09-19 17:11:30.192,5b48f2d0ff7497000125165e,1,50,8,19,3,31,male,,,"<img src=""static/images/cards/stack_of_red_bolts.svg"" width=""175px"" height=""250px""></img>",,,,,,,,,,,,,,,,,,,,,,,,,,,,
139,0,,html-keyboard-response,139,381403,0.0-4.22-1.22,rymq5q90co,2022-09-19 17:11:30.192,5b48f2d0ff7497000125165e,1,50,8,19,3,31,male,392.1999999993,,"
  <table>
  <tr height=300>
    <td width=300 height=300><img src=""static/images/cards/back_of_red_bolts.svg"" width=""175px"" height=""250px""></img></td>
    <td width=300 height=300><img src=""static/images/cards/back_of_red_bolts.svg"" width=""175px"" height=""250px""></img></td>
  </tr>
  <tr height=200>
    <td width=300><img src=""static/images/keys/z.svg"" width=""35%"" height=""75%""></img></td>
    <td width=300><img src=""static/images/keys/m.svg"" width=""35%"" height=""75%""></img></td>
  </tr>
</table>
  ",90.0,1.0,,,,,,,,,,,,,,,,,,,,,,,,,,
140,0,,html-keyboard-response,140,382905,0.0-4.22-2.22,rymq5q90co,2022-09-19 17:11:30.192,5b48f2d0ff7497000125165e,1,50,8,19,3,31,male,,,"
  <table>
  <tr height=300>
    <td width=300 height=300><img src=""static/images/cards/7_of_red_bolts.svg"" width=""175px"" height=""250px""></img></td>
    <td width=300 height=300><img src=""static/images/cards/back_of_red_bolts.svg"" width=""175px"" height=""250px""></img></td>
  </tr>
  <tr height=200>
    <td width=300><img src=""static/images/keys/z.svg"" width=""35%"" height=""75%""></img></td>
    <td width=300><img src=""static/images/keys/m.svg"" width=""35%"" height=""75%""></img></td>
  </tr>
</table>
  ",,,,,,,,,,,,,,,,,,,,,,,,,,,,
141,0,,html-keyboard-response,141,384408,0.0-4.22-3.22,rymq5q90co,2022-09-19 17:11:30.192,5b48f2d0ff7497000125165e,1,50,8,19,3,31,male,,,"<p style=""font-size:50px"">You win!
+10 points this round!</p>",,,,,,,,,,,,,,,,,,,,,,,,,,,,
142,0,,html-keyboard-response,142,384914,0.0-4.22-4.22,rymq5q90co,2022-09-19 17:11:30.192,5b48f2d0ff7497000125165e,1,50,8,19,3,31,male,,,,,,1.0,learning,22.0,Xc,,red,,bolts,,,,Xc,red,bolts,,1.0,0.0,NA,left,392.1999999993,7.0,1.0,1.0,,,
143,0,,html-keyboard-response,143,386416,0.0-4.23-0.23,rymq5q90co,2022-09-19 17:11:30.192,5b48f2d0ff7497000125165e,1,50,8,19,3,31,male,,,"<img src=""static/images/cards/stack_of_black_bolts.svg"" width=""175px"" height=""250px""></img>",,,,,,,,,,,,,,,,,,,,,,,,,,,,
144,0,,html-keyboard-response,144,387393,0.0-4.23-1.23,rymq5q90co,2022-09-19 17:11:30.192,5b48f2d0ff7497000125165e,1,50,8,19,3,31,male,475.0,,"
  <table>
  <tr height=300>
    <td width=300 height=300><img src=""static/images/cards/back_of_black_bolts.svg"" width=""175px"" height=""250px""></img></td>
    <td width=300 height=300><img src=""static/images/cards/back_of_black_bolts.svg"" width=""175px"" height=""250px""></img></td>
  </tr>
  <tr height=200>
    <td width=300></td>
    <td width=300><img src=""static/images/keys/m.svg"" width=""35%"" height=""75%""></img></td>
  </tr>
</table>
  ",77.0,1.0,,,,,,,,,,,,,,,,,,,,,,,,,,
145,0,,html-keyboard-response,145,388895,0.0-4.23-2.23,rymq5q90co,2022-09-19 17:11:30.192,5b48f2d0ff7497000125165e,1,50,8,19,3,31,male,,,"
  <table>
  <tr height=300>
    <td width=300 height=300><img src=""static/images/cards/back_of_black_bolts.svg"" width=""175px"" height=""250px""></img></td>
    <td width=300 height=300><img src=""static/images/cards/8_of_black_bolts.svg"" width=""175px"" height=""250px""></img></td>
  </tr>
  <tr height=200>
    <td width=300></td>
    <td width=300><img src=""static/images/keys/m.svg"" width=""35%"" height=""75%""></img></td>
  </tr>
</table>
  ",,,,,,,,,,,,,,,,,,,,,,,,,,,,
146,0,,html-keyboard-response,146,390397,0.0-4.23-3.23,rymq5q90co,2022-09-19 17:11:30.192,5b48f2d0ff7497000125165e,1,50,8,19,3,31,male,,,"<p style=""font-size:50px"">You win!
+10 points this round!</p>",,,,,,,,,,,,,,,,,,,,,,,,,,,,
147,0,,html-keyboard-response,147,390903,0.0-4.23-4.23,rymq5q90co,2022-09-19 17:11:30.192,5b48f2d0ff7497000125165e,1,50,8,19,3,31,male,,,,,,1.0,learning,23.0,Xnc,,black,,bolts,,,,Xnc,black,bolts,,0.0,0.0,0,right,475.0,8.0,1.0,1.0,,,
148,0,,call-function,148,390907,0.0-5.0,rymq5q90co,2022-09-19 17:11:30.192,5b48f2d0ff7497000125165e,1,50,8,19,3,31,male,,,,,,,,,,,,,,,,,,,,,,,,,,,,,,,
149,0,,image-keyboard-response,149,399889,0.0-6.0-0.0,rymq5q90co,2022-09-19 17:11:30.192,5b48f2d0ff7497000125165e,1,50,8,19,3,31,male,8982.0,,static/images/instructions_CB_1/Slide20.png,39.0,,,,,,,,,,,,,,,,,,,,,,,,,,,
150,0,,image-keyboard-response,150,408536,0.0-6.1-0.1,rymq5q90co,2022-09-19 17:11:30.192,5b48f2d0ff7497000125165e,1,50,8,19,3,31,male,8646.0999999978,,static/images/instructions_CB_1/Slide21.png,39.0,,,,,,,,,,,,,,,,,,,,,,,,,,,
151,0,,image-keyboard-response,151,414790,0.0-6.2-0.2,rymq5q90co,2022-09-19 17:11:30.192,5b48f2d0ff7497000125165e,1,50,8,19,3,31,male,6252.5,,static/images/instructions_CB_1/Slide22.png,39.0,,,,,,,,,,,,,,,,,,,,,,,,,,,
152,0,,image-keyboard-response,152,415627,0.0-6.3-0.3,rymq5q90co,2022-09-19 17:11:30.192,5b48f2d0ff7497000125165e,1,50,8,19,3,31,male,835.1999999993,,static/images/instructions_CB_1/Slide23.png,37.0,,,,,,,,,,,,,,,,,,,,,,,,,,,
153,0,,image-keyboard-response,153,423555,0.0-6.4-0.4,rymq5q90co,2022-09-19 17:11:30.192,5b48f2d0ff7497000125165e,1,50,8,19,3,31,male,7927.799999997,,static/images/instructions_CB_1/Slide22.png,37.0,,,,,,,,,,,,,,,,,,,,,,,,,,,
154,0,,image-keyboard-response,154,423945,0.0-6.5-0.5,rymq5q90co,2022-09-19 17:11:30.192,5b48f2d0ff7497000125165e,1,50,8,19,3,31,male,388.0999999978,,static/images/instructions_CB_1/Slide21.png,37.0,,,,,,,,,,,,,,,,,,,,,,,,,,,
155,0,,image-keyboard-response,155,424666,0.0-6.6-0.6,rymq5q90co,2022-09-19 17:11:30.192,5b48f2d0ff7497000125165e,1,50,8,19,3,31,male,720.5999999978,,static/images/instructions_CB_1/Slide20.png,37.0,,,,,,,,,,,,,,,,,,,,,,,,,,,
156,0,,image-keyboard-response,156,425890,0.0-6.7-0.7,rymq5q90co,2022-09-19 17:11:30.192,5b48f2d0ff7497000125165e,1,50,8,19,3,31,male,1222.8000000007,,static/images/instructions_CB_1/Slide19.png,39.0,,,,,,,,,,,,,,,,,,,,,,,,,,,
157,0,,image-keyboard-response,157,426421,0.0-6.8-0.8,rymq5q90co,2022-09-19 17:11:30.192,5b48f2d0ff7497000125165e,1,50,8,19,3,31,male,529.799999997,,static/images/instructions_CB_1/Slide20.png,39.0,,,,,,,,,,,,,,,,,,,,,,,,,,,
158,0,,image-keyboard-response,158,428929,0.0-6.9-0.9,rymq5q90co,2022-09-19 17:11:30.192,5b48f2d0ff7497000125165e,1,50,8,19,3,31,male,2506.9000000022,,static/images/instructions_CB_1/Slide21.png,39.0,,,,,,,,,,,,,,,,,,,,,,,,,,,
159,0,,image-keyboard-response,159,439152,0.0-6.10-0.10,rymq5q90co,2022-09-19 17:11:30.192,5b48f2d0ff7497000125165e,1,50,8,19,3,31,male,10221.9000000022,,static/images/instructions_CB_1/Slide22.png,39.0,,,,,,,,,,,,,,,,,,,,,,,,,,,
160,0,,image-keyboard-response,160,448060,0.0-6.11-0.11,rymq5q90co,2022-09-19 17:11:30.192,5b48f2d0ff7497000125165e,1,50,8,19,3,31,male,8907.1999999993,,static/images/instructions_CB_1/Slide23.png,39.0,,,,,,,,,,,,,,,,,,,,,,,,,,,
161,0,,image-keyboard-response,161,449728,0.0-6.12-0.12,rymq5q90co,2022-09-19 17:11:30.192,5b48f2d0ff7497000125165e,1,50,8,19,3,31,male,1666.3000000007,,static/images/instructions_CB_1/Slide24.png,39.0,,,,,,,,,,,,,,,,,,,,,,,,,,,
162,0,,html-keyboard-response,162,454081,0.0-7.0-0.0,rymq5q90co,2022-09-19 17:11:30.192,5b48f2d0ff7497000125165e,1,50,8,19,3,31,male,4351.3999999985,,"
  <table>
  <tr height=300>
    <td width=300 height=300><img src=""static/images/cards/stack_of_red_bolts.svg"" width=""175px"" height=""250px""></img></td>
    <td width=300 height=300><img src=""static/images/cards/stack_of_black_moons.svg"" width=""175px"" height=""250px""></img></td>
  </tr>
  <tr height=200>
    <td width=300><img src=""static/images/keys/w.svg"" width=""35%"" height=""75%""></img></td>
    <td width=300><img src=""static/images/keys/o.svg"" width=""35%"" height=""75%""></img></td>
  </tr>
</table>
  ",87.0,1.0,,,,,,,,,,,,,,,,,,,,,,,,,,
163,0,,html-keyboard-response,163,455995,0.0-7.0-1.0,rymq5q90co,2022-09-19 17:11:30.192,5b48f2d0ff7497000125165e,1,50,8,19,3,31,male,1410.5,,"
  <table>
  <tr height=300>
    <td width=300 height=300><img src=""static/images/cards/back_of_red_bolts.svg"" width=""175px"" height=""250px""></img></td>
    <td width=300 height=300><img src=""static/images/cards/back_of_red_bolts.svg"" width=""175px"" height=""250px""></img></td>
  </tr>
  <tr height=200>
    <td width=300><img src=""static/images/keys/z.svg"" width=""35%"" height=""75%""></img></td>
    <td width=300><img src=""static/images/keys/m.svg"" width=""35%"" height=""75%""></img></td>
  </tr>
</table>
  ",90.0,2.0,,,,,,,,,,,,,,,,,,,,,,,,,,
164,0,,html-keyboard-response,164,457499,0.0-7.0-2.0,rymq5q90co,2022-09-19 17:11:30.192,5b48f2d0ff7497000125165e,1,50,8,19,3,31,male,,,"
  <table>
  <tr height=300>
    <td width=300 height=300><img src=""static/images/cards/6_of_red_bolts.svg"" width=""175px"" height=""250px""></img></td>
    <td width=300 height=300><img src=""static/images/cards/back_of_red_bolts.svg"" width=""175px"" height=""250px""></img></td>
  </tr>
  <tr height=200>
    <td width=300><img src=""static/images/keys/z.svg"" width=""35%"" height=""75%""></img></td>
    <td width=300><img src=""static/images/keys/m.svg"" width=""35%"" height=""75%""></img></td>
  </tr>
</table>
  ",,,,,,,,,,,,,,,,,,,,,,,,,,,,
165,0,,html-keyboard-response,165,459001,0.0-7.0-3.0,rymq5q90co,2022-09-19 17:11:30.192,5b48f2d0ff7497000125165e,1,50,8,19,3,31,male,,,"<p style=""font-size:50px"">You win!
+10 points this round!</p>",,,,,,,,,,,,,,,,,,,,,,,,,,,,
166,0,,html-keyboard-response,166,459509,0.0-7.0-4.0,rymq5q90co,2022-09-19 17:11:30.192,5b48f2d0ff7497000125165e,1,50,8,19,3,31,male,,,,,,1.0,choice,0.0,B,Xc,red,black,bolts,moons,Xc,B,Xc,red,bolts,4351.3999999985,1.0,0.0,NA,left,1410.5,6.0,1.0,1.0,,,
167,0,,html-keyboard-response,167,461142,0.0-7.1-0.1,rymq5q90co,2022-09-19 17:11:30.192,5b48f2d0ff7497000125165e,1,50,8,19,3,31,male,1631.8000000007,,"
  <table>
  <tr height=300>
    <td width=300 height=300><img src=""static/images/cards/stack_of_red_stars.svg"" width=""175px"" height=""250px""></img></td>
    <td width=300 height=300><img src=""static/images/cards/stack_of_red_bolts.svg"" width=""175px"" height=""250px""></img></td>
  </tr>
  <tr height=200>
    <td width=300><img src=""static/images/keys/w.svg"" width=""35%"" height=""75%""></img></td>
    <td width=300><img src=""static/images/keys/o.svg"" width=""35%"" height=""75%""></img></td>
  </tr>
</table>
  ",79.0,2.0,,,,,,,,,,,,,,,,,,,,,,,,,,
168,0,,html-keyboard-response,168,462647,0.0-7.1-1.1,rymq5q90co,2022-09-19 17:11:30.192,5b48f2d0ff7497000125165e,1,50,8,19,3,31,male,1001.9000000022,,"
  <table>
  <tr height=300>
    <td width=300 height=300><img src=""static/images/cards/back_of_red_bolts.svg"" width=""175px"" height=""250px""></img></td>
    <td width=300 height=300><img src=""static/images/cards/back_of_red_bolts.svg"" width=""175px"" height=""250px""></img></td>
  </tr>
  <tr height=200>
    <td width=300><img src=""static/images/keys/z.svg"" width=""35%"" height=""75%""></img></td>
    <td width=300><img src=""static/images/keys/m.svg"" width=""35%"" height=""75%""></img></td>
  </tr>
</table>
  ",77.0,1.0,,,,,,,,,,,,,,,,,,,,,,,,,,
169,0,,html-keyboard-response,169,464150,0.0-7.1-2.1,rymq5q90co,2022-09-19 17:11:30.192,5b48f2d0ff7497000125165e,1,50,8,19,3,31,male,,,"
  <table>
  <tr height=300>
    <td width=300 height=300><img src=""static/images/cards/back_of_red_bolts.svg"" width=""175px"" height=""250px""></img></td>
    <td width=300 height=300><img src=""static/images/cards/9_of_red_bolts.svg"" width=""175px"" height=""250px""></img></td>
  </tr>
  <tr height=200>
    <td width=300><img src=""static/images/keys/z.svg"" width=""35%"" height=""75%""></img></td>
    <td width=300><img src=""static/images/keys/m.svg"" width=""35%"" height=""75%""></img></td>
  </tr>
</table>
  ",,,,,,,,,,,,,,,,,,,,,,,,,,,,
170,0,,html-keyboard-response,170,465653,0.0-7.1-3.1,rymq5q90co,2022-09-19 17:11:30.192,5b48f2d0ff7497000125165e,1,50,8,19,3,31,male,,,"<p style=""font-size:50px"">You win!
+10 points this round!</p>",,,,,,,,,,,,,,,,,,,,,,,,,,,,
171,0,,html-keyboard-response,171,466160,0.0-7.1-4.1,rymq5q90co,2022-09-19 17:11:30.192,5b48f2d0ff7497000125165e,1,50,8,19,3,31,male,,,,,,1.0,choice,1.0,C,Xc,red,red,stars,bolts,C,Xc,Xc,red,bolts,1631.8000000007,1.0,0.0,NA,right,1001.9000000022,9.0,1.0,1.0,,,
172,0,,html-keyboard-response,172,467635,0.0-7.2-0.2,rymq5q90co,2022-09-19 17:11:30.192,5b48f2d0ff7497000125165e,1,50,8,19,3,31,male,1473.3000000007,,"
  <table>
  <tr height=300>
    <td width=300 height=300><img src=""static/images/cards/stack_of_black_moons.svg"" width=""175px"" height=""250px""></img></td>
    <td width=300 height=300><img src=""static/images/cards/stack_of_red_stars.svg"" width=""175px"" height=""250px""></img></td>
  </tr>
  <tr height=200>
    <td width=300><img src=""static/images/keys/w.svg"" width=""35%"" height=""75%""></img></td>
    <td width=300><img src=""static/images/keys/o.svg"" width=""35%"" height=""75%""></img></td>
  </tr>
</table>
  ",87.0,1.0,,,,,,,,,,,,,,,,,,,,,,,,,,
173,0,,html-keyboard-response,173,468814,0.0-7.2-1.2,rymq5q90co,2022-09-19 17:11:30.192,5b48f2d0ff7497000125165e,1,50,8,19,3,31,male,675.3000000007,,"
  <table>
  <tr height=300>
    <td width=300 height=300><img src=""static/images/cards/back_of_black_moons.svg"" width=""175px"" height=""250px""></img></td>
    <td width=300 height=300><img src=""static/images/cards/back_of_black_moons.svg"" width=""175px"" height=""250px""></img></td>
  </tr>
  <tr height=200>
    <td width=300></td>
    <td width=300><img src=""static/images/keys/m.svg"" width=""35%"" height=""75%""></img></td>
  </tr>
</table>
  ",77.0,1.0,,,,,,,,,,,,,,,,,,,,,,,,,,
174,0,,html-keyboard-response,174,470316,0.0-7.2-2.2,rymq5q90co,2022-09-19 17:11:30.192,5b48f2d0ff7497000125165e,1,50,8,19,3,31,male,,,"
  <table>
  <tr height=300>
    <td width=300 height=300><img src=""static/images/cards/back_of_black_moons.svg"" width=""175px"" height=""250px""></img></td>
    <td width=300 height=300><img src=""static/images/cards/8_of_black_moons.svg"" width=""175px"" height=""250px""></img></td>
  </tr>
  <tr height=200>
    <td width=300></td>
    <td width=300><img src=""static/images/keys/m.svg"" width=""35%"" height=""75%""></img></td>
  </tr>
</table>
  ",,,,,,,,,,,,,,,,,,,,,,,,,,,,
175,0,,html-keyboard-response,175,471818,0.0-7.2-3.2,rymq5q90co,2022-09-19 17:11:30.192,5b48f2d0ff7497000125165e,1,50,8,19,3,31,male,,,"<p style=""font-size:50px"">You win!
+10 points this round!</p>",,,,,,,,,,,,,,,,,,,,,,,,,,,,
176,0,,html-keyboard-response,176,472324,0.0-7.2-4.2,rymq5q90co,2022-09-19 17:11:30.192,5b48f2d0ff7497000125165e,1,50,8,19,3,31,male,,,,,,1.0,choice,2.0,B,C,black,red,moons,stars,B,C,B,black,moons,1473.3000000007,0.0,1.0,0,right,675.3000000007,8.0,1.0,1.0,,,
177,0,,html-keyboard-response,177,473545,0.0-7.3-0.3,rymq5q90co,2022-09-19 17:11:30.192,5b48f2d0ff7497000125165e,1,50,8,19,3,31,male,1219.1999999993,,"
  <table>
  <tr height=300>
    <td width=300 height=300><img src=""static/images/cards/stack_of_black_stars.svg"" width=""175px"" height=""250px""></img></td>
    <td width=300 height=300><img src=""static/images/cards/stack_of_red_stars.svg"" width=""175px"" height=""250px""></img></td>
  </tr>
  <tr height=200>
    <td width=300><img src=""static/images/keys/w.svg"" width=""35%"" height=""75%""></img></td>
    <td width=300><img src=""static/images/keys/o.svg"" width=""35%"" height=""75%""></img></td>
  </tr>
</table>
  ",87.0,1.0,,,,,,,,,,,,,,,,,,,,,,,,,,
178,0,,html-keyboard-response,178,474469,0.0-7.3-1.3,rymq5q90co,2022-09-19 17:11:30.192,5b48f2d0ff7497000125165e,1,50,8,19,3,31,male,422.1999999993,,"
  <table>
  <tr height=300>
    <td width=300 height=300><img src=""static/images/cards/back_of_black_stars.svg"" width=""175px"" height=""250px""></img></td>
    <td width=300 height=300><img src=""static/images/cards/back_of_black_stars.svg"" width=""175px"" height=""250px""></img></td>
  </tr>
  <tr height=200>
    <td width=300></td>
    <td width=300><img src=""static/images/keys/m.svg"" width=""35%"" height=""75%""></img></td>
  </tr>
</table>
  ",77.0,1.0,,,,,,,,,,,,,,,,,,,,,,,,,,
179,0,,html-keyboard-response,179,475972,0.0-7.3-2.3,rymq5q90co,2022-09-19 17:11:30.192,5b48f2d0ff7497000125165e,1,50,8,19,3,31,male,,,"
  <table>
  <tr height=300>
    <td width=300 height=300><img src=""static/images/cards/back_of_black_stars.svg"" width=""175px"" height=""250px""></img></td>
    <td width=300 height=300><img src=""static/images/cards/6_of_black_stars.svg"" width=""175px"" height=""250px""></img></td>
  </tr>
  <tr height=200>
    <td width=300></td>
    <td width=300><img src=""static/images/keys/m.svg"" width=""35%"" height=""75%""></img></td>
  </tr>
</table>
  ",,,,,,,,,,,,,,,,,,,,,,,,,,,,
180,0,,html-keyboard-response,180,477475,0.0-7.3-3.3,rymq5q90co,2022-09-19 17:11:30.192,5b48f2d0ff7497000125165e,1,50,8,19,3,31,male,,,"<p style=""font-size:50px"">You Lose!
No points this round.</p>",,,,,,,,,,,,,,,,,,,,,,,,,,,,
181,0,,html-keyboard-response,181,477980,0.0-7.3-4.3,rymq5q90co,2022-09-19 17:11:30.192,5b48f2d0ff7497000125165e,1,50,8,19,3,31,male,,,,,,1.0,choice,3.0,C,D,black,red,stars,stars,D,C,D,black,stars,1219.1999999993,0.0,0.0,0,right,422.1999999993,6.0,1.0,0.0,,,
182,0,,html-keyboard-response,182,479737,0.0-7.4-0.4,rymq5q90co,2022-09-19 17:11:30.192,5b48f2d0ff7497000125165e,1,50,8,19,3,31,male,1755.1999999993,,"
  <table>
  <tr height=300>
    <td width=300 height=300><img src=""static/images/cards/stack_of_black_stars.svg"" width=""175px"" height=""250px""></img></td>
    <td width=300 height=300><img src=""static/images/cards/stack_of_black_moons.svg"" width=""175px"" height=""250px""></img></td>
  </tr>
  <tr height=200>
    <td width=300><img src=""static/images/keys/w.svg"" width=""35%"" height=""75%""></img></td>
    <td width=300><img src=""static/images/keys/o.svg"" width=""35%"" height=""75%""></img></td>
  </tr>
</table>
  ",79.0,1.0,,,,,,,,,,,,,,,,,,,,,,,,,,
183,0,,html-keyboard-response,183,480846,0.0-7.4-1.4,rymq5q90co,2022-09-19 17:11:30.192,5b48f2d0ff7497000125165e,1,50,8,19,3,31,male,605.3000000007,,"
  <table>
  <tr height=300>
    <td width=300 height=300><img src=""static/images/cards/back_of_black_moons.svg"" width=""175px"" height=""250px""></img></td>
    <td width=300 height=300><img src=""static/images/cards/back_of_black_moons.svg"" width=""175px"" height=""250px""></img></td>
  </tr>
  <tr height=200>
    <td width=300><img src=""static/images/keys/z.svg"" width=""35%"" height=""75%""></img></td>
    <td width=300></td>
  </tr>
</table>
  ",90.0,1.0,,,,,,,,,,,,,,,,,,,,,,,,,,
184,0,,html-keyboard-response,184,482348,0.0-7.4-2.4,rymq5q90co,2022-09-19 17:11:30.192,5b48f2d0ff7497000125165e,1,50,8,19,3,31,male,,,"
  <table>
  <tr height=300>
    <td width=300 height=300><img src=""static/images/cards/3_of_black_moons.svg"" width=""175px"" height=""250px""></img></td>
    <td width=300 height=300><img src=""static/images/cards/back_of_black_moons.svg"" width=""175px"" height=""250px""></img></td>
  </tr>
  <tr height=200>
    <td width=300><img src=""static/images/keys/z.svg"" width=""35%"" height=""75%""></img></td>
    <td width=300></td>
  </tr>
</table>
  ",,,,,,,,,,,,,,,,,,,,,,,,,,,,
185,0,,html-keyboard-response,185,483851,0.0-7.4-3.4,rymq5q90co,2022-09-19 17:11:30.192,5b48f2d0ff7497000125165e,1,50,8,19,3,31,male,,,"<p style=""font-size:50px"">You Lose!
No points this round.</p>",,,,,,,,,,,,,,,,,,,,,,,,,,,,
186,0,,html-keyboard-response,186,484359,0.0-7.4-4.4,rymq5q90co,2022-09-19 17:11:30.192,5b48f2d0ff7497000125165e,1,50,8,19,3,31,male,,,,,,1.0,choice,4.0,B,D,black,black,stars,moons,D,B,B,black,moons,1755.1999999993,0.0,1.0,1,left,605.3000000007,3.0,0.0,0.0,,,
187,0,,html-keyboard-response,187,485946,0.0-7.5-0.5,rymq5q90co,2022-09-19 17:11:30.192,5b48f2d0ff7497000125165e,1,50,8,19,3,31,male,1585.0999999978,,"
  <table>
  <tr height=300>
    <td width=300 height=300><img src=""static/images/cards/stack_of_black_stars.svg"" width=""175px"" height=""250px""></img></td>
    <td width=300 height=300><img src=""static/images/cards/stack_of_red_moons.svg"" width=""175px"" height=""250px""></img></td>
  </tr>
  <tr height=200>
    <td width=300><img src=""static/images/keys/w.svg"" width=""35%"" height=""75%""></img></td>
    <td width=300><img src=""static/images/keys/o.svg"" width=""35%"" height=""75%""></img></td>
  </tr>
</table>
  ",79.0,1.0,,,,,,,,,,,,,,,,,,,,,,,,,,
188,0,,html-keyboard-response,188,486904,0.0-7.5-1.5,rymq5q90co,2022-09-19 17:11:30.192,5b48f2d0ff7497000125165e,1,50,8,19,3,31,male,456.1999999993,,"
  <table>
  <tr height=300>
    <td width=300 height=300><img src=""static/images/cards/back_of_red_moons.svg"" width=""175px"" height=""250px""></img></td>
    <td width=300 height=300><img src=""static/images/cards/back_of_red_moons.svg"" width=""175px"" height=""250px""></img></td>
  </tr>
  <tr height=200>
    <td width=300><img src=""static/images/keys/z.svg"" width=""35%"" height=""75%""></img></td>
    <td width=300><img src=""static/images/keys/m.svg"" width=""35%"" height=""75%""></img></td>
  </tr>
</table>
  ",90.0,1.0,,,,,,,,,,,,,,,,,,,,,,,,,,
189,0,,html-keyboard-response,189,488408,0.0-7.5-2.5,rymq5q90co,2022-09-19 17:11:30.192,5b48f2d0ff7497000125165e,1,50,8,19,3,31,male,,,"
  <table>
  <tr height=300>
    <td width=300 height=300><img src=""static/images/cards/1_of_red_moons.svg"" width=""175px"" height=""250px""></img></td>
    <td width=300 height=300><img src=""static/images/cards/back_of_red_moons.svg"" width=""175px"" height=""250px""></img></td>
  </tr>
  <tr height=200>
    <td width=300><img src=""static/images/keys/z.svg"" width=""35%"" height=""75%""></img></td>
    <td width=300><img src=""static/images/keys/m.svg"" width=""35%"" height=""75%""></img></td>
  </tr>
</table>
  ",,,,,,,,,,,,,,,,,,,,,,,,,,,,
190,0,,html-keyboard-response,190,489911,0.0-7.5-3.5,rymq5q90co,2022-09-19 17:11:30.192,5b48f2d0ff7497000125165e,1,50,8,19,3,31,male,,,"<p style=""font-size:50px"">You Lose!
No points this round.</p>",,,,,,,,,,,,,,,,,,,,,,,,,,,,
191,0,,html-keyboard-response,191,490418,0.0-7.5-4.5,rymq5q90co,2022-09-19 17:11:30.192,5b48f2d0ff7497000125165e,1,50,8,19,3,31,male,,,,,,1.0,choice,5.0,A,D,black,red,stars,moons,D,A,A,red,moons,1585.0999999978,1.0,1.0,NA,left,456.1999999993,1.0,0.0,0.0,,,
192,0,,html-keyboard-response,192,491609,0.0-7.6-0.6,rymq5q90co,2022-09-19 17:11:30.192,5b48f2d0ff7497000125165e,1,50,8,19,3,31,male,1189.4000000022,,"
  <table>
  <tr height=300>
    <td width=300 height=300><img src=""static/images/cards/stack_of_black_moons.svg"" width=""175px"" height=""250px""></img></td>
    <td width=300 height=300><img src=""static/images/cards/stack_of_red_moons.svg"" width=""175px"" height=""250px""></img></td>
  </tr>
  <tr height=200>
    <td width=300><img src=""static/images/keys/w.svg"" width=""35%"" height=""75%""></img></td>
    <td width=300><img src=""static/images/keys/o.svg"" width=""35%"" height=""75%""></img></td>
  </tr>
</table>
  ",87.0,1.0,,,,,,,,,,,,,,,,,,,,,,,,,,
193,0,,html-keyboard-response,193,492643,0.0-7.6-1.6,rymq5q90co,2022-09-19 17:11:30.192,5b48f2d0ff7497000125165e,1,50,8,19,3,31,male,531.5,,"
  <table>
  <tr height=300>
    <td width=300 height=300><img src=""static/images/cards/back_of_black_moons.svg"" width=""175px"" height=""250px""></img></td>
    <td width=300 height=300><img src=""static/images/cards/back_of_black_moons.svg"" width=""175px"" height=""250px""></img></td>
  </tr>
  <tr height=200>
    <td width=300><img src=""static/images/keys/z.svg"" width=""35%"" height=""75%""></img></td>
    <td width=300></td>
  </tr>
</table>
  ",90.0,1.0,,,,,,,,,,,,,,,,,,,,,,,,,,
194,0,,html-keyboard-response,194,494146,0.0-7.6-2.6,rymq5q90co,2022-09-19 17:11:30.192,5b48f2d0ff7497000125165e,1,50,8,19,3,31,male,,,"
  <table>
  <tr height=300>
    <td width=300 height=300><img src=""static/images/cards/2_of_black_moons.svg"" width=""175px"" height=""250px""></img></td>
    <td width=300 height=300><img src=""static/images/cards/back_of_black_moons.svg"" width=""175px"" height=""250px""></img></td>
  </tr>
  <tr height=200>
    <td width=300><img src=""static/images/keys/z.svg"" width=""35%"" height=""75%""></img></td>
    <td width=300></td>
  </tr>
</table>
  ",,,,,,,,,,,,,,,,,,,,,,,,,,,,
195,0,,html-keyboard-response,195,495649,0.0-7.6-3.6,rymq5q90co,2022-09-19 17:11:30.192,5b48f2d0ff7497000125165e,1,50,8,19,3,31,male,,,"<p style=""font-size:50px"">You Lose!
No points this round.</p>",,,,,,,,,,,,,,,,,,,,,,,,,,,,
196,0,,html-keyboard-response,196,496156,0.0-7.6-4.6,rymq5q90co,2022-09-19 17:11:30.192,5b48f2d0ff7497000125165e,1,50,8,19,3,31,male,,,,,,1.0,choice,6.0,A,B,black,red,moons,moons,B,A,B,black,moons,1189.4000000022,0.0,1.0,1,left,531.5,2.0,0.0,0.0,,,
197,0,,html-keyboard-response,197,497269,0.0-7.7-0.7,rymq5q90co,2022-09-19 17:11:30.192,5b48f2d0ff7497000125165e,1,50,8,19,3,31,male,1111.1999999993,,"
  <table>
  <tr height=300>
    <td width=300 height=300><img src=""static/images/cards/stack_of_black_bolts.svg"" width=""175px"" height=""250px""></img></td>
    <td width=300 height=300><img src=""static/images/cards/stack_of_black_moons.svg"" width=""175px"" height=""250px""></img></td>
  </tr>
  <tr height=200>
    <td width=300><img src=""static/images/keys/w.svg"" width=""35%"" height=""75%""></img></td>
    <td width=300><img src=""static/images/keys/o.svg"" width=""35%"" height=""75%""></img></td>
  </tr>
</table>
  ",87.0,1.0,,,,,,,,,,,,,,,,,,,,,,,,,,
198,0,,html-keyboard-response,198,498538,0.0-7.7-1.7,rymq5q90co,2022-09-19 17:11:30.192,5b48f2d0ff7497000125165e,1,50,8,19,3,31,male,766.3999999985,,"
  <table>
  <tr height=300>
    <td width=300 height=300><img src=""static/images/cards/back_of_black_bolts.svg"" width=""175px"" height=""250px""></img></td>
    <td width=300 height=300><img src=""static/images/cards/back_of_black_bolts.svg"" width=""175px"" height=""250px""></img></td>
  </tr>
  <tr height=200>
    <td width=300></td>
    <td width=300><img src=""static/images/keys/m.svg"" width=""35%"" height=""75%""></img></td>
  </tr>
</table>
  ",77.0,1.0,,,,,,,,,,,,,,,,,,,,,,,,,,
199,0,,html-keyboard-response,199,500041,0.0-7.7-2.7,rymq5q90co,2022-09-19 17:11:30.192,5b48f2d0ff7497000125165e,1,50,8,19,3,31,male,,,"
  <table>
  <tr height=300>
    <td width=300 height=300><img src=""static/images/cards/back_of_black_bolts.svg"" width=""175px"" height=""250px""></img></td>
    <td width=300 height=300><img src=""static/images/cards/7_of_black_bolts.svg"" width=""175px"" height=""250px""></img></td>
  </tr>
  <tr height=200>
    <td width=300></td>
    <td width=300><img src=""static/images/keys/m.svg"" width=""35%"" height=""75%""></img></td>
  </tr>
</table>
  ",,,,,,,,,,,,,,,,,,,,,,,,,,,,
200,0,,html-keyboard-response,200,501543,0.0-7.7-3.7,rymq5q90co,2022-09-19 17:11:30.192,5b48f2d0ff7497000125165e,1,50,8,19,3,31,male,,,"<p style=""font-size:50px"">You win!
+10 points this round!</p>",,,,,,,,,,,,,,,,,,,,,,,,,,,,
201,0,,html-keyboard-response,201,502050,0.0-7.7-4.7,rymq5q90co,2022-09-19 17:11:30.192,5b48f2d0ff7497000125165e,1,50,8,19,3,31,male,,,,,,1.0,choice,7.0,B,Xnc,black,black,bolts,moons,Xnc,B,Xnc,black,bolts,1111.1999999993,0.0,0.0,0,right,766.3999999985,7.0,1.0,1.0,,,
202,0,,html-keyboard-response,202,504348,0.0-7.8-0.8,rymq5q90co,2022-09-19 17:11:30.192,5b48f2d0ff7497000125165e,1,50,8,19,3,31,male,2296.1999999993,,"
  <table>
  <tr height=300>
    <td width=300 height=300><img src=""static/images/cards/stack_of_red_stars.svg"" width=""175px"" height=""250px""></img></td>
    <td width=300 height=300><img src=""static/images/cards/stack_of_black_stars.svg"" width=""175px"" height=""250px""></img></td>
  </tr>
  <tr height=200>
    <td width=300><img src=""static/images/keys/w.svg"" width=""35%"" height=""75%""></img></td>
    <td width=300><img src=""static/images/keys/o.svg"" width=""35%"" height=""75%""></img></td>
  </tr>
</table>
  ",79.0,1.0,,,,,,,,,,,,,,,,,,,,,,,,,,
203,0,,html-keyboard-response,203,505551,0.0-7.8-1.8,rymq5q90co,2022-09-19 17:11:30.192,5b48f2d0ff7497000125165e,1,50,8,19,3,31,male,700.200000003,,"
  <table>
  <tr height=300>
    <td width=300 height=300><img src=""static/images/cards/back_of_black_stars.svg"" width=""175px"" height=""250px""></img></td>
    <td width=300 height=300><img src=""static/images/cards/back_of_black_stars.svg"" width=""175px"" height=""250px""></img></td>
  </tr>
  <tr height=200>
    <td width=300><img src=""static/images/keys/z.svg"" width=""35%"" height=""75%""></img></td>
    <td width=300></td>
  </tr>
</table>
  ",90.0,1.0,,,,,,,,,,,,,,,,,,,,,,,,,,
204,0,,html-keyboard-response,204,507054,0.0-7.8-2.8,rymq5q90co,2022-09-19 17:11:30.192,5b48f2d0ff7497000125165e,1,50,8,19,3,31,male,,,"
  <table>
  <tr height=300>
    <td width=300 height=300><img src=""static/images/cards/7_of_black_stars.svg"" width=""175px"" height=""250px""></img></td>
    <td width=300 height=300><img src=""static/images/cards/back_of_black_stars.svg"" width=""175px"" height=""250px""></img></td>
  </tr>
  <tr height=200>
    <td width=300><img src=""static/images/keys/z.svg"" width=""35%"" height=""75%""></img></td>
    <td width=300></td>
  </tr>
</table>
  ",,,,,,,,,,,,,,,,,,,,,,,,,,,,
205,0,,html-keyboard-response,205,508557,0.0-7.8-3.8,rymq5q90co,2022-09-19 17:11:30.192,5b48f2d0ff7497000125165e,1,50,8,19,3,31,male,,,"<p style=""font-size:50px"">You Lose!
No points this round.</p>",,,,,,,,,,,,,,,,,,,,,,,,,,,,
206,0,,html-keyboard-response,206,509063,0.0-7.8-4.8,rymq5q90co,2022-09-19 17:11:30.192,5b48f2d0ff7497000125165e,1,50,8,19,3,31,male,,,,,,1.0,choice,8.0,C,D,red,black,stars,stars,C,D,D,black,stars,2296.1999999993,0.0,0.0,1,left,700.200000003,7.0,1.0,0.0,,,
207,0,,html-keyboard-response,207,511849,0.0-7.9-0.9,rymq5q90co,2022-09-19 17:11:30.192,5b48f2d0ff7497000125165e,1,50,8,19,3,31,male,2784.8000000007,,"
  <table>
  <tr height=300>
    <td width=300 height=300><img src=""static/images/cards/stack_of_black_stars.svg"" width=""175px"" height=""250px""></img></td>
    <td width=300 height=300><img src=""static/images/cards/stack_of_black_moons.svg"" width=""175px"" height=""250px""></img></td>
  </tr>
  <tr height=200>
    <td width=300><img src=""static/images/keys/w.svg"" width=""35%"" height=""75%""></img></td>
    <td width=300><img src=""static/images/keys/o.svg"" width=""35%"" height=""75%""></img></td>
  </tr>
</table>
  ",79.0,1.0,,,,,,,,,,,,,,,,,,,,,,,,,,
208,0,,html-keyboard-response,208,512765,0.0-7.9-1.9,rymq5q90co,2022-09-19 17:11:30.192,5b48f2d0ff7497000125165e,1,50,8,19,3,31,male,412.6000000015,,"
  <table>
  <tr height=300>
    <td width=300 height=300><img src=""static/images/cards/back_of_black_moons.svg"" width=""175px"" height=""250px""></img></td>
    <td width=300 height=300><img src=""static/images/cards/back_of_black_moons.svg"" width=""175px"" height=""250px""></img></td>
  </tr>
  <tr height=200>
    <td width=300></td>
    <td width=300><img src=""static/images/keys/m.svg"" width=""35%"" height=""75%""></img></td>
  </tr>
</table>
  ",77.0,1.0,,,,,,,,,,,,,,,,,,,,,,,,,,
209,0,,html-keyboard-response,209,514267,0.0-7.9-2.9,rymq5q90co,2022-09-19 17:11:30.192,5b48f2d0ff7497000125165e,1,50,8,19,3,31,male,,,"
  <table>
  <tr height=300>
    <td width=300 height=300><img src=""static/images/cards/back_of_black_moons.svg"" width=""175px"" height=""250px""></img></td>
    <td width=300 height=300><img src=""static/images/cards/1_of_black_moons.svg"" width=""175px"" height=""250px""></img></td>
  </tr>
  <tr height=200>
    <td width=300></td>
    <td width=300><img src=""static/images/keys/m.svg"" width=""35%"" height=""75%""></img></td>
  </tr>
</table>
  ",,,,,,,,,,,,,,,,,,,,,,,,,,,,
210,0,,html-keyboard-response,210,515770,0.0-7.9-3.9,rymq5q90co,2022-09-19 17:11:30.192,5b48f2d0ff7497000125165e,1,50,8,19,3,31,male,,,"<p style=""font-size:50px"">You Lose!
No points this round.</p>",,,,,,,,,,,,,,,,,,,,,,,,,,,,
211,0,,html-keyboard-response,211,516277,0.0-7.9-4.9,rymq5q90co,2022-09-19 17:11:30.192,5b48f2d0ff7497000125165e,1,50,8,19,3,31,male,,,,,,1.0,choice,9.0,B,D,black,black,stars,moons,D,B,B,black,moons,2784.8000000007,0.0,1.0,0,right,412.6000000015,1.0,0.0,0.0,,,
212,0,,html-keyboard-response,212,517437,0.0-7.10-0.10,rymq5q90co,2022-09-19 17:11:30.192,5b48f2d0ff7497000125165e,1,50,8,19,3,31,male,1158.3999999985,,"
  <table>
  <tr height=300>
    <td width=300 height=300><img src=""static/images/cards/stack_of_red_moons.svg"" width=""175px"" height=""250px""></img></td>
    <td width=300 height=300><img src=""static/images/cards/stack_of_black_stars.svg"" width=""175px"" height=""250px""></img></td>
  </tr>
  <tr height=200>
    <td width=300><img src=""static/images/keys/w.svg"" width=""35%"" height=""75%""></img></td>
    <td width=300><img src=""static/images/keys/o.svg"" width=""35%"" height=""75%""></img></td>
  </tr>
</table>
  ",87.0,1.0,,,,,,,,,,,,,,,,,,,,,,,,,,
213,0,,html-keyboard-response,213,519773,0.0-7.10-1.10,rymq5q90co,2022-09-19 17:11:30.192,5b48f2d0ff7497000125165e,1,50,8,19,3,31,male,1833.6999999993,,"
  <table>
  <tr height=300>
    <td width=300 height=300><img src=""static/images/cards/back_of_red_moons.svg"" width=""175px"" height=""250px""></img></td>
    <td width=300 height=300><img src=""static/images/cards/back_of_red_moons.svg"" width=""175px"" height=""250px""></img></td>
  </tr>
  <tr height=200>
    <td width=300><img src=""static/images/keys/z.svg"" width=""35%"" height=""75%""></img></td>
    <td width=300><img src=""static/images/keys/m.svg"" width=""35%"" height=""75%""></img></td>
  </tr>
</table>
  ",90.0,1.0,,,,,,,,,,,,,,,,,,,,,,,,,,
214,0,,html-keyboard-response,214,521275,0.0-7.10-2.10,rymq5q90co,2022-09-19 17:11:30.192,5b48f2d0ff7497000125165e,1,50,8,19,3,31,male,,,"
  <table>
  <tr height=300>
    <td width=300 height=300><img src=""static/images/cards/3_of_red_moons.svg"" width=""175px"" height=""250px""></img></td>
    <td width=300 height=300><img src=""static/images/cards/back_of_red_moons.svg"" width=""175px"" height=""250px""></img></td>
  </tr>
  <tr height=200>
    <td width=300><img src=""static/images/keys/z.svg"" width=""35%"" height=""75%""></img></td>
    <td width=300><img src=""static/images/keys/m.svg"" width=""35%"" height=""75%""></img></td>
  </tr>
</table>
  ",,,,,,,,,,,,,,,,,,,,,,,,,,,,
215,0,,html-keyboard-response,215,522779,0.0-7.10-3.10,rymq5q90co,2022-09-19 17:11:30.192,5b48f2d0ff7497000125165e,1,50,8,19,3,31,male,,,"<p style=""font-size:50px"">You Lose!
No points this round.</p>",,,,,,,,,,,,,,,,,,,,,,,,,,,,
216,0,,html-keyboard-response,216,523287,0.0-7.10-4.10,rymq5q90co,2022-09-19 17:11:30.192,5b48f2d0ff7497000125165e,1,50,8,19,3,31,male,,,,,,1.0,choice,10.0,A,D,red,black,moons,stars,A,D,A,red,moons,1158.3999999985,1.0,1.0,NA,left,1833.6999999993,3.0,0.0,0.0,,,
217,0,,html-keyboard-response,217,525111,0.0-7.11-0.11,rymq5q90co,2022-09-19 17:11:30.192,5b48f2d0ff7497000125165e,1,50,8,19,3,31,male,1822.6999999993,,"
  <table>
  <tr height=300>
    <td width=300 height=300><img src=""static/images/cards/stack_of_black_stars.svg"" width=""175px"" height=""250px""></img></td>
    <td width=300 height=300><img src=""static/images/cards/stack_of_red_moons.svg"" width=""175px"" height=""250px""></img></td>
  </tr>
  <tr height=200>
    <td width=300><img src=""static/images/keys/w.svg"" width=""35%"" height=""75%""></img></td>
    <td width=300><img src=""static/images/keys/o.svg"" width=""35%"" height=""75%""></img></td>
  </tr>
</table>
  ",79.0,1.0,,,,,,,,,,,,,,,,,,,,,,,,,,
218,0,,html-keyboard-response,218,526390,0.0-7.11-1.11,rymq5q90co,2022-09-19 17:11:30.192,5b48f2d0ff7497000125165e,1,50,8,19,3,31,male,776.3999999985,,"
  <table>
  <tr height=300>
    <td width=300 height=300><img src=""static/images/cards/back_of_red_moons.svg"" width=""175px"" height=""250px""></img></td>
    <td width=300 height=300><img src=""static/images/cards/back_of_red_moons.svg"" width=""175px"" height=""250px""></img></td>
  </tr>
  <tr height=200>
    <td width=300><img src=""static/images/keys/z.svg"" width=""35%"" height=""75%""></img></td>
    <td width=300><img src=""static/images/keys/m.svg"" width=""35%"" height=""75%""></img></td>
  </tr>
</table>
  ",77.0,1.0,,,,,,,,,,,,,,,,,,,,,,,,,,
219,0,,html-keyboard-response,219,527892,0.0-7.11-2.11,rymq5q90co,2022-09-19 17:11:30.192,5b48f2d0ff7497000125165e,1,50,8,19,3,31,male,,,"
  <table>
  <tr height=300>
    <td width=300 height=300><img src=""static/images/cards/back_of_red_moons.svg"" width=""175px"" height=""250px""></img></td>
    <td width=300 height=300><img src=""static/images/cards/10_of_red_moons.svg"" width=""175px"" height=""250px""></img></td>
  </tr>
  <tr height=200>
    <td width=300><img src=""static/images/keys/z.svg"" width=""35%"" height=""75%""></img></td>
    <td width=300><img src=""static/images/keys/m.svg"" width=""35%"" height=""75%""></img></td>
  </tr>
</table>
  ",,,,,,,,,,,,,,,,,,,,,,,,,,,,
220,0,,html-keyboard-response,220,529395,0.0-7.11-3.11,rymq5q90co,2022-09-19 17:11:30.192,5b48f2d0ff7497000125165e,1,50,8,19,3,31,male,,,"<p style=""font-size:50px"">You win!
+10 points this round!</p>",,,,,,,,,,,,,,,,,,,,,,,,,,,,
221,0,,html-keyboard-response,221,529902,0.0-7.11-4.11,rymq5q90co,2022-09-19 17:11:30.192,5b48f2d0ff7497000125165e,1,50,8,19,3,31,male,,,,,,1.0,choice,11.0,A,D,black,red,stars,moons,D,A,A,red,moons,1822.6999999993,1.0,1.0,NA,right,776.3999999985,10.0,1.0,1.0,,,
222,0,,html-keyboard-response,222,531111,0.0-7.12-0.12,rymq5q90co,2022-09-19 17:11:30.192,5b48f2d0ff7497000125165e,1,50,8,19,3,31,male,1207.4000000022,,"
  <table>
  <tr height=300>
    <td width=300 height=300><img src=""static/images/cards/stack_of_red_stars.svg"" width=""175px"" height=""250px""></img></td>
    <td width=300 height=300><img src=""static/images/cards/stack_of_black_moons.svg"" width=""175px"" height=""250px""></img></td>
  </tr>
  <tr height=200>
    <td width=300><img src=""static/images/keys/w.svg"" width=""35%"" height=""75%""></img></td>
    <td width=300><img src=""static/images/keys/o.svg"" width=""35%"" height=""75%""></img></td>
  </tr>
</table>
  ",79.0,1.0,,,,,,,,,,,,,,,,,,,,,,,,,,
223,0,,html-keyboard-response,223,532327,0.0-7.12-1.12,rymq5q90co,2022-09-19 17:11:30.192,5b48f2d0ff7497000125165e,1,50,8,19,3,31,male,713.0,,"
  <table>
  <tr height=300>
    <td width=300 height=300><img src=""static/images/cards/back_of_black_moons.svg"" width=""175px"" height=""250px""></img></td>
    <td width=300 height=300><img src=""static/images/cards/back_of_black_moons.svg"" width=""175px"" height=""250px""></img></td>
  </tr>
  <tr height=200>
    <td width=300><img src=""static/images/keys/z.svg"" width=""35%"" height=""75%""></img></td>
    <td width=300></td>
  </tr>
</table>
  ",90.0,1.0,,,,,,,,,,,,,,,,,,,,,,,,,,
224,0,,html-keyboard-response,224,533829,0.0-7.12-2.12,rymq5q90co,2022-09-19 17:11:30.192,5b48f2d0ff7497000125165e,1,50,8,19,3,31,male,,,"
  <table>
  <tr height=300>
    <td width=300 height=300><img src=""static/images/cards/4_of_black_moons.svg"" width=""175px"" height=""250px""></img></td>
    <td width=300 height=300><img src=""static/images/cards/back_of_black_moons.svg"" width=""175px"" height=""250px""></img></td>
  </tr>
  <tr height=200>
    <td width=300><img src=""static/images/keys/z.svg"" width=""35%"" height=""75%""></img></td>
    <td width=300></td>
  </tr>
</table>
  ",,,,,,,,,,,,,,,,,,,,,,,,,,,,
225,0,,html-keyboard-response,225,535332,0.0-7.12-3.12,rymq5q90co,2022-09-19 17:11:30.192,5b48f2d0ff7497000125165e,1,50,8,19,3,31,male,,,"<p style=""font-size:50px"">You Lose!
No points this round.</p>",,,,,,,,,,,,,,,,,,,,,,,,,,,,
226,0,,html-keyboard-response,226,535838,0.0-7.12-4.12,rymq5q90co,2022-09-19 17:11:30.192,5b48f2d0ff7497000125165e,1,50,8,19,3,31,male,,,,,,1.0,choice,12.0,B,C,red,black,stars,moons,C,B,B,black,moons,1207.4000000022,0.0,1.0,1,left,713.0,4.0,0.0,0.0,,,
227,0,,html-keyboard-response,227,536865,0.0-7.13-0.13,rymq5q90co,2022-09-19 17:11:30.192,5b48f2d0ff7497000125165e,1,50,8,19,3,31,male,1025.0,,"
  <table>
  <tr height=300>
    <td width=300 height=300><img src=""static/images/cards/stack_of_red_stars.svg"" width=""175px"" height=""250px""></img></td>
    <td width=300 height=300><img src=""static/images/cards/stack_of_black_stars.svg"" width=""175px"" height=""250px""></img></td>
  </tr>
  <tr height=200>
    <td width=300><img src=""static/images/keys/w.svg"" width=""35%"" height=""75%""></img></td>
    <td width=300><img src=""static/images/keys/o.svg"" width=""35%"" height=""75%""></img></td>
  </tr>
</table>
  ",87.0,1.0,,,,,,,,,,,,,,,,,,,,,,,,,,
228,0,,html-keyboard-response,228,538123,0.0-7.13-1.13,rymq5q90co,2022-09-19 17:11:30.192,5b48f2d0ff7497000125165e,1,50,8,19,3,31,male,755.1000000015,,"
  <table>
  <tr height=300>
    <td width=300 height=300><img src=""static/images/cards/back_of_red_stars.svg"" width=""175px"" height=""250px""></img></td>
    <td width=300 height=300><img src=""static/images/cards/back_of_red_stars.svg"" width=""175px"" height=""250px""></img></td>
  </tr>
  <tr height=200>
    <td width=300><img src=""static/images/keys/z.svg"" width=""35%"" height=""75%""></img></td>
    <td width=300><img src=""static/images/keys/m.svg"" width=""35%"" height=""75%""></img></td>
  </tr>
</table>
  ",90.0,1.0,,,,,,,,,,,,,,,,,,,,,,,,,,
229,0,,html-keyboard-response,229,539625,0.0-7.13-2.13,rymq5q90co,2022-09-19 17:11:30.192,5b48f2d0ff7497000125165e,1,50,8,19,3,31,male,,,"
  <table>
  <tr height=300>
    <td width=300 height=300><img src=""static/images/cards/3_of_red_stars.svg"" width=""175px"" height=""250px""></img></td>
    <td width=300 height=300><img src=""static/images/cards/back_of_red_stars.svg"" width=""175px"" height=""250px""></img></td>
  </tr>
  <tr height=200>
    <td width=300><img src=""static/images/keys/z.svg"" width=""35%"" height=""75%""></img></td>
    <td width=300><img src=""static/images/keys/m.svg"" width=""35%"" height=""75%""></img></td>
  </tr>
</table>
  ",,,,,,,,,,,,,,,,,,,,,,,,,,,,
230,0,,html-keyboard-response,230,541128,0.0-7.13-3.13,rymq5q90co,2022-09-19 17:11:30.192,5b48f2d0ff7497000125165e,1,50,8,19,3,31,male,,,"<p style=""font-size:50px"">You win!
+10 points this round!</p>",,,,,,,,,,,,,,,,,,,,,,,,,,,,
231,0,,html-keyboard-response,231,541634,0.0-7.13-4.13,rymq5q90co,2022-09-19 17:11:30.192,5b48f2d0ff7497000125165e,1,50,8,19,3,31,male,,,,,,1.0,choice,13.0,C,D,red,black,stars,stars,C,D,C,red,stars,1025.0,1.0,0.0,NA,left,755.1000000015,3.0,0.0,1.0,,,
232,0,,html-keyboard-response,232,543562,0.0-7.14-0.14,rymq5q90co,2022-09-19 17:11:30.192,5b48f2d0ff7497000125165e,1,50,8,19,3,31,male,1926.0,,"
  <table>
  <tr height=300>
    <td width=300 height=300><img src=""static/images/cards/stack_of_black_moons.svg"" width=""175px"" height=""250px""></img></td>
    <td width=300 height=300><img src=""static/images/cards/stack_of_black_stars.svg"" width=""175px"" height=""250px""></img></td>
  </tr>
  <tr height=200>
    <td width=300><img src=""static/images/keys/w.svg"" width=""35%"" height=""75%""></img></td>
    <td width=300><img src=""static/images/keys/o.svg"" width=""35%"" height=""75%""></img></td>
  </tr>
</table>
  ",87.0,1.0,,,,,,,,,,,,,,,,,,,,,,,,,,
233,0,,html-keyboard-response,233,544670,0.0-7.14-1.14,rymq5q90co,2022-09-19 17:11:30.192,5b48f2d0ff7497000125165e,1,50,8,19,3,31,male,605.8000000007,,"
  <table>
  <tr height=300>
    <td width=300 height=300><img src=""static/images/cards/back_of_black_moons.svg"" width=""175px"" height=""250px""></img></td>
    <td width=300 height=300><img src=""static/images/cards/back_of_black_moons.svg"" width=""175px"" height=""250px""></img></td>
  </tr>
  <tr height=200>
    <td width=300></td>
    <td width=300><img src=""static/images/keys/m.svg"" width=""35%"" height=""75%""></img></td>
  </tr>
</table>
  ",77.0,1.0,,,,,,,,,,,,,,,,,,,,,,,,,,
234,0,,html-keyboard-response,234,546172,0.0-7.14-2.14,rymq5q90co,2022-09-19 17:11:30.192,5b48f2d0ff7497000125165e,1,50,8,19,3,31,male,,,"
  <table>
  <tr height=300>
    <td width=300 height=300><img src=""static/images/cards/back_of_black_moons.svg"" width=""175px"" height=""250px""></img></td>
    <td width=300 height=300><img src=""static/images/cards/1_of_black_moons.svg"" width=""175px"" height=""250px""></img></td>
  </tr>
  <tr height=200>
    <td width=300></td>
    <td width=300><img src=""static/images/keys/m.svg"" width=""35%"" height=""75%""></img></td>
  </tr>
</table>
  ",,,,,,,,,,,,,,,,,,,,,,,,,,,,
235,0,,html-keyboard-response,235,547674,0.0-7.14-3.14,rymq5q90co,2022-09-19 17:11:30.192,5b48f2d0ff7497000125165e,1,50,8,19,3,31,male,,,"<p style=""font-size:50px"">You Lose!
No points this round.</p>",,,,,,,,,,,,,,,,,,,,,,,,,,,,
236,0,,html-keyboard-response,236,548181,0.0-7.14-4.14,rymq5q90co,2022-09-19 17:11:30.192,5b48f2d0ff7497000125165e,1,50,8,19,3,31,male,,,,,,1.0,choice,14.0,B,D,black,black,moons,stars,B,D,B,black,moons,1926.0,0.0,1.0,0,right,605.8000000007,1.0,0.0,0.0,,,
237,0,,html-keyboard-response,237,549273,0.0-7.15-0.15,rymq5q90co,2022-09-19 17:11:30.192,5b48f2d0ff7497000125165e,1,50,8,19,3,31,male,1090.5,,"
  <table>
  <tr height=300>
    <td width=300 height=300><img src=""static/images/cards/stack_of_black_stars.svg"" width=""175px"" height=""250px""></img></td>
    <td width=300 height=300><img src=""static/images/cards/stack_of_black_moons.svg"" width=""175px"" height=""250px""></img></td>
  </tr>
  <tr height=200>
    <td width=300><img src=""static/images/keys/w.svg"" width=""35%"" height=""75%""></img></td>
    <td width=300><img src=""static/images/keys/o.svg"" width=""35%"" height=""75%""></img></td>
  </tr>
</table>
  ",79.0,1.0,,,,,,,,,,,,,,,,,,,,,,,,,,
238,0,,html-keyboard-response,238,550457,0.0-7.15-1.15,rymq5q90co,2022-09-19 17:11:30.192,5b48f2d0ff7497000125165e,1,50,8,19,3,31,male,680.8000000007,,"
  <table>
  <tr height=300>
    <td width=300 height=300><img src=""static/images/cards/back_of_black_moons.svg"" width=""175px"" height=""250px""></img></td>
    <td width=300 height=300><img src=""static/images/cards/back_of_black_moons.svg"" width=""175px"" height=""250px""></img></td>
  </tr>
  <tr height=200>
    <td width=300><img src=""static/images/keys/z.svg"" width=""35%"" height=""75%""></img></td>
    <td width=300></td>
  </tr>
</table>
  ",90.0,1.0,,,,,,,,,,,,,,,,,,,,,,,,,,
239,0,,html-keyboard-response,239,551959,0.0-7.15-2.15,rymq5q90co,2022-09-19 17:11:30.192,5b48f2d0ff7497000125165e,1,50,8,19,3,31,male,,,"
  <table>
  <tr height=300>
    <td width=300 height=300><img src=""static/images/cards/9_of_black_moons.svg"" width=""175px"" height=""250px""></img></td>
    <td width=300 height=300><img src=""static/images/cards/back_of_black_moons.svg"" width=""175px"" height=""250px""></img></td>
  </tr>
  <tr height=200>
    <td width=300><img src=""static/images/keys/z.svg"" width=""35%"" height=""75%""></img></td>
    <td width=300></td>
  </tr>
</table>
  ",,,,,,,,,,,,,,,,,,,,,,,,,,,,
240,0,,html-keyboard-response,240,553462,0.0-7.15-3.15,rymq5q90co,2022-09-19 17:11:30.192,5b48f2d0ff7497000125165e,1,50,8,19,3,31,male,,,"<p style=""font-size:50px"">You win!
+10 points this round!</p>",,,,,,,,,,,,,,,,,,,,,,,,,,,,
241,0,,html-keyboard-response,241,553969,0.0-7.15-4.15,rymq5q90co,2022-09-19 17:11:30.192,5b48f2d0ff7497000125165e,1,50,8,19,3,31,male,,,,,,1.0,choice,15.0,B,D,black,black,stars,moons,D,B,B,black,moons,1090.5,0.0,1.0,1,left,680.8000000007,9.0,1.0,1.0,,,
242,0,,html-keyboard-response,242,555051,0.0-7.16-0.16,rymq5q90co,2022-09-19 17:11:30.192,5b48f2d0ff7497000125165e,1,50,8,19,3,31,male,1080.1000000015,,"
  <table>
  <tr height=300>
    <td width=300 height=300><img src=""static/images/cards/stack_of_black_moons.svg"" width=""175px"" height=""250px""></img></td>
    <td width=300 height=300><img src=""static/images/cards/stack_of_red_stars.svg"" width=""175px"" height=""250px""></img></td>
  </tr>
  <tr height=200>
    <td width=300><img src=""static/images/keys/w.svg"" width=""35%"" height=""75%""></img></td>
    <td width=300><img src=""static/images/keys/o.svg"" width=""35%"" height=""75%""></img></td>
  </tr>
</table>
  ",87.0,1.0,,,,,,,,,,,,,,,,,,,,,,,,,,
