,index,success,trial_type,trial_index,time_elapsed,internal_node_id,subject,date,prol_id,ctbl,sense_of_control_A,sense_of_control_B,sense_of_control_C,sense_of_control_D,age,gender,rt,url,stimulus,key_press,is_data_trial,phase,trial,deck1,deck2,col1,col2,sym1,sym2,deck_l,deck_r,chosen_deck,chosen_col,chosen_sym,deck_rt,choose_choice,mutual_info,hidden_key,chosen_card,card_rt,player_num,win_card,outcome,mock_rating,npress,response,responses
0,0,1.0,fullscreen,0,13966,0.0-0.0,m2m96go0zy,2022-09-19 15:32:38.768,5af2a03697a14300017d2ba4,1,45,43,26,26,48,Male,,,,,,,,,,,,,,,,,,,,,,,,,,,,,,,
1,0,,external-html,1,29221,0.0-1.0,m2m96go0zy,2022-09-19 15:32:38.768,5af2a03697a14300017d2ba4,1,45,43,26,26,48,Male,15139.0,static/js/sub/consent.html,,,,,,,,,,,,,,,,,,,,,,,,,,,,,
2,0,,call-function,2,29222,0.0-2.0,m2m96go0zy,2022-09-19 15:32:38.768,5af2a03697a14300017d2ba4,1,45,43,26,26,48,Male,,,,,,,,,,,,,,,,,,,,,,,,,,,,,,,
3,0,,image-keyboard-response,3,35659,0.0-3.0-0.0,m2m96go0zy,2022-09-19 15:32:38.768,5af2a03697a14300017d2ba4,1,45,43,26,26,48,Male,6435.0,,static/images/instructions_CB_1/Slide1.png,39.0,,,,,,,,,,,,,,,,,,,,,,,,,,,
4,0,,image-keyboard-response,4,60930,0.0-3.1-0.1,m2m96go0zy,2022-09-19 15:32:38.768,5af2a03697a14300017d2ba4,1,45,43,26,26,48,Male,25268.0,,static/images/instructions_CB_1/Slide2.png,39.0,,,,,,,,,,,,,,,,,,,,,,,,,,,
5,0,,image-keyboard-response,5,70201,0.0-3.2-0.2,m2m96go0zy,2022-09-19 15:32:38.768,5af2a03697a14300017d2ba4,1,45,43,26,26,48,Male,9267.0,,static/images/instructions_CB_1/Slide3.png,39.0,,,,,,,,,,,,,,,,,,,,,,,,,,,
6,0,,image-keyboard-response,6,80977,0.0-3.3-0.3,m2m96go0zy,2022-09-19 15:32:38.768,5af2a03697a14300017d2ba4,1,45,43,26,26,48,Male,10773.0,,static/images/instructions_CB_1/Slide4.png,39.0,,,,,,,,,,,,,,,,,,,,,,,,,,,
7,0,,image-keyboard-response,7,87809,0.0-3.4-0.4,m2m96go0zy,2022-09-19 15:32:38.768,5af2a03697a14300017d2ba4,1,45,43,26,26,48,Male,6829.0,,static/images/instructions_CB_1/Slide5.png,39.0,,,,,,,,,,,,,,,,,,,,,,,,,,,
8,0,,image-keyboard-response,8,91385,0.0-3.5-0.5,m2m96go0zy,2022-09-19 15:32:38.768,5af2a03697a14300017d2ba4,1,45,43,26,26,48,Male,3574.0,,static/images/instructions_CB_1/Slide6.png,39.0,,,,,,,,,,,,,,,,,,,,,,,,,,,
9,0,,image-keyboard-response,9,98569,0.0-3.6-0.6,m2m96go0zy,2022-09-19 15:32:38.768,5af2a03697a14300017d2ba4,1,45,43,26,26,48,Male,7183.0,,static/images/instructions_CB_1/Slide7.png,39.0,,,,,,,,,,,,,,,,,,,,,,,,,,,
10,0,,image-keyboard-response,10,113745,0.0-3.7-0.7,m2m96go0zy,2022-09-19 15:32:38.768,5af2a03697a14300017d2ba4,1,45,43,26,26,48,Male,15174.0,,static/images/instructions_CB_1/Slide8.png,39.0,,,,,,,,,,,,,,,,,,,,,,,,,,,
11,0,,image-keyboard-response,11,119865,0.0-3.8-0.8,m2m96go0zy,2022-09-19 15:32:38.768,5af2a03697a14300017d2ba4,1,45,43,26,26,48,Male,6117.0,,static/images/instructions_CB_1/Slide9.png,39.0,,,,,,,,,,,,,,,,,,,,,,,,,,,
12,0,,image-keyboard-response,12,137786,0.0-3.9-0.9,m2m96go0zy,2022-09-19 15:32:38.768,5af2a03697a14300017d2ba4,1,45,43,26,26,48,Male,17918.0,,static/images/instructions_CB_1/Slide10.png,39.0,,,,,,,,,,,,,,,,,,,,,,,,,,,
13,0,,image-keyboard-response,13,145425,0.0-3.10-0.10,m2m96go0zy,2022-09-19 15:32:38.768,5af2a03697a14300017d2ba4,1,45,43,26,26,48,Male,7637.0,,static/images/instructions_CB_1/Slide11.png,39.0,,,,,,,,,,,,,,,,,,,,,,,,,,,
14,0,,image-keyboard-response,14,177991,0.0-3.11-0.11,m2m96go0zy,2022-09-19 15:32:38.768,5af2a03697a14300017d2ba4,1,45,43,26,26,48,Male,32565.0,,static/images/instructions_CB_1/Slide12.png,37.0,,,,,,,,,,,,,,,,,,,,,,,,,,,
15,0,,image-keyboard-response,15,179240,0.0-3.12-0.12,m2m96go0zy,2022-09-19 15:32:38.768,5af2a03697a14300017d2ba4,1,45,43,26,26,48,Male,1248.0,,static/images/instructions_CB_1/Slide11.png,39.0,,,,,,,,,,,,,,,,,,,,,,,,,,,
16,0,,image-keyboard-response,16,190809,0.0-3.13-0.13,m2m96go0zy,2022-09-19 15:32:38.768,5af2a03697a14300017d2ba4,1,45,43,26,26,48,Male,11567.0,,static/images/instructions_CB_1/Slide12.png,39.0,,,,,,,,,,,,,,,,,,,,,,,,,,,
17,0,,image-keyboard-response,17,223633,0.0-3.14-0.14,m2m96go0zy,2022-09-19 15:32:38.768,5af2a03697a14300017d2ba4,1,45,43,26,26,48,Male,32823.0,,static/images/instructions_CB_1/Slide13.png,39.0,,,,,,,,,,,,,,,,,,,,,,,,,,,
18,0,,image-keyboard-response,18,240153,0.0-3.15-0.15,m2m96go0zy,2022-09-19 15:32:38.768,5af2a03697a14300017d2ba4,1,45,43,26,26,48,Male,16518.0,,static/images/instructions_CB_1/Slide14.png,39.0,,,,,,,,,,,,,,,,,,,,,,,,,,,
19,0,,image-keyboard-response,19,298097,0.0-3.16-0.16,m2m96go0zy,2022-09-19 15:32:38.768,5af2a03697a14300017d2ba4,1,45,43,26,26,48,Male,57942.0,,static/images/instructions_CB_1/Slide15.png,39.0,,,,,,,,,,,,,,,,,,,,,,,,,,,
20,0,,image-keyboard-response,20,304976,0.0-3.17-0.17,m2m96go0zy,2022-09-19 15:32:38.768,5af2a03697a14300017d2ba4,1,45,43,26,26,48,Male,6878.0,,static/images/instructions_CB_1/Slide16.png,39.0,,,,,,,,,,,,,,,,,,,,,,,,,,,
21,0,,image-keyboard-response,21,314705,0.0-3.18-0.18,m2m96go0zy,2022-09-19 15:32:38.768,5af2a03697a14300017d2ba4,1,45,43,26,26,48,Male,9726.0,,static/images/instructions_CB_1/Slide17.png,39.0,,,,,,,,,,,,,,,,,,,,,,,,,,,
22,0,,image-keyboard-response,22,348752,0.0-3.19-0.19,m2m96go0zy,2022-09-19 15:32:38.768,5af2a03697a14300017d2ba4,1,45,43,26,26,48,Male,34046.0,,static/images/instructions_CB_1/Slide18.png,39.0,,,,,,,,,,,,,,,,,,,,,,,,,,,
23,0,,image-keyboard-response,23,360857,0.0-3.20-0.20,m2m96go0zy,2022-09-19 15:32:38.768,5af2a03697a14300017d2ba4,1,45,43,26,26,48,Male,12104.0,,static/images/instructions_CB_1/Slide19.png,39.0,,,,,,,,,,,,,,,,,,,,,,,,,,,
24,0,,html-keyboard-response,24,362363,0.0-4.0-0.0,m2m96go0zy,2022-09-19 15:32:38.768,5af2a03697a14300017d2ba4,1,45,43,26,26,48,Male,,,"<img src=""static/images/cards/stack_of_red_moons.svg"" width=""175px"" height=""250px""></img>",,,,,,,,,,,,,,,,,,,,,,,,,,,,
25,0,,html-keyboard-response,25,365867,0.0-4.0-1.0,m2m96go0zy,2022-09-19 15:32:38.768,5af2a03697a14300017d2ba4,1,45,43,26,26,48,Male,,,"
  <table>
  <tr height=300>
    <td width=300 height=300><img src=""static/images/cards/back_of_red_moons.svg"" width=""175px"" height=""250px""></img></td>
    <td width=300 height=300><img src=""static/images/cards/back_of_red_moons.svg"" width=""175px"" height=""250px""></img></td>
  </tr>
  <tr height=200>
    <td width=300><img src=""static/images/keys/z.svg"" width=""35%"" height=""75%""></img></td>
    <td width=300><img src=""static/images/keys/m.svg"" width=""35%"" height=""75%""></img></td>
  </tr>
</table>
  ",,,,,,,,,,,,,,,,,,,,,,,,,,,,
26,0,,html-keyboard-response,26,365869,0.0-4.0-2.0,m2m96go0zy,2022-09-19 15:32:38.768,5af2a03697a14300017d2ba4,1,45,43,26,26,48,Male,,,,,,,,,,,,,,,,,,,,,,,,,,,,,,,
27,0,,html-keyboard-response,27,367374,0.0-4.0-3.0,m2m96go0zy,2022-09-19 15:32:38.768,5af2a03697a14300017d2ba4,1,45,43,26,26,48,Male,,,"<p style=""font-size:50px"">Too slow!</p>",,,,,,,,,,,,,,,,,,,,,,,,,,,,
28,0,,html-keyboard-response,28,367883,0.0-4.0-4.0,m2m96go0zy,2022-09-19 15:32:38.768,5af2a03697a14300017d2ba4,1,45,43,26,26,48,Male,,,,,1.0,learning,0.0,A,,red,,moons,,,,A,red,moons,,1.0,1.0,NA,,,,,,,,,
29,0,,html-keyboard-response,29,369386,0.0-4.1-0.1,m2m96go0zy,2022-09-19 15:32:38.768,5af2a03697a14300017d2ba4,1,45,43,26,26,48,Male,,,"<img src=""static/images/cards/stack_of_black_moons.svg"" width=""175px"" height=""250px""></img>",,,,,,,,,,,,,,,,,,,,,,,,,,,,
30,0,,html-keyboard-response,30,370681,0.0-4.1-1.1,m2m96go0zy,2022-09-19 15:32:38.768,5af2a03697a14300017d2ba4,1,45,43,26,26,48,Male,791.0,,"
  <table>
  <tr height=300>
    <td width=300 height=300><img src=""static/images/cards/back_of_black_moons.svg"" width=""175px"" height=""250px""></img></td>
    <td width=300 height=300><img src=""static/images/cards/back_of_black_moons.svg"" width=""175px"" height=""250px""></img></td>
  </tr>
  <tr height=200>
    <td width=300><img src=""static/images/keys/z.svg"" width=""35%"" height=""75%""></img></td>
    <td width=300></td>
  </tr>
</table>
  ",90.0,,,,,,,,,,,,,,,,,,,,,,,,,1.0,,
31,0,,html-keyboard-response,31,372185,0.0-4.1-2.1,m2m96go0zy,2022-09-19 15:32:38.768,5af2a03697a14300017d2ba4,1,45,43,26,26,48,Male,,,"
  <table>
  <tr height=300>
    <td width=300 height=300><img src=""static/images/cards/7_of_black_moons.svg"" width=""175px"" height=""250px""></img></td>
    <td width=300 height=300><img src=""static/images/cards/back_of_black_moons.svg"" width=""175px"" height=""250px""></img></td>
  </tr>
  <tr height=200>
    <td width=300><img src=""static/images/keys/z.svg"" width=""35%"" height=""75%""></img></td>
    <td width=300></td>
  </tr>
</table>
  ",,,,,,,,,,,,,,,,,,,,,,,,,,,,
32,0,,html-keyboard-response,32,373687,0.0-4.1-3.1,m2m96go0zy,2022-09-19 15:32:38.768,5af2a03697a14300017d2ba4,1,45,43,26,26,48,Male,,,"<p style=""font-size:50px"">You win!
+10 points this round!</p>",,,,,,,,,,,,,,,,,,,,,,,,,,,,
33,0,,html-keyboard-response,33,374196,0.0-4.1-4.1,m2m96go0zy,2022-09-19 15:32:38.768,5af2a03697a14300017d2ba4,1,45,43,26,26,48,Male,,,,,1.0,learning,1.0,B,,black,,moons,,,,B,black,moons,,0.0,1.0,1,left,791.0,7.0,1.0,1.0,,,,
34,0,,html-keyboard-response,34,375701,0.0-4.2-0.2,m2m96go0zy,2022-09-19 15:32:38.768,5af2a03697a14300017d2ba4,1,45,43,26,26,48,Male,,,"<img src=""static/images/cards/stack_of_red_stars.svg"" width=""175px"" height=""250px""></img>",,,,,,,,,,,,,,,,,,,,,,,,,,,,
35,0,,html-keyboard-response,35,377665,0.0-4.2-1.2,m2m96go0zy,2022-09-19 15:32:38.768,5af2a03697a14300017d2ba4,1,45,43,26,26,48,Male,1459.0,,"
  <table>
  <tr height=300>
    <td width=300 height=300><img src=""static/images/cards/back_of_red_stars.svg"" width=""175px"" height=""250px""></img></td>
    <td width=300 height=300><img src=""static/images/cards/back_of_red_stars.svg"" width=""175px"" height=""250px""></img></td>
  </tr>
  <tr height=200>
    <td width=300><img src=""static/images/keys/z.svg"" width=""35%"" height=""75%""></img></td>
    <td width=300><img src=""static/images/keys/m.svg"" width=""35%"" height=""75%""></img></td>
  </tr>
</table>
  ",77.0,,,,,,,,,,,,,,,,,,,,,,,,,1.0,,
36,0,,html-keyboard-response,36,379168,0.0-4.2-2.2,m2m96go0zy,2022-09-19 15:32:38.768,5af2a03697a14300017d2ba4,1,45,43,26,26,48,Male,,,"
  <table>
  <tr height=300>
    <td width=300 height=300><img src=""static/images/cards/back_of_red_stars.svg"" width=""175px"" height=""250px""></img></td>
    <td width=300 height=300><img src=""static/images/cards/6_of_red_stars.svg"" width=""175px"" height=""250px""></img></td>
  </tr>
  <tr height=200>
    <td width=300><img src=""static/images/keys/z.svg"" width=""35%"" height=""75%""></img></td>
    <td width=300><img src=""static/images/keys/m.svg"" width=""35%"" height=""75%""></img></td>
  </tr>
</table>
  ",,,,,,,,,,,,,,,,,,,,,,,,,,,,
37,0,,html-keyboard-response,37,380673,0.0-4.2-3.2,m2m96go0zy,2022-09-19 15:32:38.768,5af2a03697a14300017d2ba4,1,45,43,26,26,48,Male,,,"<p style=""font-size:50px"">You Lose!
No points this round.</p>",,,,,,,,,,,,,,,,,,,,,,,,,,,,
38,0,,html-keyboard-response,38,381181,0.0-4.2-4.2,m2m96go0zy,2022-09-19 15:32:38.768,5af2a03697a14300017d2ba4,1,45,43,26,26,48,Male,,,,,1.0,learning,2.0,C,,red,,stars,,,,C,red,stars,,1.0,0.0,NA,right,1459.0,6.0,1.0,0.0,,,,
39,0,,html-keyboard-response,39,382684,0.0-4.3-0.3,m2m96go0zy,2022-09-19 15:32:38.768,5af2a03697a14300017d2ba4,1,45,43,26,26,48,Male,,,"<img src=""static/images/cards/stack_of_black_stars.svg"" width=""175px"" height=""250px""></img>",,,,,,,,,,,,,,,,,,,,,,,,,,,,
40,0,,html-keyboard-response,40,384009,0.0-4.3-1.3,m2m96go0zy,2022-09-19 15:32:38.768,5af2a03697a14300017d2ba4,1,45,43,26,26,48,Male,821.0,,"
  <table>
  <tr height=300>
    <td width=300 height=300><img src=""static/images/cards/back_of_black_stars.svg"" width=""175px"" height=""250px""></img></td>
    <td width=300 height=300><img src=""static/images/cards/back_of_black_stars.svg"" width=""175px"" height=""250px""></img></td>
  </tr>
  <tr height=200>
    <td width=300><img src=""static/images/keys/z.svg"" width=""35%"" height=""75%""></img></td>
    <td width=300></td>
  </tr>
</table>
  ",90.0,,,,,,,,,,,,,,,,,,,,,,,,,1.0,,
41,0,,html-keyboard-response,41,385514,0.0-4.3-2.3,m2m96go0zy,2022-09-19 15:32:38.768,5af2a03697a14300017d2ba4,1,45,43,26,26,48,Male,,,"
  <table>
  <tr height=300>
    <td width=300 height=300><img src=""static/images/cards/2_of_black_stars.svg"" width=""175px"" height=""250px""></img></td>
    <td width=300 height=300><img src=""static/images/cards/back_of_black_stars.svg"" width=""175px"" height=""250px""></img></td>
  </tr>
  <tr height=200>
    <td width=300><img src=""static/images/keys/z.svg"" width=""35%"" height=""75%""></img></td>
    <td width=300></td>
  </tr>
</table>
  ",,,,,,,,,,,,,,,,,,,,,,,,,,,,
42,0,,html-keyboard-response,42,387018,0.0-4.3-3.3,m2m96go0zy,2022-09-19 15:32:38.768,5af2a03697a14300017d2ba4,1,45,43,26,26,48,Male,,,"<p style=""font-size:50px"">You win!
+10 points this round!</p>",,,,,,,,,,,,,,,,,,,,,,,,,,,,
43,0,,html-keyboard-response,43,387527,0.0-4.3-4.3,m2m96go0zy,2022-09-19 15:32:38.768,5af2a03697a14300017d2ba4,1,45,43,26,26,48,Male,,,,,1.0,learning,3.0,D,,black,,stars,,,,D,black,stars,,0.0,0.0,1,left,821.0,2.0,0.0,1.0,,,,
44,0,,html-keyboard-response,44,389032,0.0-4.4-0.4,m2m96go0zy,2022-09-19 15:32:38.768,5af2a03697a14300017d2ba4,1,45,43,26,26,48,Male,,,"<img src=""static/images/cards/stack_of_red_bolts.svg"" width=""175px"" height=""250px""></img>",,,,,,,,,,,,,,,,,,,,,,,,,,,,
45,0,,html-keyboard-response,45,390345,0.0-4.4-1.4,m2m96go0zy,2022-09-19 15:32:38.768,5af2a03697a14300017d2ba4,1,45,43,26,26,48,Male,811.0,,"
  <table>
  <tr height=300>
    <td width=300 height=300><img src=""static/images/cards/back_of_red_bolts.svg"" width=""175px"" height=""250px""></img></td>
    <td width=300 height=300><img src=""static/images/cards/back_of_red_bolts.svg"" width=""175px"" height=""250px""></img></td>
  </tr>
  <tr height=200>
    <td width=300><img src=""static/images/keys/z.svg"" width=""35%"" height=""75%""></img></td>
    <td width=300><img src=""static/images/keys/m.svg"" width=""35%"" height=""75%""></img></td>
  </tr>
</table>
  ",77.0,,,,,,,,,,,,,,,,,,,,,,,,,1.0,,
46,0,,html-keyboard-response,46,391850,0.0-4.4-2.4,m2m96go0zy,2022-09-19 15:32:38.768,5af2a03697a14300017d2ba4,1,45,43,26,26,48,Male,,,"
  <table>
  <tr height=300>
    <td width=300 height=300><img src=""static/images/cards/back_of_red_bolts.svg"" width=""175px"" height=""250px""></img></td>
    <td width=300 height=300><img src=""static/images/cards/10_of_red_bolts.svg"" width=""175px"" height=""250px""></img></td>
  </tr>
  <tr height=200>
    <td width=300><img src=""static/images/keys/z.svg"" width=""35%"" height=""75%""></img></td>
    <td width=300><img src=""static/images/keys/m.svg"" width=""35%"" height=""75%""></img></td>
  </tr>
</table>
  ",,,,,,,,,,,,,,,,,,,,,,,,,,,,
47,0,,html-keyboard-response,47,393353,0.0-4.4-3.4,m2m96go0zy,2022-09-19 15:32:38.768,5af2a03697a14300017d2ba4,1,45,43,26,26,48,Male,,,"<p style=""font-size:50px"">You win!
+10 points this round!</p>",,,,,,,,,,,,,,,,,,,,,,,,,,,,
48,0,,html-keyboard-response,48,393862,0.0-4.4-4.4,m2m96go0zy,2022-09-19 15:32:38.768,5af2a03697a14300017d2ba4,1,45,43,26,26,48,Male,,,,,1.0,learning,4.0,Xc,,red,,bolts,,,,Xc,red,bolts,,1.0,0.0,NA,right,811.0,10.0,1.0,1.0,,,,
49,0,,html-keyboard-response,49,395366,0.0-4.5-0.5,m2m96go0zy,2022-09-19 15:32:38.768,5af2a03697a14300017d2ba4,1,45,43,26,26,48,Male,,,"<img src=""static/images/cards/stack_of_black_bolts.svg"" width=""175px"" height=""250px""></img>",,,,,,,,,,,,,,,,,,,,,,,,,,,,
50,0,,html-keyboard-response,50,396481,0.0-4.5-1.5,m2m96go0zy,2022-09-19 15:32:38.768,5af2a03697a14300017d2ba4,1,45,43,26,26,48,Male,610.0,,"
  <table>
  <tr height=300>
    <td width=300 height=300><img src=""static/images/cards/back_of_black_bolts.svg"" width=""175px"" height=""250px""></img></td>
    <td width=300 height=300><img src=""static/images/cards/back_of_black_bolts.svg"" width=""175px"" height=""250px""></img></td>
  </tr>
  <tr height=200>
    <td width=300><img src=""static/images/keys/z.svg"" width=""35%"" height=""75%""></img></td>
    <td width=300></td>
  </tr>
</table>
  ",90.0,,,,,,,,,,,,,,,,,,,,,,,,,1.0,,
51,0,,html-keyboard-response,51,397987,0.0-4.5-2.5,m2m96go0zy,2022-09-19 15:32:38.768,5af2a03697a14300017d2ba4,1,45,43,26,26,48,Male,,,"
  <table>
  <tr height=300>
    <td width=300 height=300><img src=""static/images/cards/3_of_black_bolts.svg"" width=""175px"" height=""250px""></img></td>
    <td width=300 height=300><img src=""static/images/cards/back_of_black_bolts.svg"" width=""175px"" height=""250px""></img></td>
  </tr>
  <tr height=200>
    <td width=300><img src=""static/images/keys/z.svg"" width=""35%"" height=""75%""></img></td>
    <td width=300></td>
  </tr>
</table>
  ",,,,,,,,,,,,,,,,,,,,,,,,,,,,
52,0,,html-keyboard-response,52,399488,0.0-4.5-3.5,m2m96go0zy,2022-09-19 15:32:38.768,5af2a03697a14300017d2ba4,1,45,43,26,26,48,Male,,,"<p style=""font-size:50px"">You win!
+10 points this round!</p>",,,,,,,,,,,,,,,,,,,,,,,,,,,,
53,0,,html-keyboard-response,53,399998,0.0-4.5-4.5,m2m96go0zy,2022-09-19 15:32:38.768,5af2a03697a14300017d2ba4,1,45,43,26,26,48,Male,,,,,1.0,learning,5.0,Xnc,,black,,bolts,,,,Xnc,black,bolts,,0.0,0.0,1,left,610.0,3.0,0.0,1.0,,,,
54,0,,html-keyboard-response,54,401501,0.0-4.6-0.6,m2m96go0zy,2022-09-19 15:32:38.768,5af2a03697a14300017d2ba4,1,45,43,26,26,48,Male,,,"<img src=""static/images/cards/stack_of_red_moons.svg"" width=""175px"" height=""250px""></img>",,,,,,,,,,,,,,,,,,,,,,,,,,,,
55,0,,html-keyboard-response,55,402874,0.0-4.6-1.6,m2m96go0zy,2022-09-19 15:32:38.768,5af2a03697a14300017d2ba4,1,45,43,26,26,48,Male,868.0,,"
  <table>
  <tr height=300>
    <td width=300 height=300><img src=""static/images/cards/back_of_red_moons.svg"" width=""175px"" height=""250px""></img></td>
    <td width=300 height=300><img src=""static/images/cards/back_of_red_moons.svg"" width=""175px"" height=""250px""></img></td>
  </tr>
  <tr height=200>
    <td width=300><img src=""static/images/keys/z.svg"" width=""35%"" height=""75%""></img></td>
    <td width=300><img src=""static/images/keys/m.svg"" width=""35%"" height=""75%""></img></td>
  </tr>
</table>
  ",90.0,,,,,,,,,,,,,,,,,,,,,,,,,1.0,,
56,0,,html-keyboard-response,56,404377,0.0-4.6-2.6,m2m96go0zy,2022-09-19 15:32:38.768,5af2a03697a14300017d2ba4,1,45,43,26,26,48,Male,,,"
  <table>
  <tr height=300>
    <td width=300 height=300><img src=""static/images/cards/2_of_red_moons.svg"" width=""175px"" height=""250px""></img></td>
    <td width=300 height=300><img src=""static/images/cards/back_of_red_moons.svg"" width=""175px"" height=""250px""></img></td>
  </tr>
  <tr height=200>
    <td width=300><img src=""static/images/keys/z.svg"" width=""35%"" height=""75%""></img></td>
    <td width=300><img src=""static/images/keys/m.svg"" width=""35%"" height=""75%""></img></td>
  </tr>
</table>
  ",,,,,,,,,,,,,,,,,,,,,,,,,,,,
57,0,,html-keyboard-response,57,405882,0.0-4.6-3.6,m2m96go0zy,2022-09-19 15:32:38.768,5af2a03697a14300017d2ba4,1,45,43,26,26,48,Male,,,"<p style=""font-size:50px"">You Lose!
No points this round.</p>",,,,,,,,,,,,,,,,,,,,,,,,,,,,
58,0,,html-keyboard-response,58,406391,0.0-4.6-4.6,m2m96go0zy,2022-09-19 15:32:38.768,5af2a03697a14300017d2ba4,1,45,43,26,26,48,Male,,,,,1.0,learning,6.0,A,,red,,moons,,,,A,red,moons,,1.0,1.0,NA,left,868.0,2.0,0.0,0.0,,,,
59,0,,html-keyboard-response,59,407894,0.0-4.7-0.7,m2m96go0zy,2022-09-19 15:32:38.768,5af2a03697a14300017d2ba4,1,45,43,26,26,48,Male,,,"<img src=""static/images/cards/stack_of_black_moons.svg"" width=""175px"" height=""250px""></img>",,,,,,,,,,,,,,,,,,,,,,,,,,,,
60,0,,html-keyboard-response,60,408905,0.0-4.7-1.7,m2m96go0zy,2022-09-19 15:32:38.768,5af2a03697a14300017d2ba4,1,45,43,26,26,48,Male,507.0,,"
  <table>
  <tr height=300>
    <td width=300 height=300><img src=""static/images/cards/back_of_black_moons.svg"" width=""175px"" height=""250px""></img></td>
    <td width=300 height=300><img src=""static/images/cards/back_of_black_moons.svg"" width=""175px"" height=""250px""></img></td>
  </tr>
  <tr height=200>
    <td width=300></td>
    <td width=300><img src=""static/images/keys/m.svg"" width=""35%"" height=""75%""></img></td>
  </tr>
</table>
  ",77.0,,,,,,,,,,,,,,,,,,,,,,,,,1.0,,
61,0,,html-keyboard-response,61,410407,0.0-4.7-2.7,m2m96go0zy,2022-09-19 15:32:38.768,5af2a03697a14300017d2ba4,1,45,43,26,26,48,Male,,,"
  <table>
  <tr height=300>
    <td width=300 height=300><img src=""static/images/cards/back_of_black_moons.svg"" width=""175px"" height=""250px""></img></td>
    <td width=300 height=300><img src=""static/images/cards/2_of_black_moons.svg"" width=""175px"" height=""250px""></img></td>
  </tr>
  <tr height=200>
    <td width=300></td>
    <td width=300><img src=""static/images/keys/m.svg"" width=""35%"" height=""75%""></img></td>
  </tr>
</table>
  ",,,,,,,,,,,,,,,,,,,,,,,,,,,,
62,0,,html-keyboard-response,62,411912,0.0-4.7-3.7,m2m96go0zy,2022-09-19 15:32:38.768,5af2a03697a14300017d2ba4,1,45,43,26,26,48,Male,,,"<p style=""font-size:50px"">You Lose!
No points this round.</p>",,,,,,,,,,,,,,,,,,,,,,,,,,,,
63,0,,html-keyboard-response,63,412421,0.0-4.7-4.7,m2m96go0zy,2022-09-19 15:32:38.768,5af2a03697a14300017d2ba4,1,45,43,26,26,48,Male,,,,,1.0,learning,7.0,B,,black,,moons,,,,B,black,moons,,0.0,1.0,0,right,507.0,2.0,0.0,0.0,,,,
64,0,,html-keyboard-response,64,413925,0.0-4.8-0.8,m2m96go0zy,2022-09-19 15:32:38.768,5af2a03697a14300017d2ba4,1,45,43,26,26,48,Male,,,"<img src=""static/images/cards/stack_of_red_stars.svg"" width=""175px"" height=""250px""></img>",,,,,,,,,,,,,,,,,,,,,,,,,,,,
65,0,,html-keyboard-response,65,415369,0.0-4.8-1.8,m2m96go0zy,2022-09-19 15:32:38.768,5af2a03697a14300017d2ba4,1,45,43,26,26,48,Male,941.0,,"
  <table>
  <tr height=300>
    <td width=300 height=300><img src=""static/images/cards/back_of_red_stars.svg"" width=""175px"" height=""250px""></img></td>
    <td width=300 height=300><img src=""static/images/cards/back_of_red_stars.svg"" width=""175px"" height=""250px""></img></td>
  </tr>
  <tr height=200>
    <td width=300><img src=""static/images/keys/z.svg"" width=""35%"" height=""75%""></img></td>
    <td width=300><img src=""static/images/keys/m.svg"" width=""35%"" height=""75%""></img></td>
  </tr>
</table>
  ",77.0,,,,,,,,,,,,,,,,,,,,,,,,,1.0,,
66,0,,html-keyboard-response,66,416872,0.0-4.8-2.8,m2m96go0zy,2022-09-19 15:32:38.768,5af2a03697a14300017d2ba4,1,45,43,26,26,48,Male,,,"
  <table>
  <tr height=300>
    <td width=300 height=300><img src=""static/images/cards/back_of_red_stars.svg"" width=""175px"" height=""250px""></img></td>
    <td width=300 height=300><img src=""static/images/cards/4_of_red_stars.svg"" width=""175px"" height=""250px""></img></td>
  </tr>
  <tr height=200>
    <td width=300><img src=""static/images/keys/z.svg"" width=""35%"" height=""75%""></img></td>
    <td width=300><img src=""static/images/keys/m.svg"" width=""35%"" height=""75%""></img></td>
  </tr>
</table>
  ",,,,,,,,,,,,,,,,,,,,,,,,,,,,
67,0,,html-keyboard-response,67,418375,0.0-4.8-3.8,m2m96go0zy,2022-09-19 15:32:38.768,5af2a03697a14300017d2ba4,1,45,43,26,26,48,Male,,,"<p style=""font-size:50px"">You Lose!
No points this round.</p>",,,,,,,,,,,,,,,,,,,,,,,,,,,,
68,0,,html-keyboard-response,68,418885,0.0-4.8-4.8,m2m96go0zy,2022-09-19 15:32:38.768,5af2a03697a14300017d2ba4,1,45,43,26,26,48,Male,,,,,1.0,learning,8.0,C,,red,,stars,,,,C,red,stars,,1.0,0.0,NA,right,941.0,4.0,0.0,0.0,,,,
69,0,,html-keyboard-response,69,420389,0.0-4.9-0.9,m2m96go0zy,2022-09-19 15:32:38.768,5af2a03697a14300017d2ba4,1,45,43,26,26,48,Male,,,"<img src=""static/images/cards/stack_of_black_stars.svg"" width=""175px"" height=""250px""></img>",,,,,,,,,,,,,,,,,,,,,,,,,,,,
70,0,,html-keyboard-response,70,421801,0.0-4.9-1.9,m2m96go0zy,2022-09-19 15:32:38.768,5af2a03697a14300017d2ba4,1,45,43,26,26,48,Male,908.0,,"
  <table>
  <tr height=300>
    <td width=300 height=300><img src=""static/images/cards/back_of_black_stars.svg"" width=""175px"" height=""250px""></img></td>
    <td width=300 height=300><img src=""static/images/cards/back_of_black_stars.svg"" width=""175px"" height=""250px""></img></td>
  </tr>
  <tr height=200>
    <td width=300></td>
    <td width=300><img src=""static/images/keys/m.svg"" width=""35%"" height=""75%""></img></td>
  </tr>
</table>
  ",77.0,,,,,,,,,,,,,,,,,,,,,,,,,1.0,,
71,0,,html-keyboard-response,71,423302,0.0-4.9-2.9,m2m96go0zy,2022-09-19 15:32:38.768,5af2a03697a14300017d2ba4,1,45,43,26,26,48,Male,,,"
  <table>
  <tr height=300>
    <td width=300 height=300><img src=""static/images/cards/back_of_black_stars.svg"" width=""175px"" height=""250px""></img></td>
    <td width=300 height=300><img src=""static/images/cards/6_of_black_stars.svg"" width=""175px"" height=""250px""></img></td>
  </tr>
  <tr height=200>
    <td width=300></td>
    <td width=300><img src=""static/images/keys/m.svg"" width=""35%"" height=""75%""></img></td>
  </tr>
</table>
  ",,,,,,,,,,,,,,,,,,,,,,,,,,,,
72,0,,html-keyboard-response,72,424806,0.0-4.9-3.9,m2m96go0zy,2022-09-19 15:32:38.768,5af2a03697a14300017d2ba4,1,45,43,26,26,48,Male,,,"<p style=""font-size:50px"">You Lose!
No points this round.</p>",,,,,,,,,,,,,,,,,,,,,,,,,,,,
73,0,,html-keyboard-response,73,425315,0.0-4.9-4.9,m2m96go0zy,2022-09-19 15:32:38.768,5af2a03697a14300017d2ba4,1,45,43,26,26,48,Male,,,,,1.0,learning,9.0,D,,black,,stars,,,,D,black,stars,,0.0,0.0,0,right,908.0,6.0,1.0,0.0,,,,
74,0,,html-keyboard-response,74,426819,0.0-4.10-0.10,m2m96go0zy,2022-09-19 15:32:38.768,5af2a03697a14300017d2ba4,1,45,43,26,26,48,Male,,,"<img src=""static/images/cards/stack_of_red_bolts.svg"" width=""175px"" height=""250px""></img>",,,,,,,,,,,,,,,,,,,,,,,,,,,,
75,0,,html-keyboard-response,75,427833,0.0-4.10-1.10,m2m96go0zy,2022-09-19 15:32:38.768,5af2a03697a14300017d2ba4,1,45,43,26,26,48,Male,509.0,,"
  <table>
  <tr height=300>
    <td width=300 height=300><img src=""static/images/cards/back_of_red_bolts.svg"" width=""175px"" height=""250px""></img></td>
    <td width=300 height=300><img src=""static/images/cards/back_of_red_bolts.svg"" width=""175px"" height=""250px""></img></td>
  </tr>
  <tr height=200>
    <td width=300><img src=""static/images/keys/z.svg"" width=""35%"" height=""75%""></img></td>
    <td width=300><img src=""static/images/keys/m.svg"" width=""35%"" height=""75%""></img></td>
  </tr>
</table>
  ",90.0,,,,,,,,,,,,,,,,,,,,,,,,,1.0,,
76,0,,html-keyboard-response,76,429337,0.0-4.10-2.10,m2m96go0zy,2022-09-19 15:32:38.768,5af2a03697a14300017d2ba4,1,45,43,26,26,48,Male,,,"
  <table>
  <tr height=300>
    <td width=300 height=300><img src=""static/images/cards/2_of_red_bolts.svg"" width=""175px"" height=""250px""></img></td>
    <td width=300 height=300><img src=""static/images/cards/back_of_red_bolts.svg"" width=""175px"" height=""250px""></img></td>
  </tr>
  <tr height=200>
    <td width=300><img src=""static/images/keys/z.svg"" width=""35%"" height=""75%""></img></td>
    <td width=300><img src=""static/images/keys/m.svg"" width=""35%"" height=""75%""></img></td>
  </tr>
</table>
  ",,,,,,,,,,,,,,,,,,,,,,,,,,,,
77,0,,html-keyboard-response,77,430840,0.0-4.10-3.10,m2m96go0zy,2022-09-19 15:32:38.768,5af2a03697a14300017d2ba4,1,45,43,26,26,48,Male,,,"<p style=""font-size:50px"">You win!
+10 points this round!</p>",,,,,,,,,,,,,,,,,,,,,,,,,,,,
78,0,,html-keyboard-response,78,431348,0.0-4.10-4.10,m2m96go0zy,2022-09-19 15:32:38.768,5af2a03697a14300017d2ba4,1,45,43,26,26,48,Male,,,,,1.0,learning,10.0,Xc,,red,,bolts,,,,Xc,red,bolts,,1.0,0.0,NA,left,509.0,2.0,0.0,1.0,,,,
79,0,,html-keyboard-response,79,432851,0.0-4.11-0.11,m2m96go0zy,2022-09-19 15:32:38.768,5af2a03697a14300017d2ba4,1,45,43,26,26,48,Male,,,"<img src=""static/images/cards/stack_of_black_bolts.svg"" width=""175px"" height=""250px""></img>",,,,,,,,,,,,,,,,,,,,,,,,,,,,
80,0,,html-keyboard-response,80,434017,0.0-4.11-1.11,m2m96go0zy,2022-09-19 15:32:38.768,5af2a03697a14300017d2ba4,1,45,43,26,26,48,Male,662.0,,"
  <table>
  <tr height=300>
    <td width=300 height=300><img src=""static/images/cards/back_of_black_bolts.svg"" width=""175px"" height=""250px""></img></td>
    <td width=300 height=300><img src=""static/images/cards/back_of_black_bolts.svg"" width=""175px"" height=""250px""></img></td>
  </tr>
  <tr height=200>
    <td width=300></td>
    <td width=300><img src=""static/images/keys/m.svg"" width=""35%"" height=""75%""></img></td>
  </tr>
</table>
  ",77.0,,,,,,,,,,,,,,,,,,,,,,,,,1.0,,
81,0,,html-keyboard-response,81,435519,0.0-4.11-2.11,m2m96go0zy,2022-09-19 15:32:38.768,5af2a03697a14300017d2ba4,1,45,43,26,26,48,Male,,,"
  <table>
  <tr height=300>
    <td width=300 height=300><img src=""static/images/cards/back_of_black_bolts.svg"" width=""175px"" height=""250px""></img></td>
    <td width=300 height=300><img src=""static/images/cards/7_of_black_bolts.svg"" width=""175px"" height=""250px""></img></td>
  </tr>
  <tr height=200>
    <td width=300></td>
    <td width=300><img src=""static/images/keys/m.svg"" width=""35%"" height=""75%""></img></td>
  </tr>
</table>
  ",,,,,,,,,,,,,,,,,,,,,,,,,,,,
82,0,,html-keyboard-response,82,437023,0.0-4.11-3.11,m2m96go0zy,2022-09-19 15:32:38.768,5af2a03697a14300017d2ba4,1,45,43,26,26,48,Male,,,"<p style=""font-size:50px"">You win!
+10 points this round!</p>",,,,,,,,,,,,,,,,,,,,,,,,,,,,
83,0,,html-keyboard-response,83,437532,0.0-4.11-4.11,m2m96go0zy,2022-09-19 15:32:38.768,5af2a03697a14300017d2ba4,1,45,43,26,26,48,Male,,,,,1.0,learning,11.0,Xnc,,black,,bolts,,,,Xnc,black,bolts,,0.0,0.0,0,right,662.0,7.0,1.0,1.0,,,,
84,0,,html-keyboard-response,84,439036,0.0-4.12-0.12,m2m96go0zy,2022-09-19 15:32:38.768,5af2a03697a14300017d2ba4,1,45,43,26,26,48,Male,,,"<img src=""static/images/cards/stack_of_red_moons.svg"" width=""175px"" height=""250px""></img>",,,,,,,,,,,,,,,,,,,,,,,,,,,,
85,0,,html-keyboard-response,85,440241,0.0-4.12-1.12,m2m96go0zy,2022-09-19 15:32:38.768,5af2a03697a14300017d2ba4,1,45,43,26,26,48,Male,702.0,,"
  <table>
  <tr height=300>
    <td width=300 height=300><img src=""static/images/cards/back_of_red_moons.svg"" width=""175px"" height=""250px""></img></td>
    <td width=300 height=300><img src=""static/images/cards/back_of_red_moons.svg"" width=""175px"" height=""250px""></img></td>
  </tr>
  <tr height=200>
    <td width=300><img src=""static/images/keys/z.svg"" width=""35%"" height=""75%""></img></td>
    <td width=300><img src=""static/images/keys/m.svg"" width=""35%"" height=""75%""></img></td>
  </tr>
</table>
  ",90.0,,,,,,,,,,,,,,,,,,,,,,,,,1.0,,
86,0,,html-keyboard-response,86,441743,0.0-4.12-2.12,m2m96go0zy,2022-09-19 15:32:38.768,5af2a03697a14300017d2ba4,1,45,43,26,26,48,Male,,,"
  <table>
  <tr height=300>
    <td width=300 height=300><img src=""static/images/cards/9_of_red_moons.svg"" width=""175px"" height=""250px""></img></td>
    <td width=300 height=300><img src=""static/images/cards/back_of_red_moons.svg"" width=""175px"" height=""250px""></img></td>
  </tr>
  <tr height=200>
    <td width=300><img src=""static/images/keys/z.svg"" width=""35%"" height=""75%""></img></td>
    <td width=300><img src=""static/images/keys/m.svg"" width=""35%"" height=""75%""></img></td>
  </tr>
</table>
  ",,,,,,,,,,,,,,,,,,,,,,,,,,,,
87,0,,html-keyboard-response,87,443249,0.0-4.12-3.12,m2m96go0zy,2022-09-19 15:32:38.768,5af2a03697a14300017d2ba4,1,45,43,26,26,48,Male,,,"<p style=""font-size:50px"">You win!
+10 points this round!</p>",,,,,,,,,,,,,,,,,,,,,,,,,,,,
88,0,,html-keyboard-response,88,443758,0.0-4.12-4.12,m2m96go0zy,2022-09-19 15:32:38.768,5af2a03697a14300017d2ba4,1,45,43,26,26,48,Male,,,,,1.0,learning,12.0,A,,red,,moons,,,,A,red,moons,,1.0,1.0,NA,left,702.0,9.0,1.0,1.0,,,,
89,0,,html-keyboard-response,89,445261,0.0-4.13-0.13,m2m96go0zy,2022-09-19 15:32:38.768,5af2a03697a14300017d2ba4,1,45,43,26,26,48,Male,,,"<img src=""static/images/cards/stack_of_black_moons.svg"" width=""175px"" height=""250px""></img>",,,,,,,,,,,,,,,,,,,,,,,,,,,,
90,0,,html-keyboard-response,90,446369,0.0-4.13-1.13,m2m96go0zy,2022-09-19 15:32:38.768,5af2a03697a14300017d2ba4,1,45,43,26,26,48,Male,605.0,,"
  <table>
  <tr height=300>
    <td width=300 height=300><img src=""static/images/cards/back_of_black_moons.svg"" width=""175px"" height=""250px""></img></td>
    <td width=300 height=300><img src=""static/images/cards/back_of_black_moons.svg"" width=""175px"" height=""250px""></img></td>
  </tr>
  <tr height=200>
    <td width=300></td>
    <td width=300><img src=""static/images/keys/m.svg"" width=""35%"" height=""75%""></img></td>
  </tr>
</table>
  ",77.0,,,,,,,,,,,,,,,,,,,,,,,,,1.0,,
91,0,,html-keyboard-response,91,447873,0.0-4.13-2.13,m2m96go0zy,2022-09-19 15:32:38.768,5af2a03697a14300017d2ba4,1,45,43,26,26,48,Male,,,"
  <table>
  <tr height=300>
    <td width=300 height=300><img src=""static/images/cards/back_of_black_moons.svg"" width=""175px"" height=""250px""></img></td>
    <td width=300 height=300><img src=""static/images/cards/9_of_black_moons.svg"" width=""175px"" height=""250px""></img></td>
  </tr>
  <tr height=200>
    <td width=300></td>
    <td width=300><img src=""static/images/keys/m.svg"" width=""35%"" height=""75%""></img></td>
  </tr>
</table>
  ",,,,,,,,,,,,,,,,,,,,,,,,,,,,
92,0,,html-keyboard-response,92,449375,0.0-4.13-3.13,m2m96go0zy,2022-09-19 15:32:38.768,5af2a03697a14300017d2ba4,1,45,43,26,26,48,Male,,,"<p style=""font-size:50px"">You win!
+10 points this round!</p>",,,,,,,,,,,,,,,,,,,,,,,,,,,,
93,0,,html-keyboard-response,93,449884,0.0-4.13-4.13,m2m96go0zy,2022-09-19 15:32:38.768,5af2a03697a14300017d2ba4,1,45,43,26,26,48,Male,,,,,1.0,learning,13.0,B,,black,,moons,,,,B,black,moons,,0.0,1.0,0,right,605.0,9.0,1.0,1.0,,,,
94,0,,html-keyboard-response,94,451387,0.0-4.14-0.14,m2m96go0zy,2022-09-19 15:32:38.768,5af2a03697a14300017d2ba4,1,45,43,26,26,48,Male,,,"<img src=""static/images/cards/stack_of_red_stars.svg"" width=""175px"" height=""250px""></img>",,,,,,,,,,,,,,,,,,,,,,,,,,,,
95,0,,html-keyboard-response,95,452521,0.0-4.14-1.14,m2m96go0zy,2022-09-19 15:32:38.768,5af2a03697a14300017d2ba4,1,45,43,26,26,48,Male,630.0,,"
  <table>
  <tr height=300>
    <td width=300 height=300><img src=""static/images/cards/back_of_red_stars.svg"" width=""175px"" height=""250px""></img></td>
    <td width=300 height=300><img src=""static/images/cards/back_of_red_stars.svg"" width=""175px"" height=""250px""></img></td>
  </tr>
  <tr height=200>
    <td width=300><img src=""static/images/keys/z.svg"" width=""35%"" height=""75%""></img></td>
    <td width=300><img src=""static/images/keys/m.svg"" width=""35%"" height=""75%""></img></td>
  </tr>
</table>
  ",90.0,,,,,,,,,,,,,,,,,,,,,,,,,1.0,,
96,0,,html-keyboard-response,96,454023,0.0-4.14-2.14,m2m96go0zy,2022-09-19 15:32:38.768,5af2a03697a14300017d2ba4,1,45,43,26,26,48,Male,,,"
  <table>
  <tr height=300>
    <td width=300 height=300><img src=""static/images/cards/1_of_red_stars.svg"" width=""175px"" height=""250px""></img></td>
    <td width=300 height=300><img src=""static/images/cards/back_of_red_stars.svg"" width=""175px"" height=""250px""></img></td>
  </tr>
  <tr height=200>
    <td width=300><img src=""static/images/keys/z.svg"" width=""35%"" height=""75%""></img></td>
    <td width=300><img src=""static/images/keys/m.svg"" width=""35%"" height=""75%""></img></td>
  </tr>
</table>
  ",,,,,,,,,,,,,,,,,,,,,,,,,,,,
97,0,,html-keyboard-response,97,455526,0.0-4.14-3.14,m2m96go0zy,2022-09-19 15:32:38.768,5af2a03697a14300017d2ba4,1,45,43,26,26,48,Male,,,"<p style=""font-size:50px"">You win!
+10 points this round!</p>",,,,,,,,,,,,,,,,,,,,,,,,,,,,
98,0,,html-keyboard-response,98,456035,0.0-4.14-4.14,m2m96go0zy,2022-09-19 15:32:38.768,5af2a03697a14300017d2ba4,1,45,43,26,26,48,Male,,,,,1.0,learning,14.0,C,,red,,stars,,,,C,red,stars,,1.0,0.0,NA,left,630.0,1.0,0.0,1.0,,,,
99,0,,html-keyboard-response,99,457538,0.0-4.15-0.15,m2m96go0zy,2022-09-19 15:32:38.768,5af2a03697a14300017d2ba4,1,45,43,26,26,48,Male,,,"<img src=""static/images/cards/stack_of_black_stars.svg"" width=""175px"" height=""250px""></img>",,,,,,,,,,,,,,,,,,,,,,,,,,,,
100,0,,html-keyboard-response,100,458833,0.0-4.15-1.15,m2m96go0zy,2022-09-19 15:32:38.768,5af2a03697a14300017d2ba4,1,45,43,26,26,48,Male,792.0,,"
  <table>
  <tr height=300>
    <td width=300 height=300><img src=""static/images/cards/back_of_black_stars.svg"" width=""175px"" height=""250px""></img></td>
    <td width=300 height=300><img src=""static/images/cards/back_of_black_stars.svg"" width=""175px"" height=""250px""></img></td>
  </tr>
  <tr height=200>
    <td width=300><img src=""static/images/keys/z.svg"" width=""35%"" height=""75%""></img></td>
    <td width=300></td>
  </tr>
</table>
  ",90.0,,,,,,,,,,,,,,,,,,,,,,,,,2.0,,
101,0,,html-keyboard-response,101,460337,0.0-4.15-2.15,m2m96go0zy,2022-09-19 15:32:38.768,5af2a03697a14300017d2ba4,1,45,43,26,26,48,Male,,,"
  <table>
  <tr height=300>
    <td width=300 height=300><img src=""static/images/cards/6_of_black_stars.svg"" width=""175px"" height=""250px""></img></td>
    <td width=300 height=300><img src=""static/images/cards/back_of_black_stars.svg"" width=""175px"" height=""250px""></img></td>
  </tr>
  <tr height=200>
    <td width=300><img src=""static/images/keys/z.svg"" width=""35%"" height=""75%""></img></td>
    <td width=300></td>
  </tr>
</table>
  ",,,,,,,,,,,,,,,,,,,,,,,,,,,,
102,0,,html-keyboard-response,102,461840,0.0-4.15-3.15,m2m96go0zy,2022-09-19 15:32:38.768,5af2a03697a14300017d2ba4,1,45,43,26,26,48,Male,,,"<p style=""font-size:50px"">You win!
+10 points this round!</p>",,,,,,,,,,,,,,,,,,,,,,,,,,,,
103,0,,html-keyboard-response,103,462349,0.0-4.15-4.15,m2m96go0zy,2022-09-19 15:32:38.768,5af2a03697a14300017d2ba4,1,45,43,26,26,48,Male,,,,,1.0,learning,15.0,D,,black,,stars,,,,D,black,stars,,0.0,0.0,1,left,792.0,6.0,1.0,1.0,,,,
104,0,,html-keyboard-response,104,463852,0.0-4.16-0.16,m2m96go0zy,2022-09-19 15:32:38.768,5af2a03697a14300017d2ba4,1,45,43,26,26,48,Male,,,"<img src=""static/images/cards/stack_of_red_bolts.svg"" width=""175px"" height=""250px""></img>",,,,,,,,,,,,,,,,,,,,,,,,,,,,
105,0,,html-keyboard-response,105,464624,0.0-4.16-1.16,m2m96go0zy,2022-09-19 15:32:38.768,5af2a03697a14300017d2ba4,1,45,43,26,26,48,Male,269.0,,"
  <table>
  <tr height=300>
    <td width=300 height=300><img src=""static/images/cards/back_of_red_bolts.svg"" width=""175px"" height=""250px""></img></td>
    <td width=300 height=300><img src=""static/images/cards/back_of_red_bolts.svg"" width=""175px"" height=""250px""></img></td>
  </tr>
  <tr height=200>
    <td width=300><img src=""static/images/keys/z.svg"" width=""35%"" height=""75%""></img></td>
    <td width=300><img src=""static/images/keys/m.svg"" width=""35%"" height=""75%""></img></td>
  </tr>
</table>
  ",77.0,,,,,,,,,,,,,,,,,,,,,,,,,1.0,,
106,0,,html-keyboard-response,106,466128,0.0-4.16-2.16,m2m96go0zy,2022-09-19 15:32:38.768,5af2a03697a14300017d2ba4,1,45,43,26,26,48,Male,,,"
  <table>
  <tr height=300>
    <td width=300 height=300><img src=""static/images/cards/back_of_red_bolts.svg"" width=""175px"" height=""250px""></img></td>
    <td width=300 height=300><img src=""static/images/cards/1_of_red_bolts.svg"" width=""175px"" height=""250px""></img></td>
  </tr>
  <tr height=200>
    <td width=300><img src=""static/images/keys/z.svg"" width=""35%"" height=""75%""></img></td>
    <td width=300><img src=""static/images/keys/m.svg"" width=""35%"" height=""75%""></img></td>
  </tr>
</table>
  ",,,,,,,,,,,,,,,,,,,,,,,,,,,,
107,0,,html-keyboard-response,107,467632,0.0-4.16-3.16,m2m96go0zy,2022-09-19 15:32:38.768,5af2a03697a14300017d2ba4,1,45,43,26,26,48,Male,,,"<p style=""font-size:50px"">You win!
+10 points this round!</p>",,,,,,,,,,,,,,,,,,,,,,,,,,,,
108,0,,html-keyboard-response,108,468141,0.0-4.16-4.16,m2m96go0zy,2022-09-19 15:32:38.768,5af2a03697a14300017d2ba4,1,45,43,26,26,48,Male,,,,,1.0,learning,16.0,Xc,,red,,bolts,,,,Xc,red,bolts,,1.0,0.0,NA,right,269.0,1.0,0.0,1.0,,,,
109,0,,html-keyboard-response,109,469645,0.0-4.17-0.17,m2m96go0zy,2022-09-19 15:32:38.768,5af2a03697a14300017d2ba4,1,45,43,26,26,48,Male,,,"<img src=""static/images/cards/stack_of_black_bolts.svg"" width=""175px"" height=""250px""></img>",,,,,,,,,,,,,,,,,,,,,,,,,,,,
110,0,,html-keyboard-response,110,470657,0.0-4.17-1.17,m2m96go0zy,2022-09-19 15:32:38.768,5af2a03697a14300017d2ba4,1,45,43,26,26,48,Male,509.0,,"
  <table>
  <tr height=300>
    <td width=300 height=300><img src=""static/images/cards/back_of_black_bolts.svg"" width=""175px"" height=""250px""></img></td>
    <td width=300 height=300><img src=""static/images/cards/back_of_black_bolts.svg"" width=""175px"" height=""250px""></img></td>
  </tr>
  <tr height=200>
    <td width=300></td>
    <td width=300><img src=""static/images/keys/m.svg"" width=""35%"" height=""75%""></img></td>
  </tr>
</table>
  ",77.0,,,,,,,,,,,,,,,,,,,,,,,,,1.0,,
111,0,,html-keyboard-response,111,472161,0.0-4.17-2.17,m2m96go0zy,2022-09-19 15:32:38.768,5af2a03697a14300017d2ba4,1,45,43,26,26,48,Male,,,"
  <table>
  <tr height=300>
    <td width=300 height=300><img src=""static/images/cards/back_of_black_bolts.svg"" width=""175px"" height=""250px""></img></td>
    <td width=300 height=300><img src=""static/images/cards/6_of_black_bolts.svg"" width=""175px"" height=""250px""></img></td>
  </tr>
  <tr height=200>
    <td width=300></td>
    <td width=300><img src=""static/images/keys/m.svg"" width=""35%"" height=""75%""></img></td>
  </tr>
</table>
  ",,,,,,,,,,,,,,,,,,,,,,,,,,,,
112,0,,html-keyboard-response,112,473664,0.0-4.17-3.17,m2m96go0zy,2022-09-19 15:32:38.768,5af2a03697a14300017d2ba4,1,45,43,26,26,48,Male,,,"<p style=""font-size:50px"">You win!
+10 points this round!</p>",,,,,,,,,,,,,,,,,,,,,,,,,,,,
113,0,,html-keyboard-response,113,474173,0.0-4.17-4.17,m2m96go0zy,2022-09-19 15:32:38.768,5af2a03697a14300017d2ba4,1,45,43,26,26,48,Male,,,,,1.0,learning,17.0,Xnc,,black,,bolts,,,,Xnc,black,bolts,,0.0,0.0,0,right,509.0,6.0,1.0,1.0,,,,
114,0,,html-keyboard-response,114,475676,0.0-4.18-0.18,m2m96go0zy,2022-09-19 15:32:38.768,5af2a03697a14300017d2ba4,1,45,43,26,26,48,Male,,,"<img src=""static/images/cards/stack_of_red_moons.svg"" width=""175px"" height=""250px""></img>",,,,,,,,,,,,,,,,,,,,,,,,,,,,
115,0,,html-keyboard-response,115,476713,0.0-4.18-1.18,m2m96go0zy,2022-09-19 15:32:38.768,5af2a03697a14300017d2ba4,1,45,43,26,26,48,Male,534.0,,"
  <table>
  <tr height=300>
    <td width=300 height=300><img src=""static/images/cards/back_of_red_moons.svg"" width=""175px"" height=""250px""></img></td>
    <td width=300 height=300><img src=""static/images/cards/back_of_red_moons.svg"" width=""175px"" height=""250px""></img></td>
  </tr>
  <tr height=200>
    <td width=300><img src=""static/images/keys/z.svg"" width=""35%"" height=""75%""></img></td>
    <td width=300><img src=""static/images/keys/m.svg"" width=""35%"" height=""75%""></img></td>
  </tr>
</table>
  ",90.0,,,,,,,,,,,,,,,,,,,,,,,,,1.0,,
116,0,,html-keyboard-response,116,478218,0.0-4.18-2.18,m2m96go0zy,2022-09-19 15:32:38.768,5af2a03697a14300017d2ba4,1,45,43,26,26,48,Male,,,"
  <table>
  <tr height=300>
    <td width=300 height=300><img src=""static/images/cards/1_of_red_moons.svg"" width=""175px"" height=""250px""></img></td>
    <td width=300 height=300><img src=""static/images/cards/back_of_red_moons.svg"" width=""175px"" height=""250px""></img></td>
  </tr>
  <tr height=200>
    <td width=300><img src=""static/images/keys/z.svg"" width=""35%"" height=""75%""></img></td>
    <td width=300><img src=""static/images/keys/m.svg"" width=""35%"" height=""75%""></img></td>
  </tr>
</table>
  ",,,,,,,,,,,,,,,,,,,,,,,,,,,,
117,0,,html-keyboard-response,117,479721,0.0-4.18-3.18,m2m96go0zy,2022-09-19 15:32:38.768,5af2a03697a14300017d2ba4,1,45,43,26,26,48,Male,,,"<p style=""font-size:50px"">You Lose!
No points this round.</p>",,,,,,,,,,,,,,,,,,,,,,,,,,,,
118,0,,html-keyboard-response,118,480231,0.0-4.18-4.18,m2m96go0zy,2022-09-19 15:32:38.768,5af2a03697a14300017d2ba4,1,45,43,26,26,48,Male,,,,,1.0,learning,18.0,A,,red,,moons,,,,A,red,moons,,1.0,1.0,NA,left,534.0,1.0,0.0,0.0,,,,
119,0,,html-keyboard-response,119,481734,0.0-4.19-0.19,m2m96go0zy,2022-09-19 15:32:38.768,5af2a03697a14300017d2ba4,1,45,43,26,26,48,Male,,,"<img src=""static/images/cards/stack_of_black_moons.svg"" width=""175px"" height=""250px""></img>",,,,,,,,,,,,,,,,,,,,,,,,,,,,
120,0,,html-keyboard-response,120,482769,0.0-4.19-1.19,m2m96go0zy,2022-09-19 15:32:38.768,5af2a03697a14300017d2ba4,1,45,43,26,26,48,Male,533.0,,"
  <table>
  <tr height=300>
    <td width=300 height=300><img src=""static/images/cards/back_of_black_moons.svg"" width=""175px"" height=""250px""></img></td>
    <td width=300 height=300><img src=""static/images/cards/back_of_black_moons.svg"" width=""175px"" height=""250px""></img></td>
  </tr>
  <tr height=200>
    <td width=300></td>
    <td width=300><img src=""static/images/keys/m.svg"" width=""35%"" height=""75%""></img></td>
  </tr>
</table>
  ",77.0,,,,,,,,,,,,,,,,,,,,,,,,,1.0,,
121,0,,html-keyboard-response,121,484271,0.0-4.19-2.19,m2m96go0zy,2022-09-19 15:32:38.768,5af2a03697a14300017d2ba4,1,45,43,26,26,48,Male,,,"
  <table>
  <tr height=300>
    <td width=300 height=300><img src=""static/images/cards/back_of_black_moons.svg"" width=""175px"" height=""250px""></img></td>
    <td width=300 height=300><img src=""static/images/cards/3_of_black_moons.svg"" width=""175px"" height=""250px""></img></td>
  </tr>
  <tr height=200>
    <td width=300></td>
    <td width=300><img src=""static/images/keys/m.svg"" width=""35%"" height=""75%""></img></td>
  </tr>
</table>
  ",,,,,,,,,,,,,,,,,,,,,,,,,,,,
122,0,,html-keyboard-response,122,485774,0.0-4.19-3.19,m2m96go0zy,2022-09-19 15:32:38.768,5af2a03697a14300017d2ba4,1,45,43,26,26,48,Male,,,"<p style=""font-size:50px"">You Lose!
No points this round.</p>",,,,,,,,,,,,,,,,,,,,,,,,,,,,
123,0,,html-keyboard-response,123,486283,0.0-4.19-4.19,m2m96go0zy,2022-09-19 15:32:38.768,5af2a03697a14300017d2ba4,1,45,43,26,26,48,Male,,,,,1.0,learning,19.0,B,,black,,moons,,,,B,black,moons,,0.0,1.0,0,right,533.0,3.0,0.0,0.0,,,,
124,0,,html-keyboard-response,124,487787,0.0-4.20-0.20,m2m96go0zy,2022-09-19 15:32:38.768,5af2a03697a14300017d2ba4,1,45,43,26,26,48,Male,,,"<img src=""static/images/cards/stack_of_red_stars.svg"" width=""175px"" height=""250px""></img>",,,,,,,,,,,,,,,,,,,,,,,,,,,,
125,0,,html-keyboard-response,125,488889,0.0-4.20-1.20,m2m96go0zy,2022-09-19 15:32:38.768,5af2a03697a14300017d2ba4,1,45,43,26,26,48,Male,593.0,,"
  <table>
  <tr height=300>
    <td width=300 height=300><img src=""static/images/cards/back_of_red_stars.svg"" width=""175px"" height=""250px""></img></td>
    <td width=300 height=300><img src=""static/images/cards/back_of_red_stars.svg"" width=""175px"" height=""250px""></img></td>
  </tr>
  <tr height=200>
    <td width=300><img src=""static/images/keys/z.svg"" width=""35%"" height=""75%""></img></td>
    <td width=300><img src=""static/images/keys/m.svg"" width=""35%"" height=""75%""></img></td>
  </tr>
</table>
  ",90.0,,,,,,,,,,,,,,,,,,,,,,,,,1.0,,
126,0,,html-keyboard-response,126,490394,0.0-4.20-2.20,m2m96go0zy,2022-09-19 15:32:38.768,5af2a03697a14300017d2ba4,1,45,43,26,26,48,Male,,,"
  <table>
  <tr height=300>
    <td width=300 height=300><img src=""static/images/cards/6_of_red_stars.svg"" width=""175px"" height=""250px""></img></td>
    <td width=300 height=300><img src=""static/images/cards/back_of_red_stars.svg"" width=""175px"" height=""250px""></img></td>
  </tr>
  <tr height=200>
    <td width=300><img src=""static/images/keys/z.svg"" width=""35%"" height=""75%""></img></td>
    <td width=300><img src=""static/images/keys/m.svg"" width=""35%"" height=""75%""></img></td>
  </tr>
</table>
  ",,,,,,,,,,,,,,,,,,,,,,,,,,,,
127,0,,html-keyboard-response,127,491906,0.0-4.20-3.20,m2m96go0zy,2022-09-19 15:32:38.768,5af2a03697a14300017d2ba4,1,45,43,26,26,48,Male,,,"<p style=""font-size:50px"">You win!
+10 points this round!</p>",,,,,,,,,,,,,,,,,,,,,,,,,,,,
128,0,,html-keyboard-response,128,492423,0.0-4.20-4.20,m2m96go0zy,2022-09-19 15:32:38.768,5af2a03697a14300017d2ba4,1,45,43,26,26,48,Male,,,,,1.0,learning,20.0,C,,red,,stars,,,,C,red,stars,,1.0,0.0,NA,left,593.0,6.0,1.0,1.0,,,,
129,0,,html-keyboard-response,129,493925,0.0-4.21-0.21,m2m96go0zy,2022-09-19 15:32:38.768,5af2a03697a14300017d2ba4,1,45,43,26,26,48,Male,,,"<img src=""static/images/cards/stack_of_black_stars.svg"" width=""175px"" height=""250px""></img>",,,,,,,,,,,,,,,,,,,,,,,,,,,,
130,0,,html-keyboard-response,130,494856,0.0-4.21-1.21,m2m96go0zy,2022-09-19 15:32:38.768,5af2a03697a14300017d2ba4,1,45,43,26,26,48,Male,429.0,,"
  <table>
  <tr height=300>
    <td width=300 height=300><img src=""static/images/cards/back_of_black_stars.svg"" width=""175px"" height=""250px""></img></td>
    <td width=300 height=300><img src=""static/images/cards/back_of_black_stars.svg"" width=""175px"" height=""250px""></img></td>
  </tr>
  <tr height=200>
    <td width=300></td>
    <td width=300><img src=""static/images/keys/m.svg"" width=""35%"" height=""75%""></img></td>
  </tr>
</table>
  ",77.0,,,,,,,,,,,,,,,,,,,,,,,,,1.0,,
131,0,,html-keyboard-response,131,496359,0.0-4.21-2.21,m2m96go0zy,2022-09-19 15:32:38.768,5af2a03697a14300017d2ba4,1,45,43,26,26,48,Male,,,"
  <table>
  <tr height=300>
    <td width=300 height=300><img src=""static/images/cards/back_of_black_stars.svg"" width=""175px"" height=""250px""></img></td>
    <td width=300 height=300><img src=""static/images/cards/4_of_black_stars.svg"" width=""175px"" height=""250px""></img></td>
  </tr>
  <tr height=200>
    <td width=300></td>
    <td width=300><img src=""static/images/keys/m.svg"" width=""35%"" height=""75%""></img></td>
  </tr>
</table>
  ",,,,,,,,,,,,,,,,,,,,,,,,,,,,
132,0,,html-keyboard-response,132,497862,0.0-4.21-3.21,m2m96go0zy,2022-09-19 15:32:38.768,5af2a03697a14300017d2ba4,1,45,43,26,26,48,Male,,,"<p style=""font-size:50px"">You Lose!
No points this round.</p>",,,,,,,,,,,,,,,,,,,,,,,,,,,,
133,0,,html-keyboard-response,133,498373,0.0-4.21-4.21,m2m96go0zy,2022-09-19 15:32:38.768,5af2a03697a14300017d2ba4,1,45,43,26,26,48,Male,,,,,1.0,learning,21.0,D,,black,,stars,,,,D,black,stars,,0.0,0.0,0,right,429.0,4.0,0.0,0.0,,,,
134,0,,html-keyboard-response,134,499876,0.0-4.22-0.22,m2m96go0zy,2022-09-19 15:32:38.768,5af2a03697a14300017d2ba4,1,45,43,26,26,48,Male,,,"<img src=""static/images/cards/stack_of_red_bolts.svg"" width=""175px"" height=""250px""></img>",,,,,,,,,,,,,,,,,,,,,,,,,,,,
135,0,,html-keyboard-response,135,500793,0.0-4.22-1.22,m2m96go0zy,2022-09-19 15:32:38.768,5af2a03697a14300017d2ba4,1,45,43,26,26,48,Male,413.0,,"
  <table>
  <tr height=300>
    <td width=300 height=300><img src=""static/images/cards/back_of_red_bolts.svg"" width=""175px"" height=""250px""></img></td>
    <td width=300 height=300><img src=""static/images/cards/back_of_red_bolts.svg"" width=""175px"" height=""250px""></img></td>
  </tr>
  <tr height=200>
    <td width=300><img src=""static/images/keys/z.svg"" width=""35%"" height=""75%""></img></td>
    <td width=300><img src=""static/images/keys/m.svg"" width=""35%"" height=""75%""></img></td>
  </tr>
</table>
  ",90.0,,,,,,,,,,,,,,,,,,,,,,,,,1.0,,
136,0,,html-keyboard-response,136,502294,0.0-4.22-2.22,m2m96go0zy,2022-09-19 15:32:38.768,5af2a03697a14300017d2ba4,1,45,43,26,26,48,Male,,,"
  <table>
  <tr height=300>
    <td width=300 height=300><img src=""static/images/cards/9_of_red_bolts.svg"" width=""175px"" height=""250px""></img></td>
    <td width=300 height=300><img src=""static/images/cards/back_of_red_bolts.svg"" width=""175px"" height=""250px""></img></td>
  </tr>
  <tr height=200>
    <td width=300><img src=""static/images/keys/z.svg"" width=""35%"" height=""75%""></img></td>
    <td width=300><img src=""static/images/keys/m.svg"" width=""35%"" height=""75%""></img></td>
  </tr>
</table>
  ",,,,,,,,,,,,,,,,,,,,,,,,,,,,
137,0,,html-keyboard-response,137,503798,0.0-4.22-3.22,m2m96go0zy,2022-09-19 15:32:38.768,5af2a03697a14300017d2ba4,1,45,43,26,26,48,Male,,,"<p style=""font-size:50px"">You win!
+10 points this round!</p>",,,,,,,,,,,,,,,,,,,,,,,,,,,,
138,0,,html-keyboard-response,138,504306,0.0-4.22-4.22,m2m96go0zy,2022-09-19 15:32:38.768,5af2a03697a14300017d2ba4,1,45,43,26,26,48,Male,,,,,1.0,learning,22.0,Xc,,red,,bolts,,,,Xc,red,bolts,,1.0,0.0,NA,left,413.0,9.0,1.0,1.0,,,,
139,0,,html-keyboard-response,139,505810,0.0-4.23-0.23,m2m96go0zy,2022-09-19 15:32:38.768,5af2a03697a14300017d2ba4,1,45,43,26,26,48,Male,,,"<img src=""static/images/cards/stack_of_black_bolts.svg"" width=""175px"" height=""250px""></img>",,,,,,,,,,,,,,,,,,,,,,,,,,,,
140,0,,html-keyboard-response,140,506737,0.0-4.23-1.23,m2m96go0zy,2022-09-19 15:32:38.768,5af2a03697a14300017d2ba4,1,45,43,26,26,48,Male,423.0,,"
  <table>
  <tr height=300>
    <td width=300 height=300><img src=""static/images/cards/back_of_black_bolts.svg"" width=""175px"" height=""250px""></img></td>
    <td width=300 height=300><img src=""static/images/cards/back_of_black_bolts.svg"" width=""175px"" height=""250px""></img></td>
  </tr>
  <tr height=200>
    <td width=300></td>
    <td width=300><img src=""static/images/keys/m.svg"" width=""35%"" height=""75%""></img></td>
  </tr>
</table>
  ",77.0,,,,,,,,,,,,,,,,,,,,,,,,,1.0,,
141,0,,html-keyboard-response,141,508251,0.0-4.23-2.23,m2m96go0zy,2022-09-19 15:32:38.768,5af2a03697a14300017d2ba4,1,45,43,26,26,48,Male,,,"
  <table>
  <tr height=300>
    <td width=300 height=300><img src=""static/images/cards/back_of_black_bolts.svg"" width=""175px"" height=""250px""></img></td>
    <td width=300 height=300><img src=""static/images/cards/3_of_black_bolts.svg"" width=""175px"" height=""250px""></img></td>
  </tr>
  <tr height=200>
    <td width=300></td>
    <td width=300><img src=""static/images/keys/m.svg"" width=""35%"" height=""75%""></img></td>
  </tr>
</table>
  ",,,,,,,,,,,,,,,,,,,,,,,,,,,,
142,0,,html-keyboard-response,142,509764,0.0-4.23-3.23,m2m96go0zy,2022-09-19 15:32:38.768,5af2a03697a14300017d2ba4,1,45,43,26,26,48,Male,,,"<p style=""font-size:50px"">You win!
+10 points this round!</p>",,,,,,,,,,,,,,,,,,,,,,,,,,,,
143,0,,html-keyboard-response,143,510282,0.0-4.23-4.23,m2m96go0zy,2022-09-19 15:32:38.768,5af2a03697a14300017d2ba4,1,45,43,26,26,48,Male,,,,,1.0,learning,23.0,Xnc,,black,,bolts,,,,Xnc,black,bolts,,0.0,0.0,0,right,423.0,3.0,0.0,1.0,,,,
144,0,,call-function,144,510284,0.0-5.0,m2m96go0zy,2022-09-19 15:32:38.768,5af2a03697a14300017d2ba4,1,45,43,26,26,48,Male,,,,,,,,,,,,,,,,,,,,,,,,,,,,,,,
145,0,,image-keyboard-response,145,524825,0.0-6.0-0.0,m2m96go0zy,2022-09-19 15:32:38.768,5af2a03697a14300017d2ba4,1,45,43,26,26,48,Male,14540.0,,static/images/instructions_CB_1/Slide20.png,39.0,,,,,,,,,,,,,,,,,,,,,,,,,,,
146,0,,image-keyboard-response,146,537329,0.0-6.1-0.1,m2m96go0zy,2022-09-19 15:32:38.768,5af2a03697a14300017d2ba4,1,45,43,26,26,48,Male,12503.0,,static/images/instructions_CB_1/Slide21.png,39.0,,,,,,,,,,,,,,,,,,,,,,,,,,,
147,0,,image-keyboard-response,147,549800,0.0-6.2-0.2,m2m96go0zy,2022-09-19 15:32:38.768,5af2a03697a14300017d2ba4,1,45,43,26,26,48,Male,12471.0,,static/images/instructions_CB_1/Slide22.png,39.0,,,,,,,,,,,,,,,,,,,,,,,,,,,
148,0,,image-keyboard-response,148,590217,0.0-6.3-0.3,m2m96go0zy,2022-09-19 15:32:38.768,5af2a03697a14300017d2ba4,1,45,43,26,26,48,Male,40415.0,,static/images/instructions_CB_1/Slide23.png,39.0,,,,,,,,,,,,,,,,,,,,,,,,,,,
149,0,,image-keyboard-response,149,595936,0.0-6.4-0.4,m2m96go0zy,2022-09-19 15:32:38.768,5af2a03697a14300017d2ba4,1,45,43,26,26,48,Male,5717.0,,static/images/instructions_CB_1/Slide24.png,39.0,,,,,,,,,,,,,,,,,,,,,,,,,,,
150,0,,html-keyboard-response,150,599926,0.0-7.0-0.0,m2m96go0zy,2022-09-19 15:32:38.768,5af2a03697a14300017d2ba4,1,45,43,26,26,48,Male,3987.0,,"
  <table>
  <tr height=300>
    <td width=300 height=300><img src=""static/images/cards/stack_of_black_moons.svg"" width=""175px"" height=""250px""></img></td>
    <td width=300 height=300><img src=""static/images/cards/stack_of_black_stars.svg"" width=""175px"" height=""250px""></img></td>
  </tr>
  <tr height=200>
    <td width=300><img src=""static/images/keys/w.svg"" width=""35%"" height=""75%""></img></td>
    <td width=300><img src=""static/images/keys/o.svg"" width=""35%"" height=""75%""></img></td>
  </tr>
</table>
  ",87.0,,,,,,,,,,,,,,,,,,,,,,,,,1.0,,
151,0,,html-keyboard-response,151,601977,0.0-7.0-1.0,m2m96go0zy,2022-09-19 15:32:38.768,5af2a03697a14300017d2ba4,1,45,43,26,26,48,Male,1547.0,,"
  <table>
  <tr height=300>
    <td width=300 height=300><img src=""static/images/cards/back_of_black_moons.svg"" width=""175px"" height=""250px""></img></td>
    <td width=300 height=300><img src=""static/images/cards/back_of_black_moons.svg"" width=""175px"" height=""250px""></img></td>
  </tr>
  <tr height=200>
    <td width=300><img src=""static/images/keys/z.svg"" width=""35%"" height=""75%""></img></td>
    <td width=300></td>
  </tr>
</table>
  ",90.0,,,,,,,,,,,,,,,,,,,,,,,,,1.0,,
152,0,,html-keyboard-response,152,603481,0.0-7.0-2.0,m2m96go0zy,2022-09-19 15:32:38.768,5af2a03697a14300017d2ba4,1,45,43,26,26,48,Male,,,"
  <table>
  <tr height=300>
    <td width=300 height=300><img src=""static/images/cards/2_of_black_moons.svg"" width=""175px"" height=""250px""></img></td>
    <td width=300 height=300><img src=""static/images/cards/back_of_black_moons.svg"" width=""175px"" height=""250px""></img></td>
  </tr>
  <tr height=200>
    <td width=300><img src=""static/images/keys/z.svg"" width=""35%"" height=""75%""></img></td>
    <td width=300></td>
  </tr>
</table>
  ",,,,,,,,,,,,,,,,,,,,,,,,,,,,
153,0,,html-keyboard-response,153,604985,0.0-7.0-3.0,m2m96go0zy,2022-09-19 15:32:38.768,5af2a03697a14300017d2ba4,1,45,43,26,26,48,Male,,,"<p style=""font-size:50px"">You Lose!
No points this round.</p>",,,,,,,,,,,,,,,,,,,,,,,,,,,,
154,0,,html-keyboard-response,154,605494,0.0-7.0-4.0,m2m96go0zy,2022-09-19 15:32:38.768,5af2a03697a14300017d2ba4,1,45,43,26,26,48,Male,,,,,1.0,choice,0.0,B,D,black,black,moons,stars,B,D,B,black,moons,3987.0,0.0,1.0,1,left,1547.0,2.0,0.0,0.0,,,,
155,0,,html-keyboard-response,155,607656,0.0-7.1-0.1,m2m96go0zy,2022-09-19 15:32:38.768,5af2a03697a14300017d2ba4,1,45,43,26,26,48,Male,2159.0,,"
  <table>
  <tr height=300>
    <td width=300 height=300><img src=""static/images/cards/stack_of_red_moons.svg"" width=""175px"" height=""250px""></img></td>
    <td width=300 height=300><img src=""static/images/cards/stack_of_red_stars.svg"" width=""175px"" height=""250px""></img></td>
  </tr>
  <tr height=200>
    <td width=300><img src=""static/images/keys/w.svg"" width=""35%"" height=""75%""></img></td>
    <td width=300><img src=""static/images/keys/o.svg"" width=""35%"" height=""75%""></img></td>
  </tr>
</table>
  ",87.0,,,,,,,,,,,,,,,,,,,,,,,,,1.0,,
156,0,,html-keyboard-response,156,609504,0.0-7.1-1.1,m2m96go0zy,2022-09-19 15:32:38.768,5af2a03697a14300017d2ba4,1,45,43,26,26,48,Male,1342.0,,"
  <table>
  <tr height=300>
    <td width=300 height=300><img src=""static/images/cards/back_of_red_moons.svg"" width=""175px"" height=""250px""></img></td>
    <td width=300 height=300><img src=""static/images/cards/back_of_red_moons.svg"" width=""175px"" height=""250px""></img></td>
  </tr>
  <tr height=200>
    <td width=300><img src=""static/images/keys/z.svg"" width=""35%"" height=""75%""></img></td>
    <td width=300><img src=""static/images/keys/m.svg"" width=""35%"" height=""75%""></img></td>
  </tr>
</table>
  ",77.0,,,,,,,,,,,,,,,,,,,,,,,,,1.0,,
157,0,,html-keyboard-response,157,611007,0.0-7.1-2.1,m2m96go0zy,2022-09-19 15:32:38.768,5af2a03697a14300017d2ba4,1,45,43,26,26,48,Male,,,"
  <table>
  <tr height=300>
    <td width=300 height=300><img src=""static/images/cards/back_of_red_moons.svg"" width=""175px"" height=""250px""></img></td>
    <td width=300 height=300><img src=""static/images/cards/8_of_red_moons.svg"" width=""175px"" height=""250px""></img></td>
  </tr>
  <tr height=200>
    <td width=300><img src=""static/images/keys/z.svg"" width=""35%"" height=""75%""></img></td>
    <td width=300><img src=""static/images/keys/m.svg"" width=""35%"" height=""75%""></img></td>
  </tr>
</table>
  ",,,,,,,,,,,,,,,,,,,,,,,,,,,,
158,0,,html-keyboard-response,158,612511,0.0-7.1-3.1,m2m96go0zy,2022-09-19 15:32:38.768,5af2a03697a14300017d2ba4,1,45,43,26,26,48,Male,,,"<p style=""font-size:50px"">You win!
+10 points this round!</p>",,,,,,,,,,,,,,,,,,,,,,,,,,,,
159,0,,html-keyboard-response,159,613020,0.0-7.1-4.1,m2m96go0zy,2022-09-19 15:32:38.768,5af2a03697a14300017d2ba4,1,45,43,26,26,48,Male,,,,,1.0,choice,1.0,A,C,red,red,moons,stars,A,C,A,red,moons,2159.0,1.0,1.0,NA,right,1342.0,8.0,1.0,1.0,,,,
160,0,,html-keyboard-response,160,614968,0.0-7.2-0.2,m2m96go0zy,2022-09-19 15:32:38.768,5af2a03697a14300017d2ba4,1,45,43,26,26,48,Male,1945.0,,"
  <table>
  <tr height=300>
    <td width=300 height=300><img src=""static/images/cards/stack_of_black_bolts.svg"" width=""175px"" height=""250px""></img></td>
    <td width=300 height=300><img src=""static/images/cards/stack_of_red_stars.svg"" width=""175px"" height=""250px""></img></td>
  </tr>
  <tr height=200>
    <td width=300><img src=""static/images/keys/w.svg"" width=""35%"" height=""75%""></img></td>
    <td width=300><img src=""static/images/keys/o.svg"" width=""35%"" height=""75%""></img></td>
  </tr>
</table>
  ",87.0,,,,,,,,,,,,,,,,,,,,,,,,,1.0,,
161,0,,html-keyboard-response,161,616671,0.0-7.2-1.2,m2m96go0zy,2022-09-19 15:32:38.768,5af2a03697a14300017d2ba4,1,45,43,26,26,48,Male,1195.0,,"
  <table>
  <tr height=300>
    <td width=300 height=300><img src=""static/images/cards/back_of_black_bolts.svg"" width=""175px"" height=""250px""></img></td>
    <td width=300 height=300><img src=""static/images/cards/back_of_black_bolts.svg"" width=""175px"" height=""250px""></img></td>
  </tr>
  <tr height=200>
    <td width=300><img src=""static/images/keys/z.svg"" width=""35%"" height=""75%""></img></td>
    <td width=300></td>
  </tr>
</table>
  ",90.0,,,,,,,,,,,,,,,,,,,,,,,,,1.0,,
162,0,,html-keyboard-response,162,618172,0.0-7.2-2.2,m2m96go0zy,2022-09-19 15:32:38.768,5af2a03697a14300017d2ba4,1,45,43,26,26,48,Male,,,"
  <table>
  <tr height=300>
    <td width=300 height=300><img src=""static/images/cards/7_of_black_bolts.svg"" width=""175px"" height=""250px""></img></td>
    <td width=300 height=300><img src=""static/images/cards/back_of_black_bolts.svg"" width=""175px"" height=""250px""></img></td>
  </tr>
  <tr height=200>
    <td width=300><img src=""static/images/keys/z.svg"" width=""35%"" height=""75%""></img></td>
    <td width=300></td>
  </tr>
</table>
  ",,,,,,,,,,,,,,,,,,,,,,,,,,,,
163,0,,html-keyboard-response,163,619675,0.0-7.2-3.2,m2m96go0zy,2022-09-19 15:32:38.768,5af2a03697a14300017d2ba4,1,45,43,26,26,48,Male,,,"<p style=""font-size:50px"">You win!
+10 points this round!</p>",,,,,,,,,,,,,,,,,,,,,,,,,,,,
164,0,,html-keyboard-response,164,620184,0.0-7.2-4.2,m2m96go0zy,2022-09-19 15:32:38.768,5af2a03697a14300017d2ba4,1,45,43,26,26,48,Male,,,,,1.0,choice,2.0,C,Xnc,black,red,bolts,stars,Xnc,C,Xnc,black,bolts,1945.0,0.0,0.0,1,left,1195.0,7.0,1.0,1.0,,,,
165,0,,html-keyboard-response,165,622424,0.0-7.3-0.3,m2m96go0zy,2022-09-19 15:32:38.768,5af2a03697a14300017d2ba4,1,45,43,26,26,48,Male,2237.0,,"
  <table>
  <tr height=300>
    <td width=300 height=300><img src=""static/images/cards/stack_of_black_stars.svg"" width=""175px"" height=""250px""></img></td>
    <td width=300 height=300><img src=""static/images/cards/stack_of_black_moons.svg"" width=""175px"" height=""250px""></img></td>
  </tr>
  <tr height=200>
    <td width=300><img src=""static/images/keys/w.svg"" width=""35%"" height=""75%""></img></td>
    <td width=300><img src=""static/images/keys/o.svg"" width=""35%"" height=""75%""></img></td>
  </tr>
</table>
  ",79.0,,,,,,,,,,,,,,,,,,,,,,,,,1.0,,
166,0,,html-keyboard-response,166,623568,0.0-7.3-1.3,m2m96go0zy,2022-09-19 15:32:38.768,5af2a03697a14300017d2ba4,1,45,43,26,26,48,Male,640.0,,"
  <table>
  <tr height=300>
    <td width=300 height=300><img src=""static/images/cards/back_of_black_moons.svg"" width=""175px"" height=""250px""></img></td>
    <td width=300 height=300><img src=""static/images/cards/back_of_black_moons.svg"" width=""175px"" height=""250px""></img></td>
  </tr>
  <tr height=200>
    <td width=300><img src=""static/images/keys/z.svg"" width=""35%"" height=""75%""></img></td>
    <td width=300></td>
  </tr>
</table>
  ",90.0,,,,,,,,,,,,,,,,,,,,,,,,,1.0,,
167,0,,html-keyboard-response,167,625072,0.0-7.3-2.3,m2m96go0zy,2022-09-19 15:32:38.768,5af2a03697a14300017d2ba4,1,45,43,26,26,48,Male,,,"
  <table>
  <tr height=300>
    <td width=300 height=300><img src=""static/images/cards/6_of_black_moons.svg"" width=""175px"" height=""250px""></img></td>
    <td width=300 height=300><img src=""static/images/cards/back_of_black_moons.svg"" width=""175px"" height=""250px""></img></td>
  </tr>
  <tr height=200>
    <td width=300><img src=""static/images/keys/z.svg"" width=""35%"" height=""75%""></img></td>
    <td width=300></td>
  </tr>
</table>
  ",,,,,,,,,,,,,,,,,,,,,,,,,,,,
168,0,,html-keyboard-response,168,626574,0.0-7.3-3.3,m2m96go0zy,2022-09-19 15:32:38.768,5af2a03697a14300017d2ba4,1,45,43,26,26,48,Male,,,"<p style=""font-size:50px"">You win!
+10 points this round!</p>",,,,,,,,,,,,,,,,,,,,,,,,,,,,
169,0,,html-keyboard-response,169,627083,0.0-7.3-4.3,m2m96go0zy,2022-09-19 15:32:38.768,5af2a03697a14300017d2ba4,1,45,43,26,26,48,Male,,,,,1.0,choice,3.0,B,D,black,black,stars,moons,D,B,B,black,moons,2237.0,0.0,1.0,1,left,640.0,6.0,1.0,1.0,,,,
170,0,,html-keyboard-response,170,628336,0.0-7.4-0.4,m2m96go0zy,2022-09-19 15:32:38.768,5af2a03697a14300017d2ba4,1,45,43,26,26,48,Male,1252.0,,"
  <table>
  <tr height=300>
    <td width=300 height=300><img src=""static/images/cards/stack_of_red_moons.svg"" width=""175px"" height=""250px""></img></td>
    <td width=300 height=300><img src=""static/images/cards/stack_of_red_stars.svg"" width=""175px"" height=""250px""></img></td>
  </tr>
  <tr height=200>
    <td width=300><img src=""static/images/keys/w.svg"" width=""35%"" height=""75%""></img></td>
    <td width=300><img src=""static/images/keys/o.svg"" width=""35%"" height=""75%""></img></td>
  </tr>
</table>
  ",87.0,,,,,,,,,,,,,,,,,,,,,,,,,1.0,,
171,0,,html-keyboard-response,171,629568,0.0-7.4-1.4,m2m96go0zy,2022-09-19 15:32:38.768,5af2a03697a14300017d2ba4,1,45,43,26,26,48,Male,727.0,,"
  <table>
  <tr height=300>
    <td width=300 height=300><img src=""static/images/cards/back_of_red_moons.svg"" width=""175px"" height=""250px""></img></td>
    <td width=300 height=300><img src=""static/images/cards/back_of_red_moons.svg"" width=""175px"" height=""250px""></img></td>
  </tr>
  <tr height=200>
    <td width=300><img src=""static/images/keys/z.svg"" width=""35%"" height=""75%""></img></td>
    <td width=300><img src=""static/images/keys/m.svg"" width=""35%"" height=""75%""></img></td>
  </tr>
</table>
  ",90.0,,,,,,,,,,,,,,,,,,,,,,,,,1.0,,
172,0,,html-keyboard-response,172,631072,0.0-7.4-2.4,m2m96go0zy,2022-09-19 15:32:38.768,5af2a03697a14300017d2ba4,1,45,43,26,26,48,Male,,,"
  <table>
  <tr height=300>
    <td width=300 height=300><img src=""static/images/cards/2_of_red_moons.svg"" width=""175px"" height=""250px""></img></td>
    <td width=300 height=300><img src=""static/images/cards/back_of_red_moons.svg"" width=""175px"" height=""250px""></img></td>
  </tr>
  <tr height=200>
    <td width=300><img src=""static/images/keys/z.svg"" width=""35%"" height=""75%""></img></td>
    <td width=300><img src=""static/images/keys/m.svg"" width=""35%"" height=""75%""></img></td>
  </tr>
</table>
  ",,,,,,,,,,,,,,,,,,,,,,,,,,,,
173,0,,html-keyboard-response,173,632576,0.0-7.4-3.4,m2m96go0zy,2022-09-19 15:32:38.768,5af2a03697a14300017d2ba4,1,45,43,26,26,48,Male,,,"<p style=""font-size:50px"">You Lose!
No points this round.</p>",,,,,,,,,,,,,,,,,,,,,,,,,,,,
174,0,,html-keyboard-response,174,633084,0.0-7.4-4.4,m2m96go0zy,2022-09-19 15:32:38.768,5af2a03697a14300017d2ba4,1,45,43,26,26,48,Male,,,,,1.0,choice,4.0,A,C,red,red,moons,stars,A,C,A,red,moons,1252.0,1.0,1.0,NA,left,727.0,2.0,0.0,0.0,,,,
175,0,,html-keyboard-response,175,635097,0.0-7.5-0.5,m2m96go0zy,2022-09-19 15:32:38.768,5af2a03697a14300017d2ba4,1,45,43,26,26,48,Male,2009.0,,"
  <table>
  <tr height=300>
    <td width=300 height=300><img src=""static/images/cards/stack_of_black_moons.svg"" width=""175px"" height=""250px""></img></td>
    <td width=300 height=300><img src=""static/images/cards/stack_of_red_moons.svg"" width=""175px"" height=""250px""></img></td>
  </tr>
  <tr height=200>
    <td width=300><img src=""static/images/keys/w.svg"" width=""35%"" height=""75%""></img></td>
    <td width=300><img src=""static/images/keys/o.svg"" width=""35%"" height=""75%""></img></td>
  </tr>
</table>
  ",87.0,,,,,,,,,,,,,,,,,,,,,,,,,1.0,,
176,0,,html-keyboard-response,176,636344,0.0-7.5-1.5,m2m96go0zy,2022-09-19 15:32:38.768,5af2a03697a14300017d2ba4,1,45,43,26,26,48,Male,745.0,,"
  <table>
  <tr height=300>
    <td width=300 height=300><img src=""static/images/cards/back_of_black_moons.svg"" width=""175px"" height=""250px""></img></td>
    <td width=300 height=300><img src=""static/images/cards/back_of_black_moons.svg"" width=""175px"" height=""250px""></img></td>
  </tr>
  <tr height=200>
    <td width=300></td>
    <td width=300><img src=""static/images/keys/m.svg"" width=""35%"" height=""75%""></img></td>
  </tr>
</table>
  ",77.0,,,,,,,,,,,,,,,,,,,,,,,,,1.0,,
177,0,,html-keyboard-response,177,637847,0.0-7.5-2.5,m2m96go0zy,2022-09-19 15:32:38.768,5af2a03697a14300017d2ba4,1,45,43,26,26,48,Male,,,"
  <table>
  <tr height=300>
    <td width=300 height=300><img src=""static/images/cards/back_of_black_moons.svg"" width=""175px"" height=""250px""></img></td>
    <td width=300 height=300><img src=""static/images/cards/2_of_black_moons.svg"" width=""175px"" height=""250px""></img></td>
  </tr>
  <tr height=200>
    <td width=300></td>
    <td width=300><img src=""static/images/keys/m.svg"" width=""35%"" height=""75%""></img></td>
  </tr>
</table>
  ",,,,,,,,,,,,,,,,,,,,,,,,,,,,
178,0,,html-keyboard-response,178,639349,0.0-7.5-3.5,m2m96go0zy,2022-09-19 15:32:38.768,5af2a03697a14300017d2ba4,1,45,43,26,26,48,Male,,,"<p style=""font-size:50px"">You Lose!
No points this round.</p>",,,,,,,,,,,,,,,,,,,,,,,,,,,,
179,0,,html-keyboard-response,179,639859,0.0-7.5-4.5,m2m96go0zy,2022-09-19 15:32:38.768,5af2a03697a14300017d2ba4,1,45,43,26,26,48,Male,,,,,1.0,choice,5.0,A,B,black,red,moons,moons,B,A,B,black,moons,2009.0,0.0,1.0,0,right,745.0,2.0,0.0,0.0,,,,
180,0,,html-keyboard-response,180,641472,0.0-7.6-0.6,m2m96go0zy,2022-09-19 15:32:38.768,5af2a03697a14300017d2ba4,1,45,43,26,26,48,Male,1611.0,,"
  <table>
  <tr height=300>
    <td width=300 height=300><img src=""static/images/cards/stack_of_red_moons.svg"" width=""175px"" height=""250px""></img></td>
    <td width=300 height=300><img src=""static/images/cards/stack_of_black_moons.svg"" width=""175px"" height=""250px""></img></td>
  </tr>
  <tr height=200>
    <td width=300><img src=""static/images/keys/w.svg"" width=""35%"" height=""75%""></img></td>
    <td width=300><img src=""static/images/keys/o.svg"" width=""35%"" height=""75%""></img></td>
  </tr>
</table>
  ",79.0,,,,,,,,,,,,,,,,,,,,,,,,,1.0,,
181,0,,html-keyboard-response,181,642456,0.0-7.6-1.6,m2m96go0zy,2022-09-19 15:32:38.768,5af2a03697a14300017d2ba4,1,45,43,26,26,48,Male,481.0,,"
  <table>
  <tr height=300>
    <td width=300 height=300><img src=""static/images/cards/back_of_black_moons.svg"" width=""175px"" height=""250px""></img></td>
    <td width=300 height=300><img src=""static/images/cards/back_of_black_moons.svg"" width=""175px"" height=""250px""></img></td>
  </tr>
  <tr height=200>
    <td width=300></td>
    <td width=300><img src=""static/images/keys/m.svg"" width=""35%"" height=""75%""></img></td>
  </tr>
</table>
  ",77.0,,,,,,,,,,,,,,,,,,,,,,,,,1.0,,
182,0,,html-keyboard-response,182,643958,0.0-7.6-2.6,m2m96go0zy,2022-09-19 15:32:38.768,5af2a03697a14300017d2ba4,1,45,43,26,26,48,Male,,,"
  <table>
  <tr height=300>
    <td width=300 height=300><img src=""static/images/cards/back_of_black_moons.svg"" width=""175px"" height=""250px""></img></td>
    <td width=300 height=300><img src=""static/images/cards/4_of_black_moons.svg"" width=""175px"" height=""250px""></img></td>
  </tr>
  <tr height=200>
    <td width=300></td>
    <td width=300><img src=""static/images/keys/m.svg"" width=""35%"" height=""75%""></img></td>
  </tr>
</table>
  ",,,,,,,,,,,,,,,,,,,,,,,,,,,,
183,0,,html-keyboard-response,183,645462,0.0-7.6-3.6,m2m96go0zy,2022-09-19 15:32:38.768,5af2a03697a14300017d2ba4,1,45,43,26,26,48,Male,,,"<p style=""font-size:50px"">You Lose!
No points this round.</p>",,,,,,,,,,,,,,,,,,,,,,,,,,,,
184,0,,html-keyboard-response,184,645971,0.0-7.6-4.6,m2m96go0zy,2022-09-19 15:32:38.768,5af2a03697a14300017d2ba4,1,45,43,26,26,48,Male,,,,,1.0,choice,6.0,A,B,red,black,moons,moons,A,B,B,black,moons,1611.0,0.0,1.0,0,right,481.0,4.0,0.0,0.0,,,,
185,0,,html-keyboard-response,185,647328,0.0-7.7-0.7,m2m96go0zy,2022-09-19 15:32:38.768,5af2a03697a14300017d2ba4,1,45,43,26,26,48,Male,1354.0,,"
  <table>
  <tr height=300>
    <td width=300 height=300><img src=""static/images/cards/stack_of_black_moons.svg"" width=""175px"" height=""250px""></img></td>
    <td width=300 height=300><img src=""static/images/cards/stack_of_red_moons.svg"" width=""175px"" height=""250px""></img></td>
  </tr>
  <tr height=200>
    <td width=300><img src=""static/images/keys/w.svg"" width=""35%"" height=""75%""></img></td>
    <td width=300><img src=""static/images/keys/o.svg"" width=""35%"" height=""75%""></img></td>
  </tr>
</table>
  ",79.0,,,,,,,,,,,,,,,,,,,,,,,,,1.0,,
186,0,,html-keyboard-response,186,648617,0.0-7.7-1.7,m2m96go0zy,2022-09-19 15:32:38.768,5af2a03697a14300017d2ba4,1,45,43,26,26,48,Male,783.0,,"
  <table>
  <tr height=300>
    <td width=300 height=300><img src=""static/images/cards/back_of_red_moons.svg"" width=""175px"" height=""250px""></img></td>
    <td width=300 height=300><img src=""static/images/cards/back_of_red_moons.svg"" width=""175px"" height=""250px""></img></td>
  </tr>
  <tr height=200>
    <td width=300><img src=""static/images/keys/z.svg"" width=""35%"" height=""75%""></img></td>
    <td width=300><img src=""static/images/keys/m.svg"" width=""35%"" height=""75%""></img></td>
  </tr>
</table>
  ",77.0,,,,,,,,,,,,,,,,,,,,,,,,,1.0,,
187,0,,html-keyboard-response,187,650121,0.0-7.7-2.7,m2m96go0zy,2022-09-19 15:32:38.768,5af2a03697a14300017d2ba4,1,45,43,26,26,48,Male,,,"
  <table>
  <tr height=300>
    <td width=300 height=300><img src=""static/images/cards/back_of_red_moons.svg"" width=""175px"" height=""250px""></img></td>
    <td width=300 height=300><img src=""static/images/cards/6_of_red_moons.svg"" width=""175px"" height=""250px""></img></td>
  </tr>
  <tr height=200>
    <td width=300><img src=""static/images/keys/z.svg"" width=""35%"" height=""75%""></img></td>
    <td width=300><img src=""static/images/keys/m.svg"" width=""35%"" height=""75%""></img></td>
  </tr>
</table>
  ",,,,,,,,,,,,,,,,,,,,,,,,,,,,
188,0,,html-keyboard-response,188,651625,0.0-7.7-3.7,m2m96go0zy,2022-09-19 15:32:38.768,5af2a03697a14300017d2ba4,1,45,43,26,26,48,Male,,,"<p style=""font-size:50px"">You win!
+10 points this round!</p>",,,,,,,,,,,,,,,,,,,,,,,,,,,,
189,0,,html-keyboard-response,189,652133,0.0-7.7-4.7,m2m96go0zy,2022-09-19 15:32:38.768,5af2a03697a14300017d2ba4,1,45,43,26,26,48,Male,,,,,1.0,choice,7.0,A,B,black,red,moons,moons,B,A,A,red,moons,1354.0,1.0,1.0,NA,right,783.0,6.0,1.0,1.0,,,,
190,0,,html-keyboard-response,190,653680,0.0-7.8-0.8,m2m96go0zy,2022-09-19 15:32:38.768,5af2a03697a14300017d2ba4,1,45,43,26,26,48,Male,1545.0,,"
  <table>
  <tr height=300>
    <td width=300 height=300><img src=""static/images/cards/stack_of_red_moons.svg"" width=""175px"" height=""250px""></img></td>
    <td width=300 height=300><img src=""static/images/cards/stack_of_black_moons.svg"" width=""175px"" height=""250px""></img></td>
  </tr>
  <tr height=200>
    <td width=300><img src=""static/images/keys/w.svg"" width=""35%"" height=""75%""></img></td>
    <td width=300><img src=""static/images/keys/o.svg"" width=""35%"" height=""75%""></img></td>
  </tr>
</table>
  ",87.0,,,,,,,,,,,,,,,,,,,,,,,,,1.0,,
191,0,,html-keyboard-response,191,654784,0.0-7.8-1.8,m2m96go0zy,2022-09-19 15:32:38.768,5af2a03697a14300017d2ba4,1,45,43,26,26,48,Male,600.0,,"
  <table>
  <tr height=300>
    <td width=300 height=300><img src=""static/images/cards/back_of_red_moons.svg"" width=""175px"" height=""250px""></img></td>
    <td width=300 height=300><img src=""static/images/cards/back_of_red_moons.svg"" width=""175px"" height=""250px""></img></td>
  </tr>
  <tr height=200>
    <td width=300><img src=""static/images/keys/z.svg"" width=""35%"" height=""75%""></img></td>
    <td width=300><img src=""static/images/keys/m.svg"" width=""35%"" height=""75%""></img></td>
  </tr>
</table>
  ",90.0,,,,,,,,,,,,,,,,,,,,,,,,,1.0,,
192,0,,html-keyboard-response,192,656286,0.0-7.8-2.8,m2m96go0zy,2022-09-19 15:32:38.768,5af2a03697a14300017d2ba4,1,45,43,26,26,48,Male,,,"
  <table>
  <tr height=300>
    <td width=300 height=300><img src=""static/images/cards/6_of_red_moons.svg"" width=""175px"" height=""250px""></img></td>
    <td width=300 height=300><img src=""static/images/cards/back_of_red_moons.svg"" width=""175px"" height=""250px""></img></td>
  </tr>
  <tr height=200>
    <td width=300><img src=""static/images/keys/z.svg"" width=""35%"" height=""75%""></img></td>
    <td width=300><img src=""static/images/keys/m.svg"" width=""35%"" height=""75%""></img></td>
  </tr>
</table>
  ",,,,,,,,,,,,,,,,,,,,,,,,,,,,
193,0,,html-keyboard-response,193,657789,0.0-7.8-3.8,m2m96go0zy,2022-09-19 15:32:38.768,5af2a03697a14300017d2ba4,1,45,43,26,26,48,Male,,,"<p style=""font-size:50px"">You win!
+10 points this round!</p>",,,,,,,,,,,,,,,,,,,,,,,,,,,,
194,0,,html-keyboard-response,194,658300,0.0-7.8-4.8,m2m96go0zy,2022-09-19 15:32:38.768,5af2a03697a14300017d2ba4,1,45,43,26,26,48,Male,,,,,1.0,choice,8.0,A,B,red,black,moons,moons,A,B,A,red,moons,1545.0,1.0,1.0,NA,left,600.0,6.0,1.0,1.0,,,,
195,0,,html-keyboard-response,195,659864,0.0-7.9-0.9,m2m96go0zy,2022-09-19 15:32:38.768,5af2a03697a14300017d2ba4,1,45,43,26,26,48,Male,1561.0,,"
  <table>
  <tr height=300>
    <td width=300 height=300><img src=""static/images/cards/stack_of_red_moons.svg"" width=""175px"" height=""250px""></img></td>
    <td width=300 height=300><img src=""static/images/cards/stack_of_black_stars.svg"" width=""175px"" height=""250px""></img></td>
  </tr>
  <tr height=200>
    <td width=300><img src=""static/images/keys/w.svg"" width=""35%"" height=""75%""></img></td>
    <td width=300><img src=""static/images/keys/o.svg"" width=""35%"" height=""75%""></img></td>
  </tr>
</table>
  ",87.0,,,,,,,,,,,,,,,,,,,,,,,,,1.0,,
196,0,,html-keyboard-response,196,660929,0.0-7.9-1.9,m2m96go0zy,2022-09-19 15:32:38.768,5af2a03697a14300017d2ba4,1,45,43,26,26,48,Male,560.0,,"
  <table>
  <tr height=300>
    <td width=300 height=300><img src=""static/images/cards/back_of_red_moons.svg"" width=""175px"" height=""250px""></img></td>
    <td width=300 height=300><img src=""static/images/cards/back_of_red_moons.svg"" width=""175px"" height=""250px""></img></td>
  </tr>
  <tr height=200>
    <td width=300><img src=""static/images/keys/z.svg"" width=""35%"" height=""75%""></img></td>
    <td width=300><img src=""static/images/keys/m.svg"" width=""35%"" height=""75%""></img></td>
  </tr>
</table>
  ",77.0,,,,,,,,,,,,,,,,,,,,,,,,,1.0,,
197,0,,html-keyboard-response,197,662435,0.0-7.9-2.9,m2m96go0zy,2022-09-19 15:32:38.768,5af2a03697a14300017d2ba4,1,45,43,26,26,48,Male,,,"
  <table>
  <tr height=300>
    <td width=300 height=300><img src=""static/images/cards/back_of_red_moons.svg"" width=""175px"" height=""250px""></img></td>
    <td width=300 height=300><img src=""static/images/cards/4_of_red_moons.svg"" width=""175px"" height=""250px""></img></td>
  </tr>
  <tr height=200>
    <td width=300><img src=""static/images/keys/z.svg"" width=""35%"" height=""75%""></img></td>
    <td width=300><img src=""static/images/keys/m.svg"" width=""35%"" height=""75%""></img></td>
  </tr>
</table>
  ",,,,,,,,,,,,,,,,,,,,,,,,,,,,
198,0,,html-keyboard-response,198,663938,0.0-7.9-3.9,m2m96go0zy,2022-09-19 15:32:38.768,5af2a03697a14300017d2ba4,1,45,43,26,26,48,Male,,,"<p style=""font-size:50px"">You Lose!
No points this round.</p>",,,,,,,,,,,,,,,,,,,,,,,,,,,,
199,0,,html-keyboard-response,199,664449,0.0-7.9-4.9,m2m96go0zy,2022-09-19 15:32:38.768,5af2a03697a14300017d2ba4,1,45,43,26,26,48,Male,,,,,1.0,choice,9.0,A,D,red,black,moons,stars,A,D,A,red,moons,1561.0,1.0,1.0,NA,right,560.0,4.0,0.0,0.0,,,,
200,0,,html-keyboard-response,200,666008,0.0-7.10-0.10,m2m96go0zy,2022-09-19 15:32:38.768,5af2a03697a14300017d2ba4,1,45,43,26,26,48,Male,1557.0,,"
  <table>
  <tr height=300>
    <td width=300 height=300><img src=""static/images/cards/stack_of_black_stars.svg"" width=""175px"" height=""250px""></img></td>
    <td width=300 height=300><img src=""static/images/cards/stack_of_red_stars.svg"" width=""175px"" height=""250px""></img></td>
  </tr>
  <tr height=200>
    <td width=300><img src=""static/images/keys/w.svg"" width=""35%"" height=""75%""></img></td>
    <td width=300><img src=""static/images/keys/o.svg"" width=""35%"" height=""75%""></img></td>
  </tr>
</table>
  ",79.0,,,,,,,,,,,,,,,,,,,,,,,,,1.0,,
201,0,,html-keyboard-response,201,667449,0.0-7.10-1.10,m2m96go0zy,2022-09-19 15:32:38.768,5af2a03697a14300017d2ba4,1,45,43,26,26,48,Male,938.0,,"
  <table>
  <tr height=300>
    <td width=300 height=300><img src=""static/images/cards/back_of_red_stars.svg"" width=""175px"" height=""250px""></img></td>
    <td width=300 height=300><img src=""static/images/cards/back_of_red_stars.svg"" width=""175px"" height=""250px""></img></td>
  </tr>
  <tr height=200>
    <td width=300><img src=""static/images/keys/z.svg"" width=""35%"" height=""75%""></img></td>
    <td width=300><img src=""static/images/keys/m.svg"" width=""35%"" height=""75%""></img></td>
  </tr>
</table>
  ",90.0,,,,,,,,,,,,,,,,,,,,,,,,,1.0,,
202,0,,html-keyboard-response,202,668953,0.0-7.10-2.10,m2m96go0zy,2022-09-19 15:32:38.768,5af2a03697a14300017d2ba4,1,45,43,26,26,48,Male,,,"
  <table>
  <tr height=300>
    <td width=300 height=300><img src=""static/images/cards/4_of_red_stars.svg"" width=""175px"" height=""250px""></img></td>
    <td width=300 height=300><img src=""static/images/cards/back_of_red_stars.svg"" width=""175px"" height=""250px""></img></td>
  </tr>
  <tr height=200>
    <td width=300><img src=""static/images/keys/z.svg"" width=""35%"" height=""75%""></img></td>
    <td width=300><img src=""static/images/keys/m.svg"" width=""35%"" height=""75%""></img></td>
  </tr>
</table>
  ",,,,,,,,,,,,,,,,,,,,,,,,,,,,
203,0,,html-keyboard-response,203,670457,0.0-7.10-3.10,m2m96go0zy,2022-09-19 15:32:38.768,5af2a03697a14300017d2ba4,1,45,43,26,26,48,Male,,,"<p style=""font-size:50px"">You win!
+10 points this round!</p>",,,,,,,,,,,,,,,,,,,,,,,,,,,,
204,0,,html-keyboard-response,204,670966,0.0-7.10-4.10,m2m96go0zy,2022-09-19 15:32:38.768,5af2a03697a14300017d2ba4,1,45,43,26,26,48,Male,,,,,1.0,choice,10.0,C,D,black,red,stars,stars,D,C,C,red,stars,1557.0,1.0,0.0,NA,left,938.0,4.0,0.0,1.0,,,,
205,0,,html-keyboard-response,205,673112,0.0-7.11-0.11,m2m96go0zy,2022-09-19 15:32:38.768,5af2a03697a14300017d2ba4,1,45,43,26,26,48,Male,2145.0,,"
  <table>
  <tr height=300>
    <td width=300 height=300><img src=""static/images/cards/stack_of_black_stars.svg"" width=""175px"" height=""250px""></img></td>
    <td width=300 height=300><img src=""static/images/cards/stack_of_black_moons.svg"" width=""175px"" height=""250px""></img></td>
  </tr>
  <tr height=200>
    <td width=300><img src=""static/images/keys/w.svg"" width=""35%"" height=""75%""></img></td>
    <td width=300><img src=""static/images/keys/o.svg"" width=""35%"" height=""75%""></img></td>
  </tr>
</table>
  ",79.0,,,,,,,,,,,,,,,,,,,,,,,,,1.0,,
206,0,,html-keyboard-response,206,674536,0.0-7.11-1.11,m2m96go0zy,2022-09-19 15:32:38.768,5af2a03697a14300017d2ba4,1,45,43,26,26,48,Male,919.0,,"
  <table>
  <tr height=300>
    <td width=300 height=300><img src=""static/images/cards/back_of_black_moons.svg"" width=""175px"" height=""250px""></img></td>
    <td width=300 height=300><img src=""static/images/cards/back_of_black_moons.svg"" width=""175px"" height=""250px""></img></td>
  </tr>
  <tr height=200>
    <td width=300><img src=""static/images/keys/z.svg"" width=""35%"" height=""75%""></img></td>
    <td width=300></td>
  </tr>
</table>
  ",90.0,,,,,,,,,,,,,,,,,,,,,,,,,1.0,,
207,0,,html-keyboard-response,207,676041,0.0-7.11-2.11,m2m96go0zy,2022-09-19 15:32:38.768,5af2a03697a14300017d2ba4,1,45,43,26,26,48,Male,,,"
  <table>
  <tr height=300>
    <td width=300 height=300><img src=""static/images/cards/10_of_black_moons.svg"" width=""175px"" height=""250px""></img></td>
    <td width=300 height=300><img src=""static/images/cards/back_of_black_moons.svg"" width=""175px"" height=""250px""></img></td>
  </tr>
  <tr height=200>
    <td width=300><img src=""static/images/keys/z.svg"" width=""35%"" height=""75%""></img></td>
    <td width=300></td>
  </tr>
</table>
  ",,,,,,,,,,,,,,,,,,,,,,,,,,,,
208,0,,html-keyboard-response,208,677544,0.0-7.11-3.11,m2m96go0zy,2022-09-19 15:32:38.768,5af2a03697a14300017d2ba4,1,45,43,26,26,48,Male,,,"<p style=""font-size:50px"">You win!
+10 points this round!</p>",,,,,,,,,,,,,,,,,,,,,,,,,,,,
209,0,,html-keyboard-response,209,678052,0.0-7.11-4.11,m2m96go0zy,2022-09-19 15:32:38.768,5af2a03697a14300017d2ba4,1,45,43,26,26,48,Male,,,,,1.0,choice,11.0,B,D,black,black,stars,moons,D,B,B,black,moons,2145.0,0.0,1.0,1,left,919.0,10.0,1.0,1.0,,,,
210,0,,html-keyboard-response,210,680377,0.0-7.12-0.12,m2m96go0zy,2022-09-19 15:32:38.768,5af2a03697a14300017d2ba4,1,45,43,26,26,48,Male,2322.0,,"
  <table>
  <tr height=300>
    <td width=300 height=300><img src=""static/images/cards/stack_of_red_stars.svg"" width=""175px"" height=""250px""></img></td>
    <td width=300 height=300><img src=""static/images/cards/stack_of_black_stars.svg"" width=""175px"" height=""250px""></img></td>
  </tr>
  <tr height=200>
    <td width=300><img src=""static/images/keys/w.svg"" width=""35%"" height=""75%""></img></td>
    <td width=300><img src=""static/images/keys/o.svg"" width=""35%"" height=""75%""></img></td>
  </tr>
</table>
  ",79.0,,,,,,,,,,,,,,,,,,,,,,,,,1.0,,
211,0,,html-keyboard-response,211,682513,0.0-7.12-1.12,m2m96go0zy,2022-09-19 15:32:38.768,5af2a03697a14300017d2ba4,1,45,43,26,26,48,Male,1632.0,,"
  <table>
  <tr height=300>
    <td width=300 height=300><img src=""static/images/cards/back_of_black_stars.svg"" width=""175px"" height=""250px""></img></td>
    <td width=300 height=300><img src=""static/images/cards/back_of_black_stars.svg"" width=""175px"" height=""250px""></img></td>
  </tr>
  <tr height=200>
    <td width=300><img src=""static/images/keys/z.svg"" width=""35%"" height=""75%""></img></td>
    <td width=300></td>
  </tr>
</table>
  ",90.0,,,,,,,,,,,,,,,,,,,,,,,,,1.0,,
212,0,,html-keyboard-response,212,684017,0.0-7.12-2.12,m2m96go0zy,2022-09-19 15:32:38.768,5af2a03697a14300017d2ba4,1,45,43,26,26,48,Male,,,"
  <table>
  <tr height=300>
    <td width=300 height=300><img src=""static/images/cards/7_of_black_stars.svg"" width=""175px"" height=""250px""></img></td>
    <td width=300 height=300><img src=""static/images/cards/back_of_black_stars.svg"" width=""175px"" height=""250px""></img></td>
  </tr>
  <tr height=200>
    <td width=300><img src=""static/images/keys/z.svg"" width=""35%"" height=""75%""></img></td>
    <td width=300></td>
  </tr>
</table>
  ",,,,,,,,,,,,,,,,,,,,,,,,,,,,
213,0,,html-keyboard-response,213,685519,0.0-7.12-3.12,m2m96go0zy,2022-09-19 15:32:38.768,5af2a03697a14300017d2ba4,1,45,43,26,26,48,Male,,,"<p style=""font-size:50px"">You win!
+10 points this round!</p>",,,,,,,,,,,,,,,,,,,,,,,,,,,,
214,0,,html-keyboard-response,214,686028,0.0-7.12-4.12,m2m96go0zy,2022-09-19 15:32:38.768,5af2a03697a14300017d2ba4,1,45,43,26,26,48,Male,,,,,1.0,choice,12.0,C,D,red,black,stars,stars,C,D,D,black,stars,2322.0,0.0,0.0,1,left,1632.0,7.0,1.0,1.0,,,,
215,0,,html-keyboard-response,215,688768,0.0-7.13-0.13,m2m96go0zy,2022-09-19 15:32:38.768,5af2a03697a14300017d2ba4,1,45,43,26,26,48,Male,2737.0,,"
  <table>
  <tr height=300>
    <td width=300 height=300><img src=""static/images/cards/stack_of_black_stars.svg"" width=""175px"" height=""250px""></img></td>
    <td width=300 height=300><img src=""static/images/cards/stack_of_red_stars.svg"" width=""175px"" height=""250px""></img></td>
  </tr>
  <tr height=200>
    <td width=300><img src=""static/images/keys/w.svg"" width=""35%"" height=""75%""></img></td>
    <td width=300><img src=""static/images/keys/o.svg"" width=""35%"" height=""75%""></img></td>
  </tr>
</table>
  ",79.0,,,,,,,,,,,,,,,,,,,,,,,,,1.0,,
216,0,,html-keyboard-response,216,690192,0.0-7.13-1.13,m2m96go0zy,2022-09-19 15:32:38.768,5af2a03697a14300017d2ba4,1,45,43,26,26,48,Male,911.0,,"
  <table>
  <tr height=300>
    <td width=300 height=300><img src=""static/images/cards/back_of_red_stars.svg"" width=""175px"" height=""250px""></img></td>
    <td width=300 height=300><img src=""static/images/cards/back_of_red_stars.svg"" width=""175px"" height=""250px""></img></td>
  </tr>
  <tr height=200>
    <td width=300><img src=""static/images/keys/z.svg"" width=""35%"" height=""75%""></img></td>
    <td width=300><img src=""static/images/keys/m.svg"" width=""35%"" height=""75%""></img></td>
  </tr>
</table>
  ",77.0,,,,,,,,,,,,,,,,,,,,,,,,,1.0,,
217,0,,html-keyboard-response,217,691702,0.0-7.13-2.13,m2m96go0zy,2022-09-19 15:32:38.768,5af2a03697a14300017d2ba4,1,45,43,26,26,48,Male,,,"
  <table>
  <tr height=300>
    <td width=300 height=300><img src=""static/images/cards/back_of_red_stars.svg"" width=""175px"" height=""250px""></img></td>
    <td width=300 height=300><img src=""static/images/cards/8_of_red_stars.svg"" width=""175px"" height=""250px""></img></td>
  </tr>
  <tr height=200>
    <td width=300><img src=""static/images/keys/z.svg"" width=""35%"" height=""75%""></img></td>
    <td width=300><img src=""static/images/keys/m.svg"" width=""35%"" height=""75%""></img></td>
  </tr>
</table>
  ",,,,,,,,,,,,,,,,,,,,,,,,,,,,
218,0,,html-keyboard-response,218,693214,0.0-7.13-3.13,m2m96go0zy,2022-09-19 15:32:38.768,5af2a03697a14300017d2ba4,1,45,43,26,26,48,Male,,,"<p style=""font-size:50px"">You Lose!
No points this round.</p>",,,,,,,,,,,,,,,,,,,,,,,,,,,,
219,0,,html-keyboard-response,219,693724,0.0-7.13-4.13,m2m96go0zy,2022-09-19 15:32:38.768,5af2a03697a14300017d2ba4,1,45,43,26,26,48,Male,,,,,1.0,choice,13.0,C,D,black,red,stars,stars,D,C,C,red,stars,2737.0,1.0,0.0,NA,right,911.0,8.0,1.0,0.0,,,,
220,0,,html-keyboard-response,220,695600,0.0-7.14-0.14,m2m96go0zy,2022-09-19 15:32:38.768,5af2a03697a14300017d2ba4,1,45,43,26,26,48,Male,1875.0,,"
  <table>
  <tr height=300>
    <td width=300 height=300><img src=""static/images/cards/stack_of_red_stars.svg"" width=""175px"" height=""250px""></img></td>
    <td width=300 height=300><img src=""static/images/cards/stack_of_red_moons.svg"" width=""175px"" height=""250px""></img></td>
  </tr>
  <tr height=200>
    <td width=300><img src=""static/images/keys/w.svg"" width=""35%"" height=""75%""></img></td>
    <td width=300><img src=""static/images/keys/o.svg"" width=""35%"" height=""75%""></img></td>
  </tr>
</table>
  ",79.0,,,,,,,,,,,,,,,,,,,,,,,,,1.0,,
221,0,,html-keyboard-response,221,698584,0.0-7.14-1.14,m2m96go0zy,2022-09-19 15:32:38.768,5af2a03697a14300017d2ba4,1,45,43,26,26,48,Male,2480.0,,"
  <table>
  <tr height=300>
    <td width=300 height=300><img src=""static/images/cards/back_of_red_moons.svg"" width=""175px"" height=""250px""></img></td>
    <td width=300 height=300><img src=""static/images/cards/back_of_red_moons.svg"" width=""175px"" height=""250px""></img></td>
  </tr>
  <tr height=200>
    <td width=300><img src=""static/images/keys/z.svg"" width=""35%"" height=""75%""></img></td>
    <td width=300><img src=""static/images/keys/m.svg"" width=""35%"" height=""75%""></img></td>
  </tr>
</table>
  ",77.0,,,,,,,,,,,,,,,,,,,,,,,,,3.0,,
222,0,,html-keyboard-response,222,700089,0.0-7.14-2.14,m2m96go0zy,2022-09-19 15:32:38.768,5af2a03697a14300017d2ba4,1,45,43,26,26,48,Male,,,"
  <table>
  <tr height=300>
    <td width=300 height=300><img src=""static/images/cards/back_of_red_moons.svg"" width=""175px"" height=""250px""></img></td>
    <td width=300 height=300><img src=""static/images/cards/7_of_red_moons.svg"" width=""175px"" height=""250px""></img></td>
  </tr>
  <tr height=200>
    <td width=300><img src=""static/images/keys/z.svg"" width=""35%"" height=""75%""></img></td>
    <td width=300><img src=""static/images/keys/m.svg"" width=""35%"" height=""75%""></img></td>
  </tr>
</table>
  ",,,,,,,,,,,,,,,,,,,,,,,,,,,,
223,0,,html-keyboard-response,223,701596,0.0-7.14-3.14,m2m96go0zy,2022-09-19 15:32:38.768,5af2a03697a14300017d2ba4,1,45,43,26,26,48,Male,,,"<p style=""font-size:50px"">You win!
+10 points this round!</p>",,,,,,,,,,,,,,,,,,,,,,,,,,,,
224,0,,html-keyboard-response,224,702104,0.0-7.14-4.14,m2m96go0zy,2022-09-19 15:32:38.768,5af2a03697a14300017d2ba4,1,45,43,26,26,48,Male,,,,,1.0,choice,14.0,A,C,red,red,stars,moons,C,A,A,red,moons,1875.0,1.0,1.0,NA,right,2480.0,7.0,1.0,1.0,,,,
225,0,,html-keyboard-response,225,704281,0.0-7.15-0.15,m2m96go0zy,2022-09-19 15:32:38.768,5af2a03697a14300017d2ba4,1,45,43,26,26,48,Male,2173.0,,"
  <table>
  <tr height=300>
    <td width=300 height=300><img src=""static/images/cards/stack_of_red_stars.svg"" width=""175px"" height=""250px""></img></td>
    <td width=300 height=300><img src=""static/images/cards/stack_of_black_moons.svg"" width=""175px"" height=""250px""></img></td>
  </tr>
  <tr height=200>
    <td width=300><img src=""static/images/keys/w.svg"" width=""35%"" height=""75%""></img></td>
    <td width=300><img src=""static/images/keys/o.svg"" width=""35%"" height=""75%""></img></td>
  </tr>
</table>
  ",79.0,,,,,,,,,,,,,,,,,,,,,,,,,1.0,,
226,0,,html-keyboard-response,226,705280,0.0-7.15-1.15,m2m96go0zy,2022-09-19 15:32:38.768,5af2a03697a14300017d2ba4,1,45,43,26,26,48,Male,496.0,,"
  <table>
  <tr height=300>
    <td width=300 height=300><img src=""static/images/cards/back_of_black_moons.svg"" width=""175px"" height=""250px""></img></td>
    <td width=300 height=300><img src=""static/images/cards/back_of_black_moons.svg"" width=""175px"" height=""250px""></img></td>
  </tr>
  <tr height=200>
    <td width=300></td>
    <td width=300><img src=""static/images/keys/m.svg"" width=""35%"" height=""75%""></img></td>
  </tr>
</table>
  ",77.0,,,,,,,,,,,,,,,,,,,,,,,,,1.0,,
227,0,,html-keyboard-response,227,706785,0.0-7.15-2.15,m2m96go0zy,2022-09-19 15:32:38.768,5af2a03697a14300017d2ba4,1,45,43,26,26,48,Male,,,"
  <table>
  <tr height=300>
    <td width=300 height=300><img src=""static/images/cards/back_of_black_moons.svg"" width=""175px"" height=""250px""></img></td>
    <td width=300 height=300><img src=""static/images/cards/1_of_black_moons.svg"" width=""175px"" height=""250px""></img></td>
  </tr>
  <tr height=200>
    <td width=300></td>
    <td width=300><img src=""static/images/keys/m.svg"" width=""35%"" height=""75%""></img></td>
  </tr>
</table>
  ",,,,,,,,,,,,,,,,,,,,,,,,,,,,
228,0,,html-keyboard-response,228,708289,0.0-7.15-3.15,m2m96go0zy,2022-09-19 15:32:38.768,5af2a03697a14300017d2ba4,1,45,43,26,26,48,Male,,,"<p style=""font-size:50px"">You Lose!
No points this round.</p>",,,,,,,,,,,,,,,,,,,,,,,,,,,,
229,0,,html-keyboard-response,229,708799,0.0-7.15-4.15,m2m96go0zy,2022-09-19 15:32:38.768,5af2a03697a14300017d2ba4,1,45,43,26,26,48,Male,,,,,1.0,choice,15.0,B,C,red,black,stars,moons,C,B,B,black,moons,2173.0,0.0,1.0,0,right,496.0,1.0,0.0,0.0,,,,
230,0,,html-keyboard-response,230,710897,0.0-7.16-0.16,m2m96go0zy,2022-09-19 15:32:38.768,5af2a03697a14300017d2ba4,1,45,43,26,26,48,Male,2096.0,,"
  <table>
  <tr height=300>
    <td width=300 height=300><img src=""static/images/cards/stack_of_red_moons.svg"" width=""175px"" height=""250px""></img></td>
    <td width=300 height=300><img src=""static/images/cards/stack_of_black_moons.svg"" width=""175px"" height=""250px""></img></td>
  </tr>
  <tr height=200>
    <td width=300><img src=""static/images/keys/w.svg"" width=""35%"" height=""75%""></img></td>
    <td width=300><img src=""static/images/keys/o.svg"" width=""35%"" height=""75%""></img></td>
  </tr>
</table>
  ",79.0,,,,,,,,,,,,,,,,,,,,,,,,,1.0,,
231,0,,html-keyboard-response,231,711864,0.0-7.16-1.16,m2m96go0zy,2022-09-19 15:32:38.768,5af2a03697a14300017d2ba4,1,45,43,26,26,48,Male,462.0,,"
  <table>
  <tr height=300>
    <td width=300 height=300><img src=""static/images/cards/back_of_black_moons.svg"" width=""175px"" height=""250px""></img></td>
    <td width=300 height=300><img src=""static/images/cards/back_of_black_moons.svg"" width=""175px"" height=""250px""></img></td>
  </tr>
  <tr height=200>
    <td width=300></td>
    <td width=300><img src=""static/images/keys/m.svg"" width=""35%"" height=""75%""></img></td>
  </tr>
</table>
  ",77.0,,,,,,,,,,,,,,,,,,,,,,,,,1.0,,
232,0,,html-keyboard-response,232,713368,0.0-7.16-2.16,m2m96go0zy,2022-09-19 15:32:38.768,5af2a03697a14300017d2ba4,1,45,43,26,26,48,Male,,,"
  <table>
  <tr height=300>
    <td width=300 height=300><img src=""static/images/cards/back_of_black_moons.svg"" width=""175px"" height=""250px""></img></td>
    <td width=300 height=300><img src=""static/images/cards/7_of_black_moons.svg"" width=""175px"" height=""250px""></img></td>
  </tr>
  <tr height=200>
    <td width=300></td>
    <td width=300><img src=""static/images/keys/m.svg"" width=""35%"" height=""75%""></img></td>
  </tr>
</table>
  ",,,,,,,,,,,,,,,,,,,,,,,,,,,,
233,0,,html-keyboard-response,233,714872,0.0-7.16-3.16,m2m96go0zy,2022-09-19 15:32:38.768,5af2a03697a14300017d2ba4,1,45,43,26,26,48,Male,,,"<p style=""font-size:50px"">You win!
+10 points this round!</p>",,,,,,,,,,,,,,,,,,,,,,,,,,,,
234,0,,html-keyboard-response,234,715380,0.0-7.16-4.16,m2m96go0zy,2022-09-19 15:32:38.768,5af2a03697a14300017d2ba4,1,45,43,26,26,48,Male,,,,,1.0,choice,16.0,A,B,red,black,moons,moons,A,B,B,black,moons,2096.0,0.0,1.0,0,right,462.0,7.0,1.0,1.0,,,,
235,0,,html-keyboard-response,235,716864,0.0-7.17-0.17,m2m96go0zy,2022-09-19 15:32:38.768,5af2a03697a14300017d2ba4,1,45,43,26,26,48,Male,1482.0,,"
  <table>
  <tr height=300>
    <td width=300 height=300><img src=""static/images/cards/stack_of_red_stars.svg"" width=""175px"" height=""250px""></img></td>
    <td width=300 height=300><img src=""static/images/cards/stack_of_black_moons.svg"" width=""175px"" height=""250px""></img></td>
  </tr>
  <tr height=200>
    <td width=300><img src=""static/images/keys/w.svg"" width=""35%"" height=""75%""></img></td>
    <td width=300><img src=""static/images/keys/o.svg"" width=""35%"" height=""75%""></img></td>
  </tr>
</table>
  ",79.0,,,,,,,,,,,,,,,,,,,,,,,,,1.0,,
236,0,,html-keyboard-response,236,718016,0.0-7.17-1.17,m2m96go0zy,2022-09-19 15:32:38.768,5af2a03697a14300017d2ba4,1,45,43,26,26,48,Male,647.0,,"
  <table>
  <tr height=300>
    <td width=300 height=300><img src=""static/images/cards/back_of_black_moons.svg"" width=""175px"" height=""250px""></img></td>
    <td width=300 height=300><img src=""static/images/cards/back_of_black_moons.svg"" width=""175px"" height=""250px""></img></td>
  </tr>
  <tr height=200>
    <td width=300><img src=""static/images/keys/z.svg"" width=""35%"" height=""75%""></img></td>
    <td width=300></td>
  </tr>
</table>
  ",90.0,,,,,,,,,,,,,,,,,,,,,,,,,1.0,,
237,0,,html-keyboard-response,237,719522,0.0-7.17-2.17,m2m96go0zy,2022-09-19 15:32:38.768,5af2a03697a14300017d2ba4,1,45,43,26,26,48,Male,,,"
  <table>
  <tr height=300>
    <td width=300 height=300><img src=""static/images/cards/10_of_black_moons.svg"" width=""175px"" height=""250px""></img></td>
    <td width=300 height=300><img src=""static/images/cards/back_of_black_moons.svg"" width=""175px"" height=""250px""></img></td>
  </tr>
  <tr height=200>
