,index,success,trial_type,trial_index,time_elapsed,internal_node_id,subject,date,prol_id,ctbl,sense_of_control_A,sense_of_control_B,sense_of_control_C,sense_of_control_D,age,gender,rt,url,stimulus,key_press,npress,is_data_trial,phase,trial,deck1,deck2,col1,col2,sym1,sym2,deck_l,deck_r,chosen_deck,chosen_col,chosen_sym,deck_rt,choose_choice,mutual_info,hidden_key,chosen_card,card_rt,player_num,win_card,outcome,mock_rating,response,responses
0,0,1.0,fullscreen,0,36744,0.0-0.0,z4wer4u2jf9,2022-09-19 16:45:04.109,62eecc131c4b40e5a9fdb8c0,1,21,0,77,60,30,Male,,,,,,,,,,,,,,,,,,,,,,,,,,,,,,,
1,0,,external-html,1,42867,0.0-1.0,z4wer4u2jf9,2022-09-19 16:45:04.109,62eecc131c4b40e5a9fdb8c0,1,21,0,77,60,30,Male,6036.1000000089,static/js/sub/consent.html,,,,,,,,,,,,,,,,,,,,,,,,,,,,,
2,0,,call-function,2,42869,0.0-2.0,z4wer4u2jf9,2022-09-19 16:45:04.109,62eecc131c4b40e5a9fdb8c0,1,21,0,77,60,30,Male,,,,,,,,,,,,,,,,,,,,,,,,,,,,,,,
3,0,,image-keyboard-response,3,166313,0.0-3.0-0.0,z4wer4u2jf9,2022-09-19 16:45:04.109,62eecc131c4b40e5a9fdb8c0,1,21,0,77,60,30,Male,123443.200000003,,static/images/instructions_CB_1/Slide1.png,39.0,,,,,,,,,,,,,,,,,,,,,,,,,,,
4,0,,image-keyboard-response,4,277968,0.0-3.1-0.1,z4wer4u2jf9,2022-09-19 16:45:04.109,62eecc131c4b40e5a9fdb8c0,1,21,0,77,60,30,Male,111654.400000006,,static/images/instructions_CB_1/Slide2.png,39.0,,,,,,,,,,,,,,,,,,,,,,,,,,,
5,0,,image-keyboard-response,5,287680,0.0-3.2-0.2,z4wer4u2jf9,2022-09-19 16:45:04.109,62eecc131c4b40e5a9fdb8c0,1,21,0,77,60,30,Male,9711.200000003,,static/images/instructions_CB_1/Slide3.png,39.0,,,,,,,,,,,,,,,,,,,,,,,,,,,
6,0,,image-keyboard-response,6,292192,0.0-3.3-0.3,z4wer4u2jf9,2022-09-19 16:45:04.109,62eecc131c4b40e5a9fdb8c0,1,21,0,77,60,30,Male,4511.200000003,,static/images/instructions_CB_1/Slide4.png,37.0,,,,,,,,,,,,,,,,,,,,,,,,,,,
7,0,,image-keyboard-response,7,293179,0.0-3.4-0.4,z4wer4u2jf9,2022-09-19 16:45:04.109,62eecc131c4b40e5a9fdb8c0,1,21,0,77,60,30,Male,986.200000003,,static/images/instructions_CB_1/Slide3.png,39.0,,,,,,,,,,,,,,,,,,,,,,,,,,,
8,0,,image-keyboard-response,8,293977,0.0-3.5-0.5,z4wer4u2jf9,2022-09-19 16:45:04.109,62eecc131c4b40e5a9fdb8c0,1,21,0,77,60,30,Male,797.1000000089,,static/images/instructions_CB_1/Slide4.png,39.0,,,,,,,,,,,,,,,,,,,,,,,,,,,
9,0,,image-keyboard-response,9,302421,0.0-3.6-0.6,z4wer4u2jf9,2022-09-19 16:45:04.109,62eecc131c4b40e5a9fdb8c0,1,21,0,77,60,30,Male,8444.200000003,,static/images/instructions_CB_1/Slide5.png,39.0,,,,,,,,,,,,,,,,,,,,,,,,,,,
10,0,,image-keyboard-response,10,304731,0.0-3.7-0.7,z4wer4u2jf9,2022-09-19 16:45:04.109,62eecc131c4b40e5a9fdb8c0,1,21,0,77,60,30,Male,2309.1999999881,,static/images/instructions_CB_1/Slide6.png,39.0,,,,,,,,,,,,,,,,,,,,,,,,,,,
11,0,,image-keyboard-response,11,310099,0.0-3.8-0.8,z4wer4u2jf9,2022-09-19 16:45:04.109,62eecc131c4b40e5a9fdb8c0,1,21,0,77,60,30,Male,5366.799999997,,static/images/instructions_CB_1/Slide7.png,39.0,,,,,,,,,,,,,,,,,,,,,,,,,,,
12,0,,image-keyboard-response,12,355637,0.0-3.9-0.9,z4wer4u2jf9,2022-09-19 16:45:04.109,62eecc131c4b40e5a9fdb8c0,1,21,0,77,60,30,Male,45537.3999999911,,static/images/instructions_CB_1/Slide8.png,39.0,,,,,,,,,,,,,,,,,,,,,,,,,,,
13,0,,image-keyboard-response,13,360793,0.0-3.10-0.10,z4wer4u2jf9,2022-09-19 16:45:04.109,62eecc131c4b40e5a9fdb8c0,1,21,0,77,60,30,Male,5155.799999997,,static/images/instructions_CB_1/Slide9.png,39.0,,,,,,,,,,,,,,,,,,,,,,,,,,,
14,0,,image-keyboard-response,14,376338,0.0-3.11-0.11,z4wer4u2jf9,2022-09-19 16:45:04.109,62eecc131c4b40e5a9fdb8c0,1,21,0,77,60,30,Male,15543.799999997,,static/images/instructions_CB_1/Slide10.png,39.0,,,,,,,,,,,,,,,,,,,,,,,,,,,
15,0,,image-keyboard-response,15,378969,0.0-3.12-0.12,z4wer4u2jf9,2022-09-19 16:45:04.109,62eecc131c4b40e5a9fdb8c0,1,21,0,77,60,30,Male,2631.200000003,,static/images/instructions_CB_1/Slide11.png,39.0,,,,,,,,,,,,,,,,,,,,,,,,,,,
16,0,,image-keyboard-response,16,394577,0.0-3.13-0.13,z4wer4u2jf9,2022-09-19 16:45:04.109,62eecc131c4b40e5a9fdb8c0,1,21,0,77,60,30,Male,15607.6000000089,,static/images/instructions_CB_1/Slide12.png,39.0,,,,,,,,,,,,,,,,,,,,,,,,,,,
17,0,,image-keyboard-response,17,413826,0.0-3.14-0.14,z4wer4u2jf9,2022-09-19 16:45:04.109,62eecc131c4b40e5a9fdb8c0,1,21,0,77,60,30,Male,19248.0,,static/images/instructions_CB_1/Slide13.png,39.0,,,,,,,,,,,,,,,,,,,,,,,,,,,
18,0,,image-keyboard-response,18,416414,0.0-3.15-0.15,z4wer4u2jf9,2022-09-19 16:45:04.109,62eecc131c4b40e5a9fdb8c0,1,21,0,77,60,30,Male,2587.3999999911,,static/images/instructions_CB_1/Slide14.png,37.0,,,,,,,,,,,,,,,,,,,,,,,,,,,
19,0,,image-keyboard-response,19,420167,0.0-3.16-0.16,z4wer4u2jf9,2022-09-19 16:45:04.109,62eecc131c4b40e5a9fdb8c0,1,21,0,77,60,30,Male,3753.1000000089,,static/images/instructions_CB_1/Slide13.png,39.0,,,,,,,,,,,,,,,,,,,,,,,,,,,
20,0,,image-keyboard-response,20,429158,0.0-3.17-0.17,z4wer4u2jf9,2022-09-19 16:45:04.109,62eecc131c4b40e5a9fdb8c0,1,21,0,77,60,30,Male,8989.799999997,,static/images/instructions_CB_1/Slide14.png,39.0,,,,,,,,,,,,,,,,,,,,,,,,,,,
21,0,,image-keyboard-response,21,436593,0.0-3.18-0.18,z4wer4u2jf9,2022-09-19 16:45:04.109,62eecc131c4b40e5a9fdb8c0,1,21,0,77,60,30,Male,7434.8999999911,,static/images/instructions_CB_1/Slide15.png,39.0,,,,,,,,,,,,,,,,,,,,,,,,,,,
22,0,,image-keyboard-response,22,440668,0.0-3.19-0.19,z4wer4u2jf9,2022-09-19 16:45:04.109,62eecc131c4b40e5a9fdb8c0,1,21,0,77,60,30,Male,4074.3999999911,,static/images/instructions_CB_1/Slide16.png,39.0,,,,,,,,,,,,,,,,,,,,,,,,,,,
23,0,,image-keyboard-response,23,443601,0.0-3.20-0.20,z4wer4u2jf9,2022-09-19 16:45:04.109,62eecc131c4b40e5a9fdb8c0,1,21,0,77,60,30,Male,2932.3999999911,,static/images/instructions_CB_1/Slide17.png,37.0,,,,,,,,,,,,,,,,,,,,,,,,,,,
24,0,,image-keyboard-response,24,461916,0.0-3.21-0.21,z4wer4u2jf9,2022-09-19 16:45:04.109,62eecc131c4b40e5a9fdb8c0,1,21,0,77,60,30,Male,18314.599999994,,static/images/instructions_CB_1/Slide16.png,39.0,,,,,,,,,,,,,,,,,,,,,,,,,,,
25,0,,image-keyboard-response,25,471111,0.0-3.22-0.22,z4wer4u2jf9,2022-09-19 16:45:04.109,62eecc131c4b40e5a9fdb8c0,1,21,0,77,60,30,Male,9194.299999997,,static/images/instructions_CB_1/Slide17.png,39.0,,,,,,,,,,,,,,,,,,,,,,,,,,,
26,0,,image-keyboard-response,26,487818,0.0-3.23-0.23,z4wer4u2jf9,2022-09-19 16:45:04.109,62eecc131c4b40e5a9fdb8c0,1,21,0,77,60,30,Male,16706.099999994,,static/images/instructions_CB_1/Slide18.png,39.0,,,,,,,,,,,,,,,,,,,,,,,,,,,
27,0,,image-keyboard-response,27,493403,0.0-3.24-0.24,z4wer4u2jf9,2022-09-19 16:45:04.109,62eecc131c4b40e5a9fdb8c0,1,21,0,77,60,30,Male,5584.799999997,,static/images/instructions_CB_1/Slide19.png,39.0,,,,,,,,,,,,,,,,,,,,,,,,,,,
28,0,,html-keyboard-response,28,494916,0.0-4.0-0.0,z4wer4u2jf9,2022-09-19 16:45:04.109,62eecc131c4b40e5a9fdb8c0,1,21,0,77,60,30,Male,,,"<img src=""static/images/cards/stack_of_red_moons.svg"" width=""175px"" height=""250px""></img>",,,,,,,,,,,,,,,,,,,,,,,,,,,,
29,0,,html-keyboard-response,29,497233,0.0-4.0-1.0,z4wer4u2jf9,2022-09-19 16:45:04.109,62eecc131c4b40e5a9fdb8c0,1,21,0,77,60,30,Male,1802.700000003,,"
  <table>
  <tr height=300>
    <td width=300 height=300><img src=""static/images/cards/back_of_red_moons.svg"" width=""175px"" height=""250px""></img></td>
    <td width=300 height=300><img src=""static/images/cards/back_of_red_moons.svg"" width=""175px"" height=""250px""></img></td>
  </tr>
  <tr height=200>
    <td width=300><img src=""static/images/keys/z.svg"" width=""35%"" height=""75%""></img></td>
    <td width=300><img src=""static/images/keys/m.svg"" width=""35%"" height=""75%""></img></td>
  </tr>
</table>
  ",90.0,1.0,,,,,,,,,,,,,,,,,,,,,,,,,,
30,0,,html-keyboard-response,30,498744,0.0-4.0-2.0,z4wer4u2jf9,2022-09-19 16:45:04.109,62eecc131c4b40e5a9fdb8c0,1,21,0,77,60,30,Male,,,"
  <table>
  <tr height=300>
    <td width=300 height=300><img src=""static/images/cards/6_of_red_moons.svg"" width=""175px"" height=""250px""></img></td>
    <td width=300 height=300><img src=""static/images/cards/back_of_red_moons.svg"" width=""175px"" height=""250px""></img></td>
  </tr>
  <tr height=200>
    <td width=300><img src=""static/images/keys/z.svg"" width=""35%"" height=""75%""></img></td>
    <td width=300><img src=""static/images/keys/m.svg"" width=""35%"" height=""75%""></img></td>
  </tr>
</table>
  ",,,,,,,,,,,,,,,,,,,,,,,,,,,,
31,0,,html-keyboard-response,31,500270,0.0-4.0-3.0,z4wer4u2jf9,2022-09-19 16:45:04.109,62eecc131c4b40e5a9fdb8c0,1,21,0,77,60,30,Male,,,"<p style=""font-size:50px"">You win!
+10 points this round!</p>",,,,,,,,,,,,,,,,,,,,,,,,,,,,
32,0,,html-keyboard-response,32,500788,0.0-4.0-4.0,z4wer4u2jf9,2022-09-19 16:45:04.109,62eecc131c4b40e5a9fdb8c0,1,21,0,77,60,30,Male,,,,,,1.0,learning,0.0,A,,red,,moons,,,,A,red,moons,,1.0,1.0,NA,left,1802.700000003,6.0,1.0,1.0,,,
33,0,,html-keyboard-response,33,502304,0.0-4.1-0.1,z4wer4u2jf9,2022-09-19 16:45:04.109,62eecc131c4b40e5a9fdb8c0,1,21,0,77,60,30,Male,,,"<img src=""static/images/cards/stack_of_black_moons.svg"" width=""175px"" height=""250px""></img>",,,,,,,,,,,,,,,,,,,,,,,,,,,,
34,0,,html-keyboard-response,34,503632,0.0-4.1-1.1,z4wer4u2jf9,2022-09-19 16:45:04.109,62eecc131c4b40e5a9fdb8c0,1,21,0,77,60,30,Male,816.5,,"
  <table>
  <tr height=300>
    <td width=300 height=300><img src=""static/images/cards/back_of_black_moons.svg"" width=""175px"" height=""250px""></img></td>
    <td width=300 height=300><img src=""static/images/cards/back_of_black_moons.svg"" width=""175px"" height=""250px""></img></td>
  </tr>
  <tr height=200>
    <td width=300><img src=""static/images/keys/z.svg"" width=""35%"" height=""75%""></img></td>
    <td width=300></td>
  </tr>
</table>
  ",90.0,1.0,,,,,,,,,,,,,,,,,,,,,,,,,,
35,0,,html-keyboard-response,35,505136,0.0-4.1-2.1,z4wer4u2jf9,2022-09-19 16:45:04.109,62eecc131c4b40e5a9fdb8c0,1,21,0,77,60,30,Male,,,"
  <table>
  <tr height=300>
    <td width=300 height=300><img src=""static/images/cards/1_of_black_moons.svg"" width=""175px"" height=""250px""></img></td>
    <td width=300 height=300><img src=""static/images/cards/back_of_black_moons.svg"" width=""175px"" height=""250px""></img></td>
  </tr>
  <tr height=200>
    <td width=300><img src=""static/images/keys/z.svg"" width=""35%"" height=""75%""></img></td>
    <td width=300></td>
  </tr>
</table>
  ",,,,,,,,,,,,,,,,,,,,,,,,,,,,
36,0,,html-keyboard-response,36,506655,0.0-4.1-3.1,z4wer4u2jf9,2022-09-19 16:45:04.109,62eecc131c4b40e5a9fdb8c0,1,21,0,77,60,30,Male,,,"<p style=""font-size:50px"">You Lose!
No points this round.</p>",,,,,,,,,,,,,,,,,,,,,,,,,,,,
37,0,,html-keyboard-response,37,507174,0.0-4.1-4.1,z4wer4u2jf9,2022-09-19 16:45:04.109,62eecc131c4b40e5a9fdb8c0,1,21,0,77,60,30,Male,,,,,,1.0,learning,1.0,B,,black,,moons,,,,B,black,moons,,0.0,1.0,1,left,816.5,1.0,0.0,0.0,,,
38,0,,html-keyboard-response,38,508683,0.0-4.2-0.2,z4wer4u2jf9,2022-09-19 16:45:04.109,62eecc131c4b40e5a9fdb8c0,1,21,0,77,60,30,Male,,,"<img src=""static/images/cards/stack_of_red_stars.svg"" width=""175px"" height=""250px""></img>",,,,,,,,,,,,,,,,,,,,,,,,,,,,
39,0,,html-keyboard-response,39,509810,0.0-4.2-1.2,z4wer4u2jf9,2022-09-19 16:45:04.109,62eecc131c4b40e5a9fdb8c0,1,21,0,77,60,30,Male,613.200000003,,"
  <table>
  <tr height=300>
    <td width=300 height=300><img src=""static/images/cards/back_of_red_stars.svg"" width=""175px"" height=""250px""></img></td>
    <td width=300 height=300><img src=""static/images/cards/back_of_red_stars.svg"" width=""175px"" height=""250px""></img></td>
  </tr>
  <tr height=200>
    <td width=300><img src=""static/images/keys/z.svg"" width=""35%"" height=""75%""></img></td>
    <td width=300><img src=""static/images/keys/m.svg"" width=""35%"" height=""75%""></img></td>
  </tr>
</table>
  ",77.0,1.0,,,,,,,,,,,,,,,,,,,,,,,,,,
40,0,,html-keyboard-response,40,511323,0.0-4.2-2.2,z4wer4u2jf9,2022-09-19 16:45:04.109,62eecc131c4b40e5a9fdb8c0,1,21,0,77,60,30,Male,,,"
  <table>
  <tr height=300>
    <td width=300 height=300><img src=""static/images/cards/back_of_red_stars.svg"" width=""175px"" height=""250px""></img></td>
    <td width=300 height=300><img src=""static/images/cards/10_of_red_stars.svg"" width=""175px"" height=""250px""></img></td>
  </tr>
  <tr height=200>
    <td width=300><img src=""static/images/keys/z.svg"" width=""35%"" height=""75%""></img></td>
    <td width=300><img src=""static/images/keys/m.svg"" width=""35%"" height=""75%""></img></td>
  </tr>
</table>
  ",,,,,,,,,,,,,,,,,,,,,,,,,,,,
41,0,,html-keyboard-response,41,512836,0.0-4.2-3.2,z4wer4u2jf9,2022-09-19 16:45:04.109,62eecc131c4b40e5a9fdb8c0,1,21,0,77,60,30,Male,,,"<p style=""font-size:50px"">You Lose!
No points this round.</p>",,,,,,,,,,,,,,,,,,,,,,,,,,,,
42,0,,html-keyboard-response,42,513344,0.0-4.2-4.2,z4wer4u2jf9,2022-09-19 16:45:04.109,62eecc131c4b40e5a9fdb8c0,1,21,0,77,60,30,Male,,,,,,1.0,learning,2.0,C,,red,,stars,,,,C,red,stars,,1.0,0.0,NA,right,613.200000003,10.0,1.0,0.0,,,
43,0,,html-keyboard-response,43,514859,0.0-4.3-0.3,z4wer4u2jf9,2022-09-19 16:45:04.109,62eecc131c4b40e5a9fdb8c0,1,21,0,77,60,30,Male,,,"<img src=""static/images/cards/stack_of_black_stars.svg"" width=""175px"" height=""250px""></img>",,,,,,,,,,,,,,,,,,,,,,,,,,,,
44,0,,html-keyboard-response,44,516067,0.0-4.3-1.3,z4wer4u2jf9,2022-09-19 16:45:04.109,62eecc131c4b40e5a9fdb8c0,1,21,0,77,60,30,Male,692.1999999881,,"
  <table>
  <tr height=300>
    <td width=300 height=300><img src=""static/images/cards/back_of_black_stars.svg"" width=""175px"" height=""250px""></img></td>
    <td width=300 height=300><img src=""static/images/cards/back_of_black_stars.svg"" width=""175px"" height=""250px""></img></td>
  </tr>
  <tr height=200>
    <td width=300><img src=""static/images/keys/z.svg"" width=""35%"" height=""75%""></img></td>
    <td width=300></td>
  </tr>
</table>
  ",90.0,1.0,,,,,,,,,,,,,,,,,,,,,,,,,,
45,0,,html-keyboard-response,45,517571,0.0-4.3-2.3,z4wer4u2jf9,2022-09-19 16:45:04.109,62eecc131c4b40e5a9fdb8c0,1,21,0,77,60,30,Male,,,"
  <table>
  <tr height=300>
    <td width=300 height=300><img src=""static/images/cards/3_of_black_stars.svg"" width=""175px"" height=""250px""></img></td>
    <td width=300 height=300><img src=""static/images/cards/back_of_black_stars.svg"" width=""175px"" height=""250px""></img></td>
  </tr>
  <tr height=200>
    <td width=300><img src=""static/images/keys/z.svg"" width=""35%"" height=""75%""></img></td>
    <td width=300></td>
  </tr>
</table>
  ",,,,,,,,,,,,,,,,,,,,,,,,,,,,
46,0,,html-keyboard-response,46,519093,0.0-4.3-3.3,z4wer4u2jf9,2022-09-19 16:45:04.109,62eecc131c4b40e5a9fdb8c0,1,21,0,77,60,30,Male,,,"<p style=""font-size:50px"">You Lose!
No points this round.</p>",,,,,,,,,,,,,,,,,,,,,,,,,,,,
47,0,,html-keyboard-response,47,519608,0.0-4.3-4.3,z4wer4u2jf9,2022-09-19 16:45:04.109,62eecc131c4b40e5a9fdb8c0,1,21,0,77,60,30,Male,,,,,,1.0,learning,3.0,D,,black,,stars,,,,D,black,stars,,0.0,0.0,1,left,692.1999999881,3.0,0.0,0.0,,,
48,0,,html-keyboard-response,48,521122,0.0-4.4-0.4,z4wer4u2jf9,2022-09-19 16:45:04.109,62eecc131c4b40e5a9fdb8c0,1,21,0,77,60,30,Male,,,"<img src=""static/images/cards/stack_of_red_bolts.svg"" width=""175px"" height=""250px""></img>",,,,,,,,,,,,,,,,,,,,,,,,,,,,
49,0,,html-keyboard-response,49,522363,0.0-4.4-1.4,z4wer4u2jf9,2022-09-19 16:45:04.109,62eecc131c4b40e5a9fdb8c0,1,21,0,77,60,30,Male,727.599999994,,"
  <table>
  <tr height=300>
    <td width=300 height=300><img src=""static/images/cards/back_of_red_bolts.svg"" width=""175px"" height=""250px""></img></td>
    <td width=300 height=300><img src=""static/images/cards/back_of_red_bolts.svg"" width=""175px"" height=""250px""></img></td>
  </tr>
  <tr height=200>
    <td width=300><img src=""static/images/keys/z.svg"" width=""35%"" height=""75%""></img></td>
    <td width=300><img src=""static/images/keys/m.svg"" width=""35%"" height=""75%""></img></td>
  </tr>
</table>
  ",77.0,1.0,,,,,,,,,,,,,,,,,,,,,,,,,,
50,0,,html-keyboard-response,50,523867,0.0-4.4-2.4,z4wer4u2jf9,2022-09-19 16:45:04.109,62eecc131c4b40e5a9fdb8c0,1,21,0,77,60,30,Male,,,"
  <table>
  <tr height=300>
    <td width=300 height=300><img src=""static/images/cards/back_of_red_bolts.svg"" width=""175px"" height=""250px""></img></td>
    <td width=300 height=300><img src=""static/images/cards/1_of_red_bolts.svg"" width=""175px"" height=""250px""></img></td>
  </tr>
  <tr height=200>
    <td width=300><img src=""static/images/keys/z.svg"" width=""35%"" height=""75%""></img></td>
    <td width=300><img src=""static/images/keys/m.svg"" width=""35%"" height=""75%""></img></td>
  </tr>
</table>
  ",,,,,,,,,,,,,,,,,,,,,,,,,,,,
51,0,,html-keyboard-response,51,525388,0.0-4.4-3.4,z4wer4u2jf9,2022-09-19 16:45:04.109,62eecc131c4b40e5a9fdb8c0,1,21,0,77,60,30,Male,,,"<p style=""font-size:50px"">You win!
+10 points this round!</p>",,,,,,,,,,,,,,,,,,,,,,,,,,,,
52,0,,html-keyboard-response,52,525906,0.0-4.4-4.4,z4wer4u2jf9,2022-09-19 16:45:04.109,62eecc131c4b40e5a9fdb8c0,1,21,0,77,60,30,Male,,,,,,1.0,learning,4.0,Xc,,red,,bolts,,,,Xc,red,bolts,,1.0,0.0,NA,right,727.599999994,1.0,0.0,1.0,,,
53,0,,html-keyboard-response,53,527410,0.0-4.5-0.5,z4wer4u2jf9,2022-09-19 16:45:04.109,62eecc131c4b40e5a9fdb8c0,1,21,0,77,60,30,Male,,,"<img src=""static/images/cards/stack_of_black_bolts.svg"" width=""175px"" height=""250px""></img>",,,,,,,,,,,,,,,,,,,,,,,,,,,,
54,0,,html-keyboard-response,54,528315,0.0-4.5-1.5,z4wer4u2jf9,2022-09-19 16:45:04.109,62eecc131c4b40e5a9fdb8c0,1,21,0,77,60,30,Male,390.5,,"
  <table>
  <tr height=300>
    <td width=300 height=300><img src=""static/images/cards/back_of_black_bolts.svg"" width=""175px"" height=""250px""></img></td>
    <td width=300 height=300><img src=""static/images/cards/back_of_black_bolts.svg"" width=""175px"" height=""250px""></img></td>
  </tr>
  <tr height=200>
    <td width=300><img src=""static/images/keys/z.svg"" width=""35%"" height=""75%""></img></td>
    <td width=300></td>
  </tr>
</table>
  ",90.0,1.0,,,,,,,,,,,,,,,,,,,,,,,,,,
55,0,,html-keyboard-response,55,529821,0.0-4.5-2.5,z4wer4u2jf9,2022-09-19 16:45:04.109,62eecc131c4b40e5a9fdb8c0,1,21,0,77,60,30,Male,,,"
  <table>
  <tr height=300>
    <td width=300 height=300><img src=""static/images/cards/6_of_black_bolts.svg"" width=""175px"" height=""250px""></img></td>
    <td width=300 height=300><img src=""static/images/cards/back_of_black_bolts.svg"" width=""175px"" height=""250px""></img></td>
  </tr>
  <tr height=200>
    <td width=300><img src=""static/images/keys/z.svg"" width=""35%"" height=""75%""></img></td>
    <td width=300></td>
  </tr>
</table>
  ",,,,,,,,,,,,,,,,,,,,,,,,,,,,
56,0,,html-keyboard-response,56,531345,0.0-4.5-3.5,z4wer4u2jf9,2022-09-19 16:45:04.109,62eecc131c4b40e5a9fdb8c0,1,21,0,77,60,30,Male,,,"<p style=""font-size:50px"">You win!
+10 points this round!</p>",,,,,,,,,,,,,,,,,,,,,,,,,,,,
57,0,,html-keyboard-response,57,531866,0.0-4.5-4.5,z4wer4u2jf9,2022-09-19 16:45:04.109,62eecc131c4b40e5a9fdb8c0,1,21,0,77,60,30,Male,,,,,,1.0,learning,5.0,Xnc,,black,,bolts,,,,Xnc,black,bolts,,0.0,0.0,1,left,390.5,6.0,1.0,1.0,,,
58,0,,html-keyboard-response,58,533368,0.0-4.6-0.6,z4wer4u2jf9,2022-09-19 16:45:04.109,62eecc131c4b40e5a9fdb8c0,1,21,0,77,60,30,Male,,,"<img src=""static/images/cards/stack_of_red_moons.svg"" width=""175px"" height=""250px""></img>",,,,,,,,,,,,,,,,,,,,,,,,,,,,
59,0,,html-keyboard-response,59,534151,0.0-4.6-1.6,z4wer4u2jf9,2022-09-19 16:45:04.109,62eecc131c4b40e5a9fdb8c0,1,21,0,77,60,30,Male,269.0,,"
  <table>
  <tr height=300>
    <td width=300 height=300><img src=""static/images/cards/back_of_red_moons.svg"" width=""175px"" height=""250px""></img></td>
    <td width=300 height=300><img src=""static/images/cards/back_of_red_moons.svg"" width=""175px"" height=""250px""></img></td>
  </tr>
  <tr height=200>
    <td width=300><img src=""static/images/keys/z.svg"" width=""35%"" height=""75%""></img></td>
    <td width=300><img src=""static/images/keys/m.svg"" width=""35%"" height=""75%""></img></td>
  </tr>
</table>
  ",90.0,1.0,,,,,,,,,,,,,,,,,,,,,,,,,,
60,0,,html-keyboard-response,60,535657,0.0-4.6-2.6,z4wer4u2jf9,2022-09-19 16:45:04.109,62eecc131c4b40e5a9fdb8c0,1,21,0,77,60,30,Male,,,"
  <table>
  <tr height=300>
    <td width=300 height=300><img src=""static/images/cards/3_of_red_moons.svg"" width=""175px"" height=""250px""></img></td>
    <td width=300 height=300><img src=""static/images/cards/back_of_red_moons.svg"" width=""175px"" height=""250px""></img></td>
  </tr>
  <tr height=200>
    <td width=300><img src=""static/images/keys/z.svg"" width=""35%"" height=""75%""></img></td>
    <td width=300><img src=""static/images/keys/m.svg"" width=""35%"" height=""75%""></img></td>
  </tr>
</table>
  ",,,,,,,,,,,,,,,,,,,,,,,,,,,,
61,0,,html-keyboard-response,61,537173,0.0-4.6-3.6,z4wer4u2jf9,2022-09-19 16:45:04.109,62eecc131c4b40e5a9fdb8c0,1,21,0,77,60,30,Male,,,"<p style=""font-size:50px"">You Lose!
No points this round.</p>",,,,,,,,,,,,,,,,,,,,,,,,,,,,
62,0,,html-keyboard-response,62,537693,0.0-4.6-4.6,z4wer4u2jf9,2022-09-19 16:45:04.109,62eecc131c4b40e5a9fdb8c0,1,21,0,77,60,30,Male,,,,,,1.0,learning,6.0,A,,red,,moons,,,,A,red,moons,,1.0,1.0,NA,left,269.0,3.0,0.0,0.0,,,
63,0,,html-keyboard-response,63,539196,0.0-4.7-0.7,z4wer4u2jf9,2022-09-19 16:45:04.109,62eecc131c4b40e5a9fdb8c0,1,21,0,77,60,30,Male,,,"<img src=""static/images/cards/stack_of_black_moons.svg"" width=""175px"" height=""250px""></img>",,,,,,,,,,,,,,,,,,,,,,,,,,,,
64,0,,html-keyboard-response,64,540093,0.0-4.7-1.7,z4wer4u2jf9,2022-09-19 16:45:04.109,62eecc131c4b40e5a9fdb8c0,1,21,0,77,60,30,Male,383.200000003,,"
  <table>
  <tr height=300>
    <td width=300 height=300><img src=""static/images/cards/back_of_black_moons.svg"" width=""175px"" height=""250px""></img></td>
    <td width=300 height=300><img src=""static/images/cards/back_of_black_moons.svg"" width=""175px"" height=""250px""></img></td>
  </tr>
  <tr height=200>
    <td width=300><img src=""static/images/keys/z.svg"" width=""35%"" height=""75%""></img></td>
    <td width=300></td>
  </tr>
</table>
  ",90.0,1.0,,,,,,,,,,,,,,,,,,,,,,,,,,
65,0,,html-keyboard-response,65,541604,0.0-4.7-2.7,z4wer4u2jf9,2022-09-19 16:45:04.109,62eecc131c4b40e5a9fdb8c0,1,21,0,77,60,30,Male,,,"
  <table>
  <tr height=300>
    <td width=300 height=300><img src=""static/images/cards/8_of_black_moons.svg"" width=""175px"" height=""250px""></img></td>
    <td width=300 height=300><img src=""static/images/cards/back_of_black_moons.svg"" width=""175px"" height=""250px""></img></td>
  </tr>
  <tr height=200>
    <td width=300><img src=""static/images/keys/z.svg"" width=""35%"" height=""75%""></img></td>
    <td width=300></td>
  </tr>
</table>
  ",,,,,,,,,,,,,,,,,,,,,,,,,,,,
66,0,,html-keyboard-response,66,543130,0.0-4.7-3.7,z4wer4u2jf9,2022-09-19 16:45:04.109,62eecc131c4b40e5a9fdb8c0,1,21,0,77,60,30,Male,,,"<p style=""font-size:50px"">You win!
+10 points this round!</p>",,,,,,,,,,,,,,,,,,,,,,,,,,,,
67,0,,html-keyboard-response,67,543651,0.0-4.7-4.7,z4wer4u2jf9,2022-09-19 16:45:04.109,62eecc131c4b40e5a9fdb8c0,1,21,0,77,60,30,Male,,,,,,1.0,learning,7.0,B,,black,,moons,,,,B,black,moons,,0.0,1.0,1,left,383.200000003,8.0,1.0,1.0,,,
68,0,,html-keyboard-response,68,545152,0.0-4.8-0.8,z4wer4u2jf9,2022-09-19 16:45:04.109,62eecc131c4b40e5a9fdb8c0,1,21,0,77,60,30,Male,,,"<img src=""static/images/cards/stack_of_red_stars.svg"" width=""175px"" height=""250px""></img>",,,,,,,,,,,,,,,,,,,,,,,,,,,,
69,0,,html-keyboard-response,69,546879,0.0-4.8-1.8,z4wer4u2jf9,2022-09-19 16:45:04.109,62eecc131c4b40e5a9fdb8c0,1,21,0,77,60,30,Male,1213.099999994,,"
  <table>
  <tr height=300>
    <td width=300 height=300><img src=""static/images/cards/back_of_red_stars.svg"" width=""175px"" height=""250px""></img></td>
    <td width=300 height=300><img src=""static/images/cards/back_of_red_stars.svg"" width=""175px"" height=""250px""></img></td>
  </tr>
  <tr height=200>
    <td width=300><img src=""static/images/keys/z.svg"" width=""35%"" height=""75%""></img></td>
    <td width=300><img src=""static/images/keys/m.svg"" width=""35%"" height=""75%""></img></td>
  </tr>
</table>
  ",77.0,2.0,,,,,,,,,,,,,,,,,,,,,,,,,,
70,0,,html-keyboard-response,70,548389,0.0-4.8-2.8,z4wer4u2jf9,2022-09-19 16:45:04.109,62eecc131c4b40e5a9fdb8c0,1,21,0,77,60,30,Male,,,"
  <table>
  <tr height=300>
    <td width=300 height=300><img src=""static/images/cards/back_of_red_stars.svg"" width=""175px"" height=""250px""></img></td>
    <td width=300 height=300><img src=""static/images/cards/3_of_red_stars.svg"" width=""175px"" height=""250px""></img></td>
  </tr>
  <tr height=200>
    <td width=300><img src=""static/images/keys/z.svg"" width=""35%"" height=""75%""></img></td>
    <td width=300><img src=""static/images/keys/m.svg"" width=""35%"" height=""75%""></img></td>
  </tr>
</table>
  ",,,,,,,,,,,,,,,,,,,,,,,,,,,,
71,0,,html-keyboard-response,71,549912,0.0-4.8-3.8,z4wer4u2jf9,2022-09-19 16:45:04.109,62eecc131c4b40e5a9fdb8c0,1,21,0,77,60,30,Male,,,"<p style=""font-size:50px"">You win!
+10 points this round!</p>",,,,,,,,,,,,,,,,,,,,,,,,,,,,
72,0,,html-keyboard-response,72,550430,0.0-4.8-4.8,z4wer4u2jf9,2022-09-19 16:45:04.109,62eecc131c4b40e5a9fdb8c0,1,21,0,77,60,30,Male,,,,,,1.0,learning,8.0,C,,red,,stars,,,,C,red,stars,,1.0,0.0,NA,right,1213.099999994,3.0,0.0,1.0,,,
73,0,,html-keyboard-response,73,551934,0.0-4.9-0.9,z4wer4u2jf9,2022-09-19 16:45:04.109,62eecc131c4b40e5a9fdb8c0,1,21,0,77,60,30,Male,,,"<img src=""static/images/cards/stack_of_black_stars.svg"" width=""175px"" height=""250px""></img>",,,,,,,,,,,,,,,,,,,,,,,,,,,,
74,0,,html-keyboard-response,74,552987,0.0-4.9-1.9,z4wer4u2jf9,2022-09-19 16:45:04.109,62eecc131c4b40e5a9fdb8c0,1,21,0,77,60,30,Male,539.0,,"
  <table>
  <tr height=300>
    <td width=300 height=300><img src=""static/images/cards/back_of_black_stars.svg"" width=""175px"" height=""250px""></img></td>
    <td width=300 height=300><img src=""static/images/cards/back_of_black_stars.svg"" width=""175px"" height=""250px""></img></td>
  </tr>
  <tr height=200>
    <td width=300></td>
    <td width=300><img src=""static/images/keys/m.svg"" width=""35%"" height=""75%""></img></td>
  </tr>
</table>
  ",77.0,1.0,,,,,,,,,,,,,,,,,,,,,,,,,,
75,0,,html-keyboard-response,75,554489,0.0-4.9-2.9,z4wer4u2jf9,2022-09-19 16:45:04.109,62eecc131c4b40e5a9fdb8c0,1,21,0,77,60,30,Male,,,"
  <table>
  <tr height=300>
    <td width=300 height=300><img src=""static/images/cards/back_of_black_stars.svg"" width=""175px"" height=""250px""></img></td>
    <td width=300 height=300><img src=""static/images/cards/8_of_black_stars.svg"" width=""175px"" height=""250px""></img></td>
  </tr>
  <tr height=200>
    <td width=300></td>
    <td width=300><img src=""static/images/keys/m.svg"" width=""35%"" height=""75%""></img></td>
  </tr>
</table>
  ",,,,,,,,,,,,,,,,,,,,,,,,,,,,
76,0,,html-keyboard-response,76,556016,0.0-4.9-3.9,z4wer4u2jf9,2022-09-19 16:45:04.109,62eecc131c4b40e5a9fdb8c0,1,21,0,77,60,30,Male,,,"<p style=""font-size:50px"">You Lose!
No points this round.</p>",,,,,,,,,,,,,,,,,,,,,,,,,,,,
77,0,,html-keyboard-response,77,556532,0.0-4.9-4.9,z4wer4u2jf9,2022-09-19 16:45:04.109,62eecc131c4b40e5a9fdb8c0,1,21,0,77,60,30,Male,,,,,,1.0,learning,9.0,D,,black,,stars,,,,D,black,stars,,0.0,0.0,0,right,539.0,8.0,1.0,0.0,,,
78,0,,html-keyboard-response,78,558036,0.0-4.10-0.10,z4wer4u2jf9,2022-09-19 16:45:04.109,62eecc131c4b40e5a9fdb8c0,1,21,0,77,60,30,Male,,,"<img src=""static/images/cards/stack_of_red_bolts.svg"" width=""175px"" height=""250px""></img>",,,,,,,,,,,,,,,,,,,,,,,,,,,,
79,0,,html-keyboard-response,79,559109,0.0-4.10-1.10,z4wer4u2jf9,2022-09-19 16:45:04.109,62eecc131c4b40e5a9fdb8c0,1,21,0,77,60,30,Male,559.5,,"
  <table>
  <tr height=300>
    <td width=300 height=300><img src=""static/images/cards/back_of_red_bolts.svg"" width=""175px"" height=""250px""></img></td>
    <td width=300 height=300><img src=""static/images/cards/back_of_red_bolts.svg"" width=""175px"" height=""250px""></img></td>
  </tr>
  <tr height=200>
    <td width=300><img src=""static/images/keys/z.svg"" width=""35%"" height=""75%""></img></td>
    <td width=300><img src=""static/images/keys/m.svg"" width=""35%"" height=""75%""></img></td>
  </tr>
</table>
  ",90.0,1.0,,,,,,,,,,,,,,,,,,,,,,,,,,
80,0,,html-keyboard-response,80,560617,0.0-4.10-2.10,z4wer4u2jf9,2022-09-19 16:45:04.109,62eecc131c4b40e5a9fdb8c0,1,21,0,77,60,30,Male,,,"
  <table>
  <tr height=300>
    <td width=300 height=300><img src=""static/images/cards/8_of_red_bolts.svg"" width=""175px"" height=""250px""></img></td>
    <td width=300 height=300><img src=""static/images/cards/back_of_red_bolts.svg"" width=""175px"" height=""250px""></img></td>
  </tr>
  <tr height=200>
    <td width=300><img src=""static/images/keys/z.svg"" width=""35%"" height=""75%""></img></td>
    <td width=300><img src=""static/images/keys/m.svg"" width=""35%"" height=""75%""></img></td>
  </tr>
</table>
  ",,,,,,,,,,,,,,,,,,,,,,,,,,,,
81,0,,html-keyboard-response,81,562138,0.0-4.10-3.10,z4wer4u2jf9,2022-09-19 16:45:04.109,62eecc131c4b40e5a9fdb8c0,1,21,0,77,60,30,Male,,,"<p style=""font-size:50px"">You win!
+10 points this round!</p>",,,,,,,,,,,,,,,,,,,,,,,,,,,,
82,0,,html-keyboard-response,82,562657,0.0-4.10-4.10,z4wer4u2jf9,2022-09-19 16:45:04.109,62eecc131c4b40e5a9fdb8c0,1,21,0,77,60,30,Male,,,,,,1.0,learning,10.0,Xc,,red,,bolts,,,,Xc,red,bolts,,1.0,0.0,NA,left,559.5,8.0,1.0,1.0,,,
83,0,,html-keyboard-response,83,564164,0.0-4.11-0.11,z4wer4u2jf9,2022-09-19 16:45:04.109,62eecc131c4b40e5a9fdb8c0,1,21,0,77,60,30,Male,,,"<img src=""static/images/cards/stack_of_black_bolts.svg"" width=""175px"" height=""250px""></img>",,,,,,,,,,,,,,,,,,,,,,,,,,,,
84,0,,html-keyboard-response,84,565938,0.0-4.11-1.11,z4wer4u2jf9,2022-09-19 16:45:04.109,62eecc131c4b40e5a9fdb8c0,1,21,0,77,60,30,Male,1260.3999999911,,"
  <table>
  <tr height=300>
    <td width=300 height=300><img src=""static/images/cards/back_of_black_bolts.svg"" width=""175px"" height=""250px""></img></td>
    <td width=300 height=300><img src=""static/images/cards/back_of_black_bolts.svg"" width=""175px"" height=""250px""></img></td>
  </tr>
  <tr height=200>
    <td width=300></td>
    <td width=300><img src=""static/images/keys/m.svg"" width=""35%"" height=""75%""></img></td>
  </tr>
</table>
  ",77.0,2.0,,,,,,,,,,,,,,,,,,,,,,,,,,
85,0,,html-keyboard-response,85,567454,0.0-4.11-2.11,z4wer4u2jf9,2022-09-19 16:45:04.109,62eecc131c4b40e5a9fdb8c0,1,21,0,77,60,30,Male,,,"
  <table>
  <tr height=300>
    <td width=300 height=300><img src=""static/images/cards/back_of_black_bolts.svg"" width=""175px"" height=""250px""></img></td>
    <td width=300 height=300><img src=""static/images/cards/3_of_black_bolts.svg"" width=""175px"" height=""250px""></img></td>
  </tr>
  <tr height=200>
    <td width=300></td>
    <td width=300><img src=""static/images/keys/m.svg"" width=""35%"" height=""75%""></img></td>
  </tr>
</table>
  ",,,,,,,,,,,,,,,,,,,,,,,,,,,,
86,0,,html-keyboard-response,86,568983,0.0-4.11-3.11,z4wer4u2jf9,2022-09-19 16:45:04.109,62eecc131c4b40e5a9fdb8c0,1,21,0,77,60,30,Male,,,"<p style=""font-size:50px"">You win!
+10 points this round!</p>",,,,,,,,,,,,,,,,,,,,,,,,,,,,
87,0,,html-keyboard-response,87,569504,0.0-4.11-4.11,z4wer4u2jf9,2022-09-19 16:45:04.109,62eecc131c4b40e5a9fdb8c0,1,21,0,77,60,30,Male,,,,,,1.0,learning,11.0,Xnc,,black,,bolts,,,,Xnc,black,bolts,,0.0,0.0,0,right,1260.3999999911,3.0,0.0,1.0,,,
88,0,,html-keyboard-response,88,571016,0.0-4.12-0.12,z4wer4u2jf9,2022-09-19 16:45:04.109,62eecc131c4b40e5a9fdb8c0,1,21,0,77,60,30,Male,,,"<img src=""static/images/cards/stack_of_red_moons.svg"" width=""175px"" height=""250px""></img>",,,,,,,,,,,,,,,,,,,,,,,,,,,,
89,0,,html-keyboard-response,89,572007,0.0-4.12-1.12,z4wer4u2jf9,2022-09-19 16:45:04.109,62eecc131c4b40e5a9fdb8c0,1,21,0,77,60,30,Male,475.3999999911,,"
  <table>
  <tr height=300>
    <td width=300 height=300><img src=""static/images/cards/back_of_red_moons.svg"" width=""175px"" height=""250px""></img></td>
    <td width=300 height=300><img src=""static/images/cards/back_of_red_moons.svg"" width=""175px"" height=""250px""></img></td>
  </tr>
  <tr height=200>
    <td width=300><img src=""static/images/keys/z.svg"" width=""35%"" height=""75%""></img></td>
    <td width=300><img src=""static/images/keys/m.svg"" width=""35%"" height=""75%""></img></td>
  </tr>
</table>
  ",90.0,1.0,,,,,,,,,,,,,,,,,,,,,,,,,,
90,0,,html-keyboard-response,90,573519,0.0-4.12-2.12,z4wer4u2jf9,2022-09-19 16:45:04.109,62eecc131c4b40e5a9fdb8c0,1,21,0,77,60,30,Male,,,"
  <table>
  <tr height=300>
    <td width=300 height=300><img src=""static/images/cards/6_of_red_moons.svg"" width=""175px"" height=""250px""></img></td>
    <td width=300 height=300><img src=""static/images/cards/back_of_red_moons.svg"" width=""175px"" height=""250px""></img></td>
  </tr>
  <tr height=200>
    <td width=300><img src=""static/images/keys/z.svg"" width=""35%"" height=""75%""></img></td>
    <td width=300><img src=""static/images/keys/m.svg"" width=""35%"" height=""75%""></img></td>
  </tr>
</table>
  ",,,,,,,,,,,,,,,,,,,,,,,,,,,,
91,0,,html-keyboard-response,91,575045,0.0-4.12-3.12,z4wer4u2jf9,2022-09-19 16:45:04.109,62eecc131c4b40e5a9fdb8c0,1,21,0,77,60,30,Male,,,"<p style=""font-size:50px"">You win!
+10 points this round!</p>",,,,,,,,,,,,,,,,,,,,,,,,,,,,
92,0,,html-keyboard-response,92,575567,0.0-4.12-4.12,z4wer4u2jf9,2022-09-19 16:45:04.109,62eecc131c4b40e5a9fdb8c0,1,21,0,77,60,30,Male,,,,,,1.0,learning,12.0,A,,red,,moons,,,,A,red,moons,,1.0,1.0,NA,left,475.3999999911,6.0,1.0,1.0,,,
93,0,,html-keyboard-response,93,577070,0.0-4.13-0.13,z4wer4u2jf9,2022-09-19 16:45:04.109,62eecc131c4b40e5a9fdb8c0,1,21,0,77,60,30,Male,,,"<img src=""static/images/cards/stack_of_black_moons.svg"" width=""175px"" height=""250px""></img>",,,,,,,,,,,,,,,,,,,,,,,,,,,,
94,0,,html-keyboard-response,94,577909,0.0-4.13-1.13,z4wer4u2jf9,2022-09-19 16:45:04.109,62eecc131c4b40e5a9fdb8c0,1,21,0,77,60,30,Male,324.400000006,,"
  <table>
  <tr height=300>
    <td width=300 height=300><img src=""static/images/cards/back_of_black_moons.svg"" width=""175px"" height=""250px""></img></td>
    <td width=300 height=300><img src=""static/images/cards/back_of_black_moons.svg"" width=""175px"" height=""250px""></img></td>
  </tr>
  <tr height=200>
    <td width=300></td>
    <td width=300><img src=""static/images/keys/m.svg"" width=""35%"" height=""75%""></img></td>
  </tr>
</table>
  ",77.0,1.0,,,,,,,,,,,,,,,,,,,,,,,,,,
95,0,,html-keyboard-response,95,579410,0.0-4.13-2.13,z4wer4u2jf9,2022-09-19 16:45:04.109,62eecc131c4b40e5a9fdb8c0,1,21,0,77,60,30,Male,,,"
  <table>
  <tr height=300>
    <td width=300 height=300><img src=""static/images/cards/back_of_black_moons.svg"" width=""175px"" height=""250px""></img></td>
    <td width=300 height=300><img src=""static/images/cards/2_of_black_moons.svg"" width=""175px"" height=""250px""></img></td>
  </tr>
  <tr height=200>
    <td width=300></td>
    <td width=300><img src=""static/images/keys/m.svg"" width=""35%"" height=""75%""></img></td>
  </tr>
</table>
  ",,,,,,,,,,,,,,,,,,,,,,,,,,,,
96,0,,html-keyboard-response,96,580932,0.0-4.13-3.13,z4wer4u2jf9,2022-09-19 16:45:04.109,62eecc131c4b40e5a9fdb8c0,1,21,0,77,60,30,Male,,,"<p style=""font-size:50px"">You Lose!
No points this round.</p>",,,,,,,,,,,,,,,,,,,,,,,,,,,,
97,0,,html-keyboard-response,97,581451,0.0-4.13-4.13,z4wer4u2jf9,2022-09-19 16:45:04.109,62eecc131c4b40e5a9fdb8c0,1,21,0,77,60,30,Male,,,,,,1.0,learning,13.0,B,,black,,moons,,,,B,black,moons,,0.0,1.0,0,right,324.400000006,2.0,0.0,0.0,,,
98,0,,html-keyboard-response,98,582952,0.0-4.14-0.14,z4wer4u2jf9,2022-09-19 16:45:04.109,62eecc131c4b40e5a9fdb8c0,1,21,0,77,60,30,Male,,,"<img src=""static/images/cards/stack_of_red_stars.svg"" width=""175px"" height=""250px""></img>",,,,,,,,,,,,,,,,,,,,,,,,,,,,
99,0,,html-keyboard-response,99,583977,0.0-4.14-1.14,z4wer4u2jf9,2022-09-19 16:45:04.109,62eecc131c4b40e5a9fdb8c0,1,21,0,77,60,30,Male,510.6000000089,,"
  <table>
  <tr height=300>
    <td width=300 height=300><img src=""static/images/cards/back_of_red_stars.svg"" width=""175px"" height=""250px""></img></td>
    <td width=300 height=300><img src=""static/images/cards/back_of_red_stars.svg"" width=""175px"" height=""250px""></img></td>
  </tr>
  <tr height=200>
    <td width=300><img src=""static/images/keys/z.svg"" width=""35%"" height=""75%""></img></td>
    <td width=300><img src=""static/images/keys/m.svg"" width=""35%"" height=""75%""></img></td>
  </tr>
</table>
  ",90.0,1.0,,,,,,,,,,,,,,,,,,,,,,,,,,
100,0,,html-keyboard-response,100,585480,0.0-4.14-2.14,z4wer4u2jf9,2022-09-19 16:45:04.109,62eecc131c4b40e5a9fdb8c0,1,21,0,77,60,30,Male,,,"
  <table>
  <tr height=300>
    <td width=300 height=300><img src=""static/images/cards/2_of_red_stars.svg"" width=""175px"" height=""250px""></img></td>
    <td width=300 height=300><img src=""static/images/cards/back_of_red_stars.svg"" width=""175px"" height=""250px""></img></td>
  </tr>
  <tr height=200>
    <td width=300><img src=""static/images/keys/z.svg"" width=""35%"" height=""75%""></img></td>
    <td width=300><img src=""static/images/keys/m.svg"" width=""35%"" height=""75%""></img></td>
  </tr>
</table>
  ",,,,,,,,,,,,,,,,,,,,,,,,,,,,
101,0,,html-keyboard-response,101,586996,0.0-4.14-3.14,z4wer4u2jf9,2022-09-19 16:45:04.109,62eecc131c4b40e5a9fdb8c0,1,21,0,77,60,30,Male,,,"<p style=""font-size:50px"">You Lose!
No points this round.</p>",,,,,,,,,,,,,,,,,,,,,,,,,,,,
102,0,,html-keyboard-response,102,587513,0.0-4.14-4.14,z4wer4u2jf9,2022-09-19 16:45:04.109,62eecc131c4b40e5a9fdb8c0,1,21,0,77,60,30,Male,,,,,,1.0,learning,14.0,C,,red,,stars,,,,C,red,stars,,1.0,0.0,NA,left,510.6000000089,2.0,0.0,0.0,,,
103,0,,html-keyboard-response,103,589013,0.0-4.15-0.15,z4wer4u2jf9,2022-09-19 16:45:04.109,62eecc131c4b40e5a9fdb8c0,1,21,0,77,60,30,Male,,,"<img src=""static/images/cards/stack_of_black_stars.svg"" width=""175px"" height=""250px""></img>",,,,,,,,,,,,,,,,,,,,,,,,,,,,
104,0,,html-keyboard-response,104,589908,0.0-4.15-1.15,z4wer4u2jf9,2022-09-19 16:45:04.109,62eecc131c4b40e5a9fdb8c0,1,21,0,77,60,30,Male,381.0,,"
  <table>
  <tr height=300>
    <td width=300 height=300><img src=""static/images/cards/back_of_black_stars.svg"" width=""175px"" height=""250px""></img></td>
    <td width=300 height=300><img src=""static/images/cards/back_of_black_stars.svg"" width=""175px"" height=""250px""></img></td>
  </tr>
  <tr height=200>
    <td width=300></td>
    <td width=300><img src=""static/images/keys/m.svg"" width=""35%"" height=""75%""></img></td>
  </tr>
</table>
  ",77.0,1.0,,,,,,,,,,,,,,,,,,,,,,,,,,
105,0,,html-keyboard-response,105,591414,0.0-4.15-2.15,z4wer4u2jf9,2022-09-19 16:45:04.109,62eecc131c4b40e5a9fdb8c0,1,21,0,77,60,30,Male,,,"
  <table>
  <tr height=300>
    <td width=300 height=300><img src=""static/images/cards/back_of_black_stars.svg"" width=""175px"" height=""250px""></img></td>
    <td width=300 height=300><img src=""static/images/cards/2_of_black_stars.svg"" width=""175px"" height=""250px""></img></td>
  </tr>
  <tr height=200>
    <td width=300></td>
    <td width=300><img src=""static/images/keys/m.svg"" width=""35%"" height=""75%""></img></td>
  </tr>
</table>
  ",,,,,,,,,,,,,,,,,,,,,,,,,,,,
106,0,,html-keyboard-response,106,592943,0.0-4.15-3.15,z4wer4u2jf9,2022-09-19 16:45:04.109,62eecc131c4b40e5a9fdb8c0,1,21,0,77,60,30,Male,,,"<p style=""font-size:50px"">You win!
+10 points this round!</p>",,,,,,,,,,,,,,,,,,,,,,,,,,,,
107,0,,html-keyboard-response,107,593462,0.0-4.15-4.15,z4wer4u2jf9,2022-09-19 16:45:04.109,62eecc131c4b40e5a9fdb8c0,1,21,0,77,60,30,Male,,,,,,1.0,learning,15.0,D,,black,,stars,,,,D,black,stars,,0.0,0.0,0,right,381.0,2.0,0.0,1.0,,,
108,0,,html-keyboard-response,108,594963,0.0-4.16-0.16,z4wer4u2jf9,2022-09-19 16:45:04.109,62eecc131c4b40e5a9fdb8c0,1,21,0,77,60,30,Male,,,"<img src=""static/images/cards/stack_of_red_bolts.svg"" width=""175px"" height=""250px""></img>",,,,,,,,,,,,,,,,,,,,,,,,,,,,
109,0,,html-keyboard-response,109,595735,0.0-4.16-1.16,z4wer4u2jf9,2022-09-19 16:45:04.109,62eecc131c4b40e5a9fdb8c0,1,21,0,77,60,30,Male,257.0,,"
  <table>
  <tr height=300>
    <td width=300 height=300><img src=""static/images/cards/back_of_red_bolts.svg"" width=""175px"" height=""250px""></img></td>
    <td width=300 height=300><img src=""static/images/cards/back_of_red_bolts.svg"" width=""175px"" height=""250px""></img></td>
  </tr>
  <tr height=200>
    <td width=300><img src=""static/images/keys/z.svg"" width=""35%"" height=""75%""></img></td>
    <td width=300><img src=""static/images/keys/m.svg"" width=""35%"" height=""75%""></img></td>
  </tr>
</table>
  ",77.0,1.0,,,,,,,,,,,,,,,,,,,,,,,,,,
110,0,,html-keyboard-response,110,597250,0.0-4.16-2.16,z4wer4u2jf9,2022-09-19 16:45:04.109,62eecc131c4b40e5a9fdb8c0,1,21,0,77,60,30,Male,,,"
  <table>
  <tr height=300>
    <td width=300 height=300><img src=""static/images/cards/back_of_red_bolts.svg"" width=""175px"" height=""250px""></img></td>
    <td width=300 height=300><img src=""static/images/cards/3_of_red_bolts.svg"" width=""175px"" height=""250px""></img></td>
  </tr>
  <tr height=200>
    <td width=300><img src=""static/images/keys/z.svg"" width=""35%"" height=""75%""></img></td>
    <td width=300><img src=""static/images/keys/m.svg"" width=""35%"" height=""75%""></img></td>
  </tr>
</table>
  ",,,,,,,,,,,,,,,,,,,,,,,,,,,,
111,0,,html-keyboard-response,111,598778,0.0-4.16-3.16,z4wer4u2jf9,2022-09-19 16:45:04.109,62eecc131c4b40e5a9fdb8c0,1,21,0,77,60,30,Male,,,"<p style=""font-size:50px"">You win!
+10 points this round!</p>",,,,,,,,,,,,,,,,,,,,,,,,,,,,
112,0,,html-keyboard-response,112,599299,0.0-4.16-4.16,z4wer4u2jf9,2022-09-19 16:45:04.109,62eecc131c4b40e5a9fdb8c0,1,21,0,77,60,30,Male,,,,,,1.0,learning,16.0,Xc,,red,,bolts,,,,Xc,red,bolts,,1.0,0.0,NA,right,257.0,3.0,0.0,1.0,,,
113,0,,html-keyboard-response,113,600802,0.0-4.17-0.17,z4wer4u2jf9,2022-09-19 16:45:04.109,62eecc131c4b40e5a9fdb8c0,1,21,0,77,60,30,Male,,,"<img src=""static/images/cards/stack_of_black_bolts.svg"" width=""175px"" height=""250px""></img>",,,,,,,,,,,,,,,,,,,,,,,,,,,,
114,0,,html-keyboard-response,114,602061,0.0-4.17-1.17,z4wer4u2jf9,2022-09-19 16:45:04.109,62eecc131c4b40e5a9fdb8c0,1,21,0,77,60,30,Male,743.299999997,,"
  <table>
  <tr height=300>
    <td width=300 height=300><img src=""static/images/cards/back_of_black_bolts.svg"" width=""175px"" height=""250px""></img></td>
    <td width=300 height=300><img src=""static/images/cards/back_of_black_bolts.svg"" width=""175px"" height=""250px""></img></td>
  </tr>
  <tr height=200>
    <td width=300><img src=""static/images/keys/z.svg"" width=""35%"" height=""75%""></img></td>
    <td width=300></td>
  </tr>
</table>
  ",90.0,1.0,,,,,,,,,,,,,,,,,,,,,,,,,,
115,0,,html-keyboard-response,115,603569,0.0-4.17-2.17,z4wer4u2jf9,2022-09-19 16:45:04.109,62eecc131c4b40e5a9fdb8c0,1,21,0,77,60,30,Male,,,"
  <table>
  <tr height=300>
    <td width=300 height=300><img src=""static/images/cards/4_of_black_bolts.svg"" width=""175px"" height=""250px""></img></td>
    <td width=300 height=300><img src=""static/images/cards/back_of_black_bolts.svg"" width=""175px"" height=""250px""></img></td>
  </tr>
  <tr height=200>
    <td width=300><img src=""static/images/keys/z.svg"" width=""35%"" height=""75%""></img></td>
    <td width=300></td>
  </tr>
</table>
  ",,,,,,,,,,,,,,,,,,,,,,,,,,,,
116,0,,html-keyboard-response,116,605093,0.0-4.17-3.17,z4wer4u2jf9,2022-09-19 16:45:04.109,62eecc131c4b40e5a9fdb8c0,1,21,0,77,60,30,Male,,,"<p style=""font-size:50px"">You win!
+10 points this round!</p>",,,,,,,,,,,,,,,,,,,,,,,,,,,,
117,0,,html-keyboard-response,117,605611,0.0-4.17-4.17,z4wer4u2jf9,2022-09-19 16:45:04.109,62eecc131c4b40e5a9fdb8c0,1,21,0,77,60,30,Male,,,,,,1.0,learning,17.0,Xnc,,black,,bolts,,,,Xnc,black,bolts,,0.0,0.0,1,left,743.299999997,4.0,0.0,1.0,,,
118,0,,html-keyboard-response,118,607117,0.0-4.18-0.18,z4wer4u2jf9,2022-09-19 16:45:04.109,62eecc131c4b40e5a9fdb8c0,1,21,0,77,60,30,Male,,,"<img src=""static/images/cards/stack_of_red_moons.svg"" width=""175px"" height=""250px""></img>",,,,,,,,,,,,,,,,,,,,,,,,,,,,
119,0,,html-keyboard-response,119,608255,0.0-4.18-1.18,z4wer4u2jf9,2022-09-19 16:45:04.109,62eecc131c4b40e5a9fdb8c0,1,21,0,77,60,30,Male,624.099999994,,"
  <table>
  <tr height=300>
    <td width=300 height=300><img src=""static/images/cards/back_of_red_moons.svg"" width=""175px"" height=""250px""></img></td>
    <td width=300 height=300><img src=""static/images/cards/back_of_red_moons.svg"" width=""175px"" height=""250px""></img></td>
  </tr>
  <tr height=200>
    <td width=300><img src=""static/images/keys/z.svg"" width=""35%"" height=""75%""></img></td>
    <td width=300><img src=""static/images/keys/m.svg"" width=""35%"" height=""75%""></img></td>
  </tr>
</table>
  ",77.0,1.0,,,,,,,,,,,,,,,,,,,,,,,,,,
120,0,,html-keyboard-response,120,609766,0.0-4.18-2.18,z4wer4u2jf9,2022-09-19 16:45:04.109,62eecc131c4b40e5a9fdb8c0,1,21,0,77,60,30,Male,,,"
  <table>
  <tr height=300>
    <td width=300 height=300><img src=""static/images/cards/back_of_red_moons.svg"" width=""175px"" height=""250px""></img></td>
    <td width=300 height=300><img src=""static/images/cards/2_of_red_moons.svg"" width=""175px"" height=""250px""></img></td>
  </tr>
  <tr height=200>
    <td width=300><img src=""static/images/keys/z.svg"" width=""35%"" height=""75%""></img></td>
    <td width=300><img src=""static/images/keys/m.svg"" width=""35%"" height=""75%""></img></td>
  </tr>
</table>
  ",,,,,,,,,,,,,,,,,,,,,,,,,,,,
121,0,,html-keyboard-response,121,611287,0.0-4.18-3.18,z4wer4u2jf9,2022-09-19 16:45:04.109,62eecc131c4b40e5a9fdb8c0,1,21,0,77,60,30,Male,,,"<p style=""font-size:50px"">You Lose!
No points this round.</p>",,,,,,,,,,,,,,,,,,,,,,,,,,,,
122,0,,html-keyboard-response,122,611806,0.0-4.18-4.18,z4wer4u2jf9,2022-09-19 16:45:04.109,62eecc131c4b40e5a9fdb8c0,1,21,0,77,60,30,Male,,,,,,1.0,learning,18.0,A,,red,,moons,,,,A,red,moons,,1.0,1.0,NA,right,624.099999994,2.0,0.0,0.0,,,
123,0,,html-keyboard-response,123,613308,0.0-4.19-0.19,z4wer4u2jf9,2022-09-19 16:45:04.109,62eecc131c4b40e5a9fdb8c0,1,21,0,77,60,30,Male,,,"<img src=""static/images/cards/stack_of_black_moons.svg"" width=""175px"" height=""250px""></img>",,,,,,,,,,,,,,,,,,,,,,,,,,,,
124,0,,html-keyboard-response,124,614407,0.0-4.19-1.19,z4wer4u2jf9,2022-09-19 16:45:04.109,62eecc131c4b40e5a9fdb8c0,1,21,0,77,60,30,Male,597.099999994,,"
  <table>
  <tr height=300>
    <td width=300 height=300><img src=""static/images/cards/back_of_black_moons.svg"" width=""175px"" height=""250px""></img></td>
    <td width=300 height=300><img src=""static/images/cards/back_of_black_moons.svg"" width=""175px"" height=""250px""></img></td>
  </tr>
  <tr height=200>
    <td width=300><img src=""static/images/keys/z.svg"" width=""35%"" height=""75%""></img></td>
    <td width=300></td>
  </tr>
</table>
  ",90.0,1.0,,,,,,,,,,,,,,,,,,,,,,,,,,
125,0,,html-keyboard-response,125,615909,0.0-4.19-2.19,z4wer4u2jf9,2022-09-19 16:45:04.109,62eecc131c4b40e5a9fdb8c0,1,21,0,77,60,30,Male,,,"
  <table>
  <tr height=300>
    <td width=300 height=300><img src=""static/images/cards/10_of_black_moons.svg"" width=""175px"" height=""250px""></img></td>
    <td width=300 height=300><img src=""static/images/cards/back_of_black_moons.svg"" width=""175px"" height=""250px""></img></td>
  </tr>
  <tr height=200>
    <td width=300><img src=""static/images/keys/z.svg"" width=""35%"" height=""75%""></img></td>
    <td width=300></td>
  </tr>
</table>
  ",,,,,,,,,,,,,,,,,,,,,,,,,,,,
126,0,,html-keyboard-response,126,617431,0.0-4.19-3.19,z4wer4u2jf9,2022-09-19 16:45:04.109,62eecc131c4b40e5a9fdb8c0,1,21,0,77,60,30,Male,,,"<p style=""font-size:50px"">You win!
+10 points this round!</p>",,,,,,,,,,,,,,,,,,,,,,,,,,,,
127,0,,html-keyboard-response,127,617948,0.0-4.19-4.19,z4wer4u2jf9,2022-09-19 16:45:04.109,62eecc131c4b40e5a9fdb8c0,1,21,0,77,60,30,Male,,,,,,1.0,learning,19.0,B,,black,,moons,,,,B,black,moons,,0.0,1.0,1,left,597.099999994,10.0,1.0,1.0,,,
128,0,,html-keyboard-response,128,619460,0.0-4.20-0.20,z4wer4u2jf9,2022-09-19 16:45:04.109,62eecc131c4b40e5a9fdb8c0,1,21,0,77,60,30,Male,,,"<img src=""static/images/cards/stack_of_red_stars.svg"" width=""175px"" height=""250px""></img>",,,,,,,,,,,,,,,,,,,,,,,,,,,,
129,0,,html-keyboard-response,129,620498,0.0-4.20-1.20,z4wer4u2jf9,2022-09-19 16:45:04.109,62eecc131c4b40e5a9fdb8c0,1,21,0,77,60,30,Male,522.1000000089,,"
  <table>
  <tr height=300>
    <td width=300 height=300><img src=""static/images/cards/back_of_red_stars.svg"" width=""175px"" height=""250px""></img></td>
    <td width=300 height=300><img src=""static/images/cards/back_of_red_stars.svg"" width=""175px"" height=""250px""></img></td>
  </tr>
  <tr height=200>
    <td width=300><img src=""static/images/keys/z.svg"" width=""35%"" height=""75%""></img></td>
    <td width=300><img src=""static/images/keys/m.svg"" width=""35%"" height=""75%""></img></td>
  </tr>
</table>
  ",90.0,1.0,,,,,,,,,,,,,,,,,,,,,,,,,,
130,0,,html-keyboard-response,130,621999,0.0-4.20-2.20,z4wer4u2jf9,2022-09-19 16:45:04.109,62eecc131c4b40e5a9fdb8c0,1,21,0,77,60,30,Male,,,"
  <table>
  <tr height=300>
    <td width=300 height=300><img src=""static/images/cards/6_of_red_stars.svg"" width=""175px"" height=""250px""></img></td>
    <td width=300 height=300><img src=""static/images/cards/back_of_red_stars.svg"" width=""175px"" height=""250px""></img></td>
  </tr>
  <tr height=200>
    <td width=300><img src=""static/images/keys/z.svg"" width=""35%"" height=""75%""></img></td>
    <td width=300><img src=""static/images/keys/m.svg"" width=""35%"" height=""75%""></img></td>
  </tr>
</table>
  ",,,,,,,,,,,,,,,,,,,,,,,,,,,,
131,0,,html-keyboard-response,131,623517,0.0-4.20-3.20,z4wer4u2jf9,2022-09-19 16:45:04.109,62eecc131c4b40e5a9fdb8c0,1,21,0,77,60,30,Male,,,"<p style=""font-size:50px"">You win!
+10 points this round!</p>",,,,,,,,,,,,,,,,,,,,,,,,,,,,
132,0,,html-keyboard-response,132,624031,0.0-4.20-4.20,z4wer4u2jf9,2022-09-19 16:45:04.109,62eecc131c4b40e5a9fdb8c0,1,21,0,77,60,30,Male,,,,,,1.0,learning,20.0,C,,red,,stars,,,,C,red,stars,,1.0,0.0,NA,left,522.1000000089,6.0,1.0,1.0,,,
133,0,,html-keyboard-response,133,625537,0.0-4.21-0.21,z4wer4u2jf9,2022-09-19 16:45:04.109,62eecc131c4b40e5a9fdb8c0,1,21,0,77,60,30,Male,,,"<img src=""static/images/cards/stack_of_black_stars.svg"" width=""175px"" height=""250px""></img>",,,,,,,,,,,,,,,,,,,,,,,,,,,,
134,0,,html-keyboard-response,134,626585,0.0-4.21-1.21,z4wer4u2jf9,2022-09-19 16:45:04.109,62eecc131c4b40e5a9fdb8c0,1,21,0,77,60,30,Male,532.799999997,,"
  <table>
  <tr height=300>
    <td width=300 height=300><img src=""static/images/cards/back_of_black_stars.svg"" width=""175px"" height=""250px""></img></td>
    <td width=300 height=300><img src=""static/images/cards/back_of_black_stars.svg"" width=""175px"" height=""250px""></img></td>
  </tr>
  <tr height=200>
    <td width=300><img src=""static/images/keys/z.svg"" width=""35%"" height=""75%""></img></td>
    <td width=300></td>
  </tr>
</table>
  ",90.0,1.0,,,,,,,,,,,,,,,,,,,,,,,,,,
135,0,,html-keyboard-response,135,628089,0.0-4.21-2.21,z4wer4u2jf9,2022-09-19 16:45:04.109,62eecc131c4b40e5a9fdb8c0,1,21,0,77,60,30,Male,,,"
  <table>
  <tr height=300>
    <td width=300 height=300><img src=""static/images/cards/8_of_black_stars.svg"" width=""175px"" height=""250px""></img></td>
    <td width=300 height=300><img src=""static/images/cards/back_of_black_stars.svg"" width=""175px"" height=""250px""></img></td>
  </tr>
  <tr height=200>
    <td width=300><img src=""static/images/keys/z.svg"" width=""35%"" height=""75%""></img></td>
    <td width=300></td>
  </tr>
</table>
  ",,,,,,,,,,,,,,,,,,,,,,,,,,,,
136,0,,html-keyboard-response,136,629617,0.0-4.21-3.21,z4wer4u2jf9,2022-09-19 16:45:04.109,62eecc131c4b40e5a9fdb8c0,1,21,0,77,60,30,Male,,,"<p style=""font-size:50px"">You win!
+10 points this round!</p>",,,,,,,,,,,,,,,,,,,,,,,,,,,,
137,0,,html-keyboard-response,137,630135,0.0-4.21-4.21,z4wer4u2jf9,2022-09-19 16:45:04.109,62eecc131c4b40e5a9fdb8c0,1,21,0,77,60,30,Male,,,,,,1.0,learning,21.0,D,,black,,stars,,,,D,black,stars,,0.0,0.0,1,left,532.799999997,8.0,1.0,1.0,,,
138,0,,html-keyboard-response,138,631638,0.0-4.22-0.22,z4wer4u2jf9,2022-09-19 16:45:04.109,62eecc131c4b40e5a9fdb8c0,1,21,0,77,60,30,Male,,,"<img src=""static/images/cards/stack_of_red_bolts.svg"" width=""175px"" height=""250px""></img>",,,,,,,,,,,,,,,,,,,,,,,,,,,,
139,0,,html-keyboard-response,139,632557,0.0-4.22-1.22,z4wer4u2jf9,2022-09-19 16:45:04.109,62eecc131c4b40e5a9fdb8c0,1,21,0,77,60,30,Male,403.400000006,,"
  <table>
  <tr height=300>
    <td width=300 height=300><img src=""static/images/cards/back_of_red_bolts.svg"" width=""175px"" height=""250px""></img></td>
    <td width=300 height=300><img src=""static/images/cards/back_of_red_bolts.svg"" width=""175px"" height=""250px""></img></td>
  </tr>
  <tr height=200>
    <td width=300><img src=""static/images/keys/z.svg"" width=""35%"" height=""75%""></img></td>
    <td width=300><img src=""static/images/keys/m.svg"" width=""35%"" height=""75%""></img></td>
  </tr>
</table>
  ",77.0,1.0,,,,,,,,,,,,,,,,,,,,,,,,,,
140,0,,html-keyboard-response,140,634066,0.0-4.22-2.22,z4wer4u2jf9,2022-09-19 16:45:04.109,62eecc131c4b40e5a9fdb8c0,1,21,0,77,60,30,Male,,,"
  <table>
  <tr height=300>
    <td width=300 height=300><img src=""static/images/cards/back_of_red_bolts.svg"" width=""175px"" height=""250px""></img></td>
    <td width=300 height=300><img src=""static/images/cards/10_of_red_bolts.svg"" width=""175px"" height=""250px""></img></td>
  </tr>
  <tr height=200>
    <td width=300><img src=""static/images/keys/z.svg"" width=""35%"" height=""75%""></img></td>
    <td width=300><img src=""static/images/keys/m.svg"" width=""35%"" height=""75%""></img></td>
  </tr>
</table>
  ",,,,,,,,,,,,,,,,,,,,,,,,,,,,
141,0,,html-keyboard-response,141,635590,0.0-4.22-3.22,z4wer4u2jf9,2022-09-19 16:45:04.109,62eecc131c4b40e5a9fdb8c0,1,21,0,77,60,30,Male,,,"<p style=""font-size:50px"">You win!
+10 points this round!</p>",,,,,,,,,,,,,,,,,,,,,,,,,,,,
142,0,,html-keyboard-response,142,636107,0.0-4.22-4.22,z4wer4u2jf9,2022-09-19 16:45:04.109,62eecc131c4b40e5a9fdb8c0,1,21,0,77,60,30,Male,,,,,,1.0,learning,22.0,Xc,,red,,bolts,,,,Xc,red,bolts,,1.0,0.0,NA,right,403.400000006,10.0,1.0,1.0,,,
143,0,,html-keyboard-response,143,637609,0.0-4.23-0.23,z4wer4u2jf9,2022-09-19 16:45:04.109,62eecc131c4b40e5a9fdb8c0,1,21,0,77,60,30,Male,,,"<img src=""static/images/cards/stack_of_black_bolts.svg"" width=""175px"" height=""250px""></img>",,,,,,,,,,,,,,,,,,,,,,,,,,,,
144,0,,html-keyboard-response,144,638639,0.0-4.23-1.23,z4wer4u2jf9,2022-09-19 16:45:04.109,62eecc131c4b40e5a9fdb8c0,1,21,0,77,60,30,Male,515.8000000119,,"
  <table>
  <tr height=300>
    <td width=300 height=300><img src=""static/images/cards/back_of_black_bolts.svg"" width=""175px"" height=""250px""></img></td>
    <td width=300 height=300><img src=""static/images/cards/back_of_black_bolts.svg"" width=""175px"" height=""250px""></img></td>
  </tr>
  <tr height=200>
    <td width=300><img src=""static/images/keys/z.svg"" width=""35%"" height=""75%""></img></td>
    <td width=300></td>
  </tr>
</table>
  ",90.0,1.0,,,,,,,,,,,,,,,,,,,,,,,,,,
145,0,,html-keyboard-response,145,640146,0.0-4.23-2.23,z4wer4u2jf9,2022-09-19 16:45:04.109,62eecc131c4b40e5a9fdb8c0,1,21,0,77,60,30,Male,,,"
  <table>
  <tr height=300>
    <td width=300 height=300><img src=""static/images/cards/10_of_black_bolts.svg"" width=""175px"" height=""250px""></img></td>
    <td width=300 height=300><img src=""static/images/cards/back_of_black_bolts.svg"" width=""175px"" height=""250px""></img></td>
  </tr>
  <tr height=200>
    <td width=300><img src=""static/images/keys/z.svg"" width=""35%"" height=""75%""></img></td>
    <td width=300></td>
  </tr>
</table>
  ",,,,,,,,,,,,,,,,,,,,,,,,,,,,
146,0,,html-keyboard-response,146,641671,0.0-4.23-3.23,z4wer4u2jf9,2022-09-19 16:45:04.109,62eecc131c4b40e5a9fdb8c0,1,21,0,77,60,30,Male,,,"<p style=""font-size:50px"">You win!
+10 points this round!</p>",,,,,,,,,,,,,,,,,,,,,,,,,,,,
147,0,,html-keyboard-response,147,642190,0.0-4.23-4.23,z4wer4u2jf9,2022-09-19 16:45:04.109,62eecc131c4b40e5a9fdb8c0,1,21,0,77,60,30,Male,,,,,,1.0,learning,23.0,Xnc,,black,,bolts,,,,Xnc,black,bolts,,0.0,0.0,1,left,515.8000000119,10.0,1.0,1.0,,,
148,0,,call-function,148,642193,0.0-5.0,z4wer4u2jf9,2022-09-19 16:45:04.109,62eecc131c4b40e5a9fdb8c0,1,21,0,77,60,30,Male,,,,,,,,,,,,,,,,,,,,,,,,,,,,,,,
149,0,,image-keyboard-response,149,670976,0.0-6.0-0.0,z4wer4u2jf9,2022-09-19 16:45:04.109,62eecc131c4b40e5a9fdb8c0,1,21,0,77,60,30,Male,28782.799999997,,static/images/instructions_CB_1/Slide20.png,39.0,,,,,,,,,,,,,,,,,,,,,,,,,,,
150,0,,image-keyboard-response,150,682508,0.0-6.1-0.1,z4wer4u2jf9,2022-09-19 16:45:04.109,62eecc131c4b40e5a9fdb8c0,1,21,0,77,60,30,Male,11531.700000003,,static/images/instructions_CB_1/Slide21.png,39.0,,,,,,,,,,,,,,,,,,,,,,,,,,,
151,0,,image-keyboard-response,151,688494,0.0-6.2-0.2,z4wer4u2jf9,2022-09-19 16:45:04.109,62eecc131c4b40e5a9fdb8c0,1,21,0,77,60,30,Male,5984.700000003,,static/images/instructions_CB_1/Slide22.png,39.0,,,,,,,,,,,,,,,,,,,,,,,,,,,
152,0,,image-keyboard-response,152,1691466,0.0-6.3-0.3,z4wer4u2jf9,2022-09-19 16:45:04.109,62eecc131c4b40e5a9fdb8c0,1,21,0,77,60,30,Male,1002971.400000006,,static/images/instructions_CB_1/Slide23.png,39.0,,,,,,,,,,,,,,,,,,,,,,,,,,,
153,0,,image-keyboard-response,153,1693542,0.0-6.4-0.4,z4wer4u2jf9,2022-09-19 16:45:04.109,62eecc131c4b40e5a9fdb8c0,1,21,0,77,60,30,Male,2075.400000006,,static/images/instructions_CB_1/Slide24.png,37.0,,,,,,,,,,,,,,,,,,,,,,,,,,,
154,0,,image-keyboard-response,154,1695992,0.0-6.5-0.5,z4wer4u2jf9,2022-09-19 16:45:04.109,62eecc131c4b40e5a9fdb8c0,1,21,0,77,60,30,Male,2449.5,,static/images/instructions_CB_1/Slide23.png,39.0,,,,,,,,,,,,,,,,,,,,,,,,,,,
155,0,,image-keyboard-response,155,1696903,0.0-6.6-0.6,z4wer4u2jf9,2022-09-19 16:45:04.109,62eecc131c4b40e5a9fdb8c0,1,21,0,77,60,30,Male,910.200000003,,static/images/instructions_CB_1/Slide24.png,39.0,,,,,,,,,,,,,,,,,,,,,,,,,,,
156,0,,html-keyboard-response,156,1699080,0.0-7.0-0.0,z4wer4u2jf9,2022-09-19 16:45:04.109,62eecc131c4b40e5a9fdb8c0,1,21,0,77,60,30,Male,2176.0,,"
  <table>
  <tr height=300>
    <td width=300 height=300><img src=""static/images/cards/stack_of_red_stars.svg"" width=""175px"" height=""250px""></img></td>
    <td width=300 height=300><img src=""static/images/cards/stack_of_black_stars.svg"" width=""175px"" height=""250px""></img></td>
  </tr>
  <tr height=200>
    <td width=300><img src=""static/images/keys/w.svg"" width=""35%"" height=""75%""></img></td>
    <td width=300><img src=""static/images/keys/o.svg"" width=""35%"" height=""75%""></img></td>
  </tr>
</table>
  ",87.0,1.0,,,,,,,,,,,,,,,,,,,,,,,,,,
157,0,,html-keyboard-response,157,1700977,0.0-7.0-1.0,z4wer4u2jf9,2022-09-19 16:45:04.109,62eecc131c4b40e5a9fdb8c0,1,21,0,77,60,30,Male,1394.0,,"
  <table>
  <tr height=300>
    <td width=300 height=300><img src=""static/images/cards/back_of_red_stars.svg"" width=""175px"" height=""250px""></img></td>
    <td width=300 height=300><img src=""static/images/cards/back_of_red_stars.svg"" width=""175px"" height=""250px""></img></td>
  </tr>
  <tr height=200>
    <td width=300><img src=""static/images/keys/z.svg"" width=""35%"" height=""75%""></img></td>
    <td width=300><img src=""static/images/keys/m.svg"" width=""35%"" height=""75%""></img></td>
  </tr>
</table>
  ",90.0,1.0,,,,,,,,,,,,,,,,,,,,,,,,,,
158,0,,html-keyboard-response,158,1702492,0.0-7.0-2.0,z4wer4u2jf9,2022-09-19 16:45:04.109,62eecc131c4b40e5a9fdb8c0,1,21,0,77,60,30,Male,,,"
  <table>
  <tr height=300>
    <td width=300 height=300><img src=""static/images/cards/3_of_red_stars.svg"" width=""175px"" height=""250px""></img></td>
    <td width=300 height=300><img src=""static/images/cards/back_of_red_stars.svg"" width=""175px"" height=""250px""></img></td>
  </tr>
  <tr height=200>
    <td width=300><img src=""static/images/keys/z.svg"" width=""35%"" height=""75%""></img></td>
    <td width=300><img src=""static/images/keys/m.svg"" width=""35%"" height=""75%""></img></td>
  </tr>
</table>
  ",,,,,,,,,,,,,,,,,,,,,,,,,,,,
159,0,,html-keyboard-response,159,1704017,0.0-7.0-3.0,z4wer4u2jf9,2022-09-19 16:45:04.109,62eecc131c4b40e5a9fdb8c0,1,21,0,77,60,30,Male,,,"<p style=""font-size:50px"">You win!
+10 points this round!</p>",,,,,,,,,,,,,,,,,,,,,,,,,,,,
160,0,,html-keyboard-response,160,1704534,0.0-7.0-4.0,z4wer4u2jf9,2022-09-19 16:45:04.109,62eecc131c4b40e5a9fdb8c0,1,21,0,77,60,30,Male,,,,,,1.0,choice,0.0,C,D,red,black,stars,stars,C,D,C,red,stars,2176.0,1.0,0.0,NA,left,1394.0,3.0,0.0,1.0,,,
161,0,,html-keyboard-response,161,1706887,0.0-7.1-0.1,z4wer4u2jf9,2022-09-19 16:45:04.109,62eecc131c4b40e5a9fdb8c0,1,21,0,77,60,30,Male,2352.400000006,,"
  <table>
  <tr height=300>
    <td width=300 height=300><img src=""static/images/cards/stack_of_red_moons.svg"" width=""175px"" height=""250px""></img></td>
    <td width=300 height=300><img src=""static/images/cards/stack_of_black_moons.svg"" width=""175px"" height=""250px""></img></td>
  </tr>
  <tr height=200>
    <td width=300><img src=""static/images/keys/w.svg"" width=""35%"" height=""75%""></img></td>
    <td width=300><img src=""static/images/keys/o.svg"" width=""35%"" height=""75%""></img></td>
  </tr>
</table>
  ",79.0,1.0,,,,,,,,,,,,,,,,,,,,,,,,,,
162,0,,html-keyboard-response,162,1708017,0.0-7.1-1.1,z4wer4u2jf9,2022-09-19 16:45:04.109,62eecc131c4b40e5a9fdb8c0,1,21,0,77,60,30,Male,615.0,,"
  <table>
  <tr height=300>
    <td width=300 height=300><img src=""static/images/cards/back_of_black_moons.svg"" width=""175px"" height=""250px""></img></td>
    <td width=300 height=300><img src=""static/images/cards/back_of_black_moons.svg"" width=""175px"" height=""250px""></img></td>
  </tr>
  <tr height=200>
    <td width=300><img src=""static/images/keys/z.svg"" width=""35%"" height=""75%""></img></td>
    <td width=300></td>
  </tr>
</table>
  ",90.0,1.0,,,,,,,,,,,,,,,,,,,,,,,,,,
163,0,,html-keyboard-response,163,1709524,0.0-7.1-2.1,z4wer4u2jf9,2022-09-19 16:45:04.109,62eecc131c4b40e5a9fdb8c0,1,21,0,77,60,30,Male,,,"
  <table>
  <tr height=300>
    <td width=300 height=300><img src=""static/images/cards/3_of_black_moons.svg"" width=""175px"" height=""250px""></img></td>
    <td width=300 height=300><img src=""static/images/cards/back_of_black_moons.svg"" width=""175px"" height=""250px""></img></td>
  </tr>
  <tr height=200>
    <td width=300><img src=""static/images/keys/z.svg"" width=""35%"" height=""75%""></img></td>
    <td width=300></td>
  </tr>
</table>
  ",,,,,,,,,,,,,,,,,,,,,,,,,,,,
164,0,,html-keyboard-response,164,1711047,0.0-7.1-3.1,z4wer4u2jf9,2022-09-19 16:45:04.109,62eecc131c4b40e5a9fdb8c0,1,21,0,77,60,30,Male,,,"<p style=""font-size:50px"">You Lose!
No points this round.</p>",,,,,,,,,,,,,,,,,,,,,,,,,,,,
165,0,,html-keyboard-response,165,1711567,0.0-7.1-4.1,z4wer4u2jf9,2022-09-19 16:45:04.109,62eecc131c4b40e5a9fdb8c0,1,21,0,77,60,30,Male,,,,,,1.0,choice,1.0,A,B,red,black,moons,moons,A,B,B,black,moons,2352.400000006,0.0,1.0,1,left,615.0,3.0,0.0,0.0,,,
166,0,,html-keyboard-response,166,1712517,0.0-7.2-0.2,z4wer4u2jf9,2022-09-19 16:45:04.109,62eecc131c4b40e5a9fdb8c0,1,21,0,77,60,30,Male,950.0,,"
  <table>
  <tr height=300>
    <td width=300 height=300><img src=""static/images/cards/stack_of_black_moons.svg"" width=""175px"" height=""250px""></img></td>
    <td width=300 height=300><img src=""static/images/cards/stack_of_red_stars.svg"" width=""175px"" height=""250px""></img></td>
  </tr>
  <tr height=200>
    <td width=300><img src=""static/images/keys/w.svg"" width=""35%"" height=""75%""></img></td>
    <td width=300><img src=""static/images/keys/o.svg"" width=""35%"" height=""75%""></img></td>
  </tr>
</table>
  ",79.0,1.0,,,,,,,,,,,,,,,,,,,,,,,,,,
167,0,,html-keyboard-response,167,1713931,0.0-7.2-1.2,z4wer4u2jf9,2022-09-19 16:45:04.109,62eecc131c4b40e5a9fdb8c0,1,21,0,77,60,30,Male,903.0,,"
  <table>
  <tr height=300>
    <td width=300 height=300><img src=""static/images/cards/back_of_red_stars.svg"" width=""175px"" height=""250px""></img></td>
    <td width=300 height=300><img src=""static/images/cards/back_of_red_stars.svg"" width=""175px"" height=""250px""></img></td>
  </tr>
  <tr height=200>
    <td width=300><img src=""static/images/keys/z.svg"" width=""35%"" height=""75%""></img></td>
    <td width=300><img src=""static/images/keys/m.svg"" width=""35%"" height=""75%""></img></td>
  </tr>
</table>
  ",77.0,1.0,,,,,,,,,,,,,,,,,,,,,,,,,,
168,0,,html-keyboard-response,168,1715438,0.0-7.2-2.2,z4wer4u2jf9,2022-09-19 16:45:04.109,62eecc131c4b40e5a9fdb8c0,1,21,0,77,60,30,Male,,,"
  <table>
  <tr height=300>
    <td width=300 height=300><img src=""static/images/cards/back_of_red_stars.svg"" width=""175px"" height=""250px""></img></td>
    <td width=300 height=300><img src=""static/images/cards/9_of_red_stars.svg"" width=""175px"" height=""250px""></img></td>
  </tr>
  <tr height=200>
    <td width=300><img src=""static/images/keys/z.svg"" width=""35%"" height=""75%""></img></td>
    <td width=300><img src=""static/images/keys/m.svg"" width=""35%"" height=""75%""></img></td>
  </tr>
</table>
  ",,,,,,,,,,,,,,,,,,,,,,,,,,,,
169,0,,html-keyboard-response,169,1716965,0.0-7.2-3.2,z4wer4u2jf9,2022-09-19 16:45:04.109,62eecc131c4b40e5a9fdb8c0,1,21,0,77,60,30,Male,,,"<p style=""font-size:50px"">You Lose!
No points this round.</p>",,,,,,,,,,,,,,,,,,,,,,,,,,,,
170,0,,html-keyboard-response,170,1717486,0.0-7.2-4.2,z4wer4u2jf9,2022-09-19 16:45:04.109,62eecc131c4b40e5a9fdb8c0,1,21,0,77,60,30,Male,,,,,,1.0,choice,2.0,B,C,black,red,moons,stars,B,C,C,red,stars,950.0,1.0,0.0,NA,right,903.0,9.0,1.0,0.0,,,
171,0,,html-keyboard-response,171,1719090,0.0-7.3-0.3,z4wer4u2jf9,2022-09-19 16:45:04.109,62eecc131c4b40e5a9fdb8c0,1,21,0,77,60,30,Male,1603.6000000089,,"
  <table>
  <tr height=300>
    <td width=300 height=300><img src=""static/images/cards/stack_of_black_stars.svg"" width=""175px"" height=""250px""></img></td>
    <td width=300 height=300><img src=""static/images/cards/stack_of_red_stars.svg"" width=""175px"" height=""250px""></img></td>
  </tr>
  <tr height=200>
    <td width=300><img src=""static/images/keys/w.svg"" width=""35%"" height=""75%""></img></td>
    <td width=300><img src=""static/images/keys/o.svg"" width=""35%"" height=""75%""></img></td>
  </tr>
</table>
  ",87.0,1.0,,,,,,,,,,,,,,,,,,,,,,,,,,
172,0,,html-keyboard-response,172,1720452,0.0-7.3-1.3,z4wer4u2jf9,2022-09-19 16:45:04.109,62eecc131c4b40e5a9fdb8c0,1,21,0,77,60,30,Male,855.599999994,,"
  <table>
  <tr height=300>
    <td width=300 height=300><img src=""static/images/cards/back_of_black_stars.svg"" width=""175px"" height=""250px""></img></td>
    <td width=300 height=300><img src=""static/images/cards/back_of_black_stars.svg"" width=""175px"" height=""250px""></img></td>
  </tr>
  <tr height=200>
    <td width=300><img src=""static/images/keys/z.svg"" width=""35%"" height=""75%""></img></td>
    <td width=300></td>
  </tr>
</table>
  ",90.0,2.0,,,,,,,,,,,,,,,,,,,,,,,,,,
173,0,,html-keyboard-response,173,1721964,0.0-7.3-2.3,z4wer4u2jf9,2022-09-19 16:45:04.109,62eecc131c4b40e5a9fdb8c0,1,21,0,77,60,30,Male,,,"
  <table>
  <tr height=300>
    <td width=300 height=300><img src=""static/images/cards/10_of_black_stars.svg"" width=""175px"" height=""250px""></img></td>
    <td width=300 height=300><img src=""static/images/cards/back_of_black_stars.svg"" width=""175px"" height=""250px""></img></td>
  </tr>
  <tr height=200>
    <td width=300><img src=""static/images/keys/z.svg"" width=""35%"" height=""75%""></img></td>
    <td width=300></td>
  </tr>
</table>
  ",,,,,,,,,,,,,,,,,,,,,,,,,,,,
174,0,,html-keyboard-response,174,1723483,0.0-7.3-3.3,z4wer4u2jf9,2022-09-19 16:45:04.109,62eecc131c4b40e5a9fdb8c0,1,21,0,77,60,30,Male,,,"<p style=""font-size:50px"">You win!
+10 points this round!</p>",,,,,,,,,,,,,,,,,,,,,,,,,,,,
175,0,,html-keyboard-response,175,1724003,0.0-7.3-4.3,z4wer4u2jf9,2022-09-19 16:45:04.109,62eecc131c4b40e5a9fdb8c0,1,21,0,77,60,30,Male,,,,,,1.0,choice,3.0,C,D,black,red,stars,stars,D,C,D,black,stars,1603.6000000089,0.0,0.0,1,left,855.599999994,10.0,1.0,1.0,,,
176,0,,html-keyboard-response,176,1725823,0.0-7.4-0.4,z4wer4u2jf9,2022-09-19 16:45:04.109,62eecc131c4b40e5a9fdb8c0,1,21,0,77,60,30,Male,1818.200000003,,"
  <table>
  <tr height=300>
    <td width=300 height=300><img src=""static/images/cards/stack_of_black_stars.svg"" width=""175px"" height=""250px""></img></td>
    <td width=300 height=300><img src=""static/images/cards/stack_of_red_moons.svg"" width=""175px"" height=""250px""></img></td>
  </tr>
  <tr height=200>
    <td width=300><img src=""static/images/keys/w.svg"" width=""35%"" height=""75%""></img></td>
    <td width=300><img src=""static/images/keys/o.svg"" width=""35%"" height=""75%""></img></td>
  </tr>
</table>
  ",87.0,1.0,,,,,,,,,,,,,,,,,,,,,,,,,,
177,0,,html-keyboard-response,177,1727174,0.0-7.4-1.4,z4wer4u2jf9,2022-09-19 16:45:04.109,62eecc131c4b40e5a9fdb8c0,1,21,0,77,60,30,Male,839.299999997,,"
  <table>
  <tr height=300>
    <td width=300 height=300><img src=""static/images/cards/back_of_black_stars.svg"" width=""175px"" height=""250px""></img></td>
    <td width=300 height=300><img src=""static/images/cards/back_of_black_stars.svg"" width=""175px"" height=""250px""></img></td>
  </tr>
  <tr height=200>
    <td width=300></td>
    <td width=300><img src=""static/images/keys/m.svg"" width=""35%"" height=""75%""></img></td>
  </tr>
</table>
  ",77.0,2.0,,,,,,,,,,,,,,,,,,,,,,,,,,
178,0,,html-keyboard-response,178,1728677,0.0-7.4-2.4,z4wer4u2jf9,2022-09-19 16:45:04.109,62eecc131c4b40e5a9fdb8c0,1,21,0,77,60,30,Male,,,"
  <table>
  <tr height=300>
    <td width=300 height=300><img src=""static/images/cards/back_of_black_stars.svg"" width=""175px"" height=""250px""></img></td>
    <td width=300 height=300><img src=""static/images/cards/4_of_black_stars.svg"" width=""175px"" height=""250px""></img></td>
  </tr>
  <tr height=200>
    <td width=300></td>
    <td width=300><img src=""static/images/keys/m.svg"" width=""35%"" height=""75%""></img></td>
  </tr>
</table>
  ",,,,,,,,,,,,,,,,,,,,,,,,,,,,
179,0,,html-keyboard-response,179,1730199,0.0-7.4-3.4,z4wer4u2jf9,2022-09-19 16:45:04.109,62eecc131c4b40e5a9fdb8c0,1,21,0,77,60,30,Male,,,"<p style=""font-size:50px"">You win!
+10 points this round!</p>",,,,,,,,,,,,,,,,,,,,,,,,,,,,
180,0,,html-keyboard-response,180,1730717,0.0-7.4-4.4,z4wer4u2jf9,2022-09-19 16:45:04.109,62eecc131c4b40e5a9fdb8c0,1,21,0,77,60,30,Male,,,,,,1.0,choice,4.0,A,D,black,red,stars,moons,D,A,D,black,stars,1818.200000003,0.0,0.0,0,right,839.299999997,4.0,0.0,1.0,,,
181,0,,html-keyboard-response,181,1731692,0.0-7.5-0.5,z4wer4u2jf9,2022-09-19 16:45:04.109,62eecc131c4b40e5a9fdb8c0,1,21,0,77,60,30,Male,973.900000006,,"
  <table>
  <tr height=300>
    <td width=300 height=300><img src=""static/images/cards/stack_of_red_stars.svg"" width=""175px"" height=""250px""></img></td>
    <td width=300 height=300><img src=""static/images/cards/stack_of_black_moons.svg"" width=""175px"" height=""250px""></img></td>
  </tr>
  <tr height=200>
    <td width=300><img src=""static/images/keys/w.svg"" width=""35%"" height=""75%""></img></td>
    <td width=300><img src=""static/images/keys/o.svg"" width=""35%"" height=""75%""></img></td>
  </tr>
</table>
  ",87.0,1.0,,,,,,,,,,,,,,,,,,,,,,,,,,
182,0,,html-keyboard-response,182,1732933,0.0-7.5-1.5,z4wer4u2jf9,2022-09-19 16:45:04.109,62eecc131c4b40e5a9fdb8c0,1,21,0,77,60,30,Male,732.099999994,,"
  <table>
  <tr height=300>
    <td width=300 height=300><img src=""static/images/cards/back_of_red_stars.svg"" width=""175px"" height=""250px""></img></td>
    <td width=300 height=300><img src=""static/images/cards/back_of_red_stars.svg"" width=""175px"" height=""250px""></img></td>
  </tr>
  <tr height=200>
    <td width=300><img src=""static/images/keys/z.svg"" width=""35%"" height=""75%""></img></td>
    <td width=300><img src=""static/images/keys/m.svg"" width=""35%"" height=""75%""></img></td>
  </tr>
</table>
  ",90.0,1.0,,,,,,,,,,,,,,,,,,,,,,,,,,
183,0,,html-keyboard-response,183,1734439,0.0-7.5-2.5,z4wer4u2jf9,2022-09-19 16:45:04.109,62eecc131c4b40e5a9fdb8c0,1,21,0,77,60,30,Male,,,"
  <table>
  <tr height=300>
    <td width=300 height=300><img src=""static/images/cards/10_of_red_stars.svg"" width=""175px"" height=""250px""></img></td>
    <td width=300 height=300><img src=""static/images/cards/back_of_red_stars.svg"" width=""175px"" height=""250px""></img></td>
  </tr>
  <tr height=200>
    <td width=300><img src=""static/images/keys/z.svg"" width=""35%"" height=""75%""></img></td>
    <td width=300><img src=""static/images/keys/m.svg"" width=""35%"" height=""75%""></img></td>
  </tr>
</table>
  ",,,,,,,,,,,,,,,,,,,,,,,,,,,,
184,0,,html-keyboard-response,184,1735959,0.0-7.5-3.5,z4wer4u2jf9,2022-09-19 16:45:04.109,62eecc131c4b40e5a9fdb8c0,1,21,0,77,60,30,Male,,,"<p style=""font-size:50px"">You Lose!
No points this round.</p>",,,,,,,,,,,,,,,,,,,,,,,,,,,,
185,0,,html-keyboard-response,185,1736478,0.0-7.5-4.5,z4wer4u2jf9,2022-09-19 16:45:04.109,62eecc131c4b40e5a9fdb8c0,1,21,0,77,60,30,Male,,,,,,1.0,choice,5.0,B,C,red,black,stars,moons,C,B,C,red,stars,973.900000006,1.0,0.0,NA,left,732.099999994,10.0,1.0,0.0,,,
186,0,,html-keyboard-response,186,1737542,0.0-7.6-0.6,z4wer4u2jf9,2022-09-19 16:45:04.109,62eecc131c4b40e5a9fdb8c0,1,21,0,77,60,30,Male,1063.5,,"
  <table>
  <tr height=300>
    <td width=300 height=300><img src=""static/images/cards/stack_of_black_stars.svg"" width=""175px"" height=""250px""></img></td>
    <td width=300 height=300><img src=""static/images/cards/stack_of_black_moons.svg"" width=""175px"" height=""250px""></img></td>
  </tr>
  <tr height=200>
    <td width=300><img src=""static/images/keys/w.svg"" width=""35%"" height=""75%""></img></td>
    <td width=300><img src=""static/images/keys/o.svg"" width=""35%"" height=""75%""></img></td>
  </tr>
</table>
  ",87.0,1.0,,,,,,,,,,,,,,,,,,,,,,,,,,
187,0,,html-keyboard-response,187,1738664,0.0-7.6-1.6,z4wer4u2jf9,2022-09-19 16:45:04.109,62eecc131c4b40e5a9fdb8c0,1,21,0,77,60,30,Male,617.5,,"
  <table>
  <tr height=300>
    <td width=300 height=300><img src=""static/images/cards/back_of_black_stars.svg"" width=""175px"" height=""250px""></img></td>
    <td width=300 height=300><img src=""static/images/cards/back_of_black_stars.svg"" width=""175px"" height=""250px""></img></td>
  </tr>
  <tr height=200>
    <td width=300><img src=""static/images/keys/z.svg"" width=""35%"" height=""75%""></img></td>
    <td width=300></td>
  </tr>
</table>
  ",90.0,1.0,,,,,,,,,,,,,,,,,,,,,,,,,,
188,0,,html-keyboard-response,188,1740170,0.0-7.6-2.6,z4wer4u2jf9,2022-09-19 16:45:04.109,62eecc131c4b40e5a9fdb8c0,1,21,0,77,60,30,Male,,,"
  <table>
  <tr height=300>
    <td width=300 height=300><img src=""static/images/cards/9_of_black_stars.svg"" width=""175px"" height=""250px""></img></td>
    <td width=300 height=300><img src=""static/images/cards/back_of_black_stars.svg"" width=""175px"" height=""250px""></img></td>
  </tr>
  <tr height=200>
    <td width=300><img src=""static/images/keys/z.svg"" width=""35%"" height=""75%""></img></td>
    <td width=300></td>
  </tr>
</table>
  ",,,,,,,,,,,,,,,,,,,,,,,,,,,,
189,0,,html-keyboard-response,189,1741695,0.0-7.6-3.6,z4wer4u2jf9,2022-09-19 16:45:04.109,62eecc131c4b40e5a9fdb8c0,1,21,0,77,60,30,Male,,,"<p style=""font-size:50px"">You Lose!
No points this round.</p>",,,,,,,,,,,,,,,,,,,,,,,,,,,,
190,0,,html-keyboard-response,190,1742208,0.0-7.6-4.6,z4wer4u2jf9,2022-09-19 16:45:04.109,62eecc131c4b40e5a9fdb8c0,1,21,0,77,60,30,Male,,,,,,1.0,choice,6.0,B,D,black,black,stars,moons,D,B,D,black,stars,1063.5,0.0,0.0,1,left,617.5,9.0,1.0,0.0,,,
191,0,,html-keyboard-response,191,1743700,0.0-7.7-0.7,z4wer4u2jf9,2022-09-19 16:45:04.109,62eecc131c4b40e5a9fdb8c0,1,21,0,77,60,30,Male,1490.799999997,,"
  <table>
  <tr height=300>
    <td width=300 height=300><img src=""static/images/cards/stack_of_red_stars.svg"" width=""175px"" height=""250px""></img></td>
    <td width=300 height=300><img src=""static/images/cards/stack_of_red_moons.svg"" width=""175px"" height=""250px""></img></td>
  </tr>
  <tr height=200>
    <td width=300><img src=""static/images/keys/w.svg"" width=""35%"" height=""75%""></img></td>
    <td width=300><img src=""static/images/keys/o.svg"" width=""35%"" height=""75%""></img></td>
  </tr>
</table>
  ",87.0,1.0,,,,,,,,,,,,,,,,,,,,,,,,,,
192,0,,html-keyboard-response,192,1744812,0.0-7.7-1.7,z4wer4u2jf9,2022-09-19 16:45:04.109,62eecc131c4b40e5a9fdb8c0,1,21,0,77,60,30,Male,602.0,,"
  <table>
  <tr height=300>
    <td width=300 height=300><img src=""static/images/cards/back_of_red_stars.svg"" width=""175px"" height=""250px""></img></td>
    <td width=300 height=300><img src=""static/images/cards/back_of_red_stars.svg"" width=""175px"" height=""250px""></img></td>
  </tr>
  <tr height=200>
    <td width=300><img src=""static/images/keys/z.svg"" width=""35%"" height=""75%""></img></td>
    <td width=300><img src=""static/images/keys/m.svg"" width=""35%"" height=""75%""></img></td>
  </tr>
</table>
  ",77.0,1.0,,,,,,,,,,,,,,,,,,,,,,,,,,
193,0,,html-keyboard-response,193,1746325,0.0-7.7-2.7,z4wer4u2jf9,2022-09-19 16:45:04.109,62eecc131c4b40e5a9fdb8c0,1,21,0,77,60,30,Male,,,"
  <table>
  <tr height=300>
    <td width=300 height=300><img src=""static/images/cards/back_of_red_stars.svg"" width=""175px"" height=""250px""></img></td>
    <td width=300 height=300><img src=""static/images/cards/6_of_red_stars.svg"" width=""175px"" height=""250px""></img></td>
  </tr>
  <tr height=200>
    <td width=300><img src=""static/images/keys/z.svg"" width=""35%"" height=""75%""></img></td>
    <td width=300><img src=""static/images/keys/m.svg"" width=""35%"" height=""75%""></img></td>
  </tr>
</table>
  ",,,,,,,,,,,,,,,,,,,,,,,,,,,,
194,0,,html-keyboard-response,194,1747837,0.0-7.7-3.7,z4wer4u2jf9,2022-09-19 16:45:04.109,62eecc131c4b40e5a9fdb8c0,1,21,0,77,60,30,Male,,,"<p style=""font-size:50px"">You Lose!
No points this round.</p>",,,,,,,,,,,,,,,,,,,,,,,,,,,,
195,0,,html-keyboard-response,195,1748355,0.0-7.7-4.7,z4wer4u2jf9,2022-09-19 16:45:04.109,62eecc131c4b40e5a9fdb8c0,1,21,0,77,60,30,Male,,,,,,1.0,choice,7.0,A,C,red,red,stars,moons,C,A,C,red,stars,1490.799999997,1.0,0.0,NA,right,602.0,6.0,1.0,0.0,,,
196,0,,html-keyboard-response,196,1749723,0.0-7.8-0.8,z4wer4u2jf9,2022-09-19 16:45:04.109,62eecc131c4b40e5a9fdb8c0,1,21,0,77,60,30,Male,1367.099999994,,"
  <table>
  <tr height=300>
    <td width=300 height=300><img src=""static/images/cards/stack_of_red_moons.svg"" width=""175px"" height=""250px""></img></td>
    <td width=300 height=300><img src=""static/images/cards/stack_of_red_stars.svg"" width=""175px"" height=""250px""></img></td>
  </tr>
  <tr height=200>
    <td width=300><img src=""static/images/keys/w.svg"" width=""35%"" height=""75%""></img></td>
    <td width=300><img src=""static/images/keys/o.svg"" width=""35%"" height=""75%""></img></td>
  </tr>
</table>
  ",79.0,1.0,,,,,,,,,,,,,,,,,,,,,,,,,,
197,0,,html-keyboard-response,197,1751343,0.0-7.8-1.8,z4wer4u2jf9,2022-09-19 16:45:04.109,62eecc131c4b40e5a9fdb8c0,1,21,0,77,60,30,Male,1107.8999999911,,"
  <table>
  <tr height=300>
    <td width=300 height=300><img src=""static/images/cards/back_of_red_stars.svg"" width=""175px"" height=""250px""></img></td>
    <td width=300 height=300><img src=""static/images/cards/back_of_red_stars.svg"" width=""175px"" height=""250px""></img></td>
  </tr>
  <tr height=200>
    <td width=300><img src=""static/images/keys/z.svg"" width=""35%"" height=""75%""></img></td>
    <td width=300><img src=""static/images/keys/m.svg"" width=""35%"" height=""75%""></img></td>
  </tr>
</table>
  ",90.0,1.0,,,,,,,,,,,,,,,,,,,,,,,,,,
198,0,,html-keyboard-response,198,1752851,0.0-7.8-2.8,z4wer4u2jf9,2022-09-19 16:45:04.109,62eecc131c4b40e5a9fdb8c0,1,21,0,77,60,30,Male,,,"
  <table>
  <tr height=300>
    <td width=300 height=300><img src=""static/images/cards/6_of_red_stars.svg"" width=""175px"" height=""250px""></img></td>
    <td width=300 height=300><img src=""static/images/cards/back_of_red_stars.svg"" width=""175px"" height=""250px""></img></td>
  </tr>
  <tr height=200>
    <td width=300><img src=""static/images/keys/z.svg"" width=""35%"" height=""75%""></img></td>
    <td width=300><img src=""static/images/keys/m.svg"" width=""35%"" height=""75%""></img></td>
  </tr>
</table>
  ",,,,,,,,,,,,,,,,,,,,,,,,,,,,
199,0,,html-keyboard-response,199,1754374,0.0-7.8-3.8,z4wer4u2jf9,2022-09-19 16:45:04.109,62eecc131c4b40e5a9fdb8c0,1,21,0,77,60,30,Male,,,"<p style=""font-size:50px"">You Lose!
No points this round.</p>",,,,,,,,,,,,,,,,,,,,,,,,,,,,
200,0,,html-keyboard-response,200,1754890,0.0-7.8-4.8,z4wer4u2jf9,2022-09-19 16:45:04.109,62eecc131c4b40e5a9fdb8c0,1,21,0,77,60,30,Male,,,,,,1.0,choice,8.0,A,C,red,red,moons,stars,A,C,C,red,stars,1367.099999994,1.0,0.0,NA,left,1107.8999999911,6.0,1.0,0.0,,,
201,0,,html-keyboard-response,201,1756115,0.0-7.9-0.9,z4wer4u2jf9,2022-09-19 16:45:04.109,62eecc131c4b40e5a9fdb8c0,1,21,0,77,60,30,Male,1225.0,,"
  <table>
  <tr height=300>
    <td width=300 height=300><img src=""static/images/cards/stack_of_red_moons.svg"" width=""175px"" height=""250px""></img></td>
    <td width=300 height=300><img src=""static/images/cards/stack_of_black_moons.svg"" width=""175px"" height=""250px""></img></td>
  </tr>
  <tr height=200>
    <td width=300><img src=""static/images/keys/w.svg"" width=""35%"" height=""75%""></img></td>
    <td width=300><img src=""static/images/keys/o.svg"" width=""35%"" height=""75%""></img></td>
  </tr>
</table>
  ",87.0,1.0,,,,,,,,,,,,,,,,,,,,,,,,,,
202,0,,html-keyboard-response,202,1757424,0.0-7.9-1.9,z4wer4u2jf9,2022-09-19 16:45:04.109,62eecc131c4b40e5a9fdb8c0,1,21,0,77,60,30,Male,795.5,,"
  <table>
  <tr height=300>
    <td width=300 height=300><img src=""static/images/cards/back_of_red_moons.svg"" width=""175px"" height=""250px""></img></td>
    <td width=300 height=300><img src=""static/images/cards/back_of_red_moons.svg"" width=""175px"" height=""250px""></img></td>
  </tr>
  <tr height=200>
    <td width=300><img src=""static/images/keys/z.svg"" width=""35%"" height=""75%""></img></td>
    <td width=300><img src=""static/images/keys/m.svg"" width=""35%"" height=""75%""></img></td>
  </tr>
</table>
  ",77.0,1.0,,,,,,,,,,,,,,,,,,,,,,,,,,
203,0,,html-keyboard-response,203,1758932,0.0-7.9-2.9,z4wer4u2jf9,2022-09-19 16:45:04.109,62eecc131c4b40e5a9fdb8c0,1,21,0,77,60,30,Male,,,"
  <table>
  <tr height=300>
    <td width=300 height=300><img src=""static/images/cards/back_of_red_moons.svg"" width=""175px"" height=""250px""></img></td>
    <td width=300 height=300><img src=""static/images/cards/10_of_red_moons.svg"" width=""175px"" height=""250px""></img></td>
  </tr>
  <tr height=200>
    <td width=300><img src=""static/images/keys/z.svg"" width=""35%"" height=""75%""></img></td>
    <td width=300><img src=""static/images/keys/m.svg"" width=""35%"" height=""75%""></img></td>
  </tr>
</table>
  ",,,,,,,,,,,,,,,,,,,,,,,,,,,,
204,0,,html-keyboard-response,204,1760453,0.0-7.9-3.9,z4wer4u2jf9,2022-09-19 16:45:04.109,62eecc131c4b40e5a9fdb8c0,1,21,0,77,60,30,Male,,,"<p style=""font-size:50px"">You win!
+10 points this round!</p>",,,,,,,,,,,,,,,,,,,,,,,,,,,,
205,0,,html-keyboard-response,205,1760970,0.0-7.9-4.9,z4wer4u2jf9,2022-09-19 16:45:04.109,62eecc131c4b40e5a9fdb8c0,1,21,0,77,60,30,Male,,,,,,1.0,choice,9.0,A,B,red,black,moons,moons,A,B,A,red,moons,1225.0,1.0,1.0,NA,right,795.5,10.0,1.0,1.0,,,
206,0,,html-keyboard-response,206,1762670,0.0-7.10-0.10,z4wer4u2jf9,2022-09-19 16:45:04.109,62eecc131c4b40e5a9fdb8c0,1,21,0,77,60,30,Male,1699.799999997,,"
  <table>
  <tr height=300>
    <td width=300 height=300><img src=""static/images/cards/stack_of_black_stars.svg"" width=""175px"" height=""250px""></img></td>
    <td width=300 height=300><img src=""static/images/cards/stack_of_red_moons.svg"" width=""175px"" height=""250px""></img></td>
  </tr>
  <tr height=200>
    <td width=300><img src=""static/images/keys/w.svg"" width=""35%"" height=""75%""></img></td>
    <td width=300><img src=""static/images/keys/o.svg"" width=""35%"" height=""75%""></img></td>
  </tr>
</table>
  ",87.0,1.0,,,,,,,,,,,,,,,,,,,,,,,,,,
207,0,,html-keyboard-response,207,1763680,0.0-7.10-1.10,z4wer4u2jf9,2022-09-19 16:45:04.109,62eecc131c4b40e5a9fdb8c0,1,21,0,77,60,30,Male,505.200000003,,"
  <table>
  <tr height=300>
    <td width=300 height=300><img src=""static/images/cards/back_of_black_stars.svg"" width=""175px"" height=""250px""></img></td>
    <td width=300 height=300><img src=""static/images/cards/back_of_black_stars.svg"" width=""175px"" height=""250px""></img></td>
  </tr>
  <tr height=200>
    <td width=300><img src=""static/images/keys/z.svg"" width=""35%"" height=""75%""></img></td>
    <td width=300></td>
  </tr>
</table>
  ",90.0,1.0,,,,,,,,,,,,,,,,,,,,,,,,,,
208,0,,html-keyboard-response,208,1765197,0.0-7.10-2.10,z4wer4u2jf9,2022-09-19 16:45:04.109,62eecc131c4b40e5a9fdb8c0,1,21,0,77,60,30,Male,,,"
  <table>
  <tr height=300>
    <td width=300 height=300><img src=""static/images/cards/1_of_black_stars.svg"" width=""175px"" height=""250px""></img></td>
    <td width=300 height=300><img src=""static/images/cards/back_of_black_stars.svg"" width=""175px"" height=""250px""></img></td>
  </tr>
  <tr height=200>
    <td width=300><img src=""static/images/keys/z.svg"" width=""35%"" height=""75%""></img></td>
    <td width=300></td>
  </tr>
</table>
  ",,,,,,,,,,,,,,,,,,,,,,,,,,,,
209,0,,html-keyboard-response,209,1766723,0.0-7.10-3.10,z4wer4u2jf9,2022-09-19 16:45:04.109,62eecc131c4b40e5a9fdb8c0,1,21,0,77,60,30,Male,,,"<p style=""font-size:50px"">You Lose!
No points this round.</p>",,,,,,,,,,,,,,,,,,,,,,,,,,,,
210,0,,html-keyboard-response,210,1767239,0.0-7.10-4.10,z4wer4u2jf9,2022-09-19 16:45:04.109,62eecc131c4b40e5a9fdb8c0,1,21,0,77,60,30,Male,,,,,,1.0,choice,10.0,A,D,black,red,stars,moons,D,A,D,black,stars,1699.799999997,0.0,0.0,1,left,505.200000003,1.0,0.0,0.0,,,
211,0,,html-keyboard-response,211,1769016,0.0-7.11-0.11,z4wer4u2jf9,2022-09-19 16:45:04.109,62eecc131c4b40e5a9fdb8c0,1,21,0,77,60,30,Male,1776.1000000089,,"
  <table>
  <tr height=300>
    <td width=300 height=300><img src=""static/images/cards/stack_of_black_stars.svg"" width=""175px"" height=""250px""></img></td>
    <td width=300 height=300><img src=""static/images/cards/stack_of_red_moons.svg"" width=""175px"" height=""250px""></img></td>
  </tr>
  <tr height=200>
    <td width=300><img src=""static/images/keys/w.svg"" width=""35%"" height=""75%""></img></td>
    <td width=300><img src=""static/images/keys/o.svg"" width=""35%"" height=""75%""></img></td>
  </tr>
</table>
  ",79.0,1.0,,,,,,,,,,,,,,,,,,,,,,,,,,
212,0,,html-keyboard-response,212,1770459,0.0-7.11-1.11,z4wer4u2jf9,2022-09-19 16:45:04.109,62eecc131c4b40e5a9fdb8c0,1,21,0,77,60,30,Male,930.099999994,,"
  <table>
  <tr height=300>
    <td width=300 height=300><img src=""static/images/cards/back_of_red_moons.svg"" width=""175px"" height=""250px""></img></td>
    <td width=300 height=300><img src=""static/images/cards/back_of_red_moons.svg"" width=""175px"" height=""250px""></img></td>
  </tr>
  <tr height=200>
    <td width=300><img src=""static/images/keys/z.svg"" width=""35%"" height=""75%""></img></td>
    <td width=300><img src=""static/images/keys/m.svg"" width=""35%"" height=""75%""></img></td>
  </tr>
</table>
  ",90.0,1.0,,,,,,,,,,,,,,,,,,,,,,,,,,
213,0,,html-keyboard-response,213,1771969,0.0-7.11-2.11,z4wer4u2jf9,2022-09-19 16:45:04.109,62eecc131c4b40e5a9fdb8c0,1,21,0,77,60,30,Male,,,"
  <table>
  <tr height=300>
    <td width=300 height=300><img src=""static/images/cards/3_of_red_moons.svg"" width=""175px"" height=""250px""></img></td>
    <td width=300 height=300><img src=""static/images/cards/back_of_red_moons.svg"" width=""175px"" height=""250px""></img></td>
  </tr>
  <tr height=200>
    <td width=300><img src=""static/images/keys/z.svg"" width=""35%"" height=""75%""></img></td>
    <td width=300><img src=""static/images/keys/m.svg"" width=""35%"" height=""75%""></img></td>
  </tr>
</table>
  ",,,,,,,,,,,,,,,,,,,,,,,,,,,,
214,0,,html-keyboard-response,214,1773496,0.0-7.11-3.11,z4wer4u2jf9,2022-09-19 16:45:04.109,62eecc131c4b40e5a9fdb8c0,1,21,0,77,60,30,Male,,,"<p style=""font-size:50px"">You Lose!
No points this round.</p>",,,,,,,,,,,,,,,,,,,,,,,,,,,,
215,0,,html-keyboard-response,215,1774014,0.0-7.11-4.11,z4wer4u2jf9,2022-09-19 16:45:04.109,62eecc131c4b40e5a9fdb8c0,1,21,0,77,60,30,Male,,,,,,1.0,choice,11.0,A,D,black,red,stars,moons,D,A,A,red,moons,1776.1000000089,1.0,1.0,NA,left,930.099999994,3.0,0.0,0.0,,,
216,0,,html-keyboard-response,216,1775137,0.0-7.12-0.12,z4wer4u2jf9,2022-09-19 16:45:04.109,62eecc131c4b40e5a9fdb8c0,1,21,0,77,60,30,Male,1122.5,,"
  <table>
  <tr height=300>
    <td width=300 height=300><img src=""static/images/cards/stack_of_black_stars.svg"" width=""175px"" height=""250px""></img></td>
    <td width=300 height=300><img src=""static/images/cards/stack_of_black_moons.svg"" width=""175px"" height=""250px""></img></td>
  </tr>
  <tr height=200>
    <td width=300><img src=""static/images/keys/w.svg"" width=""35%"" height=""75%""></img></td>
    <td width=300><img src=""static/images/keys/o.svg"" width=""35%"" height=""75%""></img></td>
  </tr>
</table>
  ",87.0,1.0,,,,,,,,,,,,,,,,,,,,,,,,,,
217,0,,html-keyboard-response,217,1776081,0.0-7.12-1.12,z4wer4u2jf9,2022-09-19 16:45:04.109,62eecc131c4b40e5a9fdb8c0,1,21,0,77,60,30,Male,438.0,,"
  <table>
  <tr height=300>
    <td width=300 height=300><img src=""static/images/cards/back_of_black_stars.svg"" width=""175px"" height=""250px""></img></td>
    <td width=300 height=300><img src=""static/images/cards/back_of_black_stars.svg"" width=""175px"" height=""250px""></img></td>
  </tr>
  <tr height=200>
    <td width=300></td>
    <td width=300><img src=""static/images/keys/m.svg"" width=""35%"" height=""75%""></img></td>
  </tr>
</table>
  ",77.0,1.0,,,,,,,,,,,,,,,,,,,,,,,,,,
218,0,,html-keyboard-response,218,1777590,0.0-7.12-2.12,z4wer4u2jf9,2022-09-19 16:45:04.109,62eecc131c4b40e5a9fdb8c0,1,21,0,77,60,30,Male,,,"
  <table>
  <tr height=300>
    <td width=300 height=300><img src=""static/images/cards/back_of_black_stars.svg"" width=""175px"" height=""250px""></img></td>
    <td width=300 height=300><img src=""static/images/cards/4_of_black_stars.svg"" width=""175px"" height=""250px""></img></td>
  </tr>
  <tr height=200>
    <td width=300></td>
    <td width=300><img src=""static/images/keys/m.svg"" width=""35%"" height=""75%""></img></td>
  </tr>
</table>
  ",,,,,,,,,,,,,,,,,,,,,,,,,,,,
219,0,,html-keyboard-response,219,1779092,0.0-7.12-3.12,z4wer4u2jf9,2022-09-19 16:45:04.109,62eecc131c4b40e5a9fdb8c0,1,21,0,77,60,30,Male,,,"<p style=""font-size:50px"">You Lose!
No points this round.</p>",,,,,,,,,,,,,,,,,,,,,,,,,,,,
220,0,,html-keyboard-response,220,1779607,0.0-7.12-4.12,z4wer4u2jf9,2022-09-19 16:45:04.109,62eecc131c4b40e5a9fdb8c0,1,21,0,77,60,30,Male,,,,,,1.0,choice,12.0,B,D,black,black,stars,moons,D,B,D,black,stars,1122.5,0.0,0.0,0,right,438.0,4.0,0.0,0.0,,,
221,0,,html-keyboard-response,221,1780994,0.0-7.13-0.13,z4wer4u2jf9,2022-09-19 16:45:04.109,62eecc131c4b40e5a9fdb8c0,1,21,0,77,60,30,Male,1386.799999997,,"
  <table>
  <tr height=300>
    <td width=300 height=300><img src=""static/images/cards/stack_of_black_stars.svg"" width=""175px"" height=""250px""></img></td>
    <td width=300 height=300><img src=""static/images/cards/stack_of_red_stars.svg"" width=""175px"" height=""250px""></img></td>
  </tr>
  <tr height=200>
    <td width=300><img src=""static/images/keys/w.svg"" width=""35%"" height=""75%""></img></td>
    <td width=300><img src=""static/images/keys/o.svg"" width=""35%"" height=""75%""></img></td>
  </tr>
</table>
  ",79.0,1.0,,,,,,,,,,,,,,,,,,,,,,,,,,
222,0,,html-keyboard-response,222,1782048,0.0-7.13-1.13,z4wer4u2jf9,2022-09-19 16:45:04.109,62eecc131c4b40e5a9fdb8c0,1,21,0,77,60,30,Male,548.3999999911,,"
  <table>
  <tr height=300>
    <td width=300 height=300><img src=""static/images/cards/back_of_red_stars.svg"" width=""175px"" height=""250px""></img></td>
    <td width=300 height=300><img src=""static/images/cards/back_of_red_stars.svg"" width=""175px"" height=""250px""></img></td>
  </tr>
  <tr height=200>
    <td width=300><img src=""static/images/keys/z.svg"" width=""35%"" height=""75%""></img></td>
    <td width=300><img src=""static/images/keys/m.svg"" width=""35%"" height=""75%""></img></td>
  </tr>
</table>
  ",77.0,1.0,,,,,,,,,,,,,,,,,,,,,,,,,,
223,0,,html-keyboard-response,223,1783553,0.0-7.13-2.13,z4wer4u2jf9,2022-09-19 16:45:04.109,62eecc131c4b40e5a9fdb8c0,1,21,0,77,60,30,Male,,,"
  <table>
  <tr height=300>
    <td width=300 height=300><img src=""static/images/cards/back_of_red_stars.svg"" width=""175px"" height=""250px""></img></td>
    <td width=300 height=300><img src=""static/images/cards/7_of_red_stars.svg"" width=""175px"" height=""250px""></img></td>
  </tr>
  <tr height=200>
    <td width=300><img src=""static/images/keys/z.svg"" width=""35%"" height=""75%""></img></td>
    <td width=300><img src=""static/images/keys/m.svg"" width=""35%"" height=""75%""></img></td>
  </tr>
</table>
  ",,,,,,,,,,,,,,,,,,,,,,,,,,,,
224,0,,html-keyboard-response,224,1785075,0.0-7.13-3.13,z4wer4u2jf9,2022-09-19 16:45:04.109,62eecc131c4b40e5a9fdb8c0,1,21,0,77,60,30,Male,,,"<p style=""font-size:50px"">You win!
+10 points this round!</p>",,,,,,,,,,,,,,,,,,,,,,,,,,,,
225,0,,html-keyboard-response,225,1785590,0.0-7.13-4.13,z4wer4u2jf9,2022-09-19 16:45:04.109,62eecc131c4b40e5a9fdb8c0,1,21,0,77,60,30,Male,,,,,,1.0,choice,13.0,C,D,black,red,stars,stars,D,C,C,red,stars,1386.799999997,1.0,0.0,NA,right,548.3999999911,7.0,1.0,1.0,,,
226,0,,html-keyboard-response,226,1786827,0.0-7.14-0.14,z4wer4u2jf9,2022-09-19 16:45:04.109,62eecc131c4b40e5a9fdb8c0,1,21,0,77,60,30,Male,1235.6999999881,,"
  <table>
  <tr height=300>
    <td width=300 height=300><img src=""static/images/cards/stack_of_black_moons.svg"" width=""175px"" height=""250px""></img></td>
    <td width=300 height=300><img src=""static/images/cards/stack_of_black_bolts.svg"" width=""175px"" height=""250px""></img></td>
  </tr>
  <tr height=200>
    <td width=300><img src=""static/images/keys/w.svg"" width=""35%"" height=""75%""></img></td>
    <td width=300><img src=""static/images/keys/o.svg"" width=""35%"" height=""75%""></img></td>
  </tr>
</table>
  ",79.0,1.0,,,,,,,,,,,,,,,,,,,,,,,,,,
227,0,,html-keyboard-response,227,1787902,0.0-7.14-1.14,z4wer4u2jf9,2022-09-19 16:45:04.109,62eecc131c4b40e5a9fdb8c0,1,21,0,77,60,30,Male,561.5,,"
  <table>
  <tr height=300>
    <td width=300 height=300><img src=""static/images/cards/back_of_black_bolts.svg"" width=""175px"" height=""250px""></img></td>
    <td width=300 height=300><img src=""static/images/cards/back_of_black_bolts.svg"" width=""175px"" height=""250px""></img></td>
  </tr>
  <tr height=200>
    <td width=300></td>
    <td width=300><img src=""static/images/keys/m.svg"" width=""35%"" height=""75%""></img></td>
  </tr>
</table>
  ",77.0,1.0,,,,,,,,,,,,,,,,,,,,,,,,,,
228,0,,html-keyboard-response,228,1789413,0.0-7.14-2.14,z4wer4u2jf9,2022-09-19 16:45:04.109,62eecc131c4b40e5a9fdb8c0,1,21,0,77,60,30,Male,,,"
  <table>
  <tr height=300>
    <td width=300 height=300><img src=""static/images/cards/back_of_black_bolts.svg"" width=""175px"" height=""250px""></img></td>
    <td width=300 height=300><img src=""static/images/cards/8_of_black_bolts.svg"" width=""175px"" height=""250px""></img></td>
  </tr>
  <tr height=200>
    <td width=300></td>
    <td width=300><img src=""static/images/keys/m.svg"" width=""35%"" height=""75%""></img></td>
  </tr>
</table>
  ",,,,,,,,,,,,,,,,,,,,,,,,,,,,
229,0,,html-keyboard-response,229,1790935,0.0-7.14-3.14,z4wer4u2jf9,2022-09-19 16:45:04.109,62eecc131c4b40e5a9fdb8c0,1,21,0,77,60,30,Male,,,"<p style=""font-size:50px"">You win!
+10 points this round!</p>",,,,,,,,,,,,,,,,,,,,,,,,,,,,
230,0,,html-keyboard-response,230,1791454,0.0-7.14-4.14,z4wer4u2jf9,2022-09-19 16:45:04.109,62eecc131c4b40e5a9fdb8c0,1,21,0,77,60,30,Male,,,,,,1.0,choice,14.0,B,Xnc,black,black,moons,bolts,B,Xnc,Xnc,black,bolts,1235.6999999881,0.0,0.0,0,right,561.5,8.0,1.0,1.0,,,
231,0,,html-keyboard-response,231,1792371,0.0-7.15-0.15,z4wer4u2jf9,2022-09-19 16:45:04.109,62eecc131c4b40e5a9fdb8c0,1,21,0,77,60,30,Male,916.099999994,,"
  <table>
  <tr height=300>
    <td width=300 height=300><img src=""static/images/cards/stack_of_red_stars.svg"" width=""175px"" height=""250px""></img></td>
    <td width=300 height=300><img src=""static/images/cards/stack_of_black_bolts.svg"" width=""175px"" height=""250px""></img></td>
  </tr>
  <tr height=200>
    <td width=300><img src=""static/images/keys/w.svg"" width=""35%"" height=""75%""></img></td>
    <td width=300><img src=""static/images/keys/o.svg"" width=""35%"" height=""75%""></img></td>
  </tr>
</table>
  ",79.0,1.0,,,,,,,,,,,,,,,,,,,,,,,,,,
232,0,,html-keyboard-response,232,1793339,0.0-7.15-1.15,z4wer4u2jf9,2022-09-19 16:45:04.109,62eecc131c4b40e5a9fdb8c0,1,21,0,77,60,30,Male,458.400000006,,"
  <table>
  <tr height=300>
    <td width=300 height=300><img src=""static/images/cards/back_of_black_bolts.svg"" width=""175px"" height=""250px""></img></td>
    <td width=300 height=300><img src=""static/images/cards/back_of_black_bolts.svg"" width=""175px"" height=""250px""></img></td>
  </tr>
  <tr height=200>
    <td width=300></td>
    <td width=300><img src=""static/images/keys/m.svg"" width=""35%"" height=""75%""></img></td>
  </tr>
</table>
  ",77.0,1.0,,,,,,,,,,,,,,,,,,,,,,,,,,
233,0,,html-keyboard-response,233,1794852,0.0-7.15-2.15,z4wer4u2jf9,2022-09-19 16:45:04.109,62eecc131c4b40e5a9fdb8c0,1,21,0,77,60,30,Male,,,"
  <table>
  <tr height=300>
    <td width=300 height=300><img src=""static/images/cards/back_of_black_bolts.svg"" width=""175px"" height=""250px""></img></td>
    <td width=300 height=300><img src=""static/images/cards/4_of_black_bolts.svg"" width=""175px"" height=""250px""></img></td>
  </tr>
  <tr height=200>
    <td width=300></td>
    <td width=300><img src=""static/images/keys/m.svg"" width=""35%"" height=""75%""></img></td>
  </tr>
</table>
  ",,,,,,,,,,,,,,,,,,,,,,,,,,,,
234,0,,html-keyboard-response,234,1796379,0.0-7.15-3.15,z4wer4u2jf9,2022-09-19 16:45:04.109,62eecc131c4b40e5a9fdb8c0,1,21,0,77,60,30,Male,,,"<p style=""font-size:50px"">You win!
+10 points this round!</p>",,,,,,,,,,,,,,,,,,,,,,,,,,,,
235,0,,html-keyboard-response,235,1796894,0.0-7.15-4.15,z4wer4u2jf9,2022-09-19 16:45:04.109,62eecc131c4b40e5a9fdb8c0,1,21,0,77,60,30,Male,,,,,,1.0,choice,15.0,C,Xnc,red,black,stars,bolts,C,Xnc,Xnc,black,bolts,916.099999994,0.0,0.0,0,right,458.400000006,4.0,0.0,1.0,,,
236,0,,html-keyboard-response,236,1798260,0.0-7.16-0.16,z4wer4u2jf9,2022-09-19 16:45:04.109,62eecc131c4b40e5a9fdb8c0,1,21,0,77,60,30,Male,1364.599999994,,"
  <table>
  <tr height=300>
    <td width=300 height=300><img src=""static/images/cards/stack_of_black_moons.svg"" width=""175px"" height=""250px""></img></td>
    <td width=300 height=300><img src=""static/images/cards/stack_of_red_moons.svg"" width=""175px"" height=""250px""></img></td>
  </tr>
  <tr height=200>
    <td width=300><img src=""static/images/keys/w.svg"" width=""35%"" height=""75%""></img></td>
    <td width=300><img src=""static/images/keys/o.svg"" width=""35%"" height=""75%""></img></td>
  </tr>
</table>
  ",79.0,1.0,,,,,,,,,,,,,,,,,,,,,,,,,,
237,0,,html-keyboard-response,237,1799784,0.0-7.16-1.16,z4wer4u2jf9,2022-09-19 16:45:04.109,62eecc131c4b40e5a9fdb8c0,1,21,0,77,60,30,Male,1020.299999997,,"
  <table>
  <tr height=300>
    <td width=300 height=300><img src=""static/images/cards/back_of_red_moons.svg"" width=""175px"" height=""250px""></img></td>
    <td width=300 height=300><img src=""static/images/cards/back_of_red_moons.svg"" width=""175px"" height=""250px""></img></td>
  </tr>
  <tr height=200>
    <td width=300><img src=""static/images/keys/z.svg"" width=""35%"" height=""75%""></img></td>
    <td width=300><img src=""static/images/keys/m.svg"" width=""35%"" height=""75%""></img></td>
  </tr>
</table>
  ",77.0,1.0,,,,,,,,,,,,,,,,,,,,,,,,,,
