,index,success,trial_type,trial_index,time_elapsed,internal_node_id,subject,date,prol_id,ctbl,sense_of_control_A,sense_of_control_B,sense_of_control_C,sense_of_control_D,age,gender,rt,url,stimulus,key_press,npress,is_data_trial,phase,trial,deck1,deck2,col1,col2,sym1,sym2,deck_l,deck_r,chosen_deck,chosen_col,chosen_sym,deck_rt,choose_choice,mutual_info,hidden_key,chosen_card,card_rt,player_num,win_card,outcome,mock_rating,response,responses
0,0,1.0,fullscreen,0,2389,0.0-0.0,b5wjp9h50qu,2022-09-19 17:33:43.945,614ee866eb22f6b60f499a91,0,51,50,29,23,58,male,,,,,,,,,,,,,,,,,,,,,,,,,,,,,,,
1,0,,external-html,1,8694,0.0-1.0,b5wjp9h50qu,2022-09-19 17:33:43.945,614ee866eb22f6b60f499a91,0,51,50,29,23,58,male,6168.099999994,static/js/sub/consent.html,,,,,,,,,,,,,,,,,,,,,,,,,,,,,
2,0,,call-function,2,8695,0.0-2.0,b5wjp9h50qu,2022-09-19 17:33:43.945,614ee866eb22f6b60f499a91,0,51,50,29,23,58,male,,,,,,,,,,,,,,,,,,,,,,,,,,,,,,,
3,0,,image-keyboard-response,3,12360,0.0-3.0-0.0,b5wjp9h50qu,2022-09-19 17:33:43.945,614ee866eb22f6b60f499a91,0,51,50,29,23,58,male,3663.0,,static/images/instructions_CB_0/Slide1.png,39.0,,,,,,,,,,,,,,,,,,,,,,,,,,,
4,0,,image-keyboard-response,4,16951,0.0-3.1-0.1,b5wjp9h50qu,2022-09-19 17:33:43.945,614ee866eb22f6b60f499a91,0,51,50,29,23,58,male,4589.400000006,,static/images/instructions_CB_0/Slide2.png,39.0,,,,,,,,,,,,,,,,,,,,,,,,,,,
5,0,,image-keyboard-response,5,19550,0.0-3.2-0.2,b5wjp9h50qu,2022-09-19 17:33:43.945,614ee866eb22f6b60f499a91,0,51,50,29,23,58,male,2596.599999994,,static/images/instructions_CB_0/Slide3.png,39.0,,,,,,,,,,,,,,,,,,,,,,,,,,,
6,0,,image-keyboard-response,6,24640,0.0-3.3-0.3,b5wjp9h50qu,2022-09-19 17:33:43.945,614ee866eb22f6b60f499a91,0,51,50,29,23,58,male,5087.900000006,,static/images/instructions_CB_0/Slide4.png,39.0,,,,,,,,,,,,,,,,,,,,,,,,,,,
7,0,,image-keyboard-response,7,28830,0.0-3.4-0.4,b5wjp9h50qu,2022-09-19 17:33:43.945,614ee866eb22f6b60f499a91,0,51,50,29,23,58,male,4188.8000000119,,static/images/instructions_CB_0/Slide5.png,39.0,,,,,,,,,,,,,,,,,,,,,,,,,,,
8,0,,image-keyboard-response,8,30279,0.0-3.5-0.5,b5wjp9h50qu,2022-09-19 17:33:43.945,614ee866eb22f6b60f499a91,0,51,50,29,23,58,male,1447.3999999762,,static/images/instructions_CB_0/Slide6.png,39.0,,,,,,,,,,,,,,,,,,,,,,,,,,,
9,0,,image-keyboard-response,9,32863,0.0-3.6-0.6,b5wjp9h50qu,2022-09-19 17:33:43.945,614ee866eb22f6b60f499a91,0,51,50,29,23,58,male,2583.1999999881,,static/images/instructions_CB_0/Slide7.png,39.0,,,,,,,,,,,,,,,,,,,,,,,,,,,
10,0,,image-keyboard-response,10,44159,0.0-3.7-0.7,b5wjp9h50qu,2022-09-19 17:33:43.945,614ee866eb22f6b60f499a91,0,51,50,29,23,58,male,11294.7999999821,,static/images/instructions_CB_0/Slide8.png,39.0,,,,,,,,,,,,,,,,,,,,,,,,,,,
11,0,,image-keyboard-response,11,49319,0.0-3.8-0.8,b5wjp9h50qu,2022-09-19 17:33:43.945,614ee866eb22f6b60f499a91,0,51,50,29,23,58,male,5157.6999999881,,static/images/instructions_CB_0/Slide9.png,39.0,,,,,,,,,,,,,,,,,,,,,,,,,,,
12,0,,image-keyboard-response,12,60463,0.0-3.9-0.9,b5wjp9h50qu,2022-09-19 17:33:43.945,614ee866eb22f6b60f499a91,0,51,50,29,23,58,male,11141.8999999762,,static/images/instructions_CB_0/Slide10.png,39.0,,,,,,,,,,,,,,,,,,,,,,,,,,,
13,0,,image-keyboard-response,13,63878,0.0-3.10-0.10,b5wjp9h50qu,2022-09-19 17:33:43.945,614ee866eb22f6b60f499a91,0,51,50,29,23,58,male,3413.6999999881,,static/images/instructions_CB_0/Slide11.png,39.0,,,,,,,,,,,,,,,,,,,,,,,,,,,
14,0,,image-keyboard-response,14,71566,0.0-3.11-0.11,b5wjp9h50qu,2022-09-19 17:33:43.945,614ee866eb22f6b60f499a91,0,51,50,29,23,58,male,7686.8999999762,,static/images/instructions_CB_0/Slide12.png,39.0,,,,,,,,,,,,,,,,,,,,,,,,,,,
15,0,,image-keyboard-response,15,90238,0.0-3.12-0.12,b5wjp9h50qu,2022-09-19 17:33:43.945,614ee866eb22f6b60f499a91,0,51,50,29,23,58,male,18670.3000000119,,static/images/instructions_CB_0/Slide13.png,39.0,,,,,,,,,,,,,,,,,,,,,,,,,,,
16,0,,image-keyboard-response,16,101663,0.0-3.13-0.13,b5wjp9h50qu,2022-09-19 17:33:43.945,614ee866eb22f6b60f499a91,0,51,50,29,23,58,male,11422.6999999881,,static/images/instructions_CB_0/Slide14.png,39.0,,,,,,,,,,,,,,,,,,,,,,,,,,,
17,0,,image-keyboard-response,17,108199,0.0-3.14-0.14,b5wjp9h50qu,2022-09-19 17:33:43.945,614ee866eb22f6b60f499a91,0,51,50,29,23,58,male,6533.599999994,,static/images/instructions_CB_0/Slide15.png,39.0,,,,,,,,,,,,,,,,,,,,,,,,,,,
18,0,,image-keyboard-response,18,111816,0.0-3.15-0.15,b5wjp9h50qu,2022-09-19 17:33:43.945,614ee866eb22f6b60f499a91,0,51,50,29,23,58,male,3615.400000006,,static/images/instructions_CB_0/Slide16.png,39.0,,,,,,,,,,,,,,,,,,,,,,,,,,,
19,0,,image-keyboard-response,19,119471,0.0-3.16-0.16,b5wjp9h50qu,2022-09-19 17:33:43.945,614ee866eb22f6b60f499a91,0,51,50,29,23,58,male,7653.7000000179,,static/images/instructions_CB_0/Slide17.png,39.0,,,,,,,,,,,,,,,,,,,,,,,,,,,
20,0,,image-keyboard-response,20,132687,0.0-3.17-0.17,b5wjp9h50qu,2022-09-19 17:33:43.945,614ee866eb22f6b60f499a91,0,51,50,29,23,58,male,13214.6999999881,,static/images/instructions_CB_0/Slide18.png,39.0,,,,,,,,,,,,,,,,,,,,,,,,,,,
21,0,,image-keyboard-response,21,139535,0.0-3.18-0.18,b5wjp9h50qu,2022-09-19 17:33:43.945,614ee866eb22f6b60f499a91,0,51,50,29,23,58,male,6846.099999994,,static/images/instructions_CB_0/Slide19.png,39.0,,,,,,,,,,,,,,,,,,,,,,,,,,,
22,0,,html-keyboard-response,22,141043,0.0-4.0-0.0,b5wjp9h50qu,2022-09-19 17:33:43.945,614ee866eb22f6b60f499a91,0,51,50,29,23,58,male,,,"<img src=""static/images/cards/stack_of_red_stars.svg"" width=""175px"" height=""250px""></img>",,,,,,,,,,,,,,,,,,,,,,,,,,,,
23,0,,html-keyboard-response,23,143016,0.0-4.0-1.0,b5wjp9h50qu,2022-09-19 17:33:43.945,614ee866eb22f6b60f499a91,0,51,50,29,23,58,male,1464.400000006,,"
  <table>
  <tr height=300>
    <td width=300 height=300><img src=""static/images/cards/back_of_red_stars.svg"" width=""175px"" height=""250px""></img></td>
    <td width=300 height=300><img src=""static/images/cards/back_of_red_stars.svg"" width=""175px"" height=""250px""></img></td>
  </tr>
  <tr height=200>
    <td width=300><img src=""static/images/keys/z.svg"" width=""35%"" height=""75%""></img></td>
    <td width=300><img src=""static/images/keys/m.svg"" width=""35%"" height=""75%""></img></td>
  </tr>
</table>
  ",90.0,1.0,,,,,,,,,,,,,,,,,,,,,,,,,,
24,0,,html-keyboard-response,24,144533,0.0-4.0-2.0,b5wjp9h50qu,2022-09-19 17:33:43.945,614ee866eb22f6b60f499a91,0,51,50,29,23,58,male,,,"
  <table>
  <tr height=300>
    <td width=300 height=300><img src=""static/images/cards/9_of_red_stars.svg"" width=""175px"" height=""250px""></img></td>
    <td width=300 height=300><img src=""static/images/cards/back_of_red_stars.svg"" width=""175px"" height=""250px""></img></td>
  </tr>
  <tr height=200>
    <td width=300><img src=""static/images/keys/z.svg"" width=""35%"" height=""75%""></img></td>
    <td width=300><img src=""static/images/keys/m.svg"" width=""35%"" height=""75%""></img></td>
  </tr>
</table>
  ",,,,,,,,,,,,,,,,,,,,,,,,,,,,
25,0,,html-keyboard-response,25,146052,0.0-4.0-3.0,b5wjp9h50qu,2022-09-19 17:33:43.945,614ee866eb22f6b60f499a91,0,51,50,29,23,58,male,,,"<p style=""font-size:50px"">You win!
+10 points this round!</p>",,,,,,,,,,,,,,,,,,,,,,,,,,,,
26,0,,html-keyboard-response,26,146572,0.0-4.0-4.0,b5wjp9h50qu,2022-09-19 17:33:43.945,614ee866eb22f6b60f499a91,0,51,50,29,23,58,male,,,,,,1.0,learning,0.0,A,,red,,stars,,,,A,red,stars,,1.0,1.0,NA,left,1464.400000006,9.0,1.0,1.0,,,
27,0,,html-keyboard-response,27,148076,0.0-4.1-0.1,b5wjp9h50qu,2022-09-19 17:33:43.945,614ee866eb22f6b60f499a91,0,51,50,29,23,58,male,,,"<img src=""static/images/cards/stack_of_black_stars.svg"" width=""175px"" height=""250px""></img>",,,,,,,,,,,,,,,,,,,,,,,,,,,,
28,0,,html-keyboard-response,28,149184,0.0-4.1-1.1,b5wjp9h50qu,2022-09-19 17:33:43.945,614ee866eb22f6b60f499a91,0,51,50,29,23,58,male,593.8000000119,,"
  <table>
  <tr height=300>
    <td width=300 height=300><img src=""static/images/cards/back_of_black_stars.svg"" width=""175px"" height=""250px""></img></td>
    <td width=300 height=300><img src=""static/images/cards/back_of_black_stars.svg"" width=""175px"" height=""250px""></img></td>
  </tr>
  <tr height=200>
    <td width=300></td>
    <td width=300><img src=""static/images/keys/m.svg"" width=""35%"" height=""75%""></img></td>
  </tr>
</table>
  ",77.0,1.0,,,,,,,,,,,,,,,,,,,,,,,,,,
29,0,,html-keyboard-response,29,150689,0.0-4.1-2.1,b5wjp9h50qu,2022-09-19 17:33:43.945,614ee866eb22f6b60f499a91,0,51,50,29,23,58,male,,,"
  <table>
  <tr height=300>
    <td width=300 height=300><img src=""static/images/cards/back_of_black_stars.svg"" width=""175px"" height=""250px""></img></td>
    <td width=300 height=300><img src=""static/images/cards/10_of_black_stars.svg"" width=""175px"" height=""250px""></img></td>
  </tr>
  <tr height=200>
    <td width=300></td>
    <td width=300><img src=""static/images/keys/m.svg"" width=""35%"" height=""75%""></img></td>
  </tr>
</table>
  ",,,,,,,,,,,,,,,,,,,,,,,,,,,,
30,0,,html-keyboard-response,30,152195,0.0-4.1-3.1,b5wjp9h50qu,2022-09-19 17:33:43.945,614ee866eb22f6b60f499a91,0,51,50,29,23,58,male,,,"<p style=""font-size:50px"">You win!
+10 points this round!</p>",,,,,,,,,,,,,,,,,,,,,,,,,,,,
31,0,,html-keyboard-response,31,152715,0.0-4.1-4.1,b5wjp9h50qu,2022-09-19 17:33:43.945,614ee866eb22f6b60f499a91,0,51,50,29,23,58,male,,,,,,1.0,learning,1.0,B,,black,,stars,,,,B,black,stars,,0.0,1.0,0,right,593.8000000119,10.0,1.0,1.0,,,
32,0,,html-keyboard-response,32,154221,0.0-4.2-0.2,b5wjp9h50qu,2022-09-19 17:33:43.945,614ee866eb22f6b60f499a91,0,51,50,29,23,58,male,,,"<img src=""static/images/cards/stack_of_red_moons.svg"" width=""175px"" height=""250px""></img>",,,,,,,,,,,,,,,,,,,,,,,,,,,,
33,0,,html-keyboard-response,33,156696,0.0-4.2-1.2,b5wjp9h50qu,2022-09-19 17:33:43.945,614ee866eb22f6b60f499a91,0,51,50,29,23,58,male,1960.400000006,,"
  <table>
  <tr height=300>
    <td width=300 height=300><img src=""static/images/cards/back_of_red_moons.svg"" width=""175px"" height=""250px""></img></td>
    <td width=300 height=300><img src=""static/images/cards/back_of_red_moons.svg"" width=""175px"" height=""250px""></img></td>
  </tr>
  <tr height=200>
    <td width=300><img src=""static/images/keys/z.svg"" width=""35%"" height=""75%""></img></td>
    <td width=300><img src=""static/images/keys/m.svg"" width=""35%"" height=""75%""></img></td>
  </tr>
</table>
  ",77.0,1.0,,,,,,,,,,,,,,,,,,,,,,,,,,
34,0,,html-keyboard-response,34,158202,0.0-4.2-2.2,b5wjp9h50qu,2022-09-19 17:33:43.945,614ee866eb22f6b60f499a91,0,51,50,29,23,58,male,,,"
  <table>
  <tr height=300>
    <td width=300 height=300><img src=""static/images/cards/back_of_red_moons.svg"" width=""175px"" height=""250px""></img></td>
    <td width=300 height=300><img src=""static/images/cards/4_of_red_moons.svg"" width=""175px"" height=""250px""></img></td>
  </tr>
  <tr height=200>
    <td width=300><img src=""static/images/keys/z.svg"" width=""35%"" height=""75%""></img></td>
    <td width=300><img src=""static/images/keys/m.svg"" width=""35%"" height=""75%""></img></td>
  </tr>
</table>
  ",,,,,,,,,,,,,,,,,,,,,,,,,,,,
35,0,,html-keyboard-response,35,159718,0.0-4.2-3.2,b5wjp9h50qu,2022-09-19 17:33:43.945,614ee866eb22f6b60f499a91,0,51,50,29,23,58,male,,,"<p style=""font-size:50px"">You win!
+10 points this round!</p>",,,,,,,,,,,,,,,,,,,,,,,,,,,,
36,0,,html-keyboard-response,36,160235,0.0-4.2-4.2,b5wjp9h50qu,2022-09-19 17:33:43.945,614ee866eb22f6b60f499a91,0,51,50,29,23,58,male,,,,,,1.0,learning,2.0,C,,red,,moons,,,,C,red,moons,,1.0,0.0,NA,right,1960.400000006,4.0,0.0,1.0,,,
37,0,,html-keyboard-response,37,161751,0.0-4.3-0.3,b5wjp9h50qu,2022-09-19 17:33:43.945,614ee866eb22f6b60f499a91,0,51,50,29,23,58,male,,,"<img src=""static/images/cards/stack_of_black_moons.svg"" width=""175px"" height=""250px""></img>",,,,,,,,,,,,,,,,,,,,,,,,,,,,
38,0,,html-keyboard-response,38,163150,0.0-4.3-1.3,b5wjp9h50qu,2022-09-19 17:33:43.945,614ee866eb22f6b60f499a91,0,51,50,29,23,58,male,882.2999999821,,"
  <table>
  <tr height=300>
    <td width=300 height=300><img src=""static/images/cards/back_of_black_moons.svg"" width=""175px"" height=""250px""></img></td>
    <td width=300 height=300><img src=""static/images/cards/back_of_black_moons.svg"" width=""175px"" height=""250px""></img></td>
  </tr>
  <tr height=200>
    <td width=300></td>
    <td width=300><img src=""static/images/keys/m.svg"" width=""35%"" height=""75%""></img></td>
  </tr>
</table>
  ",77.0,1.0,,,,,,,,,,,,,,,,,,,,,,,,,,
39,0,,html-keyboard-response,39,164662,0.0-4.3-2.3,b5wjp9h50qu,2022-09-19 17:33:43.945,614ee866eb22f6b60f499a91,0,51,50,29,23,58,male,,,"
  <table>
  <tr height=300>
    <td width=300 height=300><img src=""static/images/cards/back_of_black_moons.svg"" width=""175px"" height=""250px""></img></td>
    <td width=300 height=300><img src=""static/images/cards/3_of_black_moons.svg"" width=""175px"" height=""250px""></img></td>
  </tr>
  <tr height=200>
    <td width=300></td>
    <td width=300><img src=""static/images/keys/m.svg"" width=""35%"" height=""75%""></img></td>
  </tr>
</table>
  ",,,,,,,,,,,,,,,,,,,,,,,,,,,,
40,0,,html-keyboard-response,40,166183,0.0-4.3-3.3,b5wjp9h50qu,2022-09-19 17:33:43.945,614ee866eb22f6b60f499a91,0,51,50,29,23,58,male,,,"<p style=""font-size:50px"">You win!
+10 points this round!</p>",,,,,,,,,,,,,,,,,,,,,,,,,,,,
41,0,,html-keyboard-response,41,166689,0.0-4.3-4.3,b5wjp9h50qu,2022-09-19 17:33:43.945,614ee866eb22f6b60f499a91,0,51,50,29,23,58,male,,,,,,1.0,learning,3.0,D,,black,,moons,,,,D,black,moons,,0.0,0.0,0,right,882.2999999821,3.0,0.0,1.0,,,
42,0,,html-keyboard-response,42,168206,0.0-4.4-0.4,b5wjp9h50qu,2022-09-19 17:33:43.945,614ee866eb22f6b60f499a91,0,51,50,29,23,58,male,,,"<img src=""static/images/cards/stack_of_red_bolts.svg"" width=""175px"" height=""250px""></img>",,,,,,,,,,,,,,,,,,,,,,,,,,,,
43,0,,html-keyboard-response,43,169807,0.0-4.4-1.4,b5wjp9h50qu,2022-09-19 17:33:43.945,614ee866eb22f6b60f499a91,0,51,50,29,23,58,male,1083.0,,"
  <table>
  <tr height=300>
    <td width=300 height=300><img src=""static/images/cards/back_of_red_bolts.svg"" width=""175px"" height=""250px""></img></td>
    <td width=300 height=300><img src=""static/images/cards/back_of_red_bolts.svg"" width=""175px"" height=""250px""></img></td>
  </tr>
  <tr height=200>
    <td width=300><img src=""static/images/keys/z.svg"" width=""35%"" height=""75%""></img></td>
    <td width=300><img src=""static/images/keys/m.svg"" width=""35%"" height=""75%""></img></td>
  </tr>
</table>
  ",77.0,1.0,,,,,,,,,,,,,,,,,,,,,,,,,,
44,0,,html-keyboard-response,44,171315,0.0-4.4-2.4,b5wjp9h50qu,2022-09-19 17:33:43.945,614ee866eb22f6b60f499a91,0,51,50,29,23,58,male,,,"
  <table>
  <tr height=300>
    <td width=300 height=300><img src=""static/images/cards/back_of_red_bolts.svg"" width=""175px"" height=""250px""></img></td>
    <td width=300 height=300><img src=""static/images/cards/1_of_red_bolts.svg"" width=""175px"" height=""250px""></img></td>
  </tr>
  <tr height=200>
    <td width=300><img src=""static/images/keys/z.svg"" width=""35%"" height=""75%""></img></td>
    <td width=300><img src=""static/images/keys/m.svg"" width=""35%"" height=""75%""></img></td>
  </tr>
</table>
  ",,,,,,,,,,,,,,,,,,,,,,,,,,,,
45,0,,html-keyboard-response,45,172834,0.0-4.4-3.4,b5wjp9h50qu,2022-09-19 17:33:43.945,614ee866eb22f6b60f499a91,0,51,50,29,23,58,male,,,"<p style=""font-size:50px"">You win!
+10 points this round!</p>",,,,,,,,,,,,,,,,,,,,,,,,,,,,
46,0,,html-keyboard-response,46,173351,0.0-4.4-4.4,b5wjp9h50qu,2022-09-19 17:33:43.945,614ee866eb22f6b60f499a91,0,51,50,29,23,58,male,,,,,,1.0,learning,4.0,Xc,,red,,bolts,,,,Xc,red,bolts,,1.0,0.0,NA,right,1083.0,1.0,0.0,1.0,,,
47,0,,html-keyboard-response,47,174859,0.0-4.5-0.5,b5wjp9h50qu,2022-09-19 17:33:43.945,614ee866eb22f6b60f499a91,0,51,50,29,23,58,male,,,"<img src=""static/images/cards/stack_of_black_bolts.svg"" width=""175px"" height=""250px""></img>",,,,,,,,,,,,,,,,,,,,,,,,,,,,
48,0,,html-keyboard-response,48,176175,0.0-4.5-1.5,b5wjp9h50qu,2022-09-19 17:33:43.945,614ee866eb22f6b60f499a91,0,51,50,29,23,58,male,802.8000000119,,"
  <table>
  <tr height=300>
    <td width=300 height=300><img src=""static/images/cards/back_of_black_bolts.svg"" width=""175px"" height=""250px""></img></td>
    <td width=300 height=300><img src=""static/images/cards/back_of_black_bolts.svg"" width=""175px"" height=""250px""></img></td>
  </tr>
  <tr height=200>
    <td width=300><img src=""static/images/keys/z.svg"" width=""35%"" height=""75%""></img></td>
    <td width=300></td>
  </tr>
</table>
  ",90.0,1.0,,,,,,,,,,,,,,,,,,,,,,,,,,
49,0,,html-keyboard-response,49,177696,0.0-4.5-2.5,b5wjp9h50qu,2022-09-19 17:33:43.945,614ee866eb22f6b60f499a91,0,51,50,29,23,58,male,,,"
  <table>
  <tr height=300>
    <td width=300 height=300><img src=""static/images/cards/4_of_black_bolts.svg"" width=""175px"" height=""250px""></img></td>
    <td width=300 height=300><img src=""static/images/cards/back_of_black_bolts.svg"" width=""175px"" height=""250px""></img></td>
  </tr>
  <tr height=200>
    <td width=300><img src=""static/images/keys/z.svg"" width=""35%"" height=""75%""></img></td>
    <td width=300></td>
  </tr>
</table>
  ",,,,,,,,,,,,,,,,,,,,,,,,,,,,
50,0,,html-keyboard-response,50,179211,0.0-4.5-3.5,b5wjp9h50qu,2022-09-19 17:33:43.945,614ee866eb22f6b60f499a91,0,51,50,29,23,58,male,,,"<p style=""font-size:50px"">You win!
+10 points this round!</p>",,,,,,,,,,,,,,,,,,,,,,,,,,,,
51,0,,html-keyboard-response,51,179730,0.0-4.5-4.5,b5wjp9h50qu,2022-09-19 17:33:43.945,614ee866eb22f6b60f499a91,0,51,50,29,23,58,male,,,,,,1.0,learning,5.0,Xnc,,black,,bolts,,,,Xnc,black,bolts,,0.0,0.0,1,left,802.8000000119,4.0,0.0,1.0,,,
52,0,,html-keyboard-response,52,181236,0.0-4.6-0.6,b5wjp9h50qu,2022-09-19 17:33:43.945,614ee866eb22f6b60f499a91,0,51,50,29,23,58,male,,,"<img src=""static/images/cards/stack_of_red_stars.svg"" width=""175px"" height=""250px""></img>",,,,,,,,,,,,,,,,,,,,,,,,,,,,
53,0,,html-keyboard-response,53,182526,0.0-4.6-1.6,b5wjp9h50qu,2022-09-19 17:33:43.945,614ee866eb22f6b60f499a91,0,51,50,29,23,58,male,781.7000000179,,"
  <table>
  <tr height=300>
    <td width=300 height=300><img src=""static/images/cards/back_of_red_stars.svg"" width=""175px"" height=""250px""></img></td>
    <td width=300 height=300><img src=""static/images/cards/back_of_red_stars.svg"" width=""175px"" height=""250px""></img></td>
  </tr>
  <tr height=200>
    <td width=300><img src=""static/images/keys/z.svg"" width=""35%"" height=""75%""></img></td>
    <td width=300><img src=""static/images/keys/m.svg"" width=""35%"" height=""75%""></img></td>
  </tr>
</table>
  ",77.0,1.0,,,,,,,,,,,,,,,,,,,,,,,,,,
54,0,,html-keyboard-response,54,184040,0.0-4.6-2.6,b5wjp9h50qu,2022-09-19 17:33:43.945,614ee866eb22f6b60f499a91,0,51,50,29,23,58,male,,,"
  <table>
  <tr height=300>
    <td width=300 height=300><img src=""static/images/cards/back_of_red_stars.svg"" width=""175px"" height=""250px""></img></td>
    <td width=300 height=300><img src=""static/images/cards/7_of_red_stars.svg"" width=""175px"" height=""250px""></img></td>
  </tr>
  <tr height=200>
    <td width=300><img src=""static/images/keys/z.svg"" width=""35%"" height=""75%""></img></td>
    <td width=300><img src=""static/images/keys/m.svg"" width=""35%"" height=""75%""></img></td>
  </tr>
</table>
  ",,,,,,,,,,,,,,,,,,,,,,,,,,,,
55,0,,html-keyboard-response,55,185560,0.0-4.6-3.6,b5wjp9h50qu,2022-09-19 17:33:43.945,614ee866eb22f6b60f499a91,0,51,50,29,23,58,male,,,"<p style=""font-size:50px"">You win!
+10 points this round!</p>",,,,,,,,,,,,,,,,,,,,,,,,,,,,
56,0,,html-keyboard-response,56,186078,0.0-4.6-4.6,b5wjp9h50qu,2022-09-19 17:33:43.945,614ee866eb22f6b60f499a91,0,51,50,29,23,58,male,,,,,,1.0,learning,6.0,A,,red,,stars,,,,A,red,stars,,1.0,1.0,NA,right,781.7000000179,7.0,1.0,1.0,,,
57,0,,html-keyboard-response,57,187593,0.0-4.7-0.7,b5wjp9h50qu,2022-09-19 17:33:43.945,614ee866eb22f6b60f499a91,0,51,50,29,23,58,male,,,"<img src=""static/images/cards/stack_of_black_stars.svg"" width=""175px"" height=""250px""></img>",,,,,,,,,,,,,,,,,,,,,,,,,,,,
58,0,,html-keyboard-response,58,188767,0.0-4.7-1.7,b5wjp9h50qu,2022-09-19 17:33:43.945,614ee866eb22f6b60f499a91,0,51,50,29,23,58,male,658.0,,"
  <table>
  <tr height=300>
    <td width=300 height=300><img src=""static/images/cards/back_of_black_stars.svg"" width=""175px"" height=""250px""></img></td>
    <td width=300 height=300><img src=""static/images/cards/back_of_black_stars.svg"" width=""175px"" height=""250px""></img></td>
  </tr>
  <tr height=200>
    <td width=300></td>
    <td width=300><img src=""static/images/keys/m.svg"" width=""35%"" height=""75%""></img></td>
  </tr>
</table>
  ",77.0,1.0,,,,,,,,,,,,,,,,,,,,,,,,,,
59,0,,html-keyboard-response,59,190283,0.0-4.7-2.7,b5wjp9h50qu,2022-09-19 17:33:43.945,614ee866eb22f6b60f499a91,0,51,50,29,23,58,male,,,"
  <table>
  <tr height=300>
    <td width=300 height=300><img src=""static/images/cards/back_of_black_stars.svg"" width=""175px"" height=""250px""></img></td>
    <td width=300 height=300><img src=""static/images/cards/3_of_black_stars.svg"" width=""175px"" height=""250px""></img></td>
  </tr>
  <tr height=200>
    <td width=300></td>
    <td width=300><img src=""static/images/keys/m.svg"" width=""35%"" height=""75%""></img></td>
  </tr>
</table>
  ",,,,,,,,,,,,,,,,,,,,,,,,,,,,
60,0,,html-keyboard-response,60,191800,0.0-4.7-3.7,b5wjp9h50qu,2022-09-19 17:33:43.945,614ee866eb22f6b60f499a91,0,51,50,29,23,58,male,,,"<p style=""font-size:50px"">You Lose!
No points this round.</p>",,,,,,,,,,,,,,,,,,,,,,,,,,,,
61,0,,html-keyboard-response,61,192306,0.0-4.7-4.7,b5wjp9h50qu,2022-09-19 17:33:43.945,614ee866eb22f6b60f499a91,0,51,50,29,23,58,male,,,,,,1.0,learning,7.0,B,,black,,stars,,,,B,black,stars,,0.0,1.0,0,right,658.0,3.0,0.0,0.0,,,
62,0,,html-keyboard-response,62,193813,0.0-4.8-0.8,b5wjp9h50qu,2022-09-19 17:33:43.945,614ee866eb22f6b60f499a91,0,51,50,29,23,58,male,,,"<img src=""static/images/cards/stack_of_red_moons.svg"" width=""175px"" height=""250px""></img>",,,,,,,,,,,,,,,,,,,,,,,,,,,,
63,0,,html-keyboard-response,63,195256,0.0-4.8-1.8,b5wjp9h50qu,2022-09-19 17:33:43.945,614ee866eb22f6b60f499a91,0,51,50,29,23,58,male,928.8999999762,,"
  <table>
  <tr height=300>
    <td width=300 height=300><img src=""static/images/cards/back_of_red_moons.svg"" width=""175px"" height=""250px""></img></td>
    <td width=300 height=300><img src=""static/images/cards/back_of_red_moons.svg"" width=""175px"" height=""250px""></img></td>
  </tr>
  <tr height=200>
    <td width=300><img src=""static/images/keys/z.svg"" width=""35%"" height=""75%""></img></td>
    <td width=300><img src=""static/images/keys/m.svg"" width=""35%"" height=""75%""></img></td>
  </tr>
</table>
  ",90.0,1.0,,,,,,,,,,,,,,,,,,,,,,,,,,
64,0,,html-keyboard-response,64,196766,0.0-4.8-2.8,b5wjp9h50qu,2022-09-19 17:33:43.945,614ee866eb22f6b60f499a91,0,51,50,29,23,58,male,,,"
  <table>
  <tr height=300>
    <td width=300 height=300><img src=""static/images/cards/10_of_red_moons.svg"" width=""175px"" height=""250px""></img></td>
    <td width=300 height=300><img src=""static/images/cards/back_of_red_moons.svg"" width=""175px"" height=""250px""></img></td>
  </tr>
  <tr height=200>
    <td width=300><img src=""static/images/keys/z.svg"" width=""35%"" height=""75%""></img></td>
    <td width=300><img src=""static/images/keys/m.svg"" width=""35%"" height=""75%""></img></td>
  </tr>
</table>
  ",,,,,,,,,,,,,,,,,,,,,,,,,,,,
65,0,,html-keyboard-response,65,198292,0.0-4.8-3.8,b5wjp9h50qu,2022-09-19 17:33:43.945,614ee866eb22f6b60f499a91,0,51,50,29,23,58,male,,,"<p style=""font-size:50px"">You win!
+10 points this round!</p>",,,,,,,,,,,,,,,,,,,,,,,,,,,,
66,0,,html-keyboard-response,66,198812,0.0-4.8-4.8,b5wjp9h50qu,2022-09-19 17:33:43.945,614ee866eb22f6b60f499a91,0,51,50,29,23,58,male,,,,,,1.0,learning,8.0,C,,red,,moons,,,,C,red,moons,,1.0,0.0,NA,left,928.8999999762,10.0,1.0,1.0,,,
67,0,,html-keyboard-response,67,200317,0.0-4.9-0.9,b5wjp9h50qu,2022-09-19 17:33:43.945,614ee866eb22f6b60f499a91,0,51,50,29,23,58,male,,,"<img src=""static/images/cards/stack_of_black_moons.svg"" width=""175px"" height=""250px""></img>",,,,,,,,,,,,,,,,,,,,,,,,,,,,
68,0,,html-keyboard-response,68,201463,0.0-4.9-1.9,b5wjp9h50qu,2022-09-19 17:33:43.945,614ee866eb22f6b60f499a91,0,51,50,29,23,58,male,631.400000006,,"
  <table>
  <tr height=300>
    <td width=300 height=300><img src=""static/images/cards/back_of_black_moons.svg"" width=""175px"" height=""250px""></img></td>
    <td width=300 height=300><img src=""static/images/cards/back_of_black_moons.svg"" width=""175px"" height=""250px""></img></td>
  </tr>
  <tr height=200>
    <td width=300><img src=""static/images/keys/z.svg"" width=""35%"" height=""75%""></img></td>
    <td width=300></td>
  </tr>
</table>
  ",90.0,1.0,,,,,,,,,,,,,,,,,,,,,,,,,,
69,0,,html-keyboard-response,69,202974,0.0-4.9-2.9,b5wjp9h50qu,2022-09-19 17:33:43.945,614ee866eb22f6b60f499a91,0,51,50,29,23,58,male,,,"
  <table>
  <tr height=300>
    <td width=300 height=300><img src=""static/images/cards/3_of_black_moons.svg"" width=""175px"" height=""250px""></img></td>
    <td width=300 height=300><img src=""static/images/cards/back_of_black_moons.svg"" width=""175px"" height=""250px""></img></td>
  </tr>
  <tr height=200>
    <td width=300><img src=""static/images/keys/z.svg"" width=""35%"" height=""75%""></img></td>
    <td width=300></td>
  </tr>
</table>
  ",,,,,,,,,,,,,,,,,,,,,,,,,,,,
70,0,,html-keyboard-response,70,204492,0.0-4.9-3.9,b5wjp9h50qu,2022-09-19 17:33:43.945,614ee866eb22f6b60f499a91,0,51,50,29,23,58,male,,,"<p style=""font-size:50px"">You Lose!
No points this round.</p>",,,,,,,,,,,,,,,,,,,,,,,,,,,,
71,0,,html-keyboard-response,71,205009,0.0-4.9-4.9,b5wjp9h50qu,2022-09-19 17:33:43.945,614ee866eb22f6b60f499a91,0,51,50,29,23,58,male,,,,,,1.0,learning,9.0,D,,black,,moons,,,,D,black,moons,,0.0,0.0,1,left,631.400000006,3.0,0.0,0.0,,,
72,0,,html-keyboard-response,72,206514,0.0-4.10-0.10,b5wjp9h50qu,2022-09-19 17:33:43.945,614ee866eb22f6b60f499a91,0,51,50,29,23,58,male,,,"<img src=""static/images/cards/stack_of_red_bolts.svg"" width=""175px"" height=""250px""></img>",,,,,,,,,,,,,,,,,,,,,,,,,,,,
73,0,,html-keyboard-response,73,207895,0.0-4.10-1.10,b5wjp9h50qu,2022-09-19 17:33:43.945,614ee866eb22f6b60f499a91,0,51,50,29,23,58,male,864.6999999881,,"
  <table>
  <tr height=300>
    <td width=300 height=300><img src=""static/images/cards/back_of_red_bolts.svg"" width=""175px"" height=""250px""></img></td>
    <td width=300 height=300><img src=""static/images/cards/back_of_red_bolts.svg"" width=""175px"" height=""250px""></img></td>
  </tr>
  <tr height=200>
    <td width=300><img src=""static/images/keys/z.svg"" width=""35%"" height=""75%""></img></td>
    <td width=300><img src=""static/images/keys/m.svg"" width=""35%"" height=""75%""></img></td>
  </tr>
</table>
  ",77.0,1.0,,,,,,,,,,,,,,,,,,,,,,,,,,
74,0,,html-keyboard-response,74,209406,0.0-4.10-2.10,b5wjp9h50qu,2022-09-19 17:33:43.945,614ee866eb22f6b60f499a91,0,51,50,29,23,58,male,,,"
  <table>
  <tr height=300>
    <td width=300 height=300><img src=""static/images/cards/back_of_red_bolts.svg"" width=""175px"" height=""250px""></img></td>
    <td width=300 height=300><img src=""static/images/cards/3_of_red_bolts.svg"" width=""175px"" height=""250px""></img></td>
  </tr>
  <tr height=200>
    <td width=300><img src=""static/images/keys/z.svg"" width=""35%"" height=""75%""></img></td>
    <td width=300><img src=""static/images/keys/m.svg"" width=""35%"" height=""75%""></img></td>
  </tr>
</table>
  ",,,,,,,,,,,,,,,,,,,,,,,,,,,,
75,0,,html-keyboard-response,75,210916,0.0-4.10-3.10,b5wjp9h50qu,2022-09-19 17:33:43.945,614ee866eb22f6b60f499a91,0,51,50,29,23,58,male,,,"<p style=""font-size:50px"">You win!
+10 points this round!</p>",,,,,,,,,,,,,,,,,,,,,,,,,,,,
76,0,,html-keyboard-response,76,211437,0.0-4.10-4.10,b5wjp9h50qu,2022-09-19 17:33:43.945,614ee866eb22f6b60f499a91,0,51,50,29,23,58,male,,,,,,1.0,learning,10.0,Xc,,red,,bolts,,,,Xc,red,bolts,,1.0,0.0,NA,right,864.6999999881,3.0,0.0,1.0,,,
77,0,,html-keyboard-response,77,212945,0.0-4.11-0.11,b5wjp9h50qu,2022-09-19 17:33:43.945,614ee866eb22f6b60f499a91,0,51,50,29,23,58,male,,,"<img src=""static/images/cards/stack_of_black_bolts.svg"" width=""175px"" height=""250px""></img>",,,,,,,,,,,,,,,,,,,,,,,,,,,,
78,0,,html-keyboard-response,78,214199,0.0-4.11-1.11,b5wjp9h50qu,2022-09-19 17:33:43.945,614ee866eb22f6b60f499a91,0,51,50,29,23,58,male,746.7999999821,,"
  <table>
  <tr height=300>
    <td width=300 height=300><img src=""static/images/cards/back_of_black_bolts.svg"" width=""175px"" height=""250px""></img></td>
    <td width=300 height=300><img src=""static/images/cards/back_of_black_bolts.svg"" width=""175px"" height=""250px""></img></td>
  </tr>
  <tr height=200>
    <td width=300><img src=""static/images/keys/z.svg"" width=""35%"" height=""75%""></img></td>
    <td width=300></td>
  </tr>
</table>
  ",90.0,1.0,,,,,,,,,,,,,,,,,,,,,,,,,,
79,0,,html-keyboard-response,79,215709,0.0-4.11-2.11,b5wjp9h50qu,2022-09-19 17:33:43.945,614ee866eb22f6b60f499a91,0,51,50,29,23,58,male,,,"
  <table>
  <tr height=300>
    <td width=300 height=300><img src=""static/images/cards/8_of_black_bolts.svg"" width=""175px"" height=""250px""></img></td>
    <td width=300 height=300><img src=""static/images/cards/back_of_black_bolts.svg"" width=""175px"" height=""250px""></img></td>
  </tr>
  <tr height=200>
    <td width=300><img src=""static/images/keys/z.svg"" width=""35%"" height=""75%""></img></td>
    <td width=300></td>
  </tr>
</table>
  ",,,,,,,,,,,,,,,,,,,,,,,,,,,,
80,0,,html-keyboard-response,80,217227,0.0-4.11-3.11,b5wjp9h50qu,2022-09-19 17:33:43.945,614ee866eb22f6b60f499a91,0,51,50,29,23,58,male,,,"<p style=""font-size:50px"">You win!
+10 points this round!</p>",,,,,,,,,,,,,,,,,,,,,,,,,,,,
81,0,,html-keyboard-response,81,217743,0.0-4.11-4.11,b5wjp9h50qu,2022-09-19 17:33:43.945,614ee866eb22f6b60f499a91,0,51,50,29,23,58,male,,,,,,1.0,learning,11.0,Xnc,,black,,bolts,,,,Xnc,black,bolts,,0.0,0.0,1,left,746.7999999821,8.0,1.0,1.0,,,
82,0,,html-keyboard-response,82,219252,0.0-4.12-0.12,b5wjp9h50qu,2022-09-19 17:33:43.945,614ee866eb22f6b60f499a91,0,51,50,29,23,58,male,,,"<img src=""static/images/cards/stack_of_red_stars.svg"" width=""175px"" height=""250px""></img>",,,,,,,,,,,,,,,,,,,,,,,,,,,,
83,0,,html-keyboard-response,83,221159,0.0-4.12-1.12,b5wjp9h50qu,2022-09-19 17:33:43.945,614ee866eb22f6b60f499a91,0,51,50,29,23,58,male,1394.5,,"
  <table>
  <tr height=300>
    <td width=300 height=300><img src=""static/images/cards/back_of_red_stars.svg"" width=""175px"" height=""250px""></img></td>
    <td width=300 height=300><img src=""static/images/cards/back_of_red_stars.svg"" width=""175px"" height=""250px""></img></td>
  </tr>
  <tr height=200>
    <td width=300><img src=""static/images/keys/z.svg"" width=""35%"" height=""75%""></img></td>
    <td width=300><img src=""static/images/keys/m.svg"" width=""35%"" height=""75%""></img></td>
  </tr>
</table>
  ",77.0,1.0,,,,,,,,,,,,,,,,,,,,,,,,,,
84,0,,html-keyboard-response,84,222671,0.0-4.12-2.12,b5wjp9h50qu,2022-09-19 17:33:43.945,614ee866eb22f6b60f499a91,0,51,50,29,23,58,male,,,"
  <table>
  <tr height=300>
    <td width=300 height=300><img src=""static/images/cards/back_of_red_stars.svg"" width=""175px"" height=""250px""></img></td>
    <td width=300 height=300><img src=""static/images/cards/3_of_red_stars.svg"" width=""175px"" height=""250px""></img></td>
  </tr>
  <tr height=200>
    <td width=300><img src=""static/images/keys/z.svg"" width=""35%"" height=""75%""></img></td>
    <td width=300><img src=""static/images/keys/m.svg"" width=""35%"" height=""75%""></img></td>
  </tr>
</table>
  ",,,,,,,,,,,,,,,,,,,,,,,,,,,,
85,0,,html-keyboard-response,85,224189,0.0-4.12-3.12,b5wjp9h50qu,2022-09-19 17:33:43.945,614ee866eb22f6b60f499a91,0,51,50,29,23,58,male,,,"<p style=""font-size:50px"">You Lose!
No points this round.</p>",,,,,,,,,,,,,,,,,,,,,,,,,,,,
86,0,,html-keyboard-response,86,224695,0.0-4.12-4.12,b5wjp9h50qu,2022-09-19 17:33:43.945,614ee866eb22f6b60f499a91,0,51,50,29,23,58,male,,,,,,1.0,learning,12.0,A,,red,,stars,,,,A,red,stars,,1.0,1.0,NA,right,1394.5,3.0,0.0,0.0,,,
87,0,,html-keyboard-response,87,226197,0.0-4.13-0.13,b5wjp9h50qu,2022-09-19 17:33:43.945,614ee866eb22f6b60f499a91,0,51,50,29,23,58,male,,,"<img src=""static/images/cards/stack_of_black_stars.svg"" width=""175px"" height=""250px""></img>",,,,,,,,,,,,,,,,,,,,,,,,,,,,
88,0,,html-keyboard-response,88,227311,0.0-4.13-1.13,b5wjp9h50qu,2022-09-19 17:33:43.945,614ee866eb22f6b60f499a91,0,51,50,29,23,58,male,600.1000000238,,"
  <table>
  <tr height=300>
    <td width=300 height=300><img src=""static/images/cards/back_of_black_stars.svg"" width=""175px"" height=""250px""></img></td>
    <td width=300 height=300><img src=""static/images/cards/back_of_black_stars.svg"" width=""175px"" height=""250px""></img></td>
  </tr>
  <tr height=200>
    <td width=300></td>
    <td width=300><img src=""static/images/keys/m.svg"" width=""35%"" height=""75%""></img></td>
  </tr>
</table>
  ",77.0,1.0,,,,,,,,,,,,,,,,,,,,,,,,,,
89,0,,html-keyboard-response,89,228815,0.0-4.13-2.13,b5wjp9h50qu,2022-09-19 17:33:43.945,614ee866eb22f6b60f499a91,0,51,50,29,23,58,male,,,"
  <table>
  <tr height=300>
    <td width=300 height=300><img src=""static/images/cards/back_of_black_stars.svg"" width=""175px"" height=""250px""></img></td>
    <td width=300 height=300><img src=""static/images/cards/4_of_black_stars.svg"" width=""175px"" height=""250px""></img></td>
  </tr>
  <tr height=200>
    <td width=300></td>
    <td width=300><img src=""static/images/keys/m.svg"" width=""35%"" height=""75%""></img></td>
  </tr>
</table>
  ",,,,,,,,,,,,,,,,,,,,,,,,,,,,
90,0,,html-keyboard-response,90,230335,0.0-4.13-3.13,b5wjp9h50qu,2022-09-19 17:33:43.945,614ee866eb22f6b60f499a91,0,51,50,29,23,58,male,,,"<p style=""font-size:50px"">You Lose!
No points this round.</p>",,,,,,,,,,,,,,,,,,,,,,,,,,,,
91,0,,html-keyboard-response,91,230855,0.0-4.13-4.13,b5wjp9h50qu,2022-09-19 17:33:43.945,614ee866eb22f6b60f499a91,0,51,50,29,23,58,male,,,,,,1.0,learning,13.0,B,,black,,stars,,,,B,black,stars,,0.0,1.0,0,right,600.1000000238,4.0,0.0,0.0,,,
92,0,,html-keyboard-response,92,232368,0.0-4.14-0.14,b5wjp9h50qu,2022-09-19 17:33:43.945,614ee866eb22f6b60f499a91,0,51,50,29,23,58,male,,,"<img src=""static/images/cards/stack_of_red_moons.svg"" width=""175px"" height=""250px""></img>",,,,,,,,,,,,,,,,,,,,,,,,,,,,
93,0,,html-keyboard-response,93,233759,0.0-4.14-1.14,b5wjp9h50qu,2022-09-19 17:33:43.945,614ee866eb22f6b60f499a91,0,51,50,29,23,58,male,878.2000000179,,"
  <table>
  <tr height=300>
    <td width=300 height=300><img src=""static/images/cards/back_of_red_moons.svg"" width=""175px"" height=""250px""></img></td>
    <td width=300 height=300><img src=""static/images/cards/back_of_red_moons.svg"" width=""175px"" height=""250px""></img></td>
  </tr>
  <tr height=200>
    <td width=300><img src=""static/images/keys/z.svg"" width=""35%"" height=""75%""></img></td>
    <td width=300><img src=""static/images/keys/m.svg"" width=""35%"" height=""75%""></img></td>
  </tr>
</table>
  ",77.0,1.0,,,,,,,,,,,,,,,,,,,,,,,,,,
94,0,,html-keyboard-response,94,235269,0.0-4.14-2.14,b5wjp9h50qu,2022-09-19 17:33:43.945,614ee866eb22f6b60f499a91,0,51,50,29,23,58,male,,,"
  <table>
  <tr height=300>
    <td width=300 height=300><img src=""static/images/cards/back_of_red_moons.svg"" width=""175px"" height=""250px""></img></td>
    <td width=300 height=300><img src=""static/images/cards/10_of_red_moons.svg"" width=""175px"" height=""250px""></img></td>
  </tr>
  <tr height=200>
    <td width=300><img src=""static/images/keys/z.svg"" width=""35%"" height=""75%""></img></td>
    <td width=300><img src=""static/images/keys/m.svg"" width=""35%"" height=""75%""></img></td>
  </tr>
</table>
  ",,,,,,,,,,,,,,,,,,,,,,,,,,,,
95,0,,html-keyboard-response,95,236785,0.0-4.14-3.14,b5wjp9h50qu,2022-09-19 17:33:43.945,614ee866eb22f6b60f499a91,0,51,50,29,23,58,male,,,"<p style=""font-size:50px"">You Lose!
No points this round.</p>",,,,,,,,,,,,,,,,,,,,,,,,,,,,
96,0,,html-keyboard-response,96,237304,0.0-4.14-4.14,b5wjp9h50qu,2022-09-19 17:33:43.945,614ee866eb22f6b60f499a91,0,51,50,29,23,58,male,,,,,,1.0,learning,14.0,C,,red,,moons,,,,C,red,moons,,1.0,0.0,NA,right,878.2000000179,10.0,1.0,0.0,,,
97,0,,html-keyboard-response,97,238807,0.0-4.15-0.15,b5wjp9h50qu,2022-09-19 17:33:43.945,614ee866eb22f6b60f499a91,0,51,50,29,23,58,male,,,"<img src=""static/images/cards/stack_of_black_moons.svg"" width=""175px"" height=""250px""></img>",,,,,,,,,,,,,,,,,,,,,,,,,,,,
98,0,,html-keyboard-response,98,239983,0.0-4.15-1.15,b5wjp9h50qu,2022-09-19 17:33:43.945,614ee866eb22f6b60f499a91,0,51,50,29,23,58,male,666.400000006,,"
  <table>
  <tr height=300>
    <td width=300 height=300><img src=""static/images/cards/back_of_black_moons.svg"" width=""175px"" height=""250px""></img></td>
    <td width=300 height=300><img src=""static/images/cards/back_of_black_moons.svg"" width=""175px"" height=""250px""></img></td>
  </tr>
  <tr height=200>
    <td width=300></td>
    <td width=300><img src=""static/images/keys/m.svg"" width=""35%"" height=""75%""></img></td>
  </tr>
</table>
  ",77.0,1.0,,,,,,,,,,,,,,,,,,,,,,,,,,
99,0,,html-keyboard-response,99,241491,0.0-4.15-2.15,b5wjp9h50qu,2022-09-19 17:33:43.945,614ee866eb22f6b60f499a91,0,51,50,29,23,58,male,,,"
  <table>
  <tr height=300>
    <td width=300 height=300><img src=""static/images/cards/back_of_black_moons.svg"" width=""175px"" height=""250px""></img></td>
    <td width=300 height=300><img src=""static/images/cards/9_of_black_moons.svg"" width=""175px"" height=""250px""></img></td>
  </tr>
  <tr height=200>
    <td width=300></td>
    <td width=300><img src=""static/images/keys/m.svg"" width=""35%"" height=""75%""></img></td>
  </tr>
</table>
  ",,,,,,,,,,,,,,,,,,,,,,,,,,,,
100,0,,html-keyboard-response,100,243013,0.0-4.15-3.15,b5wjp9h50qu,2022-09-19 17:33:43.945,614ee866eb22f6b60f499a91,0,51,50,29,23,58,male,,,"<p style=""font-size:50px"">You win!
+10 points this round!</p>",,,,,,,,,,,,,,,,,,,,,,,,,,,,
101,0,,html-keyboard-response,101,243526,0.0-4.15-4.15,b5wjp9h50qu,2022-09-19 17:33:43.945,614ee866eb22f6b60f499a91,0,51,50,29,23,58,male,,,,,,1.0,learning,15.0,D,,black,,moons,,,,D,black,moons,,0.0,0.0,0,right,666.400000006,9.0,1.0,1.0,,,
102,0,,html-keyboard-response,102,245030,0.0-4.16-0.16,b5wjp9h50qu,2022-09-19 17:33:43.945,614ee866eb22f6b60f499a91,0,51,50,29,23,58,male,,,"<img src=""static/images/cards/stack_of_red_bolts.svg"" width=""175px"" height=""250px""></img>",,,,,,,,,,,,,,,,,,,,,,,,,,,,
103,0,,html-keyboard-response,103,246350,0.0-4.16-1.16,b5wjp9h50qu,2022-09-19 17:33:43.945,614ee866eb22f6b60f499a91,0,51,50,29,23,58,male,807.7000000179,,"
  <table>
  <tr height=300>
    <td width=300 height=300><img src=""static/images/cards/back_of_red_bolts.svg"" width=""175px"" height=""250px""></img></td>
    <td width=300 height=300><img src=""static/images/cards/back_of_red_bolts.svg"" width=""175px"" height=""250px""></img></td>
  </tr>
  <tr height=200>
    <td width=300><img src=""static/images/keys/z.svg"" width=""35%"" height=""75%""></img></td>
    <td width=300><img src=""static/images/keys/m.svg"" width=""35%"" height=""75%""></img></td>
  </tr>
</table>
  ",90.0,1.0,,,,,,,,,,,,,,,,,,,,,,,,,,
104,0,,html-keyboard-response,104,247853,0.0-4.16-2.16,b5wjp9h50qu,2022-09-19 17:33:43.945,614ee866eb22f6b60f499a91,0,51,50,29,23,58,male,,,"
  <table>
  <tr height=300>
    <td width=300 height=300><img src=""static/images/cards/8_of_red_bolts.svg"" width=""175px"" height=""250px""></img></td>
    <td width=300 height=300><img src=""static/images/cards/back_of_red_bolts.svg"" width=""175px"" height=""250px""></img></td>
  </tr>
  <tr height=200>
    <td width=300><img src=""static/images/keys/z.svg"" width=""35%"" height=""75%""></img></td>
    <td width=300><img src=""static/images/keys/m.svg"" width=""35%"" height=""75%""></img></td>
  </tr>
</table>
  ",,,,,,,,,,,,,,,,,,,,,,,,,,,,
105,0,,html-keyboard-response,105,249376,0.0-4.16-3.16,b5wjp9h50qu,2022-09-19 17:33:43.945,614ee866eb22f6b60f499a91,0,51,50,29,23,58,male,,,"<p style=""font-size:50px"">You win!
+10 points this round!</p>",,,,,,,,,,,,,,,,,,,,,,,,,,,,
106,0,,html-keyboard-response,106,249893,0.0-4.16-4.16,b5wjp9h50qu,2022-09-19 17:33:43.945,614ee866eb22f6b60f499a91,0,51,50,29,23,58,male,,,,,,1.0,learning,16.0,Xc,,red,,bolts,,,,Xc,red,bolts,,1.0,0.0,NA,left,807.7000000179,8.0,1.0,1.0,,,
107,0,,html-keyboard-response,107,251404,0.0-4.17-0.17,b5wjp9h50qu,2022-09-19 17:33:43.945,614ee866eb22f6b60f499a91,0,51,50,29,23,58,male,,,"<img src=""static/images/cards/stack_of_black_bolts.svg"" width=""175px"" height=""250px""></img>",,,,,,,,,,,,,,,,,,,,,,,,,,,,
108,0,,html-keyboard-response,108,252567,0.0-4.17-1.17,b5wjp9h50qu,2022-09-19 17:33:43.945,614ee866eb22f6b60f499a91,0,51,50,29,23,58,male,647.0,,"
  <table>
  <tr height=300>
    <td width=300 height=300><img src=""static/images/cards/back_of_black_bolts.svg"" width=""175px"" height=""250px""></img></td>
    <td width=300 height=300><img src=""static/images/cards/back_of_black_bolts.svg"" width=""175px"" height=""250px""></img></td>
  </tr>
  <tr height=200>
    <td width=300><img src=""static/images/keys/z.svg"" width=""35%"" height=""75%""></img></td>
    <td width=300></td>
  </tr>
</table>
  ",90.0,1.0,,,,,,,,,,,,,,,,,,,,,,,,,,
109,0,,html-keyboard-response,109,254078,0.0-4.17-2.17,b5wjp9h50qu,2022-09-19 17:33:43.945,614ee866eb22f6b60f499a91,0,51,50,29,23,58,male,,,"
  <table>
  <tr height=300>
    <td width=300 height=300><img src=""static/images/cards/2_of_black_bolts.svg"" width=""175px"" height=""250px""></img></td>
    <td width=300 height=300><img src=""static/images/cards/back_of_black_bolts.svg"" width=""175px"" height=""250px""></img></td>
  </tr>
  <tr height=200>
    <td width=300><img src=""static/images/keys/z.svg"" width=""35%"" height=""75%""></img></td>
    <td width=300></td>
  </tr>
</table>
  ",,,,,,,,,,,,,,,,,,,,,,,,,,,,
110,0,,html-keyboard-response,110,255597,0.0-4.17-3.17,b5wjp9h50qu,2022-09-19 17:33:43.945,614ee866eb22f6b60f499a91,0,51,50,29,23,58,male,,,"<p style=""font-size:50px"">You win!
+10 points this round!</p>",,,,,,,,,,,,,,,,,,,,,,,,,,,,
111,0,,html-keyboard-response,111,256116,0.0-4.17-4.17,b5wjp9h50qu,2022-09-19 17:33:43.945,614ee866eb22f6b60f499a91,0,51,50,29,23,58,male,,,,,,1.0,learning,17.0,Xnc,,black,,bolts,,,,Xnc,black,bolts,,0.0,0.0,1,left,647.0,2.0,0.0,1.0,,,
112,0,,html-keyboard-response,112,257629,0.0-4.18-0.18,b5wjp9h50qu,2022-09-19 17:33:43.945,614ee866eb22f6b60f499a91,0,51,50,29,23,58,male,,,"<img src=""static/images/cards/stack_of_red_stars.svg"" width=""175px"" height=""250px""></img>",,,,,,,,,,,,,,,,,,,,,,,,,,,,
113,0,,html-keyboard-response,113,258839,0.0-4.18-1.18,b5wjp9h50qu,2022-09-19 17:33:43.945,614ee866eb22f6b60f499a91,0,51,50,29,23,58,male,693.099999994,,"
  <table>
  <tr height=300>
    <td width=300 height=300><img src=""static/images/cards/back_of_red_stars.svg"" width=""175px"" height=""250px""></img></td>
    <td width=300 height=300><img src=""static/images/cards/back_of_red_stars.svg"" width=""175px"" height=""250px""></img></td>
  </tr>
  <tr height=200>
    <td width=300><img src=""static/images/keys/z.svg"" width=""35%"" height=""75%""></img></td>
    <td width=300><img src=""static/images/keys/m.svg"" width=""35%"" height=""75%""></img></td>
  </tr>
</table>
  ",90.0,1.0,,,,,,,,,,,,,,,,,,,,,,,,,,
114,0,,html-keyboard-response,114,260355,0.0-4.18-2.18,b5wjp9h50qu,2022-09-19 17:33:43.945,614ee866eb22f6b60f499a91,0,51,50,29,23,58,male,,,"
  <table>
  <tr height=300>
    <td width=300 height=300><img src=""static/images/cards/4_of_red_stars.svg"" width=""175px"" height=""250px""></img></td>
    <td width=300 height=300><img src=""static/images/cards/back_of_red_stars.svg"" width=""175px"" height=""250px""></img></td>
  </tr>
  <tr height=200>
    <td width=300><img src=""static/images/keys/z.svg"" width=""35%"" height=""75%""></img></td>
    <td width=300><img src=""static/images/keys/m.svg"" width=""35%"" height=""75%""></img></td>
  </tr>
</table>
  ",,,,,,,,,,,,,,,,,,,,,,,,,,,,
115,0,,html-keyboard-response,115,261875,0.0-4.18-3.18,b5wjp9h50qu,2022-09-19 17:33:43.945,614ee866eb22f6b60f499a91,0,51,50,29,23,58,male,,,"<p style=""font-size:50px"">You Lose!
No points this round.</p>",,,,,,,,,,,,,,,,,,,,,,,,,,,,
116,0,,html-keyboard-response,116,262388,0.0-4.18-4.18,b5wjp9h50qu,2022-09-19 17:33:43.945,614ee866eb22f6b60f499a91,0,51,50,29,23,58,male,,,,,,1.0,learning,18.0,A,,red,,stars,,,,A,red,stars,,1.0,1.0,NA,left,693.099999994,4.0,0.0,0.0,,,
117,0,,html-keyboard-response,117,263894,0.0-4.19-0.19,b5wjp9h50qu,2022-09-19 17:33:43.945,614ee866eb22f6b60f499a91,0,51,50,29,23,58,male,,,"<img src=""static/images/cards/stack_of_black_stars.svg"" width=""175px"" height=""250px""></img>",,,,,,,,,,,,,,,,,,,,,,,,,,,,
118,0,,html-keyboard-response,118,264895,0.0-4.19-1.19,b5wjp9h50qu,2022-09-19 17:33:43.945,614ee866eb22f6b60f499a91,0,51,50,29,23,58,male,495.8000000119,,"
  <table>
  <tr height=300>
    <td width=300 height=300><img src=""static/images/cards/back_of_black_stars.svg"" width=""175px"" height=""250px""></img></td>
    <td width=300 height=300><img src=""static/images/cards/back_of_black_stars.svg"" width=""175px"" height=""250px""></img></td>
  </tr>
  <tr height=200>
    <td width=300><img src=""static/images/keys/z.svg"" width=""35%"" height=""75%""></img></td>
    <td width=300></td>
  </tr>
</table>
  ",90.0,1.0,,,,,,,,,,,,,,,,,,,,,,,,,,
119,0,,html-keyboard-response,119,266410,0.0-4.19-2.19,b5wjp9h50qu,2022-09-19 17:33:43.945,614ee866eb22f6b60f499a91,0,51,50,29,23,58,male,,,"
  <table>
  <tr height=300>
    <td width=300 height=300><img src=""static/images/cards/8_of_black_stars.svg"" width=""175px"" height=""250px""></img></td>
    <td width=300 height=300><img src=""static/images/cards/back_of_black_stars.svg"" width=""175px"" height=""250px""></img></td>
  </tr>
  <tr height=200>
    <td width=300><img src=""static/images/keys/z.svg"" width=""35%"" height=""75%""></img></td>
    <td width=300></td>
  </tr>
</table>
  ",,,,,,,,,,,,,,,,,,,,,,,,,,,,
120,0,,html-keyboard-response,120,267938,0.0-4.19-3.19,b5wjp9h50qu,2022-09-19 17:33:43.945,614ee866eb22f6b60f499a91,0,51,50,29,23,58,male,,,"<p style=""font-size:50px"">You win!
+10 points this round!</p>",,,,,,,,,,,,,,,,,,,,,,,,,,,,
121,0,,html-keyboard-response,121,268456,0.0-4.19-4.19,b5wjp9h50qu,2022-09-19 17:33:43.945,614ee866eb22f6b60f499a91,0,51,50,29,23,58,male,,,,,,1.0,learning,19.0,B,,black,,stars,,,,B,black,stars,,0.0,1.0,1,left,495.8000000119,8.0,1.0,1.0,,,
122,0,,html-keyboard-response,122,269963,0.0-4.20-0.20,b5wjp9h50qu,2022-09-19 17:33:43.945,614ee866eb22f6b60f499a91,0,51,50,29,23,58,male,,,"<img src=""static/images/cards/stack_of_red_moons.svg"" width=""175px"" height=""250px""></img>",,,,,,,,,,,,,,,,,,,,,,,,,,,,
123,0,,html-keyboard-response,123,271071,0.0-4.20-1.20,b5wjp9h50qu,2022-09-19 17:33:43.945,614ee866eb22f6b60f499a91,0,51,50,29,23,58,male,597.3999999762,,"
  <table>
  <tr height=300>
    <td width=300 height=300><img src=""static/images/cards/back_of_red_moons.svg"" width=""175px"" height=""250px""></img></td>
    <td width=300 height=300><img src=""static/images/cards/back_of_red_moons.svg"" width=""175px"" height=""250px""></img></td>
  </tr>
  <tr height=200>
    <td width=300><img src=""static/images/keys/z.svg"" width=""35%"" height=""75%""></img></td>
    <td width=300><img src=""static/images/keys/m.svg"" width=""35%"" height=""75%""></img></td>
  </tr>
</table>
  ",77.0,1.0,,,,,,,,,,,,,,,,,,,,,,,,,,
124,0,,html-keyboard-response,124,272588,0.0-4.20-2.20,b5wjp9h50qu,2022-09-19 17:33:43.945,614ee866eb22f6b60f499a91,0,51,50,29,23,58,male,,,"
  <table>
  <tr height=300>
    <td width=300 height=300><img src=""static/images/cards/back_of_red_moons.svg"" width=""175px"" height=""250px""></img></td>
    <td width=300 height=300><img src=""static/images/cards/1_of_red_moons.svg"" width=""175px"" height=""250px""></img></td>
  </tr>
  <tr height=200>
    <td width=300><img src=""static/images/keys/z.svg"" width=""35%"" height=""75%""></img></td>
    <td width=300><img src=""static/images/keys/m.svg"" width=""35%"" height=""75%""></img></td>
  </tr>
</table>
  ",,,,,,,,,,,,,,,,,,,,,,,,,,,,
125,0,,html-keyboard-response,125,274111,0.0-4.20-3.20,b5wjp9h50qu,2022-09-19 17:33:43.945,614ee866eb22f6b60f499a91,0,51,50,29,23,58,male,,,"<p style=""font-size:50px"">You Lose!
No points this round.</p>",,,,,,,,,,,,,,,,,,,,,,,,,,,,
126,0,,html-keyboard-response,126,274621,0.0-4.20-4.20,b5wjp9h50qu,2022-09-19 17:33:43.945,614ee866eb22f6b60f499a91,0,51,50,29,23,58,male,,,,,,1.0,learning,20.0,C,,red,,moons,,,,C,red,moons,,1.0,0.0,NA,right,597.3999999762,1.0,0.0,0.0,,,
127,0,,html-keyboard-response,127,276135,0.0-4.21-0.21,b5wjp9h50qu,2022-09-19 17:33:43.945,614ee866eb22f6b60f499a91,0,51,50,29,23,58,male,,,"<img src=""static/images/cards/stack_of_black_moons.svg"" width=""175px"" height=""250px""></img>",,,,,,,,,,,,,,,,,,,,,,,,,,,,
128,0,,html-keyboard-response,128,277247,0.0-4.21-1.21,b5wjp9h50qu,2022-09-19 17:33:43.945,614ee866eb22f6b60f499a91,0,51,50,29,23,58,male,596.5,,"
  <table>
  <tr height=300>
    <td width=300 height=300><img src=""static/images/cards/back_of_black_moons.svg"" width=""175px"" height=""250px""></img></td>
    <td width=300 height=300><img src=""static/images/cards/back_of_black_moons.svg"" width=""175px"" height=""250px""></img></td>
  </tr>
  <tr height=200>
    <td width=300></td>
    <td width=300><img src=""static/images/keys/m.svg"" width=""35%"" height=""75%""></img></td>
  </tr>
</table>
  ",77.0,1.0,,,,,,,,,,,,,,,,,,,,,,,,,,
129,0,,html-keyboard-response,129,278764,0.0-4.21-2.21,b5wjp9h50qu,2022-09-19 17:33:43.945,614ee866eb22f6b60f499a91,0,51,50,29,23,58,male,,,"
  <table>
  <tr height=300>
    <td width=300 height=300><img src=""static/images/cards/back_of_black_moons.svg"" width=""175px"" height=""250px""></img></td>
    <td width=300 height=300><img src=""static/images/cards/9_of_black_moons.svg"" width=""175px"" height=""250px""></img></td>
  </tr>
  <tr height=200>
    <td width=300></td>
    <td width=300><img src=""static/images/keys/m.svg"" width=""35%"" height=""75%""></img></td>
  </tr>
</table>
  ",,,,,,,,,,,,,,,,,,,,,,,,,,,,
130,0,,html-keyboard-response,130,280286,0.0-4.21-3.21,b5wjp9h50qu,2022-09-19 17:33:43.945,614ee866eb22f6b60f499a91,0,51,50,29,23,58,male,,,"<p style=""font-size:50px"">You Lose!
No points this round.</p>",,,,,,,,,,,,,,,,,,,,,,,,,,,,
131,0,,html-keyboard-response,131,280807,0.0-4.21-4.21,b5wjp9h50qu,2022-09-19 17:33:43.945,614ee866eb22f6b60f499a91,0,51,50,29,23,58,male,,,,,,1.0,learning,21.0,D,,black,,moons,,,,D,black,moons,,0.0,0.0,0,right,596.5,9.0,1.0,0.0,,,
132,0,,html-keyboard-response,132,282323,0.0-4.22-0.22,b5wjp9h50qu,2022-09-19 17:33:43.945,614ee866eb22f6b60f499a91,0,51,50,29,23,58,male,,,"<img src=""static/images/cards/stack_of_red_bolts.svg"" width=""175px"" height=""250px""></img>",,,,,,,,,,,,,,,,,,,,,,,,,,,,
133,0,,html-keyboard-response,133,283703,0.0-4.22-1.22,b5wjp9h50qu,2022-09-19 17:33:43.945,614ee866eb22f6b60f499a91,0,51,50,29,23,58,male,867.099999994,,"
  <table>
  <tr height=300>
    <td width=300 height=300><img src=""static/images/cards/back_of_red_bolts.svg"" width=""175px"" height=""250px""></img></td>
    <td width=300 height=300><img src=""static/images/cards/back_of_red_bolts.svg"" width=""175px"" height=""250px""></img></td>
  </tr>
  <tr height=200>
    <td width=300><img src=""static/images/keys/z.svg"" width=""35%"" height=""75%""></img></td>
    <td width=300><img src=""static/images/keys/m.svg"" width=""35%"" height=""75%""></img></td>
  </tr>
</table>
  ",90.0,1.0,,,,,,,,,,,,,,,,,,,,,,,,,,
134,0,,html-keyboard-response,134,285215,0.0-4.22-2.22,b5wjp9h50qu,2022-09-19 17:33:43.945,614ee866eb22f6b60f499a91,0,51,50,29,23,58,male,,,"
  <table>
  <tr height=300>
    <td width=300 height=300><img src=""static/images/cards/7_of_red_bolts.svg"" width=""175px"" height=""250px""></img></td>
    <td width=300 height=300><img src=""static/images/cards/back_of_red_bolts.svg"" width=""175px"" height=""250px""></img></td>
  </tr>
  <tr height=200>
    <td width=300><img src=""static/images/keys/z.svg"" width=""35%"" height=""75%""></img></td>
    <td width=300><img src=""static/images/keys/m.svg"" width=""35%"" height=""75%""></img></td>
  </tr>
</table>
  ",,,,,,,,,,,,,,,,,,,,,,,,,,,,
135,0,,html-keyboard-response,135,286736,0.0-4.22-3.22,b5wjp9h50qu,2022-09-19 17:33:43.945,614ee866eb22f6b60f499a91,0,51,50,29,23,58,male,,,"<p style=""font-size:50px"">You win!
+10 points this round!</p>",,,,,,,,,,,,,,,,,,,,,,,,,,,,
136,0,,html-keyboard-response,136,287250,0.0-4.22-4.22,b5wjp9h50qu,2022-09-19 17:33:43.945,614ee866eb22f6b60f499a91,0,51,50,29,23,58,male,,,,,,1.0,learning,22.0,Xc,,red,,bolts,,,,Xc,red,bolts,,1.0,0.0,NA,left,867.099999994,7.0,1.0,1.0,,,
137,0,,html-keyboard-response,137,288764,0.0-4.23-0.23,b5wjp9h50qu,2022-09-19 17:33:43.945,614ee866eb22f6b60f499a91,0,51,50,29,23,58,male,,,"<img src=""static/images/cards/stack_of_black_bolts.svg"" width=""175px"" height=""250px""></img>",,,,,,,,,,,,,,,,,,,,,,,,,,,,
138,0,,html-keyboard-response,138,289783,0.0-4.23-1.23,b5wjp9h50qu,2022-09-19 17:33:43.945,614ee866eb22f6b60f499a91,0,51,50,29,23,58,male,502.0,,"
  <table>
  <tr height=300>
    <td width=300 height=300><img src=""static/images/cards/back_of_black_bolts.svg"" width=""175px"" height=""250px""></img></td>
    <td width=300 height=300><img src=""static/images/cards/back_of_black_bolts.svg"" width=""175px"" height=""250px""></img></td>
  </tr>
  <tr height=200>
    <td width=300></td>
    <td width=300><img src=""static/images/keys/m.svg"" width=""35%"" height=""75%""></img></td>
  </tr>
</table>
  ",77.0,1.0,,,,,,,,,,,,,,,,,,,,,,,,,,
139,0,,html-keyboard-response,139,291301,0.0-4.23-2.23,b5wjp9h50qu,2022-09-19 17:33:43.945,614ee866eb22f6b60f499a91,0,51,50,29,23,58,male,,,"
  <table>
  <tr height=300>
    <td width=300 height=300><img src=""static/images/cards/back_of_black_bolts.svg"" width=""175px"" height=""250px""></img></td>
    <td width=300 height=300><img src=""static/images/cards/6_of_black_bolts.svg"" width=""175px"" height=""250px""></img></td>
  </tr>
  <tr height=200>
    <td width=300></td>
    <td width=300><img src=""static/images/keys/m.svg"" width=""35%"" height=""75%""></img></td>
  </tr>
</table>
  ",,,,,,,,,,,,,,,,,,,,,,,,,,,,
140,0,,html-keyboard-response,140,292809,0.0-4.23-3.23,b5wjp9h50qu,2022-09-19 17:33:43.945,614ee866eb22f6b60f499a91,0,51,50,29,23,58,male,,,"<p style=""font-size:50px"">You win!
+10 points this round!</p>",,,,,,,,,,,,,,,,,,,,,,,,,,,,
141,0,,html-keyboard-response,141,293327,0.0-4.23-4.23,b5wjp9h50qu,2022-09-19 17:33:43.945,614ee866eb22f6b60f499a91,0,51,50,29,23,58,male,,,,,,1.0,learning,23.0,Xnc,,black,,bolts,,,,Xnc,black,bolts,,0.0,0.0,0,right,502.0,6.0,1.0,1.0,,,
142,0,,call-function,142,293340,0.0-5.0,b5wjp9h50qu,2022-09-19 17:33:43.945,614ee866eb22f6b60f499a91,0,51,50,29,23,58,male,,,,,,,,,,,,,,,,,,,,,,,,,,,,,,,
143,0,,image-keyboard-response,143,299470,0.0-6.0-0.0,b5wjp9h50qu,2022-09-19 17:33:43.945,614ee866eb22f6b60f499a91,0,51,50,29,23,58,male,6129.7000000179,,static/images/instructions_CB_0/Slide20.png,39.0,,,,,,,,,,,,,,,,,,,,,,,,,,,
144,0,,image-keyboard-response,144,313751,0.0-6.1-0.1,b5wjp9h50qu,2022-09-19 17:33:43.945,614ee866eb22f6b60f499a91,0,51,50,29,23,58,male,14280.099999994,,static/images/instructions_CB_0/Slide21.png,39.0,,,,,,,,,,,,,,,,,,,,,,,,,,,
145,0,,image-keyboard-response,145,395046,0.0-6.2-0.2,b5wjp9h50qu,2022-09-19 17:33:43.945,614ee866eb22f6b60f499a91,0,51,50,29,23,58,male,81293.8999999762,,static/images/instructions_CB_0/Slide22.png,37.0,,,,,,,,,,,,,,,,,,,,,,,,,,,
146,0,,image-keyboard-response,146,396943,0.0-6.3-0.3,b5wjp9h50qu,2022-09-19 17:33:43.945,614ee866eb22f6b60f499a91,0,51,50,29,23,58,male,1895.400000006,,static/images/instructions_CB_0/Slide21.png,39.0,,,,,,,,,,,,,,,,,,,,,,,,,,,
147,0,,image-keyboard-response,147,398694,0.0-6.4-0.4,b5wjp9h50qu,2022-09-19 17:33:43.945,614ee866eb22f6b60f499a91,0,51,50,29,23,58,male,1749.5,,static/images/instructions_CB_0/Slide22.png,39.0,,,,,,,,,,,,,,,,,,,,,,,,,,,
148,0,,image-keyboard-response,148,399974,0.0-6.5-0.5,b5wjp9h50qu,2022-09-19 17:33:43.945,614ee866eb22f6b60f499a91,0,51,50,29,23,58,male,1279.8999999762,,static/images/instructions_CB_0/Slide23.png,37.0,,,,,,,,,,,,,,,,,,,,,,,,,,,
149,0,,image-keyboard-response,149,408191,0.0-6.6-0.6,b5wjp9h50qu,2022-09-19 17:33:43.945,614ee866eb22f6b60f499a91,0,51,50,29,23,58,male,8214.7000000179,,static/images/instructions_CB_0/Slide22.png,39.0,,,,,,,,,,,,,,,,,,,,,,,,,,,
150,0,,image-keyboard-response,150,440559,0.0-6.7-0.7,b5wjp9h50qu,2022-09-19 17:33:43.945,614ee866eb22f6b60f499a91,0,51,50,29,23,58,male,32366.2000000179,,static/images/instructions_CB_0/Slide23.png,37.0,,,,,,,,,,,,,,,,,,,,,,,,,,,
151,0,,image-keyboard-response,151,441989,0.0-6.8-0.8,b5wjp9h50qu,2022-09-19 17:33:43.945,614ee866eb22f6b60f499a91,0,51,50,29,23,58,male,1429.2999999821,,static/images/instructions_CB_0/Slide22.png,39.0,,,,,,,,,,,,,,,,,,,,,,,,,,,
152,0,,image-keyboard-response,152,443238,0.0-6.9-0.9,b5wjp9h50qu,2022-09-19 17:33:43.945,614ee866eb22f6b60f499a91,0,51,50,29,23,58,male,1247.900000006,,static/images/instructions_CB_0/Slide23.png,37.0,,,,,,,,,,,,,,,,,,,,,,,,,,,
153,0,,image-keyboard-response,153,447262,0.0-6.10-0.10,b5wjp9h50qu,2022-09-19 17:33:43.945,614ee866eb22f6b60f499a91,0,51,50,29,23,58,male,4022.0,,static/images/instructions_CB_0/Slide22.png,37.0,,,,,,,,,,,,,,,,,,,,,,,,,,,
154,0,,image-keyboard-response,154,450174,0.0-6.11-0.11,b5wjp9h50qu,2022-09-19 17:33:43.945,614ee866eb22f6b60f499a91,0,51,50,29,23,58,male,2910.1999999881,,static/images/instructions_CB_0/Slide21.png,37.0,,,,,,,,,,,,,,,,,,,,,,,,,,,
155,0,,image-keyboard-response,155,452486,0.0-6.12-0.12,b5wjp9h50qu,2022-09-19 17:33:43.945,614ee866eb22f6b60f499a91,0,51,50,29,23,58,male,2311.0,,static/images/instructions_CB_0/Slide20.png,39.0,,,,,,,,,,,,,,,,,,,,,,,,,,,
156,0,,image-keyboard-response,156,457006,0.0-6.13-0.13,b5wjp9h50qu,2022-09-19 17:33:43.945,614ee866eb22f6b60f499a91,0,51,50,29,23,58,male,4518.8999999762,,static/images/instructions_CB_0/Slide21.png,39.0,,,,,,,,,,,,,,,,,,,,,,,,,,,
157,0,,image-keyboard-response,157,465494,0.0-6.14-0.14,b5wjp9h50qu,2022-09-19 17:33:43.945,614ee866eb22f6b60f499a91,0,51,50,29,23,58,male,8486.5,,static/images/instructions_CB_0/Slide22.png,39.0,,,,,,,,,,,,,,,,,,,,,,,,,,,
158,0,,image-keyboard-response,158,467974,0.0-6.15-0.15,b5wjp9h50qu,2022-09-19 17:33:43.945,614ee866eb22f6b60f499a91,0,51,50,29,23,58,male,2479.2000000179,,static/images/instructions_CB_0/Slide23.png,39.0,,,,,,,,,,,,,,,,,,,,,,,,,,,
159,0,,image-keyboard-response,159,487111,0.0-6.16-0.16,b5wjp9h50qu,2022-09-19 17:33:43.945,614ee866eb22f6b60f499a91,0,51,50,29,23,58,male,19135.6999999881,,static/images/instructions_CB_0/Slide24.png,39.0,,,,,,,,,,,,,,,,,,,,,,,,,,,
160,0,,html-keyboard-response,160,492120,0.0-7.0-0.0,b5wjp9h50qu,2022-09-19 17:33:43.945,614ee866eb22f6b60f499a91,0,51,50,29,23,58,male,,,"
  <table>
  <tr height=300>
    <td width=300 height=300><img src=""static/images/cards/stack_of_black_stars.svg"" width=""175px"" height=""250px""></img></td>
    <td width=300 height=300><img src=""static/images/cards/stack_of_black_moons.svg"" width=""175px"" height=""250px""></img></td>
  </tr>
  <tr height=200>
    <td width=300><img src=""static/images/keys/w.svg"" width=""35%"" height=""75%""></img></td>
    <td width=300><img src=""static/images/keys/o.svg"" width=""35%"" height=""75%""></img></td>
  </tr>
</table>
  ",,,,,,,,,,,,,,,,,,,,,,,,,,,,
161,0,,html-keyboard-response,161,492635,0.0-7.0-1.0,b5wjp9h50qu,2022-09-19 17:33:43.945,614ee866eb22f6b60f499a91,0,51,50,29,23,58,male,,,,,,,,,,,,,,,,,,,,,,,,,,,,,,,
162,0,,html-keyboard-response,162,492637,0.0-7.0-2.0,b5wjp9h50qu,2022-09-19 17:33:43.945,614ee866eb22f6b60f499a91,0,51,50,29,23,58,male,,,,,,,,,,,,,,,,,,,,,,,,,,,,,,,
163,0,,html-keyboard-response,163,494155,0.0-7.0-3.0,b5wjp9h50qu,2022-09-19 17:33:43.945,614ee866eb22f6b60f499a91,0,51,50,29,23,58,male,,,"<p style=""font-size:50px"">Too slow!</p>",,,,,,,,,,,,,,,,,,,,,,,,,,,,
164,0,,html-keyboard-response,164,494671,0.0-7.0-4.0,b5wjp9h50qu,2022-09-19 17:33:43.945,614ee866eb22f6b60f499a91,0,51,50,29,23,58,male,,,,,,1.0,choice,0.0,B,D,black,black,stars,moons,B,D,,,,,0.0,0.0,0,,,6.0,1.0,1.0,,,
165,0,,html-keyboard-response,165,495807,0.0-7.1-0.1,b5wjp9h50qu,2022-09-19 17:33:43.945,614ee866eb22f6b60f499a91,0,51,50,29,23,58,male,1133.5,,"
  <table>
  <tr height=300>
    <td width=300 height=300><img src=""static/images/cards/stack_of_red_stars.svg"" width=""175px"" height=""250px""></img></td>
    <td width=300 height=300><img src=""static/images/cards/stack_of_black_moons.svg"" width=""175px"" height=""250px""></img></td>
  </tr>
  <tr height=200>
    <td width=300><img src=""static/images/keys/w.svg"" width=""35%"" height=""75%""></img></td>
    <td width=300><img src=""static/images/keys/o.svg"" width=""35%"" height=""75%""></img></td>
  </tr>
</table>
  ",87.0,1.0,,,,,,,,,,,,,,,,,,,,,,,,,,
166,0,,html-keyboard-response,166,498991,0.0-7.1-1.1,b5wjp9h50qu,2022-09-19 17:33:43.945,614ee866eb22f6b60f499a91,0,51,50,29,23,58,male,2672.6999999881,,"
  <table>
  <tr height=300>
    <td width=300 height=300><img src=""static/images/cards/back_of_red_stars.svg"" width=""175px"" height=""250px""></img></td>
    <td width=300 height=300><img src=""static/images/cards/back_of_red_stars.svg"" width=""175px"" height=""250px""></img></td>
  </tr>
  <tr height=200>
    <td width=300><img src=""static/images/keys/z.svg"" width=""35%"" height=""75%""></img></td>
    <td width=300><img src=""static/images/keys/m.svg"" width=""35%"" height=""75%""></img></td>
  </tr>
</table>
  ",90.0,1.0,,,,,,,,,,,,,,,,,,,,,,,,,,
167,0,,html-keyboard-response,167,500495,0.0-7.1-2.1,b5wjp9h50qu,2022-09-19 17:33:43.945,614ee866eb22f6b60f499a91,0,51,50,29,23,58,male,,,"
  <table>
  <tr height=300>
    <td width=300 height=300><img src=""static/images/cards/8_of_red_stars.svg"" width=""175px"" height=""250px""></img></td>
    <td width=300 height=300><img src=""static/images/cards/back_of_red_stars.svg"" width=""175px"" height=""250px""></img></td>
  </tr>
  <tr height=200>
    <td width=300><img src=""static/images/keys/z.svg"" width=""35%"" height=""75%""></img></td>
    <td width=300><img src=""static/images/keys/m.svg"" width=""35%"" height=""75%""></img></td>
  </tr>
</table>
  ",,,,,,,,,,,,,,,,,,,,,,,,,,,,
168,0,,html-keyboard-response,168,502017,0.0-7.1-3.1,b5wjp9h50qu,2022-09-19 17:33:43.945,614ee866eb22f6b60f499a91,0,51,50,29,23,58,male,,,"<p style=""font-size:50px"">You win!
+10 points this round!</p>",,,,,,,,,,,,,,,,,,,,,,,,,,,,
169,0,,html-keyboard-response,169,502534,0.0-7.1-4.1,b5wjp9h50qu,2022-09-19 17:33:43.945,614ee866eb22f6b60f499a91,0,51,50,29,23,58,male,,,,,,1.0,choice,1.0,A,D,red,black,stars,moons,A,D,A,red,stars,1133.5,1.0,1.0,NA,left,2672.6999999881,8.0,1.0,1.0,,,
170,0,,html-keyboard-response,170,506166,0.0-7.2-0.2,b5wjp9h50qu,2022-09-19 17:33:43.945,614ee866eb22f6b60f499a91,0,51,50,29,23,58,male,3629.400000006,,"
  <table>
  <tr height=300>
    <td width=300 height=300><img src=""static/images/cards/stack_of_black_stars.svg"" width=""175px"" height=""250px""></img></td>
    <td width=300 height=300><img src=""static/images/cards/stack_of_red_stars.svg"" width=""175px"" height=""250px""></img></td>
  </tr>
  <tr height=200>
    <td width=300><img src=""static/images/keys/w.svg"" width=""35%"" height=""75%""></img></td>
    <td width=300><img src=""static/images/keys/o.svg"" width=""35%"" height=""75%""></img></td>
  </tr>
</table>
  ",79.0,2.0,,,,,,,,,,,,,,,,,,,,,,,,,,
171,0,,html-keyboard-response,171,507950,0.0-7.2-1.2,b5wjp9h50qu,2022-09-19 17:33:43.945,614ee866eb22f6b60f499a91,0,51,50,29,23,58,male,1265.599999994,,"
  <table>
  <tr height=300>
    <td width=300 height=300><img src=""static/images/cards/back_of_red_stars.svg"" width=""175px"" height=""250px""></img></td>
    <td width=300 height=300><img src=""static/images/cards/back_of_red_stars.svg"" width=""175px"" height=""250px""></img></td>
  </tr>
  <tr height=200>
    <td width=300><img src=""static/images/keys/z.svg"" width=""35%"" height=""75%""></img></td>
    <td width=300><img src=""static/images/keys/m.svg"" width=""35%"" height=""75%""></img></td>
  </tr>
</table>
  ",90.0,1.0,,,,,,,,,,,,,,,,,,,,,,,,,,
172,0,,html-keyboard-response,172,509461,0.0-7.2-2.2,b5wjp9h50qu,2022-09-19 17:33:43.945,614ee866eb22f6b60f499a91,0,51,50,29,23,58,male,,,"
  <table>
  <tr height=300>
    <td width=300 height=300><img src=""static/images/cards/10_of_red_stars.svg"" width=""175px"" height=""250px""></img></td>
    <td width=300 height=300><img src=""static/images/cards/back_of_red_stars.svg"" width=""175px"" height=""250px""></img></td>
  </tr>
  <tr height=200>
    <td width=300><img src=""static/images/keys/z.svg"" width=""35%"" height=""75%""></img></td>
    <td width=300><img src=""static/images/keys/m.svg"" width=""35%"" height=""75%""></img></td>
  </tr>
</table>
  ",,,,,,,,,,,,,,,,,,,,,,,,,,,,
173,0,,html-keyboard-response,173,510982,0.0-7.2-3.2,b5wjp9h50qu,2022-09-19 17:33:43.945,614ee866eb22f6b60f499a91,0,51,50,29,23,58,male,,,"<p style=""font-size:50px"">You win!
+10 points this round!</p>",,,,,,,,,,,,,,,,,,,,,,,,,,,,
174,0,,html-keyboard-response,174,511497,0.0-7.2-4.2,b5wjp9h50qu,2022-09-19 17:33:43.945,614ee866eb22f6b60f499a91,0,51,50,29,23,58,male,,,,,,1.0,choice,2.0,A,B,black,red,stars,stars,B,A,A,red,stars,3629.400000006,1.0,1.0,NA,left,1265.599999994,10.0,1.0,1.0,,,
175,0,,html-keyboard-response,175,514399,0.0-7.3-0.3,b5wjp9h50qu,2022-09-19 17:33:43.945,614ee866eb22f6b60f499a91,0,51,50,29,23,58,male,2899.400000006,,"
  <table>
  <tr height=300>
    <td width=300 height=300><img src=""static/images/cards/stack_of_black_stars.svg"" width=""175px"" height=""250px""></img></td>
    <td width=300 height=300><img src=""static/images/cards/stack_of_red_moons.svg"" width=""175px"" height=""250px""></img></td>
  </tr>
  <tr height=200>
    <td width=300><img src=""static/images/keys/w.svg"" width=""35%"" height=""75%""></img></td>
    <td width=300><img src=""static/images/keys/o.svg"" width=""35%"" height=""75%""></img></td>
  </tr>
</table>
  ",87.0,1.0,,,,,,,,,,,,,,,,,,,,,,,,,,
176,0,,html-keyboard-response,176,515535,0.0-7.3-1.3,b5wjp9h50qu,2022-09-19 17:33:43.945,614ee866eb22f6b60f499a91,0,51,50,29,23,58,male,621.5,,"
  <table>
  <tr height=300>
    <td width=300 height=300><img src=""static/images/cards/back_of_black_stars.svg"" width=""175px"" height=""250px""></img></td>
    <td width=300 height=300><img src=""static/images/cards/back_of_black_stars.svg"" width=""175px"" height=""250px""></img></td>
  </tr>
  <tr height=200>
    <td width=300></td>
    <td width=300><img src=""static/images/keys/m.svg"" width=""35%"" height=""75%""></img></td>
  </tr>
</table>
  ",77.0,1.0,,,,,,,,,,,,,,,,,,,,,,,,,,
177,0,,html-keyboard-response,177,517052,0.0-7.3-2.3,b5wjp9h50qu,2022-09-19 17:33:43.945,614ee866eb22f6b60f499a91,0,51,50,29,23,58,male,,,"
  <table>
  <tr height=300>
    <td width=300 height=300><img src=""static/images/cards/back_of_black_stars.svg"" width=""175px"" height=""250px""></img></td>
    <td width=300 height=300><img src=""static/images/cards/2_of_black_stars.svg"" width=""175px"" height=""250px""></img></td>
  </tr>
  <tr height=200>
    <td width=300></td>
    <td width=300><img src=""static/images/keys/m.svg"" width=""35%"" height=""75%""></img></td>
  </tr>
</table>
  ",,,,,,,,,,,,,,,,,,,,,,,,,,,,
178,0,,html-keyboard-response,178,518570,0.0-7.3-3.3,b5wjp9h50qu,2022-09-19 17:33:43.945,614ee866eb22f6b60f499a91,0,51,50,29,23,58,male,,,"<p style=""font-size:50px"">You Lose!
No points this round.</p>",,,,,,,,,,,,,,,,,,,,,,,,,,,,
179,0,,html-keyboard-response,179,519077,0.0-7.3-4.3,b5wjp9h50qu,2022-09-19 17:33:43.945,614ee866eb22f6b60f499a91,0,51,50,29,23,58,male,,,,,,1.0,choice,3.0,B,C,black,red,stars,moons,B,C,B,black,stars,2899.400000006,0.0,1.0,0,right,621.5,2.0,0.0,0.0,,,
180,0,,html-keyboard-response,180,520982,0.0-7.4-0.4,b5wjp9h50qu,2022-09-19 17:33:43.945,614ee866eb22f6b60f499a91,0,51,50,29,23,58,male,1903.400000006,,"
  <table>
  <tr height=300>
    <td width=300 height=300><img src=""static/images/cards/stack_of_red_moons.svg"" width=""175px"" height=""250px""></img></td>
    <td width=300 height=300><img src=""static/images/cards/stack_of_black_bolts.svg"" width=""175px"" height=""250px""></img></td>
  </tr>
  <tr height=200>
    <td width=300><img src=""static/images/keys/w.svg"" width=""35%"" height=""75%""></img></td>
    <td width=300><img src=""static/images/keys/o.svg"" width=""35%"" height=""75%""></img></td>
  </tr>
</table>
  ",79.0,1.0,,,,,,,,,,,,,,,,,,,,,,,,,,
181,0,,html-keyboard-response,181,522239,0.0-7.4-1.4,b5wjp9h50qu,2022-09-19 17:33:43.945,614ee866eb22f6b60f499a91,0,51,50,29,23,58,male,753.1999999881,,"
  <table>
  <tr height=300>
    <td width=300 height=300><img src=""static/images/cards/back_of_black_bolts.svg"" width=""175px"" height=""250px""></img></td>
    <td width=300 height=300><img src=""static/images/cards/back_of_black_bolts.svg"" width=""175px"" height=""250px""></img></td>
  </tr>
  <tr height=200>
    <td width=300></td>
    <td width=300><img src=""static/images/keys/m.svg"" width=""35%"" height=""75%""></img></td>
  </tr>
</table>
  ",77.0,1.0,,,,,,,,,,,,,,,,,,,,,,,,,,
182,0,,html-keyboard-response,182,523745,0.0-7.4-2.4,b5wjp9h50qu,2022-09-19 17:33:43.945,614ee866eb22f6b60f499a91,0,51,50,29,23,58,male,,,"
  <table>
  <tr height=300>
    <td width=300 height=300><img src=""static/images/cards/back_of_black_bolts.svg"" width=""175px"" height=""250px""></img></td>
    <td width=300 height=300><img src=""static/images/cards/9_of_black_bolts.svg"" width=""175px"" height=""250px""></img></td>
  </tr>
  <tr height=200>
    <td width=300></td>
    <td width=300><img src=""static/images/keys/m.svg"" width=""35%"" height=""75%""></img></td>
  </tr>
</table>
  ",,,,,,,,,,,,,,,,,,,,,,,,,,,,
183,0,,html-keyboard-response,183,525266,0.0-7.4-3.4,b5wjp9h50qu,2022-09-19 17:33:43.945,614ee866eb22f6b60f499a91,0,51,50,29,23,58,male,,,"<p style=""font-size:50px"">You win!
+10 points this round!</p>",,,,,,,,,,,,,,,,,,,,,,,,,,,,
184,0,,html-keyboard-response,184,525788,0.0-7.4-4.4,b5wjp9h50qu,2022-09-19 17:33:43.945,614ee866eb22f6b60f499a91,0,51,50,29,23,58,male,,,,,,1.0,choice,4.0,C,Xnc,red,black,moons,bolts,C,Xnc,Xnc,black,bolts,1903.400000006,0.0,0.0,0,right,753.1999999881,9.0,1.0,1.0,,,
185,0,,html-keyboard-response,185,527439,0.0-7.5-0.5,b5wjp9h50qu,2022-09-19 17:33:43.945,614ee866eb22f6b60f499a91,0,51,50,29,23,58,male,1648.5,,"
  <table>
  <tr height=300>
    <td width=300 height=300><img src=""static/images/cards/stack_of_red_moons.svg"" width=""175px"" height=""250px""></img></td>
    <td width=300 height=300><img src=""static/images/cards/stack_of_black_moons.svg"" width=""175px"" height=""250px""></img></td>
  </tr>
  <tr height=200>
    <td width=300><img src=""static/images/keys/w.svg"" width=""35%"" height=""75%""></img></td>
    <td width=300><img src=""static/images/keys/o.svg"" width=""35%"" height=""75%""></img></td>
  </tr>
</table>
  ",87.0,1.0,,,,,,,,,,,,,,,,,,,,,,,,,,
186,0,,html-keyboard-response,186,528582,0.0-7.5-1.5,b5wjp9h50qu,2022-09-19 17:33:43.945,614ee866eb22f6b60f499a91,0,51,50,29,23,58,male,637.5,,"
  <table>
  <tr height=300>
    <td width=300 height=300><img src=""static/images/cards/back_of_red_moons.svg"" width=""175px"" height=""250px""></img></td>
    <td width=300 height=300><img src=""static/images/cards/back_of_red_moons.svg"" width=""175px"" height=""250px""></img></td>
  </tr>
  <tr height=200>
    <td width=300><img src=""static/images/keys/z.svg"" width=""35%"" height=""75%""></img></td>
    <td width=300><img src=""static/images/keys/m.svg"" width=""35%"" height=""75%""></img></td>
  </tr>
</table>
  ",77.0,1.0,,,,,,,,,,,,,,,,,,,,,,,,,,
187,0,,html-keyboard-response,187,530088,0.0-7.5-2.5,b5wjp9h50qu,2022-09-19 17:33:43.945,614ee866eb22f6b60f499a91,0,51,50,29,23,58,male,,,"
  <table>
  <tr height=300>
    <td width=300 height=300><img src=""static/images/cards/back_of_red_moons.svg"" width=""175px"" height=""250px""></img></td>
    <td width=300 height=300><img src=""static/images/cards/2_of_red_moons.svg"" width=""175px"" height=""250px""></img></td>
  </tr>
  <tr height=200>
    <td width=300><img src=""static/images/keys/z.svg"" width=""35%"" height=""75%""></img></td>
    <td width=300><img src=""static/images/keys/m.svg"" width=""35%"" height=""75%""></img></td>
  </tr>
</table>
  ",,,,,,,,,,,,,,,,,,,,,,,,,,,,
188,0,,html-keyboard-response,188,531608,0.0-7.5-3.5,b5wjp9h50qu,2022-09-19 17:33:43.945,614ee866eb22f6b60f499a91,0,51,50,29,23,58,male,,,"<p style=""font-size:50px"">You win!
+10 points this round!</p>",,,,,,,,,,,,,,,,,,,,,,,,,,,,
189,0,,html-keyboard-response,189,532121,0.0-7.5-4.5,b5wjp9h50qu,2022-09-19 17:33:43.945,614ee866eb22f6b60f499a91,0,51,50,29,23,58,male,,,,,,1.0,choice,5.0,C,D,red,black,moons,moons,C,D,C,red,moons,1648.5,1.0,0.0,NA,right,637.5,2.0,0.0,1.0,,,
190,0,,html-keyboard-response,190,533863,0.0-7.6-0.6,b5wjp9h50qu,2022-09-19 17:33:43.945,614ee866eb22f6b60f499a91,0,51,50,29,23,58,male,1739.2999999821,,"
  <table>
  <tr height=300>
    <td width=300 height=300><img src=""static/images/cards/stack_of_red_stars.svg"" width=""175px"" height=""250px""></img></td>
    <td width=300 height=300><img src=""static/images/cards/stack_of_black_stars.svg"" width=""175px"" height=""250px""></img></td>
  </tr>
  <tr height=200>
    <td width=300><img src=""static/images/keys/w.svg"" width=""35%"" height=""75%""></img></td>
    <td width=300><img src=""static/images/keys/o.svg"" width=""35%"" height=""75%""></img></td>
  </tr>
</table>
  ",87.0,2.0,,,,,,,,,,,,,,,,,,,,,,,,,,
191,0,,html-keyboard-response,191,535527,0.0-7.6-1.6,b5wjp9h50qu,2022-09-19 17:33:43.945,614ee866eb22f6b60f499a91,0,51,50,29,23,58,male,1149.1999999881,,"
  <table>
  <tr height=300>
    <td width=300 height=300><img src=""static/images/cards/back_of_red_stars.svg"" width=""175px"" height=""250px""></img></td>
    <td width=300 height=300><img src=""static/images/cards/back_of_red_stars.svg"" width=""175px"" height=""250px""></img></td>
  </tr>
  <tr height=200>
    <td width=300><img src=""static/images/keys/z.svg"" width=""35%"" height=""75%""></img></td>
    <td width=300><img src=""static/images/keys/m.svg"" width=""35%"" height=""75%""></img></td>
  </tr>
</table>
  ",90.0,1.0,,,,,,,,,,,,,,,,,,,,,,,,,,
192,0,,html-keyboard-response,192,537039,0.0-7.6-2.6,b5wjp9h50qu,2022-09-19 17:33:43.945,614ee866eb22f6b60f499a91,0,51,50,29,23,58,male,,,"
  <table>
  <tr height=300>
    <td width=300 height=300><img src=""static/images/cards/3_of_red_stars.svg"" width=""175px"" height=""250px""></img></td>
    <td width=300 height=300><img src=""static/images/cards/back_of_red_stars.svg"" width=""175px"" height=""250px""></img></td>
  </tr>
  <tr height=200>
    <td width=300><img src=""static/images/keys/z.svg"" width=""35%"" height=""75%""></img></td>
    <td width=300><img src=""static/images/keys/m.svg"" width=""35%"" height=""75%""></img></td>
  </tr>
</table>
  ",,,,,,,,,,,,,,,,,,,,,,,,,,,,
193,0,,html-keyboard-response,193,538553,0.0-7.6-3.6,b5wjp9h50qu,2022-09-19 17:33:43.945,614ee866eb22f6b60f499a91,0,51,50,29,23,58,male,,,"<p style=""font-size:50px"">You Lose!
No points this round.</p>",,,,,,,,,,,,,,,,,,,,,,,,,,,,
194,0,,html-keyboard-response,194,539073,0.0-7.6-4.6,b5wjp9h50qu,2022-09-19 17:33:43.945,614ee866eb22f6b60f499a91,0,51,50,29,23,58,male,,,,,,1.0,choice,6.0,A,B,red,black,stars,stars,A,B,A,red,stars,1739.2999999821,1.0,1.0,NA,left,1149.1999999881,3.0,0.0,0.0,,,
195,0,,html-keyboard-response,195,540047,0.0-7.7-0.7,b5wjp9h50qu,2022-09-19 17:33:43.945,614ee866eb22f6b60f499a91,0,51,50,29,23,58,male,972.5,,"
  <table>
  <tr height=300>
    <td width=300 height=300><img src=""static/images/cards/stack_of_black_stars.svg"" width=""175px"" height=""250px""></img></td>
    <td width=300 height=300><img src=""static/images/cards/stack_of_red_stars.svg"" width=""175px"" height=""250px""></img></td>
  </tr>
  <tr height=200>
    <td width=300><img src=""static/images/keys/w.svg"" width=""35%"" height=""75%""></img></td>
    <td width=300><img src=""static/images/keys/o.svg"" width=""35%"" height=""75%""></img></td>
  </tr>
</table>
  ",79.0,1.0,,,,,,,,,,,,,,,,,,,,,,,,,,
196,0,,html-keyboard-response,196,541214,0.0-7.7-1.7,b5wjp9h50qu,2022-09-19 17:33:43.945,614ee866eb22f6b60f499a91,0,51,50,29,23,58,male,663.1999999881,,"
  <table>
  <tr height=300>
    <td width=300 height=300><img src=""static/images/cards/back_of_red_stars.svg"" width=""175px"" height=""250px""></img></td>
    <td width=300 height=300><img src=""static/images/cards/back_of_red_stars.svg"" width=""175px"" height=""250px""></img></td>
  </tr>
  <tr height=200>
    <td width=300><img src=""static/images/keys/z.svg"" width=""35%"" height=""75%""></img></td>
    <td width=300><img src=""static/images/keys/m.svg"" width=""35%"" height=""75%""></img></td>
  </tr>
</table>
  ",77.0,1.0,,,,,,,,,,,,,,,,,,,,,,,,,,
197,0,,html-keyboard-response,197,542718,0.0-7.7-2.7,b5wjp9h50qu,2022-09-19 17:33:43.945,614ee866eb22f6b60f499a91,0,51,50,29,23,58,male,,,"
  <table>
  <tr height=300>
    <td width=300 height=300><img src=""static/images/cards/back_of_red_stars.svg"" width=""175px"" height=""250px""></img></td>
    <td width=300 height=300><img src=""static/images/cards/3_of_red_stars.svg"" width=""175px"" height=""250px""></img></td>
  </tr>
  <tr height=200>
    <td width=300><img src=""static/images/keys/z.svg"" width=""35%"" height=""75%""></img></td>
    <td width=300><img src=""static/images/keys/m.svg"" width=""35%"" height=""75%""></img></td>
  </tr>
</table>
  ",,,,,,,,,,,,,,,,,,,,,,,,,,,,
198,0,,html-keyboard-response,198,544239,0.0-7.7-3.7,b5wjp9h50qu,2022-09-19 17:33:43.945,614ee866eb22f6b60f499a91,0,51,50,29,23,58,male,,,"<p style=""font-size:50px"">You Lose!
No points this round.</p>",,,,,,,,,,,,,,,,,,,,,,,,,,,,
199,0,,html-keyboard-response,199,544758,0.0-7.7-4.7,b5wjp9h50qu,2022-09-19 17:33:43.945,614ee866eb22f6b60f499a91,0,51,50,29,23,58,male,,,,,,1.0,choice,7.0,A,B,black,red,stars,stars,B,A,A,red,stars,972.5,1.0,1.0,NA,right,663.1999999881,3.0,0.0,0.0,,,
200,0,,html-keyboard-response,200,546943,0.0-7.8-0.8,b5wjp9h50qu,2022-09-19 17:33:43.945,614ee866eb22f6b60f499a91,0,51,50,29,23,58,male,2181.5,,"
  <table>
  <tr height=300>
    <td width=300 height=300><img src=""static/images/cards/stack_of_black_stars.svg"" width=""175px"" height=""250px""></img></td>
    <td width=300 height=300><img src=""static/images/cards/stack_of_black_moons.svg"" width=""175px"" height=""250px""></img></td>
  </tr>
  <tr height=200>
    <td width=300><img src=""static/images/keys/w.svg"" width=""35%"" height=""75%""></img></td>
    <td width=300><img src=""static/images/keys/o.svg"" width=""35%"" height=""75%""></img></td>
  </tr>
</table>
  ",87.0,1.0,,,,,,,,,,,,,,,,,,,,,,,,,,
201,0,,html-keyboard-response,201,548166,0.0-7.8-1.8,b5wjp9h50qu,2022-09-19 17:33:43.945,614ee866eb22f6b60f499a91,0,51,50,29,23,58,male,712.0,,"
  <table>
  <tr height=300>
    <td width=300 height=300><img src=""static/images/cards/back_of_black_stars.svg"" width=""175px"" height=""250px""></img></td>
    <td width=300 height=300><img src=""static/images/cards/back_of_black_stars.svg"" width=""175px"" height=""250px""></img></td>
  </tr>
  <tr height=200>
    <td width=300></td>
    <td width=300><img src=""static/images/keys/m.svg"" width=""35%"" height=""75%""></img></td>
  </tr>
</table>
  ",77.0,1.0,,,,,,,,,,,,,,,,,,,,,,,,,,
202,0,,html-keyboard-response,202,549675,0.0-7.8-2.8,b5wjp9h50qu,2022-09-19 17:33:43.945,614ee866eb22f6b60f499a91,0,51,50,29,23,58,male,,,"
  <table>
  <tr height=300>
    <td width=300 height=300><img src=""static/images/cards/back_of_black_stars.svg"" width=""175px"" height=""250px""></img></td>
    <td width=300 height=300><img src=""static/images/cards/10_of_black_stars.svg"" width=""175px"" height=""250px""></img></td>
  </tr>
  <tr height=200>
    <td width=300></td>
    <td width=300><img src=""static/images/keys/m.svg"" width=""35%"" height=""75%""></img></td>
  </tr>
</table>
  ",,,,,,,,,,,,,,,,,,,,,,,,,,,,
203,0,,html-keyboard-response,203,551197,0.0-7.8-3.8,b5wjp9h50qu,2022-09-19 17:33:43.945,614ee866eb22f6b60f499a91,0,51,50,29,23,58,male,,,"<p style=""font-size:50px"">You win!
+10 points this round!</p>",,,,,,,,,,,,,,,,,,,,,,,,,,,,
204,0,,html-keyboard-response,204,551715,0.0-7.8-4.8,b5wjp9h50qu,2022-09-19 17:33:43.945,614ee866eb22f6b60f499a91,0,51,50,29,23,58,male,,,,,,1.0,choice,8.0,B,D,black,black,stars,moons,B,D,B,black,stars,2181.5,0.0,1.0,0,right,712.0,10.0,1.0,1.0,,,
205,0,,html-keyboard-response,205,553055,0.0-7.9-0.9,b5wjp9h50qu,2022-09-19 17:33:43.945,614ee866eb22f6b60f499a91,0,51,50,29,23,58,male,1337.099999994,,"
  <table>
  <tr height=300>
    <td width=300 height=300><img src=""static/images/cards/stack_of_red_stars.svg"" width=""175px"" height=""250px""></img></td>
    <td width=300 height=300><img src=""static/images/cards/stack_of_black_stars.svg"" width=""175px"" height=""250px""></img></td>
  </tr>
  <tr height=200>
    <td width=300><img src=""static/images/keys/w.svg"" width=""35%"" height=""75%""></img></td>
    <td width=300><img src=""static/images/keys/o.svg"" width=""35%"" height=""75%""></img></td>
  </tr>
</table>
  ",79.0,1.0,,,,,,,,,,,,,,,,,,,,,,,,,,
206,0,,html-keyboard-response,206,554055,0.0-7.9-1.9,b5wjp9h50qu,2022-09-19 17:33:43.945,614ee866eb22f6b60f499a91,0,51,50,29,23,58,male,485.0,,"
  <table>
  <tr height=300>
    <td width=300 height=300><img src=""static/images/cards/back_of_black_stars.svg"" width=""175px"" height=""250px""></img></td>
    <td width=300 height=300><img src=""static/images/cards/back_of_black_stars.svg"" width=""175px"" height=""250px""></img></td>
  </tr>
  <tr height=200>
    <td width=300><img src=""static/images/keys/z.svg"" width=""35%"" height=""75%""></img></td>
    <td width=300></td>
  </tr>
</table>
  ",90.0,1.0,,,,,,,,,,,,,,,,,,,,,,,,,,
207,0,,html-keyboard-response,207,555571,0.0-7.9-2.9,b5wjp9h50qu,2022-09-19 17:33:43.945,614ee866eb22f6b60f499a91,0,51,50,29,23,58,male,,,"
  <table>
  <tr height=300>
    <td width=300 height=300><img src=""static/images/cards/3_of_black_stars.svg"" width=""175px"" height=""250px""></img></td>
    <td width=300 height=300><img src=""static/images/cards/back_of_black_stars.svg"" width=""175px"" height=""250px""></img></td>
  </tr>
  <tr height=200>
    <td width=300><img src=""static/images/keys/z.svg"" width=""35%"" height=""75%""></img></td>
    <td width=300></td>
  </tr>
</table>
  ",,,,,,,,,,,,,,,,,,,,,,,,,,,,
208,0,,html-keyboard-response,208,557087,0.0-7.9-3.9,b5wjp9h50qu,2022-09-19 17:33:43.945,614ee866eb22f6b60f499a91,0,51,50,29,23,58,male,,,"<p style=""font-size:50px"">You Lose!
No points this round.</p>",,,,,,,,,,,,,,,,,,,,,,,,,,,,
209,0,,html-keyboard-response,209,557603,0.0-7.9-4.9,b5wjp9h50qu,2022-09-19 17:33:43.945,614ee866eb22f6b60f499a91,0,51,50,29,23,58,male,,,,,,1.0,choice,9.0,A,B,red,black,stars,stars,A,B,B,black,stars,1337.099999994,0.0,1.0,1,left,485.0,3.0,0.0,0.0,,,
210,0,,html-keyboard-response,210,558775,0.0-7.10-0.10,b5wjp9h50qu,2022-09-19 17:33:43.945,614ee866eb22f6b60f499a91,0,51,50,29,23,58,male,1168.900000006,,"
  <table>
  <tr height=300>
    <td width=300 height=300><img src=""static/images/cards/stack_of_red_stars.svg"" width=""175px"" height=""250px""></img></td>
    <td width=300 height=300><img src=""static/images/cards/stack_of_black_stars.svg"" width=""175px"" height=""250px""></img></td>
  </tr>
  <tr height=200>
    <td width=300><img src=""static/images/keys/w.svg"" width=""35%"" height=""75%""></img></td>
    <td width=300><img src=""static/images/keys/o.svg"" width=""35%"" height=""75%""></img></td>
  </tr>
</table>
  ",87.0,1.0,,,,,,,,,,,,,,,,,,,,,,,,,,
211,0,,html-keyboard-response,211,559822,0.0-7.10-1.10,b5wjp9h50qu,2022-09-19 17:33:43.945,614ee866eb22f6b60f499a91,0,51,50,29,23,58,male,531.099999994,,"
  <table>
  <tr height=300>
    <td width=300 height=300><img src=""static/images/cards/back_of_red_stars.svg"" width=""175px"" height=""250px""></img></td>
    <td width=300 height=300><img src=""static/images/cards/back_of_red_stars.svg"" width=""175px"" height=""250px""></img></td>
  </tr>
  <tr height=200>
    <td width=300><img src=""static/images/keys/z.svg"" width=""35%"" height=""75%""></img></td>
    <td width=300><img src=""static/images/keys/m.svg"" width=""35%"" height=""75%""></img></td>
  </tr>
</table>
  ",77.0,1.0,,,,,,,,,,,,,,,,,,,,,,,,,,
212,0,,html-keyboard-response,212,561333,0.0-7.10-2.10,b5wjp9h50qu,2022-09-19 17:33:43.945,614ee866eb22f6b60f499a91,0,51,50,29,23,58,male,,,"
  <table>
  <tr height=300>
    <td width=300 height=300><img src=""static/images/cards/back_of_red_stars.svg"" width=""175px"" height=""250px""></img></td>
    <td width=300 height=300><img src=""static/images/cards/10_of_red_stars.svg"" width=""175px"" height=""250px""></img></td>
  </tr>
  <tr height=200>
    <td width=300><img src=""static/images/keys/z.svg"" width=""35%"" height=""75%""></img></td>
    <td width=300><img src=""static/images/keys/m.svg"" width=""35%"" height=""75%""></img></td>
  </tr>
</table>
  ",,,,,,,,,,,,,,,,,,,,,,,,,,,,
213,0,,html-keyboard-response,213,562853,0.0-7.10-3.10,b5wjp9h50qu,2022-09-19 17:33:43.945,614ee866eb22f6b60f499a91,0,51,50,29,23,58,male,,,"<p style=""font-size:50px"">You win!
+10 points this round!</p>",,,,,,,,,,,,,,,,,,,,,,,,,,,,
214,0,,html-keyboard-response,214,563368,0.0-7.10-4.10,b5wjp9h50qu,2022-09-19 17:33:43.945,614ee866eb22f6b60f499a91,0,51,50,29,23,58,male,,,,,,1.0,choice,10.0,A,B,red,black,stars,stars,A,B,A,red,stars,1168.900000006,1.0,1.0,NA,right,531.099999994,10.0,1.0,1.0,,,
215,0,,html-keyboard-response,215,565735,0.0-7.11-0.11,b5wjp9h50qu,2022-09-19 17:33:43.945,614ee866eb22f6b60f499a91,0,51,50,29,23,58,male,2364.5,,"
  <table>
  <tr height=300>
    <td width=300 height=300><img src=""static/images/cards/stack_of_red_moons.svg"" width=""175px"" height=""250px""></img></td>
    <td width=300 height=300><img src=""static/images/cards/stack_of_black_moons.svg"" width=""175px"" height=""250px""></img></td>
  </tr>
  <tr height=200>
    <td width=300><img src=""static/images/keys/w.svg"" width=""35%"" height=""75%""></img></td>
    <td width=300><img src=""static/images/keys/o.svg"" width=""35%"" height=""75%""></img></td>
  </tr>
</table>
  ",87.0,1.0,,,,,,,,,,,,,,,,,,,,,,,,,,
216,0,,html-keyboard-response,216,567102,0.0-7.11-1.11,b5wjp9h50qu,2022-09-19 17:33:43.945,614ee866eb22f6b60f499a91,0,51,50,29,23,58,male,858.0,,"
  <table>
  <tr height=300>
    <td width=300 height=300><img src=""static/images/cards/back_of_red_moons.svg"" width=""175px"" height=""250px""></img></td>
    <td width=300 height=300><img src=""static/images/cards/back_of_red_moons.svg"" width=""175px"" height=""250px""></img></td>
  </tr>
  <tr height=200>
    <td width=300><img src=""static/images/keys/z.svg"" width=""35%"" height=""75%""></img></td>
    <td width=300><img src=""static/images/keys/m.svg"" width=""35%"" height=""75%""></img></td>
  </tr>
</table>
  ",77.0,1.0,,,,,,,,,,,,,,,,,,,,,,,,,,
217,0,,html-keyboard-response,217,568616,0.0-7.11-2.11,b5wjp9h50qu,2022-09-19 17:33:43.945,614ee866eb22f6b60f499a91,0,51,50,29,23,58,male,,,"
  <table>
  <tr height=300>
    <td width=300 height=300><img src=""static/images/cards/back_of_red_moons.svg"" width=""175px"" height=""250px""></img></td>
    <td width=300 height=300><img src=""static/images/cards/7_of_red_moons.svg"" width=""175px"" height=""250px""></img></td>
  </tr>
  <tr height=200>
    <td width=300><img src=""static/images/keys/z.svg"" width=""35%"" height=""75%""></img></td>
    <td width=300><img src=""static/images/keys/m.svg"" width=""35%"" height=""75%""></img></td>
  </tr>
</table>
  ",,,,,,,,,,,,,,,,,,,,,,,,,,,,
218,0,,html-keyboard-response,218,570132,0.0-7.11-3.11,b5wjp9h50qu,2022-09-19 17:33:43.945,614ee866eb22f6b60f499a91,0,51,50,29,23,58,male,,,"<p style=""font-size:50px"">You Lose!
No points this round.</p>",,,,,,,,,,,,,,,,,,,,,,,,,,,,
219,0,,html-keyboard-response,219,570638,0.0-7.11-4.11,b5wjp9h50qu,2022-09-19 17:33:43.945,614ee866eb22f6b60f499a91,0,51,50,29,23,58,male,,,,,,1.0,choice,11.0,C,D,red,black,moons,moons,C,D,C,red,moons,2364.5,1.0,0.0,NA,right,858.0,7.0,1.0,0.0,,,
220,0,,html-keyboard-response,220,572118,0.0-7.12-0.12,b5wjp9h50qu,2022-09-19 17:33:43.945,614ee866eb22f6b60f499a91,0,51,50,29,23,58,male,1477.900000006,,"
  <table>
  <tr height=300>
    <td width=300 height=300><img src=""static/images/cards/stack_of_black_stars.svg"" width=""175px"" height=""250px""></img></td>
    <td width=300 height=300><img src=""static/images/cards/stack_of_black_moons.svg"" width=""175px"" height=""250px""></img></td>
  </tr>
  <tr height=200>
    <td width=300><img src=""static/images/keys/w.svg"" width=""35%"" height=""75%""></img></td>
    <td width=300><img src=""static/images/keys/o.svg"" width=""35%"" height=""75%""></img></td>
  </tr>
</table>
  ",87.0,1.0,,,,,,,,,,,,,,,,,,,,,,,,,,
221,0,,html-keyboard-response,221,573350,0.0-7.12-1.12,b5wjp9h50qu,2022-09-19 17:33:43.945,614ee866eb22f6b60f499a91,0,51,50,29,23,58,male,716.2999999821,,"
  <table>
  <tr height=300>
    <td width=300 height=300><img src=""static/images/cards/back_of_black_stars.svg"" width=""175px"" height=""250px""></img></td>
    <td width=300 height=300><img src=""static/images/cards/back_of_black_stars.svg"" width=""175px"" height=""250px""></img></td>
  </tr>
  <tr height=200>
    <td width=300><img src=""static/images/keys/z.svg"" width=""35%"" height=""75%""></img></td>
    <td width=300></td>
  </tr>
</table>
  ",90.0,1.0,,,,,,,,,,,,,,,,,,,,,,,,,,
222,0,,html-keyboard-response,222,574853,0.0-7.12-2.12,b5wjp9h50qu,2022-09-19 17:33:43.945,614ee866eb22f6b60f499a91,0,51,50,29,23,58,male,,,"
  <table>
  <tr height=300>
    <td width=300 height=300><img src=""static/images/cards/4_of_black_stars.svg"" width=""175px"" height=""250px""></img></td>
    <td width=300 height=300><img src=""static/images/cards/back_of_black_stars.svg"" width=""175px"" height=""250px""></img></td>
  </tr>
  <tr height=200>
    <td width=300><img src=""static/images/keys/z.svg"" width=""35%"" height=""75%""></img></td>
    <td width=300></td>
  </tr>
</table>
  ",,,,,,,,,,,,,,,,,,,,,,,,,,,,
223,0,,html-keyboard-response,223,576373,0.0-7.12-3.12,b5wjp9h50qu,2022-09-19 17:33:43.945,614ee866eb22f6b60f499a91,0,51,50,29,23,58,male,,,"<p style=""font-size:50px"">You Lose!
No points this round.</p>",,,,,,,,,,,,,,,,,,,,,,,,,,,,
224,0,,html-keyboard-response,224,576894,0.0-7.12-4.12,b5wjp9h50qu,2022-09-19 17:33:43.945,614ee866eb22f6b60f499a91,0,51,50,29,23,58,male,,,,,,1.0,choice,12.0,B,D,black,black,stars,moons,B,D,B,black,stars,1477.900000006,0.0,1.0,1,left,716.2999999821,4.0,0.0,0.0,,,
225,0,,html-keyboard-response,225,578135,0.0-7.13-0.13,b5wjp9h50qu,2022-09-19 17:33:43.945,614ee866eb22f6b60f499a91,0,51,50,29,23,58,male,1238.099999994,,"
  <table>
  <tr height=300>
    <td width=300 height=300><img src=""static/images/cards/stack_of_red_stars.svg"" width=""175px"" height=""250px""></img></td>
    <td width=300 height=300><img src=""static/images/cards/stack_of_red_moons.svg"" width=""175px"" height=""250px""></img></td>
  </tr>
  <tr height=200>
    <td width=300><img src=""static/images/keys/w.svg"" width=""35%"" height=""75%""></img></td>
    <td width=300><img src=""static/images/keys/o.svg"" width=""35%"" height=""75%""></img></td>
  </tr>
</table>
  ",87.0,1.0,,,,,,,,,,,,,,,,,,,,,,,,,,
226,0,,html-keyboard-response,226,579470,0.0-7.13-1.13,b5wjp9h50qu,2022-09-19 17:33:43.945,614ee866eb22f6b60f499a91,0,51,50,29,23,58,male,829.900000006,,"
  <table>
  <tr height=300>
    <td width=300 height=300><img src=""static/images/cards/back_of_red_stars.svg"" width=""175px"" height=""250px""></img></td>
    <td width=300 height=300><img src=""static/images/cards/back_of_red_stars.svg"" width=""175px"" height=""250px""></img></td>
  </tr>
  <tr height=200>
    <td width=300><img src=""static/images/keys/z.svg"" width=""35%"" height=""75%""></img></td>
    <td width=300><img src=""static/images/keys/m.svg"" width=""35%"" height=""75%""></img></td>
  </tr>
</table>
  ",77.0,1.0,,,,,,,,,,,,,,,,,,,,,,,,,,
227,0,,html-keyboard-response,227,580975,0.0-7.13-2.13,b5wjp9h50qu,2022-09-19 17:33:43.945,614ee866eb22f6b60f499a91,0,51,50,29,23,58,male,,,"
  <table>
  <tr height=300>
    <td width=300 height=300><img src=""static/images/cards/back_of_red_stars.svg"" width=""175px"" height=""250px""></img></td>
    <td width=300 height=300><img src=""static/images/cards/2_of_red_stars.svg"" width=""175px"" height=""250px""></img></td>
  </tr>
  <tr height=200>
    <td width=300><img src=""static/images/keys/z.svg"" width=""35%"" height=""75%""></img></td>
    <td width=300><img src=""static/images/keys/m.svg"" width=""35%"" height=""75%""></img></td>
  </tr>
</table>
  ",,,,,,,,,,,,,,,,,,,,,,,,,,,,
228,0,,html-keyboard-response,228,582498,0.0-7.13-3.13,b5wjp9h50qu,2022-09-19 17:33:43.945,614ee866eb22f6b60f499a91,0,51,50,29,23,58,male,,,"<p style=""font-size:50px"">You Lose!
No points this round.</p>",,,,,,,,,,,,,,,,,,,,,,,,,,,,
229,0,,html-keyboard-response,229,583017,0.0-7.13-4.13,b5wjp9h50qu,2022-09-19 17:33:43.945,614ee866eb22f6b60f499a91,0,51,50,29,23,58,male,,,,,,1.0,choice,13.0,A,C,red,red,stars,moons,A,C,A,red,stars,1238.099999994,1.0,1.0,NA,right,829.900000006,2.0,0.0,0.0,,,
230,0,,html-keyboard-response,230,584230,0.0-7.14-0.14,b5wjp9h50qu,2022-09-19 17:33:43.945,614ee866eb22f6b60f499a91,0,51,50,29,23,58,male,1210.1999999881,,"
  <table>
  <tr height=300>
    <td width=300 height=300><img src=""static/images/cards/stack_of_red_stars.svg"" width=""175px"" height=""250px""></img></td>
    <td width=300 height=300><img src=""static/images/cards/stack_of_black_moons.svg"" width=""175px"" height=""250px""></img></td>
  </tr>
  <tr height=200>
    <td width=300><img src=""static/images/keys/w.svg"" width=""35%"" height=""75%""></img></td>
    <td width=300><img src=""static/images/keys/o.svg"" width=""35%"" height=""75%""></img></td>
  </tr>
</table>
  ",87.0,1.0,,,,,,,,,,,,,,,,,,,,,,,,,,
231,0,,html-keyboard-response,231,585598,0.0-7.14-1.14,b5wjp9h50qu,2022-09-19 17:33:43.945,614ee866eb22f6b60f499a91,0,51,50,29,23,58,male,858.900000006,,"
  <table>
  <tr height=300>
    <td width=300 height=300><img src=""static/images/cards/back_of_red_stars.svg"" width=""175px"" height=""250px""></img></td>
    <td width=300 height=300><img src=""static/images/cards/back_of_red_stars.svg"" width=""175px"" height=""250px""></img></td>
  </tr>
  <tr height=200>
    <td width=300><img src=""static/images/keys/z.svg"" width=""35%"" height=""75%""></img></td>
    <td width=300><img src=""static/images/keys/m.svg"" width=""35%"" height=""75%""></img></td>
  </tr>
</table>
  ",77.0,1.0,,,,,,,,,,,,,,,,,,,,,,,,,,
232,0,,html-keyboard-response,232,587111,0.0-7.14-2.14,b5wjp9h50qu,2022-09-19 17:33:43.945,614ee866eb22f6b60f499a91,0,51,50,29,23,58,male,,,"
  <table>
  <tr height=300>
    <td width=300 height=300><img src=""static/images/cards/back_of_red_stars.svg"" width=""175px"" height=""250px""></img></td>
    <td width=300 height=300><img src=""static/images/cards/4_of_red_stars.svg"" width=""175px"" height=""250px""></img></td>
  </tr>
  <tr height=200>
    <td width=300><img src=""static/images/keys/z.svg"" width=""35%"" height=""75%""></img></td>
    <td width=300><img src=""static/images/keys/m.svg"" width=""35%"" height=""75%""></img></td>
  </tr>
</table>
  ",,,,,,,,,,,,,,,,,,,,,,,,,,,,
233,0,,html-keyboard-response,233,588625,0.0-7.14-3.14,b5wjp9h50qu,2022-09-19 17:33:43.945,614ee866eb22f6b60f499a91,0,51,50,29,23,58,male,,,"<p style=""font-size:50px"">You Lose!
No points this round.</p>",,,,,,,,,,,,,,,,,,,,,,,,,,,,
234,0,,html-keyboard-response,234,589142,0.0-7.14-4.14,b5wjp9h50qu,2022-09-19 17:33:43.945,614ee866eb22f6b60f499a91,0,51,50,29,23,58,male,,,,,,1.0,choice,14.0,A,D,red,black,stars,moons,A,D,A,red,stars,1210.1999999881,1.0,1.0,NA,right,858.900000006,4.0,0.0,0.0,,,
235,0,,html-keyboard-response,235,590207,0.0-7.15-0.15,b5wjp9h50qu,2022-09-19 17:33:43.945,614ee866eb22f6b60f499a91,0,51,50,29,23,58,male,1062.1999999881,,"
  <table>
  <tr height=300>
    <td width=300 height=300><img src=""static/images/cards/stack_of_red_moons.svg"" width=""175px"" height=""250px""></img></td>
    <td width=300 height=300><img src=""static/images/cards/stack_of_red_stars.svg"" width=""175px"" height=""250px""></img></td>
  </tr>
  <tr height=200>
    <td width=300><img src=""static/images/keys/w.svg"" width=""35%"" height=""75%""></img></td>
    <td width=300><img src=""static/images/keys/o.svg"" width=""35%"" height=""75%""></img></td>
  </tr>
</table>
  ",79.0,1.0,,,,,,,,,,,,,,,,,,,,,,,,,,
236,0,,html-keyboard-response,236,591222,0.0-7.15-1.15,b5wjp9h50qu,2022-09-19 17:33:43.945,614ee866eb22f6b60f499a91,0,51,50,29,23,58,male,507.7999999821,,"
  <table>
  <tr height=300>
    <td width=300 height=300><img src=""static/images/cards/back_of_red_stars.svg"" width=""175px"" height=""250px""></img></td>
    <td width=300 height=300><img src=""static/images/cards/back_of_red_stars.svg"" width=""175px"" height=""250px""></img></td>
  </tr>
  <tr height=200>
    <td width=300><img src=""static/images/keys/z.svg"" width=""35%"" height=""75%""></img></td>
    <td width=300><img src=""static/images/keys/m.svg"" width=""35%"" height=""75%""></img></td>
  </tr>
</table>
  ",90.0,1.0,,,,,,,,,,,,,,,,,,,,,,,,,,
237,0,,html-keyboard-response,237,592738,0.0-7.15-2.15,b5wjp9h50qu,2022-09-19 17:33:43.945,614ee866eb22f6b60f499a91,0,51,50,29,23,58,male,,,"
  <table>
  <tr height=300>
    <td width=300 height=300><img src=""static/images/cards/6_of_red_stars.svg"" width=""175px"" height=""250px""></img></td>
    <td width=300 height=300><img src=""static/images/cards/back_of_red_stars.svg"" width=""175px"" height=""250px""></img></td>
  </tr>
  <tr height=200>
    <td width=300><img src=""static/images/keys/z.svg"" width=""35%"" height=""75%""></img></td>
    <td width=300><img src=""static/images/keys/m.svg"" width=""35%"" height=""75%""></img></td>
  </tr>
</table>
  ",,,,,,,,,,,,,,,,,,,,,,,,,,,,
238,0,,html-keyboard-response,238,594255,0.0-7.15-3.15,b5wjp9h50qu,2022-09-19 17:33:43.945,614ee866eb22f6b60f499a91,0,51,50,29,23,58,male,,,"<p style=""font-size:50px"">You win!
+10 points this round!</p>",,,,,,,,,,,,,,,,,,,,,,,,,,,,
239,0,,html-keyboard-response,239,594776,0.0-7.15-4.15,b5wjp9h50qu,2022-09-19 17:33:43.945,614ee866eb22f6b60f499a91,0,51,50,29,23,58,male,,,,,,1.0,choice,15.0,A,C,red,red,moons,stars,C,A,A,red,stars,1062.1999999881,1.0,1.0,NA,left,507.7999999821,6.0,1.0,1.0,,,
240,0,,html-keyboard-response,240,595494,0.0-7.16-0.16,b5wjp9h50qu,2022-09-19 17:33:43.945,614ee866eb22f6b60f499a91,0,51,50,29,23,58,male,716.3000000119,,"
  <table>
  <tr height=300>
    <td width=300 height=300><img src=""static/images/cards/stack_of_black_moons.svg"" width=""175px"" height=""250px""></img></td>
    <td width=300 height=300><img src=""static/images/cards/stack_of_red_moons.svg"" width=""175px"" height=""250px""></img></td>
  </tr>
  <tr height=200>
    <td width=300><img src=""static/images/keys/w.svg"" width=""35%"" height=""75%""></img></td>
    <td width=300><img src=""static/images/keys/o.svg"" width=""35%"" height=""75%""></img></td>
  </tr>
</table>
  ",79.0,1.0,,,,,,,,,,,,,,,,,,,,,,,,,,
241,0,,html-keyboard-response,241,596598,0.0-7.16-1.16,b5wjp9h50qu,2022-09-19 17:33:43.945,614ee866eb22f6b60f499a91,0,51,50,29,23,58,male,600.099999994,,"
  <table>
  <tr height=300>
    <td width=300 height=300><img src=""static/images/cards/back_of_red_moons.svg"" width=""175px"" height=""250px""></img></td>
