,index,success,trial_type,trial_index,time_elapsed,internal_node_id,subject,date,prol_id,ctbl,sense_of_control_A,sense_of_control_B,sense_of_control_C,sense_of_control_D,age,gender,rt,url,stimulus,key_press,npress,is_data_trial,phase,trial,deck1,deck2,col1,col2,sym1,sym2,deck_l,deck_r,chosen_deck,chosen_col,chosen_sym,deck_rt,choose_choice,mutual_info,hidden_key,chosen_card,card_rt,player_num,win_card,outcome,mock_rating,response,responses
0,0,1.0,fullscreen,0,300411,0.0-0.0,axpxnw8k07l,2022-09-19 13:29:17.815,5f12e6ebfe50020009674aa7,3,63,58,26,24,39,Female,,,,,,,,,,,,,,,,,,,,,,,,,,,,,,,
1,0,,external-html,1,317209,0.0-1.0,axpxnw8k07l,2022-09-19 13:29:17.815,5f12e6ebfe50020009674aa7,3,63,58,26,24,39,Female,16459.0,static/js/sub/consent.html,,,,,,,,,,,,,,,,,,,,,,,,,,,,,
2,0,,call-function,2,317212,0.0-2.0,axpxnw8k07l,2022-09-19 13:29:17.815,5f12e6ebfe50020009674aa7,3,63,58,26,24,39,Female,,,,,,,,,,,,,,,,,,,,,,,,,,,,,,,
3,0,,image-keyboard-response,3,337620,0.0-3.0-0.0,axpxnw8k07l,2022-09-19 13:29:17.815,5f12e6ebfe50020009674aa7,3,63,58,26,24,39,Female,20407.0,,static/images/instructions_CB_3/Slide1.png,39.0,,,,,,,,,,,,,,,,,,,,,,,,,,,
4,0,,image-keyboard-response,4,349066,0.0-3.1-0.1,axpxnw8k07l,2022-09-19 13:29:17.815,5f12e6ebfe50020009674aa7,3,63,58,26,24,39,Female,11445.0,,static/images/instructions_CB_3/Slide2.png,39.0,,,,,,,,,,,,,,,,,,,,,,,,,,,
5,0,,image-keyboard-response,5,353472,0.0-3.2-0.2,axpxnw8k07l,2022-09-19 13:29:17.815,5f12e6ebfe50020009674aa7,3,63,58,26,24,39,Female,4403.0,,static/images/instructions_CB_3/Slide3.png,39.0,,,,,,,,,,,,,,,,,,,,,,,,,,,
6,0,,image-keyboard-response,6,355887,0.0-3.3-0.3,axpxnw8k07l,2022-09-19 13:29:17.815,5f12e6ebfe50020009674aa7,3,63,58,26,24,39,Female,2414.0,,static/images/instructions_CB_3/Slide4.png,39.0,,,,,,,,,,,,,,,,,,,,,,,,,,,
7,0,,image-keyboard-response,7,360483,0.0-3.4-0.4,axpxnw8k07l,2022-09-19 13:29:17.815,5f12e6ebfe50020009674aa7,3,63,58,26,24,39,Female,4594.0,,static/images/instructions_CB_3/Slide5.png,39.0,,,,,,,,,,,,,,,,,,,,,,,,,,,
8,0,,image-keyboard-response,8,361667,0.0-3.5-0.5,axpxnw8k07l,2022-09-19 13:29:17.815,5f12e6ebfe50020009674aa7,3,63,58,26,24,39,Female,1183.0,,static/images/instructions_CB_3/Slide6.png,39.0,,,,,,,,,,,,,,,,,,,,,,,,,,,
9,0,,image-keyboard-response,9,364446,0.0-3.6-0.6,axpxnw8k07l,2022-09-19 13:29:17.815,5f12e6ebfe50020009674aa7,3,63,58,26,24,39,Female,2776.0,,static/images/instructions_CB_3/Slide7.png,39.0,,,,,,,,,,,,,,,,,,,,,,,,,,,
10,0,,image-keyboard-response,10,378879,0.0-3.7-0.7,axpxnw8k07l,2022-09-19 13:29:17.815,5f12e6ebfe50020009674aa7,3,63,58,26,24,39,Female,14432.0,,static/images/instructions_CB_3/Slide8.png,39.0,,,,,,,,,,,,,,,,,,,,,,,,,,,
11,0,,image-keyboard-response,11,382478,0.0-3.8-0.8,axpxnw8k07l,2022-09-19 13:29:17.815,5f12e6ebfe50020009674aa7,3,63,58,26,24,39,Female,3597.0,,static/images/instructions_CB_3/Slide9.png,39.0,,,,,,,,,,,,,,,,,,,,,,,,,,,
12,0,,image-keyboard-response,12,389624,0.0-3.9-0.9,axpxnw8k07l,2022-09-19 13:29:17.815,5f12e6ebfe50020009674aa7,3,63,58,26,24,39,Female,7145.0,,static/images/instructions_CB_3/Slide10.png,39.0,,,,,,,,,,,,,,,,,,,,,,,,,,,
13,0,,image-keyboard-response,13,395170,0.0-3.10-0.10,axpxnw8k07l,2022-09-19 13:29:17.815,5f12e6ebfe50020009674aa7,3,63,58,26,24,39,Female,5545.0,,static/images/instructions_CB_3/Slide11.png,39.0,,,,,,,,,,,,,,,,,,,,,,,,,,,
14,0,,image-keyboard-response,14,430915,0.0-3.11-0.11,axpxnw8k07l,2022-09-19 13:29:17.815,5f12e6ebfe50020009674aa7,3,63,58,26,24,39,Female,35742.0,,static/images/instructions_CB_3/Slide12.png,39.0,,,,,,,,,,,,,,,,,,,,,,,,,,,
15,0,,image-keyboard-response,15,448284,0.0-3.12-0.12,axpxnw8k07l,2022-09-19 13:29:17.815,5f12e6ebfe50020009674aa7,3,63,58,26,24,39,Female,17368.0,,static/images/instructions_CB_3/Slide13.png,39.0,,,,,,,,,,,,,,,,,,,,,,,,,,,
16,0,,image-keyboard-response,16,450591,0.0-3.13-0.13,axpxnw8k07l,2022-09-19 13:29:17.815,5f12e6ebfe50020009674aa7,3,63,58,26,24,39,Female,2306.0,,static/images/instructions_CB_3/Slide14.png,39.0,,,,,,,,,,,,,,,,,,,,,,,,,,,
17,0,,image-keyboard-response,17,454172,0.0-3.14-0.14,axpxnw8k07l,2022-09-19 13:29:17.815,5f12e6ebfe50020009674aa7,3,63,58,26,24,39,Female,3580.0,,static/images/instructions_CB_3/Slide15.png,39.0,,,,,,,,,,,,,,,,,,,,,,,,,,,
18,0,,image-keyboard-response,18,458255,0.0-3.15-0.15,axpxnw8k07l,2022-09-19 13:29:17.815,5f12e6ebfe50020009674aa7,3,63,58,26,24,39,Female,4082.0,,static/images/instructions_CB_3/Slide16.png,39.0,,,,,,,,,,,,,,,,,,,,,,,,,,,
19,0,,image-keyboard-response,19,465275,0.0-3.16-0.16,axpxnw8k07l,2022-09-19 13:29:17.815,5f12e6ebfe50020009674aa7,3,63,58,26,24,39,Female,7019.0,,static/images/instructions_CB_3/Slide17.png,39.0,,,,,,,,,,,,,,,,,,,,,,,,,,,
20,0,,image-keyboard-response,20,473403,0.0-3.17-0.17,axpxnw8k07l,2022-09-19 13:29:17.815,5f12e6ebfe50020009674aa7,3,63,58,26,24,39,Female,8128.0,,static/images/instructions_CB_3/Slide18.png,39.0,,,,,,,,,,,,,,,,,,,,,,,,,,,
21,0,,image-keyboard-response,21,478994,0.0-3.18-0.18,axpxnw8k07l,2022-09-19 13:29:17.815,5f12e6ebfe50020009674aa7,3,63,58,26,24,39,Female,5589.0,,static/images/instructions_CB_3/Slide19.png,39.0,,,,,,,,,,,,,,,,,,,,,,,,,,,
22,0,,html-keyboard-response,22,480513,0.0-4.0-0.0,axpxnw8k07l,2022-09-19 13:29:17.815,5f12e6ebfe50020009674aa7,3,63,58,26,24,39,Female,,,"<img src=""static/images/cards/stack_of_black_moons.svg"" width=""175px"" height=""250px""></img>",,,,,,,,,,,,,,,,,,,,,,,,,,,,
23,0,,html-keyboard-response,23,482480,0.0-4.0-1.0,axpxnw8k07l,2022-09-19 13:29:17.815,5f12e6ebfe50020009674aa7,3,63,58,26,24,39,Female,1449.0,,"
  <table>
  <tr height=300>
    <td width=300 height=300><img src=""static/images/cards/back_of_black_moons.svg"" width=""175px"" height=""250px""></img></td>
    <td width=300 height=300><img src=""static/images/cards/back_of_black_moons.svg"" width=""175px"" height=""250px""></img></td>
  </tr>
  <tr height=200>
    <td width=300><img src=""static/images/keys/z.svg"" width=""35%"" height=""75%""></img></td>
    <td width=300><img src=""static/images/keys/m.svg"" width=""35%"" height=""75%""></img></td>
  </tr>
</table>
  ",77.0,1.0,,,,,,,,,,,,,,,,,,,,,,,,,,
24,0,,html-keyboard-response,24,483993,0.0-4.0-2.0,axpxnw8k07l,2022-09-19 13:29:17.815,5f12e6ebfe50020009674aa7,3,63,58,26,24,39,Female,,,"
  <table>
  <tr height=300>
    <td width=300 height=300><img src=""static/images/cards/back_of_black_moons.svg"" width=""175px"" height=""250px""></img></td>
    <td width=300 height=300><img src=""static/images/cards/2_of_black_moons.svg"" width=""175px"" height=""250px""></img></td>
  </tr>
  <tr height=200>
    <td width=300><img src=""static/images/keys/z.svg"" width=""35%"" height=""75%""></img></td>
    <td width=300><img src=""static/images/keys/m.svg"" width=""35%"" height=""75%""></img></td>
  </tr>
</table>
  ",,,,,,,,,,,,,,,,,,,,,,,,,,,,
25,0,,html-keyboard-response,25,485526,0.0-4.0-3.0,axpxnw8k07l,2022-09-19 13:29:17.815,5f12e6ebfe50020009674aa7,3,63,58,26,24,39,Female,,,"<p style=""font-size:50px"">You Lose!
No points this round.</p>",,,,,,,,,,,,,,,,,,,,,,,,,,,,
26,0,,html-keyboard-response,26,486058,0.0-4.0-4.0,axpxnw8k07l,2022-09-19 13:29:17.815,5f12e6ebfe50020009674aa7,3,63,58,26,24,39,Female,,,,,,1.0,learning,0.0,A,,black,,moons,,,,A,black,moons,,1.0,1.0,NA,right,1449.0,2.0,0.0,0.0,,,
27,0,,html-keyboard-response,27,487574,0.0-4.1-0.1,axpxnw8k07l,2022-09-19 13:29:17.815,5f12e6ebfe50020009674aa7,3,63,58,26,24,39,Female,,,"<img src=""static/images/cards/stack_of_red_moons.svg"" width=""175px"" height=""250px""></img>",,,,,,,,,,,,,,,,,,,,,,,,,,,,
28,0,,html-keyboard-response,28,488884,0.0-4.1-1.1,axpxnw8k07l,2022-09-19 13:29:17.815,5f12e6ebfe50020009674aa7,3,63,58,26,24,39,Female,793.0,,"
  <table>
  <tr height=300>
    <td width=300 height=300><img src=""static/images/cards/back_of_red_moons.svg"" width=""175px"" height=""250px""></img></td>
    <td width=300 height=300><img src=""static/images/cards/back_of_red_moons.svg"" width=""175px"" height=""250px""></img></td>
  </tr>
  <tr height=200>
    <td width=300></td>
    <td width=300><img src=""static/images/keys/m.svg"" width=""35%"" height=""75%""></img></td>
  </tr>
</table>
  ",77.0,2.0,,,,,,,,,,,,,,,,,,,,,,,,,,
29,0,,html-keyboard-response,29,490389,0.0-4.1-2.1,axpxnw8k07l,2022-09-19 13:29:17.815,5f12e6ebfe50020009674aa7,3,63,58,26,24,39,Female,,,"
  <table>
  <tr height=300>
    <td width=300 height=300><img src=""static/images/cards/back_of_red_moons.svg"" width=""175px"" height=""250px""></img></td>
    <td width=300 height=300><img src=""static/images/cards/2_of_red_moons.svg"" width=""175px"" height=""250px""></img></td>
  </tr>
  <tr height=200>
    <td width=300></td>
    <td width=300><img src=""static/images/keys/m.svg"" width=""35%"" height=""75%""></img></td>
  </tr>
</table>
  ",,,,,,,,,,,,,,,,,,,,,,,,,,,,
30,0,,html-keyboard-response,30,491904,0.0-4.1-3.1,axpxnw8k07l,2022-09-19 13:29:17.815,5f12e6ebfe50020009674aa7,3,63,58,26,24,39,Female,,,"<p style=""font-size:50px"">You Lose!
No points this round.</p>",,,,,,,,,,,,,,,,,,,,,,,,,,,,
31,0,,html-keyboard-response,31,492437,0.0-4.1-4.1,axpxnw8k07l,2022-09-19 13:29:17.815,5f12e6ebfe50020009674aa7,3,63,58,26,24,39,Female,,,,,,1.0,learning,1.0,B,,red,,moons,,,,B,red,moons,,0.0,1.0,0,right,793.0,2.0,0.0,0.0,,,
32,0,,html-keyboard-response,32,493953,0.0-4.2-0.2,axpxnw8k07l,2022-09-19 13:29:17.815,5f12e6ebfe50020009674aa7,3,63,58,26,24,39,Female,,,"<img src=""static/images/cards/stack_of_black_stars.svg"" width=""175px"" height=""250px""></img>",,,,,,,,,,,,,,,,,,,,,,,,,,,,
33,0,,html-keyboard-response,33,494996,0.0-4.2-1.2,axpxnw8k07l,2022-09-19 13:29:17.815,5f12e6ebfe50020009674aa7,3,63,58,26,24,39,Female,525.0,,"
  <table>
  <tr height=300>
    <td width=300 height=300><img src=""static/images/cards/back_of_black_stars.svg"" width=""175px"" height=""250px""></img></td>
    <td width=300 height=300><img src=""static/images/cards/back_of_black_stars.svg"" width=""175px"" height=""250px""></img></td>
  </tr>
  <tr height=200>
    <td width=300><img src=""static/images/keys/z.svg"" width=""35%"" height=""75%""></img></td>
    <td width=300><img src=""static/images/keys/m.svg"" width=""35%"" height=""75%""></img></td>
  </tr>
</table>
  ",90.0,1.0,,,,,,,,,,,,,,,,,,,,,,,,,,
34,0,,html-keyboard-response,34,496501,0.0-4.2-2.2,axpxnw8k07l,2022-09-19 13:29:17.815,5f12e6ebfe50020009674aa7,3,63,58,26,24,39,Female,,,"
  <table>
  <tr height=300>
    <td width=300 height=300><img src=""static/images/cards/2_of_black_stars.svg"" width=""175px"" height=""250px""></img></td>
    <td width=300 height=300><img src=""static/images/cards/back_of_black_stars.svg"" width=""175px"" height=""250px""></img></td>
  </tr>
  <tr height=200>
    <td width=300><img src=""static/images/keys/z.svg"" width=""35%"" height=""75%""></img></td>
    <td width=300><img src=""static/images/keys/m.svg"" width=""35%"" height=""75%""></img></td>
  </tr>
</table>
  ",,,,,,,,,,,,,,,,,,,,,,,,,,,,
35,0,,html-keyboard-response,35,498034,0.0-4.2-3.2,axpxnw8k07l,2022-09-19 13:29:17.815,5f12e6ebfe50020009674aa7,3,63,58,26,24,39,Female,,,"<p style=""font-size:50px"">You win!
+10 points this round!</p>",,,,,,,,,,,,,,,,,,,,,,,,,,,,
36,0,,html-keyboard-response,36,498567,0.0-4.2-4.2,axpxnw8k07l,2022-09-19 13:29:17.815,5f12e6ebfe50020009674aa7,3,63,58,26,24,39,Female,,,,,,1.0,learning,2.0,C,,black,,stars,,,,C,black,stars,,1.0,0.0,NA,left,525.0,2.0,0.0,1.0,,,
37,0,,html-keyboard-response,37,500083,0.0-4.3-0.3,axpxnw8k07l,2022-09-19 13:29:17.815,5f12e6ebfe50020009674aa7,3,63,58,26,24,39,Female,,,"<img src=""static/images/cards/stack_of_red_stars.svg"" width=""175px"" height=""250px""></img>",,,,,,,,,,,,,,,,,,,,,,,,,,,,
38,0,,html-keyboard-response,38,501207,0.0-4.3-1.3,axpxnw8k07l,2022-09-19 13:29:17.815,5f12e6ebfe50020009674aa7,3,63,58,26,24,39,Female,607.0,,"
  <table>
  <tr height=300>
    <td width=300 height=300><img src=""static/images/cards/back_of_red_stars.svg"" width=""175px"" height=""250px""></img></td>
    <td width=300 height=300><img src=""static/images/cards/back_of_red_stars.svg"" width=""175px"" height=""250px""></img></td>
  </tr>
  <tr height=200>
    <td width=300><img src=""static/images/keys/z.svg"" width=""35%"" height=""75%""></img></td>
    <td width=300></td>
  </tr>
</table>
  ",90.0,1.0,,,,,,,,,,,,,,,,,,,,,,,,,,
39,0,,html-keyboard-response,39,502715,0.0-4.3-2.3,axpxnw8k07l,2022-09-19 13:29:17.815,5f12e6ebfe50020009674aa7,3,63,58,26,24,39,Female,,,"
  <table>
  <tr height=300>
    <td width=300 height=300><img src=""static/images/cards/2_of_red_stars.svg"" width=""175px"" height=""250px""></img></td>
    <td width=300 height=300><img src=""static/images/cards/back_of_red_stars.svg"" width=""175px"" height=""250px""></img></td>
  </tr>
  <tr height=200>
    <td width=300><img src=""static/images/keys/z.svg"" width=""35%"" height=""75%""></img></td>
    <td width=300></td>
  </tr>
</table>
  ",,,,,,,,,,,,,,,,,,,,,,,,,,,,
40,0,,html-keyboard-response,40,504247,0.0-4.3-3.3,axpxnw8k07l,2022-09-19 13:29:17.815,5f12e6ebfe50020009674aa7,3,63,58,26,24,39,Female,,,"<p style=""font-size:50px"">You win!
+10 points this round!</p>",,,,,,,,,,,,,,,,,,,,,,,,,,,,
41,0,,html-keyboard-response,41,504779,0.0-4.3-4.3,axpxnw8k07l,2022-09-19 13:29:17.815,5f12e6ebfe50020009674aa7,3,63,58,26,24,39,Female,,,,,,1.0,learning,3.0,D,,red,,stars,,,,D,red,stars,,0.0,0.0,1,left,607.0,2.0,0.0,1.0,,,
42,0,,html-keyboard-response,42,506294,0.0-4.4-0.4,axpxnw8k07l,2022-09-19 13:29:17.815,5f12e6ebfe50020009674aa7,3,63,58,26,24,39,Female,,,"<img src=""static/images/cards/stack_of_red_bolts.svg"" width=""175px"" height=""250px""></img>",,,,,,,,,,,,,,,,,,,,,,,,,,,,
43,0,,html-keyboard-response,43,507293,0.0-4.4-1.4,axpxnw8k07l,2022-09-19 13:29:17.815,5f12e6ebfe50020009674aa7,3,63,58,26,24,39,Female,497.0,,"
  <table>
  <tr height=300>
    <td width=300 height=300><img src=""static/images/cards/back_of_red_bolts.svg"" width=""175px"" height=""250px""></img></td>
    <td width=300 height=300><img src=""static/images/cards/back_of_red_bolts.svg"" width=""175px"" height=""250px""></img></td>
  </tr>
  <tr height=200>
    <td width=300><img src=""static/images/keys/z.svg"" width=""35%"" height=""75%""></img></td>
    <td width=300><img src=""static/images/keys/m.svg"" width=""35%"" height=""75%""></img></td>
  </tr>
</table>
  ",77.0,1.0,,,,,,,,,,,,,,,,,,,,,,,,,,
44,0,,html-keyboard-response,44,508809,0.0-4.4-2.4,axpxnw8k07l,2022-09-19 13:29:17.815,5f12e6ebfe50020009674aa7,3,63,58,26,24,39,Female,,,"
  <table>
  <tr height=300>
    <td width=300 height=300><img src=""static/images/cards/back_of_red_bolts.svg"" width=""175px"" height=""250px""></img></td>
    <td width=300 height=300><img src=""static/images/cards/2_of_red_bolts.svg"" width=""175px"" height=""250px""></img></td>
  </tr>
  <tr height=200>
    <td width=300><img src=""static/images/keys/z.svg"" width=""35%"" height=""75%""></img></td>
    <td width=300><img src=""static/images/keys/m.svg"" width=""35%"" height=""75%""></img></td>
  </tr>
</table>
  ",,,,,,,,,,,,,,,,,,,,,,,,,,,,
45,0,,html-keyboard-response,45,510326,0.0-4.4-3.4,axpxnw8k07l,2022-09-19 13:29:17.815,5f12e6ebfe50020009674aa7,3,63,58,26,24,39,Female,,,"<p style=""font-size:50px"">You win!
+10 points this round!</p>",,,,,,,,,,,,,,,,,,,,,,,,,,,,
46,0,,html-keyboard-response,46,510859,0.0-4.4-4.4,axpxnw8k07l,2022-09-19 13:29:17.815,5f12e6ebfe50020009674aa7,3,63,58,26,24,39,Female,,,,,,1.0,learning,4.0,Xc,,red,,bolts,,,,Xc,red,bolts,,1.0,0.0,NA,right,497.0,2.0,0.0,1.0,,,
47,0,,html-keyboard-response,47,512375,0.0-4.5-0.5,axpxnw8k07l,2022-09-19 13:29:17.815,5f12e6ebfe50020009674aa7,3,63,58,26,24,39,Female,,,"<img src=""static/images/cards/stack_of_black_bolts.svg"" width=""175px"" height=""250px""></img>",,,,,,,,,,,,,,,,,,,,,,,,,,,,
48,0,,html-keyboard-response,48,513265,0.0-4.5-1.5,axpxnw8k07l,2022-09-19 13:29:17.815,5f12e6ebfe50020009674aa7,3,63,58,26,24,39,Female,370.0,,"
  <table>
  <tr height=300>
    <td width=300 height=300><img src=""static/images/cards/back_of_black_bolts.svg"" width=""175px"" height=""250px""></img></td>
    <td width=300 height=300><img src=""static/images/cards/back_of_black_bolts.svg"" width=""175px"" height=""250px""></img></td>
  </tr>
  <tr height=200>
    <td width=300><img src=""static/images/keys/z.svg"" width=""35%"" height=""75%""></img></td>
    <td width=300></td>
  </tr>
</table>
  ",90.0,1.0,,,,,,,,,,,,,,,,,,,,,,,,,,
49,0,,html-keyboard-response,49,514774,0.0-4.5-2.5,axpxnw8k07l,2022-09-19 13:29:17.815,5f12e6ebfe50020009674aa7,3,63,58,26,24,39,Female,,,"
  <table>
  <tr height=300>
    <td width=300 height=300><img src=""static/images/cards/2_of_black_bolts.svg"" width=""175px"" height=""250px""></img></td>
    <td width=300 height=300><img src=""static/images/cards/back_of_black_bolts.svg"" width=""175px"" height=""250px""></img></td>
  </tr>
  <tr height=200>
    <td width=300><img src=""static/images/keys/z.svg"" width=""35%"" height=""75%""></img></td>
    <td width=300></td>
  </tr>
</table>
  ",,,,,,,,,,,,,,,,,,,,,,,,,,,,
50,0,,html-keyboard-response,50,516306,0.0-4.5-3.5,axpxnw8k07l,2022-09-19 13:29:17.815,5f12e6ebfe50020009674aa7,3,63,58,26,24,39,Female,,,"<p style=""font-size:50px"">You win!
+10 points this round!</p>",,,,,,,,,,,,,,,,,,,,,,,,,,,,
51,0,,html-keyboard-response,51,516839,0.0-4.5-4.5,axpxnw8k07l,2022-09-19 13:29:17.815,5f12e6ebfe50020009674aa7,3,63,58,26,24,39,Female,,,,,,1.0,learning,5.0,Xnc,,black,,bolts,,,,Xnc,black,bolts,,0.0,0.0,1,left,370.0,2.0,0.0,1.0,,,
52,0,,html-keyboard-response,52,518354,0.0-4.6-0.6,axpxnw8k07l,2022-09-19 13:29:17.815,5f12e6ebfe50020009674aa7,3,63,58,26,24,39,Female,,,"<img src=""static/images/cards/stack_of_black_moons.svg"" width=""175px"" height=""250px""></img>",,,,,,,,,,,,,,,,,,,,,,,,,,,,
53,0,,html-keyboard-response,53,519559,0.0-4.6-1.6,axpxnw8k07l,2022-09-19 13:29:17.815,5f12e6ebfe50020009674aa7,3,63,58,26,24,39,Female,687.0,,"
  <table>
  <tr height=300>
    <td width=300 height=300><img src=""static/images/cards/back_of_black_moons.svg"" width=""175px"" height=""250px""></img></td>
    <td width=300 height=300><img src=""static/images/cards/back_of_black_moons.svg"" width=""175px"" height=""250px""></img></td>
  </tr>
  <tr height=200>
    <td width=300><img src=""static/images/keys/z.svg"" width=""35%"" height=""75%""></img></td>
    <td width=300><img src=""static/images/keys/m.svg"" width=""35%"" height=""75%""></img></td>
  </tr>
</table>
  ",77.0,1.0,,,,,,,,,,,,,,,,,,,,,,,,,,
54,0,,html-keyboard-response,54,521067,0.0-4.6-2.6,axpxnw8k07l,2022-09-19 13:29:17.815,5f12e6ebfe50020009674aa7,3,63,58,26,24,39,Female,,,"
  <table>
  <tr height=300>
    <td width=300 height=300><img src=""static/images/cards/back_of_black_moons.svg"" width=""175px"" height=""250px""></img></td>
    <td width=300 height=300><img src=""static/images/cards/9_of_black_moons.svg"" width=""175px"" height=""250px""></img></td>
  </tr>
  <tr height=200>
    <td width=300><img src=""static/images/keys/z.svg"" width=""35%"" height=""75%""></img></td>
    <td width=300><img src=""static/images/keys/m.svg"" width=""35%"" height=""75%""></img></td>
  </tr>
</table>
  ",,,,,,,,,,,,,,,,,,,,,,,,,,,,
55,0,,html-keyboard-response,55,522584,0.0-4.6-3.6,axpxnw8k07l,2022-09-19 13:29:17.815,5f12e6ebfe50020009674aa7,3,63,58,26,24,39,Female,,,"<p style=""font-size:50px"">You win!
+10 points this round!</p>",,,,,,,,,,,,,,,,,,,,,,,,,,,,
56,0,,html-keyboard-response,56,523116,0.0-4.6-4.6,axpxnw8k07l,2022-09-19 13:29:17.815,5f12e6ebfe50020009674aa7,3,63,58,26,24,39,Female,,,,,,1.0,learning,6.0,A,,black,,moons,,,,A,black,moons,,1.0,1.0,NA,right,687.0,9.0,1.0,1.0,,,
57,0,,html-keyboard-response,57,524632,0.0-4.7-0.7,axpxnw8k07l,2022-09-19 13:29:17.815,5f12e6ebfe50020009674aa7,3,63,58,26,24,39,Female,,,"<img src=""static/images/cards/stack_of_red_moons.svg"" width=""175px"" height=""250px""></img>",,,,,,,,,,,,,,,,,,,,,,,,,,,,
58,0,,html-keyboard-response,58,525665,0.0-4.7-1.7,axpxnw8k07l,2022-09-19 13:29:17.815,5f12e6ebfe50020009674aa7,3,63,58,26,24,39,Female,528.0,,"
  <table>
  <tr height=300>
    <td width=300 height=300><img src=""static/images/cards/back_of_red_moons.svg"" width=""175px"" height=""250px""></img></td>
    <td width=300 height=300><img src=""static/images/cards/back_of_red_moons.svg"" width=""175px"" height=""250px""></img></td>
  </tr>
  <tr height=200>
    <td width=300></td>
    <td width=300><img src=""static/images/keys/m.svg"" width=""35%"" height=""75%""></img></td>
  </tr>
</table>
  ",77.0,1.0,,,,,,,,,,,,,,,,,,,,,,,,,,
59,0,,html-keyboard-response,59,527182,0.0-4.7-2.7,axpxnw8k07l,2022-09-19 13:29:17.815,5f12e6ebfe50020009674aa7,3,63,58,26,24,39,Female,,,"
  <table>
  <tr height=300>
    <td width=300 height=300><img src=""static/images/cards/back_of_red_moons.svg"" width=""175px"" height=""250px""></img></td>
    <td width=300 height=300><img src=""static/images/cards/3_of_red_moons.svg"" width=""175px"" height=""250px""></img></td>
  </tr>
  <tr height=200>
    <td width=300></td>
    <td width=300><img src=""static/images/keys/m.svg"" width=""35%"" height=""75%""></img></td>
  </tr>
</table>
  ",,,,,,,,,,,,,,,,,,,,,,,,,,,,
60,0,,html-keyboard-response,60,528714,0.0-4.7-3.7,axpxnw8k07l,2022-09-19 13:29:17.815,5f12e6ebfe50020009674aa7,3,63,58,26,24,39,Female,,,"<p style=""font-size:50px"">You Lose!
No points this round.</p>",,,,,,,,,,,,,,,,,,,,,,,,,,,,
61,0,,html-keyboard-response,61,529247,0.0-4.7-4.7,axpxnw8k07l,2022-09-19 13:29:17.815,5f12e6ebfe50020009674aa7,3,63,58,26,24,39,Female,,,,,,1.0,learning,7.0,B,,red,,moons,,,,B,red,moons,,0.0,1.0,0,right,528.0,3.0,0.0,0.0,,,
62,0,,html-keyboard-response,62,530764,0.0-4.8-0.8,axpxnw8k07l,2022-09-19 13:29:17.815,5f12e6ebfe50020009674aa7,3,63,58,26,24,39,Female,,,"<img src=""static/images/cards/stack_of_black_stars.svg"" width=""175px"" height=""250px""></img>",,,,,,,,,,,,,,,,,,,,,,,,,,,,
63,0,,html-keyboard-response,63,531979,0.0-4.8-1.8,axpxnw8k07l,2022-09-19 13:29:17.815,5f12e6ebfe50020009674aa7,3,63,58,26,24,39,Female,699.0,,"
  <table>
  <tr height=300>
    <td width=300 height=300><img src=""static/images/cards/back_of_black_stars.svg"" width=""175px"" height=""250px""></img></td>
    <td width=300 height=300><img src=""static/images/cards/back_of_black_stars.svg"" width=""175px"" height=""250px""></img></td>
  </tr>
  <tr height=200>
    <td width=300><img src=""static/images/keys/z.svg"" width=""35%"" height=""75%""></img></td>
    <td width=300><img src=""static/images/keys/m.svg"" width=""35%"" height=""75%""></img></td>
  </tr>
</table>
  ",77.0,1.0,,,,,,,,,,,,,,,,,,,,,,,,,,
64,0,,html-keyboard-response,64,533495,0.0-4.8-2.8,axpxnw8k07l,2022-09-19 13:29:17.815,5f12e6ebfe50020009674aa7,3,63,58,26,24,39,Female,,,"
  <table>
  <tr height=300>
    <td width=300 height=300><img src=""static/images/cards/back_of_black_stars.svg"" width=""175px"" height=""250px""></img></td>
    <td width=300 height=300><img src=""static/images/cards/2_of_black_stars.svg"" width=""175px"" height=""250px""></img></td>
  </tr>
  <tr height=200>
    <td width=300><img src=""static/images/keys/z.svg"" width=""35%"" height=""75%""></img></td>
    <td width=300><img src=""static/images/keys/m.svg"" width=""35%"" height=""75%""></img></td>
  </tr>
</table>
  ",,,,,,,,,,,,,,,,,,,,,,,,,,,,
65,0,,html-keyboard-response,65,535027,0.0-4.8-3.8,axpxnw8k07l,2022-09-19 13:29:17.815,5f12e6ebfe50020009674aa7,3,63,58,26,24,39,Female,,,"<p style=""font-size:50px"">You Lose!
No points this round.</p>",,,,,,,,,,,,,,,,,,,,,,,,,,,,
66,0,,html-keyboard-response,66,535560,0.0-4.8-4.8,axpxnw8k07l,2022-09-19 13:29:17.815,5f12e6ebfe50020009674aa7,3,63,58,26,24,39,Female,,,,,,1.0,learning,8.0,C,,black,,stars,,,,C,black,stars,,1.0,0.0,NA,right,699.0,2.0,0.0,0.0,,,
67,0,,html-keyboard-response,67,537075,0.0-4.9-0.9,axpxnw8k07l,2022-09-19 13:29:17.815,5f12e6ebfe50020009674aa7,3,63,58,26,24,39,Female,,,"<img src=""static/images/cards/stack_of_red_stars.svg"" width=""175px"" height=""250px""></img>",,,,,,,,,,,,,,,,,,,,,,,,,,,,
68,0,,html-keyboard-response,68,538220,0.0-4.9-1.9,axpxnw8k07l,2022-09-19 13:29:17.815,5f12e6ebfe50020009674aa7,3,63,58,26,24,39,Female,625.0,,"
  <table>
  <tr height=300>
    <td width=300 height=300><img src=""static/images/cards/back_of_red_stars.svg"" width=""175px"" height=""250px""></img></td>
    <td width=300 height=300><img src=""static/images/cards/back_of_red_stars.svg"" width=""175px"" height=""250px""></img></td>
  </tr>
  <tr height=200>
    <td width=300></td>
    <td width=300><img src=""static/images/keys/m.svg"" width=""35%"" height=""75%""></img></td>
  </tr>
</table>
  ",77.0,1.0,,,,,,,,,,,,,,,,,,,,,,,,,,
69,0,,html-keyboard-response,69,539724,0.0-4.9-2.9,axpxnw8k07l,2022-09-19 13:29:17.815,5f12e6ebfe50020009674aa7,3,63,58,26,24,39,Female,,,"
  <table>
  <tr height=300>
    <td width=300 height=300><img src=""static/images/cards/back_of_red_stars.svg"" width=""175px"" height=""250px""></img></td>
    <td width=300 height=300><img src=""static/images/cards/8_of_red_stars.svg"" width=""175px"" height=""250px""></img></td>
  </tr>
  <tr height=200>
    <td width=300></td>
    <td width=300><img src=""static/images/keys/m.svg"" width=""35%"" height=""75%""></img></td>
  </tr>
</table>
  ",,,,,,,,,,,,,,,,,,,,,,,,,,,,
70,0,,html-keyboard-response,70,541256,0.0-4.9-3.9,axpxnw8k07l,2022-09-19 13:29:17.815,5f12e6ebfe50020009674aa7,3,63,58,26,24,39,Female,,,"<p style=""font-size:50px"">You Lose!
No points this round.</p>",,,,,,,,,,,,,,,,,,,,,,,,,,,,
71,0,,html-keyboard-response,71,541789,0.0-4.9-4.9,axpxnw8k07l,2022-09-19 13:29:17.815,5f12e6ebfe50020009674aa7,3,63,58,26,24,39,Female,,,,,,1.0,learning,9.0,D,,red,,stars,,,,D,red,stars,,0.0,0.0,0,right,625.0,8.0,1.0,0.0,,,
72,0,,html-keyboard-response,72,543305,0.0-4.10-0.10,axpxnw8k07l,2022-09-19 13:29:17.815,5f12e6ebfe50020009674aa7,3,63,58,26,24,39,Female,,,"<img src=""static/images/cards/stack_of_red_bolts.svg"" width=""175px"" height=""250px""></img>",,,,,,,,,,,,,,,,,,,,,,,,,,,,
73,0,,html-keyboard-response,73,544247,0.0-4.10-1.10,axpxnw8k07l,2022-09-19 13:29:17.815,5f12e6ebfe50020009674aa7,3,63,58,26,24,39,Female,423.0,,"
  <table>
  <tr height=300>
    <td width=300 height=300><img src=""static/images/cards/back_of_red_bolts.svg"" width=""175px"" height=""250px""></img></td>
    <td width=300 height=300><img src=""static/images/cards/back_of_red_bolts.svg"" width=""175px"" height=""250px""></img></td>
  </tr>
  <tr height=200>
    <td width=300><img src=""static/images/keys/z.svg"" width=""35%"" height=""75%""></img></td>
    <td width=300><img src=""static/images/keys/m.svg"" width=""35%"" height=""75%""></img></td>
  </tr>
</table>
  ",77.0,1.0,,,,,,,,,,,,,,,,,,,,,,,,,,
74,0,,html-keyboard-response,74,545754,0.0-4.10-2.10,axpxnw8k07l,2022-09-19 13:29:17.815,5f12e6ebfe50020009674aa7,3,63,58,26,24,39,Female,,,"
  <table>
  <tr height=300>
    <td width=300 height=300><img src=""static/images/cards/back_of_red_bolts.svg"" width=""175px"" height=""250px""></img></td>
    <td width=300 height=300><img src=""static/images/cards/9_of_red_bolts.svg"" width=""175px"" height=""250px""></img></td>
  </tr>
  <tr height=200>
    <td width=300><img src=""static/images/keys/z.svg"" width=""35%"" height=""75%""></img></td>
    <td width=300><img src=""static/images/keys/m.svg"" width=""35%"" height=""75%""></img></td>
  </tr>
</table>
  ",,,,,,,,,,,,,,,,,,,,,,,,,,,,
75,0,,html-keyboard-response,75,547279,0.0-4.10-3.10,axpxnw8k07l,2022-09-19 13:29:17.815,5f12e6ebfe50020009674aa7,3,63,58,26,24,39,Female,,,"<p style=""font-size:50px"">You win!
+10 points this round!</p>",,,,,,,,,,,,,,,,,,,,,,,,,,,,
76,0,,html-keyboard-response,76,547802,0.0-4.10-4.10,axpxnw8k07l,2022-09-19 13:29:17.815,5f12e6ebfe50020009674aa7,3,63,58,26,24,39,Female,,,,,,1.0,learning,10.0,Xc,,red,,bolts,,,,Xc,red,bolts,,1.0,0.0,NA,right,423.0,9.0,1.0,1.0,,,
77,0,,html-keyboard-response,77,549318,0.0-4.11-0.11,axpxnw8k07l,2022-09-19 13:29:17.815,5f12e6ebfe50020009674aa7,3,63,58,26,24,39,Female,,,"<img src=""static/images/cards/stack_of_black_bolts.svg"" width=""175px"" height=""250px""></img>",,,,,,,,,,,,,,,,,,,,,,,,,,,,
78,0,,html-keyboard-response,78,550303,0.0-4.11-1.11,axpxnw8k07l,2022-09-19 13:29:17.815,5f12e6ebfe50020009674aa7,3,63,58,26,24,39,Female,466.0,,"
  <table>
  <tr height=300>
    <td width=300 height=300><img src=""static/images/cards/back_of_black_bolts.svg"" width=""175px"" height=""250px""></img></td>
    <td width=300 height=300><img src=""static/images/cards/back_of_black_bolts.svg"" width=""175px"" height=""250px""></img></td>
  </tr>
  <tr height=200>
    <td width=300><img src=""static/images/keys/z.svg"" width=""35%"" height=""75%""></img></td>
    <td width=300></td>
  </tr>
</table>
  ",90.0,1.0,,,,,,,,,,,,,,,,,,,,,,,,,,
79,0,,html-keyboard-response,79,551817,0.0-4.11-2.11,axpxnw8k07l,2022-09-19 13:29:17.815,5f12e6ebfe50020009674aa7,3,63,58,26,24,39,Female,,,"
  <table>
  <tr height=300>
    <td width=300 height=300><img src=""static/images/cards/7_of_black_bolts.svg"" width=""175px"" height=""250px""></img></td>
    <td width=300 height=300><img src=""static/images/cards/back_of_black_bolts.svg"" width=""175px"" height=""250px""></img></td>
  </tr>
  <tr height=200>
    <td width=300><img src=""static/images/keys/z.svg"" width=""35%"" height=""75%""></img></td>
    <td width=300></td>
  </tr>
</table>
  ",,,,,,,,,,,,,,,,,,,,,,,,,,,,
80,0,,html-keyboard-response,80,553349,0.0-4.11-3.11,axpxnw8k07l,2022-09-19 13:29:17.815,5f12e6ebfe50020009674aa7,3,63,58,26,24,39,Female,,,"<p style=""font-size:50px"">You win!
+10 points this round!</p>",,,,,,,,,,,,,,,,,,,,,,,,,,,,
81,0,,html-keyboard-response,81,553882,0.0-4.11-4.11,axpxnw8k07l,2022-09-19 13:29:17.815,5f12e6ebfe50020009674aa7,3,63,58,26,24,39,Female,,,,,,1.0,learning,11.0,Xnc,,black,,bolts,,,,Xnc,black,bolts,,0.0,0.0,1,left,466.0,7.0,1.0,1.0,,,
82,0,,html-keyboard-response,82,555397,0.0-4.12-0.12,axpxnw8k07l,2022-09-19 13:29:17.815,5f12e6ebfe50020009674aa7,3,63,58,26,24,39,Female,,,"<img src=""static/images/cards/stack_of_black_moons.svg"" width=""175px"" height=""250px""></img>",,,,,,,,,,,,,,,,,,,,,,,,,,,,
83,0,,html-keyboard-response,83,556680,0.0-4.12-1.12,axpxnw8k07l,2022-09-19 13:29:17.815,5f12e6ebfe50020009674aa7,3,63,58,26,24,39,Female,764.0,,"
  <table>
  <tr height=300>
    <td width=300 height=300><img src=""static/images/cards/back_of_black_moons.svg"" width=""175px"" height=""250px""></img></td>
    <td width=300 height=300><img src=""static/images/cards/back_of_black_moons.svg"" width=""175px"" height=""250px""></img></td>
  </tr>
  <tr height=200>
    <td width=300><img src=""static/images/keys/z.svg"" width=""35%"" height=""75%""></img></td>
    <td width=300><img src=""static/images/keys/m.svg"" width=""35%"" height=""75%""></img></td>
  </tr>
</table>
  ",90.0,1.0,,,,,,,,,,,,,,,,,,,,,,,,,,
84,0,,html-keyboard-response,84,558196,0.0-4.12-2.12,axpxnw8k07l,2022-09-19 13:29:17.815,5f12e6ebfe50020009674aa7,3,63,58,26,24,39,Female,,,"
  <table>
  <tr height=300>
    <td width=300 height=300><img src=""static/images/cards/4_of_black_moons.svg"" width=""175px"" height=""250px""></img></td>
    <td width=300 height=300><img src=""static/images/cards/back_of_black_moons.svg"" width=""175px"" height=""250px""></img></td>
  </tr>
  <tr height=200>
    <td width=300><img src=""static/images/keys/z.svg"" width=""35%"" height=""75%""></img></td>
    <td width=300><img src=""static/images/keys/m.svg"" width=""35%"" height=""75%""></img></td>
  </tr>
</table>
  ",,,,,,,,,,,,,,,,,,,,,,,,,,,,
85,0,,html-keyboard-response,85,559728,0.0-4.12-3.12,axpxnw8k07l,2022-09-19 13:29:17.815,5f12e6ebfe50020009674aa7,3,63,58,26,24,39,Female,,,"<p style=""font-size:50px"">You Lose!
No points this round.</p>",,,,,,,,,,,,,,,,,,,,,,,,,,,,
86,0,,html-keyboard-response,86,560261,0.0-4.12-4.12,axpxnw8k07l,2022-09-19 13:29:17.815,5f12e6ebfe50020009674aa7,3,63,58,26,24,39,Female,,,,,,1.0,learning,12.0,A,,black,,moons,,,,A,black,moons,,1.0,1.0,NA,left,764.0,4.0,0.0,0.0,,,
87,0,,html-keyboard-response,87,561777,0.0-4.13-0.13,axpxnw8k07l,2022-09-19 13:29:17.815,5f12e6ebfe50020009674aa7,3,63,58,26,24,39,Female,,,"<img src=""static/images/cards/stack_of_red_moons.svg"" width=""175px"" height=""250px""></img>",,,,,,,,,,,,,,,,,,,,,,,,,,,,
88,0,,html-keyboard-response,88,562757,0.0-4.13-1.13,axpxnw8k07l,2022-09-19 13:29:17.815,5f12e6ebfe50020009674aa7,3,63,58,26,24,39,Female,463.0,,"
  <table>
  <tr height=300>
    <td width=300 height=300><img src=""static/images/cards/back_of_red_moons.svg"" width=""175px"" height=""250px""></img></td>
    <td width=300 height=300><img src=""static/images/cards/back_of_red_moons.svg"" width=""175px"" height=""250px""></img></td>
  </tr>
  <tr height=200>
    <td width=300></td>
    <td width=300><img src=""static/images/keys/m.svg"" width=""35%"" height=""75%""></img></td>
  </tr>
</table>
  ",77.0,1.0,,,,,,,,,,,,,,,,,,,,,,,,,,
89,0,,html-keyboard-response,89,564275,0.0-4.13-2.13,axpxnw8k07l,2022-09-19 13:29:17.815,5f12e6ebfe50020009674aa7,3,63,58,26,24,39,Female,,,"
  <table>
  <tr height=300>
    <td width=300 height=300><img src=""static/images/cards/back_of_red_moons.svg"" width=""175px"" height=""250px""></img></td>
    <td width=300 height=300><img src=""static/images/cards/8_of_red_moons.svg"" width=""175px"" height=""250px""></img></td>
  </tr>
  <tr height=200>
    <td width=300></td>
    <td width=300><img src=""static/images/keys/m.svg"" width=""35%"" height=""75%""></img></td>
  </tr>
</table>
  ",,,,,,,,,,,,,,,,,,,,,,,,,,,,
90,0,,html-keyboard-response,90,565807,0.0-4.13-3.13,axpxnw8k07l,2022-09-19 13:29:17.815,5f12e6ebfe50020009674aa7,3,63,58,26,24,39,Female,,,"<p style=""font-size:50px"">You win!
+10 points this round!</p>",,,,,,,,,,,,,,,,,,,,,,,,,,,,
91,0,,html-keyboard-response,91,566340,0.0-4.13-4.13,axpxnw8k07l,2022-09-19 13:29:17.815,5f12e6ebfe50020009674aa7,3,63,58,26,24,39,Female,,,,,,1.0,learning,13.0,B,,red,,moons,,,,B,red,moons,,0.0,1.0,0,right,463.0,8.0,1.0,1.0,,,
92,0,,html-keyboard-response,92,567855,0.0-4.14-0.14,axpxnw8k07l,2022-09-19 13:29:17.815,5f12e6ebfe50020009674aa7,3,63,58,26,24,39,Female,,,"<img src=""static/images/cards/stack_of_black_stars.svg"" width=""175px"" height=""250px""></img>",,,,,,,,,,,,,,,,,,,,,,,,,,,,
93,0,,html-keyboard-response,93,569106,0.0-4.14-1.14,axpxnw8k07l,2022-09-19 13:29:17.815,5f12e6ebfe50020009674aa7,3,63,58,26,24,39,Female,731.0,,"
  <table>
  <tr height=300>
    <td width=300 height=300><img src=""static/images/cards/back_of_black_stars.svg"" width=""175px"" height=""250px""></img></td>
    <td width=300 height=300><img src=""static/images/cards/back_of_black_stars.svg"" width=""175px"" height=""250px""></img></td>
  </tr>
  <tr height=200>
    <td width=300><img src=""static/images/keys/z.svg"" width=""35%"" height=""75%""></img></td>
    <td width=300><img src=""static/images/keys/m.svg"" width=""35%"" height=""75%""></img></td>
  </tr>
</table>
  ",90.0,1.0,,,,,,,,,,,,,,,,,,,,,,,,,,
94,0,,html-keyboard-response,94,570621,0.0-4.14-2.14,axpxnw8k07l,2022-09-19 13:29:17.815,5f12e6ebfe50020009674aa7,3,63,58,26,24,39,Female,,,"
  <table>
  <tr height=300>
    <td width=300 height=300><img src=""static/images/cards/7_of_black_stars.svg"" width=""175px"" height=""250px""></img></td>
    <td width=300 height=300><img src=""static/images/cards/back_of_black_stars.svg"" width=""175px"" height=""250px""></img></td>
  </tr>
  <tr height=200>
    <td width=300><img src=""static/images/keys/z.svg"" width=""35%"" height=""75%""></img></td>
    <td width=300><img src=""static/images/keys/m.svg"" width=""35%"" height=""75%""></img></td>
  </tr>
</table>
  ",,,,,,,,,,,,,,,,,,,,,,,,,,,,
95,0,,html-keyboard-response,95,572154,0.0-4.14-3.14,axpxnw8k07l,2022-09-19 13:29:17.815,5f12e6ebfe50020009674aa7,3,63,58,26,24,39,Female,,,"<p style=""font-size:50px"">You Lose!
No points this round.</p>",,,,,,,,,,,,,,,,,,,,,,,,,,,,
96,0,,html-keyboard-response,96,572686,0.0-4.14-4.14,axpxnw8k07l,2022-09-19 13:29:17.815,5f12e6ebfe50020009674aa7,3,63,58,26,24,39,Female,,,,,,1.0,learning,14.0,C,,black,,stars,,,,C,black,stars,,1.0,0.0,NA,left,731.0,7.0,1.0,0.0,,,
97,0,,html-keyboard-response,97,574203,0.0-4.15-0.15,axpxnw8k07l,2022-09-19 13:29:17.815,5f12e6ebfe50020009674aa7,3,63,58,26,24,39,Female,,,"<img src=""static/images/cards/stack_of_red_stars.svg"" width=""175px"" height=""250px""></img>",,,,,,,,,,,,,,,,,,,,,,,,,,,,
98,0,,html-keyboard-response,98,575173,0.0-4.15-1.15,axpxnw8k07l,2022-09-19 13:29:17.815,5f12e6ebfe50020009674aa7,3,63,58,26,24,39,Female,453.0,,"
  <table>
  <tr height=300>
    <td width=300 height=300><img src=""static/images/cards/back_of_red_stars.svg"" width=""175px"" height=""250px""></img></td>
    <td width=300 height=300><img src=""static/images/cards/back_of_red_stars.svg"" width=""175px"" height=""250px""></img></td>
  </tr>
  <tr height=200>
    <td width=300></td>
    <td width=300><img src=""static/images/keys/m.svg"" width=""35%"" height=""75%""></img></td>
  </tr>
</table>
  ",77.0,1.0,,,,,,,,,,,,,,,,,,,,,,,,,,
99,0,,html-keyboard-response,99,576684,0.0-4.15-2.15,axpxnw8k07l,2022-09-19 13:29:17.815,5f12e6ebfe50020009674aa7,3,63,58,26,24,39,Female,,,"
  <table>
  <tr height=300>
    <td width=300 height=300><img src=""static/images/cards/back_of_red_stars.svg"" width=""175px"" height=""250px""></img></td>
    <td width=300 height=300><img src=""static/images/cards/2_of_red_stars.svg"" width=""175px"" height=""250px""></img></td>
  </tr>
  <tr height=200>
    <td width=300></td>
    <td width=300><img src=""static/images/keys/m.svg"" width=""35%"" height=""75%""></img></td>
  </tr>
</table>
  ",,,,,,,,,,,,,,,,,,,,,,,,,,,,
100,0,,html-keyboard-response,100,578216,0.0-4.15-3.15,axpxnw8k07l,2022-09-19 13:29:17.815,5f12e6ebfe50020009674aa7,3,63,58,26,24,39,Female,,,"<p style=""font-size:50px"">You Lose!
No points this round.</p>",,,,,,,,,,,,,,,,,,,,,,,,,,,,
101,0,,html-keyboard-response,101,578748,0.0-4.15-4.15,axpxnw8k07l,2022-09-19 13:29:17.815,5f12e6ebfe50020009674aa7,3,63,58,26,24,39,Female,,,,,,1.0,learning,15.0,D,,red,,stars,,,,D,red,stars,,0.0,0.0,0,right,453.0,2.0,0.0,0.0,,,
102,0,,html-keyboard-response,102,580265,0.0-4.16-0.16,axpxnw8k07l,2022-09-19 13:29:17.815,5f12e6ebfe50020009674aa7,3,63,58,26,24,39,Female,,,"<img src=""static/images/cards/stack_of_red_bolts.svg"" width=""175px"" height=""250px""></img>",,,,,,,,,,,,,,,,,,,,,,,,,,,,
103,0,,html-keyboard-response,103,581336,0.0-4.16-1.16,axpxnw8k07l,2022-09-19 13:29:17.815,5f12e6ebfe50020009674aa7,3,63,58,26,24,39,Female,553.0,,"
  <table>
  <tr height=300>
    <td width=300 height=300><img src=""static/images/cards/back_of_red_bolts.svg"" width=""175px"" height=""250px""></img></td>
    <td width=300 height=300><img src=""static/images/cards/back_of_red_bolts.svg"" width=""175px"" height=""250px""></img></td>
  </tr>
  <tr height=200>
    <td width=300><img src=""static/images/keys/z.svg"" width=""35%"" height=""75%""></img></td>
    <td width=300><img src=""static/images/keys/m.svg"" width=""35%"" height=""75%""></img></td>
  </tr>
</table>
  ",77.0,1.0,,,,,,,,,,,,,,,,,,,,,,,,,,
104,0,,html-keyboard-response,104,582847,0.0-4.16-2.16,axpxnw8k07l,2022-09-19 13:29:17.815,5f12e6ebfe50020009674aa7,3,63,58,26,24,39,Female,,,"
  <table>
  <tr height=300>
    <td width=300 height=300><img src=""static/images/cards/back_of_red_bolts.svg"" width=""175px"" height=""250px""></img></td>
    <td width=300 height=300><img src=""static/images/cards/3_of_red_bolts.svg"" width=""175px"" height=""250px""></img></td>
  </tr>
  <tr height=200>
    <td width=300><img src=""static/images/keys/z.svg"" width=""35%"" height=""75%""></img></td>
    <td width=300><img src=""static/images/keys/m.svg"" width=""35%"" height=""75%""></img></td>
  </tr>
</table>
  ",,,,,,,,,,,,,,,,,,,,,,,,,,,,
105,0,,html-keyboard-response,105,584378,0.0-4.16-3.16,axpxnw8k07l,2022-09-19 13:29:17.815,5f12e6ebfe50020009674aa7,3,63,58,26,24,39,Female,,,"<p style=""font-size:50px"">You win!
+10 points this round!</p>",,,,,,,,,,,,,,,,,,,,,,,,,,,,
106,0,,html-keyboard-response,106,584912,0.0-4.16-4.16,axpxnw8k07l,2022-09-19 13:29:17.815,5f12e6ebfe50020009674aa7,3,63,58,26,24,39,Female,,,,,,1.0,learning,16.0,Xc,,red,,bolts,,,,Xc,red,bolts,,1.0,0.0,NA,right,553.0,3.0,0.0,1.0,,,
107,0,,html-keyboard-response,107,586427,0.0-4.17-0.17,axpxnw8k07l,2022-09-19 13:29:17.815,5f12e6ebfe50020009674aa7,3,63,58,26,24,39,Female,,,"<img src=""static/images/cards/stack_of_black_bolts.svg"" width=""175px"" height=""250px""></img>",,,,,,,,,,,,,,,,,,,,,,,,,,,,
108,0,,html-keyboard-response,108,587396,0.0-4.17-1.17,axpxnw8k07l,2022-09-19 13:29:17.815,5f12e6ebfe50020009674aa7,3,63,58,26,24,39,Female,450.0,,"
  <table>
  <tr height=300>
    <td width=300 height=300><img src=""static/images/cards/back_of_black_bolts.svg"" width=""175px"" height=""250px""></img></td>
    <td width=300 height=300><img src=""static/images/cards/back_of_black_bolts.svg"" width=""175px"" height=""250px""></img></td>
  </tr>
  <tr height=200>
    <td width=300><img src=""static/images/keys/z.svg"" width=""35%"" height=""75%""></img></td>
    <td width=300></td>
  </tr>
</table>
  ",90.0,1.0,,,,,,,,,,,,,,,,,,,,,,,,,,
109,0,,html-keyboard-response,109,588909,0.0-4.17-2.17,axpxnw8k07l,2022-09-19 13:29:17.815,5f12e6ebfe50020009674aa7,3,63,58,26,24,39,Female,,,"
  <table>
  <tr height=300>
    <td width=300 height=300><img src=""static/images/cards/9_of_black_bolts.svg"" width=""175px"" height=""250px""></img></td>
    <td width=300 height=300><img src=""static/images/cards/back_of_black_bolts.svg"" width=""175px"" height=""250px""></img></td>
  </tr>
  <tr height=200>
    <td width=300><img src=""static/images/keys/z.svg"" width=""35%"" height=""75%""></img></td>
    <td width=300></td>
  </tr>
</table>
  ",,,,,,,,,,,,,,,,,,,,,,,,,,,,
110,0,,html-keyboard-response,110,590425,0.0-4.17-3.17,axpxnw8k07l,2022-09-19 13:29:17.815,5f12e6ebfe50020009674aa7,3,63,58,26,24,39,Female,,,"<p style=""font-size:50px"">You win!
+10 points this round!</p>",,,,,,,,,,,,,,,,,,,,,,,,,,,,
111,0,,html-keyboard-response,111,590958,0.0-4.17-4.17,axpxnw8k07l,2022-09-19 13:29:17.815,5f12e6ebfe50020009674aa7,3,63,58,26,24,39,Female,,,,,,1.0,learning,17.0,Xnc,,black,,bolts,,,,Xnc,black,bolts,,0.0,0.0,1,left,450.0,9.0,1.0,1.0,,,
112,0,,html-keyboard-response,112,592473,0.0-4.18-0.18,axpxnw8k07l,2022-09-19 13:29:17.815,5f12e6ebfe50020009674aa7,3,63,58,26,24,39,Female,,,"<img src=""static/images/cards/stack_of_black_moons.svg"" width=""175px"" height=""250px""></img>",,,,,,,,,,,,,,,,,,,,,,,,,,,,
113,0,,html-keyboard-response,113,593510,0.0-4.18-1.18,axpxnw8k07l,2022-09-19 13:29:17.815,5f12e6ebfe50020009674aa7,3,63,58,26,24,39,Female,519.0,,"
  <table>
  <tr height=300>
    <td width=300 height=300><img src=""static/images/cards/back_of_black_moons.svg"" width=""175px"" height=""250px""></img></td>
    <td width=300 height=300><img src=""static/images/cards/back_of_black_moons.svg"" width=""175px"" height=""250px""></img></td>
  </tr>
  <tr height=200>
    <td width=300><img src=""static/images/keys/z.svg"" width=""35%"" height=""75%""></img></td>
    <td width=300><img src=""static/images/keys/m.svg"" width=""35%"" height=""75%""></img></td>
  </tr>
</table>
  ",77.0,1.0,,,,,,,,,,,,,,,,,,,,,,,,,,
114,0,,html-keyboard-response,114,595022,0.0-4.18-2.18,axpxnw8k07l,2022-09-19 13:29:17.815,5f12e6ebfe50020009674aa7,3,63,58,26,24,39,Female,,,"
  <table>
  <tr height=300>
    <td width=300 height=300><img src=""static/images/cards/back_of_black_moons.svg"" width=""175px"" height=""250px""></img></td>
    <td width=300 height=300><img src=""static/images/cards/9_of_black_moons.svg"" width=""175px"" height=""250px""></img></td>
  </tr>
  <tr height=200>
    <td width=300><img src=""static/images/keys/z.svg"" width=""35%"" height=""75%""></img></td>
    <td width=300><img src=""static/images/keys/m.svg"" width=""35%"" height=""75%""></img></td>
  </tr>
</table>
  ",,,,,,,,,,,,,,,,,,,,,,,,,,,,
115,0,,html-keyboard-response,115,596554,0.0-4.18-3.18,axpxnw8k07l,2022-09-19 13:29:17.815,5f12e6ebfe50020009674aa7,3,63,58,26,24,39,Female,,,"<p style=""font-size:50px"">You win!
+10 points this round!</p>",,,,,,,,,,,,,,,,,,,,,,,,,,,,
116,0,,html-keyboard-response,116,597086,0.0-4.18-4.18,axpxnw8k07l,2022-09-19 13:29:17.815,5f12e6ebfe50020009674aa7,3,63,58,26,24,39,Female,,,,,,1.0,learning,18.0,A,,black,,moons,,,,A,black,moons,,1.0,1.0,NA,right,519.0,9.0,1.0,1.0,,,
117,0,,html-keyboard-response,117,598603,0.0-4.19-0.19,axpxnw8k07l,2022-09-19 13:29:17.815,5f12e6ebfe50020009674aa7,3,63,58,26,24,39,Female,,,"<img src=""static/images/cards/stack_of_red_moons.svg"" width=""175px"" height=""250px""></img>",,,,,,,,,,,,,,,,,,,,,,,,,,,,
118,0,,html-keyboard-response,118,599632,0.0-4.19-1.19,axpxnw8k07l,2022-09-19 13:29:17.815,5f12e6ebfe50020009674aa7,3,63,58,26,24,39,Female,511.0,,"
  <table>
  <tr height=300>
    <td width=300 height=300><img src=""static/images/cards/back_of_red_moons.svg"" width=""175px"" height=""250px""></img></td>
    <td width=300 height=300><img src=""static/images/cards/back_of_red_moons.svg"" width=""175px"" height=""250px""></img></td>
  </tr>
  <tr height=200>
    <td width=300><img src=""static/images/keys/z.svg"" width=""35%"" height=""75%""></img></td>
    <td width=300></td>
  </tr>
</table>
  ",90.0,1.0,,,,,,,,,,,,,,,,,,,,,,,,,,
119,0,,html-keyboard-response,119,601135,0.0-4.19-2.19,axpxnw8k07l,2022-09-19 13:29:17.815,5f12e6ebfe50020009674aa7,3,63,58,26,24,39,Female,,,"
  <table>
  <tr height=300>
    <td width=300 height=300><img src=""static/images/cards/10_of_red_moons.svg"" width=""175px"" height=""250px""></img></td>
    <td width=300 height=300><img src=""static/images/cards/back_of_red_moons.svg"" width=""175px"" height=""250px""></img></td>
  </tr>
  <tr height=200>
    <td width=300><img src=""static/images/keys/z.svg"" width=""35%"" height=""75%""></img></td>
    <td width=300></td>
  </tr>
</table>
  ",,,,,,,,,,,,,,,,,,,,,,,,,,,,
120,0,,html-keyboard-response,120,602667,0.0-4.19-3.19,axpxnw8k07l,2022-09-19 13:29:17.815,5f12e6ebfe50020009674aa7,3,63,58,26,24,39,Female,,,"<p style=""font-size:50px"">You win!
+10 points this round!</p>",,,,,,,,,,,,,,,,,,,,,,,,,,,,
121,0,,html-keyboard-response,121,603200,0.0-4.19-4.19,axpxnw8k07l,2022-09-19 13:29:17.815,5f12e6ebfe50020009674aa7,3,63,58,26,24,39,Female,,,,,,1.0,learning,19.0,B,,red,,moons,,,,B,red,moons,,0.0,1.0,1,left,511.0,10.0,1.0,1.0,,,
122,0,,html-keyboard-response,122,604713,0.0-4.20-0.20,axpxnw8k07l,2022-09-19 13:29:17.815,5f12e6ebfe50020009674aa7,3,63,58,26,24,39,Female,,,"<img src=""static/images/cards/stack_of_black_stars.svg"" width=""175px"" height=""250px""></img>",,,,,,,,,,,,,,,,,,,,,,,,,,,,
123,0,,html-keyboard-response,123,605688,0.0-4.20-1.20,axpxnw8k07l,2022-09-19 13:29:17.815,5f12e6ebfe50020009674aa7,3,63,58,26,24,39,Female,455.0,,"
  <table>
  <tr height=300>
    <td width=300 height=300><img src=""static/images/cards/back_of_black_stars.svg"" width=""175px"" height=""250px""></img></td>
    <td width=300 height=300><img src=""static/images/cards/back_of_black_stars.svg"" width=""175px"" height=""250px""></img></td>
  </tr>
  <tr height=200>
    <td width=300><img src=""static/images/keys/z.svg"" width=""35%"" height=""75%""></img></td>
    <td width=300><img src=""static/images/keys/m.svg"" width=""35%"" height=""75%""></img></td>
  </tr>
</table>
  ",77.0,1.0,,,,,,,,,,,,,,,,,,,,,,,,,,
124,0,,html-keyboard-response,124,607197,0.0-4.20-2.20,axpxnw8k07l,2022-09-19 13:29:17.815,5f12e6ebfe50020009674aa7,3,63,58,26,24,39,Female,,,"
  <table>
  <tr height=300>
    <td width=300 height=300><img src=""static/images/cards/back_of_black_stars.svg"" width=""175px"" height=""250px""></img></td>
    <td width=300 height=300><img src=""static/images/cards/9_of_black_stars.svg"" width=""175px"" height=""250px""></img></td>
  </tr>
  <tr height=200>
    <td width=300><img src=""static/images/keys/z.svg"" width=""35%"" height=""75%""></img></td>
    <td width=300><img src=""static/images/keys/m.svg"" width=""35%"" height=""75%""></img></td>
  </tr>
</table>
  ",,,,,,,,,,,,,,,,,,,,,,,,,,,,
125,0,,html-keyboard-response,125,608729,0.0-4.20-3.20,axpxnw8k07l,2022-09-19 13:29:17.815,5f12e6ebfe50020009674aa7,3,63,58,26,24,39,Female,,,"<p style=""font-size:50px"">You win!
+10 points this round!</p>",,,,,,,,,,,,,,,,,,,,,,,,,,,,
126,0,,html-keyboard-response,126,609262,0.0-4.20-4.20,axpxnw8k07l,2022-09-19 13:29:17.815,5f12e6ebfe50020009674aa7,3,63,58,26,24,39,Female,,,,,,1.0,learning,20.0,C,,black,,stars,,,,C,black,stars,,1.0,0.0,NA,right,455.0,9.0,1.0,1.0,,,
127,0,,html-keyboard-response,127,610779,0.0-4.21-0.21,axpxnw8k07l,2022-09-19 13:29:17.815,5f12e6ebfe50020009674aa7,3,63,58,26,24,39,Female,,,"<img src=""static/images/cards/stack_of_red_stars.svg"" width=""175px"" height=""250px""></img>",,,,,,,,,,,,,,,,,,,,,,,,,,,,
128,0,,html-keyboard-response,128,611766,0.0-4.21-1.21,axpxnw8k07l,2022-09-19 13:29:17.815,5f12e6ebfe50020009674aa7,3,63,58,26,24,39,Female,470.0,,"
  <table>
  <tr height=300>
    <td width=300 height=300><img src=""static/images/cards/back_of_red_stars.svg"" width=""175px"" height=""250px""></img></td>
    <td width=300 height=300><img src=""static/images/cards/back_of_red_stars.svg"" width=""175px"" height=""250px""></img></td>
  </tr>
  <tr height=200>
    <td width=300><img src=""static/images/keys/z.svg"" width=""35%"" height=""75%""></img></td>
    <td width=300></td>
  </tr>
</table>
  ",90.0,1.0,,,,,,,,,,,,,,,,,,,,,,,,,,
129,0,,html-keyboard-response,129,613278,0.0-4.21-2.21,axpxnw8k07l,2022-09-19 13:29:17.815,5f12e6ebfe50020009674aa7,3,63,58,26,24,39,Female,,,"
  <table>
  <tr height=300>
    <td width=300 height=300><img src=""static/images/cards/10_of_red_stars.svg"" width=""175px"" height=""250px""></img></td>
    <td width=300 height=300><img src=""static/images/cards/back_of_red_stars.svg"" width=""175px"" height=""250px""></img></td>
  </tr>
  <tr height=200>
    <td width=300><img src=""static/images/keys/z.svg"" width=""35%"" height=""75%""></img></td>
    <td width=300></td>
  </tr>
</table>
  ",,,,,,,,,,,,,,,,,,,,,,,,,,,,
130,0,,html-keyboard-response,130,614809,0.0-4.21-3.21,axpxnw8k07l,2022-09-19 13:29:17.815,5f12e6ebfe50020009674aa7,3,63,58,26,24,39,Female,,,"<p style=""font-size:50px"">You win!
+10 points this round!</p>",,,,,,,,,,,,,,,,,,,,,,,,,,,,
131,0,,html-keyboard-response,131,615342,0.0-4.21-4.21,axpxnw8k07l,2022-09-19 13:29:17.815,5f12e6ebfe50020009674aa7,3,63,58,26,24,39,Female,,,,,,1.0,learning,21.0,D,,red,,stars,,,,D,red,stars,,0.0,0.0,1,left,470.0,10.0,1.0,1.0,,,
132,0,,html-keyboard-response,132,616859,0.0-4.22-0.22,axpxnw8k07l,2022-09-19 13:29:17.815,5f12e6ebfe50020009674aa7,3,63,58,26,24,39,Female,,,"<img src=""static/images/cards/stack_of_red_bolts.svg"" width=""175px"" height=""250px""></img>",,,,,,,,,,,,,,,,,,,,,,,,,,,,
133,0,,html-keyboard-response,133,617959,0.0-4.22-1.22,axpxnw8k07l,2022-09-19 13:29:17.815,5f12e6ebfe50020009674aa7,3,63,58,26,24,39,Female,582.0,,"
  <table>
  <tr height=300>
    <td width=300 height=300><img src=""static/images/cards/back_of_red_bolts.svg"" width=""175px"" height=""250px""></img></td>
    <td width=300 height=300><img src=""static/images/cards/back_of_red_bolts.svg"" width=""175px"" height=""250px""></img></td>
  </tr>
  <tr height=200>
    <td width=300><img src=""static/images/keys/z.svg"" width=""35%"" height=""75%""></img></td>
    <td width=300><img src=""static/images/keys/m.svg"" width=""35%"" height=""75%""></img></td>
  </tr>
</table>
  ",90.0,1.0,,,,,,,,,,,,,,,,,,,,,,,,,,
134,0,,html-keyboard-response,134,619473,0.0-4.22-2.22,axpxnw8k07l,2022-09-19 13:29:17.815,5f12e6ebfe50020009674aa7,3,63,58,26,24,39,Female,,,"
  <table>
  <tr height=300>
    <td width=300 height=300><img src=""static/images/cards/8_of_red_bolts.svg"" width=""175px"" height=""250px""></img></td>
    <td width=300 height=300><img src=""static/images/cards/back_of_red_bolts.svg"" width=""175px"" height=""250px""></img></td>
  </tr>
  <tr height=200>
    <td width=300><img src=""static/images/keys/z.svg"" width=""35%"" height=""75%""></img></td>
    <td width=300><img src=""static/images/keys/m.svg"" width=""35%"" height=""75%""></img></td>
  </tr>
</table>
  ",,,,,,,,,,,,,,,,,,,,,,,,,,,,
135,0,,html-keyboard-response,135,621005,0.0-4.22-3.22,axpxnw8k07l,2022-09-19 13:29:17.815,5f12e6ebfe50020009674aa7,3,63,58,26,24,39,Female,,,"<p style=""font-size:50px"">You win!
+10 points this round!</p>",,,,,,,,,,,,,,,,,,,,,,,,,,,,
136,0,,html-keyboard-response,136,621538,0.0-4.22-4.22,axpxnw8k07l,2022-09-19 13:29:17.815,5f12e6ebfe50020009674aa7,3,63,58,26,24,39,Female,,,,,,1.0,learning,22.0,Xc,,red,,bolts,,,,Xc,red,bolts,,1.0,0.0,NA,left,582.0,8.0,1.0,1.0,,,
137,0,,html-keyboard-response,137,623054,0.0-4.23-0.23,axpxnw8k07l,2022-09-19 13:29:17.815,5f12e6ebfe50020009674aa7,3,63,58,26,24,39,Female,,,"<img src=""static/images/cards/stack_of_black_bolts.svg"" width=""175px"" height=""250px""></img>",,,,,,,,,,,,,,,,,,,,,,,,,,,,
138,0,,html-keyboard-response,138,624049,0.0-4.23-1.23,axpxnw8k07l,2022-09-19 13:29:17.815,5f12e6ebfe50020009674aa7,3,63,58,26,24,39,Female,476.0,,"
  <table>
  <tr height=300>
    <td width=300 height=300><img src=""static/images/cards/back_of_black_bolts.svg"" width=""175px"" height=""250px""></img></td>
    <td width=300 height=300><img src=""static/images/cards/back_of_black_bolts.svg"" width=""175px"" height=""250px""></img></td>
  </tr>
  <tr height=200>
    <td width=300><img src=""static/images/keys/z.svg"" width=""35%"" height=""75%""></img></td>
    <td width=300></td>
  </tr>
</table>
  ",90.0,1.0,,,,,,,,,,,,,,,,,,,,,,,,,,
139,0,,html-keyboard-response,139,625553,0.0-4.23-2.23,axpxnw8k07l,2022-09-19 13:29:17.815,5f12e6ebfe50020009674aa7,3,63,58,26,24,39,Female,,,"
  <table>
  <tr height=300>
    <td width=300 height=300><img src=""static/images/cards/3_of_black_bolts.svg"" width=""175px"" height=""250px""></img></td>
    <td width=300 height=300><img src=""static/images/cards/back_of_black_bolts.svg"" width=""175px"" height=""250px""></img></td>
  </tr>
  <tr height=200>
    <td width=300><img src=""static/images/keys/z.svg"" width=""35%"" height=""75%""></img></td>
    <td width=300></td>
  </tr>
</table>
  ",,,,,,,,,,,,,,,,,,,,,,,,,,,,
140,0,,html-keyboard-response,140,627084,0.0-4.23-3.23,axpxnw8k07l,2022-09-19 13:29:17.815,5f12e6ebfe50020009674aa7,3,63,58,26,24,39,Female,,,"<p style=""font-size:50px"">You win!
+10 points this round!</p>",,,,,,,,,,,,,,,,,,,,,,,,,,,,
141,0,,html-keyboard-response,141,627618,0.0-4.23-4.23,axpxnw8k07l,2022-09-19 13:29:17.815,5f12e6ebfe50020009674aa7,3,63,58,26,24,39,Female,,,,,,1.0,learning,23.0,Xnc,,black,,bolts,,,,Xnc,black,bolts,,0.0,0.0,1,left,476.0,3.0,0.0,1.0,,,
142,0,,call-function,142,627625,0.0-5.0,axpxnw8k07l,2022-09-19 13:29:17.815,5f12e6ebfe50020009674aa7,3,63,58,26,24,39,Female,,,,,,,,,,,,,,,,,,,,,,,,,,,,,,,
143,0,,image-keyboard-response,143,631011,0.0-6.0-0.0,axpxnw8k07l,2022-09-19 13:29:17.815,5f12e6ebfe50020009674aa7,3,63,58,26,24,39,Female,3386.0,,static/images/instructions_CB_3/Slide20.png,39.0,,,,,,,,,,,,,,,,,,,,,,,,,,,
144,0,,image-keyboard-response,144,638808,0.0-6.1-0.1,axpxnw8k07l,2022-09-19 13:29:17.815,5f12e6ebfe50020009674aa7,3,63,58,26,24,39,Female,7794.0,,static/images/instructions_CB_3/Slide21.png,39.0,,,,,,,,,,,,,,,,,,,,,,,,,,,
145,0,,image-keyboard-response,145,648519,0.0-6.2-0.2,axpxnw8k07l,2022-09-19 13:29:17.815,5f12e6ebfe50020009674aa7,3,63,58,26,24,39,Female,9709.0,,static/images/instructions_CB_3/Slide22.png,39.0,,,,,,,,,,,,,,,,,,,,,,,,,,,
146,0,,image-keyboard-response,146,660415,0.0-6.3-0.3,axpxnw8k07l,2022-09-19 13:29:17.815,5f12e6ebfe50020009674aa7,3,63,58,26,24,39,Female,11894.0,,static/images/instructions_CB_3/Slide23.png,39.0,,,,,,,,,,,,,,,,,,,,,,,,,,,
147,0,,image-keyboard-response,147,661972,0.0-6.4-0.4,axpxnw8k07l,2022-09-19 13:29:17.815,5f12e6ebfe50020009674aa7,3,63,58,26,24,39,Female,1556.0,,static/images/instructions_CB_3/Slide24.png,39.0,,,,,,,,,,,,,,,,,,,,,,,,,,,
148,0,,html-keyboard-response,148,666977,0.0-7.0-0.0,axpxnw8k07l,2022-09-19 13:29:17.815,5f12e6ebfe50020009674aa7,3,63,58,26,24,39,Female,,,"
  <table>
  <tr height=300>
    <td width=300 height=300><img src=""static/images/cards/stack_of_black_stars.svg"" width=""175px"" height=""250px""></img></td>
    <td width=300 height=300><img src=""static/images/cards/stack_of_red_moons.svg"" width=""175px"" height=""250px""></img></td>
  </tr>
  <tr height=200>
    <td width=300><img src=""static/images/keys/w.svg"" width=""35%"" height=""75%""></img></td>
    <td width=300><img src=""static/images/keys/o.svg"" width=""35%"" height=""75%""></img></td>
  </tr>
</table>
  ",,,,,,,,,,,,,,,,,,,,,,,,,,,,
149,0,,html-keyboard-response,149,667494,0.0-7.0-1.0,axpxnw8k07l,2022-09-19 13:29:17.815,5f12e6ebfe50020009674aa7,3,63,58,26,24,39,Female,,,,,,,,,,,,,,,,,,,,,,,,,,,,,,,
150,0,,html-keyboard-response,150,667495,0.0-7.0-2.0,axpxnw8k07l,2022-09-19 13:29:17.815,5f12e6ebfe50020009674aa7,3,63,58,26,24,39,Female,,,,,,,,,,,,,,,,,,,,,,,,,,,,,,,
151,0,,html-keyboard-response,151,669025,0.0-7.0-3.0,axpxnw8k07l,2022-09-19 13:29:17.815,5f12e6ebfe50020009674aa7,3,63,58,26,24,39,Female,,,"<p style=""font-size:50px"">Too slow!</p>",,,,,,,,,,,,,,,,,,,,,,,,,,,,
152,0,,html-keyboard-response,152,669557,0.0-7.0-4.0,axpxnw8k07l,2022-09-19 13:29:17.815,5f12e6ebfe50020009674aa7,3,63,58,26,24,39,Female,,,,,,1.0,choice,0.0,B,C,black,red,stars,moons,C,B,,,,,0.0,0.0,1,,,3.0,0.0,1.0,,,
153,0,,html-keyboard-response,153,671091,0.0-7.1-0.1,axpxnw8k07l,2022-09-19 13:29:17.815,5f12e6ebfe50020009674aa7,3,63,58,26,24,39,Female,1531.0,,"
  <table>
  <tr height=300>
    <td width=300 height=300><img src=""static/images/cards/stack_of_red_moons.svg"" width=""175px"" height=""250px""></img></td>
    <td width=300 height=300><img src=""static/images/cards/stack_of_black_moons.svg"" width=""175px"" height=""250px""></img></td>
  </tr>
  <tr height=200>
    <td width=300><img src=""static/images/keys/w.svg"" width=""35%"" height=""75%""></img></td>
    <td width=300><img src=""static/images/keys/o.svg"" width=""35%"" height=""75%""></img></td>
  </tr>
</table>
  ",79.0,1.0,,,,,,,,,,,,,,,,,,,,,,,,,,
154,0,,html-keyboard-response,154,672550,0.0-7.1-1.1,axpxnw8k07l,2022-09-19 13:29:17.815,5f12e6ebfe50020009674aa7,3,63,58,26,24,39,Female,942.0,,"
  <table>
  <tr height=300>
    <td width=300 height=300><img src=""static/images/cards/back_of_black_moons.svg"" width=""175px"" height=""250px""></img></td>
    <td width=300 height=300><img src=""static/images/cards/back_of_black_moons.svg"" width=""175px"" height=""250px""></img></td>
  </tr>
  <tr height=200>
    <td width=300><img src=""static/images/keys/z.svg"" width=""35%"" height=""75%""></img></td>
    <td width=300><img src=""static/images/keys/m.svg"" width=""35%"" height=""75%""></img></td>
  </tr>
</table>
  ",90.0,1.0,,,,,,,,,,,,,,,,,,,,,,,,,,
155,0,,html-keyboard-response,155,674055,0.0-7.1-2.1,axpxnw8k07l,2022-09-19 13:29:17.815,5f12e6ebfe50020009674aa7,3,63,58,26,24,39,Female,,,"
  <table>
  <tr height=300>
    <td width=300 height=300><img src=""static/images/cards/8_of_black_moons.svg"" width=""175px"" height=""250px""></img></td>
    <td width=300 height=300><img src=""static/images/cards/back_of_black_moons.svg"" width=""175px"" height=""250px""></img></td>
  </tr>
  <tr height=200>
    <td width=300><img src=""static/images/keys/z.svg"" width=""35%"" height=""75%""></img></td>
    <td width=300><img src=""static/images/keys/m.svg"" width=""35%"" height=""75%""></img></td>
  </tr>
</table>
  ",,,,,,,,,,,,,,,,,,,,,,,,,,,,
156,0,,html-keyboard-response,156,675587,0.0-7.1-3.1,axpxnw8k07l,2022-09-19 13:29:17.815,5f12e6ebfe50020009674aa7,3,63,58,26,24,39,Female,,,"<p style=""font-size:50px"">You win!
+10 points this round!</p>",,,,,,,,,,,,,,,,,,,,,,,,,,,,
157,0,,html-keyboard-response,157,676119,0.0-7.1-4.1,axpxnw8k07l,2022-09-19 13:29:17.815,5f12e6ebfe50020009674aa7,3,63,58,26,24,39,Female,,,,,,1.0,choice,1.0,A,B,red,black,moons,moons,B,A,A,black,moons,1531.0,1.0,1.0,NA,left,942.0,8.0,1.0,1.0,,,
158,0,,html-keyboard-response,158,678334,0.0-7.2-0.2,axpxnw8k07l,2022-09-19 13:29:17.815,5f12e6ebfe50020009674aa7,3,63,58,26,24,39,Female,2212.0,,"
  <table>
  <tr height=300>
    <td width=300 height=300><img src=""static/images/cards/stack_of_red_moons.svg"" width=""175px"" height=""250px""></img></td>
    <td width=300 height=300><img src=""static/images/cards/stack_of_black_stars.svg"" width=""175px"" height=""250px""></img></td>
  </tr>
  <tr height=200>
    <td width=300><img src=""static/images/keys/w.svg"" width=""35%"" height=""75%""></img></td>
    <td width=300><img src=""static/images/keys/o.svg"" width=""35%"" height=""75%""></img></td>
  </tr>
</table>
  ",87.0,2.0,,,,,,,,,,,,,,,,,,,,,,,,,,
159,0,,html-keyboard-response,159,680334,0.0-7.2-1.2,axpxnw8k07l,2022-09-19 13:29:17.815,5f12e6ebfe50020009674aa7,3,63,58,26,24,39,Female,1480.0,,"
  <table>
  <tr height=300>
    <td width=300 height=300><img src=""static/images/cards/back_of_red_moons.svg"" width=""175px"" height=""250px""></img></td>
    <td width=300 height=300><img src=""static/images/cards/back_of_red_moons.svg"" width=""175px"" height=""250px""></img></td>
  </tr>
  <tr height=200>
    <td width=300><img src=""static/images/keys/z.svg"" width=""35%"" height=""75%""></img></td>
    <td width=300></td>
  </tr>
</table>
  ",90.0,1.0,,,,,,,,,,,,,,,,,,,,,,,,,,
160,0,,html-keyboard-response,160,681850,0.0-7.2-2.2,axpxnw8k07l,2022-09-19 13:29:17.815,5f12e6ebfe50020009674aa7,3,63,58,26,24,39,Female,,,"
  <table>
  <tr height=300>
    <td width=300 height=300><img src=""static/images/cards/1_of_red_moons.svg"" width=""175px"" height=""250px""></img></td>
    <td width=300 height=300><img src=""static/images/cards/back_of_red_moons.svg"" width=""175px"" height=""250px""></img></td>
  </tr>
  <tr height=200>
    <td width=300><img src=""static/images/keys/z.svg"" width=""35%"" height=""75%""></img></td>
    <td width=300></td>
  </tr>
</table>
  ",,,,,,,,,,,,,,,,,,,,,,,,,,,,
161,0,,html-keyboard-response,161,683382,0.0-7.2-3.2,axpxnw8k07l,2022-09-19 13:29:17.815,5f12e6ebfe50020009674aa7,3,63,58,26,24,39,Female,,,"<p style=""font-size:50px"">You Lose!
No points this round.</p>",,,,,,,,,,,,,,,,,,,,,,,,,,,,
162,0,,html-keyboard-response,162,683915,0.0-7.2-4.2,axpxnw8k07l,2022-09-19 13:29:17.815,5f12e6ebfe50020009674aa7,3,63,58,26,24,39,Female,,,,,,1.0,choice,2.0,B,C,red,black,moons,stars,B,C,B,red,moons,2212.0,0.0,1.0,1,left,1480.0,1.0,0.0,0.0,,,
163,0,,html-keyboard-response,163,687907,0.0-7.3-0.3,axpxnw8k07l,2022-09-19 13:29:17.815,5f12e6ebfe50020009674aa7,3,63,58,26,24,39,Female,3991.0,,"
  <table>
  <tr height=300>
    <td width=300 height=300><img src=""static/images/cards/stack_of_black_moons.svg"" width=""175px"" height=""250px""></img></td>
    <td width=300 height=300><img src=""static/images/cards/stack_of_red_stars.svg"" width=""175px"" height=""250px""></img></td>
  </tr>
  <tr height=200>
    <td width=300><img src=""static/images/keys/w.svg"" width=""35%"" height=""75%""></img></td>
    <td width=300><img src=""static/images/keys/o.svg"" width=""35%"" height=""75%""></img></td>
  </tr>
</table>
  ",87.0,2.0,,,,,,,,,,,,,,,,,,,,,,,,,,
164,0,,html-keyboard-response,164,689581,0.0-7.3-1.3,axpxnw8k07l,2022-09-19 13:29:17.815,5f12e6ebfe50020009674aa7,3,63,58,26,24,39,Female,1168.0,,"
  <table>
  <tr height=300>
    <td width=300 height=300><img src=""static/images/cards/back_of_black_moons.svg"" width=""175px"" height=""250px""></img></td>
    <td width=300 height=300><img src=""static/images/cards/back_of_black_moons.svg"" width=""175px"" height=""250px""></img></td>
  </tr>
  <tr height=200>
    <td width=300><img src=""static/images/keys/z.svg"" width=""35%"" height=""75%""></img></td>
    <td width=300><img src=""static/images/keys/m.svg"" width=""35%"" height=""75%""></img></td>
  </tr>
</table>
  ",90.0,1.0,,,,,,,,,,,,,,,,,,,,,,,,,,
165,0,,html-keyboard-response,165,691094,0.0-7.3-2.3,axpxnw8k07l,2022-09-19 13:29:17.815,5f12e6ebfe50020009674aa7,3,63,58,26,24,39,Female,,,"
  <table>
  <tr height=300>
    <td width=300 height=300><img src=""static/images/cards/4_of_black_moons.svg"" width=""175px"" height=""250px""></img></td>
    <td width=300 height=300><img src=""static/images/cards/back_of_black_moons.svg"" width=""175px"" height=""250px""></img></td>
  </tr>
  <tr height=200>
    <td width=300><img src=""static/images/keys/z.svg"" width=""35%"" height=""75%""></img></td>
    <td width=300><img src=""static/images/keys/m.svg"" width=""35%"" height=""75%""></img></td>
  </tr>
</table>
  ",,,,,,,,,,,,,,,,,,,,,,,,,,,,
166,0,,html-keyboard-response,166,692626,0.0-7.3-3.3,axpxnw8k07l,2022-09-19 13:29:17.815,5f12e6ebfe50020009674aa7,3,63,58,26,24,39,Female,,,"<p style=""font-size:50px"">You Lose!
No points this round.</p>",,,,,,,,,,,,,,,,,,,,,,,,,,,,
167,0,,html-keyboard-response,167,693156,0.0-7.3-4.3,axpxnw8k07l,2022-09-19 13:29:17.815,5f12e6ebfe50020009674aa7,3,63,58,26,24,39,Female,,,,,,1.0,choice,3.0,A,D,black,red,moons,stars,A,D,A,black,moons,3991.0,1.0,1.0,NA,left,1168.0,4.0,0.0,0.0,,,
168,0,,html-keyboard-response,168,694176,0.0-7.4-0.4,axpxnw8k07l,2022-09-19 13:29:17.815,5f12e6ebfe50020009674aa7,3,63,58,26,24,39,Female,1019.0,,"
  <table>
  <tr height=300>
    <td width=300 height=300><img src=""static/images/cards/stack_of_black_moons.svg"" width=""175px"" height=""250px""></img></td>
    <td width=300 height=300><img src=""static/images/cards/stack_of_red_stars.svg"" width=""175px"" height=""250px""></img></td>
  </tr>
  <tr height=200>
    <td width=300><img src=""static/images/keys/w.svg"" width=""35%"" height=""75%""></img></td>
    <td width=300><img src=""static/images/keys/o.svg"" width=""35%"" height=""75%""></img></td>
  </tr>
</table>
  ",87.0,1.0,,,,,,,,,,,,,,,,,,,,,,,,,,
169,0,,html-keyboard-response,169,695626,0.0-7.4-1.4,axpxnw8k07l,2022-09-19 13:29:17.815,5f12e6ebfe50020009674aa7,3,63,58,26,24,39,Female,933.0,,"
  <table>
  <tr height=300>
    <td width=300 height=300><img src=""static/images/cards/back_of_black_moons.svg"" width=""175px"" height=""250px""></img></td>
    <td width=300 height=300><img src=""static/images/cards/back_of_black_moons.svg"" width=""175px"" height=""250px""></img></td>
  </tr>
  <tr height=200>
    <td width=300><img src=""static/images/keys/z.svg"" width=""35%"" height=""75%""></img></td>
    <td width=300><img src=""static/images/keys/m.svg"" width=""35%"" height=""75%""></img></td>
  </tr>
</table>
  ",77.0,1.0,,,,,,,,,,,,,,,,,,,,,,,,,,
170,0,,html-keyboard-response,170,697140,0.0-7.4-2.4,axpxnw8k07l,2022-09-19 13:29:17.815,5f12e6ebfe50020009674aa7,3,63,58,26,24,39,Female,,,"
  <table>
  <tr height=300>
    <td width=300 height=300><img src=""static/images/cards/back_of_black_moons.svg"" width=""175px"" height=""250px""></img></td>
    <td width=300 height=300><img src=""static/images/cards/2_of_black_moons.svg"" width=""175px"" height=""250px""></img></td>
  </tr>
  <tr height=200>
    <td width=300><img src=""static/images/keys/z.svg"" width=""35%"" height=""75%""></img></td>
    <td width=300><img src=""static/images/keys/m.svg"" width=""35%"" height=""75%""></img></td>
  </tr>
</table>
  ",,,,,,,,,,,,,,,,,,,,,,,,,,,,
171,0,,html-keyboard-response,171,698672,0.0-7.4-3.4,axpxnw8k07l,2022-09-19 13:29:17.815,5f12e6ebfe50020009674aa7,3,63,58,26,24,39,Female,,,"<p style=""font-size:50px"">You Lose!
No points this round.</p>",,,,,,,,,,,,,,,,,,,,,,,,,,,,
172,0,,html-keyboard-response,172,699205,0.0-7.4-4.4,axpxnw8k07l,2022-09-19 13:29:17.815,5f12e6ebfe50020009674aa7,3,63,58,26,24,39,Female,,,,,,1.0,choice,4.0,A,D,black,red,moons,stars,A,D,A,black,moons,1019.0,1.0,1.0,NA,right,933.0,2.0,0.0,0.0,,,
173,0,,html-keyboard-response,173,700407,0.0-7.5-0.5,axpxnw8k07l,2022-09-19 13:29:17.815,5f12e6ebfe50020009674aa7,3,63,58,26,24,39,Female,1200.0,,"
  <table>
  <tr height=300>
    <td width=300 height=300><img src=""static/images/cards/stack_of_red_moons.svg"" width=""175px"" height=""250px""></img></td>
    <td width=300 height=300><img src=""static/images/cards/stack_of_black_moons.svg"" width=""175px"" height=""250px""></img></td>
  </tr>
  <tr height=200>
    <td width=300><img src=""static/images/keys/w.svg"" width=""35%"" height=""75%""></img></td>
    <td width=300><img src=""static/images/keys/o.svg"" width=""35%"" height=""75%""></img></td>
  </tr>
</table>
  ",79.0,1.0,,,,,,,,,,,,,,,,,,,,,,,,,,
174,0,,html-keyboard-response,174,701576,0.0-7.5-1.5,axpxnw8k07l,2022-09-19 13:29:17.815,5f12e6ebfe50020009674aa7,3,63,58,26,24,39,Female,654.0,,"
  <table>
  <tr height=300>
    <td width=300 height=300><img src=""static/images/cards/back_of_black_moons.svg"" width=""175px"" height=""250px""></img></td>
    <td width=300 height=300><img src=""static/images/cards/back_of_black_moons.svg"" width=""175px"" height=""250px""></img></td>
  </tr>
  <tr height=200>
    <td width=300><img src=""static/images/keys/z.svg"" width=""35%"" height=""75%""></img></td>
    <td width=300><img src=""static/images/keys/m.svg"" width=""35%"" height=""75%""></img></td>
  </tr>
</table>
  ",90.0,1.0,,,,,,,,,,,,,,,,,,,,,,,,,,
175,0,,html-keyboard-response,175,703087,0.0-7.5-2.5,axpxnw8k07l,2022-09-19 13:29:17.815,5f12e6ebfe50020009674aa7,3,63,58,26,24,39,Female,,,"
  <table>
  <tr height=300>
    <td width=300 height=300><img src=""static/images/cards/7_of_black_moons.svg"" width=""175px"" height=""250px""></img></td>
    <td width=300 height=300><img src=""static/images/cards/back_of_black_moons.svg"" width=""175px"" height=""250px""></img></td>
  </tr>
  <tr height=200>
    <td width=300><img src=""static/images/keys/z.svg"" width=""35%"" height=""75%""></img></td>
    <td width=300><img src=""static/images/keys/m.svg"" width=""35%"" height=""75%""></img></td>
  </tr>
</table>
  ",,,,,,,,,,,,,,,,,,,,,,,,,,,,
176,0,,html-keyboard-response,176,704618,0.0-7.5-3.5,axpxnw8k07l,2022-09-19 13:29:17.815,5f12e6ebfe50020009674aa7,3,63,58,26,24,39,Female,,,"<p style=""font-size:50px"">You win!
+10 points this round!</p>",,,,,,,,,,,,,,,,,,,,,,,,,,,,
177,0,,html-keyboard-response,177,705151,0.0-7.5-4.5,axpxnw8k07l,2022-09-19 13:29:17.815,5f12e6ebfe50020009674aa7,3,63,58,26,24,39,Female,,,,,,1.0,choice,5.0,A,B,red,black,moons,moons,B,A,A,black,moons,1200.0,1.0,1.0,NA,left,654.0,7.0,1.0,1.0,,,
178,0,,html-keyboard-response,178,706425,0.0-7.6-0.6,axpxnw8k07l,2022-09-19 13:29:17.815,5f12e6ebfe50020009674aa7,3,63,58,26,24,39,Female,1271.0,,"
  <table>
  <tr height=300>
    <td width=300 height=300><img src=""static/images/cards/stack_of_red_moons.svg"" width=""175px"" height=""250px""></img></td>
    <td width=300 height=300><img src=""static/images/cards/stack_of_red_stars.svg"" width=""175px"" height=""250px""></img></td>
  </tr>
  <tr height=200>
    <td width=300><img src=""static/images/keys/w.svg"" width=""35%"" height=""75%""></img></td>
    <td width=300><img src=""static/images/keys/o.svg"" width=""35%"" height=""75%""></img></td>
  </tr>
</table>
  ",87.0,1.0,,,,,,,,,,,,,,,,,,,,,,,,,,
179,0,,html-keyboard-response,179,707934,0.0-7.6-1.6,axpxnw8k07l,2022-09-19 13:29:17.815,5f12e6ebfe50020009674aa7,3,63,58,26,24,39,Female,999.0,,"
  <table>
  <tr height=300>
    <td width=300 height=300><img src=""static/images/cards/back_of_red_moons.svg"" width=""175px"" height=""250px""></img></td>
    <td width=300 height=300><img src=""static/images/cards/back_of_red_moons.svg"" width=""175px"" height=""250px""></img></td>
  </tr>
  <tr height=200>
    <td width=300></td>
    <td width=300><img src=""static/images/keys/m.svg"" width=""35%"" height=""75%""></img></td>
  </tr>
</table>
  ",77.0,1.0,,,,,,,,,,,,,,,,,,,,,,,,,,
180,0,,html-keyboard-response,180,709449,0.0-7.6-2.6,axpxnw8k07l,2022-09-19 13:29:17.815,5f12e6ebfe50020009674aa7,3,63,58,26,24,39,Female,,,"
  <table>
  <tr height=300>
    <td width=300 height=300><img src=""static/images/cards/back_of_red_moons.svg"" width=""175px"" height=""250px""></img></td>
    <td width=300 height=300><img src=""static/images/cards/7_of_red_moons.svg"" width=""175px"" height=""250px""></img></td>
  </tr>
  <tr height=200>
    <td width=300></td>
    <td width=300><img src=""static/images/keys/m.svg"" width=""35%"" height=""75%""></img></td>
  </tr>
</table>
  ",,,,,,,,,,,,,,,,,,,,,,,,,,,,
181,0,,html-keyboard-response,181,710982,0.0-7.6-3.6,axpxnw8k07l,2022-09-19 13:29:17.815,5f12e6ebfe50020009674aa7,3,63,58,26,24,39,Female,,,"<p style=""font-size:50px"">You win!
+10 points this round!</p>",,,,,,,,,,,,,,,,,,,,,,,,,,,,
182,0,,html-keyboard-response,182,711515,0.0-7.6-4.6,axpxnw8k07l,2022-09-19 13:29:17.815,5f12e6ebfe50020009674aa7,3,63,58,26,24,39,Female,,,,,,1.0,choice,6.0,B,D,red,red,moons,stars,B,D,B,red,moons,1271.0,0.0,1.0,0,right,999.0,7.0,1.0,1.0,,,
183,0,,html-keyboard-response,183,712812,0.0-7.7-0.7,axpxnw8k07l,2022-09-19 13:29:17.815,5f12e6ebfe50020009674aa7,3,63,58,26,24,39,Female,1296.0,,"
  <table>
  <tr height=300>
    <td width=300 height=300><img src=""static/images/cards/stack_of_red_stars.svg"" width=""175px"" height=""250px""></img></td>
    <td width=300 height=300><img src=""static/images/cards/stack_of_red_moons.svg"" width=""175px"" height=""250px""></img></td>
  </tr>
  <tr height=200>
    <td width=300><img src=""static/images/keys/w.svg"" width=""35%"" height=""75%""></img></td>
    <td width=300><img src=""static/images/keys/o.svg"" width=""35%"" height=""75%""></img></td>
  </tr>
</table>
  ",79.0,1.0,,,,,,,,,,,,,,,,,,,,,,,,,,
184,0,,html-keyboard-response,184,714202,0.0-7.7-1.7,axpxnw8k07l,2022-09-19 13:29:17.815,5f12e6ebfe50020009674aa7,3,63,58,26,24,39,Female,870.0,,"
  <table>
  <tr height=300>
    <td width=300 height=300><img src=""static/images/cards/back_of_red_moons.svg"" width=""175px"" height=""250px""></img></td>
    <td width=300 height=300><img src=""static/images/cards/back_of_red_moons.svg"" width=""175px"" height=""250px""></img></td>
  </tr>
  <tr height=200>
    <td width=300><img src=""static/images/keys/z.svg"" width=""35%"" height=""75%""></img></td>
    <td width=300></td>
  </tr>
</table>
  ",90.0,1.0,,,,,,,,,,,,,,,,,,,,,,,,,,
185,0,,html-keyboard-response,185,715712,0.0-7.7-2.7,axpxnw8k07l,2022-09-19 13:29:17.815,5f12e6ebfe50020009674aa7,3,63,58,26,24,39,Female,,,"
  <table>
  <tr height=300>
    <td width=300 height=300><img src=""static/images/cards/6_of_red_moons.svg"" width=""175px"" height=""250px""></img></td>
    <td width=300 height=300><img src=""static/images/cards/back_of_red_moons.svg"" width=""175px"" height=""250px""></img></td>
  </tr>
  <tr height=200>
    <td width=300><img src=""static/images/keys/z.svg"" width=""35%"" height=""75%""></img></td>
    <td width=300></td>
  </tr>
</table>
  ",,,,,,,,,,,,,,,,,,,,,,,,,,,,
186,0,,html-keyboard-response,186,717244,0.0-7.7-3.7,axpxnw8k07l,2022-09-19 13:29:17.815,5f12e6ebfe50020009674aa7,3,63,58,26,24,39,Female,,,"<p style=""font-size:50px"">You win!
+10 points this round!</p>",,,,,,,,,,,,,,,,,,,,,,,,,,,,
187,0,,html-keyboard-response,187,717777,0.0-7.7-4.7,axpxnw8k07l,2022-09-19 13:29:17.815,5f12e6ebfe50020009674aa7,3,63,58,26,24,39,Female,,,,,,1.0,choice,7.0,B,D,red,red,stars,moons,D,B,B,red,moons,1296.0,0.0,1.0,1,left,870.0,6.0,1.0,1.0,,,
188,0,,html-keyboard-response,188,718997,0.0-7.8-0.8,axpxnw8k07l,2022-09-19 13:29:17.815,5f12e6ebfe50020009674aa7,3,63,58,26,24,39,Female,1217.0,,"
  <table>
  <tr height=300>
    <td width=300 height=300><img src=""static/images/cards/stack_of_black_moons.svg"" width=""175px"" height=""250px""></img></td>
    <td width=300 height=300><img src=""static/images/cards/stack_of_red_stars.svg"" width=""175px"" height=""250px""></img></td>
  </tr>
  <tr height=200>
    <td width=300><img src=""static/images/keys/w.svg"" width=""35%"" height=""75%""></img></td>
    <td width=300><img src=""static/images/keys/o.svg"" width=""35%"" height=""75%""></img></td>
  </tr>
</table>
  ",87.0,1.0,,,,,,,,,,,,,,,,,,,,,,,,,,
189,0,,html-keyboard-response,189,720606,0.0-7.8-1.8,axpxnw8k07l,2022-09-19 13:29:17.815,5f12e6ebfe50020009674aa7,3,63,58,26,24,39,Female,1093.0,,"
  <table>
  <tr height=300>
    <td width=300 height=300><img src=""static/images/cards/back_of_black_moons.svg"" width=""175px"" height=""250px""></img></td>
    <td width=300 height=300><img src=""static/images/cards/back_of_black_moons.svg"" width=""175px"" height=""250px""></img></td>
  </tr>
  <tr height=200>
    <td width=300><img src=""static/images/keys/z.svg"" width=""35%"" height=""75%""></img></td>
    <td width=300><img src=""static/images/keys/m.svg"" width=""35%"" height=""75%""></img></td>
  </tr>
</table>
  ",90.0,1.0,,,,,,,,,,,,,,,,,,,,,,,,,,
190,0,,html-keyboard-response,190,722124,0.0-7.8-2.8,axpxnw8k07l,2022-09-19 13:29:17.815,5f12e6ebfe50020009674aa7,3,63,58,26,24,39,Female,,,"
  <table>
  <tr height=300>
    <td width=300 height=300><img src=""static/images/cards/10_of_black_moons.svg"" width=""175px"" height=""250px""></img></td>
    <td width=300 height=300><img src=""static/images/cards/back_of_black_moons.svg"" width=""175px"" height=""250px""></img></td>
  </tr>
  <tr height=200>
    <td width=300><img src=""static/images/keys/z.svg"" width=""35%"" height=""75%""></img></td>
    <td width=300><img src=""static/images/keys/m.svg"" width=""35%"" height=""75%""></img></td>
  </tr>
</table>
  ",,,,,,,,,,,,,,,,,,,,,,,,,,,,
191,0,,html-keyboard-response,191,723656,0.0-7.8-3.8,axpxnw8k07l,2022-09-19 13:29:17.815,5f12e6ebfe50020009674aa7,3,63,58,26,24,39,Female,,,"<p style=""font-size:50px"">You win!
+10 points this round!</p>",,,,,,,,,,,,,,,,,,,,,,,,,,,,
192,0,,html-keyboard-response,192,724189,0.0-7.8-4.8,axpxnw8k07l,2022-09-19 13:29:17.815,5f12e6ebfe50020009674aa7,3,63,58,26,24,39,Female,,,,,,1.0,choice,8.0,A,D,black,red,moons,stars,A,D,A,black,moons,1217.0,1.0,1.0,NA,left,1093.0,10.0,1.0,1.0,,,
193,0,,html-keyboard-response,193,725649,0.0-7.9-0.9,axpxnw8k07l,2022-09-19 13:29:17.815,5f12e6ebfe50020009674aa7,3,63,58,26,24,39,Female,1458.0,,"
  <table>
  <tr height=300>
    <td width=300 height=300><img src=""static/images/cards/stack_of_red_moons.svg"" width=""175px"" height=""250px""></img></td>
    <td width=300 height=300><img src=""static/images/cards/stack_of_red_stars.svg"" width=""175px"" height=""250px""></img></td>
  </tr>
  <tr height=200>
    <td width=300><img src=""static/images/keys/w.svg"" width=""35%"" height=""75%""></img></td>
    <td width=300><img src=""static/images/keys/o.svg"" width=""35%"" height=""75%""></img></td>
  </tr>
</table>
  ",87.0,1.0,,,,,,,,,,,,,,,,,,,,,,,,,,
194,0,,html-keyboard-response,194,727079,0.0-7.9-1.9,axpxnw8k07l,2022-09-19 13:29:17.815,5f12e6ebfe50020009674aa7,3,63,58,26,24,39,Female,923.0,,"
  <table>
  <tr height=300>
    <td width=300 height=300><img src=""static/images/cards/back_of_red_moons.svg"" width=""175px"" height=""250px""></img></td>
    <td width=300 height=300><img src=""static/images/cards/back_of_red_moons.svg"" width=""175px"" height=""250px""></img></td>
  </tr>
  <tr height=200>
    <td width=300></td>
    <td width=300><img src=""static/images/keys/m.svg"" width=""35%"" height=""75%""></img></td>
  </tr>
</table>
  ",77.0,1.0,,,,,,,,,,,,,,,,,,,,,,,,,,
195,0,,html-keyboard-response,195,728586,0.0-7.9-2.9,axpxnw8k07l,2022-09-19 13:29:17.815,5f12e6ebfe50020009674aa7,3,63,58,26,24,39,Female,,,"
  <table>
  <tr height=300>
    <td width=300 height=300><img src=""static/images/cards/back_of_red_moons.svg"" width=""175px"" height=""250px""></img></td>
    <td width=300 height=300><img src=""static/images/cards/6_of_red_moons.svg"" width=""175px"" height=""250px""></img></td>
  </tr>
  <tr height=200>
    <td width=300></td>
    <td width=300><img src=""static/images/keys/m.svg"" width=""35%"" height=""75%""></img></td>
  </tr>
</table>
  ",,,,,,,,,,,,,,,,,,,,,,,,,,,,
196,0,,html-keyboard-response,196,730118,0.0-7.9-3.9,axpxnw8k07l,2022-09-19 13:29:17.815,5f12e6ebfe50020009674aa7,3,63,58,26,24,39,Female,,,"<p style=""font-size:50px"">You win!
+10 points this round!</p>",,,,,,,,,,,,,,,,,,,,,,,,,,,,
197,0,,html-keyboard-response,197,730651,0.0-7.9-4.9,axpxnw8k07l,2022-09-19 13:29:17.815,5f12e6ebfe50020009674aa7,3,63,58,26,24,39,Female,,,,,,1.0,choice,9.0,B,D,red,red,moons,stars,B,D,B,red,moons,1458.0,0.0,1.0,0,right,923.0,6.0,1.0,1.0,,,
198,0,,html-keyboard-response,198,731710,0.0-7.10-0.10,axpxnw8k07l,2022-09-19 13:29:17.815,5f12e6ebfe50020009674aa7,3,63,58,26,24,39,Female,1056.0,,"
  <table>
  <tr height=300>
    <td width=300 height=300><img src=""static/images/cards/stack_of_black_stars.svg"" width=""175px"" height=""250px""></img></td>
    <td width=300 height=300><img src=""static/images/cards/stack_of_black_moons.svg"" width=""175px"" height=""250px""></img></td>
  </tr>
  <tr height=200>
    <td width=300><img src=""static/images/keys/w.svg"" width=""35%"" height=""75%""></img></td>
    <td width=300><img src=""static/images/keys/o.svg"" width=""35%"" height=""75%""></img></td>
  </tr>
</table>
  ",79.0,1.0,,,,,,,,,,,,,,,,,,,,,,,,,,
199,0,,html-keyboard-response,199,733066,0.0-7.10-1.10,axpxnw8k07l,2022-09-19 13:29:17.815,5f12e6ebfe50020009674aa7,3,63,58,26,24,39,Female,847.0,,"
  <table>
  <tr height=300>
    <td width=300 height=300><img src=""static/images/cards/back_of_black_moons.svg"" width=""175px"" height=""250px""></img></td>
    <td width=300 height=300><img src=""static/images/cards/back_of_black_moons.svg"" width=""175px"" height=""250px""></img></td>
  </tr>
  <tr height=200>
    <td width=300><img src=""static/images/keys/z.svg"" width=""35%"" height=""75%""></img></td>
    <td width=300><img src=""static/images/keys/m.svg"" width=""35%"" height=""75%""></img></td>
  </tr>
</table>
  ",77.0,1.0,,,,,,,,,,,,,,,,,,,,,,,,,,
200,0,,html-keyboard-response,200,734582,0.0-7.10-2.10,axpxnw8k07l,2022-09-19 13:29:17.815,5f12e6ebfe50020009674aa7,3,63,58,26,24,39,Female,,,"
  <table>
  <tr height=300>
    <td width=300 height=300><img src=""static/images/cards/back_of_black_moons.svg"" width=""175px"" height=""250px""></img></td>
    <td width=300 height=300><img src=""static/images/cards/4_of_black_moons.svg"" width=""175px"" height=""250px""></img></td>
  </tr>
  <tr height=200>
    <td width=300><img src=""static/images/keys/z.svg"" width=""35%"" height=""75%""></img></td>
    <td width=300><img src=""static/images/keys/m.svg"" width=""35%"" height=""75%""></img></td>
  </tr>
</table>
  ",,,,,,,,,,,,,,,,,,,,,,,,,,,,
201,0,,html-keyboard-response,201,736115,0.0-7.10-3.10,axpxnw8k07l,2022-09-19 13:29:17.815,5f12e6ebfe50020009674aa7,3,63,58,26,24,39,Female,,,"<p style=""font-size:50px"">You Lose!
No points this round.</p>",,,,,,,,,,,,,,,,,,,,,,,,,,,,
202,0,,html-keyboard-response,202,736643,0.0-7.10-4.10,axpxnw8k07l,2022-09-19 13:29:17.815,5f12e6ebfe50020009674aa7,3,63,58,26,24,39,Female,,,,,,1.0,choice,10.0,A,C,black,black,stars,moons,C,A,A,black,moons,1056.0,1.0,1.0,NA,right,847.0,4.0,0.0,0.0,,,
203,0,,html-keyboard-response,203,737903,0.0-7.11-0.11,axpxnw8k07l,2022-09-19 13:29:17.815,5f12e6ebfe50020009674aa7,3,63,58,26,24,39,Female,1257.0,,"
  <table>
  <tr height=300>
    <td width=300 height=300><img src=""static/images/cards/stack_of_red_stars.svg"" width=""175px"" height=""250px""></img></td>
    <td width=300 height=300><img src=""static/images/cards/stack_of_black_stars.svg"" width=""175px"" height=""250px""></img></td>
  </tr>
  <tr height=200>
    <td width=300><img src=""static/images/keys/w.svg"" width=""35%"" height=""75%""></img></td>
    <td width=300><img src=""static/images/keys/o.svg"" width=""35%"" height=""75%""></img></td>
  </tr>
</table>
  ",79.0,1.0,,,,,,,,,,,,,,,,,,,,,,,,,,
204,0,,html-keyboard-response,204,739205,0.0-7.11-1.11,axpxnw8k07l,2022-09-19 13:29:17.815,5f12e6ebfe50020009674aa7,3,63,58,26,24,39,Female,790.0,,"
  <table>
  <tr height=300>
    <td width=300 height=300><img src=""static/images/cards/back_of_black_stars.svg"" width=""175px"" height=""250px""></img></td>
    <td width=300 height=300><img src=""static/images/cards/back_of_black_stars.svg"" width=""175px"" height=""250px""></img></td>
  </tr>
  <tr height=200>
    <td width=300><img src=""static/images/keys/z.svg"" width=""35%"" height=""75%""></img></td>
    <td width=300><img src=""static/images/keys/m.svg"" width=""35%"" height=""75%""></img></td>
  </tr>
</table>
  ",77.0,1.0,,,,,,,,,,,,,,,,,,,,,,,,,,
205,0,,html-keyboard-response,205,740712,0.0-7.11-2.11,axpxnw8k07l,2022-09-19 13:29:17.815,5f12e6ebfe50020009674aa7,3,63,58,26,24,39,Female,,,"
  <table>
  <tr height=300>
    <td width=300 height=300><img src=""static/images/cards/back_of_black_stars.svg"" width=""175px"" height=""250px""></img></td>
    <td width=300 height=300><img src=""static/images/cards/7_of_black_stars.svg"" width=""175px"" height=""250px""></img></td>
  </tr>
  <tr height=200>
    <td width=300><img src=""static/images/keys/z.svg"" width=""35%"" height=""75%""></img></td>
    <td width=300><img src=""static/images/keys/m.svg"" width=""35%"" height=""75%""></img></td>
  </tr>
</table>
  ",,,,,,,,,,,,,,,,,,,,,,,,,,,,
206,0,,html-keyboard-response,206,742245,0.0-7.11-3.11,axpxnw8k07l,2022-09-19 13:29:17.815,5f12e6ebfe50020009674aa7,3,63,58,26,24,39,Female,,,"<p style=""font-size:50px"">You win!
+10 points this round!</p>",,,,,,,,,,,,,,,,,,,,,,,,,,,,
207,0,,html-keyboard-response,207,742777,0.0-7.11-4.11,axpxnw8k07l,2022-09-19 13:29:17.815,5f12e6ebfe50020009674aa7,3,63,58,26,24,39,Female,,,,,,1.0,choice,11.0,C,D,red,black,stars,stars,D,C,C,black,stars,1257.0,1.0,0.0,NA,right,790.0,7.0,1.0,1.0,,,
208,0,,html-keyboard-response,208,744776,0.0-7.12-0.12,axpxnw8k07l,2022-09-19 13:29:17.815,5f12e6ebfe50020009674aa7,3,63,58,26,24,39,Female,1996.0,,"
  <table>
  <tr height=300>
    <td width=300 height=300><img src=""static/images/cards/stack_of_red_moons.svg"" width=""175px"" height=""250px""></img></td>
    <td width=300 height=300><img src=""static/images/cards/stack_of_red_bolts.svg"" width=""175px"" height=""250px""></img></td>
  </tr>
  <tr height=200>
    <td width=300><img src=""static/images/keys/w.svg"" width=""35%"" height=""75%""></img></td>
    <td width=300><img src=""static/images/keys/o.svg"" width=""35%"" height=""75%""></img></td>
  </tr>
</table>
  ",79.0,1.0,,,,,,,,,,,,,,,,,,,,,,,,,,
209,0,,html-keyboard-response,209,745810,0.0-7.12-1.12,axpxnw8k07l,2022-09-19 13:29:17.815,5f12e6ebfe50020009674aa7,3,63,58,26,24,39,Female,516.0,,"
  <table>
  <tr height=300>
    <td width=300 height=300><img src=""static/images/cards/back_of_red_bolts.svg"" width=""175px"" height=""250px""></img></td>
    <td width=300 height=300><img src=""static/images/cards/back_of_red_bolts.svg"" width=""175px"" height=""250px""></img></td>
  </tr>
  <tr height=200>
    <td width=300><img src=""static/images/keys/z.svg"" width=""35%"" height=""75%""></img></td>
    <td width=300><img src=""static/images/keys/m.svg"" width=""35%"" height=""75%""></img></td>
  </tr>
</table>
  ",90.0,1.0,,,,,,,,,,,,,,,,,,,,,,,,,,
210,0,,html-keyboard-response,210,747324,0.0-7.12-2.12,axpxnw8k07l,2022-09-19 13:29:17.815,5f12e6ebfe50020009674aa7,3,63,58,26,24,39,Female,,,"
  <table>
  <tr height=300>
    <td width=300 height=300><img src=""static/images/cards/2_of_red_bolts.svg"" width=""175px"" height=""250px""></img></td>
    <td width=300 height=300><img src=""static/images/cards/back_of_red_bolts.svg"" width=""175px"" height=""250px""></img></td>
  </tr>
  <tr height=200>
    <td width=300><img src=""static/images/keys/z.svg"" width=""35%"" height=""75%""></img></td>
    <td width=300><img src=""static/images/keys/m.svg"" width=""35%"" height=""75%""></img></td>
  </tr>
</table>
  ",,,,,,,,,,,,,,,,,,,,,,,,,,,,
211,0,,html-keyboard-response,211,748856,0.0-7.12-3.12,axpxnw8k07l,2022-09-19 13:29:17.815,5f12e6ebfe50020009674aa7,3,63,58,26,24,39,Female,,,"<p style=""font-size:50px"">You win!
+10 points this round!</p>",,,,,,,,,,,,,,,,,,,,,,,,,,,,
212,0,,html-keyboard-response,212,749389,0.0-7.12-4.12,axpxnw8k07l,2022-09-19 13:29:17.815,5f12e6ebfe50020009674aa7,3,63,58,26,24,39,Female,,,,,,1.0,choice,12.0,B,Xc,red,red,moons,bolts,B,Xc,Xc,red,bolts,1996.0,1.0,0.0,NA,left,516.0,2.0,0.0,1.0,,,
213,0,,html-keyboard-response,213,750610,0.0-7.13-0.13,axpxnw8k07l,2022-09-19 13:29:17.815,5f12e6ebfe50020009674aa7,3,63,58,26,24,39,Female,1219.0,,"
  <table>
  <tr height=300>
    <td width=300 height=300><img src=""static/images/cards/stack_of_red_moons.svg"" width=""175px"" height=""250px""></img></td>
    <td width=300 height=300><img src=""static/images/cards/stack_of_black_stars.svg"" width=""175px"" height=""250px""></img></td>
  </tr>
  <tr height=200>
    <td width=300><img src=""static/images/keys/w.svg"" width=""35%"" height=""75%""></img></td>
    <td width=300><img src=""static/images/keys/o.svg"" width=""35%"" height=""75%""></img></td>
  </tr>
</table>
  ",87.0,1.0,,,,,,,,,,,,,,,,,,,,,,,,,,
214,0,,html-keyboard-response,214,751984,0.0-7.13-1.13,axpxnw8k07l,2022-09-19 13:29:17.815,5f12e6ebfe50020009674aa7,3,63,58,26,24,39,Female,860.0,,"
  <table>
  <tr height=300>
    <td width=300 height=300><img src=""static/images/cards/back_of_red_moons.svg"" width=""175px"" height=""250px""></img></td>
    <td width=300 height=300><img src=""static/images/cards/back_of_red_moons.svg"" width=""175px"" height=""250px""></img></td>
  </tr>
  <tr height=200>
    <td width=300></td>
    <td width=300><img src=""static/images/keys/m.svg"" width=""35%"" height=""75%""></img></td>
  </tr>
</table>
  ",77.0,1.0,,,,,,,,,,,,,,,,,,,,,,,,,,
215,0,,html-keyboard-response,215,753487,0.0-7.13-2.13,axpxnw8k07l,2022-09-19 13:29:17.815,5f12e6ebfe50020009674aa7,3,63,58,26,24,39,Female,,,"
  <table>
  <tr height=300>
    <td width=300 height=300><img src=""static/images/cards/back_of_red_moons.svg"" width=""175px"" height=""250px""></img></td>
    <td width=300 height=300><img src=""static/images/cards/9_of_red_moons.svg"" width=""175px"" height=""250px""></img></td>
  </tr>
  <tr height=200>
    <td width=300></td>
    <td width=300><img src=""static/images/keys/m.svg"" width=""35%"" height=""75%""></img></td>
  </tr>
</table>
  ",,,,,,,,,,,,,,,,,,,,,,,,,,,,
216,0,,html-keyboard-response,216,755020,0.0-7.13-3.13,axpxnw8k07l,2022-09-19 13:29:17.815,5f12e6ebfe50020009674aa7,3,63,58,26,24,39,Female,,,"<p style=""font-size:50px"">You win!
+10 points this round!</p>",,,,,,,,,,,,,,,,,,,,,,,,,,,,
217,0,,html-keyboard-response,217,755552,0.0-7.13-4.13,axpxnw8k07l,2022-09-19 13:29:17.815,5f12e6ebfe50020009674aa7,3,63,58,26,24,39,Female,,,,,,1.0,choice,13.0,B,C,red,black,moons,stars,B,C,B,red,moons,1219.0,0.0,1.0,0,right,860.0,9.0,1.0,1.0,,,
218,0,,html-keyboard-response,218,756615,0.0-7.14-0.14,axpxnw8k07l,2022-09-19 13:29:17.815,5f12e6ebfe50020009674aa7,3,63,58,26,24,39,Female,1059.0,,"
  <table>
  <tr height=300>
    <td width=300 height=300><img src=""static/images/cards/stack_of_black_moons.svg"" width=""175px"" height=""250px""></img></td>
    <td width=300 height=300><img src=""static/images/cards/stack_of_red_moons.svg"" width=""175px"" height=""250px""></img></td>
  </tr>
  <tr height=200>
    <td width=300><img src=""static/images/keys/w.svg"" width=""35%"" height=""75%""></img></td>
    <td width=300><img src=""static/images/keys/o.svg"" width=""35%"" height=""75%""></img></td>
  </tr>
</table>
  ",87.0,1.0,,,,,,,,,,,,,,,,,,,,,,,,,,
219,0,,html-keyboard-response,219,757743,0.0-7.14-1.14,axpxnw8k07l,2022-09-19 13:29:17.815,5f12e6ebfe50020009674aa7,3,63,58,26,24,39,Female,608.0,,"
  <table>
  <tr height=300>
    <td width=300 height=300><img src=""static/images/cards/back_of_black_moons.svg"" width=""175px"" height=""250px""></img></td>
    <td width=300 height=300><img src=""static/images/cards/back_of_black_moons.svg"" width=""175px"" height=""250px""></img></td>
  </tr>
  <tr height=200>
    <td width=300><img src=""static/images/keys/z.svg"" width=""35%"" height=""75%""></img></td>
    <td width=300><img src=""static/images/keys/m.svg"" width=""35%"" height=""75%""></img></td>
  </tr>
</table>
  ",90.0,1.0,,,,,,,,,,,,,,,,,,,,,,,,,,
220,0,,html-keyboard-response,220,759250,0.0-7.14-2.14,axpxnw8k07l,2022-09-19 13:29:17.815,5f12e6ebfe50020009674aa7,3,63,58,26,24,39,Female,,,"
  <table>
  <tr height=300>
    <td width=300 height=300><img src=""static/images/cards/8_of_black_moons.svg"" width=""175px"" height=""250px""></img></td>
    <td width=300 height=300><img src=""static/images/cards/back_of_black_moons.svg"" width=""175px"" height=""250px""></img></td>
  </tr>
  <tr height=200>
    <td width=300><img src=""static/images/keys/z.svg"" width=""35%"" height=""75%""></img></td>
    <td width=300><img src=""static/images/keys/m.svg"" width=""35%"" height=""75%""></img></td>
  </tr>
</table>
  ",,,,,,,,,,,,,,,,,,,,,,,,,,,,
221,0,,html-keyboard-response,221,760783,0.0-7.14-3.14,axpxnw8k07l,2022-09-19 13:29:17.815,5f12e6ebfe50020009674aa7,3,63,58,26,24,39,Female,,,"<p style=""font-size:50px"">You win!
+10 points this round!</p>",,,,,,,,,,,,,,,,,,,,,,,,,,,,
222,0,,html-keyboard-response,222,761315,0.0-7.14-4.14,axpxnw8k07l,2022-09-19 13:29:17.815,5f12e6ebfe50020009674aa7,3,63,58,26,24,39,Female,,,,,,1.0,choice,14.0,A,B,black,red,moons,moons,A,B,A,black,moons,1059.0,1.0,1.0,NA,left,608.0,8.0,1.0,1.0,,,
223,0,,html-keyboard-response,223,762532,0.0-7.15-0.15,axpxnw8k07l,2022-09-19 13:29:17.815,5f12e6ebfe50020009674aa7,3,63,58,26,24,39,Female,1215.0,,"
  <table>
  <tr height=300>
    <td width=300 height=300><img src=""static/images/cards/stack_of_red_stars.svg"" width=""175px"" height=""250px""></img></td>
    <td width=300 height=300><img src=""static/images/cards/stack_of_black_stars.svg"" width=""175px"" height=""250px""></img></td>
  </tr>
  <tr height=200>
    <td width=300><img src=""static/images/keys/w.svg"" width=""35%"" height=""75%""></img></td>
    <td width=300><img src=""static/images/keys/o.svg"" width=""35%"" height=""75%""></img></td>
  </tr>
</table>
  ",79.0,1.0,,,,,,,,,,,,,,,,,,,,,,,,,,
224,0,,html-keyboard-response,224,763682,0.0-7.15-1.15,axpxnw8k07l,2022-09-19 13:29:17.815,5f12e6ebfe50020009674aa7,3,63,58,26,24,39,Female,632.0,,"
  <table>
  <tr height=300>
    <td width=300 height=300><img src=""static/images/cards/back_of_black_stars.svg"" width=""175px"" height=""250px""></img></td>
    <td width=300 height=300><img src=""static/images/cards/back_of_black_stars.svg"" width=""175px"" height=""250px""></img></td>
  </tr>
  <tr height=200>
    <td width=300><img src=""static/images/keys/z.svg"" width=""35%"" height=""75%""></img></td>
    <td width=300><img src=""static/images/keys/m.svg"" width=""35%"" height=""75%""></img></td>
  </tr>
</table>
  ",90.0,1.0,,,,,,,,,,,,,,,,,,,,,,,,,,
225,0,,html-keyboard-response,225,765197,0.0-7.15-2.15,axpxnw8k07l,2022-09-19 13:29:17.815,5f12e6ebfe50020009674aa7,3,63,58,26,24,39,Female,,,"
  <table>
  <tr height=300>
    <td width=300 height=300><img src=""static/images/cards/4_of_black_stars.svg"" width=""175px"" height=""250px""></img></td>
    <td width=300 height=300><img src=""static/images/cards/back_of_black_stars.svg"" width=""175px"" height=""250px""></img></td>
  </tr>
  <tr height=200>
    <td width=300><img src=""static/images/keys/z.svg"" width=""35%"" height=""75%""></img></td>
    <td width=300><img src=""static/images/keys/m.svg"" width=""35%"" height=""75%""></img></td>
  </tr>
</table>
  ",,,,,,,,,,,,,,,,,,,,,,,,,,,,
226,0,,html-keyboard-response,226,766728,0.0-7.15-3.15,axpxnw8k07l,2022-09-19 13:29:17.815,5f12e6ebfe50020009674aa7,3,63,58,26,24,39,Female,,,"<p style=""font-size:50px"">You win!
+10 points this round!</p>",,,,,,,,,,,,,,,,,,,,,,,,,,,,
227,0,,html-keyboard-response,227,767262,0.0-7.15-4.15,axpxnw8k07l,2022-09-19 13:29:17.815,5f12e6ebfe50020009674aa7,3,63,58,26,24,39,Female,,,,,,1.0,choice,15.0,C,D,red,black,stars,stars,D,C,C,black,stars,1215.0,1.0,0.0,NA,left,632.0,4.0,0.0,1.0,,,
228,0,,html-keyboard-response,228,768828,0.0-7.16-0.16,axpxnw8k07l,2022-09-19 13:29:17.815,5f12e6ebfe50020009674aa7,3,63,58,26,24,39,Female,1565.0,,"
  <table>
  <tr height=300>
    <td width=300 height=300><img src=""static/images/cards/stack_of_red_moons.svg"" width=""175px"" height=""250px""></img></td>
    <td width=300 height=300><img src=""static/images/cards/stack_of_black_moons.svg"" width=""175px"" height=""250px""></img></td>
  </tr>
  <tr height=200>
    <td width=300><img src=""static/images/keys/w.svg"" width=""35%"" height=""75%""></img></td>
    <td width=300><img src=""static/images/keys/o.svg"" width=""35%"" height=""75%""></img></td>
  </tr>
</table>
  ",79.0,1.0,,,,,,,,,,,,,,,,,,,,,,,,,,
229,0,,html-keyboard-response,229,770026,0.0-7.16-1.16,axpxnw8k07l,2022-09-19 13:29:17.815,5f12e6ebfe50020009674aa7,3,63,58,26,24,39,Female,681.0,,"
  <table>
  <tr height=300>
    <td width=300 height=300><img src=""static/images/cards/back_of_black_moons.svg"" width=""175px"" height=""250px""></img></td>
    <td width=300 height=300><img src=""static/images/cards/back_of_black_moons.svg"" width=""175px"" height=""250px""></img></td>
  </tr>
  <tr height=200>
    <td width=300><img src=""static/images/keys/z.svg"" width=""35%"" height=""75%""></img></td>
    <td width=300><img src=""static/images/keys/m.svg"" width=""35%"" height=""75%""></img></td>
  </tr>
</table>
  ",77.0,1.0,,,,,,,,,,,,,,,,,,,,,,,,,,
230,0,,html-keyboard-response,230,771542,0.0-7.16-2.16,axpxnw8k07l,2022-09-19 13:29:17.815,5f12e6ebfe50020009674aa7,3,63,58,26,24,39,Female,,,"
  <table>
  <tr height=300>
    <td width=300 height=300><img src=""static/images/cards/back_of_black_moons.svg"" width=""175px"" height=""250px""></img></td>
    <td width=300 height=300><img src=""static/images/cards/3_of_black_moons.svg"" width=""175px"" height=""250px""></img></td>
  </tr>
  <tr height=200>
    <td width=300><img src=""static/images/keys/z.svg"" width=""35%"" height=""75%""></img></td>
    <td width=300><img src=""static/images/keys/m.svg"" width=""35%"" height=""75%""></img></td>
  </tr>
</table>
  ",,,,,,,,,,,,,,,,,,,,,,,,,,,,
231,0,,html-keyboard-response,231,773074,0.0-7.16-3.16,axpxnw8k07l,2022-09-19 13:29:17.815,5f12e6ebfe50020009674aa7,3,63,58,26,24,39,Female,,,"<p style=""font-size:50px"">You Lose!
No points this round.</p>",,,,,,,,,,,,,,,,,,,,,,,,,,,,
232,0,,html-keyboard-response,232,773607,0.0-7.16-4.16,axpxnw8k07l,2022-09-19 13:29:17.815,5f12e6ebfe50020009674aa7,3,63,58,26,24,39,Female,,,,,,1.0,choice,16.0,A,B,red,black,moons,moons,B,A,A,black,moons,1565.0,1.0,1.0,NA,right,681.0,3.0,0.0,0.0,,,
233,0,,html-keyboard-response,233,774739,0.0-7.17-0.17,axpxnw8k07l,2022-09-19 13:29:17.815,5f12e6ebfe50020009674aa7,3,63,58,26,24,39,Female,1130.0,,"
  <table>
  <tr height=300>
    <td width=300 height=300><img src=""static/images/cards/stack_of_red_stars.svg"" width=""175px"" height=""250px""></img></td>
    <td width=300 height=300><img src=""static/images/cards/stack_of_black_stars.svg"" width=""175px"" height=""250px""></img></td>
  </tr>
  <tr height=200>
    <td width=300><img src=""static/images/keys/w.svg"" width=""35%"" height=""75%""></img></td>
    <td width=300><img src=""static/images/keys/o.svg"" width=""35%"" height=""75%""></img></td>
  </tr>
</table>
  ",79.0,1.0,,,,,,,,,,,,,,,,,,,,,,,,,,
234,0,,html-keyboard-response,234,775821,0.0-7.17-1.17,axpxnw8k07l,2022-09-19 13:29:17.815,5f12e6ebfe50020009674aa7,3,63,58,26,24,39,Female,562.0,,"
  <table>
  <tr height=300>
    <td width=300 height=300><img src=""static/images/cards/back_of_black_stars.svg"" width=""175px"" height=""250px""></img></td>
    <td width=300 height=300><img src=""static/images/cards/back_of_black_stars.svg"" width=""175px"" height=""250px""></img></td>
  </tr>
  <tr height=200>
    <td width=300><img src=""static/images/keys/z.svg"" width=""35%"" height=""75%""></img></td>
    <td width=300><img src=""static/images/keys/m.svg"" width=""35%"" height=""75%""></img></td>
  </tr>
</table>
  ",90.0,1.0,,,,,,,,,,,,,,,,,,,,,,,,,,
235,0,,html-keyboard-response,235,777336,0.0-7.17-2.17,axpxnw8k07l,2022-09-19 13:29:17.815,5f12e6ebfe50020009674aa7,3,63,58,26,24,39,Female,,,"
  <table>
