,index,success,trial_type,trial_index,time_elapsed,internal_node_id,subject,date,prol_id,ctbl,sense_of_control_A,sense_of_control_B,sense_of_control_C,sense_of_control_D,age,gender,rt,url,stimulus,key_press,npress,is_data_trial,phase,trial,deck1,deck2,col1,col2,sym1,sym2,deck_l,deck_r,chosen_deck,chosen_col,chosen_sym,deck_rt,choose_choice,mutual_info,hidden_key,chosen_card,card_rt,player_num,win_card,outcome,mock_rating,response,responses
0,0,1.0,fullscreen,0,3101,0.0-0.0,dwsxxdbco9g,2022-09-19 16:45:07.875,62bdd58c792242d931ee4271,0,63,51,40,22,23,Male,,,,,,,,,,,,,,,,,,,,,,,,,,,,,,,
1,0,,external-html,1,27450,0.0-1.0,dwsxxdbco9g,2022-09-19 16:45:07.875,62bdd58c792242d931ee4271,0,63,51,40,22,23,Male,24229.0,static/js/sub/consent.html,,,,,,,,,,,,,,,,,,,,,,,,,,,,,
2,0,,call-function,2,27453,0.0-2.0,dwsxxdbco9g,2022-09-19 16:45:07.875,62bdd58c792242d931ee4271,0,63,51,40,22,23,Male,,,,,,,,,,,,,,,,,,,,,,,,,,,,,,,
3,0,,image-keyboard-response,3,33736,0.0-3.0-0.0,dwsxxdbco9g,2022-09-19 16:45:07.875,62bdd58c792242d931ee4271,0,63,51,40,22,23,Male,6282.0,,static/images/instructions_CB_0/Slide1.png,39.0,,,,,,,,,,,,,,,,,,,,,,,,,,,
4,0,,image-keyboard-response,4,49467,0.0-3.1-0.1,dwsxxdbco9g,2022-09-19 16:45:07.875,62bdd58c792242d931ee4271,0,63,51,40,22,23,Male,15728.0,,static/images/instructions_CB_0/Slide2.png,39.0,,,,,,,,,,,,,,,,,,,,,,,,,,,
5,0,,image-keyboard-response,5,54908,0.0-3.2-0.2,dwsxxdbco9g,2022-09-19 16:45:07.875,62bdd58c792242d931ee4271,0,63,51,40,22,23,Male,5439.0,,static/images/instructions_CB_0/Slide3.png,39.0,,,,,,,,,,,,,,,,,,,,,,,,,,,
6,0,,image-keyboard-response,6,60663,0.0-3.3-0.3,dwsxxdbco9g,2022-09-19 16:45:07.875,62bdd58c792242d931ee4271,0,63,51,40,22,23,Male,5753.0,,static/images/instructions_CB_0/Slide4.png,39.0,,,,,,,,,,,,,,,,,,,,,,,,,,,
7,0,,image-keyboard-response,7,66480,0.0-3.4-0.4,dwsxxdbco9g,2022-09-19 16:45:07.875,62bdd58c792242d931ee4271,0,63,51,40,22,23,Male,5816.0,,static/images/instructions_CB_0/Slide5.png,39.0,,,,,,,,,,,,,,,,,,,,,,,,,,,
8,0,,image-keyboard-response,8,68313,0.0-3.5-0.5,dwsxxdbco9g,2022-09-19 16:45:07.875,62bdd58c792242d931ee4271,0,63,51,40,22,23,Male,1831.0,,static/images/instructions_CB_0/Slide6.png,39.0,,,,,,,,,,,,,,,,,,,,,,,,,,,
9,0,,image-keyboard-response,9,71849,0.0-3.6-0.6,dwsxxdbco9g,2022-09-19 16:45:07.875,62bdd58c792242d931ee4271,0,63,51,40,22,23,Male,3532.0,,static/images/instructions_CB_0/Slide7.png,39.0,,,,,,,,,,,,,,,,,,,,,,,,,,,
10,0,,image-keyboard-response,10,89074,0.0-3.7-0.7,dwsxxdbco9g,2022-09-19 16:45:07.875,62bdd58c792242d931ee4271,0,63,51,40,22,23,Male,17223.0,,static/images/instructions_CB_0/Slide8.png,39.0,,,,,,,,,,,,,,,,,,,,,,,,,,,
11,0,,image-keyboard-response,11,93518,0.0-3.8-0.8,dwsxxdbco9g,2022-09-19 16:45:07.875,62bdd58c792242d931ee4271,0,63,51,40,22,23,Male,4442.0,,static/images/instructions_CB_0/Slide9.png,39.0,,,,,,,,,,,,,,,,,,,,,,,,,,,
12,0,,image-keyboard-response,12,104755,0.0-3.9-0.9,dwsxxdbco9g,2022-09-19 16:45:07.875,62bdd58c792242d931ee4271,0,63,51,40,22,23,Male,11236.0,,static/images/instructions_CB_0/Slide10.png,39.0,,,,,,,,,,,,,,,,,,,,,,,,,,,
13,0,,image-keyboard-response,13,109670,0.0-3.10-0.10,dwsxxdbco9g,2022-09-19 16:45:07.875,62bdd58c792242d931ee4271,0,63,51,40,22,23,Male,4913.0,,static/images/instructions_CB_0/Slide11.png,39.0,,,,,,,,,,,,,,,,,,,,,,,,,,,
14,0,,image-keyboard-response,14,124264,0.0-3.11-0.11,dwsxxdbco9g,2022-09-19 16:45:07.875,62bdd58c792242d931ee4271,0,63,51,40,22,23,Male,14592.0,,static/images/instructions_CB_0/Slide12.png,39.0,,,,,,,,,,,,,,,,,,,,,,,,,,,
15,0,,image-keyboard-response,15,140900,0.0-3.12-0.12,dwsxxdbco9g,2022-09-19 16:45:07.875,62bdd58c792242d931ee4271,0,63,51,40,22,23,Male,16634.0,,static/images/instructions_CB_0/Slide13.png,39.0,,,,,,,,,,,,,,,,,,,,,,,,,,,
16,0,,image-keyboard-response,16,147534,0.0-3.13-0.13,dwsxxdbco9g,2022-09-19 16:45:07.875,62bdd58c792242d931ee4271,0,63,51,40,22,23,Male,6633.0,,static/images/instructions_CB_0/Slide14.png,39.0,,,,,,,,,,,,,,,,,,,,,,,,,,,
17,0,,image-keyboard-response,17,153594,0.0-3.14-0.14,dwsxxdbco9g,2022-09-19 16:45:07.875,62bdd58c792242d931ee4271,0,63,51,40,22,23,Male,6059.0,,static/images/instructions_CB_0/Slide15.png,39.0,,,,,,,,,,,,,,,,,,,,,,,,,,,
18,0,,image-keyboard-response,18,161191,0.0-3.15-0.15,dwsxxdbco9g,2022-09-19 16:45:07.875,62bdd58c792242d931ee4271,0,63,51,40,22,23,Male,7594.0,,static/images/instructions_CB_0/Slide16.png,39.0,,,,,,,,,,,,,,,,,,,,,,,,,,,
19,0,,image-keyboard-response,19,175443,0.0-3.16-0.16,dwsxxdbco9g,2022-09-19 16:45:07.875,62bdd58c792242d931ee4271,0,63,51,40,22,23,Male,14251.0,,static/images/instructions_CB_0/Slide17.png,39.0,,,,,,,,,,,,,,,,,,,,,,,,,,,
20,0,,image-keyboard-response,20,186457,0.0-3.17-0.17,dwsxxdbco9g,2022-09-19 16:45:07.875,62bdd58c792242d931ee4271,0,63,51,40,22,23,Male,11014.0,,static/images/instructions_CB_0/Slide18.png,39.0,,,,,,,,,,,,,,,,,,,,,,,,,,,
21,0,,image-keyboard-response,21,198811,0.0-3.18-0.18,dwsxxdbco9g,2022-09-19 16:45:07.875,62bdd58c792242d931ee4271,0,63,51,40,22,23,Male,12352.0,,static/images/instructions_CB_0/Slide19.png,39.0,,,,,,,,,,,,,,,,,,,,,,,,,,,
22,0,,html-keyboard-response,22,200316,0.0-4.0-0.0,dwsxxdbco9g,2022-09-19 16:45:07.875,62bdd58c792242d931ee4271,0,63,51,40,22,23,Male,,,"<img src=""static/images/cards/stack_of_red_stars.svg"" width=""175px"" height=""250px""></img>",,,,,,,,,,,,,,,,,,,,,,,,,,,,
23,0,,html-keyboard-response,23,201999,0.0-4.0-1.0,dwsxxdbco9g,2022-09-19 16:45:07.875,62bdd58c792242d931ee4271,0,63,51,40,22,23,Male,1167.0,,"
  <table>
  <tr height=300>
    <td width=300 height=300><img src=""static/images/cards/back_of_red_stars.svg"" width=""175px"" height=""250px""></img></td>
    <td width=300 height=300><img src=""static/images/cards/back_of_red_stars.svg"" width=""175px"" height=""250px""></img></td>
  </tr>
  <tr height=200>
    <td width=300><img src=""static/images/keys/z.svg"" width=""35%"" height=""75%""></img></td>
    <td width=300><img src=""static/images/keys/m.svg"" width=""35%"" height=""75%""></img></td>
  </tr>
</table>
  ",90.0,1.0,,,,,,,,,,,,,,,,,,,,,,,,,,
24,0,,html-keyboard-response,24,203507,0.0-4.0-2.0,dwsxxdbco9g,2022-09-19 16:45:07.875,62bdd58c792242d931ee4271,0,63,51,40,22,23,Male,,,"
  <table>
  <tr height=300>
    <td width=300 height=300><img src=""static/images/cards/4_of_red_stars.svg"" width=""175px"" height=""250px""></img></td>
    <td width=300 height=300><img src=""static/images/cards/back_of_red_stars.svg"" width=""175px"" height=""250px""></img></td>
  </tr>
  <tr height=200>
    <td width=300><img src=""static/images/keys/z.svg"" width=""35%"" height=""75%""></img></td>
    <td width=300><img src=""static/images/keys/m.svg"" width=""35%"" height=""75%""></img></td>
  </tr>
</table>
  ",,,,,,,,,,,,,,,,,,,,,,,,,,,,
25,0,,html-keyboard-response,25,205032,0.0-4.0-3.0,dwsxxdbco9g,2022-09-19 16:45:07.875,62bdd58c792242d931ee4271,0,63,51,40,22,23,Male,,,"<p style=""font-size:50px"">You Lose!
No points this round.</p>",,,,,,,,,,,,,,,,,,,,,,,,,,,,
26,0,,html-keyboard-response,26,205562,0.0-4.0-4.0,dwsxxdbco9g,2022-09-19 16:45:07.875,62bdd58c792242d931ee4271,0,63,51,40,22,23,Male,,,,,,1.0,learning,0.0,A,,red,,stars,,,,A,red,stars,,1.0,1.0,NA,left,1167.0,4.0,0.0,0.0,,,
27,0,,html-keyboard-response,27,207063,0.0-4.1-0.1,dwsxxdbco9g,2022-09-19 16:45:07.875,62bdd58c792242d931ee4271,0,63,51,40,22,23,Male,,,"<img src=""static/images/cards/stack_of_black_stars.svg"" width=""175px"" height=""250px""></img>",,,,,,,,,,,,,,,,,,,,,,,,,,,,
28,0,,html-keyboard-response,28,208176,0.0-4.1-1.1,dwsxxdbco9g,2022-09-19 16:45:07.875,62bdd58c792242d931ee4271,0,63,51,40,22,23,Male,595.0,,"
  <table>
  <tr height=300>
    <td width=300 height=300><img src=""static/images/cards/back_of_black_stars.svg"" width=""175px"" height=""250px""></img></td>
    <td width=300 height=300><img src=""static/images/cards/back_of_black_stars.svg"" width=""175px"" height=""250px""></img></td>
  </tr>
  <tr height=200>
    <td width=300><img src=""static/images/keys/z.svg"" width=""35%"" height=""75%""></img></td>
    <td width=300></td>
  </tr>
</table>
  ",90.0,1.0,,,,,,,,,,,,,,,,,,,,,,,,,,
29,0,,html-keyboard-response,29,209688,0.0-4.1-2.1,dwsxxdbco9g,2022-09-19 16:45:07.875,62bdd58c792242d931ee4271,0,63,51,40,22,23,Male,,,"
  <table>
  <tr height=300>
    <td width=300 height=300><img src=""static/images/cards/1_of_black_stars.svg"" width=""175px"" height=""250px""></img></td>
    <td width=300 height=300><img src=""static/images/cards/back_of_black_stars.svg"" width=""175px"" height=""250px""></img></td>
  </tr>
  <tr height=200>
    <td width=300><img src=""static/images/keys/z.svg"" width=""35%"" height=""75%""></img></td>
    <td width=300></td>
  </tr>
</table>
  ",,,,,,,,,,,,,,,,,,,,,,,,,,,,
30,0,,html-keyboard-response,30,211214,0.0-4.1-3.1,dwsxxdbco9g,2022-09-19 16:45:07.875,62bdd58c792242d931ee4271,0,63,51,40,22,23,Male,,,"<p style=""font-size:50px"">You Lose!
No points this round.</p>",,,,,,,,,,,,,,,,,,,,,,,,,,,,
31,0,,html-keyboard-response,31,211731,0.0-4.1-4.1,dwsxxdbco9g,2022-09-19 16:45:07.875,62bdd58c792242d931ee4271,0,63,51,40,22,23,Male,,,,,,1.0,learning,1.0,B,,black,,stars,,,,B,black,stars,,0.0,1.0,1,left,595.0,1.0,0.0,0.0,,,
32,0,,html-keyboard-response,32,213233,0.0-4.2-0.2,dwsxxdbco9g,2022-09-19 16:45:07.875,62bdd58c792242d931ee4271,0,63,51,40,22,23,Male,,,"<img src=""static/images/cards/stack_of_red_moons.svg"" width=""175px"" height=""250px""></img>",,,,,,,,,,,,,,,,,,,,,,,,,,,,
33,0,,html-keyboard-response,33,214267,0.0-4.2-1.2,dwsxxdbco9g,2022-09-19 16:45:07.875,62bdd58c792242d931ee4271,0,63,51,40,22,23,Male,531.0,,"
  <table>
  <tr height=300>
    <td width=300 height=300><img src=""static/images/cards/back_of_red_moons.svg"" width=""175px"" height=""250px""></img></td>
    <td width=300 height=300><img src=""static/images/cards/back_of_red_moons.svg"" width=""175px"" height=""250px""></img></td>
  </tr>
  <tr height=200>
    <td width=300><img src=""static/images/keys/z.svg"" width=""35%"" height=""75%""></img></td>
    <td width=300><img src=""static/images/keys/m.svg"" width=""35%"" height=""75%""></img></td>
  </tr>
</table>
  ",77.0,1.0,,,,,,,,,,,,,,,,,,,,,,,,,,
34,0,,html-keyboard-response,34,215780,0.0-4.2-2.2,dwsxxdbco9g,2022-09-19 16:45:07.875,62bdd58c792242d931ee4271,0,63,51,40,22,23,Male,,,"
  <table>
  <tr height=300>
    <td width=300 height=300><img src=""static/images/cards/back_of_red_moons.svg"" width=""175px"" height=""250px""></img></td>
    <td width=300 height=300><img src=""static/images/cards/4_of_red_moons.svg"" width=""175px"" height=""250px""></img></td>
  </tr>
  <tr height=200>
    <td width=300><img src=""static/images/keys/z.svg"" width=""35%"" height=""75%""></img></td>
    <td width=300><img src=""static/images/keys/m.svg"" width=""35%"" height=""75%""></img></td>
  </tr>
</table>
  ",,,,,,,,,,,,,,,,,,,,,,,,,,,,
35,0,,html-keyboard-response,35,217296,0.0-4.2-3.2,dwsxxdbco9g,2022-09-19 16:45:07.875,62bdd58c792242d931ee4271,0,63,51,40,22,23,Male,,,"<p style=""font-size:50px"">You win!
+10 points this round!</p>",,,,,,,,,,,,,,,,,,,,,,,,,,,,
36,0,,html-keyboard-response,36,217826,0.0-4.2-4.2,dwsxxdbco9g,2022-09-19 16:45:07.875,62bdd58c792242d931ee4271,0,63,51,40,22,23,Male,,,,,,1.0,learning,2.0,C,,red,,moons,,,,C,red,moons,,1.0,0.0,NA,right,531.0,4.0,0.0,1.0,,,
37,0,,html-keyboard-response,37,219339,0.0-4.3-0.3,dwsxxdbco9g,2022-09-19 16:45:07.875,62bdd58c792242d931ee4271,0,63,51,40,22,23,Male,,,"<img src=""static/images/cards/stack_of_black_moons.svg"" width=""175px"" height=""250px""></img>",,,,,,,,,,,,,,,,,,,,,,,,,,,,
38,0,,html-keyboard-response,38,220680,0.0-4.3-1.3,dwsxxdbco9g,2022-09-19 16:45:07.875,62bdd58c792242d931ee4271,0,63,51,40,22,23,Male,828.0,,"
  <table>
  <tr height=300>
    <td width=300 height=300><img src=""static/images/cards/back_of_black_moons.svg"" width=""175px"" height=""250px""></img></td>
    <td width=300 height=300><img src=""static/images/cards/back_of_black_moons.svg"" width=""175px"" height=""250px""></img></td>
  </tr>
  <tr height=200>
    <td width=300><img src=""static/images/keys/z.svg"" width=""35%"" height=""75%""></img></td>
    <td width=300></td>
  </tr>
</table>
  ",90.0,1.0,,,,,,,,,,,,,,,,,,,,,,,,,,
39,0,,html-keyboard-response,39,222188,0.0-4.3-2.3,dwsxxdbco9g,2022-09-19 16:45:07.875,62bdd58c792242d931ee4271,0,63,51,40,22,23,Male,,,"
  <table>
  <tr height=300>
    <td width=300 height=300><img src=""static/images/cards/6_of_black_moons.svg"" width=""175px"" height=""250px""></img></td>
    <td width=300 height=300><img src=""static/images/cards/back_of_black_moons.svg"" width=""175px"" height=""250px""></img></td>
  </tr>
  <tr height=200>
    <td width=300><img src=""static/images/keys/z.svg"" width=""35%"" height=""75%""></img></td>
    <td width=300></td>
  </tr>
</table>
  ",,,,,,,,,,,,,,,,,,,,,,,,,,,,
40,0,,html-keyboard-response,40,223713,0.0-4.3-3.3,dwsxxdbco9g,2022-09-19 16:45:07.875,62bdd58c792242d931ee4271,0,63,51,40,22,23,Male,,,"<p style=""font-size:50px"">You win!
+10 points this round!</p>",,,,,,,,,,,,,,,,,,,,,,,,,,,,
41,0,,html-keyboard-response,41,224241,0.0-4.3-4.3,dwsxxdbco9g,2022-09-19 16:45:07.875,62bdd58c792242d931ee4271,0,63,51,40,22,23,Male,,,,,,1.0,learning,3.0,D,,black,,moons,,,,D,black,moons,,0.0,0.0,1,left,828.0,6.0,1.0,1.0,,,
42,0,,html-keyboard-response,42,225751,0.0-4.4-0.4,dwsxxdbco9g,2022-09-19 16:45:07.875,62bdd58c792242d931ee4271,0,63,51,40,22,23,Male,,,"<img src=""static/images/cards/stack_of_red_bolts.svg"" width=""175px"" height=""250px""></img>",,,,,,,,,,,,,,,,,,,,,,,,,,,,
43,0,,html-keyboard-response,43,226552,0.0-4.4-1.4,dwsxxdbco9g,2022-09-19 16:45:07.875,62bdd58c792242d931ee4271,0,63,51,40,22,23,Male,286.0,,"
  <table>
  <tr height=300>
    <td width=300 height=300><img src=""static/images/cards/back_of_red_bolts.svg"" width=""175px"" height=""250px""></img></td>
    <td width=300 height=300><img src=""static/images/cards/back_of_red_bolts.svg"" width=""175px"" height=""250px""></img></td>
  </tr>
  <tr height=200>
    <td width=300><img src=""static/images/keys/z.svg"" width=""35%"" height=""75%""></img></td>
    <td width=300><img src=""static/images/keys/m.svg"" width=""35%"" height=""75%""></img></td>
  </tr>
</table>
  ",90.0,1.0,,,,,,,,,,,,,,,,,,,,,,,,,,
44,0,,html-keyboard-response,44,228062,0.0-4.4-2.4,dwsxxdbco9g,2022-09-19 16:45:07.875,62bdd58c792242d931ee4271,0,63,51,40,22,23,Male,,,"
  <table>
  <tr height=300>
    <td width=300 height=300><img src=""static/images/cards/7_of_red_bolts.svg"" width=""175px"" height=""250px""></img></td>
    <td width=300 height=300><img src=""static/images/cards/back_of_red_bolts.svg"" width=""175px"" height=""250px""></img></td>
  </tr>
  <tr height=200>
    <td width=300><img src=""static/images/keys/z.svg"" width=""35%"" height=""75%""></img></td>
    <td width=300><img src=""static/images/keys/m.svg"" width=""35%"" height=""75%""></img></td>
  </tr>
</table>
  ",,,,,,,,,,,,,,,,,,,,,,,,,,,,
45,0,,html-keyboard-response,45,229589,0.0-4.4-3.4,dwsxxdbco9g,2022-09-19 16:45:07.875,62bdd58c792242d931ee4271,0,63,51,40,22,23,Male,,,"<p style=""font-size:50px"">You win!
+10 points this round!</p>",,,,,,,,,,,,,,,,,,,,,,,,,,,,
46,0,,html-keyboard-response,46,230108,0.0-4.4-4.4,dwsxxdbco9g,2022-09-19 16:45:07.875,62bdd58c792242d931ee4271,0,63,51,40,22,23,Male,,,,,,1.0,learning,4.0,Xc,,red,,bolts,,,,Xc,red,bolts,,1.0,0.0,NA,left,286.0,7.0,1.0,1.0,,,
47,0,,html-keyboard-response,47,231610,0.0-4.5-0.5,dwsxxdbco9g,2022-09-19 16:45:07.875,62bdd58c792242d931ee4271,0,63,51,40,22,23,Male,,,"<img src=""static/images/cards/stack_of_black_bolts.svg"" width=""175px"" height=""250px""></img>",,,,,,,,,,,,,,,,,,,,,,,,,,,,
48,0,,html-keyboard-response,48,232539,0.0-4.5-1.5,dwsxxdbco9g,2022-09-19 16:45:07.875,62bdd58c792242d931ee4271,0,63,51,40,22,23,Male,415.0,,"
  <table>
  <tr height=300>
    <td width=300 height=300><img src=""static/images/cards/back_of_black_bolts.svg"" width=""175px"" height=""250px""></img></td>
    <td width=300 height=300><img src=""static/images/cards/back_of_black_bolts.svg"" width=""175px"" height=""250px""></img></td>
  </tr>
  <tr height=200>
    <td width=300></td>
    <td width=300><img src=""static/images/keys/m.svg"" width=""35%"" height=""75%""></img></td>
  </tr>
</table>
  ",77.0,1.0,,,,,,,,,,,,,,,,,,,,,,,,,,
49,0,,html-keyboard-response,49,234046,0.0-4.5-2.5,dwsxxdbco9g,2022-09-19 16:45:07.875,62bdd58c792242d931ee4271,0,63,51,40,22,23,Male,,,"
  <table>
  <tr height=300>
    <td width=300 height=300><img src=""static/images/cards/back_of_black_bolts.svg"" width=""175px"" height=""250px""></img></td>
    <td width=300 height=300><img src=""static/images/cards/10_of_black_bolts.svg"" width=""175px"" height=""250px""></img></td>
  </tr>
  <tr height=200>
    <td width=300></td>
    <td width=300><img src=""static/images/keys/m.svg"" width=""35%"" height=""75%""></img></td>
  </tr>
</table>
  ",,,,,,,,,,,,,,,,,,,,,,,,,,,,
50,0,,html-keyboard-response,50,235554,0.0-4.5-3.5,dwsxxdbco9g,2022-09-19 16:45:07.875,62bdd58c792242d931ee4271,0,63,51,40,22,23,Male,,,"<p style=""font-size:50px"">You win!
+10 points this round!</p>",,,,,,,,,,,,,,,,,,,,,,,,,,,,
51,0,,html-keyboard-response,51,236083,0.0-4.5-4.5,dwsxxdbco9g,2022-09-19 16:45:07.875,62bdd58c792242d931ee4271,0,63,51,40,22,23,Male,,,,,,1.0,learning,5.0,Xnc,,black,,bolts,,,,Xnc,black,bolts,,0.0,0.0,0,right,415.0,10.0,1.0,1.0,,,
52,0,,html-keyboard-response,52,237596,0.0-4.6-0.6,dwsxxdbco9g,2022-09-19 16:45:07.875,62bdd58c792242d931ee4271,0,63,51,40,22,23,Male,,,"<img src=""static/images/cards/stack_of_red_stars.svg"" width=""175px"" height=""250px""></img>",,,,,,,,,,,,,,,,,,,,,,,,,,,,
53,0,,html-keyboard-response,53,238718,0.0-4.6-1.6,dwsxxdbco9g,2022-09-19 16:45:07.875,62bdd58c792242d931ee4271,0,63,51,40,22,23,Male,607.0,,"
  <table>
  <tr height=300>
    <td width=300 height=300><img src=""static/images/cards/back_of_red_stars.svg"" width=""175px"" height=""250px""></img></td>
    <td width=300 height=300><img src=""static/images/cards/back_of_red_stars.svg"" width=""175px"" height=""250px""></img></td>
  </tr>
  <tr height=200>
    <td width=300><img src=""static/images/keys/z.svg"" width=""35%"" height=""75%""></img></td>
    <td width=300><img src=""static/images/keys/m.svg"" width=""35%"" height=""75%""></img></td>
  </tr>
</table>
  ",90.0,1.0,,,,,,,,,,,,,,,,,,,,,,,,,,
54,0,,html-keyboard-response,54,240235,0.0-4.6-2.6,dwsxxdbco9g,2022-09-19 16:45:07.875,62bdd58c792242d931ee4271,0,63,51,40,22,23,Male,,,"
  <table>
  <tr height=300>
    <td width=300 height=300><img src=""static/images/cards/8_of_red_stars.svg"" width=""175px"" height=""250px""></img></td>
    <td width=300 height=300><img src=""static/images/cards/back_of_red_stars.svg"" width=""175px"" height=""250px""></img></td>
  </tr>
  <tr height=200>
    <td width=300><img src=""static/images/keys/z.svg"" width=""35%"" height=""75%""></img></td>
    <td width=300><img src=""static/images/keys/m.svg"" width=""35%"" height=""75%""></img></td>
  </tr>
</table>
  ",,,,,,,,,,,,,,,,,,,,,,,,,,,,
55,0,,html-keyboard-response,55,241760,0.0-4.6-3.6,dwsxxdbco9g,2022-09-19 16:45:07.875,62bdd58c792242d931ee4271,0,63,51,40,22,23,Male,,,"<p style=""font-size:50px"">You win!
+10 points this round!</p>",,,,,,,,,,,,,,,,,,,,,,,,,,,,
56,0,,html-keyboard-response,56,242280,0.0-4.6-4.6,dwsxxdbco9g,2022-09-19 16:45:07.875,62bdd58c792242d931ee4271,0,63,51,40,22,23,Male,,,,,,1.0,learning,6.0,A,,red,,stars,,,,A,red,stars,,1.0,1.0,NA,left,607.0,8.0,1.0,1.0,,,
57,0,,html-keyboard-response,57,243784,0.0-4.7-0.7,dwsxxdbco9g,2022-09-19 16:45:07.875,62bdd58c792242d931ee4271,0,63,51,40,22,23,Male,,,"<img src=""static/images/cards/stack_of_black_stars.svg"" width=""175px"" height=""250px""></img>",,,,,,,,,,,,,,,,,,,,,,,,,,,,
58,0,,html-keyboard-response,58,244781,0.0-4.7-1.7,dwsxxdbco9g,2022-09-19 16:45:07.875,62bdd58c792242d931ee4271,0,63,51,40,22,23,Male,485.0,,"
  <table>
  <tr height=300>
    <td width=300 height=300><img src=""static/images/cards/back_of_black_stars.svg"" width=""175px"" height=""250px""></img></td>
    <td width=300 height=300><img src=""static/images/cards/back_of_black_stars.svg"" width=""175px"" height=""250px""></img></td>
  </tr>
  <tr height=200>
    <td width=300><img src=""static/images/keys/z.svg"" width=""35%"" height=""75%""></img></td>
    <td width=300></td>
  </tr>
</table>
  ",90.0,1.0,,,,,,,,,,,,,,,,,,,,,,,,,,
59,0,,html-keyboard-response,59,246299,0.0-4.7-2.7,dwsxxdbco9g,2022-09-19 16:45:07.875,62bdd58c792242d931ee4271,0,63,51,40,22,23,Male,,,"
  <table>
  <tr height=300>
    <td width=300 height=300><img src=""static/images/cards/3_of_black_stars.svg"" width=""175px"" height=""250px""></img></td>
    <td width=300 height=300><img src=""static/images/cards/back_of_black_stars.svg"" width=""175px"" height=""250px""></img></td>
  </tr>
  <tr height=200>
    <td width=300><img src=""static/images/keys/z.svg"" width=""35%"" height=""75%""></img></td>
    <td width=300></td>
  </tr>
</table>
  ",,,,,,,,,,,,,,,,,,,,,,,,,,,,
60,0,,html-keyboard-response,60,247803,0.0-4.7-3.7,dwsxxdbco9g,2022-09-19 16:45:07.875,62bdd58c792242d931ee4271,0,63,51,40,22,23,Male,,,"<p style=""font-size:50px"">You Lose!
No points this round.</p>",,,,,,,,,,,,,,,,,,,,,,,,,,,,
61,0,,html-keyboard-response,61,248333,0.0-4.7-4.7,dwsxxdbco9g,2022-09-19 16:45:07.875,62bdd58c792242d931ee4271,0,63,51,40,22,23,Male,,,,,,1.0,learning,7.0,B,,black,,stars,,,,B,black,stars,,0.0,1.0,1,left,485.0,3.0,0.0,0.0,,,
62,0,,html-keyboard-response,62,249849,0.0-4.8-0.8,dwsxxdbco9g,2022-09-19 16:45:07.875,62bdd58c792242d931ee4271,0,63,51,40,22,23,Male,,,"<img src=""static/images/cards/stack_of_red_moons.svg"" width=""175px"" height=""250px""></img>",,,,,,,,,,,,,,,,,,,,,,,,,,,,
63,0,,html-keyboard-response,63,250884,0.0-4.8-1.8,dwsxxdbco9g,2022-09-19 16:45:07.875,62bdd58c792242d931ee4271,0,63,51,40,22,23,Male,527.0,,"
  <table>
  <tr height=300>
    <td width=300 height=300><img src=""static/images/cards/back_of_red_moons.svg"" width=""175px"" height=""250px""></img></td>
    <td width=300 height=300><img src=""static/images/cards/back_of_red_moons.svg"" width=""175px"" height=""250px""></img></td>
  </tr>
  <tr height=200>
    <td width=300><img src=""static/images/keys/z.svg"" width=""35%"" height=""75%""></img></td>
    <td width=300><img src=""static/images/keys/m.svg"" width=""35%"" height=""75%""></img></td>
  </tr>
</table>
  ",77.0,1.0,,,,,,,,,,,,,,,,,,,,,,,,,,
64,0,,html-keyboard-response,64,252389,0.0-4.8-2.8,dwsxxdbco9g,2022-09-19 16:45:07.875,62bdd58c792242d931ee4271,0,63,51,40,22,23,Male,,,"
  <table>
  <tr height=300>
    <td width=300 height=300><img src=""static/images/cards/back_of_red_moons.svg"" width=""175px"" height=""250px""></img></td>
    <td width=300 height=300><img src=""static/images/cards/10_of_red_moons.svg"" width=""175px"" height=""250px""></img></td>
  </tr>
  <tr height=200>
    <td width=300><img src=""static/images/keys/z.svg"" width=""35%"" height=""75%""></img></td>
    <td width=300><img src=""static/images/keys/m.svg"" width=""35%"" height=""75%""></img></td>
  </tr>
</table>
  ",,,,,,,,,,,,,,,,,,,,,,,,,,,,
65,0,,html-keyboard-response,65,253898,0.0-4.8-3.8,dwsxxdbco9g,2022-09-19 16:45:07.875,62bdd58c792242d931ee4271,0,63,51,40,22,23,Male,,,"<p style=""font-size:50px"">You win!
+10 points this round!</p>",,,,,,,,,,,,,,,,,,,,,,,,,,,,
66,0,,html-keyboard-response,66,254421,0.0-4.8-4.8,dwsxxdbco9g,2022-09-19 16:45:07.875,62bdd58c792242d931ee4271,0,63,51,40,22,23,Male,,,,,,1.0,learning,8.0,C,,red,,moons,,,,C,red,moons,,1.0,0.0,NA,right,527.0,10.0,1.0,1.0,,,
67,0,,html-keyboard-response,67,255922,0.0-4.9-0.9,dwsxxdbco9g,2022-09-19 16:45:07.875,62bdd58c792242d931ee4271,0,63,51,40,22,23,Male,,,"<img src=""static/images/cards/stack_of_black_moons.svg"" width=""175px"" height=""250px""></img>",,,,,,,,,,,,,,,,,,,,,,,,,,,,
68,0,,html-keyboard-response,68,256877,0.0-4.9-1.9,dwsxxdbco9g,2022-09-19 16:45:07.875,62bdd58c792242d931ee4271,0,63,51,40,22,23,Male,445.0,,"
  <table>
  <tr height=300>
    <td width=300 height=300><img src=""static/images/cards/back_of_black_moons.svg"" width=""175px"" height=""250px""></img></td>
    <td width=300 height=300><img src=""static/images/cards/back_of_black_moons.svg"" width=""175px"" height=""250px""></img></td>
  </tr>
  <tr height=200>
    <td width=300><img src=""static/images/keys/z.svg"" width=""35%"" height=""75%""></img></td>
    <td width=300></td>
  </tr>
</table>
  ",90.0,1.0,,,,,,,,,,,,,,,,,,,,,,,,,,
69,0,,html-keyboard-response,69,258389,0.0-4.9-2.9,dwsxxdbco9g,2022-09-19 16:45:07.875,62bdd58c792242d931ee4271,0,63,51,40,22,23,Male,,,"
  <table>
  <tr height=300>
    <td width=300 height=300><img src=""static/images/cards/4_of_black_moons.svg"" width=""175px"" height=""250px""></img></td>
    <td width=300 height=300><img src=""static/images/cards/back_of_black_moons.svg"" width=""175px"" height=""250px""></img></td>
  </tr>
  <tr height=200>
    <td width=300><img src=""static/images/keys/z.svg"" width=""35%"" height=""75%""></img></td>
    <td width=300></td>
  </tr>
</table>
  ",,,,,,,,,,,,,,,,,,,,,,,,,,,,
70,0,,html-keyboard-response,70,259907,0.0-4.9-3.9,dwsxxdbco9g,2022-09-19 16:45:07.875,62bdd58c792242d931ee4271,0,63,51,40,22,23,Male,,,"<p style=""font-size:50px"">You Lose!
No points this round.</p>",,,,,,,,,,,,,,,,,,,,,,,,,,,,
71,0,,html-keyboard-response,71,260438,0.0-4.9-4.9,dwsxxdbco9g,2022-09-19 16:45:07.875,62bdd58c792242d931ee4271,0,63,51,40,22,23,Male,,,,,,1.0,learning,9.0,D,,black,,moons,,,,D,black,moons,,0.0,0.0,1,left,445.0,4.0,0.0,0.0,,,
72,0,,html-keyboard-response,72,261948,0.0-4.10-0.10,dwsxxdbco9g,2022-09-19 16:45:07.875,62bdd58c792242d931ee4271,0,63,51,40,22,23,Male,,,"<img src=""static/images/cards/stack_of_red_bolts.svg"" width=""175px"" height=""250px""></img>",,,,,,,,,,,,,,,,,,,,,,,,,,,,
73,0,,html-keyboard-response,73,262951,0.0-4.10-1.10,dwsxxdbco9g,2022-09-19 16:45:07.875,62bdd58c792242d931ee4271,0,63,51,40,22,23,Male,499.0,,"
  <table>
  <tr height=300>
    <td width=300 height=300><img src=""static/images/cards/back_of_red_bolts.svg"" width=""175px"" height=""250px""></img></td>
    <td width=300 height=300><img src=""static/images/cards/back_of_red_bolts.svg"" width=""175px"" height=""250px""></img></td>
  </tr>
  <tr height=200>
    <td width=300><img src=""static/images/keys/z.svg"" width=""35%"" height=""75%""></img></td>
    <td width=300><img src=""static/images/keys/m.svg"" width=""35%"" height=""75%""></img></td>
  </tr>
</table>
  ",77.0,1.0,,,,,,,,,,,,,,,,,,,,,,,,,,
74,0,,html-keyboard-response,74,264457,0.0-4.10-2.10,dwsxxdbco9g,2022-09-19 16:45:07.875,62bdd58c792242d931ee4271,0,63,51,40,22,23,Male,,,"
  <table>
  <tr height=300>
    <td width=300 height=300><img src=""static/images/cards/back_of_red_bolts.svg"" width=""175px"" height=""250px""></img></td>
    <td width=300 height=300><img src=""static/images/cards/2_of_red_bolts.svg"" width=""175px"" height=""250px""></img></td>
  </tr>
  <tr height=200>
    <td width=300><img src=""static/images/keys/z.svg"" width=""35%"" height=""75%""></img></td>
    <td width=300><img src=""static/images/keys/m.svg"" width=""35%"" height=""75%""></img></td>
  </tr>
</table>
  ",,,,,,,,,,,,,,,,,,,,,,,,,,,,
75,0,,html-keyboard-response,75,265971,0.0-4.10-3.10,dwsxxdbco9g,2022-09-19 16:45:07.875,62bdd58c792242d931ee4271,0,63,51,40,22,23,Male,,,"<p style=""font-size:50px"">You win!
+10 points this round!</p>",,,,,,,,,,,,,,,,,,,,,,,,,,,,
76,0,,html-keyboard-response,76,266485,0.0-4.10-4.10,dwsxxdbco9g,2022-09-19 16:45:07.875,62bdd58c792242d931ee4271,0,63,51,40,22,23,Male,,,,,,1.0,learning,10.0,Xc,,red,,bolts,,,,Xc,red,bolts,,1.0,0.0,NA,right,499.0,2.0,0.0,1.0,,,
77,0,,html-keyboard-response,77,267996,0.0-4.11-0.11,dwsxxdbco9g,2022-09-19 16:45:07.875,62bdd58c792242d931ee4271,0,63,51,40,22,23,Male,,,"<img src=""static/images/cards/stack_of_black_bolts.svg"" width=""175px"" height=""250px""></img>",,,,,,,,,,,,,,,,,,,,,,,,,,,,
78,0,,html-keyboard-response,78,268904,0.0-4.11-1.11,dwsxxdbco9g,2022-09-19 16:45:07.875,62bdd58c792242d931ee4271,0,63,51,40,22,23,Male,397.0,,"
  <table>
  <tr height=300>
    <td width=300 height=300><img src=""static/images/cards/back_of_black_bolts.svg"" width=""175px"" height=""250px""></img></td>
    <td width=300 height=300><img src=""static/images/cards/back_of_black_bolts.svg"" width=""175px"" height=""250px""></img></td>
  </tr>
  <tr height=200>
    <td width=300><img src=""static/images/keys/z.svg"" width=""35%"" height=""75%""></img></td>
    <td width=300></td>
  </tr>
</table>
  ",90.0,1.0,,,,,,,,,,,,,,,,,,,,,,,,,,
79,0,,html-keyboard-response,79,270415,0.0-4.11-2.11,dwsxxdbco9g,2022-09-19 16:45:07.875,62bdd58c792242d931ee4271,0,63,51,40,22,23,Male,,,"
  <table>
  <tr height=300>
    <td width=300 height=300><img src=""static/images/cards/1_of_black_bolts.svg"" width=""175px"" height=""250px""></img></td>
    <td width=300 height=300><img src=""static/images/cards/back_of_black_bolts.svg"" width=""175px"" height=""250px""></img></td>
  </tr>
  <tr height=200>
    <td width=300><img src=""static/images/keys/z.svg"" width=""35%"" height=""75%""></img></td>
    <td width=300></td>
  </tr>
</table>
  ",,,,,,,,,,,,,,,,,,,,,,,,,,,,
80,0,,html-keyboard-response,80,271933,0.0-4.11-3.11,dwsxxdbco9g,2022-09-19 16:45:07.875,62bdd58c792242d931ee4271,0,63,51,40,22,23,Male,,,"<p style=""font-size:50px"">You win!
+10 points this round!</p>",,,,,,,,,,,,,,,,,,,,,,,,,,,,
81,0,,html-keyboard-response,81,272463,0.0-4.11-4.11,dwsxxdbco9g,2022-09-19 16:45:07.875,62bdd58c792242d931ee4271,0,63,51,40,22,23,Male,,,,,,1.0,learning,11.0,Xnc,,black,,bolts,,,,Xnc,black,bolts,,0.0,0.0,1,left,397.0,1.0,0.0,1.0,,,
82,0,,html-keyboard-response,82,273972,0.0-4.12-0.12,dwsxxdbco9g,2022-09-19 16:45:07.875,62bdd58c792242d931ee4271,0,63,51,40,22,23,Male,,,"<img src=""static/images/cards/stack_of_red_stars.svg"" width=""175px"" height=""250px""></img>",,,,,,,,,,,,,,,,,,,,,,,,,,,,
83,0,,html-keyboard-response,83,274954,0.0-4.12-1.12,dwsxxdbco9g,2022-09-19 16:45:07.875,62bdd58c792242d931ee4271,0,63,51,40,22,23,Male,468.0,,"
  <table>
  <tr height=300>
    <td width=300 height=300><img src=""static/images/cards/back_of_red_stars.svg"" width=""175px"" height=""250px""></img></td>
    <td width=300 height=300><img src=""static/images/cards/back_of_red_stars.svg"" width=""175px"" height=""250px""></img></td>
  </tr>
  <tr height=200>
    <td width=300><img src=""static/images/keys/z.svg"" width=""35%"" height=""75%""></img></td>
    <td width=300><img src=""static/images/keys/m.svg"" width=""35%"" height=""75%""></img></td>
  </tr>
</table>
  ",77.0,1.0,,,,,,,,,,,,,,,,,,,,,,,,,,
84,0,,html-keyboard-response,84,276456,0.0-4.12-2.12,dwsxxdbco9g,2022-09-19 16:45:07.875,62bdd58c792242d931ee4271,0,63,51,40,22,23,Male,,,"
  <table>
  <tr height=300>
    <td width=300 height=300><img src=""static/images/cards/back_of_red_stars.svg"" width=""175px"" height=""250px""></img></td>
    <td width=300 height=300><img src=""static/images/cards/6_of_red_stars.svg"" width=""175px"" height=""250px""></img></td>
  </tr>
  <tr height=200>
    <td width=300><img src=""static/images/keys/z.svg"" width=""35%"" height=""75%""></img></td>
    <td width=300><img src=""static/images/keys/m.svg"" width=""35%"" height=""75%""></img></td>
  </tr>
</table>
  ",,,,,,,,,,,,,,,,,,,,,,,,,,,,
85,0,,html-keyboard-response,85,277979,0.0-4.12-3.12,dwsxxdbco9g,2022-09-19 16:45:07.875,62bdd58c792242d931ee4271,0,63,51,40,22,23,Male,,,"<p style=""font-size:50px"">You win!
+10 points this round!</p>",,,,,,,,,,,,,,,,,,,,,,,,,,,,
86,0,,html-keyboard-response,86,278499,0.0-4.12-4.12,dwsxxdbco9g,2022-09-19 16:45:07.875,62bdd58c792242d931ee4271,0,63,51,40,22,23,Male,,,,,,1.0,learning,12.0,A,,red,,stars,,,,A,red,stars,,1.0,1.0,NA,right,468.0,6.0,1.0,1.0,,,
87,0,,html-keyboard-response,87,280007,0.0-4.13-0.13,dwsxxdbco9g,2022-09-19 16:45:07.875,62bdd58c792242d931ee4271,0,63,51,40,22,23,Male,,,"<img src=""static/images/cards/stack_of_black_stars.svg"" width=""175px"" height=""250px""></img>",,,,,,,,,,,,,,,,,,,,,,,,,,,,
88,0,,html-keyboard-response,88,281039,0.0-4.13-1.13,dwsxxdbco9g,2022-09-19 16:45:07.875,62bdd58c792242d931ee4271,0,63,51,40,22,23,Male,518.0,,"
  <table>
  <tr height=300>
    <td width=300 height=300><img src=""static/images/cards/back_of_black_stars.svg"" width=""175px"" height=""250px""></img></td>
    <td width=300 height=300><img src=""static/images/cards/back_of_black_stars.svg"" width=""175px"" height=""250px""></img></td>
  </tr>
  <tr height=200>
    <td width=300></td>
    <td width=300><img src=""static/images/keys/m.svg"" width=""35%"" height=""75%""></img></td>
  </tr>
</table>
  ",77.0,1.0,,,,,,,,,,,,,,,,,,,,,,,,,,
89,0,,html-keyboard-response,89,282548,0.0-4.13-2.13,dwsxxdbco9g,2022-09-19 16:45:07.875,62bdd58c792242d931ee4271,0,63,51,40,22,23,Male,,,"
  <table>
  <tr height=300>
    <td width=300 height=300><img src=""static/images/cards/back_of_black_stars.svg"" width=""175px"" height=""250px""></img></td>
    <td width=300 height=300><img src=""static/images/cards/8_of_black_stars.svg"" width=""175px"" height=""250px""></img></td>
  </tr>
  <tr height=200>
    <td width=300></td>
    <td width=300><img src=""static/images/keys/m.svg"" width=""35%"" height=""75%""></img></td>
  </tr>
</table>
  ",,,,,,,,,,,,,,,,,,,,,,,,,,,,
90,0,,html-keyboard-response,90,284061,0.0-4.13-3.13,dwsxxdbco9g,2022-09-19 16:45:07.875,62bdd58c792242d931ee4271,0,63,51,40,22,23,Male,,,"<p style=""font-size:50px"">You win!
+10 points this round!</p>",,,,,,,,,,,,,,,,,,,,,,,,,,,,
91,0,,html-keyboard-response,91,284579,0.0-4.13-4.13,dwsxxdbco9g,2022-09-19 16:45:07.875,62bdd58c792242d931ee4271,0,63,51,40,22,23,Male,,,,,,1.0,learning,13.0,B,,black,,stars,,,,B,black,stars,,0.0,1.0,0,right,518.0,8.0,1.0,1.0,,,
92,0,,html-keyboard-response,92,286096,0.0-4.14-0.14,dwsxxdbco9g,2022-09-19 16:45:07.875,62bdd58c792242d931ee4271,0,63,51,40,22,23,Male,,,"<img src=""static/images/cards/stack_of_red_moons.svg"" width=""175px"" height=""250px""></img>",,,,,,,,,,,,,,,,,,,,,,,,,,,,
93,0,,html-keyboard-response,93,286895,0.0-4.14-1.14,dwsxxdbco9g,2022-09-19 16:45:07.875,62bdd58c792242d931ee4271,0,63,51,40,22,23,Male,295.0,,"
  <table>
  <tr height=300>
    <td width=300 height=300><img src=""static/images/cards/back_of_red_moons.svg"" width=""175px"" height=""250px""></img></td>
    <td width=300 height=300><img src=""static/images/cards/back_of_red_moons.svg"" width=""175px"" height=""250px""></img></td>
  </tr>
  <tr height=200>
    <td width=300><img src=""static/images/keys/z.svg"" width=""35%"" height=""75%""></img></td>
    <td width=300><img src=""static/images/keys/m.svg"" width=""35%"" height=""75%""></img></td>
  </tr>
</table>
  ",90.0,1.0,,,,,,,,,,,,,,,,,,,,,,,,,,
94,0,,html-keyboard-response,94,288406,0.0-4.14-2.14,dwsxxdbco9g,2022-09-19 16:45:07.875,62bdd58c792242d931ee4271,0,63,51,40,22,23,Male,,,"
  <table>
  <tr height=300>
    <td width=300 height=300><img src=""static/images/cards/2_of_red_moons.svg"" width=""175px"" height=""250px""></img></td>
    <td width=300 height=300><img src=""static/images/cards/back_of_red_moons.svg"" width=""175px"" height=""250px""></img></td>
  </tr>
  <tr height=200>
    <td width=300><img src=""static/images/keys/z.svg"" width=""35%"" height=""75%""></img></td>
    <td width=300><img src=""static/images/keys/m.svg"" width=""35%"" height=""75%""></img></td>
  </tr>
</table>
  ",,,,,,,,,,,,,,,,,,,,,,,,,,,,
95,0,,html-keyboard-response,95,289915,0.0-4.14-3.14,dwsxxdbco9g,2022-09-19 16:45:07.875,62bdd58c792242d931ee4271,0,63,51,40,22,23,Male,,,"<p style=""font-size:50px"">You win!
+10 points this round!</p>",,,,,,,,,,,,,,,,,,,,,,,,,,,,
96,0,,html-keyboard-response,96,290431,0.0-4.14-4.14,dwsxxdbco9g,2022-09-19 16:45:07.875,62bdd58c792242d931ee4271,0,63,51,40,22,23,Male,,,,,,1.0,learning,14.0,C,,red,,moons,,,,C,red,moons,,1.0,0.0,NA,left,295.0,2.0,0.0,1.0,,,
97,0,,html-keyboard-response,97,291938,0.0-4.15-0.15,dwsxxdbco9g,2022-09-19 16:45:07.875,62bdd58c792242d931ee4271,0,63,51,40,22,23,Male,,,"<img src=""static/images/cards/stack_of_black_moons.svg"" width=""175px"" height=""250px""></img>",,,,,,,,,,,,,,,,,,,,,,,,,,,,
98,0,,html-keyboard-response,98,292859,0.0-4.15-1.15,dwsxxdbco9g,2022-09-19 16:45:07.875,62bdd58c792242d931ee4271,0,63,51,40,22,23,Male,412.0,,"
  <table>
  <tr height=300>
    <td width=300 height=300><img src=""static/images/cards/back_of_black_moons.svg"" width=""175px"" height=""250px""></img></td>
    <td width=300 height=300><img src=""static/images/cards/back_of_black_moons.svg"" width=""175px"" height=""250px""></img></td>
  </tr>
  <tr height=200>
    <td width=300></td>
    <td width=300><img src=""static/images/keys/m.svg"" width=""35%"" height=""75%""></img></td>
  </tr>
</table>
  ",77.0,1.0,,,,,,,,,,,,,,,,,,,,,,,,,,
99,0,,html-keyboard-response,99,294376,0.0-4.15-2.15,dwsxxdbco9g,2022-09-19 16:45:07.875,62bdd58c792242d931ee4271,0,63,51,40,22,23,Male,,,"
  <table>
  <tr height=300>
    <td width=300 height=300><img src=""static/images/cards/back_of_black_moons.svg"" width=""175px"" height=""250px""></img></td>
    <td width=300 height=300><img src=""static/images/cards/9_of_black_moons.svg"" width=""175px"" height=""250px""></img></td>
  </tr>
  <tr height=200>
    <td width=300></td>
    <td width=300><img src=""static/images/keys/m.svg"" width=""35%"" height=""75%""></img></td>
  </tr>
</table>
  ",,,,,,,,,,,,,,,,,,,,,,,,,,,,
100,0,,html-keyboard-response,100,295881,0.0-4.15-3.15,dwsxxdbco9g,2022-09-19 16:45:07.875,62bdd58c792242d931ee4271,0,63,51,40,22,23,Male,,,"<p style=""font-size:50px"">You Lose!
No points this round.</p>",,,,,,,,,,,,,,,,,,,,,,,,,,,,
101,0,,html-keyboard-response,101,296405,0.0-4.15-4.15,dwsxxdbco9g,2022-09-19 16:45:07.875,62bdd58c792242d931ee4271,0,63,51,40,22,23,Male,,,,,,1.0,learning,15.0,D,,black,,moons,,,,D,black,moons,,0.0,0.0,0,right,412.0,9.0,1.0,0.0,,,
102,0,,html-keyboard-response,102,297909,0.0-4.16-0.16,dwsxxdbco9g,2022-09-19 16:45:07.875,62bdd58c792242d931ee4271,0,63,51,40,22,23,Male,,,"<img src=""static/images/cards/stack_of_red_bolts.svg"" width=""175px"" height=""250px""></img>",,,,,,,,,,,,,,,,,,,,,,,,,,,,
103,0,,html-keyboard-response,103,298976,0.0-4.16-1.16,dwsxxdbco9g,2022-09-19 16:45:07.875,62bdd58c792242d931ee4271,0,63,51,40,22,23,Male,554.0,,"
  <table>
  <tr height=300>
    <td width=300 height=300><img src=""static/images/cards/back_of_red_bolts.svg"" width=""175px"" height=""250px""></img></td>
    <td width=300 height=300><img src=""static/images/cards/back_of_red_bolts.svg"" width=""175px"" height=""250px""></img></td>
  </tr>
  <tr height=200>
    <td width=300><img src=""static/images/keys/z.svg"" width=""35%"" height=""75%""></img></td>
    <td width=300><img src=""static/images/keys/m.svg"" width=""35%"" height=""75%""></img></td>
  </tr>
</table>
  ",77.0,1.0,,,,,,,,,,,,,,,,,,,,,,,,,,
104,0,,html-keyboard-response,104,300480,0.0-4.16-2.16,dwsxxdbco9g,2022-09-19 16:45:07.875,62bdd58c792242d931ee4271,0,63,51,40,22,23,Male,,,"
  <table>
  <tr height=300>
    <td width=300 height=300><img src=""static/images/cards/back_of_red_bolts.svg"" width=""175px"" height=""250px""></img></td>
    <td width=300 height=300><img src=""static/images/cards/1_of_red_bolts.svg"" width=""175px"" height=""250px""></img></td>
  </tr>
  <tr height=200>
    <td width=300><img src=""static/images/keys/z.svg"" width=""35%"" height=""75%""></img></td>
    <td width=300><img src=""static/images/keys/m.svg"" width=""35%"" height=""75%""></img></td>
  </tr>
</table>
  ",,,,,,,,,,,,,,,,,,,,,,,,,,,,
105,0,,html-keyboard-response,105,301990,0.0-4.16-3.16,dwsxxdbco9g,2022-09-19 16:45:07.875,62bdd58c792242d931ee4271,0,63,51,40,22,23,Male,,,"<p style=""font-size:50px"">You win!
+10 points this round!</p>",,,,,,,,,,,,,,,,,,,,,,,,,,,,
106,0,,html-keyboard-response,106,302521,0.0-4.16-4.16,dwsxxdbco9g,2022-09-19 16:45:07.875,62bdd58c792242d931ee4271,0,63,51,40,22,23,Male,,,,,,1.0,learning,16.0,Xc,,red,,bolts,,,,Xc,red,bolts,,1.0,0.0,NA,right,554.0,1.0,0.0,1.0,,,
107,0,,html-keyboard-response,107,304029,0.0-4.17-0.17,dwsxxdbco9g,2022-09-19 16:45:07.875,62bdd58c792242d931ee4271,0,63,51,40,22,23,Male,,,"<img src=""static/images/cards/stack_of_black_bolts.svg"" width=""175px"" height=""250px""></img>",,,,,,,,,,,,,,,,,,,,,,,,,,,,
108,0,,html-keyboard-response,108,305028,0.0-4.17-1.17,dwsxxdbco9g,2022-09-19 16:45:07.875,62bdd58c792242d931ee4271,0,63,51,40,22,23,Male,493.0,,"
  <table>
  <tr height=300>
    <td width=300 height=300><img src=""static/images/cards/back_of_black_bolts.svg"" width=""175px"" height=""250px""></img></td>
    <td width=300 height=300><img src=""static/images/cards/back_of_black_bolts.svg"" width=""175px"" height=""250px""></img></td>
  </tr>
  <tr height=200>
    <td width=300></td>
    <td width=300><img src=""static/images/keys/m.svg"" width=""35%"" height=""75%""></img></td>
  </tr>
</table>
  ",77.0,1.0,,,,,,,,,,,,,,,,,,,,,,,,,,
109,0,,html-keyboard-response,109,306532,0.0-4.17-2.17,dwsxxdbco9g,2022-09-19 16:45:07.875,62bdd58c792242d931ee4271,0,63,51,40,22,23,Male,,,"
  <table>
  <tr height=300>
    <td width=300 height=300><img src=""static/images/cards/back_of_black_bolts.svg"" width=""175px"" height=""250px""></img></td>
    <td width=300 height=300><img src=""static/images/cards/4_of_black_bolts.svg"" width=""175px"" height=""250px""></img></td>
  </tr>
  <tr height=200>
    <td width=300></td>
    <td width=300><img src=""static/images/keys/m.svg"" width=""35%"" height=""75%""></img></td>
  </tr>
</table>
  ",,,,,,,,,,,,,,,,,,,,,,,,,,,,
110,0,,html-keyboard-response,110,308044,0.0-4.17-3.17,dwsxxdbco9g,2022-09-19 16:45:07.875,62bdd58c792242d931ee4271,0,63,51,40,22,23,Male,,,"<p style=""font-size:50px"">You win!
+10 points this round!</p>",,,,,,,,,,,,,,,,,,,,,,,,,,,,
111,0,,html-keyboard-response,111,308567,0.0-4.17-4.17,dwsxxdbco9g,2022-09-19 16:45:07.875,62bdd58c792242d931ee4271,0,63,51,40,22,23,Male,,,,,,1.0,learning,17.0,Xnc,,black,,bolts,,,,Xnc,black,bolts,,0.0,0.0,0,right,493.0,4.0,0.0,1.0,,,
112,0,,html-keyboard-response,112,310068,0.0-4.18-0.18,dwsxxdbco9g,2022-09-19 16:45:07.875,62bdd58c792242d931ee4271,0,63,51,40,22,23,Male,,,"<img src=""static/images/cards/stack_of_red_stars.svg"" width=""175px"" height=""250px""></img>",,,,,,,,,,,,,,,,,,,,,,,,,,,,
113,0,,html-keyboard-response,113,310973,0.0-4.18-1.18,dwsxxdbco9g,2022-09-19 16:45:07.875,62bdd58c792242d931ee4271,0,63,51,40,22,23,Male,388.0,,"
  <table>
  <tr height=300>
    <td width=300 height=300><img src=""static/images/cards/back_of_red_stars.svg"" width=""175px"" height=""250px""></img></td>
    <td width=300 height=300><img src=""static/images/cards/back_of_red_stars.svg"" width=""175px"" height=""250px""></img></td>
  </tr>
  <tr height=200>
    <td width=300><img src=""static/images/keys/z.svg"" width=""35%"" height=""75%""></img></td>
    <td width=300><img src=""static/images/keys/m.svg"" width=""35%"" height=""75%""></img></td>
  </tr>
</table>
  ",90.0,1.0,,,,,,,,,,,,,,,,,,,,,,,,,,
114,0,,html-keyboard-response,114,312479,0.0-4.18-2.18,dwsxxdbco9g,2022-09-19 16:45:07.875,62bdd58c792242d931ee4271,0,63,51,40,22,23,Male,,,"
  <table>
  <tr height=300>
    <td width=300 height=300><img src=""static/images/cards/2_of_red_stars.svg"" width=""175px"" height=""250px""></img></td>
    <td width=300 height=300><img src=""static/images/cards/back_of_red_stars.svg"" width=""175px"" height=""250px""></img></td>
  </tr>
  <tr height=200>
    <td width=300><img src=""static/images/keys/z.svg"" width=""35%"" height=""75%""></img></td>
    <td width=300><img src=""static/images/keys/m.svg"" width=""35%"" height=""75%""></img></td>
  </tr>
</table>
  ",,,,,,,,,,,,,,,,,,,,,,,,,,,,
115,0,,html-keyboard-response,115,313997,0.0-4.18-3.18,dwsxxdbco9g,2022-09-19 16:45:07.875,62bdd58c792242d931ee4271,0,63,51,40,22,23,Male,,,"<p style=""font-size:50px"">You Lose!
No points this round.</p>",,,,,,,,,,,,,,,,,,,,,,,,,,,,
116,0,,html-keyboard-response,116,314517,0.0-4.18-4.18,dwsxxdbco9g,2022-09-19 16:45:07.875,62bdd58c792242d931ee4271,0,63,51,40,22,23,Male,,,,,,1.0,learning,18.0,A,,red,,stars,,,,A,red,stars,,1.0,1.0,NA,left,388.0,2.0,0.0,0.0,,,
117,0,,html-keyboard-response,117,316027,0.0-4.19-0.19,dwsxxdbco9g,2022-09-19 16:45:07.875,62bdd58c792242d931ee4271,0,63,51,40,22,23,Male,,,"<img src=""static/images/cards/stack_of_black_stars.svg"" width=""175px"" height=""250px""></img>",,,,,,,,,,,,,,,,,,,,,,,,,,,,
118,0,,html-keyboard-response,118,317077,0.0-4.19-1.19,dwsxxdbco9g,2022-09-19 16:45:07.875,62bdd58c792242d931ee4271,0,63,51,40,22,23,Male,541.0,,"
  <table>
  <tr height=300>
    <td width=300 height=300><img src=""static/images/cards/back_of_black_stars.svg"" width=""175px"" height=""250px""></img></td>
    <td width=300 height=300><img src=""static/images/cards/back_of_black_stars.svg"" width=""175px"" height=""250px""></img></td>
  </tr>
  <tr height=200>
    <td width=300><img src=""static/images/keys/z.svg"" width=""35%"" height=""75%""></img></td>
    <td width=300></td>
  </tr>
</table>
  ",90.0,1.0,,,,,,,,,,,,,,,,,,,,,,,,,,
119,0,,html-keyboard-response,119,318580,0.0-4.19-2.19,dwsxxdbco9g,2022-09-19 16:45:07.875,62bdd58c792242d931ee4271,0,63,51,40,22,23,Male,,,"
  <table>
  <tr height=300>
    <td width=300 height=300><img src=""static/images/cards/9_of_black_stars.svg"" width=""175px"" height=""250px""></img></td>
    <td width=300 height=300><img src=""static/images/cards/back_of_black_stars.svg"" width=""175px"" height=""250px""></img></td>
  </tr>
  <tr height=200>
    <td width=300><img src=""static/images/keys/z.svg"" width=""35%"" height=""75%""></img></td>
    <td width=300></td>
  </tr>
</table>
  ",,,,,,,,,,,,,,,,,,,,,,,,,,,,
120,0,,html-keyboard-response,120,320106,0.0-4.19-3.19,dwsxxdbco9g,2022-09-19 16:45:07.875,62bdd58c792242d931ee4271,0,63,51,40,22,23,Male,,,"<p style=""font-size:50px"">You win!
+10 points this round!</p>",,,,,,,,,,,,,,,,,,,,,,,,,,,,
121,0,,html-keyboard-response,121,320629,0.0-4.19-4.19,dwsxxdbco9g,2022-09-19 16:45:07.875,62bdd58c792242d931ee4271,0,63,51,40,22,23,Male,,,,,,1.0,learning,19.0,B,,black,,stars,,,,B,black,stars,,0.0,1.0,1,left,541.0,9.0,1.0,1.0,,,
122,0,,html-keyboard-response,122,322136,0.0-4.20-0.20,dwsxxdbco9g,2022-09-19 16:45:07.875,62bdd58c792242d931ee4271,0,63,51,40,22,23,Male,,,"<img src=""static/images/cards/stack_of_red_moons.svg"" width=""175px"" height=""250px""></img>",,,,,,,,,,,,,,,,,,,,,,,,,,,,
123,0,,html-keyboard-response,123,323057,0.0-4.20-1.20,dwsxxdbco9g,2022-09-19 16:45:07.875,62bdd58c792242d931ee4271,0,63,51,40,22,23,Male,412.0,,"
  <table>
  <tr height=300>
    <td width=300 height=300><img src=""static/images/cards/back_of_red_moons.svg"" width=""175px"" height=""250px""></img></td>
    <td width=300 height=300><img src=""static/images/cards/back_of_red_moons.svg"" width=""175px"" height=""250px""></img></td>
  </tr>
  <tr height=200>
    <td width=300><img src=""static/images/keys/z.svg"" width=""35%"" height=""75%""></img></td>
    <td width=300><img src=""static/images/keys/m.svg"" width=""35%"" height=""75%""></img></td>
  </tr>
</table>
  ",77.0,1.0,,,,,,,,,,,,,,,,,,,,,,,,,,
124,0,,html-keyboard-response,124,324563,0.0-4.20-2.20,dwsxxdbco9g,2022-09-19 16:45:07.875,62bdd58c792242d931ee4271,0,63,51,40,22,23,Male,,,"
  <table>
  <tr height=300>
    <td width=300 height=300><img src=""static/images/cards/back_of_red_moons.svg"" width=""175px"" height=""250px""></img></td>
    <td width=300 height=300><img src=""static/images/cards/10_of_red_moons.svg"" width=""175px"" height=""250px""></img></td>
  </tr>
  <tr height=200>
    <td width=300><img src=""static/images/keys/z.svg"" width=""35%"" height=""75%""></img></td>
    <td width=300><img src=""static/images/keys/m.svg"" width=""35%"" height=""75%""></img></td>
  </tr>
</table>
  ",,,,,,,,,,,,,,,,,,,,,,,,,,,,
125,0,,html-keyboard-response,125,326091,0.0-4.20-3.20,dwsxxdbco9g,2022-09-19 16:45:07.875,62bdd58c792242d931ee4271,0,63,51,40,22,23,Male,,,"<p style=""font-size:50px"">You win!
+10 points this round!</p>",,,,,,,,,,,,,,,,,,,,,,,,,,,,
126,0,,html-keyboard-response,126,326609,0.0-4.20-4.20,dwsxxdbco9g,2022-09-19 16:45:07.875,62bdd58c792242d931ee4271,0,63,51,40,22,23,Male,,,,,,1.0,learning,20.0,C,,red,,moons,,,,C,red,moons,,1.0,0.0,NA,right,412.0,10.0,1.0,1.0,,,
127,0,,html-keyboard-response,127,328121,0.0-4.21-0.21,dwsxxdbco9g,2022-09-19 16:45:07.875,62bdd58c792242d931ee4271,0,63,51,40,22,23,Male,,,"<img src=""static/images/cards/stack_of_black_moons.svg"" width=""175px"" height=""250px""></img>",,,,,,,,,,,,,,,,,,,,,,,,,,,,
128,0,,html-keyboard-response,128,329183,0.0-4.21-1.21,dwsxxdbco9g,2022-09-19 16:45:07.875,62bdd58c792242d931ee4271,0,63,51,40,22,23,Male,557.0,,"
  <table>
  <tr height=300>
    <td width=300 height=300><img src=""static/images/cards/back_of_black_moons.svg"" width=""175px"" height=""250px""></img></td>
    <td width=300 height=300><img src=""static/images/cards/back_of_black_moons.svg"" width=""175px"" height=""250px""></img></td>
  </tr>
  <tr height=200>
    <td width=300><img src=""static/images/keys/z.svg"" width=""35%"" height=""75%""></img></td>
    <td width=300></td>
  </tr>
</table>
  ",90.0,1.0,,,,,,,,,,,,,,,,,,,,,,,,,,
129,0,,html-keyboard-response,129,330691,0.0-4.21-2.21,dwsxxdbco9g,2022-09-19 16:45:07.875,62bdd58c792242d931ee4271,0,63,51,40,22,23,Male,,,"
  <table>
  <tr height=300>
    <td width=300 height=300><img src=""static/images/cards/1_of_black_moons.svg"" width=""175px"" height=""250px""></img></td>
    <td width=300 height=300><img src=""static/images/cards/back_of_black_moons.svg"" width=""175px"" height=""250px""></img></td>
  </tr>
  <tr height=200>
    <td width=300><img src=""static/images/keys/z.svg"" width=""35%"" height=""75%""></img></td>
    <td width=300></td>
  </tr>
</table>
  ",,,,,,,,,,,,,,,,,,,,,,,,,,,,
130,0,,html-keyboard-response,130,332218,0.0-4.21-3.21,dwsxxdbco9g,2022-09-19 16:45:07.875,62bdd58c792242d931ee4271,0,63,51,40,22,23,Male,,,"<p style=""font-size:50px"">You win!
+10 points this round!</p>",,,,,,,,,,,,,,,,,,,,,,,,,,,,
131,0,,html-keyboard-response,131,332746,0.0-4.21-4.21,dwsxxdbco9g,2022-09-19 16:45:07.875,62bdd58c792242d931ee4271,0,63,51,40,22,23,Male,,,,,,1.0,learning,21.0,D,,black,,moons,,,,D,black,moons,,0.0,0.0,1,left,557.0,1.0,0.0,1.0,,,
132,0,,html-keyboard-response,132,334263,0.0-4.22-0.22,dwsxxdbco9g,2022-09-19 16:45:07.875,62bdd58c792242d931ee4271,0,63,51,40,22,23,Male,,,"<img src=""static/images/cards/stack_of_red_bolts.svg"" width=""175px"" height=""250px""></img>",,,,,,,,,,,,,,,,,,,,,,,,,,,,
133,0,,html-keyboard-response,133,335056,0.0-4.22-1.22,dwsxxdbco9g,2022-09-19 16:45:07.875,62bdd58c792242d931ee4271,0,63,51,40,22,23,Male,286.0,,"
  <table>
  <tr height=300>
    <td width=300 height=300><img src=""static/images/cards/back_of_red_bolts.svg"" width=""175px"" height=""250px""></img></td>
    <td width=300 height=300><img src=""static/images/cards/back_of_red_bolts.svg"" width=""175px"" height=""250px""></img></td>
  </tr>
  <tr height=200>
    <td width=300><img src=""static/images/keys/z.svg"" width=""35%"" height=""75%""></img></td>
    <td width=300><img src=""static/images/keys/m.svg"" width=""35%"" height=""75%""></img></td>
  </tr>
</table>
  ",77.0,1.0,,,,,,,,,,,,,,,,,,,,,,,,,,
134,0,,html-keyboard-response,134,336564,0.0-4.22-2.22,dwsxxdbco9g,2022-09-19 16:45:07.875,62bdd58c792242d931ee4271,0,63,51,40,22,23,Male,,,"
  <table>
  <tr height=300>
    <td width=300 height=300><img src=""static/images/cards/back_of_red_bolts.svg"" width=""175px"" height=""250px""></img></td>
    <td width=300 height=300><img src=""static/images/cards/10_of_red_bolts.svg"" width=""175px"" height=""250px""></img></td>
  </tr>
  <tr height=200>
    <td width=300><img src=""static/images/keys/z.svg"" width=""35%"" height=""75%""></img></td>
    <td width=300><img src=""static/images/keys/m.svg"" width=""35%"" height=""75%""></img></td>
  </tr>
</table>
  ",,,,,,,,,,,,,,,,,,,,,,,,,,,,
135,0,,html-keyboard-response,135,338079,0.0-4.22-3.22,dwsxxdbco9g,2022-09-19 16:45:07.875,62bdd58c792242d931ee4271,0,63,51,40,22,23,Male,,,"<p style=""font-size:50px"">You win!
+10 points this round!</p>",,,,,,,,,,,,,,,,,,,,,,,,,,,,
136,0,,html-keyboard-response,136,338608,0.0-4.22-4.22,dwsxxdbco9g,2022-09-19 16:45:07.875,62bdd58c792242d931ee4271,0,63,51,40,22,23,Male,,,,,,1.0,learning,22.0,Xc,,red,,bolts,,,,Xc,red,bolts,,1.0,0.0,NA,right,286.0,10.0,1.0,1.0,,,
137,0,,html-keyboard-response,137,340122,0.0-4.23-0.23,dwsxxdbco9g,2022-09-19 16:45:07.875,62bdd58c792242d931ee4271,0,63,51,40,22,23,Male,,,"<img src=""static/images/cards/stack_of_black_bolts.svg"" width=""175px"" height=""250px""></img>",,,,,,,,,,,,,,,,,,,,,,,,,,,,
138,0,,html-keyboard-response,138,341094,0.0-4.23-1.23,dwsxxdbco9g,2022-09-19 16:45:07.875,62bdd58c792242d931ee4271,0,63,51,40,22,23,Male,459.0,,"
  <table>
  <tr height=300>
    <td width=300 height=300><img src=""static/images/cards/back_of_black_bolts.svg"" width=""175px"" height=""250px""></img></td>
    <td width=300 height=300><img src=""static/images/cards/back_of_black_bolts.svg"" width=""175px"" height=""250px""></img></td>
  </tr>
  <tr height=200>
    <td width=300><img src=""static/images/keys/z.svg"" width=""35%"" height=""75%""></img></td>
    <td width=300></td>
  </tr>
</table>
  ",90.0,1.0,,,,,,,,,,,,,,,,,,,,,,,,,,
139,0,,html-keyboard-response,139,342604,0.0-4.23-2.23,dwsxxdbco9g,2022-09-19 16:45:07.875,62bdd58c792242d931ee4271,0,63,51,40,22,23,Male,,,"
  <table>
  <tr height=300>
    <td width=300 height=300><img src=""static/images/cards/10_of_black_bolts.svg"" width=""175px"" height=""250px""></img></td>
    <td width=300 height=300><img src=""static/images/cards/back_of_black_bolts.svg"" width=""175px"" height=""250px""></img></td>
  </tr>
  <tr height=200>
    <td width=300><img src=""static/images/keys/z.svg"" width=""35%"" height=""75%""></img></td>
    <td width=300></td>
  </tr>
</table>
  ",,,,,,,,,,,,,,,,,,,,,,,,,,,,
140,0,,html-keyboard-response,140,344118,0.0-4.23-3.23,dwsxxdbco9g,2022-09-19 16:45:07.875,62bdd58c792242d931ee4271,0,63,51,40,22,23,Male,,,"<p style=""font-size:50px"">You win!
+10 points this round!</p>",,,,,,,,,,,,,,,,,,,,,,,,,,,,
141,0,,html-keyboard-response,141,344641,0.0-4.23-4.23,dwsxxdbco9g,2022-09-19 16:45:07.875,62bdd58c792242d931ee4271,0,63,51,40,22,23,Male,,,,,,1.0,learning,23.0,Xnc,,black,,bolts,,,,Xnc,black,bolts,,0.0,0.0,1,left,459.0,10.0,1.0,1.0,,,
142,0,,call-function,142,344648,0.0-5.0,dwsxxdbco9g,2022-09-19 16:45:07.875,62bdd58c792242d931ee4271,0,63,51,40,22,23,Male,,,,,,,,,,,,,,,,,,,,,,,,,,,,,,,
143,0,,image-keyboard-response,143,349747,0.0-6.0-0.0,dwsxxdbco9g,2022-09-19 16:45:07.875,62bdd58c792242d931ee4271,0,63,51,40,22,23,Male,5098.0,,static/images/instructions_CB_0/Slide20.png,39.0,,,,,,,,,,,,,,,,,,,,,,,,,,,
144,0,,image-keyboard-response,144,365268,0.0-6.1-0.1,dwsxxdbco9g,2022-09-19 16:45:07.875,62bdd58c792242d931ee4271,0,63,51,40,22,23,Male,15521.0,,static/images/instructions_CB_0/Slide21.png,39.0,,,,,,,,,,,,,,,,,,,,,,,,,,,
145,0,,image-keyboard-response,145,375997,0.0-6.2-0.2,dwsxxdbco9g,2022-09-19 16:45:07.875,62bdd58c792242d931ee4271,0,63,51,40,22,23,Male,10727.0,,static/images/instructions_CB_0/Slide22.png,39.0,,,,,,,,,,,,,,,,,,,,,,,,,,,
146,0,,image-keyboard-response,146,385987,0.0-6.3-0.3,dwsxxdbco9g,2022-09-19 16:45:07.875,62bdd58c792242d931ee4271,0,63,51,40,22,23,Male,9990.0,,static/images/instructions_CB_0/Slide23.png,39.0,,,,,,,,,,,,,,,,,,,,,,,,,,,
147,0,,image-keyboard-response,147,388963,0.0-6.4-0.4,dwsxxdbco9g,2022-09-19 16:45:07.875,62bdd58c792242d931ee4271,0,63,51,40,22,23,Male,2974.0,,static/images/instructions_CB_0/Slide24.png,39.0,,,,,,,,,,,,,,,,,,,,,,,,,,,
148,0,,html-keyboard-response,148,391110,0.0-7.0-0.0,dwsxxdbco9g,2022-09-19 16:45:07.875,62bdd58c792242d931ee4271,0,63,51,40,22,23,Male,2144.0,,"
  <table>
  <tr height=300>
    <td width=300 height=300><img src=""static/images/cards/stack_of_red_stars.svg"" width=""175px"" height=""250px""></img></td>
    <td width=300 height=300><img src=""static/images/cards/stack_of_red_moons.svg"" width=""175px"" height=""250px""></img></td>
  </tr>
  <tr height=200>
    <td width=300><img src=""static/images/keys/w.svg"" width=""35%"" height=""75%""></img></td>
    <td width=300><img src=""static/images/keys/o.svg"" width=""35%"" height=""75%""></img></td>
  </tr>
</table>
  ",79.0,1.0,,,,,,,,,,,,,,,,,,,,,,,,,,
149,0,,html-keyboard-response,149,394181,0.0-7.0-1.0,dwsxxdbco9g,2022-09-19 16:45:07.875,62bdd58c792242d931ee4271,0,63,51,40,22,23,Male,2558.0,,"
  <table>
  <tr height=300>
    <td width=300 height=300><img src=""static/images/cards/back_of_red_moons.svg"" width=""175px"" height=""250px""></img></td>
    <td width=300 height=300><img src=""static/images/cards/back_of_red_moons.svg"" width=""175px"" height=""250px""></img></td>
  </tr>
  <tr height=200>
    <td width=300><img src=""static/images/keys/z.svg"" width=""35%"" height=""75%""></img></td>
    <td width=300><img src=""static/images/keys/m.svg"" width=""35%"" height=""75%""></img></td>
  </tr>
</table>
  ",77.0,1.0,,,,,,,,,,,,,,,,,,,,,,,,,,
150,0,,html-keyboard-response,150,395687,0.0-7.0-2.0,dwsxxdbco9g,2022-09-19 16:45:07.875,62bdd58c792242d931ee4271,0,63,51,40,22,23,Male,,,"
  <table>
  <tr height=300>
    <td width=300 height=300><img src=""static/images/cards/back_of_red_moons.svg"" width=""175px"" height=""250px""></img></td>
    <td width=300 height=300><img src=""static/images/cards/2_of_red_moons.svg"" width=""175px"" height=""250px""></img></td>
  </tr>
  <tr height=200>
    <td width=300><img src=""static/images/keys/z.svg"" width=""35%"" height=""75%""></img></td>
    <td width=300><img src=""static/images/keys/m.svg"" width=""35%"" height=""75%""></img></td>
  </tr>
</table>
  ",,,,,,,,,,,,,,,,,,,,,,,,,,,,
151,0,,html-keyboard-response,151,397207,0.0-7.0-3.0,dwsxxdbco9g,2022-09-19 16:45:07.875,62bdd58c792242d931ee4271,0,63,51,40,22,23,Male,,,"<p style=""font-size:50px"">You win!
+10 points this round!</p>",,,,,,,,,,,,,,,,,,,,,,,,,,,,
152,0,,html-keyboard-response,152,397735,0.0-7.0-4.0,dwsxxdbco9g,2022-09-19 16:45:07.875,62bdd58c792242d931ee4271,0,63,51,40,22,23,Male,,,,,,1.0,choice,0.0,A,C,red,red,stars,moons,A,C,C,red,moons,2144.0,1.0,0.0,NA,right,2558.0,2.0,0.0,1.0,,,
153,0,,html-keyboard-response,153,399928,0.0-7.1-0.1,dwsxxdbco9g,2022-09-19 16:45:07.875,62bdd58c792242d931ee4271,0,63,51,40,22,23,Male,2189.0,,"
  <table>
  <tr height=300>
    <td width=300 height=300><img src=""static/images/cards/stack_of_black_stars.svg"" width=""175px"" height=""250px""></img></td>
    <td width=300 height=300><img src=""static/images/cards/stack_of_black_moons.svg"" width=""175px"" height=""250px""></img></td>
  </tr>
  <tr height=200>
    <td width=300><img src=""static/images/keys/w.svg"" width=""35%"" height=""75%""></img></td>
    <td width=300><img src=""static/images/keys/o.svg"" width=""35%"" height=""75%""></img></td>
  </tr>
</table>
  ",79.0,1.0,,,,,,,,,,,,,,,,,,,,,,,,,,
154,0,,html-keyboard-response,154,401179,0.0-7.1-1.1,dwsxxdbco9g,2022-09-19 16:45:07.875,62bdd58c792242d931ee4271,0,63,51,40,22,23,Male,736.0,,"
  <table>
  <tr height=300>
    <td width=300 height=300><img src=""static/images/cards/back_of_black_moons.svg"" width=""175px"" height=""250px""></img></td>
    <td width=300 height=300><img src=""static/images/cards/back_of_black_moons.svg"" width=""175px"" height=""250px""></img></td>
  </tr>
  <tr height=200>
    <td width=300><img src=""static/images/keys/z.svg"" width=""35%"" height=""75%""></img></td>
    <td width=300></td>
  </tr>
</table>
  ",90.0,1.0,,,,,,,,,,,,,,,,,,,,,,,,,,
155,0,,html-keyboard-response,155,402691,0.0-7.1-2.1,dwsxxdbco9g,2022-09-19 16:45:07.875,62bdd58c792242d931ee4271,0,63,51,40,22,23,Male,,,"
  <table>
  <tr height=300>
    <td width=300 height=300><img src=""static/images/cards/9_of_black_moons.svg"" width=""175px"" height=""250px""></img></td>
    <td width=300 height=300><img src=""static/images/cards/back_of_black_moons.svg"" width=""175px"" height=""250px""></img></td>
  </tr>
  <tr height=200>
    <td width=300><img src=""static/images/keys/z.svg"" width=""35%"" height=""75%""></img></td>
    <td width=300></td>
  </tr>
</table>
  ",,,,,,,,,,,,,,,,,,,,,,,,,,,,
156,0,,html-keyboard-response,156,404206,0.0-7.1-3.1,dwsxxdbco9g,2022-09-19 16:45:07.875,62bdd58c792242d931ee4271,0,63,51,40,22,23,Male,,,"<p style=""font-size:50px"">You Lose!
No points this round.</p>",,,,,,,,,,,,,,,,,,,,,,,,,,,,
157,0,,html-keyboard-response,157,404730,0.0-7.1-4.1,dwsxxdbco9g,2022-09-19 16:45:07.875,62bdd58c792242d931ee4271,0,63,51,40,22,23,Male,,,,,,1.0,choice,1.0,B,D,black,black,stars,moons,B,D,D,black,moons,2189.0,0.0,0.0,1,left,736.0,9.0,1.0,0.0,,,
158,0,,html-keyboard-response,158,406030,0.0-7.2-0.2,dwsxxdbco9g,2022-09-19 16:45:07.875,62bdd58c792242d931ee4271,0,63,51,40,22,23,Male,1298.0,,"
  <table>
  <tr height=300>
    <td width=300 height=300><img src=""static/images/cards/stack_of_red_stars.svg"" width=""175px"" height=""250px""></img></td>
    <td width=300 height=300><img src=""static/images/cards/stack_of_red_moons.svg"" width=""175px"" height=""250px""></img></td>
  </tr>
  <tr height=200>
    <td width=300><img src=""static/images/keys/w.svg"" width=""35%"" height=""75%""></img></td>
    <td width=300><img src=""static/images/keys/o.svg"" width=""35%"" height=""75%""></img></td>
  </tr>
</table>
  ",79.0,1.0,,,,,,,,,,,,,,,,,,,,,,,,,,
159,0,,html-keyboard-response,159,407404,0.0-7.2-1.2,dwsxxdbco9g,2022-09-19 16:45:07.875,62bdd58c792242d931ee4271,0,63,51,40,22,23,Male,864.0,,"
  <table>
  <tr height=300>
    <td width=300 height=300><img src=""static/images/cards/back_of_red_moons.svg"" width=""175px"" height=""250px""></img></td>
    <td width=300 height=300><img src=""static/images/cards/back_of_red_moons.svg"" width=""175px"" height=""250px""></img></td>
  </tr>
  <tr height=200>
    <td width=300><img src=""static/images/keys/z.svg"" width=""35%"" height=""75%""></img></td>
    <td width=300><img src=""static/images/keys/m.svg"" width=""35%"" height=""75%""></img></td>
  </tr>
</table>
  ",77.0,1.0,,,,,,,,,,,,,,,,,,,,,,,,,,
160,0,,html-keyboard-response,160,408921,0.0-7.2-2.2,dwsxxdbco9g,2022-09-19 16:45:07.875,62bdd58c792242d931ee4271,0,63,51,40,22,23,Male,,,"
  <table>
  <tr height=300>
    <td width=300 height=300><img src=""static/images/cards/back_of_red_moons.svg"" width=""175px"" height=""250px""></img></td>
    <td width=300 height=300><img src=""static/images/cards/7_of_red_moons.svg"" width=""175px"" height=""250px""></img></td>
  </tr>
  <tr height=200>
    <td width=300><img src=""static/images/keys/z.svg"" width=""35%"" height=""75%""></img></td>
    <td width=300><img src=""static/images/keys/m.svg"" width=""35%"" height=""75%""></img></td>
  </tr>
</table>
  ",,,,,,,,,,,,,,,,,,,,,,,,,,,,
161,0,,html-keyboard-response,161,410428,0.0-7.2-3.2,dwsxxdbco9g,2022-09-19 16:45:07.875,62bdd58c792242d931ee4271,0,63,51,40,22,23,Male,,,"<p style=""font-size:50px"">You win!
+10 points this round!</p>",,,,,,,,,,,,,,,,,,,,,,,,,,,,
162,0,,html-keyboard-response,162,410954,0.0-7.2-4.2,dwsxxdbco9g,2022-09-19 16:45:07.875,62bdd58c792242d931ee4271,0,63,51,40,22,23,Male,,,,,,1.0,choice,2.0,A,C,red,red,stars,moons,A,C,C,red,moons,1298.0,1.0,0.0,NA,right,864.0,7.0,1.0,1.0,,,
163,0,,html-keyboard-response,163,412197,0.0-7.3-0.3,dwsxxdbco9g,2022-09-19 16:45:07.875,62bdd58c792242d931ee4271,0,63,51,40,22,23,Male,1240.0,,"
  <table>
  <tr height=300>
    <td width=300 height=300><img src=""static/images/cards/stack_of_black_moons.svg"" width=""175px"" height=""250px""></img></td>
    <td width=300 height=300><img src=""static/images/cards/stack_of_red_stars.svg"" width=""175px"" height=""250px""></img></td>
  </tr>
  <tr height=200>
    <td width=300><img src=""static/images/keys/w.svg"" width=""35%"" height=""75%""></img></td>
    <td width=300><img src=""static/images/keys/o.svg"" width=""35%"" height=""75%""></img></td>
  </tr>
</table>
  ",87.0,1.0,,,,,,,,,,,,,,,,,,,,,,,,,,
164,0,,html-keyboard-response,164,413189,0.0-7.3-1.3,dwsxxdbco9g,2022-09-19 16:45:07.875,62bdd58c792242d931ee4271,0,63,51,40,22,23,Male,485.0,,"
  <table>
  <tr height=300>
    <td width=300 height=300><img src=""static/images/cards/back_of_black_moons.svg"" width=""175px"" height=""250px""></img></td>
    <td width=300 height=300><img src=""static/images/cards/back_of_black_moons.svg"" width=""175px"" height=""250px""></img></td>
  </tr>
  <tr height=200>
    <td width=300><img src=""static/images/keys/z.svg"" width=""35%"" height=""75%""></img></td>
    <td width=300></td>
  </tr>
</table>
  ",90.0,1.0,,,,,,,,,,,,,,,,,,,,,,,,,,
165,0,,html-keyboard-response,165,414702,0.0-7.3-2.3,dwsxxdbco9g,2022-09-19 16:45:07.875,62bdd58c792242d931ee4271,0,63,51,40,22,23,Male,,,"
  <table>
  <tr height=300>
    <td width=300 height=300><img src=""static/images/cards/9_of_black_moons.svg"" width=""175px"" height=""250px""></img></td>
    <td width=300 height=300><img src=""static/images/cards/back_of_black_moons.svg"" width=""175px"" height=""250px""></img></td>
  </tr>
  <tr height=200>
    <td width=300><img src=""static/images/keys/z.svg"" width=""35%"" height=""75%""></img></td>
    <td width=300></td>
  </tr>
</table>
  ",,,,,,,,,,,,,,,,,,,,,,,,,,,,
166,0,,html-keyboard-response,166,416230,0.0-7.3-3.3,dwsxxdbco9g,2022-09-19 16:45:07.875,62bdd58c792242d931ee4271,0,63,51,40,22,23,Male,,,"<p style=""font-size:50px"">You Lose!
No points this round.</p>",,,,,,,,,,,,,,,,,,,,,,,,,,,,
167,0,,html-keyboard-response,167,416746,0.0-7.3-4.3,dwsxxdbco9g,2022-09-19 16:45:07.875,62bdd58c792242d931ee4271,0,63,51,40,22,23,Male,,,,,,1.0,choice,3.0,A,D,black,red,moons,stars,D,A,D,black,moons,1240.0,0.0,0.0,1,left,485.0,9.0,1.0,0.0,,,
168,0,,html-keyboard-response,168,418587,0.0-7.4-0.4,dwsxxdbco9g,2022-09-19 16:45:07.875,62bdd58c792242d931ee4271,0,63,51,40,22,23,Male,1839.0,,"
  <table>
  <tr height=300>
    <td width=300 height=300><img src=""static/images/cards/stack_of_red_stars.svg"" width=""175px"" height=""250px""></img></td>
    <td width=300 height=300><img src=""static/images/cards/stack_of_red_moons.svg"" width=""175px"" height=""250px""></img></td>
  </tr>
  <tr height=200>
    <td width=300><img src=""static/images/keys/w.svg"" width=""35%"" height=""75%""></img></td>
    <td width=300><img src=""static/images/keys/o.svg"" width=""35%"" height=""75%""></img></td>
  </tr>
</table>
  ",87.0,1.0,,,,,,,,,,,,,,,,,,,,,,,,,,
169,0,,html-keyboard-response,169,419596,0.0-7.4-1.4,dwsxxdbco9g,2022-09-19 16:45:07.875,62bdd58c792242d931ee4271,0,63,51,40,22,23,Male,504.0,,"
  <table>
  <tr height=300>
    <td width=300 height=300><img src=""static/images/cards/back_of_red_stars.svg"" width=""175px"" height=""250px""></img></td>
    <td width=300 height=300><img src=""static/images/cards/back_of_red_stars.svg"" width=""175px"" height=""250px""></img></td>
  </tr>
  <tr height=200>
    <td width=300><img src=""static/images/keys/z.svg"" width=""35%"" height=""75%""></img></td>
    <td width=300><img src=""static/images/keys/m.svg"" width=""35%"" height=""75%""></img></td>
  </tr>
</table>
  ",90.0,1.0,,,,,,,,,,,,,,,,,,,,,,,,,,
170,0,,html-keyboard-response,170,421111,0.0-7.4-2.4,dwsxxdbco9g,2022-09-19 16:45:07.875,62bdd58c792242d931ee4271,0,63,51,40,22,23,Male,,,"
  <table>
  <tr height=300>
    <td width=300 height=300><img src=""static/images/cards/8_of_red_stars.svg"" width=""175px"" height=""250px""></img></td>
    <td width=300 height=300><img src=""static/images/cards/back_of_red_stars.svg"" width=""175px"" height=""250px""></img></td>
  </tr>
  <tr height=200>
    <td width=300><img src=""static/images/keys/z.svg"" width=""35%"" height=""75%""></img></td>
    <td width=300><img src=""static/images/keys/m.svg"" width=""35%"" height=""75%""></img></td>
  </tr>
</table>
  ",,,,,,,,,,,,,,,,,,,,,,,,,,,,
171,0,,html-keyboard-response,171,422641,0.0-7.4-3.4,dwsxxdbco9g,2022-09-19 16:45:07.875,62bdd58c792242d931ee4271,0,63,51,40,22,23,Male,,,"<p style=""font-size:50px"">You win!
+10 points this round!</p>",,,,,,,,,,,,,,,,,,,,,,,,,,,,
172,0,,html-keyboard-response,172,423167,0.0-7.4-4.4,dwsxxdbco9g,2022-09-19 16:45:07.875,62bdd58c792242d931ee4271,0,63,51,40,22,23,Male,,,,,,1.0,choice,4.0,A,C,red,red,stars,moons,A,C,A,red,stars,1839.0,1.0,1.0,NA,left,504.0,8.0,1.0,1.0,,,
173,0,,html-keyboard-response,173,424066,0.0-7.5-0.5,dwsxxdbco9g,2022-09-19 16:45:07.875,62bdd58c792242d931ee4271,0,63,51,40,22,23,Male,897.0,,"
  <table>
  <tr height=300>
    <td width=300 height=300><img src=""static/images/cards/stack_of_black_moons.svg"" width=""175px"" height=""250px""></img></td>
    <td width=300 height=300><img src=""static/images/cards/stack_of_red_stars.svg"" width=""175px"" height=""250px""></img></td>
  </tr>
  <tr height=200>
    <td width=300><img src=""static/images/keys/w.svg"" width=""35%"" height=""75%""></img></td>
    <td width=300><img src=""static/images/keys/o.svg"" width=""35%"" height=""75%""></img></td>
  </tr>
</table>
  ",79.0,1.0,,,,,,,,,,,,,,,,,,,,,,,,,,
174,0,,html-keyboard-response,174,425070,0.0-7.5-1.5,dwsxxdbco9g,2022-09-19 16:45:07.875,62bdd58c792242d931ee4271,0,63,51,40,22,23,Male,500.0,,"
  <table>
  <tr height=300>
    <td width=300 height=300><img src=""static/images/cards/back_of_red_stars.svg"" width=""175px"" height=""250px""></img></td>
    <td width=300 height=300><img src=""static/images/cards/back_of_red_stars.svg"" width=""175px"" height=""250px""></img></td>
  </tr>
  <tr height=200>
    <td width=300><img src=""static/images/keys/z.svg"" width=""35%"" height=""75%""></img></td>
    <td width=300><img src=""static/images/keys/m.svg"" width=""35%"" height=""75%""></img></td>
  </tr>
</table>
  ",77.0,1.0,,,,,,,,,,,,,,,,,,,,,,,,,,
175,0,,html-keyboard-response,175,426579,0.0-7.5-2.5,dwsxxdbco9g,2022-09-19 16:45:07.875,62bdd58c792242d931ee4271,0,63,51,40,22,23,Male,,,"
  <table>
  <tr height=300>
    <td width=300 height=300><img src=""static/images/cards/back_of_red_stars.svg"" width=""175px"" height=""250px""></img></td>
    <td width=300 height=300><img src=""static/images/cards/2_of_red_stars.svg"" width=""175px"" height=""250px""></img></td>
  </tr>
  <tr height=200>
    <td width=300><img src=""static/images/keys/z.svg"" width=""35%"" height=""75%""></img></td>
    <td width=300><img src=""static/images/keys/m.svg"" width=""35%"" height=""75%""></img></td>
  </tr>
</table>
  ",,,,,,,,,,,,,,,,,,,,,,,,,,,,
176,0,,html-keyboard-response,176,428099,0.0-7.5-3.5,dwsxxdbco9g,2022-09-19 16:45:07.875,62bdd58c792242d931ee4271,0,63,51,40,22,23,Male,,,"<p style=""font-size:50px"">You Lose!
No points this round.</p>",,,,,,,,,,,,,,,,,,,,,,,,,,,,
177,0,,html-keyboard-response,177,428630,0.0-7.5-4.5,dwsxxdbco9g,2022-09-19 16:45:07.875,62bdd58c792242d931ee4271,0,63,51,40,22,23,Male,,,,,,1.0,choice,5.0,A,D,black,red,moons,stars,D,A,A,red,stars,897.0,1.0,1.0,NA,right,500.0,2.0,0.0,0.0,,,
178,0,,html-keyboard-response,178,429300,0.0-7.6-0.6,dwsxxdbco9g,2022-09-19 16:45:07.875,62bdd58c792242d931ee4271,0,63,51,40,22,23,Male,668.0,,"
  <table>
  <tr height=300>
    <td width=300 height=300><img src=""static/images/cards/stack_of_black_stars.svg"" width=""175px"" height=""250px""></img></td>
    <td width=300 height=300><img src=""static/images/cards/stack_of_black_moons.svg"" width=""175px"" height=""250px""></img></td>
  </tr>
  <tr height=200>
    <td width=300><img src=""static/images/keys/w.svg"" width=""35%"" height=""75%""></img></td>
    <td width=300><img src=""static/images/keys/o.svg"" width=""35%"" height=""75%""></img></td>
  </tr>
</table>
  ",79.0,1.0,,,,,,,,,,,,,,,,,,,,,,,,,,
179,0,,html-keyboard-response,179,430239,0.0-7.6-1.6,dwsxxdbco9g,2022-09-19 16:45:07.875,62bdd58c792242d931ee4271,0,63,51,40,22,23,Male,429.0,,"
  <table>
  <tr height=300>
    <td width=300 height=300><img src=""static/images/cards/back_of_black_moons.svg"" width=""175px"" height=""250px""></img></td>
    <td width=300 height=300><img src=""static/images/cards/back_of_black_moons.svg"" width=""175px"" height=""250px""></img></td>
  </tr>
  <tr height=200>
    <td width=300></td>
    <td width=300><img src=""static/images/keys/m.svg"" width=""35%"" height=""75%""></img></td>
  </tr>
</table>
  ",77.0,1.0,,,,,,,,,,,,,,,,,,,,,,,,,,
180,0,,html-keyboard-response,180,431749,0.0-7.6-2.6,dwsxxdbco9g,2022-09-19 16:45:07.875,62bdd58c792242d931ee4271,0,63,51,40,22,23,Male,,,"
  <table>
  <tr height=300>
    <td width=300 height=300><img src=""static/images/cards/back_of_black_moons.svg"" width=""175px"" height=""250px""></img></td>
    <td width=300 height=300><img src=""static/images/cards/7_of_black_moons.svg"" width=""175px"" height=""250px""></img></td>
  </tr>
  <tr height=200>
    <td width=300></td>
    <td width=300><img src=""static/images/keys/m.svg"" width=""35%"" height=""75%""></img></td>
  </tr>
</table>
  ",,,,,,,,,,,,,,,,,,,,,,,,,,,,
181,0,,html-keyboard-response,181,433265,0.0-7.6-3.6,dwsxxdbco9g,2022-09-19 16:45:07.875,62bdd58c792242d931ee4271,0,63,51,40,22,23,Male,,,"<p style=""font-size:50px"">You win!
+10 points this round!</p>",,,,,,,,,,,,,,,,,,,,,,,,,,,,
182,0,,html-keyboard-response,182,433794,0.0-7.6-4.6,dwsxxdbco9g,2022-09-19 16:45:07.875,62bdd58c792242d931ee4271,0,63,51,40,22,23,Male,,,,,,1.0,choice,6.0,B,D,black,black,stars,moons,B,D,D,black,moons,668.0,0.0,0.0,0,right,429.0,7.0,1.0,1.0,,,
183,0,,html-keyboard-response,183,435075,0.0-7.7-0.7,dwsxxdbco9g,2022-09-19 16:45:07.875,62bdd58c792242d931ee4271,0,63,51,40,22,23,Male,1278.0,,"
  <table>
  <tr height=300>
    <td width=300 height=300><img src=""static/images/cards/stack_of_black_stars.svg"" width=""175px"" height=""250px""></img></td>
    <td width=300 height=300><img src=""static/images/cards/stack_of_red_stars.svg"" width=""175px"" height=""250px""></img></td>
  </tr>
  <tr height=200>
    <td width=300><img src=""static/images/keys/w.svg"" width=""35%"" height=""75%""></img></td>
    <td width=300><img src=""static/images/keys/o.svg"" width=""35%"" height=""75%""></img></td>
  </tr>
</table>
  ",79.0,1.0,,,,,,,,,,,,,,,,,,,,,,,,,,
184,0,,html-keyboard-response,184,436809,0.0-7.7-1.7,dwsxxdbco9g,2022-09-19 16:45:07.875,62bdd58c792242d931ee4271,0,63,51,40,22,23,Male,1217.0,,"
  <table>
  <tr height=300>
    <td width=300 height=300><img src=""static/images/cards/back_of_red_stars.svg"" width=""175px"" height=""250px""></img></td>
    <td width=300 height=300><img src=""static/images/cards/back_of_red_stars.svg"" width=""175px"" height=""250px""></img></td>
  </tr>
  <tr height=200>
    <td width=300><img src=""static/images/keys/z.svg"" width=""35%"" height=""75%""></img></td>
    <td width=300><img src=""static/images/keys/m.svg"" width=""35%"" height=""75%""></img></td>
  </tr>
</table>
  ",90.0,1.0,,,,,,,,,,,,,,,,,,,,,,,,,,
185,0,,html-keyboard-response,185,438314,0.0-7.7-2.7,dwsxxdbco9g,2022-09-19 16:45:07.875,62bdd58c792242d931ee4271,0,63,51,40,22,23,Male,,,"
  <table>
  <tr height=300>
    <td width=300 height=300><img src=""static/images/cards/3_of_red_stars.svg"" width=""175px"" height=""250px""></img></td>
    <td width=300 height=300><img src=""static/images/cards/back_of_red_stars.svg"" width=""175px"" height=""250px""></img></td>
  </tr>
  <tr height=200>
    <td width=300><img src=""static/images/keys/z.svg"" width=""35%"" height=""75%""></img></td>
    <td width=300><img src=""static/images/keys/m.svg"" width=""35%"" height=""75%""></img></td>
  </tr>
</table>
  ",,,,,,,,,,,,,,,,,,,,,,,,,,,,
186,0,,html-keyboard-response,186,439830,0.0-7.7-3.7,dwsxxdbco9g,2022-09-19 16:45:07.875,62bdd58c792242d931ee4271,0,63,51,40,22,23,Male,,,"<p style=""font-size:50px"">You Lose!
No points this round.</p>",,,,,,,,,,,,,,,,,,,,,,,,,,,,
187,0,,html-keyboard-response,187,440358,0.0-7.7-4.7,dwsxxdbco9g,2022-09-19 16:45:07.875,62bdd58c792242d931ee4271,0,63,51,40,22,23,Male,,,,,,1.0,choice,7.0,A,B,black,red,stars,stars,B,A,A,red,stars,1278.0,1.0,1.0,NA,left,1217.0,3.0,0.0,0.0,,,
188,0,,html-keyboard-response,188,441464,0.0-7.8-0.8,dwsxxdbco9g,2022-09-19 16:45:07.875,62bdd58c792242d931ee4271,0,63,51,40,22,23,Male,1103.0,,"
  <table>
  <tr height=300>
    <td width=300 height=300><img src=""static/images/cards/stack_of_red_stars.svg"" width=""175px"" height=""250px""></img></td>
    <td width=300 height=300><img src=""static/images/cards/stack_of_black_stars.svg"" width=""175px"" height=""250px""></img></td>
  </tr>
  <tr height=200>
    <td width=300><img src=""static/images/keys/w.svg"" width=""35%"" height=""75%""></img></td>
    <td width=300><img src=""static/images/keys/o.svg"" width=""35%"" height=""75%""></img></td>
  </tr>
</table>
  ",79.0,1.0,,,,,,,,,,,,,,,,,,,,,,,,,,
189,0,,html-keyboard-response,189,442437,0.0-7.8-1.8,dwsxxdbco9g,2022-09-19 16:45:07.875,62bdd58c792242d931ee4271,0,63,51,40,22,23,Male,459.0,,"
  <table>
  <tr height=300>
    <td width=300 height=300><img src=""static/images/cards/back_of_black_stars.svg"" width=""175px"" height=""250px""></img></td>
    <td width=300 height=300><img src=""static/images/cards/back_of_black_stars.svg"" width=""175px"" height=""250px""></img></td>
  </tr>
  <tr height=200>
    <td width=300></td>
    <td width=300><img src=""static/images/keys/m.svg"" width=""35%"" height=""75%""></img></td>
  </tr>
</table>
  ",77.0,1.0,,,,,,,,,,,,,,,,,,,,,,,,,,
190,0,,html-keyboard-response,190,443954,0.0-7.8-2.8,dwsxxdbco9g,2022-09-19 16:45:07.875,62bdd58c792242d931ee4271,0,63,51,40,22,23,Male,,,"
  <table>
  <tr height=300>
    <td width=300 height=300><img src=""static/images/cards/back_of_black_stars.svg"" width=""175px"" height=""250px""></img></td>
    <td width=300 height=300><img src=""static/images/cards/7_of_black_stars.svg"" width=""175px"" height=""250px""></img></td>
  </tr>
  <tr height=200>
    <td width=300></td>
    <td width=300><img src=""static/images/keys/m.svg"" width=""35%"" height=""75%""></img></td>
  </tr>
</table>
  ",,,,,,,,,,,,,,,,,,,,,,,,,,,,
191,0,,html-keyboard-response,191,445473,0.0-7.8-3.8,dwsxxdbco9g,2022-09-19 16:45:07.875,62bdd58c792242d931ee4271,0,63,51,40,22,23,Male,,,"<p style=""font-size:50px"">You win!
+10 points this round!</p>",,,,,,,,,,,,,,,,,,,,,,,,,,,,
192,0,,html-keyboard-response,192,446002,0.0-7.8-4.8,dwsxxdbco9g,2022-09-19 16:45:07.875,62bdd58c792242d931ee4271,0,63,51,40,22,23,Male,,,,,,1.0,choice,8.0,A,B,red,black,stars,stars,A,B,B,black,stars,1103.0,0.0,1.0,0,right,459.0,7.0,1.0,1.0,,,
193,0,,html-keyboard-response,193,447122,0.0-7.9-0.9,dwsxxdbco9g,2022-09-19 16:45:07.875,62bdd58c792242d931ee4271,0,63,51,40,22,23,Male,1119.0,,"
  <table>
  <tr height=300>
    <td width=300 height=300><img src=""static/images/cards/stack_of_red_stars.svg"" width=""175px"" height=""250px""></img></td>
    <td width=300 height=300><img src=""static/images/cards/stack_of_red_moons.svg"" width=""175px"" height=""250px""></img></td>
  </tr>
  <tr height=200>
    <td width=300><img src=""static/images/keys/w.svg"" width=""35%"" height=""75%""></img></td>
    <td width=300><img src=""static/images/keys/o.svg"" width=""35%"" height=""75%""></img></td>
  </tr>
</table>
  ",79.0,1.0,,,,,,,,,,,,,,,,,,,,,,,,,,
194,0,,html-keyboard-response,194,448017,0.0-7.9-1.9,dwsxxdbco9g,2022-09-19 16:45:07.875,62bdd58c792242d931ee4271,0,63,51,40,22,23,Male,390.0,,"
  <table>
  <tr height=300>
    <td width=300 height=300><img src=""static/images/cards/back_of_red_moons.svg"" width=""175px"" height=""250px""></img></td>
    <td width=300 height=300><img src=""static/images/cards/back_of_red_moons.svg"" width=""175px"" height=""250px""></img></td>
  </tr>
  <tr height=200>
    <td width=300><img src=""static/images/keys/z.svg"" width=""35%"" height=""75%""></img></td>
    <td width=300><img src=""static/images/keys/m.svg"" width=""35%"" height=""75%""></img></td>
  </tr>
</table>
  ",77.0,1.0,,,,,,,,,,,,,,,,,,,,,,,,,,
195,0,,html-keyboard-response,195,449528,0.0-7.9-2.9,dwsxxdbco9g,2022-09-19 16:45:07.875,62bdd58c792242d931ee4271,0,63,51,40,22,23,Male,,,"
  <table>
  <tr height=300>
    <td width=300 height=300><img src=""static/images/cards/back_of_red_moons.svg"" width=""175px"" height=""250px""></img></td>
    <td width=300 height=300><img src=""static/images/cards/4_of_red_moons.svg"" width=""175px"" height=""250px""></img></td>
  </tr>
  <tr height=200>
    <td width=300><img src=""static/images/keys/z.svg"" width=""35%"" height=""75%""></img></td>
    <td width=300><img src=""static/images/keys/m.svg"" width=""35%"" height=""75%""></img></td>
  </tr>
</table>
  ",,,,,,,,,,,,,,,,,,,,,,,,,,,,
196,0,,html-keyboard-response,196,451041,0.0-7.9-3.9,dwsxxdbco9g,2022-09-19 16:45:07.875,62bdd58c792242d931ee4271,0,63,51,40,22,23,Male,,,"<p style=""font-size:50px"">You win!
+10 points this round!</p>",,,,,,,,,,,,,,,,,,,,,,,,,,,,
197,0,,html-keyboard-response,197,451561,0.0-7.9-4.9,dwsxxdbco9g,2022-09-19 16:45:07.875,62bdd58c792242d931ee4271,0,63,51,40,22,23,Male,,,,,,1.0,choice,9.0,A,C,red,red,stars,moons,A,C,C,red,moons,1119.0,1.0,0.0,NA,right,390.0,4.0,0.0,1.0,,,
198,0,,html-keyboard-response,198,453593,0.0-7.10-0.10,dwsxxdbco9g,2022-09-19 16:45:07.875,62bdd58c792242d931ee4271,0,63,51,40,22,23,Male,2030.0,,"
  <table>
  <tr height=300>
    <td width=300 height=300><img src=""static/images/cards/stack_of_red_moons.svg"" width=""175px"" height=""250px""></img></td>
    <td width=300 height=300><img src=""static/images/cards/stack_of_black_moons.svg"" width=""175px"" height=""250px""></img></td>
  </tr>
  <tr height=200>
    <td width=300><img src=""static/images/keys/w.svg"" width=""35%"" height=""75%""></img></td>
    <td width=300><img src=""static/images/keys/o.svg"" width=""35%"" height=""75%""></img></td>
  </tr>
</table>
  ",79.0,1.0,,,,,,,,,,,,,,,,,,,,,,,,,,
199,0,,html-keyboard-response,199,454464,0.0-7.10-1.10,dwsxxdbco9g,2022-09-19 16:45:07.875,62bdd58c792242d931ee4271,0,63,51,40,22,23,Male,359.0,,"
  <table>
  <tr height=300>
    <td width=300 height=300><img src=""static/images/cards/back_of_black_moons.svg"" width=""175px"" height=""250px""></img></td>
    <td width=300 height=300><img src=""static/images/cards/back_of_black_moons.svg"" width=""175px"" height=""250px""></img></td>
  </tr>
  <tr height=200>
    <td width=300><img src=""static/images/keys/z.svg"" width=""35%"" height=""75%""></img></td>
    <td width=300></td>
  </tr>
</table>
  ",90.0,1.0,,,,,,,,,,,,,,,,,,,,,,,,,,
200,0,,html-keyboard-response,200,455966,0.0-7.10-2.10,dwsxxdbco9g,2022-09-19 16:45:07.875,62bdd58c792242d931ee4271,0,63,51,40,22,23,Male,,,"
  <table>
  <tr height=300>
    <td width=300 height=300><img src=""static/images/cards/2_of_black_moons.svg"" width=""175px"" height=""250px""></img></td>
    <td width=300 height=300><img src=""static/images/cards/back_of_black_moons.svg"" width=""175px"" height=""250px""></img></td>
  </tr>
  <tr height=200>
    <td width=300><img src=""static/images/keys/z.svg"" width=""35%"" height=""75%""></img></td>
    <td width=300></td>
  </tr>
</table>
  ",,,,,,,,,,,,,,,,,,,,,,,,,,,,
201,0,,html-keyboard-response,201,457496,0.0-7.10-3.10,dwsxxdbco9g,2022-09-19 16:45:07.875,62bdd58c792242d931ee4271,0,63,51,40,22,23,Male,,,"<p style=""font-size:50px"">You Lose!
No points this round.</p>",,,,,,,,,,,,,,,,,,,,,,,,,,,,
202,0,,html-keyboard-response,202,458016,0.0-7.10-4.10,dwsxxdbco9g,2022-09-19 16:45:07.875,62bdd58c792242d931ee4271,0,63,51,40,22,23,Male,,,,,,1.0,choice,10.0,C,D,red,black,moons,moons,C,D,D,black,moons,2030.0,0.0,0.0,1,left,359.0,2.0,0.0,0.0,,,
203,0,,html-keyboard-response,203,458690,0.0-7.11-0.11,dwsxxdbco9g,2022-09-19 16:45:07.875,62bdd58c792242d931ee4271,0,63,51,40,22,23,Male,670.0,,"
  <table>
  <tr height=300>
    <td width=300 height=300><img src=""static/images/cards/stack_of_red_stars.svg"" width=""175px"" height=""250px""></img></td>
    <td width=300 height=300><img src=""static/images/cards/stack_of_black_moons.svg"" width=""175px"" height=""250px""></img></td>
  </tr>
  <tr height=200>
    <td width=300><img src=""static/images/keys/w.svg"" width=""35%"" height=""75%""></img></td>
    <td width=300><img src=""static/images/keys/o.svg"" width=""35%"" height=""75%""></img></td>
  </tr>
</table>
  ",79.0,1.0,,,,,,,,,,,,,,,,,,,,,,,,,,
204,0,,html-keyboard-response,204,459659,0.0-7.11-1.11,dwsxxdbco9g,2022-09-19 16:45:07.875,62bdd58c792242d931ee4271,0,63,51,40,22,23,Male,458.0,,"
  <table>
  <tr height=300>
    <td width=300 height=300><img src=""static/images/cards/back_of_black_moons.svg"" width=""175px"" height=""250px""></img></td>
    <td width=300 height=300><img src=""static/images/cards/back_of_black_moons.svg"" width=""175px"" height=""250px""></img></td>
  </tr>
  <tr height=200>
    <td width=300></td>
    <td width=300><img src=""static/images/keys/m.svg"" width=""35%"" height=""75%""></img></td>
  </tr>
</table>
  ",77.0,1.0,,,,,,,,,,,,,,,,,,,,,,,,,,
205,0,,html-keyboard-response,205,461166,0.0-7.11-2.11,dwsxxdbco9g,2022-09-19 16:45:07.875,62bdd58c792242d931ee4271,0,63,51,40,22,23,Male,,,"
  <table>
  <tr height=300>
    <td width=300 height=300><img src=""static/images/cards/back_of_black_moons.svg"" width=""175px"" height=""250px""></img></td>
    <td width=300 height=300><img src=""static/images/cards/9_of_black_moons.svg"" width=""175px"" height=""250px""></img></td>
  </tr>
  <tr height=200>
    <td width=300></td>
    <td width=300><img src=""static/images/keys/m.svg"" width=""35%"" height=""75%""></img></td>
  </tr>
</table>
  ",,,,,,,,,,,,,,,,,,,,,,,,,,,,
206,0,,html-keyboard-response,206,462690,0.0-7.11-3.11,dwsxxdbco9g,2022-09-19 16:45:07.875,62bdd58c792242d931ee4271,0,63,51,40,22,23,Male,,,"<p style=""font-size:50px"">You win!
+10 points this round!</p>",,,,,,,,,,,,,,,,,,,,,,,,,,,,
207,0,,html-keyboard-response,207,463206,0.0-7.11-4.11,dwsxxdbco9g,2022-09-19 16:45:07.875,62bdd58c792242d931ee4271,0,63,51,40,22,23,Male,,,,,,1.0,choice,11.0,A,D,red,black,stars,moons,A,D,D,black,moons,670.0,0.0,0.0,0,right,458.0,9.0,1.0,1.0,,,
208,0,,html-keyboard-response,208,464043,0.0-7.12-0.12,dwsxxdbco9g,2022-09-19 16:45:07.875,62bdd58c792242d931ee4271,0,63,51,40,22,23,Male,834.0,,"
  <table>
  <tr height=300>
    <td width=300 height=300><img src=""static/images/cards/stack_of_black_moons.svg"" width=""175px"" height=""250px""></img></td>
    <td width=300 height=300><img src=""static/images/cards/stack_of_black_stars.svg"" width=""175px"" height=""250px""></img></td>
  </tr>
  <tr height=200>
    <td width=300><img src=""static/images/keys/w.svg"" width=""35%"" height=""75%""></img></td>
    <td width=300><img src=""static/images/keys/o.svg"" width=""35%"" height=""75%""></img></td>
  </tr>
</table>
  ",79.0,1.0,,,,,,,,,,,,,,,,,,,,,,,,,,
209,0,,html-keyboard-response,209,464958,0.0-7.12-1.12,dwsxxdbco9g,2022-09-19 16:45:07.875,62bdd58c792242d931ee4271,0,63,51,40,22,23,Male,410.0,,"
  <table>
  <tr height=300>
    <td width=300 height=300><img src=""static/images/cards/back_of_black_stars.svg"" width=""175px"" height=""250px""></img></td>
    <td width=300 height=300><img src=""static/images/cards/back_of_black_stars.svg"" width=""175px"" height=""250px""></img></td>
  </tr>
  <tr height=200>
    <td width=300><img src=""static/images/keys/z.svg"" width=""35%"" height=""75%""></img></td>
    <td width=300></td>
  </tr>
</table>
  ",90.0,1.0,,,,,,,,,,,,,,,,,,,,,,,,,,
210,0,,html-keyboard-response,210,466463,0.0-7.12-2.12,dwsxxdbco9g,2022-09-19 16:45:07.875,62bdd58c792242d931ee4271,0,63,51,40,22,23,Male,,,"
  <table>
  <tr height=300>
    <td width=300 height=300><img src=""static/images/cards/10_of_black_stars.svg"" width=""175px"" height=""250px""></img></td>
    <td width=300 height=300><img src=""static/images/cards/back_of_black_stars.svg"" width=""175px"" height=""250px""></img></td>
  </tr>
  <tr height=200>
    <td width=300><img src=""static/images/keys/z.svg"" width=""35%"" height=""75%""></img></td>
    <td width=300></td>
  </tr>
</table>
  ",,,,,,,,,,,,,,,,,,,,,,,,,,,,
211,0,,html-keyboard-response,211,467987,0.0-7.12-3.12,dwsxxdbco9g,2022-09-19 16:45:07.875,62bdd58c792242d931ee4271,0,63,51,40,22,23,Male,,,"<p style=""font-size:50px"">You win!
+10 points this round!</p>",,,,,,,,,,,,,,,,,,,,,,,,,,,,
212,0,,html-keyboard-response,212,468504,0.0-7.12-4.12,dwsxxdbco9g,2022-09-19 16:45:07.875,62bdd58c792242d931ee4271,0,63,51,40,22,23,Male,,,,,,1.0,choice,12.0,B,D,black,black,moons,stars,D,B,B,black,stars,834.0,0.0,1.0,1,left,410.0,10.0,1.0,1.0,,,
213,0,,html-keyboard-response,213,469609,0.0-7.13-0.13,dwsxxdbco9g,2022-09-19 16:45:07.875,62bdd58c792242d931ee4271,0,63,51,40,22,23,Male,1103.0,,"
  <table>
  <tr height=300>
    <td width=300 height=300><img src=""static/images/cards/stack_of_black_stars.svg"" width=""175px"" height=""250px""></img></td>
    <td width=300 height=300><img src=""static/images/cards/stack_of_black_moons.svg"" width=""175px"" height=""250px""></img></td>
  </tr>
  <tr height=200>
    <td width=300><img src=""static/images/keys/w.svg"" width=""35%"" height=""75%""></img></td>
    <td width=300><img src=""static/images/keys/o.svg"" width=""35%"" height=""75%""></img></td>
  </tr>
</table>
  ",79.0,1.0,,,,,,,,,,,,,,,,,,,,,,,,,,
214,0,,html-keyboard-response,214,470558,0.0-7.13-1.13,dwsxxdbco9g,2022-09-19 16:45:07.875,62bdd58c792242d931ee4271,0,63,51,40,22,23,Male,439.0,,"
  <table>
  <tr height=300>
    <td width=300 height=300><img src=""static/images/cards/back_of_black_moons.svg"" width=""175px"" height=""250px""></img></td>
    <td width=300 height=300><img src=""static/images/cards/back_of_black_moons.svg"" width=""175px"" height=""250px""></img></td>
  </tr>
  <tr height=200>
    <td width=300><img src=""static/images/keys/z.svg"" width=""35%"" height=""75%""></img></td>
    <td width=300></td>
  </tr>
</table>
  ",90.0,1.0,,,,,,,,,,,,,,,,,,,,,,,,,,
215,0,,html-keyboard-response,215,472071,0.0-7.13-2.13,dwsxxdbco9g,2022-09-19 16:45:07.875,62bdd58c792242d931ee4271,0,63,51,40,22,23,Male,,,"
  <table>
  <tr height=300>
    <td width=300 height=300><img src=""static/images/cards/3_of_black_moons.svg"" width=""175px"" height=""250px""></img></td>
    <td width=300 height=300><img src=""static/images/cards/back_of_black_moons.svg"" width=""175px"" height=""250px""></img></td>
  </tr>
  <tr height=200>
    <td width=300><img src=""static/images/keys/z.svg"" width=""35%"" height=""75%""></img></td>
    <td width=300></td>
  </tr>
</table>
  ",,,,,,,,,,,,,,,,,,,,,,,,,,,,
216,0,,html-keyboard-response,216,473580,0.0-7.13-3.13,dwsxxdbco9g,2022-09-19 16:45:07.875,62bdd58c792242d931ee4271,0,63,51,40,22,23,Male,,,"<p style=""font-size:50px"">You win!
+10 points this round!</p>",,,,,,,,,,,,,,,,,,,,,,,,,,,,
217,0,,html-keyboard-response,217,474109,0.0-7.13-4.13,dwsxxdbco9g,2022-09-19 16:45:07.875,62bdd58c792242d931ee4271,0,63,51,40,22,23,Male,,,,,,1.0,choice,13.0,B,D,black,black,stars,moons,B,D,D,black,moons,1103.0,0.0,0.0,1,left,439.0,3.0,0.0,1.0,,,
218,0,,html-keyboard-response,218,474887,0.0-7.14-0.14,dwsxxdbco9g,2022-09-19 16:45:07.875,62bdd58c792242d931ee4271,0,63,51,40,22,23,Male,774.0,,"
  <table>
  <tr height=300>
    <td width=300 height=300><img src=""static/images/cards/stack_of_red_moons.svg"" width=""175px"" height=""250px""></img></td>
    <td width=300 height=300><img src=""static/images/cards/stack_of_black_stars.svg"" width=""175px"" height=""250px""></img></td>
  </tr>
  <tr height=200>
    <td width=300><img src=""static/images/keys/w.svg"" width=""35%"" height=""75%""></img></td>
    <td width=300><img src=""static/images/keys/o.svg"" width=""35%"" height=""75%""></img></td>
  </tr>
</table>
  ",87.0,1.0,,,,,,,,,,,,,,,,,,,,,,,,,,
219,0,,html-keyboard-response,219,476174,0.0-7.14-1.14,dwsxxdbco9g,2022-09-19 16:45:07.875,62bdd58c792242d931ee4271,0,63,51,40,22,23,Male,780.0,,"
  <table>
  <tr height=300>
    <td width=300 height=300><img src=""static/images/cards/back_of_red_moons.svg"" width=""175px"" height=""250px""></img></td>
    <td width=300 height=300><img src=""static/images/cards/back_of_red_moons.svg"" width=""175px"" height=""250px""></img></td>
  </tr>
  <tr height=200>
    <td width=300><img src=""static/images/keys/z.svg"" width=""35%"" height=""75%""></img></td>
    <td width=300><img src=""static/images/keys/m.svg"" width=""35%"" height=""75%""></img></td>
  </tr>
</table>
  ",77.0,1.0,,,,,,,,,,,,,,,,,,,,,,,,,,
220,0,,html-keyboard-response,220,477686,0.0-7.14-2.14,dwsxxdbco9g,2022-09-19 16:45:07.875,62bdd58c792242d931ee4271,0,63,51,40,22,23,Male,,,"
  <table>
  <tr height=300>
    <td width=300 height=300><img src=""static/images/cards/back_of_red_moons.svg"" width=""175px"" height=""250px""></img></td>
    <td width=300 height=300><img src=""static/images/cards/10_of_red_moons.svg"" width=""175px"" height=""250px""></img></td>
  </tr>
  <tr height=200>
    <td width=300><img src=""static/images/keys/z.svg"" width=""35%"" height=""75%""></img></td>
    <td width=300><img src=""static/images/keys/m.svg"" width=""35%"" height=""75%""></img></td>
  </tr>
</table>
  ",,,,,,,,,,,,,,,,,,,,,,,,,,,,
221,0,,html-keyboard-response,221,479197,0.0-7.14-3.14,dwsxxdbco9g,2022-09-19 16:45:07.875,62bdd58c792242d931ee4271,0,63,51,40,22,23,Male,,,"<p style=""font-size:50px"">You Lose!
No points this round.</p>",,,,,,,,,,,,,,,,,,,,,,,,,,,,
222,0,,html-keyboard-response,222,479727,0.0-7.14-4.14,dwsxxdbco9g,2022-09-19 16:45:07.875,62bdd58c792242d931ee4271,0,63,51,40,22,23,Male,,,,,,1.0,choice,14.0,B,C,red,black,moons,stars,C,B,C,red,moons,774.0,1.0,0.0,NA,right,780.0,10.0,1.0,0.0,,,
223,0,,html-keyboard-response,223,481410,0.0-7.15-0.15,dwsxxdbco9g,2022-09-19 16:45:07.875,62bdd58c792242d931ee4271,0,63,51,40,22,23,Male,1681.0,,"
  <table>
  <tr height=300>
    <td width=300 height=300><img src=""static/images/cards/stack_of_black_moons.svg"" width=""175px"" height=""250px""></img></td>
    <td width=300 height=300><img src=""static/images/cards/stack_of_red_moons.svg"" width=""175px"" height=""250px""></img></td>
  </tr>
  <tr height=200>
    <td width=300><img src=""static/images/keys/w.svg"" width=""35%"" height=""75%""></img></td>
    <td width=300><img src=""static/images/keys/o.svg"" width=""35%"" height=""75%""></img></td>
  </tr>
</table>
  ",87.0,1.0,,,,,,,,,,,,,,,,,,,,,,,,,,
224,0,,html-keyboard-response,224,482430,0.0-7.15-1.15,dwsxxdbco9g,2022-09-19 16:45:07.875,62bdd58c792242d931ee4271,0,63,51,40,22,23,Male,506.0,,"
  <table>
  <tr height=300>
    <td width=300 height=300><img src=""static/images/cards/back_of_black_moons.svg"" width=""175px"" height=""250px""></img></td>
    <td width=300 height=300><img src=""static/images/cards/back_of_black_moons.svg"" width=""175px"" height=""250px""></img></td>
  </tr>
  <tr height=200>
    <td width=300></td>
    <td width=300><img src=""static/images/keys/m.svg"" width=""35%"" height=""75%""></img></td>
  </tr>
</table>
  ",77.0,1.0,,,,,,,,,,,,,,,,,,,,,,,,,,
225,0,,html-keyboard-response,225,483939,0.0-7.15-2.15,dwsxxdbco9g,2022-09-19 16:45:07.875,62bdd58c792242d931ee4271,0,63,51,40,22,23,Male,,,"
  <table>
  <tr height=300>
    <td width=300 height=300><img src=""static/images/cards/back_of_black_moons.svg"" width=""175px"" height=""250px""></img></td>
    <td width=300 height=300><img src=""static/images/cards/7_of_black_moons.svg"" width=""175px"" height=""250px""></img></td>
  </tr>
  <tr height=200>
    <td width=300></td>
    <td width=300><img src=""static/images/keys/m.svg"" width=""35%"" height=""75%""></img></td>
  </tr>
</table>
  ",,,,,,,,,,,,,,,,,,,,,,,,,,,,
226,0,,html-keyboard-response,226,485456,0.0-7.15-3.15,dwsxxdbco9g,2022-09-19 16:45:07.875,62bdd58c792242d931ee4271,0,63,51,40,22,23,Male,,,"<p style=""font-size:50px"">You Lose!
No points this round.</p>",,,,,,,,,,,,,,,,,,,,,,,,,,,,
227,0,,html-keyboard-response,227,485984,0.0-7.15-4.15,dwsxxdbco9g,2022-09-19 16:45:07.875,62bdd58c792242d931ee4271,0,63,51,40,22,23,Male,,,,,,1.0,choice,15.0,C,D,black,red,moons,moons,D,C,D,black,moons,1681.0,0.0,0.0,0,right,506.0,7.0,1.0,0.0,,,
228,0,,html-keyboard-response,228,487140,0.0-7.16-0.16,dwsxxdbco9g,2022-09-19 16:45:07.875,62bdd58c792242d931ee4271,0,63,51,40,22,23,Male,1153.0,,"
  <table>
  <tr height=300>
    <td width=300 height=300><img src=""static/images/cards/stack_of_red_stars.svg"" width=""175px"" height=""250px""></img></td>
    <td width=300 height=300><img src=""static/images/cards/stack_of_black_stars.svg"" width=""175px"" height=""250px""></img></td>
  </tr>
  <tr height=200>
    <td width=300><img src=""static/images/keys/w.svg"" width=""35%"" height=""75%""></img></td>
    <td width=300><img src=""static/images/keys/o.svg"" width=""35%"" height=""75%""></img></td>
  </tr>
</table>
  ",87.0,1.0,,,,,,,,,,,,,,,,,,,,,,,,,,
229,0,,html-keyboard-response,229,488583,0.0-7.16-1.16,dwsxxdbco9g,2022-09-19 16:45:07.875,62bdd58c792242d931ee4271,0,63,51,40,22,23,Male,926.0,,"
  <table>
  <tr height=300>
    <td width=300 height=300><img src=""static/images/cards/back_of_red_stars.svg"" width=""175px"" height=""250px""></img></td>
    <td width=300 height=300><img src=""static/images/cards/back_of_red_stars.svg"" width=""175px"" height=""250px""></img></td>
  </tr>
  <tr height=200>
    <td width=300><img src=""static/images/keys/z.svg"" width=""35%"" height=""75%""></img></td>
    <td width=300><img src=""static/images/keys/m.svg"" width=""35%"" height=""75%""></img></td>
  </tr>
</table>
  ",77.0,1.0,,,,,,,,,,,,,,,,,,,,,,,,,,
230,0,,html-keyboard-response,230,490084,0.0-7.16-2.16,dwsxxdbco9g,2022-09-19 16:45:07.875,62bdd58c792242d931ee4271,0,63,51,40,22,23,Male,,,"
  <table>
  <tr height=300>
    <td width=300 height=300><img src=""static/images/cards/back_of_red_stars.svg"" width=""175px"" height=""250px""></img></td>
    <td width=300 height=300><img src=""static/images/cards/3_of_red_stars.svg"" width=""175px"" height=""250px""></img></td>
  </tr>
  <tr height=200>
    <td width=300><img src=""static/images/keys/z.svg"" width=""35%"" height=""75%""></img></td>
    <td width=300><img src=""static/images/keys/m.svg"" width=""35%"" height=""75%""></img></td>
  </tr>
</table>
  ",,,,,,,,,,,,,,,,,,,,,,,,,,,,
231,0,,html-keyboard-response,231,491605,0.0-7.16-3.16,dwsxxdbco9g,2022-09-19 16:45:07.875,62bdd58c792242d931ee4271,0,63,51,40,22,23,Male,,,"<p style=""font-size:50px"">You Lose!
No points this round.</p>",,,,,,,,,,,,,,,,,,,,,,,,,,,,
232,0,,html-keyboard-response,232,492122,0.0-7.16-4.16,dwsxxdbco9g,2022-09-19 16:45:07.875,62bdd58c792242d931ee4271,0,63,51,40,22,23,Male,,,,,,1.0,choice,16.0,A,B,red,black,stars,stars,A,B,A,red,stars,1153.0,1.0,1.0,NA,right,926.0,3.0,0.0,0.0,,,
233,0,,html-keyboard-response,233,492808,0.0-7.17-0.17,dwsxxdbco9g,2022-09-19 16:45:07.875,62bdd58c792242d931ee4271,0,63,51,40,22,23,Male,683.0,,"
  <table>
  <tr height=300>
    <td width=300 height=300><img src=""static/images/cards/stack_of_black_stars.svg"" width=""175px"" height=""250px""></img></td>
    <td width=300 height=300><img src=""static/images/cards/stack_of_red_stars.svg"" width=""175px"" height=""250px""></img></td>
  </tr>
  <tr height=200>
    <td width=300><img src=""static/images/keys/w.svg"" width=""35%"" height=""75%""></img></td>
    <td width=300><img src=""static/images/keys/o.svg"" width=""35%"" height=""75%""></img></td>
  </tr>
</table>
  ",79.0,1.0,,,,,,,,,,,,,,,,,,,,,,,,,,
234,0,,html-keyboard-response,234,494036,0.0-7.17-1.17,dwsxxdbco9g,2022-09-19 16:45:07.875,62bdd58c792242d931ee4271,0,63,51,40,22,23,Male,720.0,,"
  <table>
  <tr height=300>
    <td width=300 height=300><img src=""static/images/cards/back_of_red_stars.svg"" width=""175px"" height=""250px""></img></td>
    <td width=300 height=300><img src=""static/images/cards/back_of_red_stars.svg"" width=""175px"" height=""250px""></img></td>
  </tr>
  <tr height=200>
    <td width=300><img src=""static/images/keys/z.svg"" width=""35%"" height=""75%""></img></td>
    <td width=300><img src=""static/images/keys/m.svg"" width=""35%"" height=""75%""></img></td>
  </tr>
</table>
  ",90.0,1.0,,,,,,,,,,,,,,,,,,,,,,,,,,
