,index,success,trial_type,trial_index,time_elapsed,internal_node_id,subject,date,prol_id,ctbl,sense_of_control_A,sense_of_control_B,sense_of_control_C,sense_of_control_D,age,gender,rt,url,stimulus,key_press,npress,is_data_trial,phase,trial,deck1,deck2,col1,col2,sym1,sym2,deck_l,deck_r,chosen_deck,chosen_col,chosen_sym,deck_rt,choose_choice,mutual_info,hidden_key,chosen_card,card_rt,player_num,win_card,outcome,mock_rating,response,responses
0,0,1.0,fullscreen,0,3085,0.0-0.0,8uqnz0h9ie4,2022-09-19 17:09:09.480,5e8a1827052175000938eb91,1,18,48,39,52,23,male,,,,,,,,,,,,,,,,,,,,,,,,,,,,,,,
1,0,,external-html,1,5918,0.0-1.0,8uqnz0h9ie4,2022-09-19 17:09:09.480,5e8a1827052175000938eb91,1,18,48,39,52,23,male,2769.0,static/js/sub/consent.html,,,,,,,,,,,,,,,,,,,,,,,,,,,,,
2,0,,call-function,2,5926,0.0-2.0,8uqnz0h9ie4,2022-09-19 17:09:09.480,5e8a1827052175000938eb91,1,18,48,39,52,23,male,,,,,,,,,,,,,,,,,,,,,,,,,,,,,,,
3,0,,image-keyboard-response,3,9652,0.0-3.0-0.0,8uqnz0h9ie4,2022-09-19 17:09:09.480,5e8a1827052175000938eb91,1,18,48,39,52,23,male,3720.0,,static/images/instructions_CB_1/Slide1.png,39.0,,,,,,,,,,,,,,,,,,,,,,,,,,,
4,0,,image-keyboard-response,4,15547,0.0-3.1-0.1,8uqnz0h9ie4,2022-09-19 17:09:09.480,5e8a1827052175000938eb91,1,18,48,39,52,23,male,5891.0,,static/images/instructions_CB_1/Slide2.png,39.0,,,,,,,,,,,,,,,,,,,,,,,,,,,
5,0,,image-keyboard-response,5,17865,0.0-3.2-0.2,8uqnz0h9ie4,2022-09-19 17:09:09.480,5e8a1827052175000938eb91,1,18,48,39,52,23,male,2314.0,,static/images/instructions_CB_1/Slide3.png,39.0,,,,,,,,,,,,,,,,,,,,,,,,,,,
6,0,,image-keyboard-response,6,20183,0.0-3.3-0.3,8uqnz0h9ie4,2022-09-19 17:09:09.480,5e8a1827052175000938eb91,1,18,48,39,52,23,male,2315.0,,static/images/instructions_CB_1/Slide4.png,39.0,,,,,,,,,,,,,,,,,,,,,,,,,,,
7,0,,image-keyboard-response,7,23823,0.0-3.4-0.4,8uqnz0h9ie4,2022-09-19 17:09:09.480,5e8a1827052175000938eb91,1,18,48,39,52,23,male,3638.0,,static/images/instructions_CB_1/Slide5.png,39.0,,,,,,,,,,,,,,,,,,,,,,,,,,,
8,0,,image-keyboard-response,8,25252,0.0-3.5-0.5,8uqnz0h9ie4,2022-09-19 17:09:09.480,5e8a1827052175000938eb91,1,18,48,39,52,23,male,1427.0,,static/images/instructions_CB_1/Slide6.png,39.0,,,,,,,,,,,,,,,,,,,,,,,,,,,
9,0,,image-keyboard-response,9,27444,0.0-3.6-0.6,8uqnz0h9ie4,2022-09-19 17:09:09.480,5e8a1827052175000938eb91,1,18,48,39,52,23,male,2189.0,,static/images/instructions_CB_1/Slide7.png,39.0,,,,,,,,,,,,,,,,,,,,,,,,,,,
10,0,,image-keyboard-response,10,60717,0.0-3.7-0.7,8uqnz0h9ie4,2022-09-19 17:09:09.480,5e8a1827052175000938eb91,1,18,48,39,52,23,male,33271.0,,static/images/instructions_CB_1/Slide8.png,39.0,,,,,,,,,,,,,,,,,,,,,,,,,,,
11,0,,image-keyboard-response,11,64916,0.0-3.8-0.8,8uqnz0h9ie4,2022-09-19 17:09:09.480,5e8a1827052175000938eb91,1,18,48,39,52,23,male,4196.0,,static/images/instructions_CB_1/Slide9.png,39.0,,,,,,,,,,,,,,,,,,,,,,,,,,,
12,0,,image-keyboard-response,12,74952,0.0-3.9-0.9,8uqnz0h9ie4,2022-09-19 17:09:09.480,5e8a1827052175000938eb91,1,18,48,39,52,23,male,10035.0,,static/images/instructions_CB_1/Slide10.png,39.0,,,,,,,,,,,,,,,,,,,,,,,,,,,
13,0,,image-keyboard-response,13,79440,0.0-3.10-0.10,8uqnz0h9ie4,2022-09-19 17:09:09.480,5e8a1827052175000938eb91,1,18,48,39,52,23,male,4482.0,,static/images/instructions_CB_1/Slide11.png,39.0,,,,,,,,,,,,,,,,,,,,,,,,,,,
14,0,,image-keyboard-response,14,95616,0.0-3.11-0.11,8uqnz0h9ie4,2022-09-19 17:09:09.480,5e8a1827052175000938eb91,1,18,48,39,52,23,male,16173.0,,static/images/instructions_CB_1/Slide12.png,39.0,,,,,,,,,,,,,,,,,,,,,,,,,,,
15,0,,image-keyboard-response,15,109188,0.0-3.12-0.12,8uqnz0h9ie4,2022-09-19 17:09:09.480,5e8a1827052175000938eb91,1,18,48,39,52,23,male,13568.0,,static/images/instructions_CB_1/Slide13.png,39.0,,,,,,,,,,,,,,,,,,,,,,,,,,,
16,0,,image-keyboard-response,16,113953,0.0-3.13-0.13,8uqnz0h9ie4,2022-09-19 17:09:09.480,5e8a1827052175000938eb91,1,18,48,39,52,23,male,4764.0,,static/images/instructions_CB_1/Slide14.png,37.0,,,,,,,,,,,,,,,,,,,,,,,,,,,
17,0,,image-keyboard-response,17,119609,0.0-3.14-0.14,8uqnz0h9ie4,2022-09-19 17:09:09.480,5e8a1827052175000938eb91,1,18,48,39,52,23,male,5654.0,,static/images/instructions_CB_1/Slide13.png,39.0,,,,,,,,,,,,,,,,,,,,,,,,,,,
18,0,,image-keyboard-response,18,122737,0.0-3.15-0.15,8uqnz0h9ie4,2022-09-19 17:09:09.480,5e8a1827052175000938eb91,1,18,48,39,52,23,male,3124.0,,static/images/instructions_CB_1/Slide14.png,39.0,,,,,,,,,,,,,,,,,,,,,,,,,,,
19,0,,image-keyboard-response,19,127270,0.0-3.16-0.16,8uqnz0h9ie4,2022-09-19 17:09:09.480,5e8a1827052175000938eb91,1,18,48,39,52,23,male,4533.0,,static/images/instructions_CB_1/Slide15.png,39.0,,,,,,,,,,,,,,,,,,,,,,,,,,,
20,0,,image-keyboard-response,20,135297,0.0-3.17-0.17,8uqnz0h9ie4,2022-09-19 17:09:09.480,5e8a1827052175000938eb91,1,18,48,39,52,23,male,8025.0,,static/images/instructions_CB_1/Slide16.png,39.0,,,,,,,,,,,,,,,,,,,,,,,,,,,
21,0,,image-keyboard-response,21,140987,0.0-3.18-0.18,8uqnz0h9ie4,2022-09-19 17:09:09.480,5e8a1827052175000938eb91,1,18,48,39,52,23,male,5688.0,,static/images/instructions_CB_1/Slide17.png,39.0,,,,,,,,,,,,,,,,,,,,,,,,,,,
22,0,,image-keyboard-response,22,147110,0.0-3.19-0.19,8uqnz0h9ie4,2022-09-19 17:09:09.480,5e8a1827052175000938eb91,1,18,48,39,52,23,male,6122.0,,static/images/instructions_CB_1/Slide18.png,39.0,,,,,,,,,,,,,,,,,,,,,,,,,,,
23,0,,image-keyboard-response,23,153217,0.0-3.20-0.20,8uqnz0h9ie4,2022-09-19 17:09:09.480,5e8a1827052175000938eb91,1,18,48,39,52,23,male,6105.0,,static/images/instructions_CB_1/Slide19.png,39.0,,,,,,,,,,,,,,,,,,,,,,,,,,,
24,0,,html-keyboard-response,24,154728,0.0-4.0-0.0,8uqnz0h9ie4,2022-09-19 17:09:09.480,5e8a1827052175000938eb91,1,18,48,39,52,23,male,,,"<img src=""static/images/cards/stack_of_red_moons.svg"" width=""175px"" height=""250px""></img>",,,,,,,,,,,,,,,,,,,,,,,,,,,,
25,0,,html-keyboard-response,25,156923,0.0-4.0-1.0,8uqnz0h9ie4,2022-09-19 17:09:09.480,5e8a1827052175000938eb91,1,18,48,39,52,23,male,1678.0,,"
  <table>
  <tr height=300>
    <td width=300 height=300><img src=""static/images/cards/back_of_red_moons.svg"" width=""175px"" height=""250px""></img></td>
    <td width=300 height=300><img src=""static/images/cards/back_of_red_moons.svg"" width=""175px"" height=""250px""></img></td>
  </tr>
  <tr height=200>
    <td width=300><img src=""static/images/keys/z.svg"" width=""35%"" height=""75%""></img></td>
    <td width=300><img src=""static/images/keys/m.svg"" width=""35%"" height=""75%""></img></td>
  </tr>
</table>
  ",77.0,1.0,,,,,,,,,,,,,,,,,,,,,,,,,,
26,0,,html-keyboard-response,26,158427,0.0-4.0-2.0,8uqnz0h9ie4,2022-09-19 17:09:09.480,5e8a1827052175000938eb91,1,18,48,39,52,23,male,,,"
  <table>
  <tr height=300>
    <td width=300 height=300><img src=""static/images/cards/back_of_red_moons.svg"" width=""175px"" height=""250px""></img></td>
    <td width=300 height=300><img src=""static/images/cards/2_of_red_moons.svg"" width=""175px"" height=""250px""></img></td>
  </tr>
  <tr height=200>
    <td width=300><img src=""static/images/keys/z.svg"" width=""35%"" height=""75%""></img></td>
    <td width=300><img src=""static/images/keys/m.svg"" width=""35%"" height=""75%""></img></td>
  </tr>
</table>
  ",,,,,,,,,,,,,,,,,,,,,,,,,,,,
27,0,,html-keyboard-response,27,159952,0.0-4.0-3.0,8uqnz0h9ie4,2022-09-19 17:09:09.480,5e8a1827052175000938eb91,1,18,48,39,52,23,male,,,"<p style=""font-size:50px"">You Lose!
No points this round.</p>",,,,,,,,,,,,,,,,,,,,,,,,,,,,
28,0,,html-keyboard-response,28,160481,0.0-4.0-4.0,8uqnz0h9ie4,2022-09-19 17:09:09.480,5e8a1827052175000938eb91,1,18,48,39,52,23,male,,,,,,1.0,learning,0.0,A,,red,,moons,,,,A,red,moons,,1.0,1.0,NA,right,1678.0,2.0,0.0,0.0,,,
29,0,,html-keyboard-response,29,161989,0.0-4.1-0.1,8uqnz0h9ie4,2022-09-19 17:09:09.480,5e8a1827052175000938eb91,1,18,48,39,52,23,male,,,"<img src=""static/images/cards/stack_of_black_moons.svg"" width=""175px"" height=""250px""></img>",,,,,,,,,,,,,,,,,,,,,,,,,,,,
30,0,,html-keyboard-response,30,163121,0.0-4.1-1.1,8uqnz0h9ie4,2022-09-19 17:09:09.480,5e8a1827052175000938eb91,1,18,48,39,52,23,male,619.0,,"
  <table>
  <tr height=300>
    <td width=300 height=300><img src=""static/images/cards/back_of_black_moons.svg"" width=""175px"" height=""250px""></img></td>
    <td width=300 height=300><img src=""static/images/cards/back_of_black_moons.svg"" width=""175px"" height=""250px""></img></td>
  </tr>
  <tr height=200>
    <td width=300></td>
    <td width=300><img src=""static/images/keys/m.svg"" width=""35%"" height=""75%""></img></td>
  </tr>
</table>
  ",77.0,1.0,,,,,,,,,,,,,,,,,,,,,,,,,,
31,0,,html-keyboard-response,31,164630,0.0-4.1-2.1,8uqnz0h9ie4,2022-09-19 17:09:09.480,5e8a1827052175000938eb91,1,18,48,39,52,23,male,,,"
  <table>
  <tr height=300>
    <td width=300 height=300><img src=""static/images/cards/back_of_black_moons.svg"" width=""175px"" height=""250px""></img></td>
    <td width=300 height=300><img src=""static/images/cards/1_of_black_moons.svg"" width=""175px"" height=""250px""></img></td>
  </tr>
  <tr height=200>
    <td width=300></td>
    <td width=300><img src=""static/images/keys/m.svg"" width=""35%"" height=""75%""></img></td>
  </tr>
</table>
  ",,,,,,,,,,,,,,,,,,,,,,,,,,,,
32,0,,html-keyboard-response,32,166153,0.0-4.1-3.1,8uqnz0h9ie4,2022-09-19 17:09:09.480,5e8a1827052175000938eb91,1,18,48,39,52,23,male,,,"<p style=""font-size:50px"">You Lose!
No points this round.</p>",,,,,,,,,,,,,,,,,,,,,,,,,,,,
33,0,,html-keyboard-response,33,166680,0.0-4.1-4.1,8uqnz0h9ie4,2022-09-19 17:09:09.480,5e8a1827052175000938eb91,1,18,48,39,52,23,male,,,,,,1.0,learning,1.0,B,,black,,moons,,,,B,black,moons,,0.0,1.0,0,right,619.0,1.0,0.0,0.0,,,
34,0,,html-keyboard-response,34,168191,0.0-4.2-0.2,8uqnz0h9ie4,2022-09-19 17:09:09.480,5e8a1827052175000938eb91,1,18,48,39,52,23,male,,,"<img src=""static/images/cards/stack_of_red_stars.svg"" width=""175px"" height=""250px""></img>",,,,,,,,,,,,,,,,,,,,,,,,,,,,
35,0,,html-keyboard-response,35,169274,0.0-4.2-1.2,8uqnz0h9ie4,2022-09-19 17:09:09.480,5e8a1827052175000938eb91,1,18,48,39,52,23,male,581.0,,"
  <table>
  <tr height=300>
    <td width=300 height=300><img src=""static/images/cards/back_of_red_stars.svg"" width=""175px"" height=""250px""></img></td>
    <td width=300 height=300><img src=""static/images/cards/back_of_red_stars.svg"" width=""175px"" height=""250px""></img></td>
  </tr>
  <tr height=200>
    <td width=300><img src=""static/images/keys/z.svg"" width=""35%"" height=""75%""></img></td>
    <td width=300><img src=""static/images/keys/m.svg"" width=""35%"" height=""75%""></img></td>
  </tr>
</table>
  ",90.0,1.0,,,,,,,,,,,,,,,,,,,,,,,,,,
36,0,,html-keyboard-response,36,170789,0.0-4.2-2.2,8uqnz0h9ie4,2022-09-19 17:09:09.480,5e8a1827052175000938eb91,1,18,48,39,52,23,male,,,"
  <table>
  <tr height=300>
    <td width=300 height=300><img src=""static/images/cards/1_of_red_stars.svg"" width=""175px"" height=""250px""></img></td>
    <td width=300 height=300><img src=""static/images/cards/back_of_red_stars.svg"" width=""175px"" height=""250px""></img></td>
  </tr>
  <tr height=200>
    <td width=300><img src=""static/images/keys/z.svg"" width=""35%"" height=""75%""></img></td>
    <td width=300><img src=""static/images/keys/m.svg"" width=""35%"" height=""75%""></img></td>
  </tr>
</table>
  ",,,,,,,,,,,,,,,,,,,,,,,,,,,,
37,0,,html-keyboard-response,37,172315,0.0-4.2-3.2,8uqnz0h9ie4,2022-09-19 17:09:09.480,5e8a1827052175000938eb91,1,18,48,39,52,23,male,,,"<p style=""font-size:50px"">You Lose!
No points this round.</p>",,,,,,,,,,,,,,,,,,,,,,,,,,,,
38,0,,html-keyboard-response,38,172844,0.0-4.2-4.2,8uqnz0h9ie4,2022-09-19 17:09:09.480,5e8a1827052175000938eb91,1,18,48,39,52,23,male,,,,,,1.0,learning,2.0,C,,red,,stars,,,,C,red,stars,,1.0,0.0,NA,left,581.0,1.0,0.0,0.0,,,
39,0,,html-keyboard-response,39,174353,0.0-4.3-0.3,8uqnz0h9ie4,2022-09-19 17:09:09.480,5e8a1827052175000938eb91,1,18,48,39,52,23,male,,,"<img src=""static/images/cards/stack_of_black_stars.svg"" width=""175px"" height=""250px""></img>",,,,,,,,,,,,,,,,,,,,,,,,,,,,
40,0,,html-keyboard-response,40,175283,0.0-4.3-1.3,8uqnz0h9ie4,2022-09-19 17:09:09.480,5e8a1827052175000938eb91,1,18,48,39,52,23,male,415.0,,"
  <table>
  <tr height=300>
    <td width=300 height=300><img src=""static/images/cards/back_of_black_stars.svg"" width=""175px"" height=""250px""></img></td>
    <td width=300 height=300><img src=""static/images/cards/back_of_black_stars.svg"" width=""175px"" height=""250px""></img></td>
  </tr>
  <tr height=200>
    <td width=300><img src=""static/images/keys/z.svg"" width=""35%"" height=""75%""></img></td>
    <td width=300></td>
  </tr>
</table>
  ",90.0,1.0,,,,,,,,,,,,,,,,,,,,,,,,,,
41,0,,html-keyboard-response,41,176789,0.0-4.3-2.3,8uqnz0h9ie4,2022-09-19 17:09:09.480,5e8a1827052175000938eb91,1,18,48,39,52,23,male,,,"
  <table>
  <tr height=300>
    <td width=300 height=300><img src=""static/images/cards/10_of_black_stars.svg"" width=""175px"" height=""250px""></img></td>
    <td width=300 height=300><img src=""static/images/cards/back_of_black_stars.svg"" width=""175px"" height=""250px""></img></td>
  </tr>
  <tr height=200>
    <td width=300><img src=""static/images/keys/z.svg"" width=""35%"" height=""75%""></img></td>
    <td width=300></td>
  </tr>
</table>
  ",,,,,,,,,,,,,,,,,,,,,,,,,,,,
42,0,,html-keyboard-response,42,178307,0.0-4.3-3.3,8uqnz0h9ie4,2022-09-19 17:09:09.480,5e8a1827052175000938eb91,1,18,48,39,52,23,male,,,"<p style=""font-size:50px"">You win!
+10 points this round!</p>",,,,,,,,,,,,,,,,,,,,,,,,,,,,
43,0,,html-keyboard-response,43,178834,0.0-4.3-4.3,8uqnz0h9ie4,2022-09-19 17:09:09.480,5e8a1827052175000938eb91,1,18,48,39,52,23,male,,,,,,1.0,learning,3.0,D,,black,,stars,,,,D,black,stars,,0.0,0.0,1,left,415.0,10.0,1.0,1.0,,,
44,0,,html-keyboard-response,44,180342,0.0-4.4-0.4,8uqnz0h9ie4,2022-09-19 17:09:09.480,5e8a1827052175000938eb91,1,18,48,39,52,23,male,,,"<img src=""static/images/cards/stack_of_red_bolts.svg"" width=""175px"" height=""250px""></img>",,,,,,,,,,,,,,,,,,,,,,,,,,,,
45,0,,html-keyboard-response,45,181205,0.0-4.4-1.4,8uqnz0h9ie4,2022-09-19 17:09:09.480,5e8a1827052175000938eb91,1,18,48,39,52,23,male,347.0,,"
  <table>
  <tr height=300>
    <td width=300 height=300><img src=""static/images/cards/back_of_red_bolts.svg"" width=""175px"" height=""250px""></img></td>
    <td width=300 height=300><img src=""static/images/cards/back_of_red_bolts.svg"" width=""175px"" height=""250px""></img></td>
  </tr>
  <tr height=200>
    <td width=300><img src=""static/images/keys/z.svg"" width=""35%"" height=""75%""></img></td>
    <td width=300><img src=""static/images/keys/m.svg"" width=""35%"" height=""75%""></img></td>
  </tr>
</table>
  ",77.0,1.0,,,,,,,,,,,,,,,,,,,,,,,,,,
46,0,,html-keyboard-response,46,182720,0.0-4.4-2.4,8uqnz0h9ie4,2022-09-19 17:09:09.480,5e8a1827052175000938eb91,1,18,48,39,52,23,male,,,"
  <table>
  <tr height=300>
    <td width=300 height=300><img src=""static/images/cards/back_of_red_bolts.svg"" width=""175px"" height=""250px""></img></td>
    <td width=300 height=300><img src=""static/images/cards/9_of_red_bolts.svg"" width=""175px"" height=""250px""></img></td>
  </tr>
  <tr height=200>
    <td width=300><img src=""static/images/keys/z.svg"" width=""35%"" height=""75%""></img></td>
    <td width=300><img src=""static/images/keys/m.svg"" width=""35%"" height=""75%""></img></td>
  </tr>
</table>
  ",,,,,,,,,,,,,,,,,,,,,,,,,,,,
47,0,,html-keyboard-response,47,184246,0.0-4.4-3.4,8uqnz0h9ie4,2022-09-19 17:09:09.480,5e8a1827052175000938eb91,1,18,48,39,52,23,male,,,"<p style=""font-size:50px"">You win!
+10 points this round!</p>",,,,,,,,,,,,,,,,,,,,,,,,,,,,
48,0,,html-keyboard-response,48,184776,0.0-4.4-4.4,8uqnz0h9ie4,2022-09-19 17:09:09.480,5e8a1827052175000938eb91,1,18,48,39,52,23,male,,,,,,1.0,learning,4.0,Xc,,red,,bolts,,,,Xc,red,bolts,,1.0,0.0,NA,right,347.0,9.0,1.0,1.0,,,
49,0,,html-keyboard-response,49,186280,0.0-4.5-0.5,8uqnz0h9ie4,2022-09-19 17:09:09.480,5e8a1827052175000938eb91,1,18,48,39,52,23,male,,,"<img src=""static/images/cards/stack_of_black_bolts.svg"" width=""175px"" height=""250px""></img>",,,,,,,,,,,,,,,,,,,,,,,,,,,,
50,0,,html-keyboard-response,50,187168,0.0-4.5-1.5,8uqnz0h9ie4,2022-09-19 17:09:09.480,5e8a1827052175000938eb91,1,18,48,39,52,23,male,371.0,,"
  <table>
  <tr height=300>
    <td width=300 height=300><img src=""static/images/cards/back_of_black_bolts.svg"" width=""175px"" height=""250px""></img></td>
    <td width=300 height=300><img src=""static/images/cards/back_of_black_bolts.svg"" width=""175px"" height=""250px""></img></td>
  </tr>
  <tr height=200>
    <td width=300><img src=""static/images/keys/z.svg"" width=""35%"" height=""75%""></img></td>
    <td width=300></td>
  </tr>
</table>
  ",90.0,1.0,,,,,,,,,,,,,,,,,,,,,,,,,,
51,0,,html-keyboard-response,51,188674,0.0-4.5-2.5,8uqnz0h9ie4,2022-09-19 17:09:09.480,5e8a1827052175000938eb91,1,18,48,39,52,23,male,,,"
  <table>
  <tr height=300>
    <td width=300 height=300><img src=""static/images/cards/7_of_black_bolts.svg"" width=""175px"" height=""250px""></img></td>
    <td width=300 height=300><img src=""static/images/cards/back_of_black_bolts.svg"" width=""175px"" height=""250px""></img></td>
  </tr>
  <tr height=200>
    <td width=300><img src=""static/images/keys/z.svg"" width=""35%"" height=""75%""></img></td>
    <td width=300></td>
  </tr>
</table>
  ",,,,,,,,,,,,,,,,,,,,,,,,,,,,
52,0,,html-keyboard-response,52,190197,0.0-4.5-3.5,8uqnz0h9ie4,2022-09-19 17:09:09.480,5e8a1827052175000938eb91,1,18,48,39,52,23,male,,,"<p style=""font-size:50px"">You win!
+10 points this round!</p>",,,,,,,,,,,,,,,,,,,,,,,,,,,,
53,0,,html-keyboard-response,53,190727,0.0-4.5-4.5,8uqnz0h9ie4,2022-09-19 17:09:09.480,5e8a1827052175000938eb91,1,18,48,39,52,23,male,,,,,,1.0,learning,5.0,Xnc,,black,,bolts,,,,Xnc,black,bolts,,0.0,0.0,1,left,371.0,7.0,1.0,1.0,,,
54,0,,html-keyboard-response,54,192234,0.0-4.6-0.6,8uqnz0h9ie4,2022-09-19 17:09:09.480,5e8a1827052175000938eb91,1,18,48,39,52,23,male,,,"<img src=""static/images/cards/stack_of_red_moons.svg"" width=""175px"" height=""250px""></img>",,,,,,,,,,,,,,,,,,,,,,,,,,,,
55,0,,html-keyboard-response,55,193329,0.0-4.6-1.6,8uqnz0h9ie4,2022-09-19 17:09:09.480,5e8a1827052175000938eb91,1,18,48,39,52,23,male,594.0,,"
  <table>
  <tr height=300>
    <td width=300 height=300><img src=""static/images/cards/back_of_red_moons.svg"" width=""175px"" height=""250px""></img></td>
    <td width=300 height=300><img src=""static/images/cards/back_of_red_moons.svg"" width=""175px"" height=""250px""></img></td>
  </tr>
  <tr height=200>
    <td width=300><img src=""static/images/keys/z.svg"" width=""35%"" height=""75%""></img></td>
    <td width=300><img src=""static/images/keys/m.svg"" width=""35%"" height=""75%""></img></td>
  </tr>
</table>
  ",77.0,1.0,,,,,,,,,,,,,,,,,,,,,,,,,,
56,0,,html-keyboard-response,56,194832,0.0-4.6-2.6,8uqnz0h9ie4,2022-09-19 17:09:09.480,5e8a1827052175000938eb91,1,18,48,39,52,23,male,,,"
  <table>
  <tr height=300>
    <td width=300 height=300><img src=""static/images/cards/back_of_red_moons.svg"" width=""175px"" height=""250px""></img></td>
    <td width=300 height=300><img src=""static/images/cards/8_of_red_moons.svg"" width=""175px"" height=""250px""></img></td>
  </tr>
  <tr height=200>
    <td width=300><img src=""static/images/keys/z.svg"" width=""35%"" height=""75%""></img></td>
    <td width=300><img src=""static/images/keys/m.svg"" width=""35%"" height=""75%""></img></td>
  </tr>
</table>
  ",,,,,,,,,,,,,,,,,,,,,,,,,,,,
57,0,,html-keyboard-response,57,196351,0.0-4.6-3.6,8uqnz0h9ie4,2022-09-19 17:09:09.480,5e8a1827052175000938eb91,1,18,48,39,52,23,male,,,"<p style=""font-size:50px"">You win!
+10 points this round!</p>",,,,,,,,,,,,,,,,,,,,,,,,,,,,
58,0,,html-keyboard-response,58,196878,0.0-4.6-4.6,8uqnz0h9ie4,2022-09-19 17:09:09.480,5e8a1827052175000938eb91,1,18,48,39,52,23,male,,,,,,1.0,learning,6.0,A,,red,,moons,,,,A,red,moons,,1.0,1.0,NA,right,594.0,8.0,1.0,1.0,,,
59,0,,html-keyboard-response,59,198384,0.0-4.7-0.7,8uqnz0h9ie4,2022-09-19 17:09:09.480,5e8a1827052175000938eb91,1,18,48,39,52,23,male,,,"<img src=""static/images/cards/stack_of_black_moons.svg"" width=""175px"" height=""250px""></img>",,,,,,,,,,,,,,,,,,,,,,,,,,,,
60,0,,html-keyboard-response,60,199364,0.0-4.7-1.7,8uqnz0h9ie4,2022-09-19 17:09:09.480,5e8a1827052175000938eb91,1,18,48,39,52,23,male,465.0,,"
  <table>
  <tr height=300>
    <td width=300 height=300><img src=""static/images/cards/back_of_black_moons.svg"" width=""175px"" height=""250px""></img></td>
    <td width=300 height=300><img src=""static/images/cards/back_of_black_moons.svg"" width=""175px"" height=""250px""></img></td>
  </tr>
  <tr height=200>
    <td width=300><img src=""static/images/keys/z.svg"" width=""35%"" height=""75%""></img></td>
    <td width=300></td>
  </tr>
</table>
  ",90.0,1.0,,,,,,,,,,,,,,,,,,,,,,,,,,
61,0,,html-keyboard-response,61,200874,0.0-4.7-2.7,8uqnz0h9ie4,2022-09-19 17:09:09.480,5e8a1827052175000938eb91,1,18,48,39,52,23,male,,,"
  <table>
  <tr height=300>
    <td width=300 height=300><img src=""static/images/cards/9_of_black_moons.svg"" width=""175px"" height=""250px""></img></td>
    <td width=300 height=300><img src=""static/images/cards/back_of_black_moons.svg"" width=""175px"" height=""250px""></img></td>
  </tr>
  <tr height=200>
    <td width=300><img src=""static/images/keys/z.svg"" width=""35%"" height=""75%""></img></td>
    <td width=300></td>
  </tr>
</table>
  ",,,,,,,,,,,,,,,,,,,,,,,,,,,,
62,0,,html-keyboard-response,62,202402,0.0-4.7-3.7,8uqnz0h9ie4,2022-09-19 17:09:09.480,5e8a1827052175000938eb91,1,18,48,39,52,23,male,,,"<p style=""font-size:50px"">You win!
+10 points this round!</p>",,,,,,,,,,,,,,,,,,,,,,,,,,,,
63,0,,html-keyboard-response,63,202919,0.0-4.7-4.7,8uqnz0h9ie4,2022-09-19 17:09:09.480,5e8a1827052175000938eb91,1,18,48,39,52,23,male,,,,,,1.0,learning,7.0,B,,black,,moons,,,,B,black,moons,,0.0,1.0,1,left,465.0,9.0,1.0,1.0,,,
64,0,,html-keyboard-response,64,204420,0.0-4.8-0.8,8uqnz0h9ie4,2022-09-19 17:09:09.480,5e8a1827052175000938eb91,1,18,48,39,52,23,male,,,"<img src=""static/images/cards/stack_of_red_stars.svg"" width=""175px"" height=""250px""></img>",,,,,,,,,,,,,,,,,,,,,,,,,,,,
65,0,,html-keyboard-response,65,205400,0.0-4.8-1.8,8uqnz0h9ie4,2022-09-19 17:09:09.480,5e8a1827052175000938eb91,1,18,48,39,52,23,male,468.0,,"
  <table>
  <tr height=300>
    <td width=300 height=300><img src=""static/images/cards/back_of_red_stars.svg"" width=""175px"" height=""250px""></img></td>
    <td width=300 height=300><img src=""static/images/cards/back_of_red_stars.svg"" width=""175px"" height=""250px""></img></td>
  </tr>
  <tr height=200>
    <td width=300><img src=""static/images/keys/z.svg"" width=""35%"" height=""75%""></img></td>
    <td width=300><img src=""static/images/keys/m.svg"" width=""35%"" height=""75%""></img></td>
  </tr>
</table>
  ",77.0,1.0,,,,,,,,,,,,,,,,,,,,,,,,,,
66,0,,html-keyboard-response,66,206904,0.0-4.8-2.8,8uqnz0h9ie4,2022-09-19 17:09:09.480,5e8a1827052175000938eb91,1,18,48,39,52,23,male,,,"
  <table>
  <tr height=300>
    <td width=300 height=300><img src=""static/images/cards/back_of_red_stars.svg"" width=""175px"" height=""250px""></img></td>
    <td width=300 height=300><img src=""static/images/cards/3_of_red_stars.svg"" width=""175px"" height=""250px""></img></td>
  </tr>
  <tr height=200>
    <td width=300><img src=""static/images/keys/z.svg"" width=""35%"" height=""75%""></img></td>
    <td width=300><img src=""static/images/keys/m.svg"" width=""35%"" height=""75%""></img></td>
  </tr>
</table>
  ",,,,,,,,,,,,,,,,,,,,,,,,,,,,
67,0,,html-keyboard-response,67,208427,0.0-4.8-3.8,8uqnz0h9ie4,2022-09-19 17:09:09.480,5e8a1827052175000938eb91,1,18,48,39,52,23,male,,,"<p style=""font-size:50px"">You Lose!
No points this round.</p>",,,,,,,,,,,,,,,,,,,,,,,,,,,,
68,0,,html-keyboard-response,68,208956,0.0-4.8-4.8,8uqnz0h9ie4,2022-09-19 17:09:09.480,5e8a1827052175000938eb91,1,18,48,39,52,23,male,,,,,,1.0,learning,8.0,C,,red,,stars,,,,C,red,stars,,1.0,0.0,NA,right,468.0,3.0,0.0,0.0,,,
69,0,,html-keyboard-response,69,210462,0.0-4.9-0.9,8uqnz0h9ie4,2022-09-19 17:09:09.480,5e8a1827052175000938eb91,1,18,48,39,52,23,male,,,"<img src=""static/images/cards/stack_of_black_stars.svg"" width=""175px"" height=""250px""></img>",,,,,,,,,,,,,,,,,,,,,,,,,,,,
70,0,,html-keyboard-response,70,211558,0.0-4.9-1.9,8uqnz0h9ie4,2022-09-19 17:09:09.480,5e8a1827052175000938eb91,1,18,48,39,52,23,male,580.0,,"
  <table>
  <tr height=300>
    <td width=300 height=300><img src=""static/images/cards/back_of_black_stars.svg"" width=""175px"" height=""250px""></img></td>
    <td width=300 height=300><img src=""static/images/cards/back_of_black_stars.svg"" width=""175px"" height=""250px""></img></td>
  </tr>
  <tr height=200>
    <td width=300></td>
    <td width=300><img src=""static/images/keys/m.svg"" width=""35%"" height=""75%""></img></td>
  </tr>
</table>
  ",77.0,1.0,,,,,,,,,,,,,,,,,,,,,,,,,,
71,0,,html-keyboard-response,71,213060,0.0-4.9-2.9,8uqnz0h9ie4,2022-09-19 17:09:09.480,5e8a1827052175000938eb91,1,18,48,39,52,23,male,,,"
  <table>
  <tr height=300>
    <td width=300 height=300><img src=""static/images/cards/back_of_black_stars.svg"" width=""175px"" height=""250px""></img></td>
    <td width=300 height=300><img src=""static/images/cards/8_of_black_stars.svg"" width=""175px"" height=""250px""></img></td>
  </tr>
  <tr height=200>
    <td width=300></td>
    <td width=300><img src=""static/images/keys/m.svg"" width=""35%"" height=""75%""></img></td>
  </tr>
</table>
  ",,,,,,,,,,,,,,,,,,,,,,,,,,,,
72,0,,html-keyboard-response,72,214583,0.0-4.9-3.9,8uqnz0h9ie4,2022-09-19 17:09:09.480,5e8a1827052175000938eb91,1,18,48,39,52,23,male,,,"<p style=""font-size:50px"">You Lose!
No points this round.</p>",,,,,,,,,,,,,,,,,,,,,,,,,,,,
73,0,,html-keyboard-response,73,215114,0.0-4.9-4.9,8uqnz0h9ie4,2022-09-19 17:09:09.480,5e8a1827052175000938eb91,1,18,48,39,52,23,male,,,,,,1.0,learning,9.0,D,,black,,stars,,,,D,black,stars,,0.0,0.0,0,right,580.0,8.0,1.0,0.0,,,
74,0,,html-keyboard-response,74,216619,0.0-4.10-0.10,8uqnz0h9ie4,2022-09-19 17:09:09.480,5e8a1827052175000938eb91,1,18,48,39,52,23,male,,,"<img src=""static/images/cards/stack_of_red_bolts.svg"" width=""175px"" height=""250px""></img>",,,,,,,,,,,,,,,,,,,,,,,,,,,,
75,0,,html-keyboard-response,75,217999,0.0-4.10-1.10,8uqnz0h9ie4,2022-09-19 17:09:09.480,5e8a1827052175000938eb91,1,18,48,39,52,23,male,866.0,,"
  <table>
  <tr height=300>
    <td width=300 height=300><img src=""static/images/cards/back_of_red_bolts.svg"" width=""175px"" height=""250px""></img></td>
    <td width=300 height=300><img src=""static/images/cards/back_of_red_bolts.svg"" width=""175px"" height=""250px""></img></td>
  </tr>
  <tr height=200>
    <td width=300><img src=""static/images/keys/z.svg"" width=""35%"" height=""75%""></img></td>
    <td width=300><img src=""static/images/keys/m.svg"" width=""35%"" height=""75%""></img></td>
  </tr>
</table>
  ",90.0,1.0,,,,,,,,,,,,,,,,,,,,,,,,,,
76,0,,html-keyboard-response,76,219513,0.0-4.10-2.10,8uqnz0h9ie4,2022-09-19 17:09:09.480,5e8a1827052175000938eb91,1,18,48,39,52,23,male,,,"
  <table>
  <tr height=300>
    <td width=300 height=300><img src=""static/images/cards/3_of_red_bolts.svg"" width=""175px"" height=""250px""></img></td>
    <td width=300 height=300><img src=""static/images/cards/back_of_red_bolts.svg"" width=""175px"" height=""250px""></img></td>
  </tr>
  <tr height=200>
    <td width=300><img src=""static/images/keys/z.svg"" width=""35%"" height=""75%""></img></td>
    <td width=300><img src=""static/images/keys/m.svg"" width=""35%"" height=""75%""></img></td>
  </tr>
</table>
  ",,,,,,,,,,,,,,,,,,,,,,,,,,,,
77,0,,html-keyboard-response,77,221037,0.0-4.10-3.10,8uqnz0h9ie4,2022-09-19 17:09:09.480,5e8a1827052175000938eb91,1,18,48,39,52,23,male,,,"<p style=""font-size:50px"">You win!
+10 points this round!</p>",,,,,,,,,,,,,,,,,,,,,,,,,,,,
78,0,,html-keyboard-response,78,221564,0.0-4.10-4.10,8uqnz0h9ie4,2022-09-19 17:09:09.480,5e8a1827052175000938eb91,1,18,48,39,52,23,male,,,,,,1.0,learning,10.0,Xc,,red,,bolts,,,,Xc,red,bolts,,1.0,0.0,NA,left,866.0,3.0,0.0,1.0,,,
79,0,,html-keyboard-response,79,223075,0.0-4.11-0.11,8uqnz0h9ie4,2022-09-19 17:09:09.480,5e8a1827052175000938eb91,1,18,48,39,52,23,male,,,"<img src=""static/images/cards/stack_of_black_bolts.svg"" width=""175px"" height=""250px""></img>",,,,,,,,,,,,,,,,,,,,,,,,,,,,
80,0,,html-keyboard-response,80,224088,0.0-4.11-1.11,8uqnz0h9ie4,2022-09-19 17:09:09.480,5e8a1827052175000938eb91,1,18,48,39,52,23,male,498.0,,"
  <table>
  <tr height=300>
    <td width=300 height=300><img src=""static/images/cards/back_of_black_bolts.svg"" width=""175px"" height=""250px""></img></td>
    <td width=300 height=300><img src=""static/images/cards/back_of_black_bolts.svg"" width=""175px"" height=""250px""></img></td>
  </tr>
  <tr height=200>
    <td width=300></td>
    <td width=300><img src=""static/images/keys/m.svg"" width=""35%"" height=""75%""></img></td>
  </tr>
</table>
  ",77.0,1.0,,,,,,,,,,,,,,,,,,,,,,,,,,
81,0,,html-keyboard-response,81,225594,0.0-4.11-2.11,8uqnz0h9ie4,2022-09-19 17:09:09.480,5e8a1827052175000938eb91,1,18,48,39,52,23,male,,,"
  <table>
  <tr height=300>
    <td width=300 height=300><img src=""static/images/cards/back_of_black_bolts.svg"" width=""175px"" height=""250px""></img></td>
    <td width=300 height=300><img src=""static/images/cards/3_of_black_bolts.svg"" width=""175px"" height=""250px""></img></td>
  </tr>
  <tr height=200>
    <td width=300></td>
    <td width=300><img src=""static/images/keys/m.svg"" width=""35%"" height=""75%""></img></td>
  </tr>
</table>
  ",,,,,,,,,,,,,,,,,,,,,,,,,,,,
82,0,,html-keyboard-response,82,227112,0.0-4.11-3.11,8uqnz0h9ie4,2022-09-19 17:09:09.480,5e8a1827052175000938eb91,1,18,48,39,52,23,male,,,"<p style=""font-size:50px"">You win!
+10 points this round!</p>",,,,,,,,,,,,,,,,,,,,,,,,,,,,
83,0,,html-keyboard-response,83,227640,0.0-4.11-4.11,8uqnz0h9ie4,2022-09-19 17:09:09.480,5e8a1827052175000938eb91,1,18,48,39,52,23,male,,,,,,1.0,learning,11.0,Xnc,,black,,bolts,,,,Xnc,black,bolts,,0.0,0.0,0,right,498.0,3.0,0.0,1.0,,,
84,0,,html-keyboard-response,84,229149,0.0-4.12-0.12,8uqnz0h9ie4,2022-09-19 17:09:09.480,5e8a1827052175000938eb91,1,18,48,39,52,23,male,,,"<img src=""static/images/cards/stack_of_red_moons.svg"" width=""175px"" height=""250px""></img>",,,,,,,,,,,,,,,,,,,,,,,,,,,,
85,0,,html-keyboard-response,85,230178,0.0-4.12-1.12,8uqnz0h9ie4,2022-09-19 17:09:09.480,5e8a1827052175000938eb91,1,18,48,39,52,23,male,515.0,,"
  <table>
  <tr height=300>
    <td width=300 height=300><img src=""static/images/cards/back_of_red_moons.svg"" width=""175px"" height=""250px""></img></td>
    <td width=300 height=300><img src=""static/images/cards/back_of_red_moons.svg"" width=""175px"" height=""250px""></img></td>
  </tr>
  <tr height=200>
    <td width=300><img src=""static/images/keys/z.svg"" width=""35%"" height=""75%""></img></td>
    <td width=300><img src=""static/images/keys/m.svg"" width=""35%"" height=""75%""></img></td>
  </tr>
</table>
  ",77.0,1.0,,,,,,,,,,,,,,,,,,,,,,,,,,
86,0,,html-keyboard-response,86,231695,0.0-4.12-2.12,8uqnz0h9ie4,2022-09-19 17:09:09.480,5e8a1827052175000938eb91,1,18,48,39,52,23,male,,,"
  <table>
  <tr height=300>
    <td width=300 height=300><img src=""static/images/cards/back_of_red_moons.svg"" width=""175px"" height=""250px""></img></td>
    <td width=300 height=300><img src=""static/images/cards/8_of_red_moons.svg"" width=""175px"" height=""250px""></img></td>
  </tr>
  <tr height=200>
    <td width=300><img src=""static/images/keys/z.svg"" width=""35%"" height=""75%""></img></td>
    <td width=300><img src=""static/images/keys/m.svg"" width=""35%"" height=""75%""></img></td>
  </tr>
</table>
  ",,,,,,,,,,,,,,,,,,,,,,,,,,,,
87,0,,html-keyboard-response,87,233218,0.0-4.12-3.12,8uqnz0h9ie4,2022-09-19 17:09:09.480,5e8a1827052175000938eb91,1,18,48,39,52,23,male,,,"<p style=""font-size:50px"">You win!
+10 points this round!</p>",,,,,,,,,,,,,,,,,,,,,,,,,,,,
88,0,,html-keyboard-response,88,233735,0.0-4.12-4.12,8uqnz0h9ie4,2022-09-19 17:09:09.480,5e8a1827052175000938eb91,1,18,48,39,52,23,male,,,,,,1.0,learning,12.0,A,,red,,moons,,,,A,red,moons,,1.0,1.0,NA,right,515.0,8.0,1.0,1.0,,,
89,0,,html-keyboard-response,89,235245,0.0-4.13-0.13,8uqnz0h9ie4,2022-09-19 17:09:09.480,5e8a1827052175000938eb91,1,18,48,39,52,23,male,,,"<img src=""static/images/cards/stack_of_black_moons.svg"" width=""175px"" height=""250px""></img>",,,,,,,,,,,,,,,,,,,,,,,,,,,,
90,0,,html-keyboard-response,90,236171,0.0-4.13-1.13,8uqnz0h9ie4,2022-09-19 17:09:09.480,5e8a1827052175000938eb91,1,18,48,39,52,23,male,412.0,,"
  <table>
  <tr height=300>
    <td width=300 height=300><img src=""static/images/cards/back_of_black_moons.svg"" width=""175px"" height=""250px""></img></td>
    <td width=300 height=300><img src=""static/images/cards/back_of_black_moons.svg"" width=""175px"" height=""250px""></img></td>
  </tr>
  <tr height=200>
    <td width=300><img src=""static/images/keys/z.svg"" width=""35%"" height=""75%""></img></td>
    <td width=300></td>
  </tr>
</table>
  ",90.0,1.0,,,,,,,,,,,,,,,,,,,,,,,,,,
91,0,,html-keyboard-response,91,237685,0.0-4.13-2.13,8uqnz0h9ie4,2022-09-19 17:09:09.480,5e8a1827052175000938eb91,1,18,48,39,52,23,male,,,"
  <table>
  <tr height=300>
    <td width=300 height=300><img src=""static/images/cards/6_of_black_moons.svg"" width=""175px"" height=""250px""></img></td>
    <td width=300 height=300><img src=""static/images/cards/back_of_black_moons.svg"" width=""175px"" height=""250px""></img></td>
  </tr>
  <tr height=200>
    <td width=300><img src=""static/images/keys/z.svg"" width=""35%"" height=""75%""></img></td>
    <td width=300></td>
  </tr>
</table>
  ",,,,,,,,,,,,,,,,,,,,,,,,,,,,
92,0,,html-keyboard-response,92,239210,0.0-4.13-3.13,8uqnz0h9ie4,2022-09-19 17:09:09.480,5e8a1827052175000938eb91,1,18,48,39,52,23,male,,,"<p style=""font-size:50px"">You win!
+10 points this round!</p>",,,,,,,,,,,,,,,,,,,,,,,,,,,,
93,0,,html-keyboard-response,93,239741,0.0-4.13-4.13,8uqnz0h9ie4,2022-09-19 17:09:09.480,5e8a1827052175000938eb91,1,18,48,39,52,23,male,,,,,,1.0,learning,13.0,B,,black,,moons,,,,B,black,moons,,0.0,1.0,1,left,412.0,6.0,1.0,1.0,,,
94,0,,html-keyboard-response,94,241250,0.0-4.14-0.14,8uqnz0h9ie4,2022-09-19 17:09:09.480,5e8a1827052175000938eb91,1,18,48,39,52,23,male,,,"<img src=""static/images/cards/stack_of_red_stars.svg"" width=""175px"" height=""250px""></img>",,,,,,,,,,,,,,,,,,,,,,,,,,,,
95,0,,html-keyboard-response,95,242367,0.0-4.14-1.14,8uqnz0h9ie4,2022-09-19 17:09:09.480,5e8a1827052175000938eb91,1,18,48,39,52,23,male,600.0,,"
  <table>
  <tr height=300>
    <td width=300 height=300><img src=""static/images/cards/back_of_red_stars.svg"" width=""175px"" height=""250px""></img></td>
    <td width=300 height=300><img src=""static/images/cards/back_of_red_stars.svg"" width=""175px"" height=""250px""></img></td>
  </tr>
  <tr height=200>
    <td width=300><img src=""static/images/keys/z.svg"" width=""35%"" height=""75%""></img></td>
    <td width=300><img src=""static/images/keys/m.svg"" width=""35%"" height=""75%""></img></td>
  </tr>
</table>
  ",77.0,1.0,,,,,,,,,,,,,,,,,,,,,,,,,,
96,0,,html-keyboard-response,96,243876,0.0-4.14-2.14,8uqnz0h9ie4,2022-09-19 17:09:09.480,5e8a1827052175000938eb91,1,18,48,39,52,23,male,,,"
  <table>
  <tr height=300>
    <td width=300 height=300><img src=""static/images/cards/back_of_red_stars.svg"" width=""175px"" height=""250px""></img></td>
    <td width=300 height=300><img src=""static/images/cards/8_of_red_stars.svg"" width=""175px"" height=""250px""></img></td>
  </tr>
  <tr height=200>
    <td width=300><img src=""static/images/keys/z.svg"" width=""35%"" height=""75%""></img></td>
    <td width=300><img src=""static/images/keys/m.svg"" width=""35%"" height=""75%""></img></td>
  </tr>
</table>
  ",,,,,,,,,,,,,,,,,,,,,,,,,,,,
97,0,,html-keyboard-response,97,245401,0.0-4.14-3.14,8uqnz0h9ie4,2022-09-19 17:09:09.480,5e8a1827052175000938eb91,1,18,48,39,52,23,male,,,"<p style=""font-size:50px"">You Lose!
No points this round.</p>",,,,,,,,,,,,,,,,,,,,,,,,,,,,
98,0,,html-keyboard-response,98,245929,0.0-4.14-4.14,8uqnz0h9ie4,2022-09-19 17:09:09.480,5e8a1827052175000938eb91,1,18,48,39,52,23,male,,,,,,1.0,learning,14.0,C,,red,,stars,,,,C,red,stars,,1.0,0.0,NA,right,600.0,8.0,1.0,0.0,,,
99,0,,html-keyboard-response,99,247440,0.0-4.15-0.15,8uqnz0h9ie4,2022-09-19 17:09:09.480,5e8a1827052175000938eb91,1,18,48,39,52,23,male,,,"<img src=""static/images/cards/stack_of_black_stars.svg"" width=""175px"" height=""250px""></img>",,,,,,,,,,,,,,,,,,,,,,,,,,,,
100,0,,html-keyboard-response,100,248240,0.0-4.15-1.15,8uqnz0h9ie4,2022-09-19 17:09:09.480,5e8a1827052175000938eb91,1,18,48,39,52,23,male,286.0,,"
  <table>
  <tr height=300>
    <td width=300 height=300><img src=""static/images/cards/back_of_black_stars.svg"" width=""175px"" height=""250px""></img></td>
    <td width=300 height=300><img src=""static/images/cards/back_of_black_stars.svg"" width=""175px"" height=""250px""></img></td>
  </tr>
  <tr height=200>
    <td width=300><img src=""static/images/keys/z.svg"" width=""35%"" height=""75%""></img></td>
    <td width=300></td>
  </tr>
</table>
  ",90.0,1.0,,,,,,,,,,,,,,,,,,,,,,,,,,
101,0,,html-keyboard-response,101,249744,0.0-4.15-2.15,8uqnz0h9ie4,2022-09-19 17:09:09.480,5e8a1827052175000938eb91,1,18,48,39,52,23,male,,,"
  <table>
  <tr height=300>
    <td width=300 height=300><img src=""static/images/cards/1_of_black_stars.svg"" width=""175px"" height=""250px""></img></td>
    <td width=300 height=300><img src=""static/images/cards/back_of_black_stars.svg"" width=""175px"" height=""250px""></img></td>
  </tr>
  <tr height=200>
    <td width=300><img src=""static/images/keys/z.svg"" width=""35%"" height=""75%""></img></td>
    <td width=300></td>
  </tr>
</table>
  ",,,,,,,,,,,,,,,,,,,,,,,,,,,,
102,0,,html-keyboard-response,102,251270,0.0-4.15-3.15,8uqnz0h9ie4,2022-09-19 17:09:09.480,5e8a1827052175000938eb91,1,18,48,39,52,23,male,,,"<p style=""font-size:50px"">You Lose!
No points this round.</p>",,,,,,,,,,,,,,,,,,,,,,,,,,,,
103,0,,html-keyboard-response,103,251798,0.0-4.15-4.15,8uqnz0h9ie4,2022-09-19 17:09:09.480,5e8a1827052175000938eb91,1,18,48,39,52,23,male,,,,,,1.0,learning,15.0,D,,black,,stars,,,,D,black,stars,,0.0,0.0,1,left,286.0,1.0,0.0,0.0,,,
104,0,,html-keyboard-response,104,253306,0.0-4.16-0.16,8uqnz0h9ie4,2022-09-19 17:09:09.480,5e8a1827052175000938eb91,1,18,48,39,52,23,male,,,"<img src=""static/images/cards/stack_of_red_bolts.svg"" width=""175px"" height=""250px""></img>",,,,,,,,,,,,,,,,,,,,,,,,,,,,
105,0,,html-keyboard-response,105,254368,0.0-4.16-1.16,8uqnz0h9ie4,2022-09-19 17:09:09.480,5e8a1827052175000938eb91,1,18,48,39,52,23,male,544.0,,"
  <table>
  <tr height=300>
    <td width=300 height=300><img src=""static/images/cards/back_of_red_bolts.svg"" width=""175px"" height=""250px""></img></td>
    <td width=300 height=300><img src=""static/images/cards/back_of_red_bolts.svg"" width=""175px"" height=""250px""></img></td>
  </tr>
  <tr height=200>
    <td width=300><img src=""static/images/keys/z.svg"" width=""35%"" height=""75%""></img></td>
    <td width=300><img src=""static/images/keys/m.svg"" width=""35%"" height=""75%""></img></td>
  </tr>
</table>
  ",77.0,1.0,,,,,,,,,,,,,,,,,,,,,,,,,,
106,0,,html-keyboard-response,106,255873,0.0-4.16-2.16,8uqnz0h9ie4,2022-09-19 17:09:09.480,5e8a1827052175000938eb91,1,18,48,39,52,23,male,,,"
  <table>
  <tr height=300>
    <td width=300 height=300><img src=""static/images/cards/back_of_red_bolts.svg"" width=""175px"" height=""250px""></img></td>
    <td width=300 height=300><img src=""static/images/cards/2_of_red_bolts.svg"" width=""175px"" height=""250px""></img></td>
  </tr>
  <tr height=200>
    <td width=300><img src=""static/images/keys/z.svg"" width=""35%"" height=""75%""></img></td>
    <td width=300><img src=""static/images/keys/m.svg"" width=""35%"" height=""75%""></img></td>
  </tr>
</table>
  ",,,,,,,,,,,,,,,,,,,,,,,,,,,,
107,0,,html-keyboard-response,107,257398,0.0-4.16-3.16,8uqnz0h9ie4,2022-09-19 17:09:09.480,5e8a1827052175000938eb91,1,18,48,39,52,23,male,,,"<p style=""font-size:50px"">You win!
+10 points this round!</p>",,,,,,,,,,,,,,,,,,,,,,,,,,,,
108,0,,html-keyboard-response,108,257926,0.0-4.16-4.16,8uqnz0h9ie4,2022-09-19 17:09:09.480,5e8a1827052175000938eb91,1,18,48,39,52,23,male,,,,,,1.0,learning,16.0,Xc,,red,,bolts,,,,Xc,red,bolts,,1.0,0.0,NA,right,544.0,2.0,0.0,1.0,,,
109,0,,html-keyboard-response,109,259438,0.0-4.17-0.17,8uqnz0h9ie4,2022-09-19 17:09:09.480,5e8a1827052175000938eb91,1,18,48,39,52,23,male,,,"<img src=""static/images/cards/stack_of_black_bolts.svg"" width=""175px"" height=""250px""></img>",,,,,,,,,,,,,,,,,,,,,,,,,,,,
110,0,,html-keyboard-response,110,260445,0.0-4.17-1.17,8uqnz0h9ie4,2022-09-19 17:09:09.480,5e8a1827052175000938eb91,1,18,48,39,52,23,male,494.0,,"
  <table>
  <tr height=300>
    <td width=300 height=300><img src=""static/images/cards/back_of_black_bolts.svg"" width=""175px"" height=""250px""></img></td>
    <td width=300 height=300><img src=""static/images/cards/back_of_black_bolts.svg"" width=""175px"" height=""250px""></img></td>
  </tr>
  <tr height=200>
    <td width=300></td>
    <td width=300><img src=""static/images/keys/m.svg"" width=""35%"" height=""75%""></img></td>
  </tr>
</table>
  ",77.0,1.0,,,,,,,,,,,,,,,,,,,,,,,,,,
111,0,,html-keyboard-response,111,261955,0.0-4.17-2.17,8uqnz0h9ie4,2022-09-19 17:09:09.480,5e8a1827052175000938eb91,1,18,48,39,52,23,male,,,"
  <table>
  <tr height=300>
    <td width=300 height=300><img src=""static/images/cards/back_of_black_bolts.svg"" width=""175px"" height=""250px""></img></td>
    <td width=300 height=300><img src=""static/images/cards/4_of_black_bolts.svg"" width=""175px"" height=""250px""></img></td>
  </tr>
  <tr height=200>
    <td width=300></td>
    <td width=300><img src=""static/images/keys/m.svg"" width=""35%"" height=""75%""></img></td>
  </tr>
</table>
  ",,,,,,,,,,,,,,,,,,,,,,,,,,,,
112,0,,html-keyboard-response,112,263475,0.0-4.17-3.17,8uqnz0h9ie4,2022-09-19 17:09:09.480,5e8a1827052175000938eb91,1,18,48,39,52,23,male,,,"<p style=""font-size:50px"">You win!
+10 points this round!</p>",,,,,,,,,,,,,,,,,,,,,,,,,,,,
113,0,,html-keyboard-response,113,263991,0.0-4.17-4.17,8uqnz0h9ie4,2022-09-19 17:09:09.480,5e8a1827052175000938eb91,1,18,48,39,52,23,male,,,,,,1.0,learning,17.0,Xnc,,black,,bolts,,,,Xnc,black,bolts,,0.0,0.0,0,right,494.0,4.0,0.0,1.0,,,
114,0,,html-keyboard-response,114,265493,0.0-4.18-0.18,8uqnz0h9ie4,2022-09-19 17:09:09.480,5e8a1827052175000938eb91,1,18,48,39,52,23,male,,,"<img src=""static/images/cards/stack_of_red_moons.svg"" width=""175px"" height=""250px""></img>",,,,,,,,,,,,,,,,,,,,,,,,,,,,
115,0,,html-keyboard-response,115,266454,0.0-4.18-1.18,8uqnz0h9ie4,2022-09-19 17:09:09.480,5e8a1827052175000938eb91,1,18,48,39,52,23,male,446.0,,"
  <table>
  <tr height=300>
    <td width=300 height=300><img src=""static/images/cards/back_of_red_moons.svg"" width=""175px"" height=""250px""></img></td>
    <td width=300 height=300><img src=""static/images/cards/back_of_red_moons.svg"" width=""175px"" height=""250px""></img></td>
  </tr>
  <tr height=200>
    <td width=300><img src=""static/images/keys/z.svg"" width=""35%"" height=""75%""></img></td>
    <td width=300><img src=""static/images/keys/m.svg"" width=""35%"" height=""75%""></img></td>
  </tr>
</table>
  ",77.0,1.0,,,,,,,,,,,,,,,,,,,,,,,,,,
116,0,,html-keyboard-response,116,267963,0.0-4.18-2.18,8uqnz0h9ie4,2022-09-19 17:09:09.480,5e8a1827052175000938eb91,1,18,48,39,52,23,male,,,"
  <table>
  <tr height=300>
    <td width=300 height=300><img src=""static/images/cards/back_of_red_moons.svg"" width=""175px"" height=""250px""></img></td>
    <td width=300 height=300><img src=""static/images/cards/3_of_red_moons.svg"" width=""175px"" height=""250px""></img></td>
  </tr>
  <tr height=200>
    <td width=300><img src=""static/images/keys/z.svg"" width=""35%"" height=""75%""></img></td>
    <td width=300><img src=""static/images/keys/m.svg"" width=""35%"" height=""75%""></img></td>
  </tr>
</table>
  ",,,,,,,,,,,,,,,,,,,,,,,,,,,,
117,0,,html-keyboard-response,117,269489,0.0-4.18-3.18,8uqnz0h9ie4,2022-09-19 17:09:09.480,5e8a1827052175000938eb91,1,18,48,39,52,23,male,,,"<p style=""font-size:50px"">You Lose!
No points this round.</p>",,,,,,,,,,,,,,,,,,,,,,,,,,,,
118,0,,html-keyboard-response,118,270017,0.0-4.18-4.18,8uqnz0h9ie4,2022-09-19 17:09:09.480,5e8a1827052175000938eb91,1,18,48,39,52,23,male,,,,,,1.0,learning,18.0,A,,red,,moons,,,,A,red,moons,,1.0,1.0,NA,right,446.0,3.0,0.0,0.0,,,
119,0,,html-keyboard-response,119,271525,0.0-4.19-0.19,8uqnz0h9ie4,2022-09-19 17:09:09.480,5e8a1827052175000938eb91,1,18,48,39,52,23,male,,,"<img src=""static/images/cards/stack_of_black_moons.svg"" width=""175px"" height=""250px""></img>",,,,,,,,,,,,,,,,,,,,,,,,,,,,
120,0,,html-keyboard-response,120,272539,0.0-4.19-1.19,8uqnz0h9ie4,2022-09-19 17:09:09.480,5e8a1827052175000938eb91,1,18,48,39,52,23,male,498.0,,"
  <table>
  <tr height=300>
    <td width=300 height=300><img src=""static/images/cards/back_of_black_moons.svg"" width=""175px"" height=""250px""></img></td>
    <td width=300 height=300><img src=""static/images/cards/back_of_black_moons.svg"" width=""175px"" height=""250px""></img></td>
  </tr>
  <tr height=200>
    <td width=300></td>
    <td width=300><img src=""static/images/keys/m.svg"" width=""35%"" height=""75%""></img></td>
  </tr>
</table>
  ",77.0,1.0,,,,,,,,,,,,,,,,,,,,,,,,,,
121,0,,html-keyboard-response,121,274058,0.0-4.19-2.19,8uqnz0h9ie4,2022-09-19 17:09:09.480,5e8a1827052175000938eb91,1,18,48,39,52,23,male,,,"
  <table>
  <tr height=300>
    <td width=300 height=300><img src=""static/images/cards/back_of_black_moons.svg"" width=""175px"" height=""250px""></img></td>
    <td width=300 height=300><img src=""static/images/cards/4_of_black_moons.svg"" width=""175px"" height=""250px""></img></td>
  </tr>
  <tr height=200>
    <td width=300></td>
    <td width=300><img src=""static/images/keys/m.svg"" width=""35%"" height=""75%""></img></td>
  </tr>
</table>
  ",,,,,,,,,,,,,,,,,,,,,,,,,,,,
122,0,,html-keyboard-response,122,275583,0.0-4.19-3.19,8uqnz0h9ie4,2022-09-19 17:09:09.480,5e8a1827052175000938eb91,1,18,48,39,52,23,male,,,"<p style=""font-size:50px"">You Lose!
No points this round.</p>",,,,,,,,,,,,,,,,,,,,,,,,,,,,
123,0,,html-keyboard-response,123,276110,0.0-4.19-4.19,8uqnz0h9ie4,2022-09-19 17:09:09.480,5e8a1827052175000938eb91,1,18,48,39,52,23,male,,,,,,1.0,learning,19.0,B,,black,,moons,,,,B,black,moons,,0.0,1.0,0,right,498.0,4.0,0.0,0.0,,,
124,0,,html-keyboard-response,124,277617,0.0-4.20-0.20,8uqnz0h9ie4,2022-09-19 17:09:09.480,5e8a1827052175000938eb91,1,18,48,39,52,23,male,,,"<img src=""static/images/cards/stack_of_red_stars.svg"" width=""175px"" height=""250px""></img>",,,,,,,,,,,,,,,,,,,,,,,,,,,,
125,0,,html-keyboard-response,125,278690,0.0-4.20-1.20,8uqnz0h9ie4,2022-09-19 17:09:09.480,5e8a1827052175000938eb91,1,18,48,39,52,23,male,561.0,,"
  <table>
  <tr height=300>
    <td width=300 height=300><img src=""static/images/cards/back_of_red_stars.svg"" width=""175px"" height=""250px""></img></td>
    <td width=300 height=300><img src=""static/images/cards/back_of_red_stars.svg"" width=""175px"" height=""250px""></img></td>
  </tr>
  <tr height=200>
    <td width=300><img src=""static/images/keys/z.svg"" width=""35%"" height=""75%""></img></td>
    <td width=300><img src=""static/images/keys/m.svg"" width=""35%"" height=""75%""></img></td>
  </tr>
</table>
  ",90.0,1.0,,,,,,,,,,,,,,,,,,,,,,,,,,
126,0,,html-keyboard-response,126,280193,0.0-4.20-2.20,8uqnz0h9ie4,2022-09-19 17:09:09.480,5e8a1827052175000938eb91,1,18,48,39,52,23,male,,,"
  <table>
  <tr height=300>
    <td width=300 height=300><img src=""static/images/cards/9_of_red_stars.svg"" width=""175px"" height=""250px""></img></td>
    <td width=300 height=300><img src=""static/images/cards/back_of_red_stars.svg"" width=""175px"" height=""250px""></img></td>
  </tr>
  <tr height=200>
    <td width=300><img src=""static/images/keys/z.svg"" width=""35%"" height=""75%""></img></td>
    <td width=300><img src=""static/images/keys/m.svg"" width=""35%"" height=""75%""></img></td>
  </tr>
</table>
  ",,,,,,,,,,,,,,,,,,,,,,,,,,,,
127,0,,html-keyboard-response,127,281736,0.0-4.20-3.20,8uqnz0h9ie4,2022-09-19 17:09:09.480,5e8a1827052175000938eb91,1,18,48,39,52,23,male,,,"<p style=""font-size:50px"">You Lose!
No points this round.</p>",,,,,,,,,,,,,,,,,,,,,,,,,,,,
128,0,,html-keyboard-response,128,282265,0.0-4.20-4.20,8uqnz0h9ie4,2022-09-19 17:09:09.480,5e8a1827052175000938eb91,1,18,48,39,52,23,male,,,,,,1.0,learning,20.0,C,,red,,stars,,,,C,red,stars,,1.0,0.0,NA,left,561.0,9.0,1.0,0.0,,,
129,0,,html-keyboard-response,129,283781,0.0-4.21-0.21,8uqnz0h9ie4,2022-09-19 17:09:09.480,5e8a1827052175000938eb91,1,18,48,39,52,23,male,,,"<img src=""static/images/cards/stack_of_black_stars.svg"" width=""175px"" height=""250px""></img>",,,,,,,,,,,,,,,,,,,,,,,,,,,,
130,0,,html-keyboard-response,130,284784,0.0-4.21-1.21,8uqnz0h9ie4,2022-09-19 17:09:09.480,5e8a1827052175000938eb91,1,18,48,39,52,23,male,493.0,,"
  <table>
  <tr height=300>
    <td width=300 height=300><img src=""static/images/cards/back_of_black_stars.svg"" width=""175px"" height=""250px""></img></td>
    <td width=300 height=300><img src=""static/images/cards/back_of_black_stars.svg"" width=""175px"" height=""250px""></img></td>
  </tr>
  <tr height=200>
    <td width=300></td>
    <td width=300><img src=""static/images/keys/m.svg"" width=""35%"" height=""75%""></img></td>
  </tr>
</table>
  ",77.0,1.0,,,,,,,,,,,,,,,,,,,,,,,,,,
131,0,,html-keyboard-response,131,286300,0.0-4.21-2.21,8uqnz0h9ie4,2022-09-19 17:09:09.480,5e8a1827052175000938eb91,1,18,48,39,52,23,male,,,"
  <table>
  <tr height=300>
    <td width=300 height=300><img src=""static/images/cards/back_of_black_stars.svg"" width=""175px"" height=""250px""></img></td>
    <td width=300 height=300><img src=""static/images/cards/3_of_black_stars.svg"" width=""175px"" height=""250px""></img></td>
  </tr>
  <tr height=200>
    <td width=300></td>
    <td width=300><img src=""static/images/keys/m.svg"" width=""35%"" height=""75%""></img></td>
  </tr>
</table>
  ",,,,,,,,,,,,,,,,,,,,,,,,,,,,
132,0,,html-keyboard-response,132,287820,0.0-4.21-3.21,8uqnz0h9ie4,2022-09-19 17:09:09.480,5e8a1827052175000938eb91,1,18,48,39,52,23,male,,,"<p style=""font-size:50px"">You win!
+10 points this round!</p>",,,,,,,,,,,,,,,,,,,,,,,,,,,,
133,0,,html-keyboard-response,133,288349,0.0-4.21-4.21,8uqnz0h9ie4,2022-09-19 17:09:09.480,5e8a1827052175000938eb91,1,18,48,39,52,23,male,,,,,,1.0,learning,21.0,D,,black,,stars,,,,D,black,stars,,0.0,0.0,0,right,493.0,3.0,0.0,1.0,,,
134,0,,html-keyboard-response,134,289865,0.0-4.22-0.22,8uqnz0h9ie4,2022-09-19 17:09:09.480,5e8a1827052175000938eb91,1,18,48,39,52,23,male,,,"<img src=""static/images/cards/stack_of_red_bolts.svg"" width=""175px"" height=""250px""></img>",,,,,,,,,,,,,,,,,,,,,,,,,,,,
135,0,,html-keyboard-response,135,290932,0.0-4.22-1.22,8uqnz0h9ie4,2022-09-19 17:09:09.480,5e8a1827052175000938eb91,1,18,48,39,52,23,male,554.0,,"
  <table>
  <tr height=300>
    <td width=300 height=300><img src=""static/images/cards/back_of_red_bolts.svg"" width=""175px"" height=""250px""></img></td>
    <td width=300 height=300><img src=""static/images/cards/back_of_red_bolts.svg"" width=""175px"" height=""250px""></img></td>
  </tr>
  <tr height=200>
    <td width=300><img src=""static/images/keys/z.svg"" width=""35%"" height=""75%""></img></td>
    <td width=300><img src=""static/images/keys/m.svg"" width=""35%"" height=""75%""></img></td>
  </tr>
</table>
  ",77.0,1.0,,,,,,,,,,,,,,,,,,,,,,,,,,
136,0,,html-keyboard-response,136,292443,0.0-4.22-2.22,8uqnz0h9ie4,2022-09-19 17:09:09.480,5e8a1827052175000938eb91,1,18,48,39,52,23,male,,,"
  <table>
  <tr height=300>
    <td width=300 height=300><img src=""static/images/cards/back_of_red_bolts.svg"" width=""175px"" height=""250px""></img></td>
    <td width=300 height=300><img src=""static/images/cards/9_of_red_bolts.svg"" width=""175px"" height=""250px""></img></td>
  </tr>
  <tr height=200>
    <td width=300><img src=""static/images/keys/z.svg"" width=""35%"" height=""75%""></img></td>
    <td width=300><img src=""static/images/keys/m.svg"" width=""35%"" height=""75%""></img></td>
  </tr>
</table>
  ",,,,,,,,,,,,,,,,,,,,,,,,,,,,
137,0,,html-keyboard-response,137,293968,0.0-4.22-3.22,8uqnz0h9ie4,2022-09-19 17:09:09.480,5e8a1827052175000938eb91,1,18,48,39,52,23,male,,,"<p style=""font-size:50px"">You win!
+10 points this round!</p>",,,,,,,,,,,,,,,,,,,,,,,,,,,,
138,0,,html-keyboard-response,138,294495,0.0-4.22-4.22,8uqnz0h9ie4,2022-09-19 17:09:09.480,5e8a1827052175000938eb91,1,18,48,39,52,23,male,,,,,,1.0,learning,22.0,Xc,,red,,bolts,,,,Xc,red,bolts,,1.0,0.0,NA,right,554.0,9.0,1.0,1.0,,,
139,0,,html-keyboard-response,139,296006,0.0-4.23-0.23,8uqnz0h9ie4,2022-09-19 17:09:09.480,5e8a1827052175000938eb91,1,18,48,39,52,23,male,,,"<img src=""static/images/cards/stack_of_black_bolts.svg"" width=""175px"" height=""250px""></img>",,,,,,,,,,,,,,,,,,,,,,,,,,,,
140,0,,html-keyboard-response,140,296756,0.0-4.23-1.23,8uqnz0h9ie4,2022-09-19 17:09:09.480,5e8a1827052175000938eb91,1,18,48,39,52,23,male,235.0,,"
  <table>
  <tr height=300>
    <td width=300 height=300><img src=""static/images/cards/back_of_black_bolts.svg"" width=""175px"" height=""250px""></img></td>
    <td width=300 height=300><img src=""static/images/cards/back_of_black_bolts.svg"" width=""175px"" height=""250px""></img></td>
  </tr>
  <tr height=200>
    <td width=300><img src=""static/images/keys/z.svg"" width=""35%"" height=""75%""></img></td>
    <td width=300></td>
  </tr>
</table>
  ",90.0,1.0,,,,,,,,,,,,,,,,,,,,,,,,,,
141,0,,html-keyboard-response,141,298261,0.0-4.23-2.23,8uqnz0h9ie4,2022-09-19 17:09:09.480,5e8a1827052175000938eb91,1,18,48,39,52,23,male,,,"
  <table>
  <tr height=300>
    <td width=300 height=300><img src=""static/images/cards/7_of_black_bolts.svg"" width=""175px"" height=""250px""></img></td>
    <td width=300 height=300><img src=""static/images/cards/back_of_black_bolts.svg"" width=""175px"" height=""250px""></img></td>
  </tr>
  <tr height=200>
    <td width=300><img src=""static/images/keys/z.svg"" width=""35%"" height=""75%""></img></td>
    <td width=300></td>
  </tr>
</table>
  ",,,,,,,,,,,,,,,,,,,,,,,,,,,,
142,0,,html-keyboard-response,142,299781,0.0-4.23-3.23,8uqnz0h9ie4,2022-09-19 17:09:09.480,5e8a1827052175000938eb91,1,18,48,39,52,23,male,,,"<p style=""font-size:50px"">You win!
+10 points this round!</p>",,,,,,,,,,,,,,,,,,,,,,,,,,,,
143,0,,html-keyboard-response,143,300308,0.0-4.23-4.23,8uqnz0h9ie4,2022-09-19 17:09:09.480,5e8a1827052175000938eb91,1,18,48,39,52,23,male,,,,,,1.0,learning,23.0,Xnc,,black,,bolts,,,,Xnc,black,bolts,,0.0,0.0,1,left,235.0,7.0,1.0,1.0,,,
144,0,,call-function,144,300318,0.0-5.0,8uqnz0h9ie4,2022-09-19 17:09:09.480,5e8a1827052175000938eb91,1,18,48,39,52,23,male,,,,,,,,,,,,,,,,,,,,,,,,,,,,,,,
145,0,,image-keyboard-response,145,306566,0.0-6.0-0.0,8uqnz0h9ie4,2022-09-19 17:09:09.480,5e8a1827052175000938eb91,1,18,48,39,52,23,male,6247.0,,static/images/instructions_CB_1/Slide20.png,39.0,,,,,,,,,,,,,,,,,,,,,,,,,,,
146,0,,image-keyboard-response,146,324573,0.0-6.1-0.1,8uqnz0h9ie4,2022-09-19 17:09:09.480,5e8a1827052175000938eb91,1,18,48,39,52,23,male,18006.0,,static/images/instructions_CB_1/Slide21.png,39.0,,,,,,,,,,,,,,,,,,,,,,,,,,,
147,0,,image-keyboard-response,147,331496,0.0-6.2-0.2,8uqnz0h9ie4,2022-09-19 17:09:09.480,5e8a1827052175000938eb91,1,18,48,39,52,23,male,6921.0,,static/images/instructions_CB_1/Slide22.png,39.0,,,,,,,,,,,,,,,,,,,,,,,,,,,
148,0,,image-keyboard-response,148,342714,0.0-6.3-0.3,8uqnz0h9ie4,2022-09-19 17:09:09.480,5e8a1827052175000938eb91,1,18,48,39,52,23,male,11215.0,,static/images/instructions_CB_1/Slide23.png,39.0,,,,,,,,,,,,,,,,,,,,,,,,,,,
149,0,,image-keyboard-response,149,345600,0.0-6.4-0.4,8uqnz0h9ie4,2022-09-19 17:09:09.480,5e8a1827052175000938eb91,1,18,48,39,52,23,male,2884.0,,static/images/instructions_CB_1/Slide24.png,39.0,,,,,,,,,,,,,,,,,,,,,,,,,,,
150,0,,html-keyboard-response,150,348237,0.0-7.0-0.0,8uqnz0h9ie4,2022-09-19 17:09:09.480,5e8a1827052175000938eb91,1,18,48,39,52,23,male,2632.0,,"
  <table>
  <tr height=300>
    <td width=300 height=300><img src=""static/images/cards/stack_of_black_moons.svg"" width=""175px"" height=""250px""></img></td>
    <td width=300 height=300><img src=""static/images/cards/stack_of_red_stars.svg"" width=""175px"" height=""250px""></img></td>
  </tr>
  <tr height=200>
    <td width=300><img src=""static/images/keys/w.svg"" width=""35%"" height=""75%""></img></td>
    <td width=300><img src=""static/images/keys/o.svg"" width=""35%"" height=""75%""></img></td>
  </tr>
</table>
  ",87.0,1.0,,,,,,,,,,,,,,,,,,,,,,,,,,
151,0,,html-keyboard-response,151,349736,0.0-7.0-1.0,8uqnz0h9ie4,2022-09-19 17:09:09.480,5e8a1827052175000938eb91,1,18,48,39,52,23,male,983.0,,"
  <table>
  <tr height=300>
    <td width=300 height=300><img src=""static/images/cards/back_of_black_moons.svg"" width=""175px"" height=""250px""></img></td>
    <td width=300 height=300><img src=""static/images/cards/back_of_black_moons.svg"" width=""175px"" height=""250px""></img></td>
  </tr>
  <tr height=200>
    <td width=300></td>
    <td width=300><img src=""static/images/keys/m.svg"" width=""35%"" height=""75%""></img></td>
  </tr>
</table>
  ",77.0,1.0,,,,,,,,,,,,,,,,,,,,,,,,,,
152,0,,html-keyboard-response,152,351241,0.0-7.0-2.0,8uqnz0h9ie4,2022-09-19 17:09:09.480,5e8a1827052175000938eb91,1,18,48,39,52,23,male,,,"
  <table>
  <tr height=300>
    <td width=300 height=300><img src=""static/images/cards/back_of_black_moons.svg"" width=""175px"" height=""250px""></img></td>
    <td width=300 height=300><img src=""static/images/cards/9_of_black_moons.svg"" width=""175px"" height=""250px""></img></td>
  </tr>
  <tr height=200>
    <td width=300></td>
    <td width=300><img src=""static/images/keys/m.svg"" width=""35%"" height=""75%""></img></td>
  </tr>
</table>
  ",,,,,,,,,,,,,,,,,,,,,,,,,,,,
153,0,,html-keyboard-response,153,352770,0.0-7.0-3.0,8uqnz0h9ie4,2022-09-19 17:09:09.480,5e8a1827052175000938eb91,1,18,48,39,52,23,male,,,"<p style=""font-size:50px"">You win!
+10 points this round!</p>",,,,,,,,,,,,,,,,,,,,,,,,,,,,
154,0,,html-keyboard-response,154,353299,0.0-7.0-4.0,8uqnz0h9ie4,2022-09-19 17:09:09.480,5e8a1827052175000938eb91,1,18,48,39,52,23,male,,,,,,1.0,choice,0.0,B,C,black,red,moons,stars,B,C,B,black,moons,2632.0,0.0,1.0,0,right,983.0,9.0,1.0,1.0,,,
155,0,,html-keyboard-response,155,355008,0.0-7.1-0.1,8uqnz0h9ie4,2022-09-19 17:09:09.480,5e8a1827052175000938eb91,1,18,48,39,52,23,male,1705.0,,"
  <table>
  <tr height=300>
    <td width=300 height=300><img src=""static/images/cards/stack_of_black_stars.svg"" width=""175px"" height=""250px""></img></td>
    <td width=300 height=300><img src=""static/images/cards/stack_of_red_stars.svg"" width=""175px"" height=""250px""></img></td>
  </tr>
  <tr height=200>
    <td width=300><img src=""static/images/keys/w.svg"" width=""35%"" height=""75%""></img></td>
    <td width=300><img src=""static/images/keys/o.svg"" width=""35%"" height=""75%""></img></td>
  </tr>
</table>
  ",87.0,1.0,,,,,,,,,,,,,,,,,,,,,,,,,,
156,0,,html-keyboard-response,156,355996,0.0-7.1-1.1,8uqnz0h9ie4,2022-09-19 17:09:09.480,5e8a1827052175000938eb91,1,18,48,39,52,23,male,472.0,,"
  <table>
  <tr height=300>
    <td width=300 height=300><img src=""static/images/cards/back_of_black_stars.svg"" width=""175px"" height=""250px""></img></td>
    <td width=300 height=300><img src=""static/images/cards/back_of_black_stars.svg"" width=""175px"" height=""250px""></img></td>
  </tr>
  <tr height=200>
    <td width=300></td>
    <td width=300><img src=""static/images/keys/m.svg"" width=""35%"" height=""75%""></img></td>
  </tr>
</table>
  ",77.0,1.0,,,,,,,,,,,,,,,,,,,,,,,,,,
157,0,,html-keyboard-response,157,357499,0.0-7.1-2.1,8uqnz0h9ie4,2022-09-19 17:09:09.480,5e8a1827052175000938eb91,1,18,48,39,52,23,male,,,"
  <table>
  <tr height=300>
    <td width=300 height=300><img src=""static/images/cards/back_of_black_stars.svg"" width=""175px"" height=""250px""></img></td>
    <td width=300 height=300><img src=""static/images/cards/2_of_black_stars.svg"" width=""175px"" height=""250px""></img></td>
  </tr>
  <tr height=200>
    <td width=300></td>
    <td width=300><img src=""static/images/keys/m.svg"" width=""35%"" height=""75%""></img></td>
  </tr>
</table>
  ",,,,,,,,,,,,,,,,,,,,,,,,,,,,
158,0,,html-keyboard-response,158,359024,0.0-7.1-3.1,8uqnz0h9ie4,2022-09-19 17:09:09.480,5e8a1827052175000938eb91,1,18,48,39,52,23,male,,,"<p style=""font-size:50px"">You win!
+10 points this round!</p>",,,,,,,,,,,,,,,,,,,,,,,,,,,,
159,0,,html-keyboard-response,159,359554,0.0-7.1-4.1,8uqnz0h9ie4,2022-09-19 17:09:09.480,5e8a1827052175000938eb91,1,18,48,39,52,23,male,,,,,,1.0,choice,1.0,C,D,black,red,stars,stars,D,C,D,black,stars,1705.0,0.0,0.0,0,right,472.0,2.0,0.0,1.0,,,
160,0,,html-keyboard-response,160,362055,0.0-7.2-0.2,8uqnz0h9ie4,2022-09-19 17:09:09.480,5e8a1827052175000938eb91,1,18,48,39,52,23,male,2498.0,,"
  <table>
  <tr height=300>
    <td width=300 height=300><img src=""static/images/cards/stack_of_red_stars.svg"" width=""175px"" height=""250px""></img></td>
    <td width=300 height=300><img src=""static/images/cards/stack_of_red_moons.svg"" width=""175px"" height=""250px""></img></td>
  </tr>
  <tr height=200>
    <td width=300><img src=""static/images/keys/w.svg"" width=""35%"" height=""75%""></img></td>
    <td width=300><img src=""static/images/keys/o.svg"" width=""35%"" height=""75%""></img></td>
  </tr>
</table>
  ",79.0,1.0,,,,,,,,,,,,,,,,,,,,,,,,,,
161,0,,html-keyboard-response,161,364325,0.0-7.2-1.2,8uqnz0h9ie4,2022-09-19 17:09:09.480,5e8a1827052175000938eb91,1,18,48,39,52,23,male,1751.0,,"
  <table>
  <tr height=300>
    <td width=300 height=300><img src=""static/images/cards/back_of_red_moons.svg"" width=""175px"" height=""250px""></img></td>
    <td width=300 height=300><img src=""static/images/cards/back_of_red_moons.svg"" width=""175px"" height=""250px""></img></td>
  </tr>
  <tr height=200>
    <td width=300><img src=""static/images/keys/z.svg"" width=""35%"" height=""75%""></img></td>
    <td width=300><img src=""static/images/keys/m.svg"" width=""35%"" height=""75%""></img></td>
  </tr>
</table>
  ",77.0,1.0,,,,,,,,,,,,,,,,,,,,,,,,,,
162,0,,html-keyboard-response,162,365839,0.0-7.2-2.2,8uqnz0h9ie4,2022-09-19 17:09:09.480,5e8a1827052175000938eb91,1,18,48,39,52,23,male,,,"
  <table>
  <tr height=300>
    <td width=300 height=300><img src=""static/images/cards/back_of_red_moons.svg"" width=""175px"" height=""250px""></img></td>
    <td width=300 height=300><img src=""static/images/cards/1_of_red_moons.svg"" width=""175px"" height=""250px""></img></td>
  </tr>
  <tr height=200>
    <td width=300><img src=""static/images/keys/z.svg"" width=""35%"" height=""75%""></img></td>
    <td width=300><img src=""static/images/keys/m.svg"" width=""35%"" height=""75%""></img></td>
  </tr>
</table>
  ",,,,,,,,,,,,,,,,,,,,,,,,,,,,
163,0,,html-keyboard-response,163,367362,0.0-7.2-3.2,8uqnz0h9ie4,2022-09-19 17:09:09.480,5e8a1827052175000938eb91,1,18,48,39,52,23,male,,,"<p style=""font-size:50px"">You Lose!
No points this round.</p>",,,,,,,,,,,,,,,,,,,,,,,,,,,,
164,0,,html-keyboard-response,164,367892,0.0-7.2-4.2,8uqnz0h9ie4,2022-09-19 17:09:09.480,5e8a1827052175000938eb91,1,18,48,39,52,23,male,,,,,,1.0,choice,2.0,A,C,red,red,stars,moons,C,A,A,red,moons,2498.0,1.0,1.0,NA,right,1751.0,1.0,0.0,0.0,,,
165,0,,html-keyboard-response,165,369405,0.0-7.3-0.3,8uqnz0h9ie4,2022-09-19 17:09:09.480,5e8a1827052175000938eb91,1,18,48,39,52,23,male,1510.0,,"
  <table>
  <tr height=300>
    <td width=300 height=300><img src=""static/images/cards/stack_of_black_bolts.svg"" width=""175px"" height=""250px""></img></td>
    <td width=300 height=300><img src=""static/images/cards/stack_of_red_moons.svg"" width=""175px"" height=""250px""></img></td>
  </tr>
  <tr height=200>
    <td width=300><img src=""static/images/keys/w.svg"" width=""35%"" height=""75%""></img></td>
    <td width=300><img src=""static/images/keys/o.svg"" width=""35%"" height=""75%""></img></td>
  </tr>
</table>
  ",87.0,1.0,,,,,,,,,,,,,,,,,,,,,,,,,,
166,0,,html-keyboard-response,166,370669,0.0-7.3-1.3,8uqnz0h9ie4,2022-09-19 17:09:09.480,5e8a1827052175000938eb91,1,18,48,39,52,23,male,756.0,,"
  <table>
  <tr height=300>
    <td width=300 height=300><img src=""static/images/cards/back_of_black_bolts.svg"" width=""175px"" height=""250px""></img></td>
    <td width=300 height=300><img src=""static/images/cards/back_of_black_bolts.svg"" width=""175px"" height=""250px""></img></td>
  </tr>
  <tr height=200>
    <td width=300></td>
    <td width=300><img src=""static/images/keys/m.svg"" width=""35%"" height=""75%""></img></td>
  </tr>
</table>
  ",77.0,1.0,,,,,,,,,,,,,,,,,,,,,,,,,,
167,0,,html-keyboard-response,167,372180,0.0-7.3-2.3,8uqnz0h9ie4,2022-09-19 17:09:09.480,5e8a1827052175000938eb91,1,18,48,39,52,23,male,,,"
  <table>
  <tr height=300>
    <td width=300 height=300><img src=""static/images/cards/back_of_black_bolts.svg"" width=""175px"" height=""250px""></img></td>
    <td width=300 height=300><img src=""static/images/cards/2_of_black_bolts.svg"" width=""175px"" height=""250px""></img></td>
  </tr>
  <tr height=200>
    <td width=300></td>
    <td width=300><img src=""static/images/keys/m.svg"" width=""35%"" height=""75%""></img></td>
  </tr>
</table>
  ",,,,,,,,,,,,,,,,,,,,,,,,,,,,
168,0,,html-keyboard-response,168,373701,0.0-7.3-3.3,8uqnz0h9ie4,2022-09-19 17:09:09.480,5e8a1827052175000938eb91,1,18,48,39,52,23,male,,,"<p style=""font-size:50px"">You win!
+10 points this round!</p>",,,,,,,,,,,,,,,,,,,,,,,,,,,,
169,0,,html-keyboard-response,169,374230,0.0-7.3-4.3,8uqnz0h9ie4,2022-09-19 17:09:09.480,5e8a1827052175000938eb91,1,18,48,39,52,23,male,,,,,,1.0,choice,3.0,A,Xnc,black,red,bolts,moons,Xnc,A,Xnc,black,bolts,1510.0,0.0,0.0,0,right,756.0,2.0,0.0,1.0,,,
170,0,,html-keyboard-response,170,375966,0.0-7.4-0.4,8uqnz0h9ie4,2022-09-19 17:09:09.480,5e8a1827052175000938eb91,1,18,48,39,52,23,male,1732.0,,"
  <table>
  <tr height=300>
    <td width=300 height=300><img src=""static/images/cards/stack_of_red_moons.svg"" width=""175px"" height=""250px""></img></td>
    <td width=300 height=300><img src=""static/images/cards/stack_of_black_stars.svg"" width=""175px"" height=""250px""></img></td>
  </tr>
  <tr height=200>
    <td width=300><img src=""static/images/keys/w.svg"" width=""35%"" height=""75%""></img></td>
    <td width=300><img src=""static/images/keys/o.svg"" width=""35%"" height=""75%""></img></td>
  </tr>
</table>
  ",79.0,1.0,,,,,,,,,,,,,,,,,,,,,,,,,,
171,0,,html-keyboard-response,171,377683,0.0-7.4-1.4,8uqnz0h9ie4,2022-09-19 17:09:09.480,5e8a1827052175000938eb91,1,18,48,39,52,23,male,1212.0,,"
  <table>
  <tr height=300>
    <td width=300 height=300><img src=""static/images/cards/back_of_black_stars.svg"" width=""175px"" height=""250px""></img></td>
    <td width=300 height=300><img src=""static/images/cards/back_of_black_stars.svg"" width=""175px"" height=""250px""></img></td>
  </tr>
  <tr height=200>
    <td width=300><img src=""static/images/keys/z.svg"" width=""35%"" height=""75%""></img></td>
    <td width=300></td>
  </tr>
</table>
  ",90.0,1.0,,,,,,,,,,,,,,,,,,,,,,,,,,
172,0,,html-keyboard-response,172,379186,0.0-7.4-2.4,8uqnz0h9ie4,2022-09-19 17:09:09.480,5e8a1827052175000938eb91,1,18,48,39,52,23,male,,,"
  <table>
  <tr height=300>
    <td width=300 height=300><img src=""static/images/cards/8_of_black_stars.svg"" width=""175px"" height=""250px""></img></td>
    <td width=300 height=300><img src=""static/images/cards/back_of_black_stars.svg"" width=""175px"" height=""250px""></img></td>
  </tr>
  <tr height=200>
    <td width=300><img src=""static/images/keys/z.svg"" width=""35%"" height=""75%""></img></td>
    <td width=300></td>
  </tr>
</table>
  ",,,,,,,,,,,,,,,,,,,,,,,,,,,,
173,0,,html-keyboard-response,173,380713,0.0-7.4-3.4,8uqnz0h9ie4,2022-09-19 17:09:09.480,5e8a1827052175000938eb91,1,18,48,39,52,23,male,,,"<p style=""font-size:50px"">You Lose!
No points this round.</p>",,,,,,,,,,,,,,,,,,,,,,,,,,,,
174,0,,html-keyboard-response,174,381241,0.0-7.4-4.4,8uqnz0h9ie4,2022-09-19 17:09:09.480,5e8a1827052175000938eb91,1,18,48,39,52,23,male,,,,,,1.0,choice,4.0,A,D,red,black,moons,stars,A,D,D,black,stars,1732.0,0.0,0.0,1,left,1212.0,8.0,1.0,0.0,,,
175,0,,html-keyboard-response,175,383602,0.0-7.5-0.5,8uqnz0h9ie4,2022-09-19 17:09:09.480,5e8a1827052175000938eb91,1,18,48,39,52,23,male,2358.0,,"
  <table>
  <tr height=300>
    <td width=300 height=300><img src=""static/images/cards/stack_of_black_stars.svg"" width=""175px"" height=""250px""></img></td>
    <td width=300 height=300><img src=""static/images/cards/stack_of_black_moons.svg"" width=""175px"" height=""250px""></img></td>
  </tr>
  <tr height=200>
    <td width=300><img src=""static/images/keys/w.svg"" width=""35%"" height=""75%""></img></td>
    <td width=300><img src=""static/images/keys/o.svg"" width=""35%"" height=""75%""></img></td>
  </tr>
</table>
  ",87.0,1.0,,,,,,,,,,,,,,,,,,,,,,,,,,
176,0,,html-keyboard-response,176,385209,0.0-7.5-1.5,8uqnz0h9ie4,2022-09-19 17:09:09.480,5e8a1827052175000938eb91,1,18,48,39,52,23,male,1101.0,,"
  <table>
  <tr height=300>
    <td width=300 height=300><img src=""static/images/cards/back_of_black_stars.svg"" width=""175px"" height=""250px""></img></td>
    <td width=300 height=300><img src=""static/images/cards/back_of_black_stars.svg"" width=""175px"" height=""250px""></img></td>
  </tr>
  <tr height=200>
    <td width=300></td>
    <td width=300><img src=""static/images/keys/m.svg"" width=""35%"" height=""75%""></img></td>
  </tr>
</table>
  ",77.0,1.0,,,,,,,,,,,,,,,,,,,,,,,,,,
177,0,,html-keyboard-response,177,386719,0.0-7.5-2.5,8uqnz0h9ie4,2022-09-19 17:09:09.480,5e8a1827052175000938eb91,1,18,48,39,52,23,male,,,"
  <table>
  <tr height=300>
    <td width=300 height=300><img src=""static/images/cards/back_of_black_stars.svg"" width=""175px"" height=""250px""></img></td>
    <td width=300 height=300><img src=""static/images/cards/1_of_black_stars.svg"" width=""175px"" height=""250px""></img></td>
  </tr>
  <tr height=200>
    <td width=300></td>
    <td width=300><img src=""static/images/keys/m.svg"" width=""35%"" height=""75%""></img></td>
  </tr>
</table>
  ",,,,,,,,,,,,,,,,,,,,,,,,,,,,
178,0,,html-keyboard-response,178,388242,0.0-7.5-3.5,8uqnz0h9ie4,2022-09-19 17:09:09.480,5e8a1827052175000938eb91,1,18,48,39,52,23,male,,,"<p style=""font-size:50px"">You Lose!
No points this round.</p>",,,,,,,,,,,,,,,,,,,,,,,,,,,,
179,0,,html-keyboard-response,179,388772,0.0-7.5-4.5,8uqnz0h9ie4,2022-09-19 17:09:09.480,5e8a1827052175000938eb91,1,18,48,39,52,23,male,,,,,,1.0,choice,5.0,B,D,black,black,stars,moons,D,B,D,black,stars,2358.0,0.0,0.0,0,right,1101.0,1.0,0.0,0.0,,,
180,0,,html-keyboard-response,180,390245,0.0-7.6-0.6,8uqnz0h9ie4,2022-09-19 17:09:09.480,5e8a1827052175000938eb91,1,18,48,39,52,23,male,1470.0,,"
  <table>
  <tr height=300>
    <td width=300 height=300><img src=""static/images/cards/stack_of_red_stars.svg"" width=""175px"" height=""250px""></img></td>
    <td width=300 height=300><img src=""static/images/cards/stack_of_black_bolts.svg"" width=""175px"" height=""250px""></img></td>
  </tr>
  <tr height=200>
    <td width=300><img src=""static/images/keys/w.svg"" width=""35%"" height=""75%""></img></td>
    <td width=300><img src=""static/images/keys/o.svg"" width=""35%"" height=""75%""></img></td>
  </tr>
</table>
  ",79.0,1.0,,,,,,,,,,,,,,,,,,,,,,,,,,
181,0,,html-keyboard-response,181,391169,0.0-7.6-1.6,8uqnz0h9ie4,2022-09-19 17:09:09.480,5e8a1827052175000938eb91,1,18,48,39,52,23,male,407.0,,"
  <table>
  <tr height=300>
    <td width=300 height=300><img src=""static/images/cards/back_of_black_bolts.svg"" width=""175px"" height=""250px""></img></td>
    <td width=300 height=300><img src=""static/images/cards/back_of_black_bolts.svg"" width=""175px"" height=""250px""></img></td>
  </tr>
  <tr height=200>
    <td width=300></td>
    <td width=300><img src=""static/images/keys/m.svg"" width=""35%"" height=""75%""></img></td>
  </tr>
</table>
  ",77.0,1.0,,,,,,,,,,,,,,,,,,,,,,,,,,
182,0,,html-keyboard-response,182,392687,0.0-7.6-2.6,8uqnz0h9ie4,2022-09-19 17:09:09.480,5e8a1827052175000938eb91,1,18,48,39,52,23,male,,,"
  <table>
  <tr height=300>
    <td width=300 height=300><img src=""static/images/cards/back_of_black_bolts.svg"" width=""175px"" height=""250px""></img></td>
    <td width=300 height=300><img src=""static/images/cards/2_of_black_bolts.svg"" width=""175px"" height=""250px""></img></td>
  </tr>
  <tr height=200>
    <td width=300></td>
    <td width=300><img src=""static/images/keys/m.svg"" width=""35%"" height=""75%""></img></td>
  </tr>
</table>
  ",,,,,,,,,,,,,,,,,,,,,,,,,,,,
183,0,,html-keyboard-response,183,394209,0.0-7.6-3.6,8uqnz0h9ie4,2022-09-19 17:09:09.480,5e8a1827052175000938eb91,1,18,48,39,52,23,male,,,"<p style=""font-size:50px"">You win!
+10 points this round!</p>",,,,,,,,,,,,,,,,,,,,,,,,,,,,
184,0,,html-keyboard-response,184,394734,0.0-7.6-4.6,8uqnz0h9ie4,2022-09-19 17:09:09.480,5e8a1827052175000938eb91,1,18,48,39,52,23,male,,,,,,1.0,choice,6.0,C,Xnc,red,black,stars,bolts,C,Xnc,Xnc,black,bolts,1470.0,0.0,0.0,0,right,407.0,2.0,0.0,1.0,,,
185,0,,html-keyboard-response,185,396463,0.0-7.7-0.7,8uqnz0h9ie4,2022-09-19 17:09:09.480,5e8a1827052175000938eb91,1,18,48,39,52,23,male,1724.0,,"
  <table>
  <tr height=300>
    <td width=300 height=300><img src=""static/images/cards/stack_of_black_stars.svg"" width=""175px"" height=""250px""></img></td>
    <td width=300 height=300><img src=""static/images/cards/stack_of_red_moons.svg"" width=""175px"" height=""250px""></img></td>
  </tr>
  <tr height=200>
    <td width=300><img src=""static/images/keys/w.svg"" width=""35%"" height=""75%""></img></td>
    <td width=300><img src=""static/images/keys/o.svg"" width=""35%"" height=""75%""></img></td>
  </tr>
</table>
  ",87.0,1.0,,,,,,,,,,,,,,,,,,,,,,,,,,
186,0,,html-keyboard-response,186,398045,0.0-7.7-1.7,8uqnz0h9ie4,2022-09-19 17:09:09.480,5e8a1827052175000938eb91,1,18,48,39,52,23,male,1072.0,,"
  <table>
  <tr height=300>
    <td width=300 height=300><img src=""static/images/cards/back_of_black_stars.svg"" width=""175px"" height=""250px""></img></td>
    <td width=300 height=300><img src=""static/images/cards/back_of_black_stars.svg"" width=""175px"" height=""250px""></img></td>
  </tr>
  <tr height=200>
    <td width=300><img src=""static/images/keys/z.svg"" width=""35%"" height=""75%""></img></td>
    <td width=300></td>
  </tr>
</table>
  ",90.0,1.0,,,,,,,,,,,,,,,,,,,,,,,,,,
187,0,,html-keyboard-response,187,399555,0.0-7.7-2.7,8uqnz0h9ie4,2022-09-19 17:09:09.480,5e8a1827052175000938eb91,1,18,48,39,52,23,male,,,"
  <table>
  <tr height=300>
    <td width=300 height=300><img src=""static/images/cards/3_of_black_stars.svg"" width=""175px"" height=""250px""></img></td>
    <td width=300 height=300><img src=""static/images/cards/back_of_black_stars.svg"" width=""175px"" height=""250px""></img></td>
  </tr>
  <tr height=200>
    <td width=300><img src=""static/images/keys/z.svg"" width=""35%"" height=""75%""></img></td>
    <td width=300></td>
  </tr>
</table>
  ",,,,,,,,,,,,,,,,,,,,,,,,,,,,
188,0,,html-keyboard-response,188,401067,0.0-7.7-3.7,8uqnz0h9ie4,2022-09-19 17:09:09.480,5e8a1827052175000938eb91,1,18,48,39,52,23,male,,,"<p style=""font-size:50px"">You win!
+10 points this round!</p>",,,,,,,,,,,,,,,,,,,,,,,,,,,,
189,0,,html-keyboard-response,189,401593,0.0-7.7-4.7,8uqnz0h9ie4,2022-09-19 17:09:09.480,5e8a1827052175000938eb91,1,18,48,39,52,23,male,,,,,,1.0,choice,7.0,A,D,black,red,stars,moons,D,A,D,black,stars,1724.0,0.0,0.0,1,left,1072.0,3.0,0.0,1.0,,,
190,0,,html-keyboard-response,190,402861,0.0-7.8-0.8,8uqnz0h9ie4,2022-09-19 17:09:09.480,5e8a1827052175000938eb91,1,18,48,39,52,23,male,1265.0,,"
  <table>
  <tr height=300>
    <td width=300 height=300><img src=""static/images/cards/stack_of_black_stars.svg"" width=""175px"" height=""250px""></img></td>
    <td width=300 height=300><img src=""static/images/cards/stack_of_red_stars.svg"" width=""175px"" height=""250px""></img></td>
  </tr>
  <tr height=200>
    <td width=300><img src=""static/images/keys/w.svg"" width=""35%"" height=""75%""></img></td>
    <td width=300><img src=""static/images/keys/o.svg"" width=""35%"" height=""75%""></img></td>
  </tr>
</table>
  ",87.0,1.0,,,,,,,,,,,,,,,,,,,,,,,,,,
191,0,,html-keyboard-response,191,404020,0.0-7.8-1.8,8uqnz0h9ie4,2022-09-19 17:09:09.480,5e8a1827052175000938eb91,1,18,48,39,52,23,male,655.0,,"
  <table>
  <tr height=300>
    <td width=300 height=300><img src=""static/images/cards/back_of_black_stars.svg"" width=""175px"" height=""250px""></img></td>
    <td width=300 height=300><img src=""static/images/cards/back_of_black_stars.svg"" width=""175px"" height=""250px""></img></td>
  </tr>
  <tr height=200>
    <td width=300></td>
    <td width=300><img src=""static/images/keys/m.svg"" width=""35%"" height=""75%""></img></td>
  </tr>
</table>
  ",77.0,1.0,,,,,,,,,,,,,,,,,,,,,,,,,,
192,0,,html-keyboard-response,192,405528,0.0-7.8-2.8,8uqnz0h9ie4,2022-09-19 17:09:09.480,5e8a1827052175000938eb91,1,18,48,39,52,23,male,,,"
  <table>
  <tr height=300>
    <td width=300 height=300><img src=""static/images/cards/back_of_black_stars.svg"" width=""175px"" height=""250px""></img></td>
    <td width=300 height=300><img src=""static/images/cards/4_of_black_stars.svg"" width=""175px"" height=""250px""></img></td>
  </tr>
  <tr height=200>
    <td width=300></td>
    <td width=300><img src=""static/images/keys/m.svg"" width=""35%"" height=""75%""></img></td>
  </tr>
</table>
  ",,,,,,,,,,,,,,,,,,,,,,,,,,,,
193,0,,html-keyboard-response,193,407051,0.0-7.8-3.8,8uqnz0h9ie4,2022-09-19 17:09:09.480,5e8a1827052175000938eb91,1,18,48,39,52,23,male,,,"<p style=""font-size:50px"">You Lose!
No points this round.</p>",,,,,,,,,,,,,,,,,,,,,,,,,,,,
194,0,,html-keyboard-response,194,407580,0.0-7.8-4.8,8uqnz0h9ie4,2022-09-19 17:09:09.480,5e8a1827052175000938eb91,1,18,48,39,52,23,male,,,,,,1.0,choice,8.0,C,D,black,red,stars,stars,D,C,D,black,stars,1265.0,0.0,0.0,0,right,655.0,4.0,0.0,0.0,,,
195,0,,html-keyboard-response,195,408024,0.0-7.9-0.9,8uqnz0h9ie4,2022-09-19 17:09:09.480,5e8a1827052175000938eb91,1,18,48,39,52,23,male,440.0,,"
  <table>
  <tr height=300>
    <td width=300 height=300><img src=""static/images/cards/stack_of_black_stars.svg"" width=""175px"" height=""250px""></img></td>
    <td width=300 height=300><img src=""static/images/cards/stack_of_red_stars.svg"" width=""175px"" height=""250px""></img></td>
  </tr>
  <tr height=200>
    <td width=300><img src=""static/images/keys/w.svg"" width=""35%"" height=""75%""></img></td>
    <td width=300><img src=""static/images/keys/o.svg"" width=""35%"" height=""75%""></img></td>
  </tr>
</table>
  ",79.0,1.0,,,,,,,,,,,,,,,,,,,,,,,,,,
196,0,,html-keyboard-response,196,409572,0.0-7.9-1.9,8uqnz0h9ie4,2022-09-19 17:09:09.480,5e8a1827052175000938eb91,1,18,48,39,52,23,male,1044.0,,"
  <table>
  <tr height=300>
    <td width=300 height=300><img src=""static/images/cards/back_of_red_stars.svg"" width=""175px"" height=""250px""></img></td>
    <td width=300 height=300><img src=""static/images/cards/back_of_red_stars.svg"" width=""175px"" height=""250px""></img></td>
  </tr>
  <tr height=200>
    <td width=300><img src=""static/images/keys/z.svg"" width=""35%"" height=""75%""></img></td>
    <td width=300><img src=""static/images/keys/m.svg"" width=""35%"" height=""75%""></img></td>
  </tr>
</table>
  ",90.0,1.0,,,,,,,,,,,,,,,,,,,,,,,,,,
197,0,,html-keyboard-response,197,411081,0.0-7.9-2.9,8uqnz0h9ie4,2022-09-19 17:09:09.480,5e8a1827052175000938eb91,1,18,48,39,52,23,male,,,"
  <table>
  <tr height=300>
    <td width=300 height=300><img src=""static/images/cards/3_of_red_stars.svg"" width=""175px"" height=""250px""></img></td>
    <td width=300 height=300><img src=""static/images/cards/back_of_red_stars.svg"" width=""175px"" height=""250px""></img></td>
  </tr>
  <tr height=200>
    <td width=300><img src=""static/images/keys/z.svg"" width=""35%"" height=""75%""></img></td>
    <td width=300><img src=""static/images/keys/m.svg"" width=""35%"" height=""75%""></img></td>
  </tr>
</table>
  ",,,,,,,,,,,,,,,,,,,,,,,,,,,,
198,0,,html-keyboard-response,198,412606,0.0-7.9-3.9,8uqnz0h9ie4,2022-09-19 17:09:09.480,5e8a1827052175000938eb91,1,18,48,39,52,23,male,,,"<p style=""font-size:50px"">You Lose!
No points this round.</p>",,,,,,,,,,,,,,,,,,,,,,,,,,,,
199,0,,html-keyboard-response,199,413135,0.0-7.9-4.9,8uqnz0h9ie4,2022-09-19 17:09:09.480,5e8a1827052175000938eb91,1,18,48,39,52,23,male,,,,,,1.0,choice,9.0,C,D,black,red,stars,stars,D,C,C,red,stars,440.0,1.0,0.0,NA,left,1044.0,3.0,0.0,0.0,,,
200,0,,html-keyboard-response,200,414601,0.0-7.10-0.10,8uqnz0h9ie4,2022-09-19 17:09:09.480,5e8a1827052175000938eb91,1,18,48,39,52,23,male,1462.0,,"
  <table>
  <tr height=300>
    <td width=300 height=300><img src=""static/images/cards/stack_of_black_stars.svg"" width=""175px"" height=""250px""></img></td>
    <td width=300 height=300><img src=""static/images/cards/stack_of_black_moons.svg"" width=""175px"" height=""250px""></img></td>
  </tr>
  <tr height=200>
    <td width=300><img src=""static/images/keys/w.svg"" width=""35%"" height=""75%""></img></td>
    <td width=300><img src=""static/images/keys/o.svg"" width=""35%"" height=""75%""></img></td>
  </tr>
</table>
  ",87.0,1.0,,,,,,,,,,,,,,,,,,,,,,,,,,
201,0,,html-keyboard-response,201,415733,0.0-7.10-1.10,8uqnz0h9ie4,2022-09-19 17:09:09.480,5e8a1827052175000938eb91,1,18,48,39,52,23,male,622.0,,"
  <table>
  <tr height=300>
    <td width=300 height=300><img src=""static/images/cards/back_of_black_stars.svg"" width=""175px"" height=""250px""></img></td>
    <td width=300 height=300><img src=""static/images/cards/back_of_black_stars.svg"" width=""175px"" height=""250px""></img></td>
  </tr>
  <tr height=200>
    <td width=300></td>
    <td width=300><img src=""static/images/keys/m.svg"" width=""35%"" height=""75%""></img></td>
  </tr>
</table>
  ",77.0,1.0,,,,,,,,,,,,,,,,,,,,,,,,,,
202,0,,html-keyboard-response,202,417236,0.0-7.10-2.10,8uqnz0h9ie4,2022-09-19 17:09:09.480,5e8a1827052175000938eb91,1,18,48,39,52,23,male,,,"
  <table>
  <tr height=300>
    <td width=300 height=300><img src=""static/images/cards/back_of_black_stars.svg"" width=""175px"" height=""250px""></img></td>
    <td width=300 height=300><img src=""static/images/cards/6_of_black_stars.svg"" width=""175px"" height=""250px""></img></td>
  </tr>
  <tr height=200>
    <td width=300></td>
    <td width=300><img src=""static/images/keys/m.svg"" width=""35%"" height=""75%""></img></td>
  </tr>
</table>
  ",,,,,,,,,,,,,,,,,,,,,,,,,,,,
203,0,,html-keyboard-response,203,418758,0.0-7.10-3.10,8uqnz0h9ie4,2022-09-19 17:09:09.480,5e8a1827052175000938eb91,1,18,48,39,52,23,male,,,"<p style=""font-size:50px"">You win!
+10 points this round!</p>",,,,,,,,,,,,,,,,,,,,,,,,,,,,
204,0,,html-keyboard-response,204,419284,0.0-7.10-4.10,8uqnz0h9ie4,2022-09-19 17:09:09.480,5e8a1827052175000938eb91,1,18,48,39,52,23,male,,,,,,1.0,choice,10.0,B,D,black,black,stars,moons,D,B,D,black,stars,1462.0,0.0,0.0,0,right,622.0,6.0,1.0,1.0,,,
205,0,,html-keyboard-response,205,421155,0.0-7.11-0.11,8uqnz0h9ie4,2022-09-19 17:09:09.480,5e8a1827052175000938eb91,1,18,48,39,52,23,male,1867.0,,"
  <table>
  <tr height=300>
    <td width=300 height=300><img src=""static/images/cards/stack_of_red_bolts.svg"" width=""175px"" height=""250px""></img></td>
    <td width=300 height=300><img src=""static/images/cards/stack_of_black_stars.svg"" width=""175px"" height=""250px""></img></td>
  </tr>
  <tr height=200>
    <td width=300><img src=""static/images/keys/w.svg"" width=""35%"" height=""75%""></img></td>
    <td width=300><img src=""static/images/keys/o.svg"" width=""35%"" height=""75%""></img></td>
  </tr>
</table>
  ",87.0,1.0,,,,,,,,,,,,,,,,,,,,,,,,,,
206,0,,html-keyboard-response,206,422762,0.0-7.11-1.11,8uqnz0h9ie4,2022-09-19 17:09:09.480,5e8a1827052175000938eb91,1,18,48,39,52,23,male,1097.0,,"
  <table>
  <tr height=300>
    <td width=300 height=300><img src=""static/images/cards/back_of_red_bolts.svg"" width=""175px"" height=""250px""></img></td>
    <td width=300 height=300><img src=""static/images/cards/back_of_red_bolts.svg"" width=""175px"" height=""250px""></img></td>
  </tr>
  <tr height=200>
    <td width=300><img src=""static/images/keys/z.svg"" width=""35%"" height=""75%""></img></td>
    <td width=300><img src=""static/images/keys/m.svg"" width=""35%"" height=""75%""></img></td>
  </tr>
</table>
  ",77.0,1.0,,,,,,,,,,,,,,,,,,,,,,,,,,
207,0,,html-keyboard-response,207,424265,0.0-7.11-2.11,8uqnz0h9ie4,2022-09-19 17:09:09.480,5e8a1827052175000938eb91,1,18,48,39,52,23,male,,,"
  <table>
  <tr height=300>
    <td width=300 height=300><img src=""static/images/cards/back_of_red_bolts.svg"" width=""175px"" height=""250px""></img></td>
    <td width=300 height=300><img src=""static/images/cards/10_of_red_bolts.svg"" width=""175px"" height=""250px""></img></td>
  </tr>
  <tr height=200>
    <td width=300><img src=""static/images/keys/z.svg"" width=""35%"" height=""75%""></img></td>
    <td width=300><img src=""static/images/keys/m.svg"" width=""35%"" height=""75%""></img></td>
  </tr>
</table>
  ",,,,,,,,,,,,,,,,,,,,,,,,,,,,
208,0,,html-keyboard-response,208,425787,0.0-7.11-3.11,8uqnz0h9ie4,2022-09-19 17:09:09.480,5e8a1827052175000938eb91,1,18,48,39,52,23,male,,,"<p style=""font-size:50px"">You win!
+10 points this round!</p>",,,,,,,,,,,,,,,,,,,,,,,,,,,,
209,0,,html-keyboard-response,209,426318,0.0-7.11-4.11,8uqnz0h9ie4,2022-09-19 17:09:09.480,5e8a1827052175000938eb91,1,18,48,39,52,23,male,,,,,,1.0,choice,11.0,D,Xc,red,black,bolts,stars,Xc,D,Xc,red,bolts,1867.0,1.0,0.0,NA,right,1097.0,10.0,1.0,1.0,,,
210,0,,html-keyboard-response,210,427087,0.0-7.12-0.12,8uqnz0h9ie4,2022-09-19 17:09:09.480,5e8a1827052175000938eb91,1,18,48,39,52,23,male,767.0,,"
  <table>
  <tr height=300>
    <td width=300 height=300><img src=""static/images/cards/stack_of_red_stars.svg"" width=""175px"" height=""250px""></img></td>
    <td width=300 height=300><img src=""static/images/cards/stack_of_red_bolts.svg"" width=""175px"" height=""250px""></img></td>
  </tr>
  <tr height=200>
    <td width=300><img src=""static/images/keys/w.svg"" width=""35%"" height=""75%""></img></td>
    <td width=300><img src=""static/images/keys/o.svg"" width=""35%"" height=""75%""></img></td>
  </tr>
</table>
  ",79.0,1.0,,,,,,,,,,,,,,,,,,,,,,,,,,
211,0,,html-keyboard-response,211,428886,0.0-7.12-1.12,8uqnz0h9ie4,2022-09-19 17:09:09.480,5e8a1827052175000938eb91,1,18,48,39,52,23,male,1293.0,,"
  <table>
  <tr height=300>
    <td width=300 height=300><img src=""static/images/cards/back_of_red_bolts.svg"" width=""175px"" height=""250px""></img></td>
    <td width=300 height=300><img src=""static/images/cards/back_of_red_bolts.svg"" width=""175px"" height=""250px""></img></td>
  </tr>
  <tr height=200>
    <td width=300><img src=""static/images/keys/z.svg"" width=""35%"" height=""75%""></img></td>
    <td width=300><img src=""static/images/keys/m.svg"" width=""35%"" height=""75%""></img></td>
  </tr>
</table>
  ",90.0,1.0,,,,,,,,,,,,,,,,,,,,,,,,,,
212,0,,html-keyboard-response,212,430392,0.0-7.12-2.12,8uqnz0h9ie4,2022-09-19 17:09:09.480,5e8a1827052175000938eb91,1,18,48,39,52,23,male,,,"
  <table>
  <tr height=300>
    <td width=300 height=300><img src=""static/images/cards/8_of_red_bolts.svg"" width=""175px"" height=""250px""></img></td>
    <td width=300 height=300><img src=""static/images/cards/back_of_red_bolts.svg"" width=""175px"" height=""250px""></img></td>
  </tr>
  <tr height=200>
    <td width=300><img src=""static/images/keys/z.svg"" width=""35%"" height=""75%""></img></td>
    <td width=300><img src=""static/images/keys/m.svg"" width=""35%"" height=""75%""></img></td>
  </tr>
</table>
  ",,,,,,,,,,,,,,,,,,,,,,,,,,,,
213,0,,html-keyboard-response,213,431917,0.0-7.12-3.12,8uqnz0h9ie4,2022-09-19 17:09:09.480,5e8a1827052175000938eb91,1,18,48,39,52,23,male,,,"<p style=""font-size:50px"">You win!
+10 points this round!</p>",,,,,,,,,,,,,,,,,,,,,,,,,,,,
214,0,,html-keyboard-response,214,432448,0.0-7.12-4.12,8uqnz0h9ie4,2022-09-19 17:09:09.480,5e8a1827052175000938eb91,1,18,48,39,52,23,male,,,,,,1.0,choice,12.0,C,Xc,red,red,stars,bolts,C,Xc,Xc,red,bolts,767.0,1.0,0.0,NA,left,1293.0,8.0,1.0,1.0,,,
215,0,,html-keyboard-response,215,433233,0.0-7.13-0.13,8uqnz0h9ie4,2022-09-19 17:09:09.480,5e8a1827052175000938eb91,1,18,48,39,52,23,male,782.0,,"
  <table>
  <tr height=300>
    <td width=300 height=300><img src=""static/images/cards/stack_of_red_moons.svg"" width=""175px"" height=""250px""></img></td>
    <td width=300 height=300><img src=""static/images/cards/stack_of_red_bolts.svg"" width=""175px"" height=""250px""></img></td>
  </tr>
  <tr height=200>
    <td width=300><img src=""static/images/keys/w.svg"" width=""35%"" height=""75%""></img></td>
    <td width=300><img src=""static/images/keys/o.svg"" width=""35%"" height=""75%""></img></td>
  </tr>
</table>
  ",79.0,1.0,,,,,,,,,,,,,,,,,,,,,,,,,,
216,0,,html-keyboard-response,216,434233,0.0-7.13-1.13,8uqnz0h9ie4,2022-09-19 17:09:09.480,5e8a1827052175000938eb91,1,18,48,39,52,23,male,494.0,,"
  <table>
  <tr height=300>
    <td width=300 height=300><img src=""static/images/cards/back_of_red_bolts.svg"" width=""175px"" height=""250px""></img></td>
    <td width=300 height=300><img src=""static/images/cards/back_of_red_bolts.svg"" width=""175px"" height=""250px""></img></td>
  </tr>
  <tr height=200>
    <td width=300><img src=""static/images/keys/z.svg"" width=""35%"" height=""75%""></img></td>
    <td width=300><img src=""static/images/keys/m.svg"" width=""35%"" height=""75%""></img></td>
  </tr>
</table>
  ",77.0,1.0,,,,,,,,,,,,,,,,,,,,,,,,,,
217,0,,html-keyboard-response,217,435740,0.0-7.13-2.13,8uqnz0h9ie4,2022-09-19 17:09:09.480,5e8a1827052175000938eb91,1,18,48,39,52,23,male,,,"
  <table>
  <tr height=300>
    <td width=300 height=300><img src=""static/images/cards/back_of_red_bolts.svg"" width=""175px"" height=""250px""></img></td>
    <td width=300 height=300><img src=""static/images/cards/6_of_red_bolts.svg"" width=""175px"" height=""250px""></img></td>
  </tr>
  <tr height=200>
    <td width=300><img src=""static/images/keys/z.svg"" width=""35%"" height=""75%""></img></td>
    <td width=300><img src=""static/images/keys/m.svg"" width=""35%"" height=""75%""></img></td>
  </tr>
</table>
  ",,,,,,,,,,,,,,,,,,,,,,,,,,,,
218,0,,html-keyboard-response,218,437267,0.0-7.13-3.13,8uqnz0h9ie4,2022-09-19 17:09:09.480,5e8a1827052175000938eb91,1,18,48,39,52,23,male,,,"<p style=""font-size:50px"">You win!
+10 points this round!</p>",,,,,,,,,,,,,,,,,,,,,,,,,,,,
219,0,,html-keyboard-response,219,437797,0.0-7.13-4.13,8uqnz0h9ie4,2022-09-19 17:09:09.480,5e8a1827052175000938eb91,1,18,48,39,52,23,male,,,,,,1.0,choice,13.0,A,Xc,red,red,moons,bolts,A,Xc,Xc,red,bolts,782.0,1.0,0.0,NA,right,494.0,6.0,1.0,1.0,,,
220,0,,html-keyboard-response,220,438929,0.0-7.14-0.14,8uqnz0h9ie4,2022-09-19 17:09:09.480,5e8a1827052175000938eb91,1,18,48,39,52,23,male,1129.0,,"
  <table>
  <tr height=300>
    <td width=300 height=300><img src=""static/images/cards/stack_of_black_moons.svg"" width=""175px"" height=""250px""></img></td>
    <td width=300 height=300><img src=""static/images/cards/stack_of_black_stars.svg"" width=""175px"" height=""250px""></img></td>
  </tr>
  <tr height=200>
    <td width=300><img src=""static/images/keys/w.svg"" width=""35%"" height=""75%""></img></td>
    <td width=300><img src=""static/images/keys/o.svg"" width=""35%"" height=""75%""></img></td>
  </tr>
</table>
  ",79.0,1.0,,,,,,,,,,,,,,,,,,,,,,,,,,
221,0,,html-keyboard-response,221,439987,0.0-7.14-1.14,8uqnz0h9ie4,2022-09-19 17:09:09.480,5e8a1827052175000938eb91,1,18,48,39,52,23,male,555.0,,"
  <table>
  <tr height=300>
    <td width=300 height=300><img src=""static/images/cards/back_of_black_stars.svg"" width=""175px"" height=""250px""></img></td>
    <td width=300 height=300><img src=""static/images/cards/back_of_black_stars.svg"" width=""175px"" height=""250px""></img></td>
  </tr>
  <tr height=200>
    <td width=300><img src=""static/images/keys/z.svg"" width=""35%"" height=""75%""></img></td>
    <td width=300></td>
  </tr>
</table>
  ",90.0,1.0,,,,,,,,,,,,,,,,,,,,,,,,,,
222,0,,html-keyboard-response,222,441495,0.0-7.14-2.14,8uqnz0h9ie4,2022-09-19 17:09:09.480,5e8a1827052175000938eb91,1,18,48,39,52,23,male,,,"
  <table>
  <tr height=300>
    <td width=300 height=300><img src=""static/images/cards/4_of_black_stars.svg"" width=""175px"" height=""250px""></img></td>
    <td width=300 height=300><img src=""static/images/cards/back_of_black_stars.svg"" width=""175px"" height=""250px""></img></td>
  </tr>
  <tr height=200>
    <td width=300><img src=""static/images/keys/z.svg"" width=""35%"" height=""75%""></img></td>
    <td width=300></td>
  </tr>
</table>
  ",,,,,,,,,,,,,,,,,,,,,,,,,,,,
223,0,,html-keyboard-response,223,443017,0.0-7.14-3.14,8uqnz0h9ie4,2022-09-19 17:09:09.480,5e8a1827052175000938eb91,1,18,48,39,52,23,male,,,"<p style=""font-size:50px"">You Lose!
No points this round.</p>",,,,,,,,,,,,,,,,,,,,,,,,,,,,
224,0,,html-keyboard-response,224,443545,0.0-7.14-4.14,8uqnz0h9ie4,2022-09-19 17:09:09.480,5e8a1827052175000938eb91,1,18,48,39,52,23,male,,,,,,1.0,choice,14.0,B,D,black,black,moons,stars,B,D,D,black,stars,1129.0,0.0,0.0,1,left,555.0,4.0,0.0,0.0,,,
225,0,,html-keyboard-response,225,445079,0.0-7.15-0.15,8uqnz0h9ie4,2022-09-19 17:09:09.480,5e8a1827052175000938eb91,1,18,48,39,52,23,male,1532.0,,"
  <table>
  <tr height=300>
    <td width=300 height=300><img src=""static/images/cards/stack_of_red_bolts.svg"" width=""175px"" height=""250px""></img></td>
    <td width=300 height=300><img src=""static/images/cards/stack_of_black_moons.svg"" width=""175px"" height=""250px""></img></td>
  </tr>
  <tr height=200>
    <td width=300><img src=""static/images/keys/w.svg"" width=""35%"" height=""75%""></img></td>
    <td width=300><img src=""static/images/keys/o.svg"" width=""35%"" height=""75%""></img></td>
  </tr>
</table>
  ",87.0,1.0,,,,,,,,,,,,,,,,,,,,,,,,,,
226,0,,html-keyboard-response,226,446528,0.0-7.15-1.15,8uqnz0h9ie4,2022-09-19 17:09:09.480,5e8a1827052175000938eb91,1,18,48,39,52,23,male,942.0,,"
  <table>
  <tr height=300>
    <td width=300 height=300><img src=""static/images/cards/back_of_red_bolts.svg"" width=""175px"" height=""250px""></img></td>
    <td width=300 height=300><img src=""static/images/cards/back_of_red_bolts.svg"" width=""175px"" height=""250px""></img></td>
  </tr>
  <tr height=200>
    <td width=300><img src=""static/images/keys/z.svg"" width=""35%"" height=""75%""></img></td>
    <td width=300><img src=""static/images/keys/m.svg"" width=""35%"" height=""75%""></img></td>
  </tr>
</table>
  ",90.0,1.0,,,,,,,,,,,,,,,,,,,,,,,,,,
227,0,,html-keyboard-response,227,448034,0.0-7.15-2.15,8uqnz0h9ie4,2022-09-19 17:09:09.480,5e8a1827052175000938eb91,1,18,48,39,52,23,male,,,"
  <table>
  <tr height=300>
    <td width=300 height=300><img src=""static/images/cards/2_of_red_bolts.svg"" width=""175px"" height=""250px""></img></td>
    <td width=300 height=300><img src=""static/images/cards/back_of_red_bolts.svg"" width=""175px"" height=""250px""></img></td>
  </tr>
  <tr height=200>
    <td width=300><img src=""static/images/keys/z.svg"" width=""35%"" height=""75%""></img></td>
    <td width=300><img src=""static/images/keys/m.svg"" width=""35%"" height=""75%""></img></td>
  </tr>
</table>
  ",,,,,,,,,,,,,,,,,,,,,,,,,,,,
228,0,,html-keyboard-response,228,449557,0.0-7.15-3.15,8uqnz0h9ie4,2022-09-19 17:09:09.480,5e8a1827052175000938eb91,1,18,48,39,52,23,male,,,"<p style=""font-size:50px"">You win!
+10 points this round!</p>",,,,,,,,,,,,,,,,,,,,,,,,,,,,
229,0,,html-keyboard-response,229,450087,0.0-7.15-4.15,8uqnz0h9ie4,2022-09-19 17:09:09.480,5e8a1827052175000938eb91,1,18,48,39,52,23,male,,,,,,1.0,choice,15.0,B,Xc,red,black,bolts,moons,Xc,B,Xc,red,bolts,1532.0,1.0,0.0,NA,left,942.0,2.0,0.0,1.0,,,
230,0,,html-keyboard-response,230,451354,0.0-7.16-0.16,8uqnz0h9ie4,2022-09-19 17:09:09.480,5e8a1827052175000938eb91,1,18,48,39,52,23,male,1263.0,,"
  <table>
  <tr height=300>
    <td width=300 height=300><img src=""static/images/cards/stack_of_black_stars.svg"" width=""175px"" height=""250px""></img></td>
    <td width=300 height=300><img src=""static/images/cards/stack_of_red_moons.svg"" width=""175px"" height=""250px""></img></td>
  </tr>
  <tr height=200>
    <td width=300><img src=""static/images/keys/w.svg"" width=""35%"" height=""75%""></img></td>
    <td width=300><img src=""static/images/keys/o.svg"" width=""35%"" height=""75%""></img></td>
  </tr>
</table>
  ",79.0,1.0,,,,,,,,,,,,,,,,,,,,,,,,,,
231,0,,html-keyboard-response,231,452771,0.0-7.16-1.16,8uqnz0h9ie4,2022-09-19 17:09:09.480,5e8a1827052175000938eb91,1,18,48,39,52,23,male,910.0,,"
  <table>
  <tr height=300>
    <td width=300 height=300><img src=""static/images/cards/back_of_red_moons.svg"" width=""175px"" height=""250px""></img></td>
    <td width=300 height=300><img src=""static/images/cards/back_of_red_moons.svg"" width=""175px"" height=""250px""></img></td>
  </tr>
  <tr height=200>
    <td width=300><img src=""static/images/keys/z.svg"" width=""35%"" height=""75%""></img></td>
    <td width=300><img src=""static/images/keys/m.svg"" width=""35%"" height=""75%""></img></td>
  </tr>
</table>
  ",77.0,1.0,,,,,,,,,,,,,,,,,,,,,,,,,,
232,0,,html-keyboard-response,232,454274,0.0-7.16-2.16,8uqnz0h9ie4,2022-09-19 17:09:09.480,5e8a1827052175000938eb91,1,18,48,39,52,23,male,,,"
  <table>
  <tr height=300>
    <td width=300 height=300><img src=""static/images/cards/back_of_red_moons.svg"" width=""175px"" height=""250px""></img></td>
    <td width=300 height=300><img src=""static/images/cards/6_of_red_moons.svg"" width=""175px"" height=""250px""></img></td>
  </tr>
  <tr height=200>
    <td width=300><img src=""static/images/keys/z.svg"" width=""35%"" height=""75%""></img></td>
    <td width=300><img src=""static/images/keys/m.svg"" width=""35%"" height=""75%""></img></td>
  </tr>
</table>
  ",,,,,,,,,,,,,,,,,,,,,,,,,,,,
233,0,,html-keyboard-response,233,455800,0.0-7.16-3.16,8uqnz0h9ie4,2022-09-19 17:09:09.480,5e8a1827052175000938eb91,1,18,48,39,52,23,male,,,"<p style=""font-size:50px"">You win!
+10 points this round!</p>",,,,,,,,,,,,,,,,,,,,,,,,,,,,
234,0,,html-keyboard-response,234,456327,0.0-7.16-4.16,8uqnz0h9ie4,2022-09-19 17:09:09.480,5e8a1827052175000938eb91,1,18,48,39,52,23,male,,,,,,1.0,choice,16.0,A,D,black,red,stars,moons,D,A,A,red,moons,1263.0,1.0,1.0,NA,right,910.0,6.0,1.0,1.0,,,
235,0,,html-keyboard-response,235,457123,0.0-7.17-0.17,8uqnz0h9ie4,2022-09-19 17:09:09.480,5e8a1827052175000938eb91,1,18,48,39,52,23,male,793.0,,"
  <table>
  <tr height=300>
    <td width=300 height=300><img src=""static/images/cards/stack_of_black_stars.svg"" width=""175px"" height=""250px""></img></td>
    <td width=300 height=300><img src=""static/images/cards/stack_of_black_bolts.svg"" width=""175px"" height=""250px""></img></td>
  </tr>
  <tr height=200>
    <td width=300><img src=""static/images/keys/w.svg"" width=""35%"" height=""75%""></img></td>
    <td width=300><img src=""static/images/keys/o.svg"" width=""35%"" height=""75%""></img></td>
  </tr>
</table>
  ",87.0,1.0,,,,,,,,,,,,,,,,,,,,,,,,,,
236,0,,html-keyboard-response,236,458423,0.0-7.17-1.17,8uqnz0h9ie4,2022-09-19 17:09:09.480,5e8a1827052175000938eb91,1,18,48,39,52,23,male,790.0,,"
  <table>
  <tr height=300>
    <td width=300 height=300><img src=""static/images/cards/back_of_black_stars.svg"" width=""175px"" height=""250px""></img></td>
    <td width=300 height=300><img src=""static/images/cards/back_of_black_stars.svg"" width=""175px"" height=""250px""></img></td>
  </tr>
  <tr height=200>
    <td width=300></td>
