,index,success,trial_type,trial_index,time_elapsed,internal_node_id,subject,date,prol_id,ctbl,sense_of_control_A,sense_of_control_B,sense_of_control_C,sense_of_control_D,age,gender,rt,url,stimulus,key_press,npress,is_data_trial,phase,trial,deck1,deck2,col1,col2,sym1,sym2,deck_l,deck_r,chosen_deck,chosen_col,chosen_sym,deck_rt,choose_choice,mutual_info,hidden_key,chosen_card,card_rt,player_num,win_card,outcome,mock_rating,response,responses
0,0,1.0,fullscreen,0,541371,0.0-0.0,bftdpqgnj6q,2022-09-19 17:56:58.354,60573290a0b07d401c4e61e0,1,85,71,49,22,24,Male,,,,,,,,,,,,,,,,,,,,,,,,,,,,,,,
1,0,,external-html,1,547249,0.0-1.0,bftdpqgnj6q,2022-09-19 17:56:58.354,60573290a0b07d401c4e61e0,1,85,71,49,22,24,Male,5752.2999999998,static/js/sub/consent.html,,,,,,,,,,,,,,,,,,,,,,,,,,,,,
2,0,,call-function,2,547249,0.0-2.0,bftdpqgnj6q,2022-09-19 17:56:58.354,60573290a0b07d401c4e61e0,1,85,71,49,22,24,Male,,,,,,,,,,,,,,,,,,,,,,,,,,,,,,,
3,0,,image-keyboard-response,3,553279,0.0-3.0-0.0,bftdpqgnj6q,2022-09-19 17:56:58.354,60573290a0b07d401c4e61e0,1,85,71,49,22,24,Male,6029.3,,static/images/instructions_CB_1/Slide1.png,39.0,,,,,,,,,,,,,,,,,,,,,,,,,,,
4,0,,image-keyboard-response,4,570149,0.0-3.1-0.1,bftdpqgnj6q,2022-09-19 17:56:58.354,60573290a0b07d401c4e61e0,1,85,71,49,22,24,Male,16868.8,,static/images/instructions_CB_1/Slide2.png,39.0,,,,,,,,,,,,,,,,,,,,,,,,,,,
5,0,,image-keyboard-response,5,573806,0.0-3.2-0.2,bftdpqgnj6q,2022-09-19 17:56:58.354,60573290a0b07d401c4e61e0,1,85,71,49,22,24,Male,3657.0,,static/images/instructions_CB_1/Slide3.png,39.0,,,,,,,,,,,,,,,,,,,,,,,,,,,
6,0,,image-keyboard-response,6,583216,0.0-3.3-0.3,bftdpqgnj6q,2022-09-19 17:56:58.354,60573290a0b07d401c4e61e0,1,85,71,49,22,24,Male,9409.0,,static/images/instructions_CB_1/Slide4.png,39.0,,,,,,,,,,,,,,,,,,,,,,,,,,,
7,0,,image-keyboard-response,7,591126,0.0-3.4-0.4,bftdpqgnj6q,2022-09-19 17:56:58.354,60573290a0b07d401c4e61e0,1,85,71,49,22,24,Male,7910.2,,static/images/instructions_CB_1/Slide5.png,39.0,,,,,,,,,,,,,,,,,,,,,,,,,,,
8,0,,image-keyboard-response,8,591671,0.0-3.5-0.5,bftdpqgnj6q,2022-09-19 17:56:58.354,60573290a0b07d401c4e61e0,1,85,71,49,22,24,Male,544.0,,static/images/instructions_CB_1/Slide6.png,37.0,,,,,,,,,,,,,,,,,,,,,,,,,,,
9,0,,image-keyboard-response,9,593940,0.0-3.6-0.6,bftdpqgnj6q,2022-09-19 17:56:58.354,60573290a0b07d401c4e61e0,1,85,71,49,22,24,Male,2268.3,,static/images/instructions_CB_1/Slide5.png,39.0,,,,,,,,,,,,,,,,,,,,,,,,,,,
10,0,,image-keyboard-response,10,595710,0.0-3.7-0.7,bftdpqgnj6q,2022-09-19 17:56:58.354,60573290a0b07d401c4e61e0,1,85,71,49,22,24,Male,1770.3999999999,,static/images/instructions_CB_1/Slide6.png,39.0,,,,,,,,,,,,,,,,,,,,,,,,,,,
11,0,,image-keyboard-response,11,598201,0.0-3.8-0.8,bftdpqgnj6q,2022-09-19 17:56:58.354,60573290a0b07d401c4e61e0,1,85,71,49,22,24,Male,2490.3,,static/images/instructions_CB_1/Slide7.png,39.0,,,,,,,,,,,,,,,,,,,,,,,,,,,
12,0,,image-keyboard-response,12,624099,0.0-3.9-0.9,bftdpqgnj6q,2022-09-19 17:56:58.354,60573290a0b07d401c4e61e0,1,85,71,49,22,24,Male,25897.0999999999,,static/images/instructions_CB_1/Slide8.png,39.0,,,,,,,,,,,,,,,,,,,,,,,,,,,
13,0,,image-keyboard-response,13,629881,0.0-3.10-0.10,bftdpqgnj6q,2022-09-19 17:56:58.354,60573290a0b07d401c4e61e0,1,85,71,49,22,24,Male,5781.2999999998,,static/images/instructions_CB_1/Slide9.png,39.0,,,,,,,,,,,,,,,,,,,,,,,,,,,
14,0,,image-keyboard-response,14,647400,0.0-3.11-0.11,bftdpqgnj6q,2022-09-19 17:56:58.354,60573290a0b07d401c4e61e0,1,85,71,49,22,24,Male,17518.8999999999,,static/images/instructions_CB_1/Slide10.png,39.0,,,,,,,,,,,,,,,,,,,,,,,,,,,
15,0,,image-keyboard-response,15,655298,0.0-3.12-0.12,bftdpqgnj6q,2022-09-19 17:56:58.354,60573290a0b07d401c4e61e0,1,85,71,49,22,24,Male,7897.1000000001,,static/images/instructions_CB_1/Slide11.png,39.0,,,,,,,,,,,,,,,,,,,,,,,,,,,
16,0,,image-keyboard-response,16,677830,0.0-3.13-0.13,bftdpqgnj6q,2022-09-19 17:56:58.354,60573290a0b07d401c4e61e0,1,85,71,49,22,24,Male,22531.8,,static/images/instructions_CB_1/Slide12.png,39.0,,,,,,,,,,,,,,,,,,,,,,,,,,,
17,0,,image-keyboard-response,17,703757,0.0-3.14-0.14,bftdpqgnj6q,2022-09-19 17:56:58.354,60573290a0b07d401c4e61e0,1,85,71,49,22,24,Male,25926.9000000001,,static/images/instructions_CB_1/Slide13.png,39.0,,,,,,,,,,,,,,,,,,,,,,,,,,,
18,0,,image-keyboard-response,18,710377,0.0-3.15-0.15,bftdpqgnj6q,2022-09-19 17:56:58.354,60573290a0b07d401c4e61e0,1,85,71,49,22,24,Male,6619.2999999998,,static/images/instructions_CB_1/Slide14.png,37.0,,,,,,,,,,,,,,,,,,,,,,,,,,,
19,0,,image-keyboard-response,19,715070,0.0-3.16-0.16,bftdpqgnj6q,2022-09-19 17:56:58.354,60573290a0b07d401c4e61e0,1,85,71,49,22,24,Male,4692.7,,static/images/instructions_CB_1/Slide13.png,39.0,,,,,,,,,,,,,,,,,,,,,,,,,,,
20,0,,image-keyboard-response,20,718534,0.0-3.17-0.17,bftdpqgnj6q,2022-09-19 17:56:58.354,60573290a0b07d401c4e61e0,1,85,71,49,22,24,Male,3463.5999999999,,static/images/instructions_CB_1/Slide14.png,39.0,,,,,,,,,,,,,,,,,,,,,,,,,,,
21,0,,image-keyboard-response,21,726071,0.0-3.18-0.18,bftdpqgnj6q,2022-09-19 17:56:58.354,60573290a0b07d401c4e61e0,1,85,71,49,22,24,Male,7536.8999999999,,static/images/instructions_CB_1/Slide15.png,39.0,,,,,,,,,,,,,,,,,,,,,,,,,,,
22,0,,image-keyboard-response,22,730717,0.0-3.19-0.19,bftdpqgnj6q,2022-09-19 17:56:58.354,60573290a0b07d401c4e61e0,1,85,71,49,22,24,Male,4645.2999999998,,static/images/instructions_CB_1/Slide16.png,39.0,,,,,,,,,,,,,,,,,,,,,,,,,,,
23,0,,image-keyboard-response,23,744334,0.0-3.20-0.20,bftdpqgnj6q,2022-09-19 17:56:58.354,60573290a0b07d401c4e61e0,1,85,71,49,22,24,Male,13617.0,,static/images/instructions_CB_1/Slide17.png,39.0,,,,,,,,,,,,,,,,,,,,,,,,,,,
24,0,,image-keyboard-response,24,759351,0.0-3.21-0.21,bftdpqgnj6q,2022-09-19 17:56:58.354,60573290a0b07d401c4e61e0,1,85,71,49,22,24,Male,15016.4000000001,,static/images/instructions_CB_1/Slide18.png,39.0,,,,,,,,,,,,,,,,,,,,,,,,,,,
25,0,,image-keyboard-response,25,763173,0.0-3.22-0.22,bftdpqgnj6q,2022-09-19 17:56:58.354,60573290a0b07d401c4e61e0,1,85,71,49,22,24,Male,3821.3,,static/images/instructions_CB_1/Slide19.png,39.0,,,,,,,,,,,,,,,,,,,,,,,,,,,
26,0,,html-keyboard-response,26,764674,0.0-4.0-0.0,bftdpqgnj6q,2022-09-19 17:56:58.354,60573290a0b07d401c4e61e0,1,85,71,49,22,24,Male,,,"<img src=""static/images/cards/stack_of_red_moons.svg"" width=""175px"" height=""250px""></img>",,,,,,,,,,,,,,,,,,,,,,,,,,,,
27,0,,html-keyboard-response,27,766936,0.0-4.0-1.0,bftdpqgnj6q,2022-09-19 17:56:58.354,60573290a0b07d401c4e61e0,1,85,71,49,22,24,Male,1759.5,,"
  <table>
  <tr height=300>
    <td width=300 height=300><img src=""static/images/cards/back_of_red_moons.svg"" width=""175px"" height=""250px""></img></td>
    <td width=300 height=300><img src=""static/images/cards/back_of_red_moons.svg"" width=""175px"" height=""250px""></img></td>
  </tr>
  <tr height=200>
    <td width=300><img src=""static/images/keys/z.svg"" width=""35%"" height=""75%""></img></td>
    <td width=300><img src=""static/images/keys/m.svg"" width=""35%"" height=""75%""></img></td>
  </tr>
</table>
  ",90.0,1.0,,,,,,,,,,,,,,,,,,,,,,,,,,
28,0,,html-keyboard-response,28,768437,0.0-4.0-2.0,bftdpqgnj6q,2022-09-19 17:56:58.354,60573290a0b07d401c4e61e0,1,85,71,49,22,24,Male,,,"
  <table>
  <tr height=300>
    <td width=300 height=300><img src=""static/images/cards/8_of_red_moons.svg"" width=""175px"" height=""250px""></img></td>
    <td width=300 height=300><img src=""static/images/cards/back_of_red_moons.svg"" width=""175px"" height=""250px""></img></td>
  </tr>
  <tr height=200>
    <td width=300><img src=""static/images/keys/z.svg"" width=""35%"" height=""75%""></img></td>
    <td width=300><img src=""static/images/keys/m.svg"" width=""35%"" height=""75%""></img></td>
  </tr>
</table>
  ",,,,,,,,,,,,,,,,,,,,,,,,,,,,
29,0,,html-keyboard-response,29,769941,0.0-4.0-3.0,bftdpqgnj6q,2022-09-19 17:56:58.354,60573290a0b07d401c4e61e0,1,85,71,49,22,24,Male,,,"<p style=""font-size:50px"">You win!
+10 points this round!</p>",,,,,,,,,,,,,,,,,,,,,,,,,,,,
30,0,,html-keyboard-response,30,770446,0.0-4.0-4.0,bftdpqgnj6q,2022-09-19 17:56:58.354,60573290a0b07d401c4e61e0,1,85,71,49,22,24,Male,,,,,,1.0,learning,0.0,A,,red,,moons,,,,A,red,moons,,1.0,1.0,NA,left,1759.5,8.0,1.0,1.0,,,
31,0,,html-keyboard-response,31,771947,0.0-4.1-0.1,bftdpqgnj6q,2022-09-19 17:56:58.354,60573290a0b07d401c4e61e0,1,85,71,49,22,24,Male,,,"<img src=""static/images/cards/stack_of_black_moons.svg"" width=""175px"" height=""250px""></img>",,,,,,,,,,,,,,,,,,,,,,,,,,,,
32,0,,html-keyboard-response,32,773522,0.0-4.1-1.1,bftdpqgnj6q,2022-09-19 17:56:58.354,60573290a0b07d401c4e61e0,1,85,71,49,22,24,Male,1073.8,,"
  <table>
  <tr height=300>
    <td width=300 height=300><img src=""static/images/cards/back_of_black_moons.svg"" width=""175px"" height=""250px""></img></td>
    <td width=300 height=300><img src=""static/images/cards/back_of_black_moons.svg"" width=""175px"" height=""250px""></img></td>
  </tr>
  <tr height=200>
    <td width=300></td>
    <td width=300><img src=""static/images/keys/m.svg"" width=""35%"" height=""75%""></img></td>
  </tr>
</table>
  ",77.0,1.0,,,,,,,,,,,,,,,,,,,,,,,,,,
33,0,,html-keyboard-response,33,775024,0.0-4.1-2.1,bftdpqgnj6q,2022-09-19 17:56:58.354,60573290a0b07d401c4e61e0,1,85,71,49,22,24,Male,,,"
  <table>
  <tr height=300>
    <td width=300 height=300><img src=""static/images/cards/back_of_black_moons.svg"" width=""175px"" height=""250px""></img></td>
    <td width=300 height=300><img src=""static/images/cards/8_of_black_moons.svg"" width=""175px"" height=""250px""></img></td>
  </tr>
  <tr height=200>
    <td width=300></td>
    <td width=300><img src=""static/images/keys/m.svg"" width=""35%"" height=""75%""></img></td>
  </tr>
</table>
  ",,,,,,,,,,,,,,,,,,,,,,,,,,,,
34,0,,html-keyboard-response,34,776526,0.0-4.1-3.1,bftdpqgnj6q,2022-09-19 17:56:58.354,60573290a0b07d401c4e61e0,1,85,71,49,22,24,Male,,,"<p style=""font-size:50px"">You win!
+10 points this round!</p>",,,,,,,,,,,,,,,,,,,,,,,,,,,,
35,0,,html-keyboard-response,35,777033,0.0-4.1-4.1,bftdpqgnj6q,2022-09-19 17:56:58.354,60573290a0b07d401c4e61e0,1,85,71,49,22,24,Male,,,,,,1.0,learning,1.0,B,,black,,moons,,,,B,black,moons,,0.0,1.0,0,right,1073.8,8.0,1.0,1.0,,,
36,0,,html-keyboard-response,36,778534,0.0-4.2-0.2,bftdpqgnj6q,2022-09-19 17:56:58.354,60573290a0b07d401c4e61e0,1,85,71,49,22,24,Male,,,"<img src=""static/images/cards/stack_of_red_stars.svg"" width=""175px"" height=""250px""></img>",,,,,,,,,,,,,,,,,,,,,,,,,,,,
37,0,,html-keyboard-response,37,780081,0.0-4.2-1.2,bftdpqgnj6q,2022-09-19 17:56:58.354,60573290a0b07d401c4e61e0,1,85,71,49,22,24,Male,1043.2999999998,,"
  <table>
  <tr height=300>
    <td width=300 height=300><img src=""static/images/cards/back_of_red_stars.svg"" width=""175px"" height=""250px""></img></td>
    <td width=300 height=300><img src=""static/images/cards/back_of_red_stars.svg"" width=""175px"" height=""250px""></img></td>
  </tr>
  <tr height=200>
    <td width=300><img src=""static/images/keys/z.svg"" width=""35%"" height=""75%""></img></td>
    <td width=300><img src=""static/images/keys/m.svg"" width=""35%"" height=""75%""></img></td>
  </tr>
</table>
  ",90.0,1.0,,,,,,,,,,,,,,,,,,,,,,,,,,
38,0,,html-keyboard-response,38,781582,0.0-4.2-2.2,bftdpqgnj6q,2022-09-19 17:56:58.354,60573290a0b07d401c4e61e0,1,85,71,49,22,24,Male,,,"
  <table>
  <tr height=300>
    <td width=300 height=300><img src=""static/images/cards/6_of_red_stars.svg"" width=""175px"" height=""250px""></img></td>
    <td width=300 height=300><img src=""static/images/cards/back_of_red_stars.svg"" width=""175px"" height=""250px""></img></td>
  </tr>
  <tr height=200>
    <td width=300><img src=""static/images/keys/z.svg"" width=""35%"" height=""75%""></img></td>
    <td width=300><img src=""static/images/keys/m.svg"" width=""35%"" height=""75%""></img></td>
  </tr>
</table>
  ",,,,,,,,,,,,,,,,,,,,,,,,,,,,
39,0,,html-keyboard-response,39,783085,0.0-4.2-3.2,bftdpqgnj6q,2022-09-19 17:56:58.354,60573290a0b07d401c4e61e0,1,85,71,49,22,24,Male,,,"<p style=""font-size:50px"">You win!
+10 points this round!</p>",,,,,,,,,,,,,,,,,,,,,,,,,,,,
40,0,,html-keyboard-response,40,783591,0.0-4.2-4.2,bftdpqgnj6q,2022-09-19 17:56:58.354,60573290a0b07d401c4e61e0,1,85,71,49,22,24,Male,,,,,,1.0,learning,2.0,C,,red,,stars,,,,C,red,stars,,1.0,0.0,NA,left,1043.2999999998,6.0,1.0,1.0,,,
41,0,,html-keyboard-response,41,785092,0.0-4.3-0.3,bftdpqgnj6q,2022-09-19 17:56:58.354,60573290a0b07d401c4e61e0,1,85,71,49,22,24,Male,,,"<img src=""static/images/cards/stack_of_black_stars.svg"" width=""175px"" height=""250px""></img>",,,,,,,,,,,,,,,,,,,,,,,,,,,,
42,0,,html-keyboard-response,42,786307,0.0-4.3-1.3,bftdpqgnj6q,2022-09-19 17:56:58.354,60573290a0b07d401c4e61e0,1,85,71,49,22,24,Male,712.9000000001,,"
  <table>
  <tr height=300>
    <td width=300 height=300><img src=""static/images/cards/back_of_black_stars.svg"" width=""175px"" height=""250px""></img></td>
    <td width=300 height=300><img src=""static/images/cards/back_of_black_stars.svg"" width=""175px"" height=""250px""></img></td>
  </tr>
  <tr height=200>
    <td width=300><img src=""static/images/keys/z.svg"" width=""35%"" height=""75%""></img></td>
    <td width=300></td>
  </tr>
</table>
  ",90.0,1.0,,,,,,,,,,,,,,,,,,,,,,,,,,
43,0,,html-keyboard-response,43,787809,0.0-4.3-2.3,bftdpqgnj6q,2022-09-19 17:56:58.354,60573290a0b07d401c4e61e0,1,85,71,49,22,24,Male,,,"
  <table>
  <tr height=300>
    <td width=300 height=300><img src=""static/images/cards/7_of_black_stars.svg"" width=""175px"" height=""250px""></img></td>
    <td width=300 height=300><img src=""static/images/cards/back_of_black_stars.svg"" width=""175px"" height=""250px""></img></td>
  </tr>
  <tr height=200>
    <td width=300><img src=""static/images/keys/z.svg"" width=""35%"" height=""75%""></img></td>
    <td width=300></td>
  </tr>
</table>
  ",,,,,,,,,,,,,,,,,,,,,,,,,,,,
44,0,,html-keyboard-response,44,789311,0.0-4.3-3.3,bftdpqgnj6q,2022-09-19 17:56:58.354,60573290a0b07d401c4e61e0,1,85,71,49,22,24,Male,,,"<p style=""font-size:50px"">You Lose!
No points this round.</p>",,,,,,,,,,,,,,,,,,,,,,,,,,,,
45,0,,html-keyboard-response,45,789818,0.0-4.3-4.3,bftdpqgnj6q,2022-09-19 17:56:58.354,60573290a0b07d401c4e61e0,1,85,71,49,22,24,Male,,,,,,1.0,learning,3.0,D,,black,,stars,,,,D,black,stars,,0.0,0.0,1,left,712.9000000001,7.0,1.0,0.0,,,
46,0,,html-keyboard-response,46,791319,0.0-4.4-0.4,bftdpqgnj6q,2022-09-19 17:56:58.354,60573290a0b07d401c4e61e0,1,85,71,49,22,24,Male,,,"<img src=""static/images/cards/stack_of_red_bolts.svg"" width=""175px"" height=""250px""></img>",,,,,,,,,,,,,,,,,,,,,,,,,,,,
47,0,,html-keyboard-response,47,792682,0.0-4.4-1.4,bftdpqgnj6q,2022-09-19 17:56:58.354,60573290a0b07d401c4e61e0,1,85,71,49,22,24,Male,861.6000000001,,"
  <table>
  <tr height=300>
    <td width=300 height=300><img src=""static/images/cards/back_of_red_bolts.svg"" width=""175px"" height=""250px""></img></td>
    <td width=300 height=300><img src=""static/images/cards/back_of_red_bolts.svg"" width=""175px"" height=""250px""></img></td>
  </tr>
  <tr height=200>
    <td width=300><img src=""static/images/keys/z.svg"" width=""35%"" height=""75%""></img></td>
    <td width=300><img src=""static/images/keys/m.svg"" width=""35%"" height=""75%""></img></td>
  </tr>
</table>
  ",90.0,1.0,,,,,,,,,,,,,,,,,,,,,,,,,,
48,0,,html-keyboard-response,48,794184,0.0-4.4-2.4,bftdpqgnj6q,2022-09-19 17:56:58.354,60573290a0b07d401c4e61e0,1,85,71,49,22,24,Male,,,"
  <table>
  <tr height=300>
    <td width=300 height=300><img src=""static/images/cards/9_of_red_bolts.svg"" width=""175px"" height=""250px""></img></td>
    <td width=300 height=300><img src=""static/images/cards/back_of_red_bolts.svg"" width=""175px"" height=""250px""></img></td>
  </tr>
  <tr height=200>
    <td width=300><img src=""static/images/keys/z.svg"" width=""35%"" height=""75%""></img></td>
    <td width=300><img src=""static/images/keys/m.svg"" width=""35%"" height=""75%""></img></td>
  </tr>
</table>
  ",,,,,,,,,,,,,,,,,,,,,,,,,,,,
49,0,,html-keyboard-response,49,795687,0.0-4.4-3.4,bftdpqgnj6q,2022-09-19 17:56:58.354,60573290a0b07d401c4e61e0,1,85,71,49,22,24,Male,,,"<p style=""font-size:50px"">You win!
+10 points this round!</p>",,,,,,,,,,,,,,,,,,,,,,,,,,,,
50,0,,html-keyboard-response,50,796193,0.0-4.4-4.4,bftdpqgnj6q,2022-09-19 17:56:58.354,60573290a0b07d401c4e61e0,1,85,71,49,22,24,Male,,,,,,1.0,learning,4.0,Xc,,red,,bolts,,,,Xc,red,bolts,,1.0,0.0,NA,left,861.6000000001,9.0,1.0,1.0,,,
51,0,,html-keyboard-response,51,797695,0.0-4.5-0.5,bftdpqgnj6q,2022-09-19 17:56:58.354,60573290a0b07d401c4e61e0,1,85,71,49,22,24,Male,,,"<img src=""static/images/cards/stack_of_black_bolts.svg"" width=""175px"" height=""250px""></img>",,,,,,,,,,,,,,,,,,,,,,,,,,,,
52,0,,html-keyboard-response,52,798837,0.0-4.5-1.5,bftdpqgnj6q,2022-09-19 17:56:58.354,60573290a0b07d401c4e61e0,1,85,71,49,22,24,Male,641.7,,"
  <table>
  <tr height=300>
    <td width=300 height=300><img src=""static/images/cards/back_of_black_bolts.svg"" width=""175px"" height=""250px""></img></td>
    <td width=300 height=300><img src=""static/images/cards/back_of_black_bolts.svg"" width=""175px"" height=""250px""></img></td>
  </tr>
  <tr height=200>
    <td width=300><img src=""static/images/keys/z.svg"" width=""35%"" height=""75%""></img></td>
    <td width=300></td>
  </tr>
</table>
  ",90.0,1.0,,,,,,,,,,,,,,,,,,,,,,,,,,
53,0,,html-keyboard-response,53,800339,0.0-4.5-2.5,bftdpqgnj6q,2022-09-19 17:56:58.354,60573290a0b07d401c4e61e0,1,85,71,49,22,24,Male,,,"
  <table>
  <tr height=300>
    <td width=300 height=300><img src=""static/images/cards/6_of_black_bolts.svg"" width=""175px"" height=""250px""></img></td>
    <td width=300 height=300><img src=""static/images/cards/back_of_black_bolts.svg"" width=""175px"" height=""250px""></img></td>
  </tr>
  <tr height=200>
    <td width=300><img src=""static/images/keys/z.svg"" width=""35%"" height=""75%""></img></td>
    <td width=300></td>
  </tr>
</table>
  ",,,,,,,,,,,,,,,,,,,,,,,,,,,,
54,0,,html-keyboard-response,54,801841,0.0-4.5-3.5,bftdpqgnj6q,2022-09-19 17:56:58.354,60573290a0b07d401c4e61e0,1,85,71,49,22,24,Male,,,"<p style=""font-size:50px"">You win!
+10 points this round!</p>",,,,,,,,,,,,,,,,,,,,,,,,,,,,
55,0,,html-keyboard-response,55,802348,0.0-4.5-4.5,bftdpqgnj6q,2022-09-19 17:56:58.354,60573290a0b07d401c4e61e0,1,85,71,49,22,24,Male,,,,,,1.0,learning,5.0,Xnc,,black,,bolts,,,,Xnc,black,bolts,,0.0,0.0,1,left,641.7,6.0,1.0,1.0,,,
56,0,,html-keyboard-response,56,803849,0.0-4.6-0.6,bftdpqgnj6q,2022-09-19 17:56:58.354,60573290a0b07d401c4e61e0,1,85,71,49,22,24,Male,,,"<img src=""static/images/cards/stack_of_red_moons.svg"" width=""175px"" height=""250px""></img>",,,,,,,,,,,,,,,,,,,,,,,,,,,,
57,0,,html-keyboard-response,57,805483,0.0-4.6-1.6,bftdpqgnj6q,2022-09-19 17:56:58.354,60573290a0b07d401c4e61e0,1,85,71,49,22,24,Male,1132.5,,"
  <table>
  <tr height=300>
    <td width=300 height=300><img src=""static/images/cards/back_of_red_moons.svg"" width=""175px"" height=""250px""></img></td>
    <td width=300 height=300><img src=""static/images/cards/back_of_red_moons.svg"" width=""175px"" height=""250px""></img></td>
  </tr>
  <tr height=200>
    <td width=300><img src=""static/images/keys/z.svg"" width=""35%"" height=""75%""></img></td>
    <td width=300><img src=""static/images/keys/m.svg"" width=""35%"" height=""75%""></img></td>
  </tr>
</table>
  ",77.0,1.0,,,,,,,,,,,,,,,,,,,,,,,,,,
58,0,,html-keyboard-response,58,806985,0.0-4.6-2.6,bftdpqgnj6q,2022-09-19 17:56:58.354,60573290a0b07d401c4e61e0,1,85,71,49,22,24,Male,,,"
  <table>
  <tr height=300>
    <td width=300 height=300><img src=""static/images/cards/back_of_red_moons.svg"" width=""175px"" height=""250px""></img></td>
    <td width=300 height=300><img src=""static/images/cards/2_of_red_moons.svg"" width=""175px"" height=""250px""></img></td>
  </tr>
  <tr height=200>
    <td width=300><img src=""static/images/keys/z.svg"" width=""35%"" height=""75%""></img></td>
    <td width=300><img src=""static/images/keys/m.svg"" width=""35%"" height=""75%""></img></td>
  </tr>
</table>
  ",,,,,,,,,,,,,,,,,,,,,,,,,,,,
59,0,,html-keyboard-response,59,808487,0.0-4.6-3.6,bftdpqgnj6q,2022-09-19 17:56:58.354,60573290a0b07d401c4e61e0,1,85,71,49,22,24,Male,,,"<p style=""font-size:50px"">You Lose!
No points this round.</p>",,,,,,,,,,,,,,,,,,,,,,,,,,,,
60,0,,html-keyboard-response,60,808993,0.0-4.6-4.6,bftdpqgnj6q,2022-09-19 17:56:58.354,60573290a0b07d401c4e61e0,1,85,71,49,22,24,Male,,,,,,1.0,learning,6.0,A,,red,,moons,,,,A,red,moons,,1.0,1.0,NA,right,1132.5,2.0,0.0,0.0,,,
61,0,,html-keyboard-response,61,810494,0.0-4.7-0.7,bftdpqgnj6q,2022-09-19 17:56:58.354,60573290a0b07d401c4e61e0,1,85,71,49,22,24,Male,,,"<img src=""static/images/cards/stack_of_black_moons.svg"" width=""175px"" height=""250px""></img>",,,,,,,,,,,,,,,,,,,,,,,,,,,,
62,0,,html-keyboard-response,62,811816,0.0-4.7-1.7,bftdpqgnj6q,2022-09-19 17:56:58.354,60573290a0b07d401c4e61e0,1,85,71,49,22,24,Male,820.9000000001,,"
  <table>
  <tr height=300>
    <td width=300 height=300><img src=""static/images/cards/back_of_black_moons.svg"" width=""175px"" height=""250px""></img></td>
    <td width=300 height=300><img src=""static/images/cards/back_of_black_moons.svg"" width=""175px"" height=""250px""></img></td>
  </tr>
  <tr height=200>
    <td width=300></td>
    <td width=300><img src=""static/images/keys/m.svg"" width=""35%"" height=""75%""></img></td>
  </tr>
</table>
  ",77.0,1.0,,,,,,,,,,,,,,,,,,,,,,,,,,
63,0,,html-keyboard-response,63,813318,0.0-4.7-2.7,bftdpqgnj6q,2022-09-19 17:56:58.354,60573290a0b07d401c4e61e0,1,85,71,49,22,24,Male,,,"
  <table>
  <tr height=300>
    <td width=300 height=300><img src=""static/images/cards/back_of_black_moons.svg"" width=""175px"" height=""250px""></img></td>
    <td width=300 height=300><img src=""static/images/cards/8_of_black_moons.svg"" width=""175px"" height=""250px""></img></td>
  </tr>
  <tr height=200>
    <td width=300></td>
    <td width=300><img src=""static/images/keys/m.svg"" width=""35%"" height=""75%""></img></td>
  </tr>
</table>
  ",,,,,,,,,,,,,,,,,,,,,,,,,,,,
64,0,,html-keyboard-response,64,814821,0.0-4.7-3.7,bftdpqgnj6q,2022-09-19 17:56:58.354,60573290a0b07d401c4e61e0,1,85,71,49,22,24,Male,,,"<p style=""font-size:50px"">You win!
+10 points this round!</p>",,,,,,,,,,,,,,,,,,,,,,,,,,,,
65,0,,html-keyboard-response,65,815327,0.0-4.7-4.7,bftdpqgnj6q,2022-09-19 17:56:58.354,60573290a0b07d401c4e61e0,1,85,71,49,22,24,Male,,,,,,1.0,learning,7.0,B,,black,,moons,,,,B,black,moons,,0.0,1.0,0,right,820.9000000001,8.0,1.0,1.0,,,
66,0,,html-keyboard-response,66,816827,0.0-4.8-0.8,bftdpqgnj6q,2022-09-19 17:56:58.354,60573290a0b07d401c4e61e0,1,85,71,49,22,24,Male,,,"<img src=""static/images/cards/stack_of_red_stars.svg"" width=""175px"" height=""250px""></img>",,,,,,,,,,,,,,,,,,,,,,,,,,,,
67,0,,html-keyboard-response,67,818068,0.0-4.8-1.8,bftdpqgnj6q,2022-09-19 17:56:58.354,60573290a0b07d401c4e61e0,1,85,71,49,22,24,Male,739.2999999998,,"
  <table>
  <tr height=300>
    <td width=300 height=300><img src=""static/images/cards/back_of_red_stars.svg"" width=""175px"" height=""250px""></img></td>
    <td width=300 height=300><img src=""static/images/cards/back_of_red_stars.svg"" width=""175px"" height=""250px""></img></td>
  </tr>
  <tr height=200>
    <td width=300><img src=""static/images/keys/z.svg"" width=""35%"" height=""75%""></img></td>
    <td width=300><img src=""static/images/keys/m.svg"" width=""35%"" height=""75%""></img></td>
  </tr>
</table>
  ",90.0,1.0,,,,,,,,,,,,,,,,,,,,,,,,,,
68,0,,html-keyboard-response,68,819569,0.0-4.8-2.8,bftdpqgnj6q,2022-09-19 17:56:58.354,60573290a0b07d401c4e61e0,1,85,71,49,22,24,Male,,,"
  <table>
  <tr height=300>
    <td width=300 height=300><img src=""static/images/cards/4_of_red_stars.svg"" width=""175px"" height=""250px""></img></td>
    <td width=300 height=300><img src=""static/images/cards/back_of_red_stars.svg"" width=""175px"" height=""250px""></img></td>
  </tr>
  <tr height=200>
    <td width=300><img src=""static/images/keys/z.svg"" width=""35%"" height=""75%""></img></td>
    <td width=300><img src=""static/images/keys/m.svg"" width=""35%"" height=""75%""></img></td>
  </tr>
</table>
  ",,,,,,,,,,,,,,,,,,,,,,,,,,,,
69,0,,html-keyboard-response,69,821071,0.0-4.8-3.8,bftdpqgnj6q,2022-09-19 17:56:58.354,60573290a0b07d401c4e61e0,1,85,71,49,22,24,Male,,,"<p style=""font-size:50px"">You win!
+10 points this round!</p>",,,,,,,,,,,,,,,,,,,,,,,,,,,,
70,0,,html-keyboard-response,70,821578,0.0-4.8-4.8,bftdpqgnj6q,2022-09-19 17:56:58.354,60573290a0b07d401c4e61e0,1,85,71,49,22,24,Male,,,,,,1.0,learning,8.0,C,,red,,stars,,,,C,red,stars,,1.0,0.0,NA,left,739.2999999998,4.0,0.0,1.0,,,
71,0,,html-keyboard-response,71,823079,0.0-4.9-0.9,bftdpqgnj6q,2022-09-19 17:56:58.354,60573290a0b07d401c4e61e0,1,85,71,49,22,24,Male,,,"<img src=""static/images/cards/stack_of_black_stars.svg"" width=""175px"" height=""250px""></img>",,,,,,,,,,,,,,,,,,,,,,,,,,,,
72,0,,html-keyboard-response,72,824185,0.0-4.9-1.9,bftdpqgnj6q,2022-09-19 17:56:58.354,60573290a0b07d401c4e61e0,1,85,71,49,22,24,Male,604.3999999999,,"
  <table>
  <tr height=300>
    <td width=300 height=300><img src=""static/images/cards/back_of_black_stars.svg"" width=""175px"" height=""250px""></img></td>
    <td width=300 height=300><img src=""static/images/cards/back_of_black_stars.svg"" width=""175px"" height=""250px""></img></td>
  </tr>
  <tr height=200>
    <td width=300><img src=""static/images/keys/z.svg"" width=""35%"" height=""75%""></img></td>
    <td width=300></td>
  </tr>
</table>
  ",90.0,1.0,,,,,,,,,,,,,,,,,,,,,,,,,,
73,0,,html-keyboard-response,73,825687,0.0-4.9-2.9,bftdpqgnj6q,2022-09-19 17:56:58.354,60573290a0b07d401c4e61e0,1,85,71,49,22,24,Male,,,"
  <table>
  <tr height=300>
    <td width=300 height=300><img src=""static/images/cards/3_of_black_stars.svg"" width=""175px"" height=""250px""></img></td>
    <td width=300 height=300><img src=""static/images/cards/back_of_black_stars.svg"" width=""175px"" height=""250px""></img></td>
  </tr>
  <tr height=200>
    <td width=300><img src=""static/images/keys/z.svg"" width=""35%"" height=""75%""></img></td>
    <td width=300></td>
  </tr>
</table>
  ",,,,,,,,,,,,,,,,,,,,,,,,,,,,
74,0,,html-keyboard-response,74,827190,0.0-4.9-3.9,bftdpqgnj6q,2022-09-19 17:56:58.354,60573290a0b07d401c4e61e0,1,85,71,49,22,24,Male,,,"<p style=""font-size:50px"">You Lose!
No points this round.</p>",,,,,,,,,,,,,,,,,,,,,,,,,,,,
75,0,,html-keyboard-response,75,827696,0.0-4.9-4.9,bftdpqgnj6q,2022-09-19 17:56:58.354,60573290a0b07d401c4e61e0,1,85,71,49,22,24,Male,,,,,,1.0,learning,9.0,D,,black,,stars,,,,D,black,stars,,0.0,0.0,1,left,604.3999999999,3.0,0.0,0.0,,,
76,0,,html-keyboard-response,76,829196,0.0-4.10-0.10,bftdpqgnj6q,2022-09-19 17:56:58.354,60573290a0b07d401c4e61e0,1,85,71,49,22,24,Male,,,"<img src=""static/images/cards/stack_of_red_bolts.svg"" width=""175px"" height=""250px""></img>",,,,,,,,,,,,,,,,,,,,,,,,,,,,
77,0,,html-keyboard-response,77,830374,0.0-4.10-1.10,bftdpqgnj6q,2022-09-19 17:56:58.354,60573290a0b07d401c4e61e0,1,85,71,49,22,24,Male,676.7,,"
  <table>
  <tr height=300>
    <td width=300 height=300><img src=""static/images/cards/back_of_red_bolts.svg"" width=""175px"" height=""250px""></img></td>
    <td width=300 height=300><img src=""static/images/cards/back_of_red_bolts.svg"" width=""175px"" height=""250px""></img></td>
  </tr>
  <tr height=200>
    <td width=300><img src=""static/images/keys/z.svg"" width=""35%"" height=""75%""></img></td>
    <td width=300><img src=""static/images/keys/m.svg"" width=""35%"" height=""75%""></img></td>
  </tr>
</table>
  ",77.0,1.0,,,,,,,,,,,,,,,,,,,,,,,,,,
78,0,,html-keyboard-response,78,831876,0.0-4.10-2.10,bftdpqgnj6q,2022-09-19 17:56:58.354,60573290a0b07d401c4e61e0,1,85,71,49,22,24,Male,,,"
  <table>
  <tr height=300>
    <td width=300 height=300><img src=""static/images/cards/back_of_red_bolts.svg"" width=""175px"" height=""250px""></img></td>
    <td width=300 height=300><img src=""static/images/cards/4_of_red_bolts.svg"" width=""175px"" height=""250px""></img></td>
  </tr>
  <tr height=200>
    <td width=300><img src=""static/images/keys/z.svg"" width=""35%"" height=""75%""></img></td>
    <td width=300><img src=""static/images/keys/m.svg"" width=""35%"" height=""75%""></img></td>
  </tr>
</table>
  ",,,,,,,,,,,,,,,,,,,,,,,,,,,,
79,0,,html-keyboard-response,79,833378,0.0-4.10-3.10,bftdpqgnj6q,2022-09-19 17:56:58.354,60573290a0b07d401c4e61e0,1,85,71,49,22,24,Male,,,"<p style=""font-size:50px"">You win!
+10 points this round!</p>",,,,,,,,,,,,,,,,,,,,,,,,,,,,
80,0,,html-keyboard-response,80,833884,0.0-4.10-4.10,bftdpqgnj6q,2022-09-19 17:56:58.354,60573290a0b07d401c4e61e0,1,85,71,49,22,24,Male,,,,,,1.0,learning,10.0,Xc,,red,,bolts,,,,Xc,red,bolts,,1.0,0.0,NA,right,676.7,4.0,0.0,1.0,,,
81,0,,html-keyboard-response,81,835385,0.0-4.11-0.11,bftdpqgnj6q,2022-09-19 17:56:58.354,60573290a0b07d401c4e61e0,1,85,71,49,22,24,Male,,,"<img src=""static/images/cards/stack_of_black_bolts.svg"" width=""175px"" height=""250px""></img>",,,,,,,,,,,,,,,,,,,,,,,,,,,,
82,0,,html-keyboard-response,82,836227,0.0-4.11-1.11,bftdpqgnj6q,2022-09-19 17:56:58.354,60573290a0b07d401c4e61e0,1,85,71,49,22,24,Male,341.2,,"
  <table>
  <tr height=300>
    <td width=300 height=300><img src=""static/images/cards/back_of_black_bolts.svg"" width=""175px"" height=""250px""></img></td>
    <td width=300 height=300><img src=""static/images/cards/back_of_black_bolts.svg"" width=""175px"" height=""250px""></img></td>
  </tr>
  <tr height=200>
    <td width=300></td>
    <td width=300><img src=""static/images/keys/m.svg"" width=""35%"" height=""75%""></img></td>
  </tr>
</table>
  ",77.0,1.0,,,,,,,,,,,,,,,,,,,,,,,,,,
83,0,,html-keyboard-response,83,837729,0.0-4.11-2.11,bftdpqgnj6q,2022-09-19 17:56:58.354,60573290a0b07d401c4e61e0,1,85,71,49,22,24,Male,,,"
  <table>
  <tr height=300>
    <td width=300 height=300><img src=""static/images/cards/back_of_black_bolts.svg"" width=""175px"" height=""250px""></img></td>
    <td width=300 height=300><img src=""static/images/cards/1_of_black_bolts.svg"" width=""175px"" height=""250px""></img></td>
  </tr>
  <tr height=200>
    <td width=300></td>
    <td width=300><img src=""static/images/keys/m.svg"" width=""35%"" height=""75%""></img></td>
  </tr>
</table>
  ",,,,,,,,,,,,,,,,,,,,,,,,,,,,
84,0,,html-keyboard-response,84,839231,0.0-4.11-3.11,bftdpqgnj6q,2022-09-19 17:56:58.354,60573290a0b07d401c4e61e0,1,85,71,49,22,24,Male,,,"<p style=""font-size:50px"">You win!
+10 points this round!</p>",,,,,,,,,,,,,,,,,,,,,,,,,,,,
85,0,,html-keyboard-response,85,839737,0.0-4.11-4.11,bftdpqgnj6q,2022-09-19 17:56:58.354,60573290a0b07d401c4e61e0,1,85,71,49,22,24,Male,,,,,,1.0,learning,11.0,Xnc,,black,,bolts,,,,Xnc,black,bolts,,0.0,0.0,0,right,341.2,1.0,0.0,1.0,,,
86,0,,html-keyboard-response,86,841238,0.0-4.12-0.12,bftdpqgnj6q,2022-09-19 17:56:58.354,60573290a0b07d401c4e61e0,1,85,71,49,22,24,Male,,,"<img src=""static/images/cards/stack_of_red_moons.svg"" width=""175px"" height=""250px""></img>",,,,,,,,,,,,,,,,,,,,,,,,,,,,
87,0,,html-keyboard-response,87,842432,0.0-4.12-1.12,bftdpqgnj6q,2022-09-19 17:56:58.354,60573290a0b07d401c4e61e0,1,85,71,49,22,24,Male,692.9000000001,,"
  <table>
  <tr height=300>
    <td width=300 height=300><img src=""static/images/cards/back_of_red_moons.svg"" width=""175px"" height=""250px""></img></td>
    <td width=300 height=300><img src=""static/images/cards/back_of_red_moons.svg"" width=""175px"" height=""250px""></img></td>
  </tr>
  <tr height=200>
    <td width=300><img src=""static/images/keys/z.svg"" width=""35%"" height=""75%""></img></td>
    <td width=300><img src=""static/images/keys/m.svg"" width=""35%"" height=""75%""></img></td>
  </tr>
</table>
  ",77.0,1.0,,,,,,,,,,,,,,,,,,,,,,,,,,
88,0,,html-keyboard-response,88,843934,0.0-4.12-2.12,bftdpqgnj6q,2022-09-19 17:56:58.354,60573290a0b07d401c4e61e0,1,85,71,49,22,24,Male,,,"
  <table>
  <tr height=300>
    <td width=300 height=300><img src=""static/images/cards/back_of_red_moons.svg"" width=""175px"" height=""250px""></img></td>
    <td width=300 height=300><img src=""static/images/cards/10_of_red_moons.svg"" width=""175px"" height=""250px""></img></td>
  </tr>
  <tr height=200>
    <td width=300><img src=""static/images/keys/z.svg"" width=""35%"" height=""75%""></img></td>
    <td width=300><img src=""static/images/keys/m.svg"" width=""35%"" height=""75%""></img></td>
  </tr>
</table>
  ",,,,,,,,,,,,,,,,,,,,,,,,,,,,
89,0,,html-keyboard-response,89,845435,0.0-4.12-3.12,bftdpqgnj6q,2022-09-19 17:56:58.354,60573290a0b07d401c4e61e0,1,85,71,49,22,24,Male,,,"<p style=""font-size:50px"">You win!
+10 points this round!</p>",,,,,,,,,,,,,,,,,,,,,,,,,,,,
90,0,,html-keyboard-response,90,845942,0.0-4.12-4.12,bftdpqgnj6q,2022-09-19 17:56:58.354,60573290a0b07d401c4e61e0,1,85,71,49,22,24,Male,,,,,,1.0,learning,12.0,A,,red,,moons,,,,A,red,moons,,1.0,1.0,NA,right,692.9000000001,10.0,1.0,1.0,,,
91,0,,html-keyboard-response,91,847443,0.0-4.13-0.13,bftdpqgnj6q,2022-09-19 17:56:58.354,60573290a0b07d401c4e61e0,1,85,71,49,22,24,Male,,,"<img src=""static/images/cards/stack_of_black_moons.svg"" width=""175px"" height=""250px""></img>",,,,,,,,,,,,,,,,,,,,,,,,,,,,
92,0,,html-keyboard-response,92,848299,0.0-4.13-1.13,bftdpqgnj6q,2022-09-19 17:56:58.354,60573290a0b07d401c4e61e0,1,85,71,49,22,24,Male,354.5,,"
  <table>
  <tr height=300>
    <td width=300 height=300><img src=""static/images/cards/back_of_black_moons.svg"" width=""175px"" height=""250px""></img></td>
    <td width=300 height=300><img src=""static/images/cards/back_of_black_moons.svg"" width=""175px"" height=""250px""></img></td>
  </tr>
  <tr height=200>
    <td width=300></td>
    <td width=300><img src=""static/images/keys/m.svg"" width=""35%"" height=""75%""></img></td>
  </tr>
</table>
  ",77.0,1.0,,,,,,,,,,,,,,,,,,,,,,,,,,
93,0,,html-keyboard-response,93,849801,0.0-4.13-2.13,bftdpqgnj6q,2022-09-19 17:56:58.354,60573290a0b07d401c4e61e0,1,85,71,49,22,24,Male,,,"
  <table>
  <tr height=300>
    <td width=300 height=300><img src=""static/images/cards/back_of_black_moons.svg"" width=""175px"" height=""250px""></img></td>
    <td width=300 height=300><img src=""static/images/cards/4_of_black_moons.svg"" width=""175px"" height=""250px""></img></td>
  </tr>
  <tr height=200>
    <td width=300></td>
    <td width=300><img src=""static/images/keys/m.svg"" width=""35%"" height=""75%""></img></td>
  </tr>
</table>
  ",,,,,,,,,,,,,,,,,,,,,,,,,,,,
94,0,,html-keyboard-response,94,851302,0.0-4.13-3.13,bftdpqgnj6q,2022-09-19 17:56:58.354,60573290a0b07d401c4e61e0,1,85,71,49,22,24,Male,,,"<p style=""font-size:50px"">You Lose!
No points this round.</p>",,,,,,,,,,,,,,,,,,,,,,,,,,,,
95,0,,html-keyboard-response,95,851808,0.0-4.13-4.13,bftdpqgnj6q,2022-09-19 17:56:58.354,60573290a0b07d401c4e61e0,1,85,71,49,22,24,Male,,,,,,1.0,learning,13.0,B,,black,,moons,,,,B,black,moons,,0.0,1.0,0,right,354.5,4.0,0.0,0.0,,,
96,0,,html-keyboard-response,96,853310,0.0-4.14-0.14,bftdpqgnj6q,2022-09-19 17:56:58.354,60573290a0b07d401c4e61e0,1,85,71,49,22,24,Male,,,"<img src=""static/images/cards/stack_of_red_stars.svg"" width=""175px"" height=""250px""></img>",,,,,,,,,,,,,,,,,,,,,,,,,,,,
97,0,,html-keyboard-response,97,854488,0.0-4.14-1.14,bftdpqgnj6q,2022-09-19 17:56:58.354,60573290a0b07d401c4e61e0,1,85,71,49,22,24,Male,677.0,,"
  <table>
  <tr height=300>
    <td width=300 height=300><img src=""static/images/cards/back_of_red_stars.svg"" width=""175px"" height=""250px""></img></td>
    <td width=300 height=300><img src=""static/images/cards/back_of_red_stars.svg"" width=""175px"" height=""250px""></img></td>
  </tr>
  <tr height=200>
    <td width=300><img src=""static/images/keys/z.svg"" width=""35%"" height=""75%""></img></td>
    <td width=300><img src=""static/images/keys/m.svg"" width=""35%"" height=""75%""></img></td>
  </tr>
</table>
  ",90.0,1.0,,,,,,,,,,,,,,,,,,,,,,,,,,
98,0,,html-keyboard-response,98,855990,0.0-4.14-2.14,bftdpqgnj6q,2022-09-19 17:56:58.354,60573290a0b07d401c4e61e0,1,85,71,49,22,24,Male,,,"
  <table>
  <tr height=300>
    <td width=300 height=300><img src=""static/images/cards/4_of_red_stars.svg"" width=""175px"" height=""250px""></img></td>
    <td width=300 height=300><img src=""static/images/cards/back_of_red_stars.svg"" width=""175px"" height=""250px""></img></td>
  </tr>
  <tr height=200>
    <td width=300><img src=""static/images/keys/z.svg"" width=""35%"" height=""75%""></img></td>
    <td width=300><img src=""static/images/keys/m.svg"" width=""35%"" height=""75%""></img></td>
  </tr>
</table>
  ",,,,,,,,,,,,,,,,,,,,,,,,,,,,
99,0,,html-keyboard-response,99,857492,0.0-4.14-3.14,bftdpqgnj6q,2022-09-19 17:56:58.354,60573290a0b07d401c4e61e0,1,85,71,49,22,24,Male,,,"<p style=""font-size:50px"">You Lose!
No points this round.</p>",,,,,,,,,,,,,,,,,,,,,,,,,,,,
100,0,,html-keyboard-response,100,857998,0.0-4.14-4.14,bftdpqgnj6q,2022-09-19 17:56:58.354,60573290a0b07d401c4e61e0,1,85,71,49,22,24,Male,,,,,,1.0,learning,14.0,C,,red,,stars,,,,C,red,stars,,1.0,0.0,NA,left,677.0,4.0,0.0,0.0,,,
101,0,,html-keyboard-response,101,859499,0.0-4.15-0.15,bftdpqgnj6q,2022-09-19 17:56:58.354,60573290a0b07d401c4e61e0,1,85,71,49,22,24,Male,,,"<img src=""static/images/cards/stack_of_black_stars.svg"" width=""175px"" height=""250px""></img>",,,,,,,,,,,,,,,,,,,,,,,,,,,,
102,0,,html-keyboard-response,102,860475,0.0-4.15-1.15,bftdpqgnj6q,2022-09-19 17:56:58.354,60573290a0b07d401c4e61e0,1,85,71,49,22,24,Male,474.3999999999,,"
  <table>
  <tr height=300>
    <td width=300 height=300><img src=""static/images/cards/back_of_black_stars.svg"" width=""175px"" height=""250px""></img></td>
    <td width=300 height=300><img src=""static/images/cards/back_of_black_stars.svg"" width=""175px"" height=""250px""></img></td>
  </tr>
  <tr height=200>
    <td width=300></td>
    <td width=300><img src=""static/images/keys/m.svg"" width=""35%"" height=""75%""></img></td>
  </tr>
</table>
  ",77.0,1.0,,,,,,,,,,,,,,,,,,,,,,,,,,
103,0,,html-keyboard-response,103,861977,0.0-4.15-2.15,bftdpqgnj6q,2022-09-19 17:56:58.354,60573290a0b07d401c4e61e0,1,85,71,49,22,24,Male,,,"
  <table>
  <tr height=300>
    <td width=300 height=300><img src=""static/images/cards/back_of_black_stars.svg"" width=""175px"" height=""250px""></img></td>
    <td width=300 height=300><img src=""static/images/cards/1_of_black_stars.svg"" width=""175px"" height=""250px""></img></td>
  </tr>
  <tr height=200>
    <td width=300></td>
    <td width=300><img src=""static/images/keys/m.svg"" width=""35%"" height=""75%""></img></td>
  </tr>
</table>
  ",,,,,,,,,,,,,,,,,,,,,,,,,,,,
104,0,,html-keyboard-response,104,863479,0.0-4.15-3.15,bftdpqgnj6q,2022-09-19 17:56:58.354,60573290a0b07d401c4e61e0,1,85,71,49,22,24,Male,,,"<p style=""font-size:50px"">You Lose!
No points this round.</p>",,,,,,,,,,,,,,,,,,,,,,,,,,,,
105,0,,html-keyboard-response,105,863987,0.0-4.15-4.15,bftdpqgnj6q,2022-09-19 17:56:58.354,60573290a0b07d401c4e61e0,1,85,71,49,22,24,Male,,,,,,1.0,learning,15.0,D,,black,,stars,,,,D,black,stars,,0.0,0.0,0,right,474.3999999999,1.0,0.0,0.0,,,
106,0,,html-keyboard-response,106,865488,0.0-4.16-0.16,bftdpqgnj6q,2022-09-19 17:56:58.354,60573290a0b07d401c4e61e0,1,85,71,49,22,24,Male,,,"<img src=""static/images/cards/stack_of_red_bolts.svg"" width=""175px"" height=""250px""></img>",,,,,,,,,,,,,,,,,,,,,,,,,,,,
107,0,,html-keyboard-response,107,866406,0.0-4.16-1.16,bftdpqgnj6q,2022-09-19 17:56:58.354,60573290a0b07d401c4e61e0,1,85,71,49,22,24,Male,417.2999999998,,"
  <table>
  <tr height=300>
    <td width=300 height=300><img src=""static/images/cards/back_of_red_bolts.svg"" width=""175px"" height=""250px""></img></td>
    <td width=300 height=300><img src=""static/images/cards/back_of_red_bolts.svg"" width=""175px"" height=""250px""></img></td>
  </tr>
  <tr height=200>
    <td width=300><img src=""static/images/keys/z.svg"" width=""35%"" height=""75%""></img></td>
    <td width=300><img src=""static/images/keys/m.svg"" width=""35%"" height=""75%""></img></td>
  </tr>
</table>
  ",90.0,1.0,,,,,,,,,,,,,,,,,,,,,,,,,,
108,0,,html-keyboard-response,108,867908,0.0-4.16-2.16,bftdpqgnj6q,2022-09-19 17:56:58.354,60573290a0b07d401c4e61e0,1,85,71,49,22,24,Male,,,"
  <table>
  <tr height=300>
    <td width=300 height=300><img src=""static/images/cards/2_of_red_bolts.svg"" width=""175px"" height=""250px""></img></td>
    <td width=300 height=300><img src=""static/images/cards/back_of_red_bolts.svg"" width=""175px"" height=""250px""></img></td>
  </tr>
  <tr height=200>
    <td width=300><img src=""static/images/keys/z.svg"" width=""35%"" height=""75%""></img></td>
    <td width=300><img src=""static/images/keys/m.svg"" width=""35%"" height=""75%""></img></td>
  </tr>
</table>
  ",,,,,,,,,,,,,,,,,,,,,,,,,,,,
109,0,,html-keyboard-response,109,869411,0.0-4.16-3.16,bftdpqgnj6q,2022-09-19 17:56:58.354,60573290a0b07d401c4e61e0,1,85,71,49,22,24,Male,,,"<p style=""font-size:50px"">You win!
+10 points this round!</p>",,,,,,,,,,,,,,,,,,,,,,,,,,,,
110,0,,html-keyboard-response,110,869917,0.0-4.16-4.16,bftdpqgnj6q,2022-09-19 17:56:58.354,60573290a0b07d401c4e61e0,1,85,71,49,22,24,Male,,,,,,1.0,learning,16.0,Xc,,red,,bolts,,,,Xc,red,bolts,,1.0,0.0,NA,left,417.2999999998,2.0,0.0,1.0,,,
111,0,,html-keyboard-response,111,871418,0.0-4.17-0.17,bftdpqgnj6q,2022-09-19 17:56:58.354,60573290a0b07d401c4e61e0,1,85,71,49,22,24,Male,,,"<img src=""static/images/cards/stack_of_black_bolts.svg"" width=""175px"" height=""250px""></img>",,,,,,,,,,,,,,,,,,,,,,,,,,,,
112,0,,html-keyboard-response,112,872341,0.0-4.17-1.17,bftdpqgnj6q,2022-09-19 17:56:58.354,60573290a0b07d401c4e61e0,1,85,71,49,22,24,Male,421.7000000002,,"
  <table>
  <tr height=300>
    <td width=300 height=300><img src=""static/images/cards/back_of_black_bolts.svg"" width=""175px"" height=""250px""></img></td>
    <td width=300 height=300><img src=""static/images/cards/back_of_black_bolts.svg"" width=""175px"" height=""250px""></img></td>
  </tr>
  <tr height=200>
    <td width=300></td>
    <td width=300><img src=""static/images/keys/m.svg"" width=""35%"" height=""75%""></img></td>
  </tr>
</table>
  ",77.0,1.0,,,,,,,,,,,,,,,,,,,,,,,,,,
113,0,,html-keyboard-response,113,873842,0.0-4.17-2.17,bftdpqgnj6q,2022-09-19 17:56:58.354,60573290a0b07d401c4e61e0,1,85,71,49,22,24,Male,,,"
  <table>
  <tr height=300>
    <td width=300 height=300><img src=""static/images/cards/back_of_black_bolts.svg"" width=""175px"" height=""250px""></img></td>
    <td width=300 height=300><img src=""static/images/cards/1_of_black_bolts.svg"" width=""175px"" height=""250px""></img></td>
  </tr>
  <tr height=200>
    <td width=300></td>
    <td width=300><img src=""static/images/keys/m.svg"" width=""35%"" height=""75%""></img></td>
  </tr>
</table>
  ",,,,,,,,,,,,,,,,,,,,,,,,,,,,
114,0,,html-keyboard-response,114,875345,0.0-4.17-3.17,bftdpqgnj6q,2022-09-19 17:56:58.354,60573290a0b07d401c4e61e0,1,85,71,49,22,24,Male,,,"<p style=""font-size:50px"">You win!
+10 points this round!</p>",,,,,,,,,,,,,,,,,,,,,,,,,,,,
115,0,,html-keyboard-response,115,875851,0.0-4.17-4.17,bftdpqgnj6q,2022-09-19 17:56:58.354,60573290a0b07d401c4e61e0,1,85,71,49,22,24,Male,,,,,,1.0,learning,17.0,Xnc,,black,,bolts,,,,Xnc,black,bolts,,0.0,0.0,0,right,421.7000000002,1.0,0.0,1.0,,,
116,0,,html-keyboard-response,116,877352,0.0-4.18-0.18,bftdpqgnj6q,2022-09-19 17:56:58.354,60573290a0b07d401c4e61e0,1,85,71,49,22,24,Male,,,"<img src=""static/images/cards/stack_of_red_moons.svg"" width=""175px"" height=""250px""></img>",,,,,,,,,,,,,,,,,,,,,,,,,,,,
117,0,,html-keyboard-response,117,878509,0.0-4.18-1.18,bftdpqgnj6q,2022-09-19 17:56:58.354,60573290a0b07d401c4e61e0,1,85,71,49,22,24,Male,655.3999999999,,"
  <table>
  <tr height=300>
    <td width=300 height=300><img src=""static/images/cards/back_of_red_moons.svg"" width=""175px"" height=""250px""></img></td>
    <td width=300 height=300><img src=""static/images/cards/back_of_red_moons.svg"" width=""175px"" height=""250px""></img></td>
  </tr>
  <tr height=200>
    <td width=300><img src=""static/images/keys/z.svg"" width=""35%"" height=""75%""></img></td>
    <td width=300><img src=""static/images/keys/m.svg"" width=""35%"" height=""75%""></img></td>
  </tr>
</table>
  ",77.0,1.0,,,,,,,,,,,,,,,,,,,,,,,,,,
118,0,,html-keyboard-response,118,880011,0.0-4.18-2.18,bftdpqgnj6q,2022-09-19 17:56:58.354,60573290a0b07d401c4e61e0,1,85,71,49,22,24,Male,,,"
  <table>
  <tr height=300>
    <td width=300 height=300><img src=""static/images/cards/back_of_red_moons.svg"" width=""175px"" height=""250px""></img></td>
    <td width=300 height=300><img src=""static/images/cards/1_of_red_moons.svg"" width=""175px"" height=""250px""></img></td>
  </tr>
  <tr height=200>
    <td width=300><img src=""static/images/keys/z.svg"" width=""35%"" height=""75%""></img></td>
    <td width=300><img src=""static/images/keys/m.svg"" width=""35%"" height=""75%""></img></td>
  </tr>
</table>
  ",,,,,,,,,,,,,,,,,,,,,,,,,,,,
119,0,,html-keyboard-response,119,881513,0.0-4.18-3.18,bftdpqgnj6q,2022-09-19 17:56:58.354,60573290a0b07d401c4e61e0,1,85,71,49,22,24,Male,,,"<p style=""font-size:50px"">You Lose!
No points this round.</p>",,,,,,,,,,,,,,,,,,,,,,,,,,,,
120,0,,html-keyboard-response,120,882019,0.0-4.18-4.18,bftdpqgnj6q,2022-09-19 17:56:58.354,60573290a0b07d401c4e61e0,1,85,71,49,22,24,Male,,,,,,1.0,learning,18.0,A,,red,,moons,,,,A,red,moons,,1.0,1.0,NA,right,655.3999999999,1.0,0.0,0.0,,,
121,0,,html-keyboard-response,121,883521,0.0-4.19-0.19,bftdpqgnj6q,2022-09-19 17:56:58.354,60573290a0b07d401c4e61e0,1,85,71,49,22,24,Male,,,"<img src=""static/images/cards/stack_of_black_moons.svg"" width=""175px"" height=""250px""></img>",,,,,,,,,,,,,,,,,,,,,,,,,,,,
122,0,,html-keyboard-response,122,884595,0.0-4.19-1.19,bftdpqgnj6q,2022-09-19 17:56:58.354,60573290a0b07d401c4e61e0,1,85,71,49,22,24,Male,572.2000000002,,"
  <table>
  <tr height=300>
    <td width=300 height=300><img src=""static/images/cards/back_of_black_moons.svg"" width=""175px"" height=""250px""></img></td>
    <td width=300 height=300><img src=""static/images/cards/back_of_black_moons.svg"" width=""175px"" height=""250px""></img></td>
  </tr>
  <tr height=200>
    <td width=300><img src=""static/images/keys/z.svg"" width=""35%"" height=""75%""></img></td>
    <td width=300></td>
  </tr>
</table>
  ",90.0,1.0,,,,,,,,,,,,,,,,,,,,,,,,,,
123,0,,html-keyboard-response,123,886097,0.0-4.19-2.19,bftdpqgnj6q,2022-09-19 17:56:58.354,60573290a0b07d401c4e61e0,1,85,71,49,22,24,Male,,,"
  <table>
  <tr height=300>
    <td width=300 height=300><img src=""static/images/cards/1_of_black_moons.svg"" width=""175px"" height=""250px""></img></td>
    <td width=300 height=300><img src=""static/images/cards/back_of_black_moons.svg"" width=""175px"" height=""250px""></img></td>
  </tr>
  <tr height=200>
    <td width=300><img src=""static/images/keys/z.svg"" width=""35%"" height=""75%""></img></td>
    <td width=300></td>
  </tr>
</table>
  ",,,,,,,,,,,,,,,,,,,,,,,,,,,,
124,0,,html-keyboard-response,124,887599,0.0-4.19-3.19,bftdpqgnj6q,2022-09-19 17:56:58.354,60573290a0b07d401c4e61e0,1,85,71,49,22,24,Male,,,"<p style=""font-size:50px"">You Lose!
No points this round.</p>",,,,,,,,,,,,,,,,,,,,,,,,,,,,
125,0,,html-keyboard-response,125,888106,0.0-4.19-4.19,bftdpqgnj6q,2022-09-19 17:56:58.354,60573290a0b07d401c4e61e0,1,85,71,49,22,24,Male,,,,,,1.0,learning,19.0,B,,black,,moons,,,,B,black,moons,,0.0,1.0,1,left,572.2000000002,1.0,0.0,0.0,,,
126,0,,html-keyboard-response,126,889607,0.0-4.20-0.20,bftdpqgnj6q,2022-09-19 17:56:58.354,60573290a0b07d401c4e61e0,1,85,71,49,22,24,Male,,,"<img src=""static/images/cards/stack_of_red_stars.svg"" width=""175px"" height=""250px""></img>",,,,,,,,,,,,,,,,,,,,,,,,,,,,
127,0,,html-keyboard-response,127,890716,0.0-4.20-1.20,bftdpqgnj6q,2022-09-19 17:56:58.354,60573290a0b07d401c4e61e0,1,85,71,49,22,24,Male,607.7999999998,,"
  <table>
  <tr height=300>
    <td width=300 height=300><img src=""static/images/cards/back_of_red_stars.svg"" width=""175px"" height=""250px""></img></td>
    <td width=300 height=300><img src=""static/images/cards/back_of_red_stars.svg"" width=""175px"" height=""250px""></img></td>
  </tr>
  <tr height=200>
    <td width=300><img src=""static/images/keys/z.svg"" width=""35%"" height=""75%""></img></td>
    <td width=300><img src=""static/images/keys/m.svg"" width=""35%"" height=""75%""></img></td>
  </tr>
</table>
  ",90.0,1.0,,,,,,,,,,,,,,,,,,,,,,,,,,
128,0,,html-keyboard-response,128,892218,0.0-4.20-2.20,bftdpqgnj6q,2022-09-19 17:56:58.354,60573290a0b07d401c4e61e0,1,85,71,49,22,24,Male,,,"
  <table>
  <tr height=300>
    <td width=300 height=300><img src=""static/images/cards/7_of_red_stars.svg"" width=""175px"" height=""250px""></img></td>
    <td width=300 height=300><img src=""static/images/cards/back_of_red_stars.svg"" width=""175px"" height=""250px""></img></td>
  </tr>
  <tr height=200>
    <td width=300><img src=""static/images/keys/z.svg"" width=""35%"" height=""75%""></img></td>
    <td width=300><img src=""static/images/keys/m.svg"" width=""35%"" height=""75%""></img></td>
  </tr>
</table>
  ",,,,,,,,,,,,,,,,,,,,,,,,,,,,
129,0,,html-keyboard-response,129,893719,0.0-4.20-3.20,bftdpqgnj6q,2022-09-19 17:56:58.354,60573290a0b07d401c4e61e0,1,85,71,49,22,24,Male,,,"<p style=""font-size:50px"">You Lose!
No points this round.</p>",,,,,,,,,,,,,,,,,,,,,,,,,,,,
130,0,,html-keyboard-response,130,894226,0.0-4.20-4.20,bftdpqgnj6q,2022-09-19 17:56:58.354,60573290a0b07d401c4e61e0,1,85,71,49,22,24,Male,,,,,,1.0,learning,20.0,C,,red,,stars,,,,C,red,stars,,1.0,0.0,NA,left,607.7999999998,7.0,1.0,0.0,,,
131,0,,html-keyboard-response,131,895727,0.0-4.21-0.21,bftdpqgnj6q,2022-09-19 17:56:58.354,60573290a0b07d401c4e61e0,1,85,71,49,22,24,Male,,,"<img src=""static/images/cards/stack_of_black_stars.svg"" width=""175px"" height=""250px""></img>",,,,,,,,,,,,,,,,,,,,,,,,,,,,
132,0,,html-keyboard-response,132,896924,0.0-4.21-1.21,bftdpqgnj6q,2022-09-19 17:56:58.354,60573290a0b07d401c4e61e0,1,85,71,49,22,24,Male,694.9000000004,,"
  <table>
  <tr height=300>
    <td width=300 height=300><img src=""static/images/cards/back_of_black_stars.svg"" width=""175px"" height=""250px""></img></td>
    <td width=300 height=300><img src=""static/images/cards/back_of_black_stars.svg"" width=""175px"" height=""250px""></img></td>
  </tr>
  <tr height=200>
    <td width=300><img src=""static/images/keys/z.svg"" width=""35%"" height=""75%""></img></td>
    <td width=300></td>
  </tr>
</table>
  ",90.0,1.0,,,,,,,,,,,,,,,,,,,,,,,,,,
133,0,,html-keyboard-response,133,898426,0.0-4.21-2.21,bftdpqgnj6q,2022-09-19 17:56:58.354,60573290a0b07d401c4e61e0,1,85,71,49,22,24,Male,,,"
  <table>
  <tr height=300>
    <td width=300 height=300><img src=""static/images/cards/6_of_black_stars.svg"" width=""175px"" height=""250px""></img></td>
    <td width=300 height=300><img src=""static/images/cards/back_of_black_stars.svg"" width=""175px"" height=""250px""></img></td>
  </tr>
  <tr height=200>
    <td width=300><img src=""static/images/keys/z.svg"" width=""35%"" height=""75%""></img></td>
    <td width=300></td>
  </tr>
</table>
  ",,,,,,,,,,,,,,,,,,,,,,,,,,,,
134,0,,html-keyboard-response,134,899926,0.0-4.21-3.21,bftdpqgnj6q,2022-09-19 17:56:58.354,60573290a0b07d401c4e61e0,1,85,71,49,22,24,Male,,,"<p style=""font-size:50px"">You Lose!
No points this round.</p>",,,,,,,,,,,,,,,,,,,,,,,,,,,,
135,0,,html-keyboard-response,135,900433,0.0-4.21-4.21,bftdpqgnj6q,2022-09-19 17:56:58.354,60573290a0b07d401c4e61e0,1,85,71,49,22,24,Male,,,,,,1.0,learning,21.0,D,,black,,stars,,,,D,black,stars,,0.0,0.0,1,left,694.9000000004,6.0,1.0,0.0,,,
136,0,,html-keyboard-response,136,901934,0.0-4.22-0.22,bftdpqgnj6q,2022-09-19 17:56:58.354,60573290a0b07d401c4e61e0,1,85,71,49,22,24,Male,,,"<img src=""static/images/cards/stack_of_red_bolts.svg"" width=""175px"" height=""250px""></img>",,,,,,,,,,,,,,,,,,,,,,,,,,,,
137,0,,html-keyboard-response,137,903021,0.0-4.22-1.22,bftdpqgnj6q,2022-09-19 17:56:58.354,60573290a0b07d401c4e61e0,1,85,71,49,22,24,Male,586.0,,"
  <table>
  <tr height=300>
    <td width=300 height=300><img src=""static/images/cards/back_of_red_bolts.svg"" width=""175px"" height=""250px""></img></td>
    <td width=300 height=300><img src=""static/images/cards/back_of_red_bolts.svg"" width=""175px"" height=""250px""></img></td>
  </tr>
  <tr height=200>
    <td width=300><img src=""static/images/keys/z.svg"" width=""35%"" height=""75%""></img></td>
    <td width=300><img src=""static/images/keys/m.svg"" width=""35%"" height=""75%""></img></td>
  </tr>
</table>
  ",77.0,1.0,,,,,,,,,,,,,,,,,,,,,,,,,,
138,0,,html-keyboard-response,138,904523,0.0-4.22-2.22,bftdpqgnj6q,2022-09-19 17:56:58.354,60573290a0b07d401c4e61e0,1,85,71,49,22,24,Male,,,"
  <table>
  <tr height=300>
    <td width=300 height=300><img src=""static/images/cards/back_of_red_bolts.svg"" width=""175px"" height=""250px""></img></td>
    <td width=300 height=300><img src=""static/images/cards/8_of_red_bolts.svg"" width=""175px"" height=""250px""></img></td>
  </tr>
  <tr height=200>
    <td width=300><img src=""static/images/keys/z.svg"" width=""35%"" height=""75%""></img></td>
    <td width=300><img src=""static/images/keys/m.svg"" width=""35%"" height=""75%""></img></td>
  </tr>
</table>
  ",,,,,,,,,,,,,,,,,,,,,,,,,,,,
139,0,,html-keyboard-response,139,906025,0.0-4.22-3.22,bftdpqgnj6q,2022-09-19 17:56:58.354,60573290a0b07d401c4e61e0,1,85,71,49,22,24,Male,,,"<p style=""font-size:50px"">You win!
+10 points this round!</p>",,,,,,,,,,,,,,,,,,,,,,,,,,,,
140,0,,html-keyboard-response,140,906531,0.0-4.22-4.22,bftdpqgnj6q,2022-09-19 17:56:58.354,60573290a0b07d401c4e61e0,1,85,71,49,22,24,Male,,,,,,1.0,learning,22.0,Xc,,red,,bolts,,,,Xc,red,bolts,,1.0,0.0,NA,right,586.0,8.0,1.0,1.0,,,
141,0,,html-keyboard-response,141,908032,0.0-4.23-0.23,bftdpqgnj6q,2022-09-19 17:56:58.354,60573290a0b07d401c4e61e0,1,85,71,49,22,24,Male,,,"<img src=""static/images/cards/stack_of_black_bolts.svg"" width=""175px"" height=""250px""></img>",,,,,,,,,,,,,,,,,,,,,,,,,,,,
142,0,,html-keyboard-response,142,908955,0.0-4.23-1.23,bftdpqgnj6q,2022-09-19 17:56:58.354,60573290a0b07d401c4e61e0,1,85,71,49,22,24,Male,421.2999999998,,"
  <table>
  <tr height=300>
    <td width=300 height=300><img src=""static/images/cards/back_of_black_bolts.svg"" width=""175px"" height=""250px""></img></td>
    <td width=300 height=300><img src=""static/images/cards/back_of_black_bolts.svg"" width=""175px"" height=""250px""></img></td>
  </tr>
  <tr height=200>
    <td width=300></td>
    <td width=300><img src=""static/images/keys/m.svg"" width=""35%"" height=""75%""></img></td>
  </tr>
</table>
  ",77.0,1.0,,,,,,,,,,,,,,,,,,,,,,,,,,
143,0,,html-keyboard-response,143,910455,0.0-4.23-2.23,bftdpqgnj6q,2022-09-19 17:56:58.354,60573290a0b07d401c4e61e0,1,85,71,49,22,24,Male,,,"
  <table>
  <tr height=300>
    <td width=300 height=300><img src=""static/images/cards/back_of_black_bolts.svg"" width=""175px"" height=""250px""></img></td>
    <td width=300 height=300><img src=""static/images/cards/9_of_black_bolts.svg"" width=""175px"" height=""250px""></img></td>
  </tr>
  <tr height=200>
    <td width=300></td>
    <td width=300><img src=""static/images/keys/m.svg"" width=""35%"" height=""75%""></img></td>
  </tr>
</table>
  ",,,,,,,,,,,,,,,,,,,,,,,,,,,,
144,0,,html-keyboard-response,144,911958,0.0-4.23-3.23,bftdpqgnj6q,2022-09-19 17:56:58.354,60573290a0b07d401c4e61e0,1,85,71,49,22,24,Male,,,"<p style=""font-size:50px"">You win!
+10 points this round!</p>",,,,,,,,,,,,,,,,,,,,,,,,,,,,
145,0,,html-keyboard-response,145,912464,0.0-4.23-4.23,bftdpqgnj6q,2022-09-19 17:56:58.354,60573290a0b07d401c4e61e0,1,85,71,49,22,24,Male,,,,,,1.0,learning,23.0,Xnc,,black,,bolts,,,,Xnc,black,bolts,,0.0,0.0,0,right,421.2999999998,9.0,1.0,1.0,,,
146,0,,call-function,146,912467,0.0-5.0,bftdpqgnj6q,2022-09-19 17:56:58.354,60573290a0b07d401c4e61e0,1,85,71,49,22,24,Male,,,,,,,,,,,,,,,,,,,,,,,,,,,,,,,
147,0,,image-keyboard-response,147,920266,0.0-6.0-0.0,bftdpqgnj6q,2022-09-19 17:56:58.354,60573290a0b07d401c4e61e0,1,85,71,49,22,24,Male,7798.5,,static/images/instructions_CB_1/Slide20.png,39.0,,,,,,,,,,,,,,,,,,,,,,,,,,,
148,0,,image-keyboard-response,148,943819,0.0-6.1-0.1,bftdpqgnj6q,2022-09-19 17:56:58.354,60573290a0b07d401c4e61e0,1,85,71,49,22,24,Male,23552.5999999996,,static/images/instructions_CB_1/Slide21.png,39.0,,,,,,,,,,,,,,,,,,,,,,,,,,,
149,0,,image-keyboard-response,149,956903,0.0-6.2-0.2,bftdpqgnj6q,2022-09-19 17:56:58.354,60573290a0b07d401c4e61e0,1,85,71,49,22,24,Male,13084.3000000003,,static/images/instructions_CB_1/Slide22.png,39.0,,,,,,,,,,,,,,,,,,,,,,,,,,,
150,0,,image-keyboard-response,150,961470,0.0-6.3-0.3,bftdpqgnj6q,2022-09-19 17:56:58.354,60573290a0b07d401c4e61e0,1,85,71,49,22,24,Male,4566.5,,static/images/instructions_CB_1/Slide23.png,39.0,,,,,,,,,,,,,,,,,,,,,,,,,,,
151,0,,image-keyboard-response,151,964200,0.0-6.4-0.4,bftdpqgnj6q,2022-09-19 17:56:58.354,60573290a0b07d401c4e61e0,1,85,71,49,22,24,Male,2730.1000000001,,static/images/instructions_CB_1/Slide24.png,39.0,,,,,,,,,,,,,,,,,,,,,,,,,,,
152,0,,html-keyboard-response,152,967946,0.0-7.0-0.0,bftdpqgnj6q,2022-09-19 17:56:58.354,60573290a0b07d401c4e61e0,1,85,71,49,22,24,Male,3745.2999999998,,"
  <table>
  <tr height=300>
    <td width=300 height=300><img src=""static/images/cards/stack_of_red_moons.svg"" width=""175px"" height=""250px""></img></td>
    <td width=300 height=300><img src=""static/images/cards/stack_of_black_moons.svg"" width=""175px"" height=""250px""></img></td>
  </tr>
  <tr height=200>
    <td width=300><img src=""static/images/keys/w.svg"" width=""35%"" height=""75%""></img></td>
    <td width=300><img src=""static/images/keys/o.svg"" width=""35%"" height=""75%""></img></td>
  </tr>
</table>
  ",87.0,1.0,,,,,,,,,,,,,,,,,,,,,,,,,,
153,0,,html-keyboard-response,153,969645,0.0-7.0-1.0,bftdpqgnj6q,2022-09-19 17:56:58.354,60573290a0b07d401c4e61e0,1,85,71,49,22,24,Male,1197.1000000001,,"
  <table>
  <tr height=300>
    <td width=300 height=300><img src=""static/images/cards/back_of_red_moons.svg"" width=""175px"" height=""250px""></img></td>
    <td width=300 height=300><img src=""static/images/cards/back_of_red_moons.svg"" width=""175px"" height=""250px""></img></td>
  </tr>
  <tr height=200>
    <td width=300><img src=""static/images/keys/z.svg"" width=""35%"" height=""75%""></img></td>
    <td width=300><img src=""static/images/keys/m.svg"" width=""35%"" height=""75%""></img></td>
  </tr>
</table>
  ",90.0,2.0,,,,,,,,,,,,,,,,,,,,,,,,,,
154,0,,html-keyboard-response,154,971146,0.0-7.0-2.0,bftdpqgnj6q,2022-09-19 17:56:58.354,60573290a0b07d401c4e61e0,1,85,71,49,22,24,Male,,,"
  <table>
  <tr height=300>
    <td width=300 height=300><img src=""static/images/cards/10_of_red_moons.svg"" width=""175px"" height=""250px""></img></td>
    <td width=300 height=300><img src=""static/images/cards/back_of_red_moons.svg"" width=""175px"" height=""250px""></img></td>
  </tr>
  <tr height=200>
    <td width=300><img src=""static/images/keys/z.svg"" width=""35%"" height=""75%""></img></td>
    <td width=300><img src=""static/images/keys/m.svg"" width=""35%"" height=""75%""></img></td>
  </tr>
</table>
  ",,,,,,,,,,,,,,,,,,,,,,,,,,,,
155,0,,html-keyboard-response,155,972648,0.0-7.0-3.0,bftdpqgnj6q,2022-09-19 17:56:58.354,60573290a0b07d401c4e61e0,1,85,71,49,22,24,Male,,,"<p style=""font-size:50px"">You win!
+10 points this round!</p>",,,,,,,,,,,,,,,,,,,,,,,,,,,,
156,0,,html-keyboard-response,156,973155,0.0-7.0-4.0,bftdpqgnj6q,2022-09-19 17:56:58.354,60573290a0b07d401c4e61e0,1,85,71,49,22,24,Male,,,,,,1.0,choice,0.0,A,B,red,black,moons,moons,A,B,A,red,moons,3745.2999999998,1.0,1.0,NA,left,1197.1000000001,10.0,1.0,1.0,,,
157,0,,html-keyboard-response,157,975574,0.0-7.1-0.1,bftdpqgnj6q,2022-09-19 17:56:58.354,60573290a0b07d401c4e61e0,1,85,71,49,22,24,Male,2418.1000000001,,"
  <table>
  <tr height=300>
    <td width=300 height=300><img src=""static/images/cards/stack_of_red_stars.svg"" width=""175px"" height=""250px""></img></td>
    <td width=300 height=300><img src=""static/images/cards/stack_of_black_moons.svg"" width=""175px"" height=""250px""></img></td>
  </tr>
  <tr height=200>
    <td width=300><img src=""static/images/keys/w.svg"" width=""35%"" height=""75%""></img></td>
    <td width=300><img src=""static/images/keys/o.svg"" width=""35%"" height=""75%""></img></td>
  </tr>
</table>
  ",79.0,1.0,,,,,,,,,,,,,,,,,,,,,,,,,,
158,0,,html-keyboard-response,158,976882,0.0-7.1-1.1,bftdpqgnj6q,2022-09-19 17:56:58.354,60573290a0b07d401c4e61e0,1,85,71,49,22,24,Male,806.8999999999,,"
  <table>
  <tr height=300>
    <td width=300 height=300><img src=""static/images/cards/back_of_black_moons.svg"" width=""175px"" height=""250px""></img></td>
    <td width=300 height=300><img src=""static/images/cards/back_of_black_moons.svg"" width=""175px"" height=""250px""></img></td>
  </tr>
  <tr height=200>
    <td width=300></td>
    <td width=300><img src=""static/images/keys/m.svg"" width=""35%"" height=""75%""></img></td>
  </tr>
</table>
  ",77.0,1.0,,,,,,,,,,,,,,,,,,,,,,,,,,
159,0,,html-keyboard-response,159,978383,0.0-7.1-2.1,bftdpqgnj6q,2022-09-19 17:56:58.354,60573290a0b07d401c4e61e0,1,85,71,49,22,24,Male,,,"
  <table>
  <tr height=300>
    <td width=300 height=300><img src=""static/images/cards/back_of_black_moons.svg"" width=""175px"" height=""250px""></img></td>
    <td width=300 height=300><img src=""static/images/cards/2_of_black_moons.svg"" width=""175px"" height=""250px""></img></td>
  </tr>
  <tr height=200>
    <td width=300></td>
    <td width=300><img src=""static/images/keys/m.svg"" width=""35%"" height=""75%""></img></td>
  </tr>
</table>
  ",,,,,,,,,,,,,,,,,,,,,,,,,,,,
160,0,,html-keyboard-response,160,979886,0.0-7.1-3.1,bftdpqgnj6q,2022-09-19 17:56:58.354,60573290a0b07d401c4e61e0,1,85,71,49,22,24,Male,,,"<p style=""font-size:50px"">You Lose!
No points this round.</p>",,,,,,,,,,,,,,,,,,,,,,,,,,,,
161,0,,html-keyboard-response,161,980392,0.0-7.1-4.1,bftdpqgnj6q,2022-09-19 17:56:58.354,60573290a0b07d401c4e61e0,1,85,71,49,22,24,Male,,,,,,1.0,choice,1.0,B,C,red,black,stars,moons,C,B,B,black,moons,2418.1000000001,0.0,1.0,0,right,806.8999999999,2.0,0.0,0.0,,,
162,0,,html-keyboard-response,162,981597,0.0-7.2-0.2,bftdpqgnj6q,2022-09-19 17:56:58.354,60573290a0b07d401c4e61e0,1,85,71,49,22,24,Male,1204.2000000002,,"
  <table>
  <tr height=300>
    <td width=300 height=300><img src=""static/images/cards/stack_of_black_moons.svg"" width=""175px"" height=""250px""></img></td>
    <td width=300 height=300><img src=""static/images/cards/stack_of_red_moons.svg"" width=""175px"" height=""250px""></img></td>
  </tr>
  <tr height=200>
    <td width=300><img src=""static/images/keys/w.svg"" width=""35%"" height=""75%""></img></td>
    <td width=300><img src=""static/images/keys/o.svg"" width=""35%"" height=""75%""></img></td>
  </tr>
</table>
  ",79.0,1.0,,,,,,,,,,,,,,,,,,,,,,,,,,
163,0,,html-keyboard-response,163,982550,0.0-7.2-1.2,bftdpqgnj6q,2022-09-19 17:56:58.354,60573290a0b07d401c4e61e0,1,85,71,49,22,24,Male,451.7999999998,,"
  <table>
  <tr height=300>
    <td width=300 height=300><img src=""static/images/cards/back_of_red_moons.svg"" width=""175px"" height=""250px""></img></td>
    <td width=300 height=300><img src=""static/images/cards/back_of_red_moons.svg"" width=""175px"" height=""250px""></img></td>
  </tr>
  <tr height=200>
    <td width=300><img src=""static/images/keys/z.svg"" width=""35%"" height=""75%""></img></td>
    <td width=300><img src=""static/images/keys/m.svg"" width=""35%"" height=""75%""></img></td>
  </tr>
</table>
  ",90.0,1.0,,,,,,,,,,,,,,,,,,,,,,,,,,
164,0,,html-keyboard-response,164,984051,0.0-7.2-2.2,bftdpqgnj6q,2022-09-19 17:56:58.354,60573290a0b07d401c4e61e0,1,85,71,49,22,24,Male,,,"
  <table>
  <tr height=300>
    <td width=300 height=300><img src=""static/images/cards/7_of_red_moons.svg"" width=""175px"" height=""250px""></img></td>
    <td width=300 height=300><img src=""static/images/cards/back_of_red_moons.svg"" width=""175px"" height=""250px""></img></td>
  </tr>
  <tr height=200>
    <td width=300><img src=""static/images/keys/z.svg"" width=""35%"" height=""75%""></img></td>
    <td width=300><img src=""static/images/keys/m.svg"" width=""35%"" height=""75%""></img></td>
  </tr>
</table>
  ",,,,,,,,,,,,,,,,,,,,,,,,,,,,
165,0,,html-keyboard-response,165,985552,0.0-7.2-3.2,bftdpqgnj6q,2022-09-19 17:56:58.354,60573290a0b07d401c4e61e0,1,85,71,49,22,24,Male,,,"<p style=""font-size:50px"">You win!
+10 points this round!</p>",,,,,,,,,,,,,,,,,,,,,,,,,,,,
166,0,,html-keyboard-response,166,986058,0.0-7.2-4.2,bftdpqgnj6q,2022-09-19 17:56:58.354,60573290a0b07d401c4e61e0,1,85,71,49,22,24,Male,,,,,,1.0,choice,2.0,A,B,black,red,moons,moons,B,A,A,red,moons,1204.2000000002,1.0,1.0,NA,left,451.7999999998,7.0,1.0,1.0,,,
167,0,,html-keyboard-response,167,987962,0.0-7.3-0.3,bftdpqgnj6q,2022-09-19 17:56:58.354,60573290a0b07d401c4e61e0,1,85,71,49,22,24,Male,1903.3999999999,,"
  <table>
  <tr height=300>
    <td width=300 height=300><img src=""static/images/cards/stack_of_black_stars.svg"" width=""175px"" height=""250px""></img></td>
    <td width=300 height=300><img src=""static/images/cards/stack_of_red_moons.svg"" width=""175px"" height=""250px""></img></td>
  </tr>
  <tr height=200>
    <td width=300><img src=""static/images/keys/w.svg"" width=""35%"" height=""75%""></img></td>
    <td width=300><img src=""static/images/keys/o.svg"" width=""35%"" height=""75%""></img></td>
  </tr>
</table>
  ",79.0,1.0,,,,,,,,,,,,,,,,,,,,,,,,,,
168,0,,html-keyboard-response,168,989054,0.0-7.3-1.3,bftdpqgnj6q,2022-09-19 17:56:58.354,60573290a0b07d401c4e61e0,1,85,71,49,22,24,Male,590.6000000001,,"
  <table>
  <tr height=300>
    <td width=300 height=300><img src=""static/images/cards/back_of_red_moons.svg"" width=""175px"" height=""250px""></img></td>
    <td width=300 height=300><img src=""static/images/cards/back_of_red_moons.svg"" width=""175px"" height=""250px""></img></td>
  </tr>
  <tr height=200>
    <td width=300><img src=""static/images/keys/z.svg"" width=""35%"" height=""75%""></img></td>
    <td width=300><img src=""static/images/keys/m.svg"" width=""35%"" height=""75%""></img></td>
  </tr>
</table>
  ",90.0,1.0,,,,,,,,,,,,,,,,,,,,,,,,,,
169,0,,html-keyboard-response,169,990555,0.0-7.3-2.3,bftdpqgnj6q,2022-09-19 17:56:58.354,60573290a0b07d401c4e61e0,1,85,71,49,22,24,Male,,,"
  <table>
  <tr height=300>
    <td width=300 height=300><img src=""static/images/cards/1_of_red_moons.svg"" width=""175px"" height=""250px""></img></td>
    <td width=300 height=300><img src=""static/images/cards/back_of_red_moons.svg"" width=""175px"" height=""250px""></img></td>
  </tr>
  <tr height=200>
    <td width=300><img src=""static/images/keys/z.svg"" width=""35%"" height=""75%""></img></td>
    <td width=300><img src=""static/images/keys/m.svg"" width=""35%"" height=""75%""></img></td>
  </tr>
</table>
  ",,,,,,,,,,,,,,,,,,,,,,,,,,,,
170,0,,html-keyboard-response,170,992058,0.0-7.3-3.3,bftdpqgnj6q,2022-09-19 17:56:58.354,60573290a0b07d401c4e61e0,1,85,71,49,22,24,Male,,,"<p style=""font-size:50px"">You Lose!
No points this round.</p>",,,,,,,,,,,,,,,,,,,,,,,,,,,,
171,0,,html-keyboard-response,171,992566,0.0-7.3-4.3,bftdpqgnj6q,2022-09-19 17:56:58.354,60573290a0b07d401c4e61e0,1,85,71,49,22,24,Male,,,,,,1.0,choice,3.0,A,D,black,red,stars,moons,D,A,A,red,moons,1903.3999999999,1.0,1.0,NA,left,590.6000000001,1.0,0.0,0.0,,,
172,0,,html-keyboard-response,172,993305,0.0-7.4-0.4,bftdpqgnj6q,2022-09-19 17:56:58.354,60573290a0b07d401c4e61e0,1,85,71,49,22,24,Male,738.8000000003,,"
  <table>
  <tr height=300>
    <td width=300 height=300><img src=""static/images/cards/stack_of_black_stars.svg"" width=""175px"" height=""250px""></img></td>
    <td width=300 height=300><img src=""static/images/cards/stack_of_black_moons.svg"" width=""175px"" height=""250px""></img></td>
  </tr>
  <tr height=200>
    <td width=300><img src=""static/images/keys/w.svg"" width=""35%"" height=""75%""></img></td>
    <td width=300><img src=""static/images/keys/o.svg"" width=""35%"" height=""75%""></img></td>
  </tr>
</table>
  ",79.0,1.0,,,,,,,,,,,,,,,,,,,,,,,,,,
173,0,,html-keyboard-response,173,994194,0.0-7.4-1.4,bftdpqgnj6q,2022-09-19 17:56:58.354,60573290a0b07d401c4e61e0,1,85,71,49,22,24,Male,388.2000000002,,"
  <table>
  <tr height=300>
    <td width=300 height=300><img src=""static/images/cards/back_of_black_moons.svg"" width=""175px"" height=""250px""></img></td>
    <td width=300 height=300><img src=""static/images/cards/back_of_black_moons.svg"" width=""175px"" height=""250px""></img></td>
  </tr>
  <tr height=200>
    <td width=300><img src=""static/images/keys/z.svg"" width=""35%"" height=""75%""></img></td>
    <td width=300></td>
  </tr>
</table>
  ",90.0,1.0,,,,,,,,,,,,,,,,,,,,,,,,,,
174,0,,html-keyboard-response,174,995695,0.0-7.4-2.4,bftdpqgnj6q,2022-09-19 17:56:58.354,60573290a0b07d401c4e61e0,1,85,71,49,22,24,Male,,,"
  <table>
  <tr height=300>
    <td width=300 height=300><img src=""static/images/cards/6_of_black_moons.svg"" width=""175px"" height=""250px""></img></td>
    <td width=300 height=300><img src=""static/images/cards/back_of_black_moons.svg"" width=""175px"" height=""250px""></img></td>
  </tr>
  <tr height=200>
    <td width=300><img src=""static/images/keys/z.svg"" width=""35%"" height=""75%""></img></td>
    <td width=300></td>
  </tr>
</table>
  ",,,,,,,,,,,,,,,,,,,,,,,,,,,,
175,0,,html-keyboard-response,175,997197,0.0-7.4-3.4,bftdpqgnj6q,2022-09-19 17:56:58.354,60573290a0b07d401c4e61e0,1,85,71,49,22,24,Male,,,"<p style=""font-size:50px"">You win!
+10 points this round!</p>",,,,,,,,,,,,,,,,,,,,,,,,,,,,
176,0,,html-keyboard-response,176,997704,0.0-7.4-4.4,bftdpqgnj6q,2022-09-19 17:56:58.354,60573290a0b07d401c4e61e0,1,85,71,49,22,24,Male,,,,,,1.0,choice,4.0,B,D,black,black,stars,moons,D,B,B,black,moons,738.8000000003,0.0,1.0,1,left,388.2000000002,6.0,1.0,1.0,,,
177,0,,html-keyboard-response,177,999055,0.0-7.5-0.5,bftdpqgnj6q,2022-09-19 17:56:58.354,60573290a0b07d401c4e61e0,1,85,71,49,22,24,Male,1350.5999999996,,"
  <table>
  <tr height=300>
    <td width=300 height=300><img src=""static/images/cards/stack_of_red_moons.svg"" width=""175px"" height=""250px""></img></td>
    <td width=300 height=300><img src=""static/images/cards/stack_of_black_moons.svg"" width=""175px"" height=""250px""></img></td>
  </tr>
  <tr height=200>
    <td width=300><img src=""static/images/keys/w.svg"" width=""35%"" height=""75%""></img></td>
    <td width=300><img src=""static/images/keys/o.svg"" width=""35%"" height=""75%""></img></td>
  </tr>
</table>
  ",87.0,1.0,,,,,,,,,,,,,,,,,,,,,,,,,,
178,0,,html-keyboard-response,178,1000148,0.0-7.5-1.5,bftdpqgnj6q,2022-09-19 17:56:58.354,60573290a0b07d401c4e61e0,1,85,71,49,22,24,Male,591.2999999998,,"
  <table>
  <tr height=300>
    <td width=300 height=300><img src=""static/images/cards/back_of_red_moons.svg"" width=""175px"" height=""250px""></img></td>
    <td width=300 height=300><img src=""static/images/cards/back_of_red_moons.svg"" width=""175px"" height=""250px""></img></td>
  </tr>
  <tr height=200>
    <td width=300><img src=""static/images/keys/z.svg"" width=""35%"" height=""75%""></img></td>
    <td width=300><img src=""static/images/keys/m.svg"" width=""35%"" height=""75%""></img></td>
  </tr>
</table>
  ",90.0,1.0,,,,,,,,,,,,,,,,,,,,,,,,,,
179,0,,html-keyboard-response,179,1001650,0.0-7.5-2.5,bftdpqgnj6q,2022-09-19 17:56:58.354,60573290a0b07d401c4e61e0,1,85,71,49,22,24,Male,,,"
  <table>
  <tr height=300>
    <td width=300 height=300><img src=""static/images/cards/9_of_red_moons.svg"" width=""175px"" height=""250px""></img></td>
    <td width=300 height=300><img src=""static/images/cards/back_of_red_moons.svg"" width=""175px"" height=""250px""></img></td>
  </tr>
  <tr height=200>
    <td width=300><img src=""static/images/keys/z.svg"" width=""35%"" height=""75%""></img></td>
    <td width=300><img src=""static/images/keys/m.svg"" width=""35%"" height=""75%""></img></td>
  </tr>
</table>
  ",,,,,,,,,,,,,,,,,,,,,,,,,,,,
180,0,,html-keyboard-response,180,1003153,0.0-7.5-3.5,bftdpqgnj6q,2022-09-19 17:56:58.354,60573290a0b07d401c4e61e0,1,85,71,49,22,24,Male,,,"<p style=""font-size:50px"">You win!
+10 points this round!</p>",,,,,,,,,,,,,,,,,,,,,,,,,,,,
181,0,,html-keyboard-response,181,1003659,0.0-7.5-4.5,bftdpqgnj6q,2022-09-19 17:56:58.354,60573290a0b07d401c4e61e0,1,85,71,49,22,24,Male,,,,,,1.0,choice,5.0,A,B,red,black,moons,moons,A,B,A,red,moons,1350.5999999996,1.0,1.0,NA,left,591.2999999998,9.0,1.0,1.0,,,
182,0,,html-keyboard-response,182,1004787,0.0-7.6-0.6,bftdpqgnj6q,2022-09-19 17:56:58.354,60573290a0b07d401c4e61e0,1,85,71,49,22,24,Male,1127.1000000001,,"
  <table>
  <tr height=300>
    <td width=300 height=300><img src=""static/images/cards/stack_of_black_moons.svg"" width=""175px"" height=""250px""></img></td>
    <td width=300 height=300><img src=""static/images/cards/stack_of_red_stars.svg"" width=""175px"" height=""250px""></img></td>
  </tr>
  <tr height=200>
    <td width=300><img src=""static/images/keys/w.svg"" width=""35%"" height=""75%""></img></td>
    <td width=300><img src=""static/images/keys/o.svg"" width=""35%"" height=""75%""></img></td>
  </tr>
</table>
  ",87.0,1.0,,,,,,,,,,,,,,,,,,,,,,,,,,
183,0,,html-keyboard-response,183,1006201,0.0-7.6-1.6,bftdpqgnj6q,2022-09-19 17:56:58.354,60573290a0b07d401c4e61e0,1,85,71,49,22,24,Male,912.8999999999,,"
  <table>
  <tr height=300>
    <td width=300 height=300><img src=""static/images/cards/back_of_black_moons.svg"" width=""175px"" height=""250px""></img></td>
    <td width=300 height=300><img src=""static/images/cards/back_of_black_moons.svg"" width=""175px"" height=""250px""></img></td>
  </tr>
  <tr height=200>
    <td width=300></td>
    <td width=300><img src=""static/images/keys/m.svg"" width=""35%"" height=""75%""></img></td>
  </tr>
</table>
  ",77.0,1.0,,,,,,,,,,,,,,,,,,,,,,,,,,
184,0,,html-keyboard-response,184,1007703,0.0-7.6-2.6,bftdpqgnj6q,2022-09-19 17:56:58.354,60573290a0b07d401c4e61e0,1,85,71,49,22,24,Male,,,"
  <table>
  <tr height=300>
    <td width=300 height=300><img src=""static/images/cards/back_of_black_moons.svg"" width=""175px"" height=""250px""></img></td>
    <td width=300 height=300><img src=""static/images/cards/10_of_black_moons.svg"" width=""175px"" height=""250px""></img></td>
  </tr>
  <tr height=200>
    <td width=300></td>
    <td width=300><img src=""static/images/keys/m.svg"" width=""35%"" height=""75%""></img></td>
  </tr>
</table>
  ",,,,,,,,,,,,,,,,,,,,,,,,,,,,
185,0,,html-keyboard-response,185,1009204,0.0-7.6-3.6,bftdpqgnj6q,2022-09-19 17:56:58.354,60573290a0b07d401c4e61e0,1,85,71,49,22,24,Male,,,"<p style=""font-size:50px"">You win!
+10 points this round!</p>",,,,,,,,,,,,,,,,,,,,,,,,,,,,
186,0,,html-keyboard-response,186,1009710,0.0-7.6-4.6,bftdpqgnj6q,2022-09-19 17:56:58.354,60573290a0b07d401c4e61e0,1,85,71,49,22,24,Male,,,,,,1.0,choice,6.0,B,C,black,red,moons,stars,B,C,B,black,moons,1127.1000000001,0.0,1.0,0,right,912.8999999999,10.0,1.0,1.0,,,
187,0,,html-keyboard-response,187,1010834,0.0-7.7-0.7,bftdpqgnj6q,2022-09-19 17:56:58.354,60573290a0b07d401c4e61e0,1,85,71,49,22,24,Male,1123.1999999997,,"
  <table>
  <tr height=300>
    <td width=300 height=300><img src=""static/images/cards/stack_of_red_moons.svg"" width=""175px"" height=""250px""></img></td>
    <td width=300 height=300><img src=""static/images/cards/stack_of_red_stars.svg"" width=""175px"" height=""250px""></img></td>
  </tr>
  <tr height=200>
    <td width=300><img src=""static/images/keys/w.svg"" width=""35%"" height=""75%""></img></td>
    <td width=300><img src=""static/images/keys/o.svg"" width=""35%"" height=""75%""></img></td>
  </tr>
</table>
  ",87.0,1.0,,,,,,,,,,,,,,,,,,,,,,,,,,
188,0,,html-keyboard-response,188,1012535,0.0-7.7-1.7,bftdpqgnj6q,2022-09-19 17:56:58.354,60573290a0b07d401c4e61e0,1,85,71,49,22,24,Male,1198.5,,"
  <table>
  <tr height=300>
    <td width=300 height=300><img src=""static/images/cards/back_of_red_moons.svg"" width=""175px"" height=""250px""></img></td>
    <td width=300 height=300><img src=""static/images/cards/back_of_red_moons.svg"" width=""175px"" height=""250px""></img></td>
  </tr>
  <tr height=200>
    <td width=300><img src=""static/images/keys/z.svg"" width=""35%"" height=""75%""></img></td>
    <td width=300><img src=""static/images/keys/m.svg"" width=""35%"" height=""75%""></img></td>
  </tr>
</table>
  ",77.0,2.0,,,,,,,,,,,,,,,,,,,,,,,,,,
189,0,,html-keyboard-response,189,1014036,0.0-7.7-2.7,bftdpqgnj6q,2022-09-19 17:56:58.354,60573290a0b07d401c4e61e0,1,85,71,49,22,24,Male,,,"
  <table>
  <tr height=300>
    <td width=300 height=300><img src=""static/images/cards/back_of_red_moons.svg"" width=""175px"" height=""250px""></img></td>
    <td width=300 height=300><img src=""static/images/cards/8_of_red_moons.svg"" width=""175px"" height=""250px""></img></td>
  </tr>
  <tr height=200>
    <td width=300><img src=""static/images/keys/z.svg"" width=""35%"" height=""75%""></img></td>
    <td width=300><img src=""static/images/keys/m.svg"" width=""35%"" height=""75%""></img></td>
  </tr>
</table>
  ",,,,,,,,,,,,,,,,,,,,,,,,,,,,
190,0,,html-keyboard-response,190,1015539,0.0-7.7-3.7,bftdpqgnj6q,2022-09-19 17:56:58.354,60573290a0b07d401c4e61e0,1,85,71,49,22,24,Male,,,"<p style=""font-size:50px"">You win!
+10 points this round!</p>",,,,,,,,,,,,,,,,,,,,,,,,,,,,
191,0,,html-keyboard-response,191,1016045,0.0-7.7-4.7,bftdpqgnj6q,2022-09-19 17:56:58.354,60573290a0b07d401c4e61e0,1,85,71,49,22,24,Male,,,,,,1.0,choice,7.0,A,C,red,red,moons,stars,A,C,A,red,moons,1123.1999999997,1.0,1.0,NA,right,1198.5,8.0,1.0,1.0,,,
192,0,,html-keyboard-response,192,1017667,0.0-7.8-0.8,bftdpqgnj6q,2022-09-19 17:56:58.354,60573290a0b07d401c4e61e0,1,85,71,49,22,24,Male,1621.6999999997,,"
  <table>
  <tr height=300>
    <td width=300 height=300><img src=""static/images/cards/stack_of_black_stars.svg"" width=""175px"" height=""250px""></img></td>
    <td width=300 height=300><img src=""static/images/cards/stack_of_red_stars.svg"" width=""175px"" height=""250px""></img></td>
  </tr>
  <tr height=200>
    <td width=300><img src=""static/images/keys/w.svg"" width=""35%"" height=""75%""></img></td>
    <td width=300><img src=""static/images/keys/o.svg"" width=""35%"" height=""75%""></img></td>
  </tr>
</table>
  ",79.0,1.0,,,,,,,,,,,,,,,,,,,,,,,,,,
193,0,,html-keyboard-response,193,1018429,0.0-7.8-1.8,bftdpqgnj6q,2022-09-19 17:56:58.354,60573290a0b07d401c4e61e0,1,85,71,49,22,24,Male,261.3000000003,,"
  <table>
  <tr height=300>
    <td width=300 height=300><img src=""static/images/cards/back_of_red_stars.svg"" width=""175px"" height=""250px""></img></td>
    <td width=300 height=300><img src=""static/images/cards/back_of_red_stars.svg"" width=""175px"" height=""250px""></img></td>
  </tr>
  <tr height=200>
    <td width=300><img src=""static/images/keys/z.svg"" width=""35%"" height=""75%""></img></td>
    <td width=300><img src=""static/images/keys/m.svg"" width=""35%"" height=""75%""></img></td>
  </tr>
</table>
  ",90.0,1.0,,,,,,,,,,,,,,,,,,,,,,,,,,
194,0,,html-keyboard-response,194,1019930,0.0-7.8-2.8,bftdpqgnj6q,2022-09-19 17:56:58.354,60573290a0b07d401c4e61e0,1,85,71,49,22,24,Male,,,"
  <table>
  <tr height=300>
    <td width=300 height=300><img src=""static/images/cards/9_of_red_stars.svg"" width=""175px"" height=""250px""></img></td>
    <td width=300 height=300><img src=""static/images/cards/back_of_red_stars.svg"" width=""175px"" height=""250px""></img></td>
  </tr>
  <tr height=200>
    <td width=300><img src=""static/images/keys/z.svg"" width=""35%"" height=""75%""></img></td>
    <td width=300><img src=""static/images/keys/m.svg"" width=""35%"" height=""75%""></img></td>
  </tr>
</table>
  ",,,,,,,,,,,,,,,,,,,,,,,,,,,,
195,0,,html-keyboard-response,195,1021433,0.0-7.8-3.8,bftdpqgnj6q,2022-09-19 17:56:58.354,60573290a0b07d401c4e61e0,1,85,71,49,22,24,Male,,,"<p style=""font-size:50px"">You win!
+10 points this round!</p>",,,,,,,,,,,,,,,,,,,,,,,,,,,,
196,0,,html-keyboard-response,196,1021939,0.0-7.8-4.8,bftdpqgnj6q,2022-09-19 17:56:58.354,60573290a0b07d401c4e61e0,1,85,71,49,22,24,Male,,,,,,1.0,choice,8.0,C,D,black,red,stars,stars,D,C,C,red,stars,1621.6999999997,1.0,0.0,NA,left,261.3000000003,9.0,1.0,1.0,,,
197,0,,html-keyboard-response,197,1023086,0.0-7.9-0.9,bftdpqgnj6q,2022-09-19 17:56:58.354,60573290a0b07d401c4e61e0,1,85,71,49,22,24,Male,1146.2999999998,,"
  <table>
  <tr height=300>
    <td width=300 height=300><img src=""static/images/cards/stack_of_red_moons.svg"" width=""175px"" height=""250px""></img></td>
    <td width=300 height=300><img src=""static/images/cards/stack_of_black_stars.svg"" width=""175px"" height=""250px""></img></td>
  </tr>
  <tr height=200>
    <td width=300><img src=""static/images/keys/w.svg"" width=""35%"" height=""75%""></img></td>
    <td width=300><img src=""static/images/keys/o.svg"" width=""35%"" height=""75%""></img></td>
  </tr>
</table>
  ",87.0,1.0,,,,,,,,,,,,,,,,,,,,,,,,,,
198,0,,html-keyboard-response,198,1024669,0.0-7.9-1.9,bftdpqgnj6q,2022-09-19 17:56:58.354,60573290a0b07d401c4e61e0,1,85,71,49,22,24,Male,1081.6000000001,,"
  <table>
  <tr height=300>
    <td width=300 height=300><img src=""static/images/cards/back_of_red_moons.svg"" width=""175px"" height=""250px""></img></td>
    <td width=300 height=300><img src=""static/images/cards/back_of_red_moons.svg"" width=""175px"" height=""250px""></img></td>
  </tr>
  <tr height=200>
    <td width=300><img src=""static/images/keys/z.svg"" width=""35%"" height=""75%""></img></td>
    <td width=300><img src=""static/images/keys/m.svg"" width=""35%"" height=""75%""></img></td>
  </tr>
</table>
  ",90.0,1.0,,,,,,,,,,,,,,,,,,,,,,,,,,
199,0,,html-keyboard-response,199,1026171,0.0-7.9-2.9,bftdpqgnj6q,2022-09-19 17:56:58.354,60573290a0b07d401c4e61e0,1,85,71,49,22,24,Male,,,"
  <table>
  <tr height=300>
    <td width=300 height=300><img src=""static/images/cards/8_of_red_moons.svg"" width=""175px"" height=""250px""></img></td>
    <td width=300 height=300><img src=""static/images/cards/back_of_red_moons.svg"" width=""175px"" height=""250px""></img></td>
  </tr>
  <tr height=200>
    <td width=300><img src=""static/images/keys/z.svg"" width=""35%"" height=""75%""></img></td>
    <td width=300><img src=""static/images/keys/m.svg"" width=""35%"" height=""75%""></img></td>
  </tr>
</table>
  ",,,,,,,,,,,,,,,,,,,,,,,,,,,,
200,0,,html-keyboard-response,200,1027673,0.0-7.9-3.9,bftdpqgnj6q,2022-09-19 17:56:58.354,60573290a0b07d401c4e61e0,1,85,71,49,22,24,Male,,,"<p style=""font-size:50px"">You win!
+10 points this round!</p>",,,,,,,,,,,,,,,,,,,,,,,,,,,,
201,0,,html-keyboard-response,201,1028179,0.0-7.9-4.9,bftdpqgnj6q,2022-09-19 17:56:58.354,60573290a0b07d401c4e61e0,1,85,71,49,22,24,Male,,,,,,1.0,choice,9.0,A,D,red,black,moons,stars,A,D,A,red,moons,1146.2999999998,1.0,1.0,NA,left,1081.6000000001,8.0,1.0,1.0,,,
202,0,,html-keyboard-response,202,1029030,0.0-7.10-0.10,bftdpqgnj6q,2022-09-19 17:56:58.354,60573290a0b07d401c4e61e0,1,85,71,49,22,24,Male,849.8999999999,,"
  <table>
  <tr height=300>
    <td width=300 height=300><img src=""static/images/cards/stack_of_red_moons.svg"" width=""175px"" height=""250px""></img></td>
    <td width=300 height=300><img src=""static/images/cards/stack_of_red_stars.svg"" width=""175px"" height=""250px""></img></td>
  </tr>
  <tr height=200>
    <td width=300><img src=""static/images/keys/w.svg"" width=""35%"" height=""75%""></img></td>
    <td width=300><img src=""static/images/keys/o.svg"" width=""35%"" height=""75%""></img></td>
  </tr>
</table>
  ",87.0,1.0,,,,,,,,,,,,,,,,,,,,,,,,,,
203,0,,html-keyboard-response,203,1030186,0.0-7.10-1.10,bftdpqgnj6q,2022-09-19 17:56:58.354,60573290a0b07d401c4e61e0,1,85,71,49,22,24,Male,654.6000000001,,"
  <table>
  <tr height=300>
    <td width=300 height=300><img src=""static/images/cards/back_of_red_moons.svg"" width=""175px"" height=""250px""></img></td>
    <td width=300 height=300><img src=""static/images/cards/back_of_red_moons.svg"" width=""175px"" height=""250px""></img></td>
  </tr>
  <tr height=200>
    <td width=300><img src=""static/images/keys/z.svg"" width=""35%"" height=""75%""></img></td>
    <td width=300><img src=""static/images/keys/m.svg"" width=""35%"" height=""75%""></img></td>
  </tr>
</table>
  ",77.0,1.0,,,,,,,,,,,,,,,,,,,,,,,,,,
204,0,,html-keyboard-response,204,1031687,0.0-7.10-2.10,bftdpqgnj6q,2022-09-19 17:56:58.354,60573290a0b07d401c4e61e0,1,85,71,49,22,24,Male,,,"
  <table>
  <tr height=300>
    <td width=300 height=300><img src=""static/images/cards/back_of_red_moons.svg"" width=""175px"" height=""250px""></img></td>
    <td width=300 height=300><img src=""static/images/cards/6_of_red_moons.svg"" width=""175px"" height=""250px""></img></td>
  </tr>
  <tr height=200>
    <td width=300><img src=""static/images/keys/z.svg"" width=""35%"" height=""75%""></img></td>
    <td width=300><img src=""static/images/keys/m.svg"" width=""35%"" height=""75%""></img></td>
  </tr>
</table>
  ",,,,,,,,,,,,,,,,,,,,,,,,,,,,
205,0,,html-keyboard-response,205,1033190,0.0-7.10-3.10,bftdpqgnj6q,2022-09-19 17:56:58.354,60573290a0b07d401c4e61e0,1,85,71,49,22,24,Male,,,"<p style=""font-size:50px"">You win!
+10 points this round!</p>",,,,,,,,,,,,,,,,,,,,,,,,,,,,
206,0,,html-keyboard-response,206,1033696,0.0-7.10-4.10,bftdpqgnj6q,2022-09-19 17:56:58.354,60573290a0b07d401c4e61e0,1,85,71,49,22,24,Male,,,,,,1.0,choice,10.0,A,C,red,red,moons,stars,A,C,A,red,moons,849.8999999999,1.0,1.0,NA,right,654.6000000001,6.0,1.0,1.0,,,
207,0,,html-keyboard-response,207,1034845,0.0-7.11-0.11,bftdpqgnj6q,2022-09-19 17:56:58.354,60573290a0b07d401c4e61e0,1,85,71,49,22,24,Male,1148.5,,"
  <table>
  <tr height=300>
    <td width=300 height=300><img src=""static/images/cards/stack_of_red_stars.svg"" width=""175px"" height=""250px""></img></td>
    <td width=300 height=300><img src=""static/images/cards/stack_of_black_moons.svg"" width=""175px"" height=""250px""></img></td>
  </tr>
  <tr height=200>
    <td width=300><img src=""static/images/keys/w.svg"" width=""35%"" height=""75%""></img></td>
    <td width=300><img src=""static/images/keys/o.svg"" width=""35%"" height=""75%""></img></td>
  </tr>
</table>
  ",79.0,1.0,,,,,,,,,,,,,,,,,,,,,,,,,,
208,0,,html-keyboard-response,208,1035844,0.0-7.11-1.11,bftdpqgnj6q,2022-09-19 17:56:58.354,60573290a0b07d401c4e61e0,1,85,71,49,22,24,Male,498.3999999999,,"
  <table>
  <tr height=300>
    <td width=300 height=300><img src=""static/images/cards/back_of_black_moons.svg"" width=""175px"" height=""250px""></img></td>
    <td width=300 height=300><img src=""static/images/cards/back_of_black_moons.svg"" width=""175px"" height=""250px""></img></td>
  </tr>
  <tr height=200>
    <td width=300><img src=""static/images/keys/z.svg"" width=""35%"" height=""75%""></img></td>
    <td width=300></td>
  </tr>
</table>
  ",90.0,1.0,,,,,,,,,,,,,,,,,,,,,,,,,,
209,0,,html-keyboard-response,209,1037346,0.0-7.11-2.11,bftdpqgnj6q,2022-09-19 17:56:58.354,60573290a0b07d401c4e61e0,1,85,71,49,22,24,Male,,,"
  <table>
  <tr height=300>
    <td width=300 height=300><img src=""static/images/cards/3_of_black_moons.svg"" width=""175px"" height=""250px""></img></td>
    <td width=300 height=300><img src=""static/images/cards/back_of_black_moons.svg"" width=""175px"" height=""250px""></img></td>
  </tr>
  <tr height=200>
    <td width=300><img src=""static/images/keys/z.svg"" width=""35%"" height=""75%""></img></td>
    <td width=300></td>
  </tr>
</table>
  ",,,,,,,,,,,,,,,,,,,,,,,,,,,,
210,0,,html-keyboard-response,210,1038849,0.0-7.11-3.11,bftdpqgnj6q,2022-09-19 17:56:58.354,60573290a0b07d401c4e61e0,1,85,71,49,22,24,Male,,,"<p style=""font-size:50px"">You Lose!
No points this round.</p>",,,,,,,,,,,,,,,,,,,,,,,,,,,,
211,0,,html-keyboard-response,211,1039355,0.0-7.11-4.11,bftdpqgnj6q,2022-09-19 17:56:58.354,60573290a0b07d401c4e61e0,1,85,71,49,22,24,Male,,,,,,1.0,choice,11.0,B,C,red,black,stars,moons,C,B,B,black,moons,1148.5,0.0,1.0,1,left,498.3999999999,3.0,0.0,0.0,,,
212,0,,html-keyboard-response,212,1040216,0.0-7.12-0.12,bftdpqgnj6q,2022-09-19 17:56:58.354,60573290a0b07d401c4e61e0,1,85,71,49,22,24,Male,860.9000000004,,"
  <table>
  <tr height=300>
    <td width=300 height=300><img src=""static/images/cards/stack_of_red_stars.svg"" width=""175px"" height=""250px""></img></td>
    <td width=300 height=300><img src=""static/images/cards/stack_of_black_moons.svg"" width=""175px"" height=""250px""></img></td>
  </tr>
  <tr height=200>
    <td width=300><img src=""static/images/keys/w.svg"" width=""35%"" height=""75%""></img></td>
    <td width=300><img src=""static/images/keys/o.svg"" width=""35%"" height=""75%""></img></td>
  </tr>
</table>
  ",79.0,1.0,,,,,,,,,,,,,,,,,,,,,,,,,,
213,0,,html-keyboard-response,213,1041166,0.0-7.12-1.12,bftdpqgnj6q,2022-09-19 17:56:58.354,60573290a0b07d401c4e61e0,1,85,71,49,22,24,Male,448.2999999998,,"
  <table>
  <tr height=300>
    <td width=300 height=300><img src=""static/images/cards/back_of_black_moons.svg"" width=""175px"" height=""250px""></img></td>
    <td width=300 height=300><img src=""static/images/cards/back_of_black_moons.svg"" width=""175px"" height=""250px""></img></td>
  </tr>
  <tr height=200>
    <td width=300><img src=""static/images/keys/z.svg"" width=""35%"" height=""75%""></img></td>
    <td width=300></td>
  </tr>
</table>
  ",90.0,1.0,,,,,,,,,,,,,,,,,,,,,,,,,,
214,0,,html-keyboard-response,214,1042668,0.0-7.12-2.12,bftdpqgnj6q,2022-09-19 17:56:58.354,60573290a0b07d401c4e61e0,1,85,71,49,22,24,Male,,,"
  <table>
  <tr height=300>
    <td width=300 height=300><img src=""static/images/cards/9_of_black_moons.svg"" width=""175px"" height=""250px""></img></td>
    <td width=300 height=300><img src=""static/images/cards/back_of_black_moons.svg"" width=""175px"" height=""250px""></img></td>
  </tr>
  <tr height=200>
    <td width=300><img src=""static/images/keys/z.svg"" width=""35%"" height=""75%""></img></td>
    <td width=300></td>
  </tr>
</table>
  ",,,,,,,,,,,,,,,,,,,,,,,,,,,,
215,0,,html-keyboard-response,215,1044170,0.0-7.12-3.12,bftdpqgnj6q,2022-09-19 17:56:58.354,60573290a0b07d401c4e61e0,1,85,71,49,22,24,Male,,,"<p style=""font-size:50px"">You win!
+10 points this round!</p>",,,,,,,,,,,,,,,,,,,,,,,,,,,,
216,0,,html-keyboard-response,216,1044675,0.0-7.12-4.12,bftdpqgnj6q,2022-09-19 17:56:58.354,60573290a0b07d401c4e61e0,1,85,71,49,22,24,Male,,,,,,1.0,choice,12.0,B,C,red,black,stars,moons,C,B,B,black,moons,860.9000000004,0.0,1.0,1,left,448.2999999998,9.0,1.0,1.0,,,
217,0,,html-keyboard-response,217,1045763,0.0-7.13-0.13,bftdpqgnj6q,2022-09-19 17:56:58.354,60573290a0b07d401c4e61e0,1,85,71,49,22,24,Male,1088.1000000001,,"
  <table>
  <tr height=300>
    <td width=300 height=300><img src=""static/images/cards/stack_of_red_bolts.svg"" width=""175px"" height=""250px""></img></td>
    <td width=300 height=300><img src=""static/images/cards/stack_of_black_stars.svg"" width=""175px"" height=""250px""></img></td>
  </tr>
  <tr height=200>
    <td width=300><img src=""static/images/keys/w.svg"" width=""35%"" height=""75%""></img></td>
    <td width=300><img src=""static/images/keys/o.svg"" width=""35%"" height=""75%""></img></td>
  </tr>
</table>
  ",87.0,1.0,,,,,,,,,,,,,,,,,,,,,,,,,,
218,0,,html-keyboard-response,218,1046799,0.0-7.13-1.13,bftdpqgnj6q,2022-09-19 17:56:58.354,60573290a0b07d401c4e61e0,1,85,71,49,22,24,Male,534.1000000001,,"
  <table>
  <tr height=300>
    <td width=300 height=300><img src=""static/images/cards/back_of_red_bolts.svg"" width=""175px"" height=""250px""></img></td>
    <td width=300 height=300><img src=""static/images/cards/back_of_red_bolts.svg"" width=""175px"" height=""250px""></img></td>
  </tr>
  <tr height=200>
    <td width=300><img src=""static/images/keys/z.svg"" width=""35%"" height=""75%""></img></td>
    <td width=300><img src=""static/images/keys/m.svg"" width=""35%"" height=""75%""></img></td>
  </tr>
</table>
  ",90.0,1.0,,,,,,,,,,,,,,,,,,,,,,,,,,
219,0,,html-keyboard-response,219,1048301,0.0-7.13-2.13,bftdpqgnj6q,2022-09-19 17:56:58.354,60573290a0b07d401c4e61e0,1,85,71,49,22,24,Male,,,"
  <table>
  <tr height=300>
    <td width=300 height=300><img src=""static/images/cards/4_of_red_bolts.svg"" width=""175px"" height=""250px""></img></td>
    <td width=300 height=300><img src=""static/images/cards/back_of_red_bolts.svg"" width=""175px"" height=""250px""></img></td>
  </tr>
  <tr height=200>
    <td width=300><img src=""static/images/keys/z.svg"" width=""35%"" height=""75%""></img></td>
    <td width=300><img src=""static/images/keys/m.svg"" width=""35%"" height=""75%""></img></td>
  </tr>
</table>
  ",,,,,,,,,,,,,,,,,,,,,,,,,,,,
220,0,,html-keyboard-response,220,1049804,0.0-7.13-3.13,bftdpqgnj6q,2022-09-19 17:56:58.354,60573290a0b07d401c4e61e0,1,85,71,49,22,24,Male,,,"<p style=""font-size:50px"">You win!
+10 points this round!</p>",,,,,,,,,,,,,,,,,,,,,,,,,,,,
221,0,,html-keyboard-response,221,1050311,0.0-7.13-4.13,bftdpqgnj6q,2022-09-19 17:56:58.354,60573290a0b07d401c4e61e0,1,85,71,49,22,24,Male,,,,,,1.0,choice,13.0,D,Xc,red,black,bolts,stars,Xc,D,Xc,red,bolts,1088.1000000001,1.0,0.0,NA,left,534.1000000001,4.0,0.0,1.0,,,
222,0,,html-keyboard-response,222,1051390,0.0-7.14-0.14,bftdpqgnj6q,2022-09-19 17:56:58.354,60573290a0b07d401c4e61e0,1,85,71,49,22,24,Male,1078.5,,"
  <table>
  <tr height=300>
    <td width=300 height=300><img src=""static/images/cards/stack_of_red_moons.svg"" width=""175px"" height=""250px""></img></td>
    <td width=300 height=300><img src=""static/images/cards/stack_of_red_stars.svg"" width=""175px"" height=""250px""></img></td>
  </tr>
  <tr height=200>
    <td width=300><img src=""static/images/keys/w.svg"" width=""35%"" height=""75%""></img></td>
    <td width=300><img src=""static/images/keys/o.svg"" width=""35%"" height=""75%""></img></td>
  </tr>
</table>
  ",87.0,1.0,,,,,,,,,,,,,,,,,,,,,,,,,,
223,0,,html-keyboard-response,223,1052394,0.0-7.14-1.14,bftdpqgnj6q,2022-09-19 17:56:58.354,60573290a0b07d401c4e61e0,1,85,71,49,22,24,Male,501.6000000001,,"
  <table>
  <tr height=300>
    <td width=300 height=300><img src=""static/images/cards/back_of_red_moons.svg"" width=""175px"" height=""250px""></img></td>
    <td width=300 height=300><img src=""static/images/cards/back_of_red_moons.svg"" width=""175px"" height=""250px""></img></td>
  </tr>
  <tr height=200>
    <td width=300><img src=""static/images/keys/z.svg"" width=""35%"" height=""75%""></img></td>
    <td width=300><img src=""static/images/keys/m.svg"" width=""35%"" height=""75%""></img></td>
  </tr>
</table>
  ",90.0,1.0,,,,,,,,,,,,,,,,,,,,,,,,,,
224,0,,html-keyboard-response,224,1053896,0.0-7.14-2.14,bftdpqgnj6q,2022-09-19 17:56:58.354,60573290a0b07d401c4e61e0,1,85,71,49,22,24,Male,,,"
  <table>
  <tr height=300>
    <td width=300 height=300><img src=""static/images/cards/7_of_red_moons.svg"" width=""175px"" height=""250px""></img></td>
    <td width=300 height=300><img src=""static/images/cards/back_of_red_moons.svg"" width=""175px"" height=""250px""></img></td>
  </tr>
  <tr height=200>
    <td width=300><img src=""static/images/keys/z.svg"" width=""35%"" height=""75%""></img></td>
    <td width=300><img src=""static/images/keys/m.svg"" width=""35%"" height=""75%""></img></td>
  </tr>
</table>
  ",,,,,,,,,,,,,,,,,,,,,,,,,,,,
225,0,,html-keyboard-response,225,1055398,0.0-7.14-3.14,bftdpqgnj6q,2022-09-19 17:56:58.354,60573290a0b07d401c4e61e0,1,85,71,49,22,24,Male,,,"<p style=""font-size:50px"">You win!
+10 points this round!</p>",,,,,,,,,,,,,,,,,,,,,,,,,,,,
226,0,,html-keyboard-response,226,1055905,0.0-7.14-4.14,bftdpqgnj6q,2022-09-19 17:56:58.354,60573290a0b07d401c4e61e0,1,85,71,49,22,24,Male,,,,,,1.0,choice,14.0,A,C,red,red,moons,stars,A,C,A,red,moons,1078.5,1.0,1.0,NA,left,501.6000000001,7.0,1.0,1.0,,,
227,0,,html-keyboard-response,227,1057535,0.0-7.15-0.15,bftdpqgnj6q,2022-09-19 17:56:58.354,60573290a0b07d401c4e61e0,1,85,71,49,22,24,Male,1629.2999999998,,"
  <table>
  <tr height=300>
    <td width=300 height=300><img src=""static/images/cards/stack_of_black_stars.svg"" width=""175px"" height=""250px""></img></td>
    <td width=300 height=300><img src=""static/images/cards/stack_of_red_stars.svg"" width=""175px"" height=""250px""></img></td>
  </tr>
  <tr height=200>
    <td width=300><img src=""static/images/keys/w.svg"" width=""35%"" height=""75%""></img></td>
    <td width=300><img src=""static/images/keys/o.svg"" width=""35%"" height=""75%""></img></td>
  </tr>
</table>
  ",79.0,1.0,,,,,,,,,,,,,,,,,,,,,,,,,,
228,0,,html-keyboard-response,228,1058713,0.0-7.15-1.15,bftdpqgnj6q,2022-09-19 17:56:58.354,60573290a0b07d401c4e61e0,1,85,71,49,22,24,Male,675.9000000004,,"
  <table>
  <tr height=300>
    <td width=300 height=300><img src=""static/images/cards/back_of_red_stars.svg"" width=""175px"" height=""250px""></img></td>
    <td width=300 height=300><img src=""static/images/cards/back_of_red_stars.svg"" width=""175px"" height=""250px""></img></td>
  </tr>
  <tr height=200>
    <td width=300><img src=""static/images/keys/z.svg"" width=""35%"" height=""75%""></img></td>
    <td width=300><img src=""static/images/keys/m.svg"" width=""35%"" height=""75%""></img></td>
  </tr>
</table>
  ",77.0,1.0,,,,,,,,,,,,,,,,,,,,,,,,,,
229,0,,html-keyboard-response,229,1060215,0.0-7.15-2.15,bftdpqgnj6q,2022-09-19 17:56:58.354,60573290a0b07d401c4e61e0,1,85,71,49,22,24,Male,,,"
  <table>
  <tr height=300>
    <td width=300 height=300><img src=""static/images/cards/back_of_red_stars.svg"" width=""175px"" height=""250px""></img></td>
    <td width=300 height=300><img src=""static/images/cards/4_of_red_stars.svg"" width=""175px"" height=""250px""></img></td>
  </tr>
  <tr height=200>
    <td width=300><img src=""static/images/keys/z.svg"" width=""35%"" height=""75%""></img></td>
    <td width=300><img src=""static/images/keys/m.svg"" width=""35%"" height=""75%""></img></td>
  </tr>
</table>
  ",,,,,,,,,,,,,,,,,,,,,,,,,,,,
230,0,,html-keyboard-response,230,1061718,0.0-7.15-3.15,bftdpqgnj6q,2022-09-19 17:56:58.354,60573290a0b07d401c4e61e0,1,85,71,49,22,24,Male,,,"<p style=""font-size:50px"">You win!
+10 points this round!</p>",,,,,,,,,,,,,,,,,,,,,,,,,,,,
231,0,,html-keyboard-response,231,1062224,0.0-7.15-4.15,bftdpqgnj6q,2022-09-19 17:56:58.354,60573290a0b07d401c4e61e0,1,85,71,49,22,24,Male,,,,,,1.0,choice,15.0,C,D,black,red,stars,stars,D,C,C,red,stars,1629.2999999998,1.0,0.0,NA,right,675.9000000004,4.0,0.0,1.0,,,
232,0,,html-keyboard-response,232,1065283,0.0-7.16-0.16,bftdpqgnj6q,2022-09-19 17:56:58.354,60573290a0b07d401c4e61e0,1,85,71,49,22,24,Male,3058.5,,"
  <table>
  <tr height=300>
    <td width=300 height=300><img src=""static/images/cards/stack_of_black_stars.svg"" width=""175px"" height=""250px""></img></td>
    <td width=300 height=300><img src=""static/images/cards/stack_of_black_moons.svg"" width=""175px"" height=""250px""></img></td>
  </tr>
  <tr height=200>
    <td width=300><img src=""static/images/keys/w.svg"" width=""35%"" height=""75%""></img></td>
    <td width=300><img src=""static/images/keys/o.svg"" width=""35%"" height=""75%""></img></td>
  </tr>
</table>
  ",79.0,1.0,,,,,,,,,,,,,,,,,,,,,,,,,,
233,0,,html-keyboard-response,233,1066629,0.0-7.16-1.16,bftdpqgnj6q,2022-09-19 17:56:58.354,60573290a0b07d401c4e61e0,1,85,71,49,22,24,Male,845.1000000001,,"
  <table>
  <tr height=300>
    <td width=300 height=300><img src=""static/images/cards/back_of_black_moons.svg"" width=""175px"" height=""250px""></img></td>
    <td width=300 height=300><img src=""static/images/cards/back_of_black_moons.svg"" width=""175px"" height=""250px""></img></td>
  </tr>
  <tr height=200>
    <td width=300></td>
    <td width=300><img src=""static/images/keys/m.svg"" width=""35%"" height=""75%""></img></td>
  </tr>
</table>
  ",77.0,1.0,,,,,,,,,,,,,,,,,,,,,,,,,,
234,0,,html-keyboard-response,234,1068130,0.0-7.16-2.16,bftdpqgnj6q,2022-09-19 17:56:58.354,60573290a0b07d401c4e61e0,1,85,71,49,22,24,Male,,,"
  <table>
  <tr height=300>
    <td width=300 height=300><img src=""static/images/cards/back_of_black_moons.svg"" width=""175px"" height=""250px""></img></td>
