,index,success,trial_type,trial_index,time_elapsed,internal_node_id,subject,date,prol_id,ctbl,sense_of_control_A,sense_of_control_B,sense_of_control_C,sense_of_control_D,age,gender,rt,url,stimulus,key_press,npress,is_data_trial,phase,trial,deck1,deck2,col1,col2,sym1,sym2,deck_l,deck_r,chosen_deck,chosen_col,chosen_sym,deck_rt,choose_choice,mutual_info,hidden_key,chosen_card,card_rt,player_num,win_card,outcome,mock_rating,response,responses
0,0,1.0,fullscreen,0,3318,0.0-0.0,ojttky67elb,2022-09-19 17:09:09.641,5c366fc38821900001b38b67,1,69,35,36,35,forty eight,female,,,,,,,,,,,,,,,,,,,,,,,,,,,,,,,
1,0,,external-html,1,22486,0.0-1.0,ojttky67elb,2022-09-19 17:09:09.641,5c366fc38821900001b38b67,1,69,35,36,35,forty eight,female,19050.8999999762,static/js/sub/consent.html,,,,,,,,,,,,,,,,,,,,,,,,,,,,,
2,0,,call-function,2,22493,0.0-2.0,ojttky67elb,2022-09-19 17:09:09.641,5c366fc38821900001b38b67,1,69,35,36,35,forty eight,female,,,,,,,,,,,,,,,,,,,,,,,,,,,,,,,
3,0,,image-keyboard-response,3,36166,0.0-3.0-0.0,ojttky67elb,2022-09-19 17:09:09.641,5c366fc38821900001b38b67,1,69,35,36,35,forty eight,female,13668.1999999881,,static/images/instructions_CB_1/Slide1.png,39.0,,,,,,,,,,,,,,,,,,,,,,,,,,,
4,0,,image-keyboard-response,4,45960,0.0-3.1-0.1,ojttky67elb,2022-09-19 17:09:09.641,5c366fc38821900001b38b67,1,69,35,36,35,forty eight,female,9789.1999999881,,static/images/instructions_CB_1/Slide2.png,39.0,,,,,,,,,,,,,,,,,,,,,,,,,,,
5,0,,image-keyboard-response,5,51569,0.0-3.2-0.2,ojttky67elb,2022-09-19 17:09:09.641,5c366fc38821900001b38b67,1,69,35,36,35,forty eight,female,5604.0999999642,,static/images/instructions_CB_1/Slide3.png,39.0,,,,,,,,,,,,,,,,,,,,,,,,,,,
6,0,,image-keyboard-response,6,58625,0.0-3.3-0.3,ojttky67elb,2022-09-19 17:09:09.641,5c366fc38821900001b38b67,1,69,35,36,35,forty eight,female,7060.7999999523,,static/images/instructions_CB_1/Slide4.png,39.0,,,,,,,,,,,,,,,,,,,,,,,,,,,
7,0,,image-keyboard-response,7,66134,0.0-3.4-0.4,ojttky67elb,2022-09-19 17:09:09.641,5c366fc38821900001b38b67,1,69,35,36,35,forty eight,female,7506.5,,static/images/instructions_CB_1/Slide5.png,39.0,,,,,,,,,,,,,,,,,,,,,,,,,,,
8,0,,image-keyboard-response,8,70962,0.0-3.5-0.5,ojttky67elb,2022-09-19 17:09:09.641,5c366fc38821900001b38b67,1,69,35,36,35,forty eight,female,4826.0999999642,,static/images/instructions_CB_1/Slide6.png,39.0,,,,,,,,,,,,,,,,,,,,,,,,,,,
9,0,,image-keyboard-response,9,75554,0.0-3.6-0.6,ojttky67elb,2022-09-19 17:09:09.641,5c366fc38821900001b38b67,1,69,35,36,35,forty eight,female,4589.3999999762,,static/images/instructions_CB_1/Slide7.png,39.0,,,,,,,,,,,,,,,,,,,,,,,,,,,
10,0,,image-keyboard-response,10,96345,0.0-3.7-0.7,ojttky67elb,2022-09-19 17:09:09.641,5c366fc38821900001b38b67,1,69,35,36,35,forty eight,female,20788.3000000119,,static/images/instructions_CB_1/Slide8.png,39.0,,,,,,,,,,,,,,,,,,,,,,,,,,,
11,0,,image-keyboard-response,11,104187,0.0-3.8-0.8,ojttky67elb,2022-09-19 17:09:09.641,5c366fc38821900001b38b67,1,69,35,36,35,forty eight,female,7839.0,,static/images/instructions_CB_1/Slide9.png,39.0,,,,,,,,,,,,,,,,,,,,,,,,,,,
12,0,,image-keyboard-response,12,121431,0.0-3.9-0.9,ojttky67elb,2022-09-19 17:09:09.641,5c366fc38821900001b38b67,1,69,35,36,35,forty eight,female,17241.0,,static/images/instructions_CB_1/Slide10.png,39.0,,,,,,,,,,,,,,,,,,,,,,,,,,,
13,0,,image-keyboard-response,13,128857,0.0-3.10-0.10,ojttky67elb,2022-09-19 17:09:09.641,5c366fc38821900001b38b67,1,69,35,36,35,forty eight,female,7423.3999999762,,static/images/instructions_CB_1/Slide11.png,39.0,,,,,,,,,,,,,,,,,,,,,,,,,,,
14,0,,image-keyboard-response,14,144571,0.0-3.11-0.11,ojttky67elb,2022-09-19 17:09:09.641,5c366fc38821900001b38b67,1,69,35,36,35,forty eight,female,15711.8000000119,,static/images/instructions_CB_1/Slide12.png,39.0,,,,,,,,,,,,,,,,,,,,,,,,,,,
15,0,,image-keyboard-response,15,158487,0.0-3.12-0.12,ojttky67elb,2022-09-19 17:09:09.641,5c366fc38821900001b38b67,1,69,35,36,35,forty eight,female,13913.3999999762,,static/images/instructions_CB_1/Slide13.png,39.0,,,,,,,,,,,,,,,,,,,,,,,,,,,
16,0,,image-keyboard-response,16,163028,0.0-3.13-0.13,ojttky67elb,2022-09-19 17:09:09.641,5c366fc38821900001b38b67,1,69,35,36,35,forty eight,female,4538.9000000358,,static/images/instructions_CB_1/Slide14.png,39.0,,,,,,,,,,,,,,,,,,,,,,,,,,,
17,0,,image-keyboard-response,17,176625,0.0-3.14-0.14,ojttky67elb,2022-09-19 17:09:09.641,5c366fc38821900001b38b67,1,69,35,36,35,forty eight,female,13594.3000000119,,static/images/instructions_CB_1/Slide15.png,39.0,,,,,,,,,,,,,,,,,,,,,,,,,,,
18,0,,image-keyboard-response,18,185096,0.0-3.15-0.15,ojttky67elb,2022-09-19 17:09:09.641,5c366fc38821900001b38b67,1,69,35,36,35,forty eight,female,8460.0,,static/images/instructions_CB_1/Slide16.png,39.0,,,,,,,,,,,,,,,,,,,,,,,,,,,
19,0,,image-keyboard-response,19,197813,0.0-3.16-0.16,ojttky67elb,2022-09-19 17:09:09.641,5c366fc38821900001b38b67,1,69,35,36,35,forty eight,female,12715.3000000119,,static/images/instructions_CB_1/Slide17.png,39.0,,,,,,,,,,,,,,,,,,,,,,,,,,,
20,0,,image-keyboard-response,20,218602,0.0-3.17-0.17,ojttky67elb,2022-09-19 17:09:09.641,5c366fc38821900001b38b67,1,69,35,36,35,forty eight,female,20787.5999999642,,static/images/instructions_CB_1/Slide18.png,39.0,,,,,,,,,,,,,,,,,,,,,,,,,,,
21,0,,image-keyboard-response,21,229864,0.0-3.18-0.18,ojttky67elb,2022-09-19 17:09:09.641,5c366fc38821900001b38b67,1,69,35,36,35,forty eight,female,11259.0999999642,,static/images/instructions_CB_1/Slide19.png,39.0,,,,,,,,,,,,,,,,,,,,,,,,,,,
22,0,,html-keyboard-response,22,231370,0.0-4.0-0.0,ojttky67elb,2022-09-19 17:09:09.641,5c366fc38821900001b38b67,1,69,35,36,35,forty eight,female,,,"<img src=""static/images/cards/stack_of_red_moons.svg"" width=""175px"" height=""250px""></img>",,,,,,,,,,,,,,,,,,,,,,,,,,,,
23,0,,html-keyboard-response,23,234592,0.0-4.0-1.0,ojttky67elb,2022-09-19 17:09:09.641,5c366fc38821900001b38b67,1,69,35,36,35,forty eight,female,2712.6000000238,,"
  <table>
  <tr height=300>
    <td width=300 height=300><img src=""static/images/cards/back_of_red_moons.svg"" width=""175px"" height=""250px""></img></td>
    <td width=300 height=300><img src=""static/images/cards/back_of_red_moons.svg"" width=""175px"" height=""250px""></img></td>
  </tr>
  <tr height=200>
    <td width=300><img src=""static/images/keys/z.svg"" width=""35%"" height=""75%""></img></td>
    <td width=300><img src=""static/images/keys/m.svg"" width=""35%"" height=""75%""></img></td>
  </tr>
</table>
  ",90.0,1.0,,,,,,,,,,,,,,,,,,,,,,,,,,
24,0,,html-keyboard-response,24,236104,0.0-4.0-2.0,ojttky67elb,2022-09-19 17:09:09.641,5c366fc38821900001b38b67,1,69,35,36,35,forty eight,female,,,"
  <table>
  <tr height=300>
    <td width=300 height=300><img src=""static/images/cards/1_of_red_moons.svg"" width=""175px"" height=""250px""></img></td>
    <td width=300 height=300><img src=""static/images/cards/back_of_red_moons.svg"" width=""175px"" height=""250px""></img></td>
  </tr>
  <tr height=200>
    <td width=300><img src=""static/images/keys/z.svg"" width=""35%"" height=""75%""></img></td>
    <td width=300><img src=""static/images/keys/m.svg"" width=""35%"" height=""75%""></img></td>
  </tr>
</table>
  ",,,,,,,,,,,,,,,,,,,,,,,,,,,,
25,0,,html-keyboard-response,25,237628,0.0-4.0-3.0,ojttky67elb,2022-09-19 17:09:09.641,5c366fc38821900001b38b67,1,69,35,36,35,forty eight,female,,,"<p style=""font-size:50px"">You Lose!
No points this round.</p>",,,,,,,,,,,,,,,,,,,,,,,,,,,,
26,0,,html-keyboard-response,26,238138,0.0-4.0-4.0,ojttky67elb,2022-09-19 17:09:09.641,5c366fc38821900001b38b67,1,69,35,36,35,forty eight,female,,,,,,1.0,learning,0.0,A,,red,,moons,,,,A,red,moons,,1.0,1.0,NA,left,2712.6000000238,1.0,0.0,0.0,,,
27,0,,html-keyboard-response,27,239643,0.0-4.1-0.1,ojttky67elb,2022-09-19 17:09:09.641,5c366fc38821900001b38b67,1,69,35,36,35,forty eight,female,,,"<img src=""static/images/cards/stack_of_black_moons.svg"" width=""175px"" height=""250px""></img>",,,,,,,,,,,,,,,,,,,,,,,,,,,,
28,0,,html-keyboard-response,28,241534,0.0-4.1-1.1,ojttky67elb,2022-09-19 17:09:09.641,5c366fc38821900001b38b67,1,69,35,36,35,forty eight,female,1382.1000000238,,"
  <table>
  <tr height=300>
    <td width=300 height=300><img src=""static/images/cards/back_of_black_moons.svg"" width=""175px"" height=""250px""></img></td>
    <td width=300 height=300><img src=""static/images/cards/back_of_black_moons.svg"" width=""175px"" height=""250px""></img></td>
  </tr>
  <tr height=200>
    <td width=300><img src=""static/images/keys/z.svg"" width=""35%"" height=""75%""></img></td>
    <td width=300></td>
  </tr>
</table>
  ",90.0,1.0,,,,,,,,,,,,,,,,,,,,,,,,,,
29,0,,html-keyboard-response,29,243053,0.0-4.1-2.1,ojttky67elb,2022-09-19 17:09:09.641,5c366fc38821900001b38b67,1,69,35,36,35,forty eight,female,,,"
  <table>
  <tr height=300>
    <td width=300 height=300><img src=""static/images/cards/10_of_black_moons.svg"" width=""175px"" height=""250px""></img></td>
    <td width=300 height=300><img src=""static/images/cards/back_of_black_moons.svg"" width=""175px"" height=""250px""></img></td>
  </tr>
  <tr height=200>
    <td width=300><img src=""static/images/keys/z.svg"" width=""35%"" height=""75%""></img></td>
    <td width=300></td>
  </tr>
</table>
  ",,,,,,,,,,,,,,,,,,,,,,,,,,,,
30,0,,html-keyboard-response,30,244577,0.0-4.1-3.1,ojttky67elb,2022-09-19 17:09:09.641,5c366fc38821900001b38b67,1,69,35,36,35,forty eight,female,,,"<p style=""font-size:50px"">You win!
+10 points this round!</p>",,,,,,,,,,,,,,,,,,,,,,,,,,,,
31,0,,html-keyboard-response,31,245089,0.0-4.1-4.1,ojttky67elb,2022-09-19 17:09:09.641,5c366fc38821900001b38b67,1,69,35,36,35,forty eight,female,,,,,,1.0,learning,1.0,B,,black,,moons,,,,B,black,moons,,0.0,1.0,1,left,1382.1000000238,10.0,1.0,1.0,,,
32,0,,html-keyboard-response,32,246595,0.0-4.2-0.2,ojttky67elb,2022-09-19 17:09:09.641,5c366fc38821900001b38b67,1,69,35,36,35,forty eight,female,,,"<img src=""static/images/cards/stack_of_red_stars.svg"" width=""175px"" height=""250px""></img>",,,,,,,,,,,,,,,,,,,,,,,,,,,,
33,0,,html-keyboard-response,33,248399,0.0-4.2-1.2,ojttky67elb,2022-09-19 17:09:09.641,5c366fc38821900001b38b67,1,69,35,36,35,forty eight,female,1292.0,,"
  <table>
  <tr height=300>
    <td width=300 height=300><img src=""static/images/cards/back_of_red_stars.svg"" width=""175px"" height=""250px""></img></td>
    <td width=300 height=300><img src=""static/images/cards/back_of_red_stars.svg"" width=""175px"" height=""250px""></img></td>
  </tr>
  <tr height=200>
    <td width=300><img src=""static/images/keys/z.svg"" width=""35%"" height=""75%""></img></td>
    <td width=300><img src=""static/images/keys/m.svg"" width=""35%"" height=""75%""></img></td>
  </tr>
</table>
  ",77.0,1.0,,,,,,,,,,,,,,,,,,,,,,,,,,
34,0,,html-keyboard-response,34,249905,0.0-4.2-2.2,ojttky67elb,2022-09-19 17:09:09.641,5c366fc38821900001b38b67,1,69,35,36,35,forty eight,female,,,"
  <table>
  <tr height=300>
    <td width=300 height=300><img src=""static/images/cards/back_of_red_stars.svg"" width=""175px"" height=""250px""></img></td>
    <td width=300 height=300><img src=""static/images/cards/8_of_red_stars.svg"" width=""175px"" height=""250px""></img></td>
  </tr>
  <tr height=200>
    <td width=300><img src=""static/images/keys/z.svg"" width=""35%"" height=""75%""></img></td>
    <td width=300><img src=""static/images/keys/m.svg"" width=""35%"" height=""75%""></img></td>
  </tr>
</table>
  ",,,,,,,,,,,,,,,,,,,,,,,,,,,,
35,0,,html-keyboard-response,35,251426,0.0-4.2-3.2,ojttky67elb,2022-09-19 17:09:09.641,5c366fc38821900001b38b67,1,69,35,36,35,forty eight,female,,,"<p style=""font-size:50px"">You Lose!
No points this round.</p>",,,,,,,,,,,,,,,,,,,,,,,,,,,,
36,0,,html-keyboard-response,36,251942,0.0-4.2-4.2,ojttky67elb,2022-09-19 17:09:09.641,5c366fc38821900001b38b67,1,69,35,36,35,forty eight,female,,,,,,1.0,learning,2.0,C,,red,,stars,,,,C,red,stars,,1.0,0.0,NA,right,1292.0,8.0,1.0,0.0,,,
37,0,,html-keyboard-response,37,253445,0.0-4.3-0.3,ojttky67elb,2022-09-19 17:09:09.641,5c366fc38821900001b38b67,1,69,35,36,35,forty eight,female,,,"<img src=""static/images/cards/stack_of_black_stars.svg"" width=""175px"" height=""250px""></img>",,,,,,,,,,,,,,,,,,,,,,,,,,,,
38,0,,html-keyboard-response,38,254665,0.0-4.3-1.3,ojttky67elb,2022-09-19 17:09:09.641,5c366fc38821900001b38b67,1,69,35,36,35,forty eight,female,715.6999999881,,"
  <table>
  <tr height=300>
    <td width=300 height=300><img src=""static/images/cards/back_of_black_stars.svg"" width=""175px"" height=""250px""></img></td>
    <td width=300 height=300><img src=""static/images/cards/back_of_black_stars.svg"" width=""175px"" height=""250px""></img></td>
  </tr>
  <tr height=200>
    <td width=300></td>
    <td width=300><img src=""static/images/keys/m.svg"" width=""35%"" height=""75%""></img></td>
  </tr>
</table>
  ",77.0,1.0,,,,,,,,,,,,,,,,,,,,,,,,,,
39,0,,html-keyboard-response,39,256184,0.0-4.3-2.3,ojttky67elb,2022-09-19 17:09:09.641,5c366fc38821900001b38b67,1,69,35,36,35,forty eight,female,,,"
  <table>
  <tr height=300>
    <td width=300 height=300><img src=""static/images/cards/back_of_black_stars.svg"" width=""175px"" height=""250px""></img></td>
    <td width=300 height=300><img src=""static/images/cards/7_of_black_stars.svg"" width=""175px"" height=""250px""></img></td>
  </tr>
  <tr height=200>
    <td width=300></td>
    <td width=300><img src=""static/images/keys/m.svg"" width=""35%"" height=""75%""></img></td>
  </tr>
</table>
  ",,,,,,,,,,,,,,,,,,,,,,,,,,,,
40,0,,html-keyboard-response,40,257707,0.0-4.3-3.3,ojttky67elb,2022-09-19 17:09:09.641,5c366fc38821900001b38b67,1,69,35,36,35,forty eight,female,,,"<p style=""font-size:50px"">You win!
+10 points this round!</p>",,,,,,,,,,,,,,,,,,,,,,,,,,,,
41,0,,html-keyboard-response,41,258214,0.0-4.3-4.3,ojttky67elb,2022-09-19 17:09:09.641,5c366fc38821900001b38b67,1,69,35,36,35,forty eight,female,,,,,,1.0,learning,3.0,D,,black,,stars,,,,D,black,stars,,0.0,0.0,0,right,715.6999999881,7.0,1.0,1.0,,,
42,0,,html-keyboard-response,42,259728,0.0-4.4-0.4,ojttky67elb,2022-09-19 17:09:09.641,5c366fc38821900001b38b67,1,69,35,36,35,forty eight,female,,,"<img src=""static/images/cards/stack_of_red_bolts.svg"" width=""175px"" height=""250px""></img>",,,,,,,,,,,,,,,,,,,,,,,,,,,,
43,0,,html-keyboard-response,43,261596,0.0-4.4-1.4,ojttky67elb,2022-09-19 17:09:09.641,5c366fc38821900001b38b67,1,69,35,36,35,forty eight,female,1353.3000000119,,"
  <table>
  <tr height=300>
    <td width=300 height=300><img src=""static/images/cards/back_of_red_bolts.svg"" width=""175px"" height=""250px""></img></td>
    <td width=300 height=300><img src=""static/images/cards/back_of_red_bolts.svg"" width=""175px"" height=""250px""></img></td>
  </tr>
  <tr height=200>
    <td width=300><img src=""static/images/keys/z.svg"" width=""35%"" height=""75%""></img></td>
    <td width=300><img src=""static/images/keys/m.svg"" width=""35%"" height=""75%""></img></td>
  </tr>
</table>
  ",90.0,1.0,,,,,,,,,,,,,,,,,,,,,,,,,,
44,0,,html-keyboard-response,44,263109,0.0-4.4-2.4,ojttky67elb,2022-09-19 17:09:09.641,5c366fc38821900001b38b67,1,69,35,36,35,forty eight,female,,,"
  <table>
  <tr height=300>
    <td width=300 height=300><img src=""static/images/cards/6_of_red_bolts.svg"" width=""175px"" height=""250px""></img></td>
    <td width=300 height=300><img src=""static/images/cards/back_of_red_bolts.svg"" width=""175px"" height=""250px""></img></td>
  </tr>
  <tr height=200>
    <td width=300><img src=""static/images/keys/z.svg"" width=""35%"" height=""75%""></img></td>
    <td width=300><img src=""static/images/keys/m.svg"" width=""35%"" height=""75%""></img></td>
  </tr>
</table>
  ",,,,,,,,,,,,,,,,,,,,,,,,,,,,
45,0,,html-keyboard-response,45,264631,0.0-4.4-3.4,ojttky67elb,2022-09-19 17:09:09.641,5c366fc38821900001b38b67,1,69,35,36,35,forty eight,female,,,"<p style=""font-size:50px"">You win!
+10 points this round!</p>",,,,,,,,,,,,,,,,,,,,,,,,,,,,
46,0,,html-keyboard-response,46,265152,0.0-4.4-4.4,ojttky67elb,2022-09-19 17:09:09.641,5c366fc38821900001b38b67,1,69,35,36,35,forty eight,female,,,,,,1.0,learning,4.0,Xc,,red,,bolts,,,,Xc,red,bolts,,1.0,0.0,NA,left,1353.3000000119,6.0,1.0,1.0,,,
47,0,,html-keyboard-response,47,266664,0.0-4.5-0.5,ojttky67elb,2022-09-19 17:09:09.641,5c366fc38821900001b38b67,1,69,35,36,35,forty eight,female,,,"<img src=""static/images/cards/stack_of_black_bolts.svg"" width=""175px"" height=""250px""></img>",,,,,,,,,,,,,,,,,,,,,,,,,,,,
48,0,,html-keyboard-response,48,267843,0.0-4.5-1.5,ojttky67elb,2022-09-19 17:09:09.641,5c366fc38821900001b38b67,1,69,35,36,35,forty eight,female,668.3000000119,,"
  <table>
  <tr height=300>
    <td width=300 height=300><img src=""static/images/cards/back_of_black_bolts.svg"" width=""175px"" height=""250px""></img></td>
    <td width=300 height=300><img src=""static/images/cards/back_of_black_bolts.svg"" width=""175px"" height=""250px""></img></td>
  </tr>
  <tr height=200>
    <td width=300></td>
    <td width=300><img src=""static/images/keys/m.svg"" width=""35%"" height=""75%""></img></td>
  </tr>
</table>
  ",77.0,1.0,,,,,,,,,,,,,,,,,,,,,,,,,,
49,0,,html-keyboard-response,49,269359,0.0-4.5-2.5,ojttky67elb,2022-09-19 17:09:09.641,5c366fc38821900001b38b67,1,69,35,36,35,forty eight,female,,,"
  <table>
  <tr height=300>
    <td width=300 height=300><img src=""static/images/cards/back_of_black_bolts.svg"" width=""175px"" height=""250px""></img></td>
    <td width=300 height=300><img src=""static/images/cards/3_of_black_bolts.svg"" width=""175px"" height=""250px""></img></td>
  </tr>
  <tr height=200>
    <td width=300></td>
    <td width=300><img src=""static/images/keys/m.svg"" width=""35%"" height=""75%""></img></td>
  </tr>
</table>
  ",,,,,,,,,,,,,,,,,,,,,,,,,,,,
50,0,,html-keyboard-response,50,270869,0.0-4.5-3.5,ojttky67elb,2022-09-19 17:09:09.641,5c366fc38821900001b38b67,1,69,35,36,35,forty eight,female,,,"<p style=""font-size:50px"">You win!
+10 points this round!</p>",,,,,,,,,,,,,,,,,,,,,,,,,,,,
51,0,,html-keyboard-response,51,271379,0.0-4.5-4.5,ojttky67elb,2022-09-19 17:09:09.641,5c366fc38821900001b38b67,1,69,35,36,35,forty eight,female,,,,,,1.0,learning,5.0,Xnc,,black,,bolts,,,,Xnc,black,bolts,,0.0,0.0,0,right,668.3000000119,3.0,0.0,1.0,,,
52,0,,html-keyboard-response,52,272896,0.0-4.6-0.6,ojttky67elb,2022-09-19 17:09:09.641,5c366fc38821900001b38b67,1,69,35,36,35,forty eight,female,,,"<img src=""static/images/cards/stack_of_red_moons.svg"" width=""175px"" height=""250px""></img>",,,,,,,,,,,,,,,,,,,,,,,,,,,,
53,0,,html-keyboard-response,53,274105,0.0-4.6-1.6,ojttky67elb,2022-09-19 17:09:09.641,5c366fc38821900001b38b67,1,69,35,36,35,forty eight,female,691.3000000119,,"
  <table>
  <tr height=300>
    <td width=300 height=300><img src=""static/images/cards/back_of_red_moons.svg"" width=""175px"" height=""250px""></img></td>
    <td width=300 height=300><img src=""static/images/cards/back_of_red_moons.svg"" width=""175px"" height=""250px""></img></td>
  </tr>
  <tr height=200>
    <td width=300><img src=""static/images/keys/z.svg"" width=""35%"" height=""75%""></img></td>
    <td width=300><img src=""static/images/keys/m.svg"" width=""35%"" height=""75%""></img></td>
  </tr>
</table>
  ",77.0,1.0,,,,,,,,,,,,,,,,,,,,,,,,,,
54,0,,html-keyboard-response,54,275621,0.0-4.6-2.6,ojttky67elb,2022-09-19 17:09:09.641,5c366fc38821900001b38b67,1,69,35,36,35,forty eight,female,,,"
  <table>
  <tr height=300>
    <td width=300 height=300><img src=""static/images/cards/back_of_red_moons.svg"" width=""175px"" height=""250px""></img></td>
    <td width=300 height=300><img src=""static/images/cards/6_of_red_moons.svg"" width=""175px"" height=""250px""></img></td>
  </tr>
  <tr height=200>
    <td width=300><img src=""static/images/keys/z.svg"" width=""35%"" height=""75%""></img></td>
    <td width=300><img src=""static/images/keys/m.svg"" width=""35%"" height=""75%""></img></td>
  </tr>
</table>
  ",,,,,,,,,,,,,,,,,,,,,,,,,,,,
55,0,,html-keyboard-response,55,277152,0.0-4.6-3.6,ojttky67elb,2022-09-19 17:09:09.641,5c366fc38821900001b38b67,1,69,35,36,35,forty eight,female,,,"<p style=""font-size:50px"">You win!
+10 points this round!</p>",,,,,,,,,,,,,,,,,,,,,,,,,,,,
56,0,,html-keyboard-response,56,277658,0.0-4.6-4.6,ojttky67elb,2022-09-19 17:09:09.641,5c366fc38821900001b38b67,1,69,35,36,35,forty eight,female,,,,,,1.0,learning,6.0,A,,red,,moons,,,,A,red,moons,,1.0,1.0,NA,right,691.3000000119,6.0,1.0,1.0,,,
57,0,,html-keyboard-response,57,279174,0.0-4.7-0.7,ojttky67elb,2022-09-19 17:09:09.641,5c366fc38821900001b38b67,1,69,35,36,35,forty eight,female,,,"<img src=""static/images/cards/stack_of_black_moons.svg"" width=""175px"" height=""250px""></img>",,,,,,,,,,,,,,,,,,,,,,,,,,,,
58,0,,html-keyboard-response,58,280360,0.0-4.7-1.7,ojttky67elb,2022-09-19 17:09:09.641,5c366fc38821900001b38b67,1,69,35,36,35,forty eight,female,675.6000000238,,"
  <table>
  <tr height=300>
    <td width=300 height=300><img src=""static/images/cards/back_of_black_moons.svg"" width=""175px"" height=""250px""></img></td>
    <td width=300 height=300><img src=""static/images/cards/back_of_black_moons.svg"" width=""175px"" height=""250px""></img></td>
  </tr>
  <tr height=200>
    <td width=300><img src=""static/images/keys/z.svg"" width=""35%"" height=""75%""></img></td>
    <td width=300></td>
  </tr>
</table>
  ",90.0,1.0,,,,,,,,,,,,,,,,,,,,,,,,,,
59,0,,html-keyboard-response,59,281875,0.0-4.7-2.7,ojttky67elb,2022-09-19 17:09:09.641,5c366fc38821900001b38b67,1,69,35,36,35,forty eight,female,,,"
  <table>
  <tr height=300>
    <td width=300 height=300><img src=""static/images/cards/4_of_black_moons.svg"" width=""175px"" height=""250px""></img></td>
    <td width=300 height=300><img src=""static/images/cards/back_of_black_moons.svg"" width=""175px"" height=""250px""></img></td>
  </tr>
  <tr height=200>
    <td width=300><img src=""static/images/keys/z.svg"" width=""35%"" height=""75%""></img></td>
    <td width=300></td>
  </tr>
</table>
  ",,,,,,,,,,,,,,,,,,,,,,,,,,,,
60,0,,html-keyboard-response,60,283389,0.0-4.7-3.7,ojttky67elb,2022-09-19 17:09:09.641,5c366fc38821900001b38b67,1,69,35,36,35,forty eight,female,,,"<p style=""font-size:50px"">You Lose!
No points this round.</p>",,,,,,,,,,,,,,,,,,,,,,,,,,,,
61,0,,html-keyboard-response,61,283903,0.0-4.7-4.7,ojttky67elb,2022-09-19 17:09:09.641,5c366fc38821900001b38b67,1,69,35,36,35,forty eight,female,,,,,,1.0,learning,7.0,B,,black,,moons,,,,B,black,moons,,0.0,1.0,1,left,675.6000000238,4.0,0.0,0.0,,,
62,0,,html-keyboard-response,62,285407,0.0-4.8-0.8,ojttky67elb,2022-09-19 17:09:09.641,5c366fc38821900001b38b67,1,69,35,36,35,forty eight,female,,,"<img src=""static/images/cards/stack_of_red_stars.svg"" width=""175px"" height=""250px""></img>",,,,,,,,,,,,,,,,,,,,,,,,,,,,
63,0,,html-keyboard-response,63,286529,0.0-4.8-1.8,ojttky67elb,2022-09-19 17:09:09.641,5c366fc38821900001b38b67,1,69,35,36,35,forty eight,female,616.5,,"
  <table>
  <tr height=300>
    <td width=300 height=300><img src=""static/images/cards/back_of_red_stars.svg"" width=""175px"" height=""250px""></img></td>
    <td width=300 height=300><img src=""static/images/cards/back_of_red_stars.svg"" width=""175px"" height=""250px""></img></td>
  </tr>
  <tr height=200>
    <td width=300><img src=""static/images/keys/z.svg"" width=""35%"" height=""75%""></img></td>
    <td width=300><img src=""static/images/keys/m.svg"" width=""35%"" height=""75%""></img></td>
  </tr>
</table>
  ",77.0,1.0,,,,,,,,,,,,,,,,,,,,,,,,,,
64,0,,html-keyboard-response,64,288047,0.0-4.8-2.8,ojttky67elb,2022-09-19 17:09:09.641,5c366fc38821900001b38b67,1,69,35,36,35,forty eight,female,,,"
  <table>
  <tr height=300>
    <td width=300 height=300><img src=""static/images/cards/back_of_red_stars.svg"" width=""175px"" height=""250px""></img></td>
    <td width=300 height=300><img src=""static/images/cards/6_of_red_stars.svg"" width=""175px"" height=""250px""></img></td>
  </tr>
  <tr height=200>
    <td width=300><img src=""static/images/keys/z.svg"" width=""35%"" height=""75%""></img></td>
    <td width=300><img src=""static/images/keys/m.svg"" width=""35%"" height=""75%""></img></td>
  </tr>
</table>
  ",,,,,,,,,,,,,,,,,,,,,,,,,,,,
65,0,,html-keyboard-response,65,289579,0.0-4.8-3.8,ojttky67elb,2022-09-19 17:09:09.641,5c366fc38821900001b38b67,1,69,35,36,35,forty eight,female,,,"<p style=""font-size:50px"">You win!
+10 points this round!</p>",,,,,,,,,,,,,,,,,,,,,,,,,,,,
66,0,,html-keyboard-response,66,290093,0.0-4.8-4.8,ojttky67elb,2022-09-19 17:09:09.641,5c366fc38821900001b38b67,1,69,35,36,35,forty eight,female,,,,,,1.0,learning,8.0,C,,red,,stars,,,,C,red,stars,,1.0,0.0,NA,right,616.5,6.0,1.0,1.0,,,
67,0,,html-keyboard-response,67,291599,0.0-4.9-0.9,ojttky67elb,2022-09-19 17:09:09.641,5c366fc38821900001b38b67,1,69,35,36,35,forty eight,female,,,"<img src=""static/images/cards/stack_of_black_stars.svg"" width=""175px"" height=""250px""></img>",,,,,,,,,,,,,,,,,,,,,,,,,,,,
68,0,,html-keyboard-response,68,292654,0.0-4.9-1.9,ojttky67elb,2022-09-19 17:09:09.641,5c366fc38821900001b38b67,1,69,35,36,35,forty eight,female,539.6000000238,,"
  <table>
  <tr height=300>
    <td width=300 height=300><img src=""static/images/cards/back_of_black_stars.svg"" width=""175px"" height=""250px""></img></td>
    <td width=300 height=300><img src=""static/images/cards/back_of_black_stars.svg"" width=""175px"" height=""250px""></img></td>
  </tr>
  <tr height=200>
    <td width=300></td>
    <td width=300><img src=""static/images/keys/m.svg"" width=""35%"" height=""75%""></img></td>
  </tr>
</table>
  ",77.0,1.0,,,,,,,,,,,,,,,,,,,,,,,,,,
69,0,,html-keyboard-response,69,294160,0.0-4.9-2.9,ojttky67elb,2022-09-19 17:09:09.641,5c366fc38821900001b38b67,1,69,35,36,35,forty eight,female,,,"
  <table>
  <tr height=300>
    <td width=300 height=300><img src=""static/images/cards/back_of_black_stars.svg"" width=""175px"" height=""250px""></img></td>
    <td width=300 height=300><img src=""static/images/cards/6_of_black_stars.svg"" width=""175px"" height=""250px""></img></td>
  </tr>
  <tr height=200>
    <td width=300></td>
    <td width=300><img src=""static/images/keys/m.svg"" width=""35%"" height=""75%""></img></td>
  </tr>
</table>
  ",,,,,,,,,,,,,,,,,,,,,,,,,,,,
70,0,,html-keyboard-response,70,295666,0.0-4.9-3.9,ojttky67elb,2022-09-19 17:09:09.641,5c366fc38821900001b38b67,1,69,35,36,35,forty eight,female,,,"<p style=""font-size:50px"">You Lose!
No points this round.</p>",,,,,,,,,,,,,,,,,,,,,,,,,,,,
71,0,,html-keyboard-response,71,296174,0.0-4.9-4.9,ojttky67elb,2022-09-19 17:09:09.641,5c366fc38821900001b38b67,1,69,35,36,35,forty eight,female,,,,,,1.0,learning,9.0,D,,black,,stars,,,,D,black,stars,,0.0,0.0,0,right,539.6000000238,6.0,1.0,0.0,,,
72,0,,html-keyboard-response,72,297682,0.0-4.10-0.10,ojttky67elb,2022-09-19 17:09:09.641,5c366fc38821900001b38b67,1,69,35,36,35,forty eight,female,,,"<img src=""static/images/cards/stack_of_red_bolts.svg"" width=""175px"" height=""250px""></img>",,,,,,,,,,,,,,,,,,,,,,,,,,,,
73,0,,html-keyboard-response,73,299036,0.0-4.10-1.10,ojttky67elb,2022-09-19 17:09:09.641,5c366fc38821900001b38b67,1,69,35,36,35,forty eight,female,834.6999999881,,"
  <table>
  <tr height=300>
    <td width=300 height=300><img src=""static/images/cards/back_of_red_bolts.svg"" width=""175px"" height=""250px""></img></td>
    <td width=300 height=300><img src=""static/images/cards/back_of_red_bolts.svg"" width=""175px"" height=""250px""></img></td>
  </tr>
  <tr height=200>
    <td width=300><img src=""static/images/keys/z.svg"" width=""35%"" height=""75%""></img></td>
    <td width=300><img src=""static/images/keys/m.svg"" width=""35%"" height=""75%""></img></td>
  </tr>
</table>
  ",90.0,1.0,,,,,,,,,,,,,,,,,,,,,,,,,,
74,0,,html-keyboard-response,74,300548,0.0-4.10-2.10,ojttky67elb,2022-09-19 17:09:09.641,5c366fc38821900001b38b67,1,69,35,36,35,forty eight,female,,,"
  <table>
  <tr height=300>
    <td width=300 height=300><img src=""static/images/cards/3_of_red_bolts.svg"" width=""175px"" height=""250px""></img></td>
    <td width=300 height=300><img src=""static/images/cards/back_of_red_bolts.svg"" width=""175px"" height=""250px""></img></td>
  </tr>
  <tr height=200>
    <td width=300><img src=""static/images/keys/z.svg"" width=""35%"" height=""75%""></img></td>
    <td width=300><img src=""static/images/keys/m.svg"" width=""35%"" height=""75%""></img></td>
  </tr>
</table>
  ",,,,,,,,,,,,,,,,,,,,,,,,,,,,
75,0,,html-keyboard-response,75,302060,0.0-4.10-3.10,ojttky67elb,2022-09-19 17:09:09.641,5c366fc38821900001b38b67,1,69,35,36,35,forty eight,female,,,"<p style=""font-size:50px"">You win!
+10 points this round!</p>",,,,,,,,,,,,,,,,,,,,,,,,,,,,
76,0,,html-keyboard-response,76,302580,0.0-4.10-4.10,ojttky67elb,2022-09-19 17:09:09.641,5c366fc38821900001b38b67,1,69,35,36,35,forty eight,female,,,,,,1.0,learning,10.0,Xc,,red,,bolts,,,,Xc,red,bolts,,1.0,0.0,NA,left,834.6999999881,3.0,0.0,1.0,,,
77,0,,html-keyboard-response,77,304088,0.0-4.11-0.11,ojttky67elb,2022-09-19 17:09:09.641,5c366fc38821900001b38b67,1,69,35,36,35,forty eight,female,,,"<img src=""static/images/cards/stack_of_black_bolts.svg"" width=""175px"" height=""250px""></img>",,,,,,,,,,,,,,,,,,,,,,,,,,,,
78,0,,html-keyboard-response,78,305087,0.0-4.11-1.11,ojttky67elb,2022-09-19 17:09:09.641,5c366fc38821900001b38b67,1,69,35,36,35,forty eight,female,489.0,,"
  <table>
  <tr height=300>
    <td width=300 height=300><img src=""static/images/cards/back_of_black_bolts.svg"" width=""175px"" height=""250px""></img></td>
    <td width=300 height=300><img src=""static/images/cards/back_of_black_bolts.svg"" width=""175px"" height=""250px""></img></td>
  </tr>
  <tr height=200>
    <td width=300></td>
    <td width=300><img src=""static/images/keys/m.svg"" width=""35%"" height=""75%""></img></td>
  </tr>
</table>
  ",77.0,1.0,,,,,,,,,,,,,,,,,,,,,,,,,,
79,0,,html-keyboard-response,79,306605,0.0-4.11-2.11,ojttky67elb,2022-09-19 17:09:09.641,5c366fc38821900001b38b67,1,69,35,36,35,forty eight,female,,,"
  <table>
  <tr height=300>
    <td width=300 height=300><img src=""static/images/cards/back_of_black_bolts.svg"" width=""175px"" height=""250px""></img></td>
    <td width=300 height=300><img src=""static/images/cards/3_of_black_bolts.svg"" width=""175px"" height=""250px""></img></td>
  </tr>
  <tr height=200>
    <td width=300></td>
    <td width=300><img src=""static/images/keys/m.svg"" width=""35%"" height=""75%""></img></td>
  </tr>
</table>
  ",,,,,,,,,,,,,,,,,,,,,,,,,,,,
80,0,,html-keyboard-response,80,308132,0.0-4.11-3.11,ojttky67elb,2022-09-19 17:09:09.641,5c366fc38821900001b38b67,1,69,35,36,35,forty eight,female,,,"<p style=""font-size:50px"">You win!
+10 points this round!</p>",,,,,,,,,,,,,,,,,,,,,,,,,,,,
81,0,,html-keyboard-response,81,308642,0.0-4.11-4.11,ojttky67elb,2022-09-19 17:09:09.641,5c366fc38821900001b38b67,1,69,35,36,35,forty eight,female,,,,,,1.0,learning,11.0,Xnc,,black,,bolts,,,,Xnc,black,bolts,,0.0,0.0,0,right,489.0,3.0,0.0,1.0,,,
82,0,,html-keyboard-response,82,310154,0.0-4.12-0.12,ojttky67elb,2022-09-19 17:09:09.641,5c366fc38821900001b38b67,1,69,35,36,35,forty eight,female,,,"<img src=""static/images/cards/stack_of_red_moons.svg"" width=""175px"" height=""250px""></img>",,,,,,,,,,,,,,,,,,,,,,,,,,,,
83,0,,html-keyboard-response,83,311292,0.0-4.12-1.12,ojttky67elb,2022-09-19 17:09:09.641,5c366fc38821900001b38b67,1,69,35,36,35,forty eight,female,625.1000000238,,"
  <table>
  <tr height=300>
    <td width=300 height=300><img src=""static/images/cards/back_of_red_moons.svg"" width=""175px"" height=""250px""></img></td>
    <td width=300 height=300><img src=""static/images/cards/back_of_red_moons.svg"" width=""175px"" height=""250px""></img></td>
  </tr>
  <tr height=200>
    <td width=300><img src=""static/images/keys/z.svg"" width=""35%"" height=""75%""></img></td>
    <td width=300><img src=""static/images/keys/m.svg"" width=""35%"" height=""75%""></img></td>
  </tr>
</table>
  ",77.0,1.0,,,,,,,,,,,,,,,,,,,,,,,,,,
84,0,,html-keyboard-response,84,312809,0.0-4.12-2.12,ojttky67elb,2022-09-19 17:09:09.641,5c366fc38821900001b38b67,1,69,35,36,35,forty eight,female,,,"
  <table>
  <tr height=300>
    <td width=300 height=300><img src=""static/images/cards/back_of_red_moons.svg"" width=""175px"" height=""250px""></img></td>
    <td width=300 height=300><img src=""static/images/cards/9_of_red_moons.svg"" width=""175px"" height=""250px""></img></td>
  </tr>
  <tr height=200>
    <td width=300><img src=""static/images/keys/z.svg"" width=""35%"" height=""75%""></img></td>
    <td width=300><img src=""static/images/keys/m.svg"" width=""35%"" height=""75%""></img></td>
  </tr>
</table>
  ",,,,,,,,,,,,,,,,,,,,,,,,,,,,
85,0,,html-keyboard-response,85,314316,0.0-4.12-3.12,ojttky67elb,2022-09-19 17:09:09.641,5c366fc38821900001b38b67,1,69,35,36,35,forty eight,female,,,"<p style=""font-size:50px"">You win!
+10 points this round!</p>",,,,,,,,,,,,,,,,,,,,,,,,,,,,
86,0,,html-keyboard-response,86,314825,0.0-4.12-4.12,ojttky67elb,2022-09-19 17:09:09.641,5c366fc38821900001b38b67,1,69,35,36,35,forty eight,female,,,,,,1.0,learning,12.0,A,,red,,moons,,,,A,red,moons,,1.0,1.0,NA,right,625.1000000238,9.0,1.0,1.0,,,
87,0,,html-keyboard-response,87,316331,0.0-4.13-0.13,ojttky67elb,2022-09-19 17:09:09.641,5c366fc38821900001b38b67,1,69,35,36,35,forty eight,female,,,"<img src=""static/images/cards/stack_of_black_moons.svg"" width=""175px"" height=""250px""></img>",,,,,,,,,,,,,,,,,,,,,,,,,,,,
88,0,,html-keyboard-response,88,317400,0.0-4.13-1.13,ojttky67elb,2022-09-19 17:09:09.641,5c366fc38821900001b38b67,1,69,35,36,35,forty eight,female,564.5,,"
  <table>
  <tr height=300>
    <td width=300 height=300><img src=""static/images/cards/back_of_black_moons.svg"" width=""175px"" height=""250px""></img></td>
    <td width=300 height=300><img src=""static/images/cards/back_of_black_moons.svg"" width=""175px"" height=""250px""></img></td>
  </tr>
  <tr height=200>
    <td width=300></td>
    <td width=300><img src=""static/images/keys/m.svg"" width=""35%"" height=""75%""></img></td>
  </tr>
</table>
  ",77.0,1.0,,,,,,,,,,,,,,,,,,,,,,,,,,
89,0,,html-keyboard-response,89,318914,0.0-4.13-2.13,ojttky67elb,2022-09-19 17:09:09.641,5c366fc38821900001b38b67,1,69,35,36,35,forty eight,female,,,"
  <table>
  <tr height=300>
    <td width=300 height=300><img src=""static/images/cards/back_of_black_moons.svg"" width=""175px"" height=""250px""></img></td>
    <td width=300 height=300><img src=""static/images/cards/3_of_black_moons.svg"" width=""175px"" height=""250px""></img></td>
  </tr>
  <tr height=200>
    <td width=300></td>
    <td width=300><img src=""static/images/keys/m.svg"" width=""35%"" height=""75%""></img></td>
  </tr>
</table>
  ",,,,,,,,,,,,,,,,,,,,,,,,,,,,
90,0,,html-keyboard-response,90,320436,0.0-4.13-3.13,ojttky67elb,2022-09-19 17:09:09.641,5c366fc38821900001b38b67,1,69,35,36,35,forty eight,female,,,"<p style=""font-size:50px"">You Lose!
No points this round.</p>",,,,,,,,,,,,,,,,,,,,,,,,,,,,
91,0,,html-keyboard-response,91,320947,0.0-4.13-4.13,ojttky67elb,2022-09-19 17:09:09.641,5c366fc38821900001b38b67,1,69,35,36,35,forty eight,female,,,,,,1.0,learning,13.0,B,,black,,moons,,,,B,black,moons,,0.0,1.0,0,right,564.5,3.0,0.0,0.0,,,
92,0,,html-keyboard-response,92,322456,0.0-4.14-0.14,ojttky67elb,2022-09-19 17:09:09.641,5c366fc38821900001b38b67,1,69,35,36,35,forty eight,female,,,"<img src=""static/images/cards/stack_of_red_stars.svg"" width=""175px"" height=""250px""></img>",,,,,,,,,,,,,,,,,,,,,,,,,,,,
93,0,,html-keyboard-response,93,323710,0.0-4.14-1.14,ojttky67elb,2022-09-19 17:09:09.641,5c366fc38821900001b38b67,1,69,35,36,35,forty eight,female,741.1999999881,,"
  <table>
  <tr height=300>
    <td width=300 height=300><img src=""static/images/cards/back_of_red_stars.svg"" width=""175px"" height=""250px""></img></td>
    <td width=300 height=300><img src=""static/images/cards/back_of_red_stars.svg"" width=""175px"" height=""250px""></img></td>
  </tr>
  <tr height=200>
    <td width=300><img src=""static/images/keys/z.svg"" width=""35%"" height=""75%""></img></td>
    <td width=300><img src=""static/images/keys/m.svg"" width=""35%"" height=""75%""></img></td>
  </tr>
</table>
  ",77.0,1.0,,,,,,,,,,,,,,,,,,,,,,,,,,
94,0,,html-keyboard-response,94,325225,0.0-4.14-2.14,ojttky67elb,2022-09-19 17:09:09.641,5c366fc38821900001b38b67,1,69,35,36,35,forty eight,female,,,"
  <table>
  <tr height=300>
    <td width=300 height=300><img src=""static/images/cards/back_of_red_stars.svg"" width=""175px"" height=""250px""></img></td>
    <td width=300 height=300><img src=""static/images/cards/1_of_red_stars.svg"" width=""175px"" height=""250px""></img></td>
  </tr>
  <tr height=200>
    <td width=300><img src=""static/images/keys/z.svg"" width=""35%"" height=""75%""></img></td>
    <td width=300><img src=""static/images/keys/m.svg"" width=""35%"" height=""75%""></img></td>
  </tr>
</table>
  ",,,,,,,,,,,,,,,,,,,,,,,,,,,,
95,0,,html-keyboard-response,95,326743,0.0-4.14-3.14,ojttky67elb,2022-09-19 17:09:09.641,5c366fc38821900001b38b67,1,69,35,36,35,forty eight,female,,,"<p style=""font-size:50px"">You Lose!
No points this round.</p>",,,,,,,,,,,,,,,,,,,,,,,,,,,,
96,0,,html-keyboard-response,96,327264,0.0-4.14-4.14,ojttky67elb,2022-09-19 17:09:09.641,5c366fc38821900001b38b67,1,69,35,36,35,forty eight,female,,,,,,1.0,learning,14.0,C,,red,,stars,,,,C,red,stars,,1.0,0.0,NA,right,741.1999999881,1.0,0.0,0.0,,,
97,0,,html-keyboard-response,97,328776,0.0-4.15-0.15,ojttky67elb,2022-09-19 17:09:09.641,5c366fc38821900001b38b67,1,69,35,36,35,forty eight,female,,,"<img src=""static/images/cards/stack_of_black_stars.svg"" width=""175px"" height=""250px""></img>",,,,,,,,,,,,,,,,,,,,,,,,,,,,
98,0,,html-keyboard-response,98,329832,0.0-4.15-1.15,ojttky67elb,2022-09-19 17:09:09.641,5c366fc38821900001b38b67,1,69,35,36,35,forty eight,female,552.2999999523,,"
  <table>
  <tr height=300>
    <td width=300 height=300><img src=""static/images/cards/back_of_black_stars.svg"" width=""175px"" height=""250px""></img></td>
    <td width=300 height=300><img src=""static/images/cards/back_of_black_stars.svg"" width=""175px"" height=""250px""></img></td>
  </tr>
  <tr height=200>
    <td width=300></td>
    <td width=300><img src=""static/images/keys/m.svg"" width=""35%"" height=""75%""></img></td>
  </tr>
</table>
  ",77.0,1.0,,,,,,,,,,,,,,,,,,,,,,,,,,
99,0,,html-keyboard-response,99,331348,0.0-4.15-2.15,ojttky67elb,2022-09-19 17:09:09.641,5c366fc38821900001b38b67,1,69,35,36,35,forty eight,female,,,"
  <table>
  <tr height=300>
    <td width=300 height=300><img src=""static/images/cards/back_of_black_stars.svg"" width=""175px"" height=""250px""></img></td>
    <td width=300 height=300><img src=""static/images/cards/4_of_black_stars.svg"" width=""175px"" height=""250px""></img></td>
  </tr>
  <tr height=200>
    <td width=300></td>
    <td width=300><img src=""static/images/keys/m.svg"" width=""35%"" height=""75%""></img></td>
  </tr>
</table>
  ",,,,,,,,,,,,,,,,,,,,,,,,,,,,
100,0,,html-keyboard-response,100,332869,0.0-4.15-3.15,ojttky67elb,2022-09-19 17:09:09.641,5c366fc38821900001b38b67,1,69,35,36,35,forty eight,female,,,"<p style=""font-size:50px"">You Lose!
No points this round.</p>",,,,,,,,,,,,,,,,,,,,,,,,,,,,
101,0,,html-keyboard-response,101,333376,0.0-4.15-4.15,ojttky67elb,2022-09-19 17:09:09.641,5c366fc38821900001b38b67,1,69,35,36,35,forty eight,female,,,,,,1.0,learning,15.0,D,,black,,stars,,,,D,black,stars,,0.0,0.0,0,right,552.2999999523,4.0,0.0,0.0,,,
102,0,,html-keyboard-response,102,334883,0.0-4.16-0.16,ojttky67elb,2022-09-19 17:09:09.641,5c366fc38821900001b38b67,1,69,35,36,35,forty eight,female,,,"<img src=""static/images/cards/stack_of_red_bolts.svg"" width=""175px"" height=""250px""></img>",,,,,,,,,,,,,,,,,,,,,,,,,,,,
103,0,,html-keyboard-response,103,336234,0.0-4.16-1.16,ojttky67elb,2022-09-19 17:09:09.641,5c366fc38821900001b38b67,1,69,35,36,35,forty eight,female,831.0,,"
  <table>
  <tr height=300>
    <td width=300 height=300><img src=""static/images/cards/back_of_red_bolts.svg"" width=""175px"" height=""250px""></img></td>
    <td width=300 height=300><img src=""static/images/cards/back_of_red_bolts.svg"" width=""175px"" height=""250px""></img></td>
  </tr>
  <tr height=200>
    <td width=300><img src=""static/images/keys/z.svg"" width=""35%"" height=""75%""></img></td>
    <td width=300><img src=""static/images/keys/m.svg"" width=""35%"" height=""75%""></img></td>
  </tr>
</table>
  ",77.0,1.0,,,,,,,,,,,,,,,,,,,,,,,,,,
104,0,,html-keyboard-response,104,337746,0.0-4.16-2.16,ojttky67elb,2022-09-19 17:09:09.641,5c366fc38821900001b38b67,1,69,35,36,35,forty eight,female,,,"
  <table>
  <tr height=300>
    <td width=300 height=300><img src=""static/images/cards/back_of_red_bolts.svg"" width=""175px"" height=""250px""></img></td>
    <td width=300 height=300><img src=""static/images/cards/4_of_red_bolts.svg"" width=""175px"" height=""250px""></img></td>
  </tr>
  <tr height=200>
    <td width=300><img src=""static/images/keys/z.svg"" width=""35%"" height=""75%""></img></td>
    <td width=300><img src=""static/images/keys/m.svg"" width=""35%"" height=""75%""></img></td>
  </tr>
</table>
  ",,,,,,,,,,,,,,,,,,,,,,,,,,,,
105,0,,html-keyboard-response,105,339255,0.0-4.16-3.16,ojttky67elb,2022-09-19 17:09:09.641,5c366fc38821900001b38b67,1,69,35,36,35,forty eight,female,,,"<p style=""font-size:50px"">You win!
+10 points this round!</p>",,,,,,,,,,,,,,,,,,,,,,,,,,,,
106,0,,html-keyboard-response,106,339777,0.0-4.16-4.16,ojttky67elb,2022-09-19 17:09:09.641,5c366fc38821900001b38b67,1,69,35,36,35,forty eight,female,,,,,,1.0,learning,16.0,Xc,,red,,bolts,,,,Xc,red,bolts,,1.0,0.0,NA,right,831.0,4.0,0.0,1.0,,,
107,0,,html-keyboard-response,107,341287,0.0-4.17-0.17,ojttky67elb,2022-09-19 17:09:09.641,5c366fc38821900001b38b67,1,69,35,36,35,forty eight,female,,,"<img src=""static/images/cards/stack_of_black_bolts.svg"" width=""175px"" height=""250px""></img>",,,,,,,,,,,,,,,,,,,,,,,,,,,,
108,0,,html-keyboard-response,108,342497,0.0-4.17-1.17,ojttky67elb,2022-09-19 17:09:09.641,5c366fc38821900001b38b67,1,69,35,36,35,forty eight,female,701.5,,"
  <table>
  <tr height=300>
    <td width=300 height=300><img src=""static/images/cards/back_of_black_bolts.svg"" width=""175px"" height=""250px""></img></td>
    <td width=300 height=300><img src=""static/images/cards/back_of_black_bolts.svg"" width=""175px"" height=""250px""></img></td>
  </tr>
  <tr height=200>
    <td width=300></td>
    <td width=300><img src=""static/images/keys/m.svg"" width=""35%"" height=""75%""></img></td>
  </tr>
</table>
  ",77.0,1.0,,,,,,,,,,,,,,,,,,,,,,,,,,
109,0,,html-keyboard-response,109,344003,0.0-4.17-2.17,ojttky67elb,2022-09-19 17:09:09.641,5c366fc38821900001b38b67,1,69,35,36,35,forty eight,female,,,"
  <table>
  <tr height=300>
    <td width=300 height=300><img src=""static/images/cards/back_of_black_bolts.svg"" width=""175px"" height=""250px""></img></td>
    <td width=300 height=300><img src=""static/images/cards/7_of_black_bolts.svg"" width=""175px"" height=""250px""></img></td>
  </tr>
  <tr height=200>
    <td width=300></td>
    <td width=300><img src=""static/images/keys/m.svg"" width=""35%"" height=""75%""></img></td>
  </tr>
</table>
  ",,,,,,,,,,,,,,,,,,,,,,,,,,,,
110,0,,html-keyboard-response,110,345518,0.0-4.17-3.17,ojttky67elb,2022-09-19 17:09:09.641,5c366fc38821900001b38b67,1,69,35,36,35,forty eight,female,,,"<p style=""font-size:50px"">You win!
+10 points this round!</p>",,,,,,,,,,,,,,,,,,,,,,,,,,,,
111,0,,html-keyboard-response,111,346026,0.0-4.17-4.17,ojttky67elb,2022-09-19 17:09:09.641,5c366fc38821900001b38b67,1,69,35,36,35,forty eight,female,,,,,,1.0,learning,17.0,Xnc,,black,,bolts,,,,Xnc,black,bolts,,0.0,0.0,0,right,701.5,7.0,1.0,1.0,,,
112,0,,html-keyboard-response,112,347537,0.0-4.18-0.18,ojttky67elb,2022-09-19 17:09:09.641,5c366fc38821900001b38b67,1,69,35,36,35,forty eight,female,,,"<img src=""static/images/cards/stack_of_red_moons.svg"" width=""175px"" height=""250px""></img>",,,,,,,,,,,,,,,,,,,,,,,,,,,,
113,0,,html-keyboard-response,113,348649,0.0-4.18-1.18,ojttky67elb,2022-09-19 17:09:09.641,5c366fc38821900001b38b67,1,69,35,36,35,forty eight,female,598.6000000238,,"
  <table>
  <tr height=300>
    <td width=300 height=300><img src=""static/images/cards/back_of_red_moons.svg"" width=""175px"" height=""250px""></img></td>
    <td width=300 height=300><img src=""static/images/cards/back_of_red_moons.svg"" width=""175px"" height=""250px""></img></td>
  </tr>
  <tr height=200>
    <td width=300><img src=""static/images/keys/z.svg"" width=""35%"" height=""75%""></img></td>
    <td width=300><img src=""static/images/keys/m.svg"" width=""35%"" height=""75%""></img></td>
  </tr>
</table>
  ",90.0,1.0,,,,,,,,,,,,,,,,,,,,,,,,,,
114,0,,html-keyboard-response,114,350164,0.0-4.18-2.18,ojttky67elb,2022-09-19 17:09:09.641,5c366fc38821900001b38b67,1,69,35,36,35,forty eight,female,,,"
  <table>
  <tr height=300>
    <td width=300 height=300><img src=""static/images/cards/3_of_red_moons.svg"" width=""175px"" height=""250px""></img></td>
    <td width=300 height=300><img src=""static/images/cards/back_of_red_moons.svg"" width=""175px"" height=""250px""></img></td>
  </tr>
  <tr height=200>
    <td width=300><img src=""static/images/keys/z.svg"" width=""35%"" height=""75%""></img></td>
    <td width=300><img src=""static/images/keys/m.svg"" width=""35%"" height=""75%""></img></td>
  </tr>
</table>
  ",,,,,,,,,,,,,,,,,,,,,,,,,,,,
115,0,,html-keyboard-response,115,351674,0.0-4.18-3.18,ojttky67elb,2022-09-19 17:09:09.641,5c366fc38821900001b38b67,1,69,35,36,35,forty eight,female,,,"<p style=""font-size:50px"">You Lose!
No points this round.</p>",,,,,,,,,,,,,,,,,,,,,,,,,,,,
116,0,,html-keyboard-response,116,352195,0.0-4.18-4.18,ojttky67elb,2022-09-19 17:09:09.641,5c366fc38821900001b38b67,1,69,35,36,35,forty eight,female,,,,,,1.0,learning,18.0,A,,red,,moons,,,,A,red,moons,,1.0,1.0,NA,left,598.6000000238,3.0,0.0,0.0,,,
117,0,,html-keyboard-response,117,353704,0.0-4.19-0.19,ojttky67elb,2022-09-19 17:09:09.641,5c366fc38821900001b38b67,1,69,35,36,35,forty eight,female,,,"<img src=""static/images/cards/stack_of_black_moons.svg"" width=""175px"" height=""250px""></img>",,,,,,,,,,,,,,,,,,,,,,,,,,,,
118,0,,html-keyboard-response,118,354814,0.0-4.19-1.19,ojttky67elb,2022-09-19 17:09:09.641,5c366fc38821900001b38b67,1,69,35,36,35,forty eight,female,595.0999999642,,"
  <table>
  <tr height=300>
    <td width=300 height=300><img src=""static/images/cards/back_of_black_moons.svg"" width=""175px"" height=""250px""></img></td>
    <td width=300 height=300><img src=""static/images/cards/back_of_black_moons.svg"" width=""175px"" height=""250px""></img></td>
  </tr>
  <tr height=200>
    <td width=300><img src=""static/images/keys/z.svg"" width=""35%"" height=""75%""></img></td>
    <td width=300></td>
  </tr>
</table>
  ",90.0,1.0,,,,,,,,,,,,,,,,,,,,,,,,,,
119,0,,html-keyboard-response,119,356319,0.0-4.19-2.19,ojttky67elb,2022-09-19 17:09:09.641,5c366fc38821900001b38b67,1,69,35,36,35,forty eight,female,,,"
  <table>
  <tr height=300>
    <td width=300 height=300><img src=""static/images/cards/8_of_black_moons.svg"" width=""175px"" height=""250px""></img></td>
    <td width=300 height=300><img src=""static/images/cards/back_of_black_moons.svg"" width=""175px"" height=""250px""></img></td>
  </tr>
  <tr height=200>
    <td width=300><img src=""static/images/keys/z.svg"" width=""35%"" height=""75%""></img></td>
    <td width=300></td>
  </tr>
</table>
  ",,,,,,,,,,,,,,,,,,,,,,,,,,,,
120,0,,html-keyboard-response,120,357827,0.0-4.19-3.19,ojttky67elb,2022-09-19 17:09:09.641,5c366fc38821900001b38b67,1,69,35,36,35,forty eight,female,,,"<p style=""font-size:50px"">You win!
+10 points this round!</p>",,,,,,,,,,,,,,,,,,,,,,,,,,,,
121,0,,html-keyboard-response,121,358333,0.0-4.19-4.19,ojttky67elb,2022-09-19 17:09:09.641,5c366fc38821900001b38b67,1,69,35,36,35,forty eight,female,,,,,,1.0,learning,19.0,B,,black,,moons,,,,B,black,moons,,0.0,1.0,1,left,595.0999999642,8.0,1.0,1.0,,,
122,0,,html-keyboard-response,122,359840,0.0-4.20-0.20,ojttky67elb,2022-09-19 17:09:09.641,5c366fc38821900001b38b67,1,69,35,36,35,forty eight,female,,,"<img src=""static/images/cards/stack_of_red_stars.svg"" width=""175px"" height=""250px""></img>",,,,,,,,,,,,,,,,,,,,,,,,,,,,
123,0,,html-keyboard-response,123,361000,0.0-4.20-1.20,ojttky67elb,2022-09-19 17:09:09.641,5c366fc38821900001b38b67,1,69,35,36,35,forty eight,female,644.3999999762,,"
  <table>
  <tr height=300>
    <td width=300 height=300><img src=""static/images/cards/back_of_red_stars.svg"" width=""175px"" height=""250px""></img></td>
    <td width=300 height=300><img src=""static/images/cards/back_of_red_stars.svg"" width=""175px"" height=""250px""></img></td>
  </tr>
  <tr height=200>
    <td width=300><img src=""static/images/keys/z.svg"" width=""35%"" height=""75%""></img></td>
    <td width=300><img src=""static/images/keys/m.svg"" width=""35%"" height=""75%""></img></td>
  </tr>
</table>
  ",77.0,1.0,,,,,,,,,,,,,,,,,,,,,,,,,,
124,0,,html-keyboard-response,124,362515,0.0-4.20-2.20,ojttky67elb,2022-09-19 17:09:09.641,5c366fc38821900001b38b67,1,69,35,36,35,forty eight,female,,,"
  <table>
  <tr height=300>
    <td width=300 height=300><img src=""static/images/cards/back_of_red_stars.svg"" width=""175px"" height=""250px""></img></td>
    <td width=300 height=300><img src=""static/images/cards/3_of_red_stars.svg"" width=""175px"" height=""250px""></img></td>
  </tr>
  <tr height=200>
    <td width=300><img src=""static/images/keys/z.svg"" width=""35%"" height=""75%""></img></td>
    <td width=300><img src=""static/images/keys/m.svg"" width=""35%"" height=""75%""></img></td>
  </tr>
</table>
  ",,,,,,,,,,,,,,,,,,,,,,,,,,,,
125,0,,html-keyboard-response,125,364043,0.0-4.20-3.20,ojttky67elb,2022-09-19 17:09:09.641,5c366fc38821900001b38b67,1,69,35,36,35,forty eight,female,,,"<p style=""font-size:50px"">You win!
+10 points this round!</p>",,,,,,,,,,,,,,,,,,,,,,,,,,,,
126,0,,html-keyboard-response,126,364565,0.0-4.20-4.20,ojttky67elb,2022-09-19 17:09:09.641,5c366fc38821900001b38b67,1,69,35,36,35,forty eight,female,,,,,,1.0,learning,20.0,C,,red,,stars,,,,C,red,stars,,1.0,0.0,NA,right,644.3999999762,3.0,0.0,1.0,,,
127,0,,html-keyboard-response,127,366081,0.0-4.21-0.21,ojttky67elb,2022-09-19 17:09:09.641,5c366fc38821900001b38b67,1,69,35,36,35,forty eight,female,,,"<img src=""static/images/cards/stack_of_black_stars.svg"" width=""175px"" height=""250px""></img>",,,,,,,,,,,,,,,,,,,,,,,,,,,,
128,0,,html-keyboard-response,128,367126,0.0-4.21-1.21,ojttky67elb,2022-09-19 17:09:09.641,5c366fc38821900001b38b67,1,69,35,36,35,forty eight,female,537.6000000238,,"
  <table>
  <tr height=300>
    <td width=300 height=300><img src=""static/images/cards/back_of_black_stars.svg"" width=""175px"" height=""250px""></img></td>
    <td width=300 height=300><img src=""static/images/cards/back_of_black_stars.svg"" width=""175px"" height=""250px""></img></td>
  </tr>
  <tr height=200>
    <td width=300><img src=""static/images/keys/z.svg"" width=""35%"" height=""75%""></img></td>
    <td width=300></td>
  </tr>
</table>
  ",90.0,1.0,,,,,,,,,,,,,,,,,,,,,,,,,,
129,0,,html-keyboard-response,129,368630,0.0-4.21-2.21,ojttky67elb,2022-09-19 17:09:09.641,5c366fc38821900001b38b67,1,69,35,36,35,forty eight,female,,,"
  <table>
  <tr height=300>
    <td width=300 height=300><img src=""static/images/cards/2_of_black_stars.svg"" width=""175px"" height=""250px""></img></td>
    <td width=300 height=300><img src=""static/images/cards/back_of_black_stars.svg"" width=""175px"" height=""250px""></img></td>
  </tr>
  <tr height=200>
    <td width=300><img src=""static/images/keys/z.svg"" width=""35%"" height=""75%""></img></td>
    <td width=300></td>
  </tr>
</table>
  ",,,,,,,,,,,,,,,,,,,,,,,,,,,,
130,0,,html-keyboard-response,130,370149,0.0-4.21-3.21,ojttky67elb,2022-09-19 17:09:09.641,5c366fc38821900001b38b67,1,69,35,36,35,forty eight,female,,,"<p style=""font-size:50px"">You win!
+10 points this round!</p>",,,,,,,,,,,,,,,,,,,,,,,,,,,,
131,0,,html-keyboard-response,131,370660,0.0-4.21-4.21,ojttky67elb,2022-09-19 17:09:09.641,5c366fc38821900001b38b67,1,69,35,36,35,forty eight,female,,,,,,1.0,learning,21.0,D,,black,,stars,,,,D,black,stars,,0.0,0.0,1,left,537.6000000238,2.0,0.0,1.0,,,
132,0,,html-keyboard-response,132,372163,0.0-4.22-0.22,ojttky67elb,2022-09-19 17:09:09.641,5c366fc38821900001b38b67,1,69,35,36,35,forty eight,female,,,"<img src=""static/images/cards/stack_of_red_bolts.svg"" width=""175px"" height=""250px""></img>",,,,,,,,,,,,,,,,,,,,,,,,,,,,
133,0,,html-keyboard-response,133,373126,0.0-4.22-1.22,ojttky67elb,2022-09-19 17:09:09.641,5c366fc38821900001b38b67,1,69,35,36,35,forty eight,female,450.4000000358,,"
  <table>
  <tr height=300>
    <td width=300 height=300><img src=""static/images/cards/back_of_red_bolts.svg"" width=""175px"" height=""250px""></img></td>
    <td width=300 height=300><img src=""static/images/cards/back_of_red_bolts.svg"" width=""175px"" height=""250px""></img></td>
  </tr>
  <tr height=200>
    <td width=300><img src=""static/images/keys/z.svg"" width=""35%"" height=""75%""></img></td>
    <td width=300><img src=""static/images/keys/m.svg"" width=""35%"" height=""75%""></img></td>
  </tr>
</table>
  ",90.0,1.0,,,,,,,,,,,,,,,,,,,,,,,,,,
134,0,,html-keyboard-response,134,374643,0.0-4.22-2.22,ojttky67elb,2022-09-19 17:09:09.641,5c366fc38821900001b38b67,1,69,35,36,35,forty eight,female,,,"
  <table>
  <tr height=300>
    <td width=300 height=300><img src=""static/images/cards/10_of_red_bolts.svg"" width=""175px"" height=""250px""></img></td>
    <td width=300 height=300><img src=""static/images/cards/back_of_red_bolts.svg"" width=""175px"" height=""250px""></img></td>
  </tr>
  <tr height=200>
    <td width=300><img src=""static/images/keys/z.svg"" width=""35%"" height=""75%""></img></td>
    <td width=300><img src=""static/images/keys/m.svg"" width=""35%"" height=""75%""></img></td>
  </tr>
</table>
  ",,,,,,,,,,,,,,,,,,,,,,,,,,,,
135,0,,html-keyboard-response,135,376155,0.0-4.22-3.22,ojttky67elb,2022-09-19 17:09:09.641,5c366fc38821900001b38b67,1,69,35,36,35,forty eight,female,,,"<p style=""font-size:50px"">You win!
+10 points this round!</p>",,,,,,,,,,,,,,,,,,,,,,,,,,,,
136,0,,html-keyboard-response,136,376666,0.0-4.22-4.22,ojttky67elb,2022-09-19 17:09:09.641,5c366fc38821900001b38b67,1,69,35,36,35,forty eight,female,,,,,,1.0,learning,22.0,Xc,,red,,bolts,,,,Xc,red,bolts,,1.0,0.0,NA,left,450.4000000358,10.0,1.0,1.0,,,
137,0,,html-keyboard-response,137,378183,0.0-4.23-0.23,ojttky67elb,2022-09-19 17:09:09.641,5c366fc38821900001b38b67,1,69,35,36,35,forty eight,female,,,"<img src=""static/images/cards/stack_of_black_bolts.svg"" width=""175px"" height=""250px""></img>",,,,,,,,,,,,,,,,,,,,,,,,,,,,
138,0,,html-keyboard-response,138,379281,0.0-4.23-1.23,ojttky67elb,2022-09-19 17:09:09.641,5c366fc38821900001b38b67,1,69,35,36,35,forty eight,female,582.6999999881,,"
  <table>
  <tr height=300>
    <td width=300 height=300><img src=""static/images/cards/back_of_black_bolts.svg"" width=""175px"" height=""250px""></img></td>
    <td width=300 height=300><img src=""static/images/cards/back_of_black_bolts.svg"" width=""175px"" height=""250px""></img></td>
  </tr>
  <tr height=200>
    <td width=300><img src=""static/images/keys/z.svg"" width=""35%"" height=""75%""></img></td>
    <td width=300></td>
  </tr>
</table>
  ",90.0,1.0,,,,,,,,,,,,,,,,,,,,,,,,,,
139,0,,html-keyboard-response,139,380791,0.0-4.23-2.23,ojttky67elb,2022-09-19 17:09:09.641,5c366fc38821900001b38b67,1,69,35,36,35,forty eight,female,,,"
  <table>
  <tr height=300>
    <td width=300 height=300><img src=""static/images/cards/7_of_black_bolts.svg"" width=""175px"" height=""250px""></img></td>
    <td width=300 height=300><img src=""static/images/cards/back_of_black_bolts.svg"" width=""175px"" height=""250px""></img></td>
  </tr>
  <tr height=200>
    <td width=300><img src=""static/images/keys/z.svg"" width=""35%"" height=""75%""></img></td>
    <td width=300></td>
  </tr>
</table>
  ",,,,,,,,,,,,,,,,,,,,,,,,,,,,
140,0,,html-keyboard-response,140,382321,0.0-4.23-3.23,ojttky67elb,2022-09-19 17:09:09.641,5c366fc38821900001b38b67,1,69,35,36,35,forty eight,female,,,"<p style=""font-size:50px"">You win!
+10 points this round!</p>",,,,,,,,,,,,,,,,,,,,,,,,,,,,
141,0,,html-keyboard-response,141,382836,0.0-4.23-4.23,ojttky67elb,2022-09-19 17:09:09.641,5c366fc38821900001b38b67,1,69,35,36,35,forty eight,female,,,,,,1.0,learning,23.0,Xnc,,black,,bolts,,,,Xnc,black,bolts,,0.0,0.0,1,left,582.6999999881,7.0,1.0,1.0,,,
142,0,,call-function,142,382854,0.0-5.0,ojttky67elb,2022-09-19 17:09:09.641,5c366fc38821900001b38b67,1,69,35,36,35,forty eight,female,,,,,,,,,,,,,,,,,,,,,,,,,,,,,,,
143,0,,image-keyboard-response,143,391008,0.0-6.0-0.0,ojttky67elb,2022-09-19 17:09:09.641,5c366fc38821900001b38b67,1,69,35,36,35,forty eight,female,8151.8999999762,,static/images/instructions_CB_1/Slide20.png,39.0,,,,,,,,,,,,,,,,,,,,,,,,,,,
144,0,,image-keyboard-response,144,407005,0.0-6.1-0.1,ojttky67elb,2022-09-19 17:09:09.641,5c366fc38821900001b38b67,1,69,35,36,35,forty eight,female,15995.0,,static/images/instructions_CB_1/Slide21.png,39.0,,,,,,,,,,,,,,,,,,,,,,,,,,,
145,0,,image-keyboard-response,145,420202,0.0-6.2-0.2,ojttky67elb,2022-09-19 17:09:09.641,5c366fc38821900001b38b67,1,69,35,36,35,forty eight,female,13195.5,,static/images/instructions_CB_1/Slide22.png,39.0,,,,,,,,,,,,,,,,,,,,,,,,,,,
146,0,,image-keyboard-response,146,468610,0.0-6.3-0.3,ojttky67elb,2022-09-19 17:09:09.641,5c366fc38821900001b38b67,1,69,35,36,35,forty eight,female,48404.6999999881,,static/images/instructions_CB_1/Slide23.png,39.0,,,,,,,,,,,,,,,,,,,,,,,,,,,
147,0,,image-keyboard-response,147,475048,0.0-6.4-0.4,ojttky67elb,2022-09-19 17:09:09.641,5c366fc38821900001b38b67,1,69,35,36,35,forty eight,female,6435.7000000477,,static/images/instructions_CB_1/Slide24.png,39.0,,,,,,,,,,,,,,,,,,,,,,,,,,,
148,0,,html-keyboard-response,148,480055,0.0-7.0-0.0,ojttky67elb,2022-09-19 17:09:09.641,5c366fc38821900001b38b67,1,69,35,36,35,forty eight,female,,,"
  <table>
  <tr height=300>
    <td width=300 height=300><img src=""static/images/cards/stack_of_red_moons.svg"" width=""175px"" height=""250px""></img></td>
    <td width=300 height=300><img src=""static/images/cards/stack_of_black_moons.svg"" width=""175px"" height=""250px""></img></td>
  </tr>
  <tr height=200>
    <td width=300><img src=""static/images/keys/w.svg"" width=""35%"" height=""75%""></img></td>
    <td width=300><img src=""static/images/keys/o.svg"" width=""35%"" height=""75%""></img></td>
  </tr>
</table>
  ",,,,,,,,,,,,,,,,,,,,,,,,,,,,
149,0,,html-keyboard-response,149,480568,0.0-7.0-1.0,ojttky67elb,2022-09-19 17:09:09.641,5c366fc38821900001b38b67,1,69,35,36,35,forty eight,female,,,,,,,,,,,,,,,,,,,,,,,,,,,,,,,
150,0,,html-keyboard-response,150,480569,0.0-7.0-2.0,ojttky67elb,2022-09-19 17:09:09.641,5c366fc38821900001b38b67,1,69,35,36,35,forty eight,female,,,,,,,,,,,,,,,,,,,,,,,,,,,,,,,
151,0,,html-keyboard-response,151,482078,0.0-7.0-3.0,ojttky67elb,2022-09-19 17:09:09.641,5c366fc38821900001b38b67,1,69,35,36,35,forty eight,female,,,"<p style=""font-size:50px"">Too slow!</p>",,,,,,,,,,,,,,,,,,,,,,,,,,,,
152,0,,html-keyboard-response,152,482588,0.0-7.0-4.0,ojttky67elb,2022-09-19 17:09:09.641,5c366fc38821900001b38b67,1,69,35,36,35,forty eight,female,,,,,,1.0,choice,0.0,A,B,red,black,moons,moons,A,B,,,,,0.0,0.0,1,,,7.0,1.0,1.0,,,
153,0,,html-keyboard-response,153,483513,0.0-7.1-0.1,ojttky67elb,2022-09-19 17:09:09.641,5c366fc38821900001b38b67,1,69,35,36,35,forty eight,female,920.6999999881,,"
  <table>
  <tr height=300>
    <td width=300 height=300><img src=""static/images/cards/stack_of_red_stars.svg"" width=""175px"" height=""250px""></img></td>
    <td width=300 height=300><img src=""static/images/cards/stack_of_black_moons.svg"" width=""175px"" height=""250px""></img></td>
  </tr>
  <tr height=200>
    <td width=300><img src=""static/images/keys/w.svg"" width=""35%"" height=""75%""></img></td>
    <td width=300><img src=""static/images/keys/o.svg"" width=""35%"" height=""75%""></img></td>
  </tr>
</table>
  ",87.0,1.0,,,,,,,,,,,,,,,,,,,,,,,,,,
154,0,,html-keyboard-response,154,485831,0.0-7.1-1.1,ojttky67elb,2022-09-19 17:09:09.641,5c366fc38821900001b38b67,1,69,35,36,35,forty eight,female,1800.1000000238,,"
  <table>
  <tr height=300>
    <td width=300 height=300><img src=""static/images/cards/back_of_red_stars.svg"" width=""175px"" height=""250px""></img></td>
    <td width=300 height=300><img src=""static/images/cards/back_of_red_stars.svg"" width=""175px"" height=""250px""></img></td>
  </tr>
  <tr height=200>
    <td width=300><img src=""static/images/keys/z.svg"" width=""35%"" height=""75%""></img></td>
    <td width=300><img src=""static/images/keys/m.svg"" width=""35%"" height=""75%""></img></td>
  </tr>
</table>
  ",90.0,1.0,,,,,,,,,,,,,,,,,,,,,,,,,,
155,0,,html-keyboard-response,155,487340,0.0-7.1-2.1,ojttky67elb,2022-09-19 17:09:09.641,5c366fc38821900001b38b67,1,69,35,36,35,forty eight,female,,,"
  <table>
  <tr height=300>
    <td width=300 height=300><img src=""static/images/cards/8_of_red_stars.svg"" width=""175px"" height=""250px""></img></td>
    <td width=300 height=300><img src=""static/images/cards/back_of_red_stars.svg"" width=""175px"" height=""250px""></img></td>
  </tr>
  <tr height=200>
    <td width=300><img src=""static/images/keys/z.svg"" width=""35%"" height=""75%""></img></td>
    <td width=300><img src=""static/images/keys/m.svg"" width=""35%"" height=""75%""></img></td>
  </tr>
</table>
  ",,,,,,,,,,,,,,,,,,,,,,,,,,,,
156,0,,html-keyboard-response,156,488855,0.0-7.1-3.1,ojttky67elb,2022-09-19 17:09:09.641,5c366fc38821900001b38b67,1,69,35,36,35,forty eight,female,,,"<p style=""font-size:50px"">You win!
+10 points this round!</p>",,,,,,,,,,,,,,,,,,,,,,,,,,,,
157,0,,html-keyboard-response,157,489363,0.0-7.1-4.1,ojttky67elb,2022-09-19 17:09:09.641,5c366fc38821900001b38b67,1,69,35,36,35,forty eight,female,,,,,,1.0,choice,1.0,B,C,red,black,stars,moons,C,B,C,red,stars,920.6999999881,1.0,0.0,NA,left,1800.1000000238,8.0,1.0,1.0,,,
158,0,,html-keyboard-response,158,493564,0.0-7.2-0.2,ojttky67elb,2022-09-19 17:09:09.641,5c366fc38821900001b38b67,1,69,35,36,35,forty eight,female,4197.5,,"
  <table>
  <tr height=300>
    <td width=300 height=300><img src=""static/images/cards/stack_of_black_moons.svg"" width=""175px"" height=""250px""></img></td>
    <td width=300 height=300><img src=""static/images/cards/stack_of_black_stars.svg"" width=""175px"" height=""250px""></img></td>
  </tr>
  <tr height=200>
    <td width=300><img src=""static/images/keys/w.svg"" width=""35%"" height=""75%""></img></td>
    <td width=300><img src=""static/images/keys/o.svg"" width=""35%"" height=""75%""></img></td>
  </tr>
</table>
  ",87.0,3.0,,,,,,,,,,,,,,,,,,,,,,,,,,
159,0,,html-keyboard-response,159,495588,0.0-7.2-1.2,ojttky67elb,2022-09-19 17:09:09.641,5c366fc38821900001b38b67,1,69,35,36,35,forty eight,female,1508.7999999523,,"
  <table>
  <tr height=300>
    <td width=300 height=300><img src=""static/images/cards/back_of_black_moons.svg"" width=""175px"" height=""250px""></img></td>
    <td width=300 height=300><img src=""static/images/cards/back_of_black_moons.svg"" width=""175px"" height=""250px""></img></td>
  </tr>
  <tr height=200>
    <td width=300><img src=""static/images/keys/z.svg"" width=""35%"" height=""75%""></img></td>
    <td width=300></td>
  </tr>
</table>
  ",90.0,1.0,,,,,,,,,,,,,,,,,,,,,,,,,,
160,0,,html-keyboard-response,160,497093,0.0-7.2-2.2,ojttky67elb,2022-09-19 17:09:09.641,5c366fc38821900001b38b67,1,69,35,36,35,forty eight,female,,,"
  <table>
  <tr height=300>
    <td width=300 height=300><img src=""static/images/cards/6_of_black_moons.svg"" width=""175px"" height=""250px""></img></td>
    <td width=300 height=300><img src=""static/images/cards/back_of_black_moons.svg"" width=""175px"" height=""250px""></img></td>
  </tr>
  <tr height=200>
    <td width=300><img src=""static/images/keys/z.svg"" width=""35%"" height=""75%""></img></td>
    <td width=300></td>
  </tr>
</table>
  ",,,,,,,,,,,,,,,,,,,,,,,,,,,,
161,0,,html-keyboard-response,161,498602,0.0-7.2-3.2,ojttky67elb,2022-09-19 17:09:09.641,5c366fc38821900001b38b67,1,69,35,36,35,forty eight,female,,,"<p style=""font-size:50px"">You win!
+10 points this round!</p>",,,,,,,,,,,,,,,,,,,,,,,,,,,,
162,0,,html-keyboard-response,162,499114,0.0-7.2-4.2,ojttky67elb,2022-09-19 17:09:09.641,5c366fc38821900001b38b67,1,69,35,36,35,forty eight,female,,,,,,1.0,choice,2.0,B,D,black,black,moons,stars,B,D,B,black,moons,4197.5,0.0,1.0,1,left,1508.7999999523,6.0,1.0,1.0,,,
163,0,,html-keyboard-response,163,501858,0.0-7.3-0.3,ojttky67elb,2022-09-19 17:09:09.641,5c366fc38821900001b38b67,1,69,35,36,35,forty eight,female,2740.1000000238,,"
  <table>
  <tr height=300>
    <td width=300 height=300><img src=""static/images/cards/stack_of_red_moons.svg"" width=""175px"" height=""250px""></img></td>
    <td width=300 height=300><img src=""static/images/cards/stack_of_red_bolts.svg"" width=""175px"" height=""250px""></img></td>
  </tr>
  <tr height=200>
    <td width=300><img src=""static/images/keys/w.svg"" width=""35%"" height=""75%""></img></td>
    <td width=300><img src=""static/images/keys/o.svg"" width=""35%"" height=""75%""></img></td>
  </tr>
</table>
  ",87.0,1.0,,,,,,,,,,,,,,,,,,,,,,,,,,
164,0,,html-keyboard-response,164,503996,0.0-7.3-1.3,ojttky67elb,2022-09-19 17:09:09.641,5c366fc38821900001b38b67,1,69,35,36,35,forty eight,female,1633.1000000238,,"
  <table>
  <tr height=300>
    <td width=300 height=300><img src=""static/images/cards/back_of_red_moons.svg"" width=""175px"" height=""250px""></img></td>
    <td width=300 height=300><img src=""static/images/cards/back_of_red_moons.svg"" width=""175px"" height=""250px""></img></td>
  </tr>
  <tr height=200>
    <td width=300><img src=""static/images/keys/z.svg"" width=""35%"" height=""75%""></img></td>
    <td width=300><img src=""static/images/keys/m.svg"" width=""35%"" height=""75%""></img></td>
  </tr>
</table>
  ",90.0,1.0,,,,,,,,,,,,,,,,,,,,,,,,,,
165,0,,html-keyboard-response,165,505503,0.0-7.3-2.3,ojttky67elb,2022-09-19 17:09:09.641,5c366fc38821900001b38b67,1,69,35,36,35,forty eight,female,,,"
  <table>
  <tr height=300>
    <td width=300 height=300><img src=""static/images/cards/10_of_red_moons.svg"" width=""175px"" height=""250px""></img></td>
    <td width=300 height=300><img src=""static/images/cards/back_of_red_moons.svg"" width=""175px"" height=""250px""></img></td>
  </tr>
  <tr height=200>
    <td width=300><img src=""static/images/keys/z.svg"" width=""35%"" height=""75%""></img></td>
    <td width=300><img src=""static/images/keys/m.svg"" width=""35%"" height=""75%""></img></td>
  </tr>
</table>
  ",,,,,,,,,,,,,,,,,,,,,,,,,,,,
166,0,,html-keyboard-response,166,507020,0.0-7.3-3.3,ojttky67elb,2022-09-19 17:09:09.641,5c366fc38821900001b38b67,1,69,35,36,35,forty eight,female,,,"<p style=""font-size:50px"">You win!
+10 points this round!</p>",,,,,,,,,,,,,,,,,,,,,,,,,,,,
167,0,,html-keyboard-response,167,507540,0.0-7.3-4.3,ojttky67elb,2022-09-19 17:09:09.641,5c366fc38821900001b38b67,1,69,35,36,35,forty eight,female,,,,,,1.0,choice,3.0,A,Xc,red,red,moons,bolts,A,Xc,A,red,moons,2740.1000000238,1.0,1.0,NA,left,1633.1000000238,10.0,1.0,1.0,,,
168,0,,html-keyboard-response,168,509964,0.0-7.4-0.4,ojttky67elb,2022-09-19 17:09:09.641,5c366fc38821900001b38b67,1,69,35,36,35,forty eight,female,2419.8999999762,,"
  <table>
  <tr height=300>
    <td width=300 height=300><img src=""static/images/cards/stack_of_red_moons.svg"" width=""175px"" height=""250px""></img></td>
    <td width=300 height=300><img src=""static/images/cards/stack_of_black_stars.svg"" width=""175px"" height=""250px""></img></td>
  </tr>
  <tr height=200>
    <td width=300><img src=""static/images/keys/w.svg"" width=""35%"" height=""75%""></img></td>
    <td width=300><img src=""static/images/keys/o.svg"" width=""35%"" height=""75%""></img></td>
  </tr>
</table>
  ",79.0,1.0,,,,,,,,,,,,,,,,,,,,,,,,,,
169,0,,html-keyboard-response,169,511825,0.0-7.4-1.4,ojttky67elb,2022-09-19 17:09:09.641,5c366fc38821900001b38b67,1,69,35,36,35,forty eight,female,1343.7000000477,,"
  <table>
  <tr height=300>
    <td width=300 height=300><img src=""static/images/cards/back_of_black_stars.svg"" width=""175px"" height=""250px""></img></td>
    <td width=300 height=300><img src=""static/images/cards/back_of_black_stars.svg"" width=""175px"" height=""250px""></img></td>
  </tr>
  <tr height=200>
    <td width=300><img src=""static/images/keys/z.svg"" width=""35%"" height=""75%""></img></td>
    <td width=300></td>
  </tr>
</table>
  ",90.0,1.0,,,,,,,,,,,,,,,,,,,,,,,,,,
170,0,,html-keyboard-response,170,513337,0.0-7.4-2.4,ojttky67elb,2022-09-19 17:09:09.641,5c366fc38821900001b38b67,1,69,35,36,35,forty eight,female,,,"
  <table>
  <tr height=300>
    <td width=300 height=300><img src=""static/images/cards/7_of_black_stars.svg"" width=""175px"" height=""250px""></img></td>
    <td width=300 height=300><img src=""static/images/cards/back_of_black_stars.svg"" width=""175px"" height=""250px""></img></td>
  </tr>
  <tr height=200>
    <td width=300><img src=""static/images/keys/z.svg"" width=""35%"" height=""75%""></img></td>
    <td width=300></td>
  </tr>
</table>
  ",,,,,,,,,,,,,,,,,,,,,,,,,,,,
171,0,,html-keyboard-response,171,514852,0.0-7.4-3.4,ojttky67elb,2022-09-19 17:09:09.641,5c366fc38821900001b38b67,1,69,35,36,35,forty eight,female,,,"<p style=""font-size:50px"">You Lose!
No points this round.</p>",,,,,,,,,,,,,,,,,,,,,,,,,,,,
172,0,,html-keyboard-response,172,515372,0.0-7.4-4.4,ojttky67elb,2022-09-19 17:09:09.641,5c366fc38821900001b38b67,1,69,35,36,35,forty eight,female,,,,,,1.0,choice,4.0,A,D,red,black,moons,stars,A,D,D,black,stars,2419.8999999762,0.0,0.0,1,left,1343.7000000477,7.0,1.0,0.0,,,
173,0,,html-keyboard-response,173,516517,0.0-7.5-0.5,ojttky67elb,2022-09-19 17:09:09.641,5c366fc38821900001b38b67,1,69,35,36,35,forty eight,female,1140.1999999881,,"
  <table>
  <tr height=300>
    <td width=300 height=300><img src=""static/images/cards/stack_of_black_stars.svg"" width=""175px"" height=""250px""></img></td>
    <td width=300 height=300><img src=""static/images/cards/stack_of_black_moons.svg"" width=""175px"" height=""250px""></img></td>
  </tr>
  <tr height=200>
    <td width=300><img src=""static/images/keys/w.svg"" width=""35%"" height=""75%""></img></td>
    <td width=300><img src=""static/images/keys/o.svg"" width=""35%"" height=""75%""></img></td>
  </tr>
</table>
  ",87.0,1.0,,,,,,,,,,,,,,,,,,,,,,,,,,
174,0,,html-keyboard-response,174,518697,0.0-7.5-1.5,ojttky67elb,2022-09-19 17:09:09.641,5c366fc38821900001b38b67,1,69,35,36,35,forty eight,female,1670.6999999881,,"
  <table>
  <tr height=300>
    <td width=300 height=300><img src=""static/images/cards/back_of_black_stars.svg"" width=""175px"" height=""250px""></img></td>
    <td width=300 height=300><img src=""static/images/cards/back_of_black_stars.svg"" width=""175px"" height=""250px""></img></td>
  </tr>
  <tr height=200>
    <td width=300></td>
    <td width=300><img src=""static/images/keys/m.svg"" width=""35%"" height=""75%""></img></td>
  </tr>
</table>
  ",77.0,1.0,,,,,,,,,,,,,,,,,,,,,,,,,,
175,0,,html-keyboard-response,175,520210,0.0-7.5-2.5,ojttky67elb,2022-09-19 17:09:09.641,5c366fc38821900001b38b67,1,69,35,36,35,forty eight,female,,,"
  <table>
  <tr height=300>
    <td width=300 height=300><img src=""static/images/cards/back_of_black_stars.svg"" width=""175px"" height=""250px""></img></td>
    <td width=300 height=300><img src=""static/images/cards/4_of_black_stars.svg"" width=""175px"" height=""250px""></img></td>
  </tr>
  <tr height=200>
    <td width=300></td>
    <td width=300><img src=""static/images/keys/m.svg"" width=""35%"" height=""75%""></img></td>
  </tr>
</table>
  ",,,,,,,,,,,,,,,,,,,,,,,,,,,,
176,0,,html-keyboard-response,176,521740,0.0-7.5-3.5,ojttky67elb,2022-09-19 17:09:09.641,5c366fc38821900001b38b67,1,69,35,36,35,forty eight,female,,,"<p style=""font-size:50px"">You win!
+10 points this round!</p>",,,,,,,,,,,,,,,,,,,,,,,,,,,,
177,0,,html-keyboard-response,177,522250,0.0-7.5-4.5,ojttky67elb,2022-09-19 17:09:09.641,5c366fc38821900001b38b67,1,69,35,36,35,forty eight,female,,,,,,1.0,choice,5.0,B,D,black,black,stars,moons,D,B,D,black,stars,1140.1999999881,0.0,0.0,0,right,1670.6999999881,4.0,0.0,1.0,,,
178,0,,html-keyboard-response,178,524613,0.0-7.6-0.6,ojttky67elb,2022-09-19 17:09:09.641,5c366fc38821900001b38b67,1,69,35,36,35,forty eight,female,2359.1999999881,,"
  <table>
  <tr height=300>
    <td width=300 height=300><img src=""static/images/cards/stack_of_black_bolts.svg"" width=""175px"" height=""250px""></img></td>
    <td width=300 height=300><img src=""static/images/cards/stack_of_red_moons.svg"" width=""175px"" height=""250px""></img></td>
  </tr>
  <tr height=200>
    <td width=300><img src=""static/images/keys/w.svg"" width=""35%"" height=""75%""></img></td>
    <td width=300><img src=""static/images/keys/o.svg"" width=""35%"" height=""75%""></img></td>
  </tr>
</table>
  ",79.0,1.0,,,,,,,,,,,,,,,,,,,,,,,,,,
179,0,,html-keyboard-response,179,526988,0.0-7.6-1.6,ojttky67elb,2022-09-19 17:09:09.641,5c366fc38821900001b38b67,1,69,35,36,35,forty eight,female,1863.0,,"
  <table>
  <tr height=300>
    <td width=300 height=300><img src=""static/images/cards/back_of_red_moons.svg"" width=""175px"" height=""250px""></img></td>
    <td width=300 height=300><img src=""static/images/cards/back_of_red_moons.svg"" width=""175px"" height=""250px""></img></td>
  </tr>
  <tr height=200>
    <td width=300><img src=""static/images/keys/z.svg"" width=""35%"" height=""75%""></img></td>
    <td width=300><img src=""static/images/keys/m.svg"" width=""35%"" height=""75%""></img></td>
  </tr>
</table>
  ",90.0,1.0,,,,,,,,,,,,,,,,,,,,,,,,,,
180,0,,html-keyboard-response,180,528506,0.0-7.6-2.6,ojttky67elb,2022-09-19 17:09:09.641,5c366fc38821900001b38b67,1,69,35,36,35,forty eight,female,,,"
  <table>
  <tr height=300>
    <td width=300 height=300><img src=""static/images/cards/1_of_red_moons.svg"" width=""175px"" height=""250px""></img></td>
    <td width=300 height=300><img src=""static/images/cards/back_of_red_moons.svg"" width=""175px"" height=""250px""></img></td>
  </tr>
  <tr height=200>
    <td width=300><img src=""static/images/keys/z.svg"" width=""35%"" height=""75%""></img></td>
    <td width=300><img src=""static/images/keys/m.svg"" width=""35%"" height=""75%""></img></td>
  </tr>
</table>
  ",,,,,,,,,,,,,,,,,,,,,,,,,,,,
181,0,,html-keyboard-response,181,530036,0.0-7.6-3.6,ojttky67elb,2022-09-19 17:09:09.641,5c366fc38821900001b38b67,1,69,35,36,35,forty eight,female,,,"<p style=""font-size:50px"">You Lose!
No points this round.</p>",,,,,,,,,,,,,,,,,,,,,,,,,,,,
182,0,,html-keyboard-response,182,530542,0.0-7.6-4.6,ojttky67elb,2022-09-19 17:09:09.641,5c366fc38821900001b38b67,1,69,35,36,35,forty eight,female,,,,,,1.0,choice,6.0,A,Xnc,black,red,bolts,moons,Xnc,A,A,red,moons,2359.1999999881,1.0,1.0,NA,left,1863.0,1.0,0.0,0.0,,,
183,0,,html-keyboard-response,183,533143,0.0-7.7-0.7,ojttky67elb,2022-09-19 17:09:09.641,5c366fc38821900001b38b67,1,69,35,36,35,forty eight,female,2596.8000000119,,"
  <table>
  <tr height=300>
    <td width=300 height=300><img src=""static/images/cards/stack_of_red_moons.svg"" width=""175px"" height=""250px""></img></td>
    <td width=300 height=300><img src=""static/images/cards/stack_of_black_stars.svg"" width=""175px"" height=""250px""></img></td>
  </tr>
  <tr height=200>
    <td width=300><img src=""static/images/keys/w.svg"" width=""35%"" height=""75%""></img></td>
    <td width=300><img src=""static/images/keys/o.svg"" width=""35%"" height=""75%""></img></td>
  </tr>
</table>
  ",87.0,1.0,,,,,,,,,,,,,,,,,,,,,,,,,,
184,0,,html-keyboard-response,184,535301,0.0-7.7-1.7,ojttky67elb,2022-09-19 17:09:09.641,5c366fc38821900001b38b67,1,69,35,36,35,forty eight,female,1646.3000000119,,"
  <table>
  <tr height=300>
    <td width=300 height=300><img src=""static/images/cards/back_of_red_moons.svg"" width=""175px"" height=""250px""></img></td>
    <td width=300 height=300><img src=""static/images/cards/back_of_red_moons.svg"" width=""175px"" height=""250px""></img></td>
  </tr>
  <tr height=200>
    <td width=300><img src=""static/images/keys/z.svg"" width=""35%"" height=""75%""></img></td>
    <td width=300><img src=""static/images/keys/m.svg"" width=""35%"" height=""75%""></img></td>
  </tr>
</table>
  ",90.0,1.0,,,,,,,,,,,,,,,,,,,,,,,,,,
185,0,,html-keyboard-response,185,536812,0.0-7.7-2.7,ojttky67elb,2022-09-19 17:09:09.641,5c366fc38821900001b38b67,1,69,35,36,35,forty eight,female,,,"
  <table>
  <tr height=300>
    <td width=300 height=300><img src=""static/images/cards/4_of_red_moons.svg"" width=""175px"" height=""250px""></img></td>
    <td width=300 height=300><img src=""static/images/cards/back_of_red_moons.svg"" width=""175px"" height=""250px""></img></td>
  </tr>
  <tr height=200>
    <td width=300><img src=""static/images/keys/z.svg"" width=""35%"" height=""75%""></img></td>
    <td width=300><img src=""static/images/keys/m.svg"" width=""35%"" height=""75%""></img></td>
  </tr>
</table>
  ",,,,,,,,,,,,,,,,,,,,,,,,,,,,
186,0,,html-keyboard-response,186,538326,0.0-7.7-3.7,ojttky67elb,2022-09-19 17:09:09.641,5c366fc38821900001b38b67,1,69,35,36,35,forty eight,female,,,"<p style=""font-size:50px"">You Lose!
No points this round.</p>",,,,,,,,,,,,,,,,,,,,,,,,,,,,
187,0,,html-keyboard-response,187,538847,0.0-7.7-4.7,ojttky67elb,2022-09-19 17:09:09.641,5c366fc38821900001b38b67,1,69,35,36,35,forty eight,female,,,,,,1.0,choice,7.0,A,D,red,black,moons,stars,A,D,A,red,moons,2596.8000000119,1.0,1.0,NA,left,1646.3000000119,4.0,0.0,0.0,,,
188,0,,html-keyboard-response,188,540858,0.0-7.8-0.8,ojttky67elb,2022-09-19 17:09:09.641,5c366fc38821900001b38b67,1,69,35,36,35,forty eight,female,2006.4000000358,,"
  <table>
  <tr height=300>
    <td width=300 height=300><img src=""static/images/cards/stack_of_red_stars.svg"" width=""175px"" height=""250px""></img></td>
    <td width=300 height=300><img src=""static/images/cards/stack_of_black_stars.svg"" width=""175px"" height=""250px""></img></td>
  </tr>
  <tr height=200>
    <td width=300><img src=""static/images/keys/w.svg"" width=""35%"" height=""75%""></img></td>
    <td width=300><img src=""static/images/keys/o.svg"" width=""35%"" height=""75%""></img></td>
  </tr>
</table>
  ",79.0,1.0,,,,,,,,,,,,,,,,,,,,,,,,,,
189,0,,html-keyboard-response,189,543065,0.0-7.8-1.8,ojttky67elb,2022-09-19 17:09:09.641,5c366fc38821900001b38b67,1,69,35,36,35,forty eight,female,1700.7000000477,,"
  <table>
  <tr height=300>
    <td width=300 height=300><img src=""static/images/cards/back_of_black_stars.svg"" width=""175px"" height=""250px""></img></td>
    <td width=300 height=300><img src=""static/images/cards/back_of_black_stars.svg"" width=""175px"" height=""250px""></img></td>
  </tr>
  <tr height=200>
    <td width=300><img src=""static/images/keys/z.svg"" width=""35%"" height=""75%""></img></td>
    <td width=300></td>
  </tr>
</table>
  ",90.0,1.0,,,,,,,,,,,,,,,,,,,,,,,,,,
190,0,,html-keyboard-response,190,544581,0.0-7.8-2.8,ojttky67elb,2022-09-19 17:09:09.641,5c366fc38821900001b38b67,1,69,35,36,35,forty eight,female,,,"
  <table>
  <tr height=300>
    <td width=300 height=300><img src=""static/images/cards/6_of_black_stars.svg"" width=""175px"" height=""250px""></img></td>
    <td width=300 height=300><img src=""static/images/cards/back_of_black_stars.svg"" width=""175px"" height=""250px""></img></td>
  </tr>
  <tr height=200>
    <td width=300><img src=""static/images/keys/z.svg"" width=""35%"" height=""75%""></img></td>
    <td width=300></td>
  </tr>
</table>
  ",,,,,,,,,,,,,,,,,,,,,,,,,,,,
191,0,,html-keyboard-response,191,546094,0.0-7.8-3.8,ojttky67elb,2022-09-19 17:09:09.641,5c366fc38821900001b38b67,1,69,35,36,35,forty eight,female,,,"<p style=""font-size:50px"">You Lose!
No points this round.</p>",,,,,,,,,,,,,,,,,,,,,,,,,,,,
192,0,,html-keyboard-response,192,546603,0.0-7.8-4.8,ojttky67elb,2022-09-19 17:09:09.641,5c366fc38821900001b38b67,1,69,35,36,35,forty eight,female,,,,,,1.0,choice,8.0,C,D,red,black,stars,stars,C,D,D,black,stars,2006.4000000358,0.0,0.0,1,left,1700.7000000477,6.0,1.0,0.0,,,
193,0,,html-keyboard-response,193,549812,0.0-7.9-0.9,ojttky67elb,2022-09-19 17:09:09.641,5c366fc38821900001b38b67,1,69,35,36,35,forty eight,female,3205.0,,"
  <table>
  <tr height=300>
    <td width=300 height=300><img src=""static/images/cards/stack_of_black_stars.svg"" width=""175px"" height=""250px""></img></td>
    <td width=300 height=300><img src=""static/images/cards/stack_of_black_moons.svg"" width=""175px"" height=""250px""></img></td>
  </tr>
  <tr height=200>
    <td width=300><img src=""static/images/keys/w.svg"" width=""35%"" height=""75%""></img></td>
    <td width=300><img src=""static/images/keys/o.svg"" width=""35%"" height=""75%""></img></td>
  </tr>
</table>
  ",79.0,1.0,,,,,,,,,,,,,,,,,,,,,,,,,,
194,0,,html-keyboard-response,194,552545,0.0-7.9-1.9,ojttky67elb,2022-09-19 17:09:09.641,5c366fc38821900001b38b67,1,69,35,36,35,forty eight,female,2218.4000000358,,"
  <table>
  <tr height=300>
    <td width=300 height=300><img src=""static/images/cards/back_of_black_moons.svg"" width=""175px"" height=""250px""></img></td>
    <td width=300 height=300><img src=""static/images/cards/back_of_black_moons.svg"" width=""175px"" height=""250px""></img></td>
  </tr>
  <tr height=200>
    <td width=300></td>
    <td width=300><img src=""static/images/keys/m.svg"" width=""35%"" height=""75%""></img></td>
  </tr>
</table>
  ",77.0,1.0,,,,,,,,,,,,,,,,,,,,,,,,,,
195,0,,html-keyboard-response,195,554064,0.0-7.9-2.9,ojttky67elb,2022-09-19 17:09:09.641,5c366fc38821900001b38b67,1,69,35,36,35,forty eight,female,,,"
  <table>
  <tr height=300>
    <td width=300 height=300><img src=""static/images/cards/back_of_black_moons.svg"" width=""175px"" height=""250px""></img></td>
    <td width=300 height=300><img src=""static/images/cards/6_of_black_moons.svg"" width=""175px"" height=""250px""></img></td>
  </tr>
  <tr height=200>
    <td width=300></td>
    <td width=300><img src=""static/images/keys/m.svg"" width=""35%"" height=""75%""></img></td>
  </tr>
</table>
  ",,,,,,,,,,,,,,,,,,,,,,,,,,,,
196,0,,html-keyboard-response,196,555569,0.0-7.9-3.9,ojttky67elb,2022-09-19 17:09:09.641,5c366fc38821900001b38b67,1,69,35,36,35,forty eight,female,,,"<p style=""font-size:50px"">You win!
+10 points this round!</p>",,,,,,,,,,,,,,,,,,,,,,,,,,,,
197,0,,html-keyboard-response,197,556080,0.0-7.9-4.9,ojttky67elb,2022-09-19 17:09:09.641,5c366fc38821900001b38b67,1,69,35,36,35,forty eight,female,,,,,,1.0,choice,9.0,B,D,black,black,stars,moons,D,B,B,black,moons,3205.0,0.0,1.0,0,right,2218.4000000358,6.0,1.0,1.0,,,
198,0,,html-keyboard-response,198,557949,0.0-7.10-0.10,ojttky67elb,2022-09-19 17:09:09.641,5c366fc38821900001b38b67,1,69,35,36,35,forty eight,female,1865.1999999881,,"
  <table>
  <tr height=300>
    <td width=300 height=300><img src=""static/images/cards/stack_of_black_moons.svg"" width=""175px"" height=""250px""></img></td>
    <td width=300 height=300><img src=""static/images/cards/stack_of_red_moons.svg"" width=""175px"" height=""250px""></img></td>
  </tr>
  <tr height=200>
    <td width=300><img src=""static/images/keys/w.svg"" width=""35%"" height=""75%""></img></td>
    <td width=300><img src=""static/images/keys/o.svg"" width=""35%"" height=""75%""></img></td>
  </tr>
</table>
  ",87.0,1.0,,,,,,,,,,,,,,,,,,,,,,,,,,
199,0,,html-keyboard-response,199,559716,0.0-7.10-1.10,ojttky67elb,2022-09-19 17:09:09.641,5c366fc38821900001b38b67,1,69,35,36,35,forty eight,female,1247.5,,"
  <table>
  <tr height=300>
    <td width=300 height=300><img src=""static/images/cards/back_of_black_moons.svg"" width=""175px"" height=""250px""></img></td>
    <td width=300 height=300><img src=""static/images/cards/back_of_black_moons.svg"" width=""175px"" height=""250px""></img></td>
  </tr>
  <tr height=200>
    <td width=300><img src=""static/images/keys/z.svg"" width=""35%"" height=""75%""></img></td>
    <td width=300></td>
  </tr>
</table>
  ",90.0,1.0,,,,,,,,,,,,,,,,,,,,,,,,,,
200,0,,html-keyboard-response,200,561220,0.0-7.10-2.10,ojttky67elb,2022-09-19 17:09:09.641,5c366fc38821900001b38b67,1,69,35,36,35,forty eight,female,,,"
  <table>
  <tr height=300>
    <td width=300 height=300><img src=""static/images/cards/9_of_black_moons.svg"" width=""175px"" height=""250px""></img></td>
    <td width=300 height=300><img src=""static/images/cards/back_of_black_moons.svg"" width=""175px"" height=""250px""></img></td>
  </tr>
  <tr height=200>
    <td width=300><img src=""static/images/keys/z.svg"" width=""35%"" height=""75%""></img></td>
    <td width=300></td>
  </tr>
</table>
  ",,,,,,,,,,,,,,,,,,,,,,,,,,,,
201,0,,html-keyboard-response,201,562743,0.0-7.10-3.10,ojttky67elb,2022-09-19 17:09:09.641,5c366fc38821900001b38b67,1,69,35,36,35,forty eight,female,,,"<p style=""font-size:50px"">You win!
+10 points this round!</p>",,,,,,,,,,,,,,,,,,,,,,,,,,,,
202,0,,html-keyboard-response,202,563251,0.0-7.10-4.10,ojttky67elb,2022-09-19 17:09:09.641,5c366fc38821900001b38b67,1,69,35,36,35,forty eight,female,,,,,,1.0,choice,10.0,A,B,black,red,moons,moons,B,A,B,black,moons,1865.1999999881,0.0,1.0,1,left,1247.5,9.0,1.0,1.0,,,
203,0,,html-keyboard-response,203,565069,0.0-7.11-0.11,ojttky67elb,2022-09-19 17:09:09.641,5c366fc38821900001b38b67,1,69,35,36,35,forty eight,female,1814.6999999881,,"
  <table>
  <tr height=300>
    <td width=300 height=300><img src=""static/images/cards/stack_of_black_bolts.svg"" width=""175px"" height=""250px""></img></td>
    <td width=300 height=300><img src=""static/images/cards/stack_of_red_stars.svg"" width=""175px"" height=""250px""></img></td>
  </tr>
  <tr height=200>
    <td width=300><img src=""static/images/keys/w.svg"" width=""35%"" height=""75%""></img></td>
    <td width=300><img src=""static/images/keys/o.svg"" width=""35%"" height=""75%""></img></td>
  </tr>
</table>
  ",87.0,1.0,,,,,,,,,,,,,,,,,,,,,,,,,,
204,0,,html-keyboard-response,204,566825,0.0-7.11-1.11,ojttky67elb,2022-09-19 17:09:09.641,5c366fc38821900001b38b67,1,69,35,36,35,forty eight,female,1240.5,,"
  <table>
  <tr height=300>
    <td width=300 height=300><img src=""static/images/cards/back_of_black_bolts.svg"" width=""175px"" height=""250px""></img></td>
    <td width=300 height=300><img src=""static/images/cards/back_of_black_bolts.svg"" width=""175px"" height=""250px""></img></td>
  </tr>
  <tr height=200>
    <td width=300><img src=""static/images/keys/z.svg"" width=""35%"" height=""75%""></img></td>
    <td width=300></td>
  </tr>
</table>
  ",90.0,1.0,,,,,,,,,,,,,,,,,,,,,,,,,,
205,0,,html-keyboard-response,205,568332,0.0-7.11-2.11,ojttky67elb,2022-09-19 17:09:09.641,5c366fc38821900001b38b67,1,69,35,36,35,forty eight,female,,,"
  <table>
  <tr height=300>
    <td width=300 height=300><img src=""static/images/cards/4_of_black_bolts.svg"" width=""175px"" height=""250px""></img></td>
    <td width=300 height=300><img src=""static/images/cards/back_of_black_bolts.svg"" width=""175px"" height=""250px""></img></td>
  </tr>
  <tr height=200>
    <td width=300><img src=""static/images/keys/z.svg"" width=""35%"" height=""75%""></img></td>
    <td width=300></td>
  </tr>
</table>
  ",,,,,,,,,,,,,,,,,,,,,,,,,,,,
206,0,,html-keyboard-response,206,569849,0.0-7.11-3.11,ojttky67elb,2022-09-19 17:09:09.641,5c366fc38821900001b38b67,1,69,35,36,35,forty eight,female,,,"<p style=""font-size:50px"">You win!
+10 points this round!</p>",,,,,,,,,,,,,,,,,,,,,,,,,,,,
207,0,,html-keyboard-response,207,570355,0.0-7.11-4.11,ojttky67elb,2022-09-19 17:09:09.641,5c366fc38821900001b38b67,1,69,35,36,35,forty eight,female,,,,,,1.0,choice,11.0,C,Xnc,black,red,bolts,stars,Xnc,C,Xnc,black,bolts,1814.6999999881,0.0,0.0,1,left,1240.5,4.0,0.0,1.0,,,
208,0,,html-keyboard-response,208,572428,0.0-7.12-0.12,ojttky67elb,2022-09-19 17:09:09.641,5c366fc38821900001b38b67,1,69,35,36,35,forty eight,female,2068.2000000477,,"
  <table>
  <tr height=300>
    <td width=300 height=300><img src=""static/images/cards/stack_of_red_moons.svg"" width=""175px"" height=""250px""></img></td>
    <td width=300 height=300><img src=""static/images/cards/stack_of_black_stars.svg"" width=""175px"" height=""250px""></img></td>
  </tr>
  <tr height=200>
    <td width=300><img src=""static/images/keys/w.svg"" width=""35%"" height=""75%""></img></td>
    <td width=300><img src=""static/images/keys/o.svg"" width=""35%"" height=""75%""></img></td>
  </tr>
</table>
  ",87.0,1.0,,,,,,,,,,,,,,,,,,,,,,,,,,
209,0,,html-keyboard-response,209,574332,0.0-7.12-1.12,ojttky67elb,2022-09-19 17:09:09.641,5c366fc38821900001b38b67,1,69,35,36,35,forty eight,female,1394.6999999881,,"
  <table>
  <tr height=300>
    <td width=300 height=300><img src=""static/images/cards/back_of_red_moons.svg"" width=""175px"" height=""250px""></img></td>
    <td width=300 height=300><img src=""static/images/cards/back_of_red_moons.svg"" width=""175px"" height=""250px""></img></td>
  </tr>
  <tr height=200>
    <td width=300><img src=""static/images/keys/z.svg"" width=""35%"" height=""75%""></img></td>
    <td width=300><img src=""static/images/keys/m.svg"" width=""35%"" height=""75%""></img></td>
  </tr>
</table>
  ",90.0,1.0,,,,,,,,,,,,,,,,,,,,,,,,,,
210,0,,html-keyboard-response,210,575839,0.0-7.12-2.12,ojttky67elb,2022-09-19 17:09:09.641,5c366fc38821900001b38b67,1,69,35,36,35,forty eight,female,,,"
  <table>
  <tr height=300>
    <td width=300 height=300><img src=""static/images/cards/6_of_red_moons.svg"" width=""175px"" height=""250px""></img></td>
    <td width=300 height=300><img src=""static/images/cards/back_of_red_moons.svg"" width=""175px"" height=""250px""></img></td>
  </tr>
  <tr height=200>
    <td width=300><img src=""static/images/keys/z.svg"" width=""35%"" height=""75%""></img></td>
    <td width=300><img src=""static/images/keys/m.svg"" width=""35%"" height=""75%""></img></td>
  </tr>
</table>
  ",,,,,,,,,,,,,,,,,,,,,,,,,,,,
211,0,,html-keyboard-response,211,577354,0.0-7.12-3.12,ojttky67elb,2022-09-19 17:09:09.641,5c366fc38821900001b38b67,1,69,35,36,35,forty eight,female,,,"<p style=""font-size:50px"">You win!
+10 points this round!</p>",,,,,,,,,,,,,,,,,,,,,,,,,,,,
212,0,,html-keyboard-response,212,577867,0.0-7.12-4.12,ojttky67elb,2022-09-19 17:09:09.641,5c366fc38821900001b38b67,1,69,35,36,35,forty eight,female,,,,,,1.0,choice,12.0,A,D,red,black,moons,stars,A,D,A,red,moons,2068.2000000477,1.0,1.0,NA,left,1394.6999999881,6.0,1.0,1.0,,,
213,0,,html-keyboard-response,213,579944,0.0-7.13-0.13,ojttky67elb,2022-09-19 17:09:09.641,5c366fc38821900001b38b67,1,69,35,36,35,forty eight,female,2072.3000000119,,"
  <table>
  <tr height=300>
    <td width=300 height=300><img src=""static/images/cards/stack_of_black_moons.svg"" width=""175px"" height=""250px""></img></td>
    <td width=300 height=300><img src=""static/images/cards/stack_of_red_stars.svg"" width=""175px"" height=""250px""></img></td>
  </tr>
  <tr height=200>
    <td width=300><img src=""static/images/keys/w.svg"" width=""35%"" height=""75%""></img></td>
    <td width=300><img src=""static/images/keys/o.svg"" width=""35%"" height=""75%""></img></td>
  </tr>
</table>
  ",79.0,1.0,,,,,,,,,,,,,,,,,,,,,,,,,,
214,0,,html-keyboard-response,214,582448,0.0-7.13-1.13,ojttky67elb,2022-09-19 17:09:09.641,5c366fc38821900001b38b67,1,69,35,36,35,forty eight,female,1987.5,,"
  <table>
  <tr height=300>
    <td width=300 height=300><img src=""static/images/cards/back_of_red_stars.svg"" width=""175px"" height=""250px""></img></td>
    <td width=300 height=300><img src=""static/images/cards/back_of_red_stars.svg"" width=""175px"" height=""250px""></img></td>
  </tr>
  <tr height=200>
    <td width=300><img src=""static/images/keys/z.svg"" width=""35%"" height=""75%""></img></td>
    <td width=300><img src=""static/images/keys/m.svg"" width=""35%"" height=""75%""></img></td>
  </tr>
</table>
  ",77.0,1.0,,,,,,,,,,,,,,,,,,,,,,,,,,
215,0,,html-keyboard-response,215,583981,0.0-7.13-2.13,ojttky67elb,2022-09-19 17:09:09.641,5c366fc38821900001b38b67,1,69,35,36,35,forty eight,female,,,"
  <table>
  <tr height=300>
    <td width=300 height=300><img src=""static/images/cards/back_of_red_stars.svg"" width=""175px"" height=""250px""></img></td>
    <td width=300 height=300><img src=""static/images/cards/4_of_red_stars.svg"" width=""175px"" height=""250px""></img></td>
  </tr>
  <tr height=200>
    <td width=300><img src=""static/images/keys/z.svg"" width=""35%"" height=""75%""></img></td>
    <td width=300><img src=""static/images/keys/m.svg"" width=""35%"" height=""75%""></img></td>
  </tr>
</table>
  ",,,,,,,,,,,,,,,,,,,,,,,,,,,,
216,0,,html-keyboard-response,216,585496,0.0-7.13-3.13,ojttky67elb,2022-09-19 17:09:09.641,5c366fc38821900001b38b67,1,69,35,36,35,forty eight,female,,,"<p style=""font-size:50px"">You win!
+10 points this round!</p>",,,,,,,,,,,,,,,,,,,,,,,,,,,,
217,0,,html-keyboard-response,217,586015,0.0-7.13-4.13,ojttky67elb,2022-09-19 17:09:09.641,5c366fc38821900001b38b67,1,69,35,36,35,forty eight,female,,,,,,1.0,choice,13.0,B,C,black,red,moons,stars,B,C,C,red,stars,2072.3000000119,1.0,0.0,NA,right,1987.5,4.0,0.0,1.0,,,
218,0,,html-keyboard-response,218,587273,0.0-7.14-0.14,ojttky67elb,2022-09-19 17:09:09.641,5c366fc38821900001b38b67,1,69,35,36,35,forty eight,female,1254.6999999881,,"
  <table>
  <tr height=300>
    <td width=300 height=300><img src=""static/images/cards/stack_of_black_moons.svg"" width=""175px"" height=""250px""></img></td>
    <td width=300 height=300><img src=""static/images/cards/stack_of_red_stars.svg"" width=""175px"" height=""250px""></img></td>
  </tr>
  <tr height=200>
    <td width=300><img src=""static/images/keys/w.svg"" width=""35%"" height=""75%""></img></td>
    <td width=300><img src=""static/images/keys/o.svg"" width=""35%"" height=""75%""></img></td>
  </tr>
</table>
  ",79.0,1.0,,,,,,,,,,,,,,,,,,,,,,,,,,
219,0,,html-keyboard-response,219,589289,0.0-7.14-1.14,ojttky67elb,2022-09-19 17:09:09.641,5c366fc38821900001b38b67,1,69,35,36,35,forty eight,female,1496.9000000358,,"
  <table>
  <tr height=300>
    <td width=300 height=300><img src=""static/images/cards/back_of_red_stars.svg"" width=""175px"" height=""250px""></img></td>
    <td width=300 height=300><img src=""static/images/cards/back_of_red_stars.svg"" width=""175px"" height=""250px""></img></td>
  </tr>
  <tr height=200>
    <td width=300><img src=""static/images/keys/z.svg"" width=""35%"" height=""75%""></img></td>
    <td width=300><img src=""static/images/keys/m.svg"" width=""35%"" height=""75%""></img></td>
  </tr>
</table>
  ",77.0,1.0,,,,,,,,,,,,,,,,,,,,,,,,,,
220,0,,html-keyboard-response,220,590796,0.0-7.14-2.14,ojttky67elb,2022-09-19 17:09:09.641,5c366fc38821900001b38b67,1,69,35,36,35,forty eight,female,,,"
  <table>
  <tr height=300>
    <td width=300 height=300><img src=""static/images/cards/back_of_red_stars.svg"" width=""175px"" height=""250px""></img></td>
    <td width=300 height=300><img src=""static/images/cards/4_of_red_stars.svg"" width=""175px"" height=""250px""></img></td>
  </tr>
  <tr height=200>
    <td width=300><img src=""static/images/keys/z.svg"" width=""35%"" height=""75%""></img></td>
    <td width=300><img src=""static/images/keys/m.svg"" width=""35%"" height=""75%""></img></td>
  </tr>
</table>
  ",,,,,,,,,,,,,,,,,,,,,,,,,,,,
221,0,,html-keyboard-response,221,592327,0.0-7.14-3.14,ojttky67elb,2022-09-19 17:09:09.641,5c366fc38821900001b38b67,1,69,35,36,35,forty eight,female,,,"<p style=""font-size:50px"">You win!
+10 points this round!</p>",,,,,,,,,,,,,,,,,,,,,,,,,,,,
222,0,,html-keyboard-response,222,592846,0.0-7.14-4.14,ojttky67elb,2022-09-19 17:09:09.641,5c366fc38821900001b38b67,1,69,35,36,35,forty eight,female,,,,,,1.0,choice,14.0,B,C,black,red,moons,stars,B,C,C,red,stars,1254.6999999881,1.0,0.0,NA,right,1496.9000000358,4.0,0.0,1.0,,,
223,0,,html-keyboard-response,223,594174,0.0-7.15-0.15,ojttky67elb,2022-09-19 17:09:09.641,5c366fc38821900001b38b67,1,69,35,36,35,forty eight,female,1323.8000000119,,"
  <table>
  <tr height=300>
    <td width=300 height=300><img src=""static/images/cards/stack_of_black_stars.svg"" width=""175px"" height=""250px""></img></td>
    <td width=300 height=300><img src=""static/images/cards/stack_of_red_stars.svg"" width=""175px"" height=""250px""></img></td>
  </tr>
  <tr height=200>
    <td width=300><img src=""static/images/keys/w.svg"" width=""35%"" height=""75%""></img></td>
    <td width=300><img src=""static/images/keys/o.svg"" width=""35%"" height=""75%""></img></td>
  </tr>
</table>
  ",79.0,1.0,,,,,,,,,,,,,,,,,,,,,,,,,,
224,0,,html-keyboard-response,224,595724,0.0-7.15-1.15,ojttky67elb,2022-09-19 17:09:09.641,5c366fc38821900001b38b67,1,69,35,36,35,forty eight,female,1037.8000000119,,"
  <table>
  <tr height=300>
    <td width=300 height=300><img src=""static/images/cards/back_of_red_stars.svg"" width=""175px"" height=""250px""></img></td>
    <td width=300 height=300><img src=""static/images/cards/back_of_red_stars.svg"" width=""175px"" height=""250px""></img></td>
  </tr>
  <tr height=200>
    <td width=300><img src=""static/images/keys/z.svg"" width=""35%"" height=""75%""></img></td>
    <td width=300><img src=""static/images/keys/m.svg"" width=""35%"" height=""75%""></img></td>
  </tr>
</table>
  ",77.0,1.0,,,,,,,,,,,,,,,,,,,,,,,,,,
225,0,,html-keyboard-response,225,597233,0.0-7.15-2.15,ojttky67elb,2022-09-19 17:09:09.641,5c366fc38821900001b38b67,1,69,35,36,35,forty eight,female,,,"
  <table>
  <tr height=300>
    <td width=300 height=300><img src=""static/images/cards/back_of_red_stars.svg"" width=""175px"" height=""250px""></img></td>
    <td width=300 height=300><img src=""static/images/cards/1_of_red_stars.svg"" width=""175px"" height=""250px""></img></td>
  </tr>
  <tr height=200>
    <td width=300><img src=""static/images/keys/z.svg"" width=""35%"" height=""75%""></img></td>
    <td width=300><img src=""static/images/keys/m.svg"" width=""35%"" height=""75%""></img></td>
  </tr>
</table>
  ",,,,,,,,,,,,,,,,,,,,,,,,,,,,
226,0,,html-keyboard-response,226,598754,0.0-7.15-3.15,ojttky67elb,2022-09-19 17:09:09.641,5c366fc38821900001b38b67,1,69,35,36,35,forty eight,female,,,"<p style=""font-size:50px"">You win!
+10 points this round!</p>",,,,,,,,,,,,,,,,,,,,,,,,,,,,
227,0,,html-keyboard-response,227,599264,0.0-7.15-4.15,ojttky67elb,2022-09-19 17:09:09.641,5c366fc38821900001b38b67,1,69,35,36,35,forty eight,female,,,,,,1.0,choice,15.0,C,D,black,red,stars,stars,D,C,C,red,stars,1323.8000000119,1.0,0.0,NA,right,1037.8000000119,1.0,0.0,1.0,,,
228,0,,html-keyboard-response,228,602152,0.0-7.16-0.16,ojttky67elb,2022-09-19 17:09:09.641,5c366fc38821900001b38b67,1,69,35,36,35,forty eight,female,2884.0999999642,,"
  <table>
  <tr height=300>
    <td width=300 height=300><img src=""static/images/cards/stack_of_red_stars.svg"" width=""175px"" height=""250px""></img></td>
    <td width=300 height=300><img src=""static/images/cards/stack_of_black_moons.svg"" width=""175px"" height=""250px""></img></td>
  </tr>
  <tr height=200>
    <td width=300><img src=""static/images/keys/w.svg"" width=""35%"" height=""75%""></img></td>
    <td width=300><img src=""static/images/keys/o.svg"" width=""35%"" height=""75%""></img></td>
  </tr>
</table>
  ",79.0,1.0,,,,,,,,,,,,,,,,,,,,,,,,,,
229,0,,html-keyboard-response,229,603952,0.0-7.16-1.16,ojttky67elb,2022-09-19 17:09:09.641,5c366fc38821900001b38b67,1,69,35,36,35,forty eight,female,1287.1999999881,,"
  <table>
  <tr height=300>
    <td width=300 height=300><img src=""static/images/cards/back_of_black_moons.svg"" width=""175px"" height=""250px""></img></td>
    <td width=300 height=300><img src=""static/images/cards/back_of_black_moons.svg"" width=""175px"" height=""250px""></img></td>
  </tr>
  <tr height=200>
    <td width=300><img src=""static/images/keys/z.svg"" width=""35%"" height=""75%""></img></td>
    <td width=300></td>
  </tr>
</table>
  ",90.0,1.0,,,,,,,,,,,,,,,,,,,,,,,,,,
