,index,success,trial_type,trial_index,time_elapsed,internal_node_id,subject,date,prol_id,ctbl,sense_of_control_A,sense_of_control_B,sense_of_control_C,sense_of_control_D,age,gender,rt,url,stimulus,key_press,npress,is_data_trial,phase,trial,deck1,deck2,col1,col2,sym1,sym2,deck_l,deck_r,chosen_deck,chosen_col,chosen_sym,deck_rt,choose_choice,mutual_info,hidden_key,chosen_card,card_rt,player_num,win_card,outcome,mock_rating,response,responses
0,0,1.0,fullscreen,0,4113,0.0-0.0,b02kswwu8zn,2022-09-19 14:52:50.643,5fea7e34e1506a5df25419ec,3,51,51,52,51,37,female,,,,,,,,,,,,,,,,,,,,,,,,,,,,,,,
1,0,,external-html,1,7821,0.0-1.0,b02kswwu8zn,2022-09-19 14:52:50.643,5fea7e34e1506a5df25419ec,3,51,51,52,51,37,female,3643.6999999881,static/js/sub/consent.html,,,,,,,,,,,,,,,,,,,,,,,,,,,,,
2,0,,call-function,2,7822,0.0-2.0,b02kswwu8zn,2022-09-19 14:52:50.643,5fea7e34e1506a5df25419ec,3,51,51,52,51,37,female,,,,,,,,,,,,,,,,,,,,,,,,,,,,,,,
3,0,,image-keyboard-response,3,11865,0.0-3.0-0.0,b02kswwu8zn,2022-09-19 14:52:50.643,5fea7e34e1506a5df25419ec,3,51,51,52,51,37,female,4041.6999999881,,static/images/instructions_CB_3/Slide1.png,39.0,,,,,,,,,,,,,,,,,,,,,,,,,,,
4,0,,image-keyboard-response,4,18135,0.0-3.1-0.1,b02kswwu8zn,2022-09-19 14:52:50.643,5fea7e34e1506a5df25419ec,3,51,51,52,51,37,female,6267.7999999523,,static/images/instructions_CB_3/Slide2.png,39.0,,,,,,,,,,,,,,,,,,,,,,,,,,,
5,0,,image-keyboard-response,5,21181,0.0-3.2-0.2,b02kswwu8zn,2022-09-19 14:52:50.643,5fea7e34e1506a5df25419ec,3,51,51,52,51,37,female,3045.8999999762,,static/images/instructions_CB_3/Slide3.png,39.0,,,,,,,,,,,,,,,,,,,,,,,,,,,
6,0,,image-keyboard-response,6,25807,0.0-3.3-0.3,b02kswwu8zn,2022-09-19 14:52:50.643,5fea7e34e1506a5df25419ec,3,51,51,52,51,37,female,4625.0,,static/images/instructions_CB_3/Slide4.png,39.0,,,,,,,,,,,,,,,,,,,,,,,,,,,
7,0,,image-keyboard-response,7,31417,0.0-3.4-0.4,b02kswwu8zn,2022-09-19 14:52:50.643,5fea7e34e1506a5df25419ec,3,51,51,52,51,37,female,5608.2000000477,,static/images/instructions_CB_3/Slide5.png,39.0,,,,,,,,,,,,,,,,,,,,,,,,,,,
8,0,,image-keyboard-response,8,33148,0.0-3.5-0.5,b02kswwu8zn,2022-09-19 14:52:50.643,5fea7e34e1506a5df25419ec,3,51,51,52,51,37,female,1730.9000000358,,static/images/instructions_CB_3/Slide6.png,39.0,,,,,,,,,,,,,,,,,,,,,,,,,,,
9,0,,image-keyboard-response,9,36434,0.0-3.6-0.6,b02kswwu8zn,2022-09-19 14:52:50.643,5fea7e34e1506a5df25419ec,3,51,51,52,51,37,female,3285.5,,static/images/instructions_CB_3/Slide7.png,39.0,,,,,,,,,,,,,,,,,,,,,,,,,,,
10,0,,image-keyboard-response,10,48343,0.0-3.7-0.7,b02kswwu8zn,2022-09-19 14:52:50.643,5fea7e34e1506a5df25419ec,3,51,51,52,51,37,female,11907.6000000238,,static/images/instructions_CB_3/Slide8.png,39.0,,,,,,,,,,,,,,,,,,,,,,,,,,,
11,0,,image-keyboard-response,11,52919,0.0-3.8-0.8,b02kswwu8zn,2022-09-19 14:52:50.643,5fea7e34e1506a5df25419ec,3,51,51,52,51,37,female,4575.1000000238,,static/images/instructions_CB_3/Slide9.png,39.0,,,,,,,,,,,,,,,,,,,,,,,,,,,
12,0,,image-keyboard-response,12,58053,0.0-3.9-0.9,b02kswwu8zn,2022-09-19 14:52:50.643,5fea7e34e1506a5df25419ec,3,51,51,52,51,37,female,5131.8000000119,,static/images/instructions_CB_3/Slide10.png,39.0,,,,,,,,,,,,,,,,,,,,,,,,,,,
13,0,,image-keyboard-response,13,61061,0.0-3.10-0.10,b02kswwu8zn,2022-09-19 14:52:50.643,5fea7e34e1506a5df25419ec,3,51,51,52,51,37,female,3006.1999999881,,static/images/instructions_CB_3/Slide11.png,39.0,,,,,,,,,,,,,,,,,,,,,,,,,,,
14,0,,image-keyboard-response,14,68696,0.0-3.11-0.11,b02kswwu8zn,2022-09-19 14:52:50.643,5fea7e34e1506a5df25419ec,3,51,51,52,51,37,female,7633.8000000119,,static/images/instructions_CB_3/Slide12.png,39.0,,,,,,,,,,,,,,,,,,,,,,,,,,,
15,0,,image-keyboard-response,15,78734,0.0-3.12-0.12,b02kswwu8zn,2022-09-19 14:52:50.643,5fea7e34e1506a5df25419ec,3,51,51,52,51,37,female,10036.5,,static/images/instructions_CB_3/Slide13.png,39.0,,,,,,,,,,,,,,,,,,,,,,,,,,,
16,0,,image-keyboard-response,16,83677,0.0-3.13-0.13,b02kswwu8zn,2022-09-19 14:52:50.643,5fea7e34e1506a5df25419ec,3,51,51,52,51,37,female,4941.8000000119,,static/images/instructions_CB_3/Slide14.png,39.0,,,,,,,,,,,,,,,,,,,,,,,,,,,
17,0,,image-keyboard-response,17,88322,0.0-3.14-0.14,b02kswwu8zn,2022-09-19 14:52:50.643,5fea7e34e1506a5df25419ec,3,51,51,52,51,37,female,4644.2000000477,,static/images/instructions_CB_3/Slide15.png,39.0,,,,,,,,,,,,,,,,,,,,,,,,,,,
18,0,,image-keyboard-response,18,90819,0.0-3.15-0.15,b02kswwu8zn,2022-09-19 14:52:50.643,5fea7e34e1506a5df25419ec,3,51,51,52,51,37,female,2494.6999999881,,static/images/instructions_CB_3/Slide16.png,39.0,,,,,,,,,,,,,,,,,,,,,,,,,,,
19,0,,image-keyboard-response,19,100214,0.0-3.16-0.16,b02kswwu8zn,2022-09-19 14:52:50.643,5fea7e34e1506a5df25419ec,3,51,51,52,51,37,female,9394.0999999642,,static/images/instructions_CB_3/Slide17.png,39.0,,,,,,,,,,,,,,,,,,,,,,,,,,,
20,0,,image-keyboard-response,20,118975,0.0-3.17-0.17,b02kswwu8zn,2022-09-19 14:52:50.643,5fea7e34e1506a5df25419ec,3,51,51,52,51,37,female,18759.0,,static/images/instructions_CB_3/Slide18.png,39.0,,,,,,,,,,,,,,,,,,,,,,,,,,,
21,0,,image-keyboard-response,21,126943,0.0-3.18-0.18,b02kswwu8zn,2022-09-19 14:52:50.643,5fea7e34e1506a5df25419ec,3,51,51,52,51,37,female,7967.5999999642,,static/images/instructions_CB_3/Slide19.png,39.0,,,,,,,,,,,,,,,,,,,,,,,,,,,
22,0,,html-keyboard-response,22,128447,0.0-4.0-0.0,b02kswwu8zn,2022-09-19 14:52:50.643,5fea7e34e1506a5df25419ec,3,51,51,52,51,37,female,,,"<img src=""static/images/cards/stack_of_black_moons.svg"" width=""175px"" height=""250px""></img>",,,,,,,,,,,,,,,,,,,,,,,,,,,,
23,0,,html-keyboard-response,23,130937,0.0-4.0-1.0,b02kswwu8zn,2022-09-19 14:52:50.643,5fea7e34e1506a5df25419ec,3,51,51,52,51,37,female,1971.0,,"
  <table>
  <tr height=300>
    <td width=300 height=300><img src=""static/images/cards/back_of_black_moons.svg"" width=""175px"" height=""250px""></img></td>
    <td width=300 height=300><img src=""static/images/cards/back_of_black_moons.svg"" width=""175px"" height=""250px""></img></td>
  </tr>
  <tr height=200>
    <td width=300><img src=""static/images/keys/z.svg"" width=""35%"" height=""75%""></img></td>
    <td width=300><img src=""static/images/keys/m.svg"" width=""35%"" height=""75%""></img></td>
  </tr>
</table>
  ",77.0,1.0,,,,,,,,,,,,,,,,,,,,,,,,,,
24,0,,html-keyboard-response,24,132446,0.0-4.0-2.0,b02kswwu8zn,2022-09-19 14:52:50.643,5fea7e34e1506a5df25419ec,3,51,51,52,51,37,female,,,"
  <table>
  <tr height=300>
    <td width=300 height=300><img src=""static/images/cards/back_of_black_moons.svg"" width=""175px"" height=""250px""></img></td>
    <td width=300 height=300><img src=""static/images/cards/1_of_black_moons.svg"" width=""175px"" height=""250px""></img></td>
  </tr>
  <tr height=200>
    <td width=300><img src=""static/images/keys/z.svg"" width=""35%"" height=""75%""></img></td>
    <td width=300><img src=""static/images/keys/m.svg"" width=""35%"" height=""75%""></img></td>
  </tr>
</table>
  ",,,,,,,,,,,,,,,,,,,,,,,,,,,,
25,0,,html-keyboard-response,25,133953,0.0-4.0-3.0,b02kswwu8zn,2022-09-19 14:52:50.643,5fea7e34e1506a5df25419ec,3,51,51,52,51,37,female,,,"<p style=""font-size:50px"">You Lose!
No points this round.</p>",,,,,,,,,,,,,,,,,,,,,,,,,,,,
26,0,,html-keyboard-response,26,134469,0.0-4.0-4.0,b02kswwu8zn,2022-09-19 14:52:50.643,5fea7e34e1506a5df25419ec,3,51,51,52,51,37,female,,,,,,1.0,learning,0.0,A,,black,,moons,,,,A,black,moons,,1.0,1.0,NA,right,1971.0,1.0,0.0,0.0,,,
27,0,,html-keyboard-response,27,135975,0.0-4.1-0.1,b02kswwu8zn,2022-09-19 14:52:50.643,5fea7e34e1506a5df25419ec,3,51,51,52,51,37,female,,,"<img src=""static/images/cards/stack_of_red_moons.svg"" width=""175px"" height=""250px""></img>",,,,,,,,,,,,,,,,,,,,,,,,,,,,
28,0,,html-keyboard-response,28,137155,0.0-4.1-1.1,b02kswwu8zn,2022-09-19 14:52:50.643,5fea7e34e1506a5df25419ec,3,51,51,52,51,37,female,672.1999999881,,"
  <table>
  <tr height=300>
    <td width=300 height=300><img src=""static/images/cards/back_of_red_moons.svg"" width=""175px"" height=""250px""></img></td>
    <td width=300 height=300><img src=""static/images/cards/back_of_red_moons.svg"" width=""175px"" height=""250px""></img></td>
  </tr>
  <tr height=200>
    <td width=300></td>
    <td width=300><img src=""static/images/keys/m.svg"" width=""35%"" height=""75%""></img></td>
  </tr>
</table>
  ",77.0,1.0,,,,,,,,,,,,,,,,,,,,,,,,,,
29,0,,html-keyboard-response,29,138671,0.0-4.1-2.1,b02kswwu8zn,2022-09-19 14:52:50.643,5fea7e34e1506a5df25419ec,3,51,51,52,51,37,female,,,"
  <table>
  <tr height=300>
    <td width=300 height=300><img src=""static/images/cards/back_of_red_moons.svg"" width=""175px"" height=""250px""></img></td>
    <td width=300 height=300><img src=""static/images/cards/8_of_red_moons.svg"" width=""175px"" height=""250px""></img></td>
  </tr>
  <tr height=200>
    <td width=300></td>
    <td width=300><img src=""static/images/keys/m.svg"" width=""35%"" height=""75%""></img></td>
  </tr>
</table>
  ",,,,,,,,,,,,,,,,,,,,,,,,,,,,
30,0,,html-keyboard-response,30,140182,0.0-4.1-3.1,b02kswwu8zn,2022-09-19 14:52:50.643,5fea7e34e1506a5df25419ec,3,51,51,52,51,37,female,,,"<p style=""font-size:50px"">You win!
+10 points this round!</p>",,,,,,,,,,,,,,,,,,,,,,,,,,,,
31,0,,html-keyboard-response,31,140689,0.0-4.1-4.1,b02kswwu8zn,2022-09-19 14:52:50.643,5fea7e34e1506a5df25419ec,3,51,51,52,51,37,female,,,,,,1.0,learning,1.0,B,,red,,moons,,,,B,red,moons,,0.0,1.0,0,right,672.1999999881,8.0,1.0,1.0,,,
32,0,,html-keyboard-response,32,142197,0.0-4.2-0.2,b02kswwu8zn,2022-09-19 14:52:50.643,5fea7e34e1506a5df25419ec,3,51,51,52,51,37,female,,,"<img src=""static/images/cards/stack_of_black_stars.svg"" width=""175px"" height=""250px""></img>",,,,,,,,,,,,,,,,,,,,,,,,,,,,
33,0,,html-keyboard-response,33,143868,0.0-4.2-1.2,b02kswwu8zn,2022-09-19 14:52:50.643,5fea7e34e1506a5df25419ec,3,51,51,52,51,37,female,1165.1000000238,,"
  <table>
  <tr height=300>
    <td width=300 height=300><img src=""static/images/cards/back_of_black_stars.svg"" width=""175px"" height=""250px""></img></td>
    <td width=300 height=300><img src=""static/images/cards/back_of_black_stars.svg"" width=""175px"" height=""250px""></img></td>
  </tr>
  <tr height=200>
    <td width=300><img src=""static/images/keys/z.svg"" width=""35%"" height=""75%""></img></td>
    <td width=300><img src=""static/images/keys/m.svg"" width=""35%"" height=""75%""></img></td>
  </tr>
</table>
  ",90.0,1.0,,,,,,,,,,,,,,,,,,,,,,,,,,
34,0,,html-keyboard-response,34,145378,0.0-4.2-2.2,b02kswwu8zn,2022-09-19 14:52:50.643,5fea7e34e1506a5df25419ec,3,51,51,52,51,37,female,,,"
  <table>
  <tr height=300>
    <td width=300 height=300><img src=""static/images/cards/1_of_black_stars.svg"" width=""175px"" height=""250px""></img></td>
    <td width=300 height=300><img src=""static/images/cards/back_of_black_stars.svg"" width=""175px"" height=""250px""></img></td>
  </tr>
  <tr height=200>
    <td width=300><img src=""static/images/keys/z.svg"" width=""35%"" height=""75%""></img></td>
    <td width=300><img src=""static/images/keys/m.svg"" width=""35%"" height=""75%""></img></td>
  </tr>
</table>
  ",,,,,,,,,,,,,,,,,,,,,,,,,,,,
35,0,,html-keyboard-response,35,146885,0.0-4.2-3.2,b02kswwu8zn,2022-09-19 14:52:50.643,5fea7e34e1506a5df25419ec,3,51,51,52,51,37,female,,,"<p style=""font-size:50px"">You win!
+10 points this round!</p>",,,,,,,,,,,,,,,,,,,,,,,,,,,,
36,0,,html-keyboard-response,36,147394,0.0-4.2-4.2,b02kswwu8zn,2022-09-19 14:52:50.643,5fea7e34e1506a5df25419ec,3,51,51,52,51,37,female,,,,,,1.0,learning,2.0,C,,black,,stars,,,,C,black,stars,,1.0,0.0,NA,left,1165.1000000238,1.0,0.0,1.0,,,
37,0,,html-keyboard-response,37,148907,0.0-4.3-0.3,b02kswwu8zn,2022-09-19 14:52:50.643,5fea7e34e1506a5df25419ec,3,51,51,52,51,37,female,,,"<img src=""static/images/cards/stack_of_red_stars.svg"" width=""175px"" height=""250px""></img>",,,,,,,,,,,,,,,,,,,,,,,,,,,,
38,0,,html-keyboard-response,38,150483,0.0-4.3-1.3,b02kswwu8zn,2022-09-19 14:52:50.643,5fea7e34e1506a5df25419ec,3,51,51,52,51,37,female,1070.8999999762,,"
  <table>
  <tr height=300>
    <td width=300 height=300><img src=""static/images/cards/back_of_red_stars.svg"" width=""175px"" height=""250px""></img></td>
    <td width=300 height=300><img src=""static/images/cards/back_of_red_stars.svg"" width=""175px"" height=""250px""></img></td>
  </tr>
  <tr height=200>
    <td width=300><img src=""static/images/keys/z.svg"" width=""35%"" height=""75%""></img></td>
    <td width=300></td>
  </tr>
</table>
  ",90.0,1.0,,,,,,,,,,,,,,,,,,,,,,,,,,
39,0,,html-keyboard-response,39,151997,0.0-4.3-2.3,b02kswwu8zn,2022-09-19 14:52:50.643,5fea7e34e1506a5df25419ec,3,51,51,52,51,37,female,,,"
  <table>
  <tr height=300>
    <td width=300 height=300><img src=""static/images/cards/4_of_red_stars.svg"" width=""175px"" height=""250px""></img></td>
    <td width=300 height=300><img src=""static/images/cards/back_of_red_stars.svg"" width=""175px"" height=""250px""></img></td>
  </tr>
  <tr height=200>
    <td width=300><img src=""static/images/keys/z.svg"" width=""35%"" height=""75%""></img></td>
    <td width=300></td>
  </tr>
</table>
  ",,,,,,,,,,,,,,,,,,,,,,,,,,,,
40,0,,html-keyboard-response,40,153505,0.0-4.3-3.3,b02kswwu8zn,2022-09-19 14:52:50.643,5fea7e34e1506a5df25419ec,3,51,51,52,51,37,female,,,"<p style=""font-size:50px"">You Lose!
No points this round.</p>",,,,,,,,,,,,,,,,,,,,,,,,,,,,
41,0,,html-keyboard-response,41,154013,0.0-4.3-4.3,b02kswwu8zn,2022-09-19 14:52:50.643,5fea7e34e1506a5df25419ec,3,51,51,52,51,37,female,,,,,,1.0,learning,3.0,D,,red,,stars,,,,D,red,stars,,0.0,0.0,1,left,1070.8999999762,4.0,0.0,0.0,,,
42,0,,html-keyboard-response,42,155526,0.0-4.4-0.4,b02kswwu8zn,2022-09-19 14:52:50.643,5fea7e34e1506a5df25419ec,3,51,51,52,51,37,female,,,"<img src=""static/images/cards/stack_of_red_bolts.svg"" width=""175px"" height=""250px""></img>",,,,,,,,,,,,,,,,,,,,,,,,,,,,
43,0,,html-keyboard-response,43,156598,0.0-4.4-1.4,b02kswwu8zn,2022-09-19 14:52:50.643,5fea7e34e1506a5df25419ec,3,51,51,52,51,37,female,564.2000000477,,"
  <table>
  <tr height=300>
    <td width=300 height=300><img src=""static/images/cards/back_of_red_bolts.svg"" width=""175px"" height=""250px""></img></td>
    <td width=300 height=300><img src=""static/images/cards/back_of_red_bolts.svg"" width=""175px"" height=""250px""></img></td>
  </tr>
  <tr height=200>
    <td width=300><img src=""static/images/keys/z.svg"" width=""35%"" height=""75%""></img></td>
    <td width=300><img src=""static/images/keys/m.svg"" width=""35%"" height=""75%""></img></td>
  </tr>
</table>
  ",77.0,1.0,,,,,,,,,,,,,,,,,,,,,,,,,,
44,0,,html-keyboard-response,44,158100,0.0-4.4-2.4,b02kswwu8zn,2022-09-19 14:52:50.643,5fea7e34e1506a5df25419ec,3,51,51,52,51,37,female,,,"
  <table>
  <tr height=300>
    <td width=300 height=300><img src=""static/images/cards/back_of_red_bolts.svg"" width=""175px"" height=""250px""></img></td>
    <td width=300 height=300><img src=""static/images/cards/10_of_red_bolts.svg"" width=""175px"" height=""250px""></img></td>
  </tr>
  <tr height=200>
    <td width=300><img src=""static/images/keys/z.svg"" width=""35%"" height=""75%""></img></td>
    <td width=300><img src=""static/images/keys/m.svg"" width=""35%"" height=""75%""></img></td>
  </tr>
</table>
  ",,,,,,,,,,,,,,,,,,,,,,,,,,,,
45,0,,html-keyboard-response,45,159604,0.0-4.4-3.4,b02kswwu8zn,2022-09-19 14:52:50.643,5fea7e34e1506a5df25419ec,3,51,51,52,51,37,female,,,"<p style=""font-size:50px"">You win!
+10 points this round!</p>",,,,,,,,,,,,,,,,,,,,,,,,,,,,
46,0,,html-keyboard-response,46,160110,0.0-4.4-4.4,b02kswwu8zn,2022-09-19 14:52:50.643,5fea7e34e1506a5df25419ec,3,51,51,52,51,37,female,,,,,,1.0,learning,4.0,Xc,,red,,bolts,,,,Xc,red,bolts,,1.0,0.0,NA,right,564.2000000477,10.0,1.0,1.0,,,
47,0,,html-keyboard-response,47,161611,0.0-4.5-0.5,b02kswwu8zn,2022-09-19 14:52:50.643,5fea7e34e1506a5df25419ec,3,51,51,52,51,37,female,,,"<img src=""static/images/cards/stack_of_black_bolts.svg"" width=""175px"" height=""250px""></img>",,,,,,,,,,,,,,,,,,,,,,,,,,,,
48,0,,html-keyboard-response,48,162957,0.0-4.5-1.5,b02kswwu8zn,2022-09-19 14:52:50.643,5fea7e34e1506a5df25419ec,3,51,51,52,51,37,female,841.5,,"
  <table>
  <tr height=300>
    <td width=300 height=300><img src=""static/images/cards/back_of_black_bolts.svg"" width=""175px"" height=""250px""></img></td>
    <td width=300 height=300><img src=""static/images/cards/back_of_black_bolts.svg"" width=""175px"" height=""250px""></img></td>
  </tr>
  <tr height=200>
    <td width=300><img src=""static/images/keys/z.svg"" width=""35%"" height=""75%""></img></td>
    <td width=300></td>
  </tr>
</table>
  ",90.0,1.0,,,,,,,,,,,,,,,,,,,,,,,,,,
49,0,,html-keyboard-response,49,164462,0.0-4.5-2.5,b02kswwu8zn,2022-09-19 14:52:50.643,5fea7e34e1506a5df25419ec,3,51,51,52,51,37,female,,,"
  <table>
  <tr height=300>
    <td width=300 height=300><img src=""static/images/cards/2_of_black_bolts.svg"" width=""175px"" height=""250px""></img></td>
    <td width=300 height=300><img src=""static/images/cards/back_of_black_bolts.svg"" width=""175px"" height=""250px""></img></td>
  </tr>
  <tr height=200>
    <td width=300><img src=""static/images/keys/z.svg"" width=""35%"" height=""75%""></img></td>
    <td width=300></td>
  </tr>
</table>
  ",,,,,,,,,,,,,,,,,,,,,,,,,,,,
50,0,,html-keyboard-response,50,165980,0.0-4.5-3.5,b02kswwu8zn,2022-09-19 14:52:50.643,5fea7e34e1506a5df25419ec,3,51,51,52,51,37,female,,,"<p style=""font-size:50px"">You win!
+10 points this round!</p>",,,,,,,,,,,,,,,,,,,,,,,,,,,,
51,0,,html-keyboard-response,51,166489,0.0-4.5-4.5,b02kswwu8zn,2022-09-19 14:52:50.643,5fea7e34e1506a5df25419ec,3,51,51,52,51,37,female,,,,,,1.0,learning,5.0,Xnc,,black,,bolts,,,,Xnc,black,bolts,,0.0,0.0,1,left,841.5,2.0,0.0,1.0,,,
52,0,,html-keyboard-response,52,168006,0.0-4.6-0.6,b02kswwu8zn,2022-09-19 14:52:50.643,5fea7e34e1506a5df25419ec,3,51,51,52,51,37,female,,,"<img src=""static/images/cards/stack_of_black_moons.svg"" width=""175px"" height=""250px""></img>",,,,,,,,,,,,,,,,,,,,,,,,,,,,
53,0,,html-keyboard-response,53,170679,0.0-4.6-1.6,b02kswwu8zn,2022-09-19 14:52:50.643,5fea7e34e1506a5df25419ec,3,51,51,52,51,37,female,2166.0999999642,,"
  <table>
  <tr height=300>
    <td width=300 height=300><img src=""static/images/cards/back_of_black_moons.svg"" width=""175px"" height=""250px""></img></td>
    <td width=300 height=300><img src=""static/images/cards/back_of_black_moons.svg"" width=""175px"" height=""250px""></img></td>
  </tr>
  <tr height=200>
    <td width=300><img src=""static/images/keys/z.svg"" width=""35%"" height=""75%""></img></td>
    <td width=300><img src=""static/images/keys/m.svg"" width=""35%"" height=""75%""></img></td>
  </tr>
</table>
  ",90.0,1.0,,,,,,,,,,,,,,,,,,,,,,,,,,
54,0,,html-keyboard-response,54,172190,0.0-4.6-2.6,b02kswwu8zn,2022-09-19 14:52:50.643,5fea7e34e1506a5df25419ec,3,51,51,52,51,37,female,,,"
  <table>
  <tr height=300>
    <td width=300 height=300><img src=""static/images/cards/1_of_black_moons.svg"" width=""175px"" height=""250px""></img></td>
    <td width=300 height=300><img src=""static/images/cards/back_of_black_moons.svg"" width=""175px"" height=""250px""></img></td>
  </tr>
  <tr height=200>
    <td width=300><img src=""static/images/keys/z.svg"" width=""35%"" height=""75%""></img></td>
    <td width=300><img src=""static/images/keys/m.svg"" width=""35%"" height=""75%""></img></td>
  </tr>
</table>
  ",,,,,,,,,,,,,,,,,,,,,,,,,,,,
55,0,,html-keyboard-response,55,173707,0.0-4.6-3.6,b02kswwu8zn,2022-09-19 14:52:50.643,5fea7e34e1506a5df25419ec,3,51,51,52,51,37,female,,,"<p style=""font-size:50px"">You Lose!
No points this round.</p>",,,,,,,,,,,,,,,,,,,,,,,,,,,,
56,0,,html-keyboard-response,56,174215,0.0-4.6-4.6,b02kswwu8zn,2022-09-19 14:52:50.643,5fea7e34e1506a5df25419ec,3,51,51,52,51,37,female,,,,,,1.0,learning,6.0,A,,black,,moons,,,,A,black,moons,,1.0,1.0,NA,left,2166.0999999642,1.0,0.0,0.0,,,
57,0,,html-keyboard-response,57,175717,0.0-4.7-0.7,b02kswwu8zn,2022-09-19 14:52:50.643,5fea7e34e1506a5df25419ec,3,51,51,52,51,37,female,,,"<img src=""static/images/cards/stack_of_red_moons.svg"" width=""175px"" height=""250px""></img>",,,,,,,,,,,,,,,,,,,,,,,,,,,,
58,0,,html-keyboard-response,58,176713,0.0-4.7-1.7,b02kswwu8zn,2022-09-19 14:52:50.643,5fea7e34e1506a5df25419ec,3,51,51,52,51,37,female,493.3999999762,,"
  <table>
  <tr height=300>
    <td width=300 height=300><img src=""static/images/cards/back_of_red_moons.svg"" width=""175px"" height=""250px""></img></td>
    <td width=300 height=300><img src=""static/images/cards/back_of_red_moons.svg"" width=""175px"" height=""250px""></img></td>
  </tr>
  <tr height=200>
    <td width=300></td>
    <td width=300><img src=""static/images/keys/m.svg"" width=""35%"" height=""75%""></img></td>
  </tr>
</table>
  ",77.0,1.0,,,,,,,,,,,,,,,,,,,,,,,,,,
59,0,,html-keyboard-response,59,178231,0.0-4.7-2.7,b02kswwu8zn,2022-09-19 14:52:50.643,5fea7e34e1506a5df25419ec,3,51,51,52,51,37,female,,,"
  <table>
  <tr height=300>
    <td width=300 height=300><img src=""static/images/cards/back_of_red_moons.svg"" width=""175px"" height=""250px""></img></td>
    <td width=300 height=300><img src=""static/images/cards/10_of_red_moons.svg"" width=""175px"" height=""250px""></img></td>
  </tr>
  <tr height=200>
    <td width=300></td>
    <td width=300><img src=""static/images/keys/m.svg"" width=""35%"" height=""75%""></img></td>
  </tr>
</table>
  ",,,,,,,,,,,,,,,,,,,,,,,,,,,,
60,0,,html-keyboard-response,60,179743,0.0-4.7-3.7,b02kswwu8zn,2022-09-19 14:52:50.643,5fea7e34e1506a5df25419ec,3,51,51,52,51,37,female,,,"<p style=""font-size:50px"">You win!
+10 points this round!</p>",,,,,,,,,,,,,,,,,,,,,,,,,,,,
61,0,,html-keyboard-response,61,180253,0.0-4.7-4.7,b02kswwu8zn,2022-09-19 14:52:50.643,5fea7e34e1506a5df25419ec,3,51,51,52,51,37,female,,,,,,1.0,learning,7.0,B,,red,,moons,,,,B,red,moons,,0.0,1.0,0,right,493.3999999762,10.0,1.0,1.0,,,
62,0,,html-keyboard-response,62,181763,0.0-4.8-0.8,b02kswwu8zn,2022-09-19 14:52:50.643,5fea7e34e1506a5df25419ec,3,51,51,52,51,37,female,,,"<img src=""static/images/cards/stack_of_black_stars.svg"" width=""175px"" height=""250px""></img>",,,,,,,,,,,,,,,,,,,,,,,,,,,,
63,0,,html-keyboard-response,63,182873,0.0-4.8-1.8,b02kswwu8zn,2022-09-19 14:52:50.643,5fea7e34e1506a5df25419ec,3,51,51,52,51,37,female,604.3000000119,,"
  <table>
  <tr height=300>
    <td width=300 height=300><img src=""static/images/cards/back_of_black_stars.svg"" width=""175px"" height=""250px""></img></td>
    <td width=300 height=300><img src=""static/images/cards/back_of_black_stars.svg"" width=""175px"" height=""250px""></img></td>
  </tr>
  <tr height=200>
    <td width=300><img src=""static/images/keys/z.svg"" width=""35%"" height=""75%""></img></td>
    <td width=300><img src=""static/images/keys/m.svg"" width=""35%"" height=""75%""></img></td>
  </tr>
</table>
  ",77.0,1.0,,,,,,,,,,,,,,,,,,,,,,,,,,
64,0,,html-keyboard-response,64,184376,0.0-4.8-2.8,b02kswwu8zn,2022-09-19 14:52:50.643,5fea7e34e1506a5df25419ec,3,51,51,52,51,37,female,,,"
  <table>
  <tr height=300>
    <td width=300 height=300><img src=""static/images/cards/back_of_black_stars.svg"" width=""175px"" height=""250px""></img></td>
    <td width=300 height=300><img src=""static/images/cards/9_of_black_stars.svg"" width=""175px"" height=""250px""></img></td>
  </tr>
  <tr height=200>
    <td width=300><img src=""static/images/keys/z.svg"" width=""35%"" height=""75%""></img></td>
    <td width=300><img src=""static/images/keys/m.svg"" width=""35%"" height=""75%""></img></td>
  </tr>
</table>
  ",,,,,,,,,,,,,,,,,,,,,,,,,,,,
65,0,,html-keyboard-response,65,185887,0.0-4.8-3.8,b02kswwu8zn,2022-09-19 14:52:50.643,5fea7e34e1506a5df25419ec,3,51,51,52,51,37,female,,,"<p style=""font-size:50px"">You Lose!
No points this round.</p>",,,,,,,,,,,,,,,,,,,,,,,,,,,,
66,0,,html-keyboard-response,66,186396,0.0-4.8-4.8,b02kswwu8zn,2022-09-19 14:52:50.643,5fea7e34e1506a5df25419ec,3,51,51,52,51,37,female,,,,,,1.0,learning,8.0,C,,black,,stars,,,,C,black,stars,,1.0,0.0,NA,right,604.3000000119,9.0,1.0,0.0,,,
67,0,,html-keyboard-response,67,187904,0.0-4.9-0.9,b02kswwu8zn,2022-09-19 14:52:50.643,5fea7e34e1506a5df25419ec,3,51,51,52,51,37,female,,,"<img src=""static/images/cards/stack_of_red_stars.svg"" width=""175px"" height=""250px""></img>",,,,,,,,,,,,,,,,,,,,,,,,,,,,
68,0,,html-keyboard-response,68,189107,0.0-4.9-1.9,b02kswwu8zn,2022-09-19 14:52:50.643,5fea7e34e1506a5df25419ec,3,51,51,52,51,37,female,697.5999999642,,"
  <table>
  <tr height=300>
    <td width=300 height=300><img src=""static/images/cards/back_of_red_stars.svg"" width=""175px"" height=""250px""></img></td>
    <td width=300 height=300><img src=""static/images/cards/back_of_red_stars.svg"" width=""175px"" height=""250px""></img></td>
  </tr>
  <tr height=200>
    <td width=300></td>
    <td width=300><img src=""static/images/keys/m.svg"" width=""35%"" height=""75%""></img></td>
  </tr>
</table>
  ",77.0,1.0,,,,,,,,,,,,,,,,,,,,,,,,,,
69,0,,html-keyboard-response,69,190609,0.0-4.9-2.9,b02kswwu8zn,2022-09-19 14:52:50.643,5fea7e34e1506a5df25419ec,3,51,51,52,51,37,female,,,"
  <table>
  <tr height=300>
    <td width=300 height=300><img src=""static/images/cards/back_of_red_stars.svg"" width=""175px"" height=""250px""></img></td>
    <td width=300 height=300><img src=""static/images/cards/10_of_red_stars.svg"" width=""175px"" height=""250px""></img></td>
  </tr>
  <tr height=200>
    <td width=300></td>
    <td width=300><img src=""static/images/keys/m.svg"" width=""35%"" height=""75%""></img></td>
  </tr>
</table>
  ",,,,,,,,,,,,,,,,,,,,,,,,,,,,
70,0,,html-keyboard-response,70,192112,0.0-4.9-3.9,b02kswwu8zn,2022-09-19 14:52:50.643,5fea7e34e1506a5df25419ec,3,51,51,52,51,37,female,,,"<p style=""font-size:50px"">You win!
+10 points this round!</p>",,,,,,,,,,,,,,,,,,,,,,,,,,,,
71,0,,html-keyboard-response,71,192632,0.0-4.9-4.9,b02kswwu8zn,2022-09-19 14:52:50.643,5fea7e34e1506a5df25419ec,3,51,51,52,51,37,female,,,,,,1.0,learning,9.0,D,,red,,stars,,,,D,red,stars,,0.0,0.0,0,right,697.5999999642,10.0,1.0,1.0,,,
72,0,,html-keyboard-response,72,194137,0.0-4.10-0.10,b02kswwu8zn,2022-09-19 14:52:50.643,5fea7e34e1506a5df25419ec,3,51,51,52,51,37,female,,,"<img src=""static/images/cards/stack_of_red_bolts.svg"" width=""175px"" height=""250px""></img>",,,,,,,,,,,,,,,,,,,,,,,,,,,,
73,0,,html-keyboard-response,73,195167,0.0-4.10-1.10,b02kswwu8zn,2022-09-19 14:52:50.643,5fea7e34e1506a5df25419ec,3,51,51,52,51,37,female,525.7999999523,,"
  <table>
  <tr height=300>
    <td width=300 height=300><img src=""static/images/cards/back_of_red_bolts.svg"" width=""175px"" height=""250px""></img></td>
    <td width=300 height=300><img src=""static/images/cards/back_of_red_bolts.svg"" width=""175px"" height=""250px""></img></td>
  </tr>
  <tr height=200>
    <td width=300><img src=""static/images/keys/z.svg"" width=""35%"" height=""75%""></img></td>
    <td width=300><img src=""static/images/keys/m.svg"" width=""35%"" height=""75%""></img></td>
  </tr>
</table>
  ",77.0,1.0,,,,,,,,,,,,,,,,,,,,,,,,,,
74,0,,html-keyboard-response,74,196674,0.0-4.10-2.10,b02kswwu8zn,2022-09-19 14:52:50.643,5fea7e34e1506a5df25419ec,3,51,51,52,51,37,female,,,"
  <table>
  <tr height=300>
    <td width=300 height=300><img src=""static/images/cards/back_of_red_bolts.svg"" width=""175px"" height=""250px""></img></td>
    <td width=300 height=300><img src=""static/images/cards/10_of_red_bolts.svg"" width=""175px"" height=""250px""></img></td>
  </tr>
  <tr height=200>
    <td width=300><img src=""static/images/keys/z.svg"" width=""35%"" height=""75%""></img></td>
    <td width=300><img src=""static/images/keys/m.svg"" width=""35%"" height=""75%""></img></td>
  </tr>
</table>
  ",,,,,,,,,,,,,,,,,,,,,,,,,,,,
75,0,,html-keyboard-response,75,198185,0.0-4.10-3.10,b02kswwu8zn,2022-09-19 14:52:50.643,5fea7e34e1506a5df25419ec,3,51,51,52,51,37,female,,,"<p style=""font-size:50px"">You win!
+10 points this round!</p>",,,,,,,,,,,,,,,,,,,,,,,,,,,,
76,0,,html-keyboard-response,76,198705,0.0-4.10-4.10,b02kswwu8zn,2022-09-19 14:52:50.643,5fea7e34e1506a5df25419ec,3,51,51,52,51,37,female,,,,,,1.0,learning,10.0,Xc,,red,,bolts,,,,Xc,red,bolts,,1.0,0.0,NA,right,525.7999999523,10.0,1.0,1.0,,,
77,0,,html-keyboard-response,77,200208,0.0-4.11-0.11,b02kswwu8zn,2022-09-19 14:52:50.643,5fea7e34e1506a5df25419ec,3,51,51,52,51,37,female,,,"<img src=""static/images/cards/stack_of_black_bolts.svg"" width=""175px"" height=""250px""></img>",,,,,,,,,,,,,,,,,,,,,,,,,,,,
78,0,,html-keyboard-response,78,201347,0.0-4.11-1.11,b02kswwu8zn,2022-09-19 14:52:50.643,5fea7e34e1506a5df25419ec,3,51,51,52,51,37,female,637.6999999881,,"
  <table>
  <tr height=300>
    <td width=300 height=300><img src=""static/images/cards/back_of_black_bolts.svg"" width=""175px"" height=""250px""></img></td>
    <td width=300 height=300><img src=""static/images/cards/back_of_black_bolts.svg"" width=""175px"" height=""250px""></img></td>
  </tr>
  <tr height=200>
    <td width=300><img src=""static/images/keys/z.svg"" width=""35%"" height=""75%""></img></td>
    <td width=300></td>
  </tr>
</table>
  ",90.0,1.0,,,,,,,,,,,,,,,,,,,,,,,,,,
79,0,,html-keyboard-response,79,202864,0.0-4.11-2.11,b02kswwu8zn,2022-09-19 14:52:50.643,5fea7e34e1506a5df25419ec,3,51,51,52,51,37,female,,,"
  <table>
  <tr height=300>
    <td width=300 height=300><img src=""static/images/cards/6_of_black_bolts.svg"" width=""175px"" height=""250px""></img></td>
    <td width=300 height=300><img src=""static/images/cards/back_of_black_bolts.svg"" width=""175px"" height=""250px""></img></td>
  </tr>
  <tr height=200>
    <td width=300><img src=""static/images/keys/z.svg"" width=""35%"" height=""75%""></img></td>
    <td width=300></td>
  </tr>
</table>
  ",,,,,,,,,,,,,,,,,,,,,,,,,,,,
80,0,,html-keyboard-response,80,204381,0.0-4.11-3.11,b02kswwu8zn,2022-09-19 14:52:50.643,5fea7e34e1506a5df25419ec,3,51,51,52,51,37,female,,,"<p style=""font-size:50px"">You win!
+10 points this round!</p>",,,,,,,,,,,,,,,,,,,,,,,,,,,,
81,0,,html-keyboard-response,81,204892,0.0-4.11-4.11,b02kswwu8zn,2022-09-19 14:52:50.643,5fea7e34e1506a5df25419ec,3,51,51,52,51,37,female,,,,,,1.0,learning,11.0,Xnc,,black,,bolts,,,,Xnc,black,bolts,,0.0,0.0,1,left,637.6999999881,6.0,1.0,1.0,,,
82,0,,html-keyboard-response,82,206399,0.0-4.12-0.12,b02kswwu8zn,2022-09-19 14:52:50.643,5fea7e34e1506a5df25419ec,3,51,51,52,51,37,female,,,"<img src=""static/images/cards/stack_of_black_moons.svg"" width=""175px"" height=""250px""></img>",,,,,,,,,,,,,,,,,,,,,,,,,,,,
83,0,,html-keyboard-response,83,207738,0.0-4.12-1.12,b02kswwu8zn,2022-09-19 14:52:50.643,5fea7e34e1506a5df25419ec,3,51,51,52,51,37,female,834.5,,"
  <table>
  <tr height=300>
    <td width=300 height=300><img src=""static/images/cards/back_of_black_moons.svg"" width=""175px"" height=""250px""></img></td>
    <td width=300 height=300><img src=""static/images/cards/back_of_black_moons.svg"" width=""175px"" height=""250px""></img></td>
  </tr>
  <tr height=200>
    <td width=300><img src=""static/images/keys/z.svg"" width=""35%"" height=""75%""></img></td>
    <td width=300><img src=""static/images/keys/m.svg"" width=""35%"" height=""75%""></img></td>
  </tr>
</table>
  ",77.0,1.0,,,,,,,,,,,,,,,,,,,,,,,,,,
84,0,,html-keyboard-response,84,209251,0.0-4.12-2.12,b02kswwu8zn,2022-09-19 14:52:50.643,5fea7e34e1506a5df25419ec,3,51,51,52,51,37,female,,,"
  <table>
  <tr height=300>
    <td width=300 height=300><img src=""static/images/cards/back_of_black_moons.svg"" width=""175px"" height=""250px""></img></td>
    <td width=300 height=300><img src=""static/images/cards/9_of_black_moons.svg"" width=""175px"" height=""250px""></img></td>
  </tr>
  <tr height=200>
    <td width=300><img src=""static/images/keys/z.svg"" width=""35%"" height=""75%""></img></td>
    <td width=300><img src=""static/images/keys/m.svg"" width=""35%"" height=""75%""></img></td>
  </tr>
</table>
  ",,,,,,,,,,,,,,,,,,,,,,,,,,,,
85,0,,html-keyboard-response,85,210766,0.0-4.12-3.12,b02kswwu8zn,2022-09-19 14:52:50.643,5fea7e34e1506a5df25419ec,3,51,51,52,51,37,female,,,"<p style=""font-size:50px"">You win!
+10 points this round!</p>",,,,,,,,,,,,,,,,,,,,,,,,,,,,
86,0,,html-keyboard-response,86,211278,0.0-4.12-4.12,b02kswwu8zn,2022-09-19 14:52:50.643,5fea7e34e1506a5df25419ec,3,51,51,52,51,37,female,,,,,,1.0,learning,12.0,A,,black,,moons,,,,A,black,moons,,1.0,1.0,NA,right,834.5,9.0,1.0,1.0,,,
87,0,,html-keyboard-response,87,212786,0.0-4.13-0.13,b02kswwu8zn,2022-09-19 14:52:50.643,5fea7e34e1506a5df25419ec,3,51,51,52,51,37,female,,,"<img src=""static/images/cards/stack_of_red_moons.svg"" width=""175px"" height=""250px""></img>",,,,,,,,,,,,,,,,,,,,,,,,,,,,
88,0,,html-keyboard-response,88,213808,0.0-4.13-1.13,b02kswwu8zn,2022-09-19 14:52:50.643,5fea7e34e1506a5df25419ec,3,51,51,52,51,37,female,517.4000000358,,"
  <table>
  <tr height=300>
    <td width=300 height=300><img src=""static/images/cards/back_of_red_moons.svg"" width=""175px"" height=""250px""></img></td>
    <td width=300 height=300><img src=""static/images/cards/back_of_red_moons.svg"" width=""175px"" height=""250px""></img></td>
  </tr>
  <tr height=200>
    <td width=300></td>
    <td width=300><img src=""static/images/keys/m.svg"" width=""35%"" height=""75%""></img></td>
  </tr>
</table>
  ",77.0,1.0,,,,,,,,,,,,,,,,,,,,,,,,,,
89,0,,html-keyboard-response,89,215320,0.0-4.13-2.13,b02kswwu8zn,2022-09-19 14:52:50.643,5fea7e34e1506a5df25419ec,3,51,51,52,51,37,female,,,"
  <table>
  <tr height=300>
    <td width=300 height=300><img src=""static/images/cards/back_of_red_moons.svg"" width=""175px"" height=""250px""></img></td>
    <td width=300 height=300><img src=""static/images/cards/3_of_red_moons.svg"" width=""175px"" height=""250px""></img></td>
  </tr>
  <tr height=200>
    <td width=300></td>
    <td width=300><img src=""static/images/keys/m.svg"" width=""35%"" height=""75%""></img></td>
  </tr>
</table>
  ",,,,,,,,,,,,,,,,,,,,,,,,,,,,
90,0,,html-keyboard-response,90,216834,0.0-4.13-3.13,b02kswwu8zn,2022-09-19 14:52:50.643,5fea7e34e1506a5df25419ec,3,51,51,52,51,37,female,,,"<p style=""font-size:50px"">You Lose!
No points this round.</p>",,,,,,,,,,,,,,,,,,,,,,,,,,,,
91,0,,html-keyboard-response,91,217342,0.0-4.13-4.13,b02kswwu8zn,2022-09-19 14:52:50.643,5fea7e34e1506a5df25419ec,3,51,51,52,51,37,female,,,,,,1.0,learning,13.0,B,,red,,moons,,,,B,red,moons,,0.0,1.0,0,right,517.4000000358,3.0,0.0,0.0,,,
92,0,,html-keyboard-response,92,218852,0.0-4.14-0.14,b02kswwu8zn,2022-09-19 14:52:50.643,5fea7e34e1506a5df25419ec,3,51,51,52,51,37,female,,,"<img src=""static/images/cards/stack_of_black_stars.svg"" width=""175px"" height=""250px""></img>",,,,,,,,,,,,,,,,,,,,,,,,,,,,
93,0,,html-keyboard-response,93,220195,0.0-4.14-1.14,b02kswwu8zn,2022-09-19 14:52:50.643,5fea7e34e1506a5df25419ec,3,51,51,52,51,37,female,835.5999999642,,"
  <table>
  <tr height=300>
    <td width=300 height=300><img src=""static/images/cards/back_of_black_stars.svg"" width=""175px"" height=""250px""></img></td>
    <td width=300 height=300><img src=""static/images/cards/back_of_black_stars.svg"" width=""175px"" height=""250px""></img></td>
  </tr>
  <tr height=200>
    <td width=300><img src=""static/images/keys/z.svg"" width=""35%"" height=""75%""></img></td>
    <td width=300><img src=""static/images/keys/m.svg"" width=""35%"" height=""75%""></img></td>
  </tr>
</table>
  ",77.0,1.0,,,,,,,,,,,,,,,,,,,,,,,,,,
94,0,,html-keyboard-response,94,221702,0.0-4.14-2.14,b02kswwu8zn,2022-09-19 14:52:50.643,5fea7e34e1506a5df25419ec,3,51,51,52,51,37,female,,,"
  <table>
  <tr height=300>
    <td width=300 height=300><img src=""static/images/cards/back_of_black_stars.svg"" width=""175px"" height=""250px""></img></td>
    <td width=300 height=300><img src=""static/images/cards/8_of_black_stars.svg"" width=""175px"" height=""250px""></img></td>
  </tr>
  <tr height=200>
    <td width=300><img src=""static/images/keys/z.svg"" width=""35%"" height=""75%""></img></td>
    <td width=300><img src=""static/images/keys/m.svg"" width=""35%"" height=""75%""></img></td>
  </tr>
</table>
  ",,,,,,,,,,,,,,,,,,,,,,,,,,,,
95,0,,html-keyboard-response,95,223208,0.0-4.14-3.14,b02kswwu8zn,2022-09-19 14:52:50.643,5fea7e34e1506a5df25419ec,3,51,51,52,51,37,female,,,"<p style=""font-size:50px"">You win!
+10 points this round!</p>",,,,,,,,,,,,,,,,,,,,,,,,,,,,
96,0,,html-keyboard-response,96,223716,0.0-4.14-4.14,b02kswwu8zn,2022-09-19 14:52:50.643,5fea7e34e1506a5df25419ec,3,51,51,52,51,37,female,,,,,,1.0,learning,14.0,C,,black,,stars,,,,C,black,stars,,1.0,0.0,NA,right,835.5999999642,8.0,1.0,1.0,,,
97,0,,html-keyboard-response,97,225222,0.0-4.15-0.15,b02kswwu8zn,2022-09-19 14:52:50.643,5fea7e34e1506a5df25419ec,3,51,51,52,51,37,female,,,"<img src=""static/images/cards/stack_of_red_stars.svg"" width=""175px"" height=""250px""></img>",,,,,,,,,,,,,,,,,,,,,,,,,,,,
98,0,,html-keyboard-response,98,226309,0.0-4.15-1.15,b02kswwu8zn,2022-09-19 14:52:50.643,5fea7e34e1506a5df25419ec,3,51,51,52,51,37,female,581.8000000119,,"
  <table>
  <tr height=300>
    <td width=300 height=300><img src=""static/images/cards/back_of_red_stars.svg"" width=""175px"" height=""250px""></img></td>
    <td width=300 height=300><img src=""static/images/cards/back_of_red_stars.svg"" width=""175px"" height=""250px""></img></td>
  </tr>
  <tr height=200>
    <td width=300><img src=""static/images/keys/z.svg"" width=""35%"" height=""75%""></img></td>
    <td width=300></td>
  </tr>
</table>
  ",90.0,1.0,,,,,,,,,,,,,,,,,,,,,,,,,,
99,0,,html-keyboard-response,99,227813,0.0-4.15-2.15,b02kswwu8zn,2022-09-19 14:52:50.643,5fea7e34e1506a5df25419ec,3,51,51,52,51,37,female,,,"
  <table>
  <tr height=300>
    <td width=300 height=300><img src=""static/images/cards/8_of_red_stars.svg"" width=""175px"" height=""250px""></img></td>
    <td width=300 height=300><img src=""static/images/cards/back_of_red_stars.svg"" width=""175px"" height=""250px""></img></td>
  </tr>
  <tr height=200>
    <td width=300><img src=""static/images/keys/z.svg"" width=""35%"" height=""75%""></img></td>
    <td width=300></td>
  </tr>
</table>
  ",,,,,,,,,,,,,,,,,,,,,,,,,,,,
100,0,,html-keyboard-response,100,229323,0.0-4.15-3.15,b02kswwu8zn,2022-09-19 14:52:50.643,5fea7e34e1506a5df25419ec,3,51,51,52,51,37,female,,,"<p style=""font-size:50px"">You Lose!
No points this round.</p>",,,,,,,,,,,,,,,,,,,,,,,,,,,,
101,0,,html-keyboard-response,101,229834,0.0-4.15-4.15,b02kswwu8zn,2022-09-19 14:52:50.643,5fea7e34e1506a5df25419ec,3,51,51,52,51,37,female,,,,,,1.0,learning,15.0,D,,red,,stars,,,,D,red,stars,,0.0,0.0,1,left,581.8000000119,8.0,1.0,0.0,,,
102,0,,html-keyboard-response,102,231340,0.0-4.16-0.16,b02kswwu8zn,2022-09-19 14:52:50.643,5fea7e34e1506a5df25419ec,3,51,51,52,51,37,female,,,"<img src=""static/images/cards/stack_of_red_bolts.svg"" width=""175px"" height=""250px""></img>",,,,,,,,,,,,,,,,,,,,,,,,,,,,
103,0,,html-keyboard-response,103,232863,0.0-4.16-1.16,b02kswwu8zn,2022-09-19 14:52:50.643,5fea7e34e1506a5df25419ec,3,51,51,52,51,37,female,1017.8999999762,,"
  <table>
  <tr height=300>
    <td width=300 height=300><img src=""static/images/cards/back_of_red_bolts.svg"" width=""175px"" height=""250px""></img></td>
    <td width=300 height=300><img src=""static/images/cards/back_of_red_bolts.svg"" width=""175px"" height=""250px""></img></td>
  </tr>
  <tr height=200>
    <td width=300><img src=""static/images/keys/z.svg"" width=""35%"" height=""75%""></img></td>
    <td width=300><img src=""static/images/keys/m.svg"" width=""35%"" height=""75%""></img></td>
  </tr>
</table>
  ",77.0,1.0,,,,,,,,,,,,,,,,,,,,,,,,,,
104,0,,html-keyboard-response,104,234377,0.0-4.16-2.16,b02kswwu8zn,2022-09-19 14:52:50.643,5fea7e34e1506a5df25419ec,3,51,51,52,51,37,female,,,"
  <table>
  <tr height=300>
    <td width=300 height=300><img src=""static/images/cards/back_of_red_bolts.svg"" width=""175px"" height=""250px""></img></td>
    <td width=300 height=300><img src=""static/images/cards/3_of_red_bolts.svg"" width=""175px"" height=""250px""></img></td>
  </tr>
  <tr height=200>
    <td width=300><img src=""static/images/keys/z.svg"" width=""35%"" height=""75%""></img></td>
    <td width=300><img src=""static/images/keys/m.svg"" width=""35%"" height=""75%""></img></td>
  </tr>
</table>
  ",,,,,,,,,,,,,,,,,,,,,,,,,,,,
105,0,,html-keyboard-response,105,235890,0.0-4.16-3.16,b02kswwu8zn,2022-09-19 14:52:50.643,5fea7e34e1506a5df25419ec,3,51,51,52,51,37,female,,,"<p style=""font-size:50px"">You win!
+10 points this round!</p>",,,,,,,,,,,,,,,,,,,,,,,,,,,,
106,0,,html-keyboard-response,106,236400,0.0-4.16-4.16,b02kswwu8zn,2022-09-19 14:52:50.643,5fea7e34e1506a5df25419ec,3,51,51,52,51,37,female,,,,,,1.0,learning,16.0,Xc,,red,,bolts,,,,Xc,red,bolts,,1.0,0.0,NA,right,1017.8999999762,3.0,0.0,1.0,,,
107,0,,html-keyboard-response,107,237908,0.0-4.17-0.17,b02kswwu8zn,2022-09-19 14:52:50.643,5fea7e34e1506a5df25419ec,3,51,51,52,51,37,female,,,"<img src=""static/images/cards/stack_of_black_bolts.svg"" width=""175px"" height=""250px""></img>",,,,,,,,,,,,,,,,,,,,,,,,,,,,
108,0,,html-keyboard-response,108,239071,0.0-4.17-1.17,b02kswwu8zn,2022-09-19 14:52:50.643,5fea7e34e1506a5df25419ec,3,51,51,52,51,37,female,661.5,,"
  <table>
  <tr height=300>
    <td width=300 height=300><img src=""static/images/cards/back_of_black_bolts.svg"" width=""175px"" height=""250px""></img></td>
    <td width=300 height=300><img src=""static/images/cards/back_of_black_bolts.svg"" width=""175px"" height=""250px""></img></td>
  </tr>
  <tr height=200>
    <td width=300><img src=""static/images/keys/z.svg"" width=""35%"" height=""75%""></img></td>
    <td width=300></td>
  </tr>
</table>
  ",90.0,1.0,,,,,,,,,,,,,,,,,,,,,,,,,,
109,0,,html-keyboard-response,109,240573,0.0-4.17-2.17,b02kswwu8zn,2022-09-19 14:52:50.643,5fea7e34e1506a5df25419ec,3,51,51,52,51,37,female,,,"
  <table>
  <tr height=300>
    <td width=300 height=300><img src=""static/images/cards/9_of_black_bolts.svg"" width=""175px"" height=""250px""></img></td>
    <td width=300 height=300><img src=""static/images/cards/back_of_black_bolts.svg"" width=""175px"" height=""250px""></img></td>
  </tr>
  <tr height=200>
    <td width=300><img src=""static/images/keys/z.svg"" width=""35%"" height=""75%""></img></td>
    <td width=300></td>
  </tr>
</table>
  ",,,,,,,,,,,,,,,,,,,,,,,,,,,,
110,0,,html-keyboard-response,110,242081,0.0-4.17-3.17,b02kswwu8zn,2022-09-19 14:52:50.643,5fea7e34e1506a5df25419ec,3,51,51,52,51,37,female,,,"<p style=""font-size:50px"">You win!
+10 points this round!</p>",,,,,,,,,,,,,,,,,,,,,,,,,,,,
111,0,,html-keyboard-response,111,242587,0.0-4.17-4.17,b02kswwu8zn,2022-09-19 14:52:50.643,5fea7e34e1506a5df25419ec,3,51,51,52,51,37,female,,,,,,1.0,learning,17.0,Xnc,,black,,bolts,,,,Xnc,black,bolts,,0.0,0.0,1,left,661.5,9.0,1.0,1.0,,,
112,0,,html-keyboard-response,112,244101,0.0-4.18-0.18,b02kswwu8zn,2022-09-19 14:52:50.643,5fea7e34e1506a5df25419ec,3,51,51,52,51,37,female,,,"<img src=""static/images/cards/stack_of_black_moons.svg"" width=""175px"" height=""250px""></img>",,,,,,,,,,,,,,,,,,,,,,,,,,,,
113,0,,html-keyboard-response,113,245077,0.0-4.18-1.18,b02kswwu8zn,2022-09-19 14:52:50.643,5fea7e34e1506a5df25419ec,3,51,51,52,51,37,female,470.8000000119,,"
  <table>
  <tr height=300>
    <td width=300 height=300><img src=""static/images/cards/back_of_black_moons.svg"" width=""175px"" height=""250px""></img></td>
    <td width=300 height=300><img src=""static/images/cards/back_of_black_moons.svg"" width=""175px"" height=""250px""></img></td>
  </tr>
  <tr height=200>
    <td width=300><img src=""static/images/keys/z.svg"" width=""35%"" height=""75%""></img></td>
    <td width=300><img src=""static/images/keys/m.svg"" width=""35%"" height=""75%""></img></td>
  </tr>
</table>
  ",77.0,1.0,,,,,,,,,,,,,,,,,,,,,,,,,,
114,0,,html-keyboard-response,114,246585,0.0-4.18-2.18,b02kswwu8zn,2022-09-19 14:52:50.643,5fea7e34e1506a5df25419ec,3,51,51,52,51,37,female,,,"
  <table>
  <tr height=300>
    <td width=300 height=300><img src=""static/images/cards/back_of_black_moons.svg"" width=""175px"" height=""250px""></img></td>
    <td width=300 height=300><img src=""static/images/cards/6_of_black_moons.svg"" width=""175px"" height=""250px""></img></td>
  </tr>
  <tr height=200>
    <td width=300><img src=""static/images/keys/z.svg"" width=""35%"" height=""75%""></img></td>
    <td width=300><img src=""static/images/keys/m.svg"" width=""35%"" height=""75%""></img></td>
  </tr>
</table>
  ",,,,,,,,,,,,,,,,,,,,,,,,,,,,
115,0,,html-keyboard-response,115,248099,0.0-4.18-3.18,b02kswwu8zn,2022-09-19 14:52:50.643,5fea7e34e1506a5df25419ec,3,51,51,52,51,37,female,,,"<p style=""font-size:50px"">You win!
+10 points this round!</p>",,,,,,,,,,,,,,,,,,,,,,,,,,,,
116,0,,html-keyboard-response,116,248620,0.0-4.18-4.18,b02kswwu8zn,2022-09-19 14:52:50.643,5fea7e34e1506a5df25419ec,3,51,51,52,51,37,female,,,,,,1.0,learning,18.0,A,,black,,moons,,,,A,black,moons,,1.0,1.0,NA,right,470.8000000119,6.0,1.0,1.0,,,
117,0,,html-keyboard-response,117,250123,0.0-4.19-0.19,b02kswwu8zn,2022-09-19 14:52:50.643,5fea7e34e1506a5df25419ec,3,51,51,52,51,37,female,,,"<img src=""static/images/cards/stack_of_red_moons.svg"" width=""175px"" height=""250px""></img>",,,,,,,,,,,,,,,,,,,,,,,,,,,,
118,0,,html-keyboard-response,118,251112,0.0-4.19-1.19,b02kswwu8zn,2022-09-19 14:52:50.643,5fea7e34e1506a5df25419ec,3,51,51,52,51,37,female,484.5999999642,,"
  <table>
  <tr height=300>
    <td width=300 height=300><img src=""static/images/cards/back_of_red_moons.svg"" width=""175px"" height=""250px""></img></td>
    <td width=300 height=300><img src=""static/images/cards/back_of_red_moons.svg"" width=""175px"" height=""250px""></img></td>
  </tr>
  <tr height=200>
    <td width=300></td>
    <td width=300><img src=""static/images/keys/m.svg"" width=""35%"" height=""75%""></img></td>
  </tr>
</table>
  ",77.0,1.0,,,,,,,,,,,,,,,,,,,,,,,,,,
119,0,,html-keyboard-response,119,252615,0.0-4.19-2.19,b02kswwu8zn,2022-09-19 14:52:50.643,5fea7e34e1506a5df25419ec,3,51,51,52,51,37,female,,,"
  <table>
  <tr height=300>
    <td width=300 height=300><img src=""static/images/cards/back_of_red_moons.svg"" width=""175px"" height=""250px""></img></td>
    <td width=300 height=300><img src=""static/images/cards/3_of_red_moons.svg"" width=""175px"" height=""250px""></img></td>
  </tr>
  <tr height=200>
    <td width=300></td>
    <td width=300><img src=""static/images/keys/m.svg"" width=""35%"" height=""75%""></img></td>
  </tr>
</table>
  ",,,,,,,,,,,,,,,,,,,,,,,,,,,,
120,0,,html-keyboard-response,120,254132,0.0-4.19-3.19,b02kswwu8zn,2022-09-19 14:52:50.643,5fea7e34e1506a5df25419ec,3,51,51,52,51,37,female,,,"<p style=""font-size:50px"">You Lose!
No points this round.</p>",,,,,,,,,,,,,,,,,,,,,,,,,,,,
121,0,,html-keyboard-response,121,254648,0.0-4.19-4.19,b02kswwu8zn,2022-09-19 14:52:50.643,5fea7e34e1506a5df25419ec,3,51,51,52,51,37,female,,,,,,1.0,learning,19.0,B,,red,,moons,,,,B,red,moons,,0.0,1.0,0,right,484.5999999642,3.0,0.0,0.0,,,
122,0,,html-keyboard-response,122,256150,0.0-4.20-0.20,b02kswwu8zn,2022-09-19 14:52:50.643,5fea7e34e1506a5df25419ec,3,51,51,52,51,37,female,,,"<img src=""static/images/cards/stack_of_black_stars.svg"" width=""175px"" height=""250px""></img>",,,,,,,,,,,,,,,,,,,,,,,,,,,,
123,0,,html-keyboard-response,123,257224,0.0-4.20-1.20,b02kswwu8zn,2022-09-19 14:52:50.643,5fea7e34e1506a5df25419ec,3,51,51,52,51,37,female,560.5999999642,,"
  <table>
  <tr height=300>
    <td width=300 height=300><img src=""static/images/cards/back_of_black_stars.svg"" width=""175px"" height=""250px""></img></td>
    <td width=300 height=300><img src=""static/images/cards/back_of_black_stars.svg"" width=""175px"" height=""250px""></img></td>
  </tr>
  <tr height=200>
    <td width=300><img src=""static/images/keys/z.svg"" width=""35%"" height=""75%""></img></td>
    <td width=300><img src=""static/images/keys/m.svg"" width=""35%"" height=""75%""></img></td>
  </tr>
</table>
  ",77.0,1.0,,,,,,,,,,,,,,,,,,,,,,,,,,
124,0,,html-keyboard-response,124,258727,0.0-4.20-2.20,b02kswwu8zn,2022-09-19 14:52:50.643,5fea7e34e1506a5df25419ec,3,51,51,52,51,37,female,,,"
  <table>
  <tr height=300>
    <td width=300 height=300><img src=""static/images/cards/back_of_black_stars.svg"" width=""175px"" height=""250px""></img></td>
    <td width=300 height=300><img src=""static/images/cards/1_of_black_stars.svg"" width=""175px"" height=""250px""></img></td>
  </tr>
  <tr height=200>
    <td width=300><img src=""static/images/keys/z.svg"" width=""35%"" height=""75%""></img></td>
    <td width=300><img src=""static/images/keys/m.svg"" width=""35%"" height=""75%""></img></td>
  </tr>
</table>
  ",,,,,,,,,,,,,,,,,,,,,,,,,,,,
125,0,,html-keyboard-response,125,260238,0.0-4.20-3.20,b02kswwu8zn,2022-09-19 14:52:50.643,5fea7e34e1506a5df25419ec,3,51,51,52,51,37,female,,,"<p style=""font-size:50px"">You Lose!
No points this round.</p>",,,,,,,,,,,,,,,,,,,,,,,,,,,,
126,0,,html-keyboard-response,126,260759,0.0-4.20-4.20,b02kswwu8zn,2022-09-19 14:52:50.643,5fea7e34e1506a5df25419ec,3,51,51,52,51,37,female,,,,,,1.0,learning,20.0,C,,black,,stars,,,,C,black,stars,,1.0,0.0,NA,right,560.5999999642,1.0,0.0,0.0,,,
127,0,,html-keyboard-response,127,262275,0.0-4.21-0.21,b02kswwu8zn,2022-09-19 14:52:50.643,5fea7e34e1506a5df25419ec,3,51,51,52,51,37,female,,,"<img src=""static/images/cards/stack_of_red_stars.svg"" width=""175px"" height=""250px""></img>",,,,,,,,,,,,,,,,,,,,,,,,,,,,
128,0,,html-keyboard-response,128,263174,0.0-4.21-1.21,b02kswwu8zn,2022-09-19 14:52:50.643,5fea7e34e1506a5df25419ec,3,51,51,52,51,37,female,396.6000000238,,"
  <table>
  <tr height=300>
    <td width=300 height=300><img src=""static/images/cards/back_of_red_stars.svg"" width=""175px"" height=""250px""></img></td>
    <td width=300 height=300><img src=""static/images/cards/back_of_red_stars.svg"" width=""175px"" height=""250px""></img></td>
  </tr>
  <tr height=200>
    <td width=300></td>
    <td width=300><img src=""static/images/keys/m.svg"" width=""35%"" height=""75%""></img></td>
  </tr>
</table>
  ",77.0,1.0,,,,,,,,,,,,,,,,,,,,,,,,,,
129,0,,html-keyboard-response,129,264688,0.0-4.21-2.21,b02kswwu8zn,2022-09-19 14:52:50.643,5fea7e34e1506a5df25419ec,3,51,51,52,51,37,female,,,"
  <table>
  <tr height=300>
    <td width=300 height=300><img src=""static/images/cards/back_of_red_stars.svg"" width=""175px"" height=""250px""></img></td>
    <td width=300 height=300><img src=""static/images/cards/1_of_red_stars.svg"" width=""175px"" height=""250px""></img></td>
  </tr>
  <tr height=200>
    <td width=300></td>
    <td width=300><img src=""static/images/keys/m.svg"" width=""35%"" height=""75%""></img></td>
  </tr>
</table>
  ",,,,,,,,,,,,,,,,,,,,,,,,,,,,
130,0,,html-keyboard-response,130,266200,0.0-4.21-3.21,b02kswwu8zn,2022-09-19 14:52:50.643,5fea7e34e1506a5df25419ec,3,51,51,52,51,37,female,,,"<p style=""font-size:50px"">You win!
+10 points this round!</p>",,,,,,,,,,,,,,,,,,,,,,,,,,,,
131,0,,html-keyboard-response,131,266715,0.0-4.21-4.21,b02kswwu8zn,2022-09-19 14:52:50.643,5fea7e34e1506a5df25419ec,3,51,51,52,51,37,female,,,,,,1.0,learning,21.0,D,,red,,stars,,,,D,red,stars,,0.0,0.0,0,right,396.6000000238,1.0,0.0,1.0,,,
132,0,,html-keyboard-response,132,268228,0.0-4.22-0.22,b02kswwu8zn,2022-09-19 14:52:50.643,5fea7e34e1506a5df25419ec,3,51,51,52,51,37,female,,,"<img src=""static/images/cards/stack_of_red_bolts.svg"" width=""175px"" height=""250px""></img>",,,,,,,,,,,,,,,,,,,,,,,,,,,,
133,0,,html-keyboard-response,133,269158,0.0-4.22-1.22,b02kswwu8zn,2022-09-19 14:52:50.643,5fea7e34e1506a5df25419ec,3,51,51,52,51,37,female,422.9000000358,,"
  <table>
  <tr height=300>
    <td width=300 height=300><img src=""static/images/cards/back_of_red_bolts.svg"" width=""175px"" height=""250px""></img></td>
    <td width=300 height=300><img src=""static/images/cards/back_of_red_bolts.svg"" width=""175px"" height=""250px""></img></td>
  </tr>
  <tr height=200>
    <td width=300><img src=""static/images/keys/z.svg"" width=""35%"" height=""75%""></img></td>
    <td width=300><img src=""static/images/keys/m.svg"" width=""35%"" height=""75%""></img></td>
  </tr>
</table>
  ",77.0,1.0,,,,,,,,,,,,,,,,,,,,,,,,,,
134,0,,html-keyboard-response,134,270675,0.0-4.22-2.22,b02kswwu8zn,2022-09-19 14:52:50.643,5fea7e34e1506a5df25419ec,3,51,51,52,51,37,female,,,"
  <table>
  <tr height=300>
    <td width=300 height=300><img src=""static/images/cards/back_of_red_bolts.svg"" width=""175px"" height=""250px""></img></td>
    <td width=300 height=300><img src=""static/images/cards/1_of_red_bolts.svg"" width=""175px"" height=""250px""></img></td>
  </tr>
  <tr height=200>
    <td width=300><img src=""static/images/keys/z.svg"" width=""35%"" height=""75%""></img></td>
    <td width=300><img src=""static/images/keys/m.svg"" width=""35%"" height=""75%""></img></td>
  </tr>
</table>
  ",,,,,,,,,,,,,,,,,,,,,,,,,,,,
135,0,,html-keyboard-response,135,272190,0.0-4.22-3.22,b02kswwu8zn,2022-09-19 14:52:50.643,5fea7e34e1506a5df25419ec,3,51,51,52,51,37,female,,,"<p style=""font-size:50px"">You win!
+10 points this round!</p>",,,,,,,,,,,,,,,,,,,,,,,,,,,,
136,0,,html-keyboard-response,136,272702,0.0-4.22-4.22,b02kswwu8zn,2022-09-19 14:52:50.643,5fea7e34e1506a5df25419ec,3,51,51,52,51,37,female,,,,,,1.0,learning,22.0,Xc,,red,,bolts,,,,Xc,red,bolts,,1.0,0.0,NA,right,422.9000000358,1.0,0.0,1.0,,,
137,0,,html-keyboard-response,137,274207,0.0-4.23-0.23,b02kswwu8zn,2022-09-19 14:52:50.643,5fea7e34e1506a5df25419ec,3,51,51,52,51,37,female,,,"<img src=""static/images/cards/stack_of_black_bolts.svg"" width=""175px"" height=""250px""></img>",,,,,,,,,,,,,,,,,,,,,,,,,,,,
138,0,,html-keyboard-response,138,275251,0.0-4.23-1.23,b02kswwu8zn,2022-09-19 14:52:50.643,5fea7e34e1506a5df25419ec,3,51,51,52,51,37,female,540.0,,"
  <table>
  <tr height=300>
    <td width=300 height=300><img src=""static/images/cards/back_of_black_bolts.svg"" width=""175px"" height=""250px""></img></td>
    <td width=300 height=300><img src=""static/images/cards/back_of_black_bolts.svg"" width=""175px"" height=""250px""></img></td>
  </tr>
  <tr height=200>
    <td width=300></td>
    <td width=300><img src=""static/images/keys/m.svg"" width=""35%"" height=""75%""></img></td>
  </tr>
</table>
  ",77.0,1.0,,,,,,,,,,,,,,,,,,,,,,,,,,
139,0,,html-keyboard-response,139,276761,0.0-4.23-2.23,b02kswwu8zn,2022-09-19 14:52:50.643,5fea7e34e1506a5df25419ec,3,51,51,52,51,37,female,,,"
  <table>
  <tr height=300>
    <td width=300 height=300><img src=""static/images/cards/back_of_black_bolts.svg"" width=""175px"" height=""250px""></img></td>
    <td width=300 height=300><img src=""static/images/cards/3_of_black_bolts.svg"" width=""175px"" height=""250px""></img></td>
  </tr>
  <tr height=200>
    <td width=300></td>
    <td width=300><img src=""static/images/keys/m.svg"" width=""35%"" height=""75%""></img></td>
  </tr>
</table>
  ",,,,,,,,,,,,,,,,,,,,,,,,,,,,
140,0,,html-keyboard-response,140,278277,0.0-4.23-3.23,b02kswwu8zn,2022-09-19 14:52:50.643,5fea7e34e1506a5df25419ec,3,51,51,52,51,37,female,,,"<p style=""font-size:50px"">You win!
+10 points this round!</p>",,,,,,,,,,,,,,,,,,,,,,,,,,,,
141,0,,html-keyboard-response,141,278785,0.0-4.23-4.23,b02kswwu8zn,2022-09-19 14:52:50.643,5fea7e34e1506a5df25419ec,3,51,51,52,51,37,female,,,,,,1.0,learning,23.0,Xnc,,black,,bolts,,,,Xnc,black,bolts,,0.0,0.0,0,right,540.0,3.0,0.0,1.0,,,
142,0,,call-function,142,278801,0.0-5.0,b02kswwu8zn,2022-09-19 14:52:50.643,5fea7e34e1506a5df25419ec,3,51,51,52,51,37,female,,,,,,,,,,,,,,,,,,,,,,,,,,,,,,,
143,0,,image-keyboard-response,143,283576,0.0-6.0-0.0,b02kswwu8zn,2022-09-19 14:52:50.643,5fea7e34e1506a5df25419ec,3,51,51,52,51,37,female,4775.2999999523,,static/images/instructions_CB_3/Slide20.png,39.0,,,,,,,,,,,,,,,,,,,,,,,,,,,
144,0,,image-keyboard-response,144,294883,0.0-6.1-0.1,b02kswwu8zn,2022-09-19 14:52:50.643,5fea7e34e1506a5df25419ec,3,51,51,52,51,37,female,11306.3999999762,,static/images/instructions_CB_3/Slide21.png,39.0,,,,,,,,,,,,,,,,,,,,,,,,,,,
145,0,,image-keyboard-response,145,320308,0.0-6.2-0.2,b02kswwu8zn,2022-09-19 14:52:50.643,5fea7e34e1506a5df25419ec,3,51,51,52,51,37,female,25423.6999999881,,static/images/instructions_CB_3/Slide22.png,39.0,,,,,,,,,,,,,,,,,,,,,,,,,,,
146,0,,image-keyboard-response,146,320508,0.0-6.3-0.3,b02kswwu8zn,2022-09-19 14:52:50.643,5fea7e34e1506a5df25419ec,3,51,51,52,51,37,female,198.1999999881,,static/images/instructions_CB_3/Slide23.png,39.0,,,,,,,,,,,,,,,,,,,,,,,,,,,
147,0,,image-keyboard-response,147,320589,0.0-6.4-0.4,b02kswwu8zn,2022-09-19 14:52:50.643,5fea7e34e1506a5df25419ec,3,51,51,52,51,37,female,81.0,,static/images/instructions_CB_3/Slide24.png,37.0,,,,,,,,,,,,,,,,,,,,,,,,,,,
148,0,,image-keyboard-response,148,321347,0.0-6.5-0.5,b02kswwu8zn,2022-09-19 14:52:50.643,5fea7e34e1506a5df25419ec,3,51,51,52,51,37,female,757.0,,static/images/instructions_CB_3/Slide23.png,39.0,,,,,,,,,,,,,,,,,,,,,,,,,,,
149,0,,image-keyboard-response,149,322447,0.0-6.6-0.6,b02kswwu8zn,2022-09-19 14:52:50.643,5fea7e34e1506a5df25419ec,3,51,51,52,51,37,female,1099.5,,static/images/instructions_CB_3/Slide24.png,39.0,,,,,,,,,,,,,,,,,,,,,,,,,,,
150,0,,html-keyboard-response,150,324280,0.0-7.0-0.0,b02kswwu8zn,2022-09-19 14:52:50.643,5fea7e34e1506a5df25419ec,3,51,51,52,51,37,female,1832.0,,"
  <table>
  <tr height=300>
    <td width=300 height=300><img src=""static/images/cards/stack_of_red_moons.svg"" width=""175px"" height=""250px""></img></td>
    <td width=300 height=300><img src=""static/images/cards/stack_of_black_moons.svg"" width=""175px"" height=""250px""></img></td>
  </tr>
  <tr height=200>
    <td width=300><img src=""static/images/keys/w.svg"" width=""35%"" height=""75%""></img></td>
    <td width=300><img src=""static/images/keys/o.svg"" width=""35%"" height=""75%""></img></td>
  </tr>
</table>
  ",87.0,1.0,,,,,,,,,,,,,,,,,,,,,,,,,,
151,0,,html-keyboard-response,151,326180,0.0-7.0-1.0,b02kswwu8zn,2022-09-19 14:52:50.643,5fea7e34e1506a5df25419ec,3,51,51,52,51,37,female,1394.2000000477,,"
  <table>
  <tr height=300>
    <td width=300 height=300><img src=""static/images/cards/back_of_red_moons.svg"" width=""175px"" height=""250px""></img></td>
    <td width=300 height=300><img src=""static/images/cards/back_of_red_moons.svg"" width=""175px"" height=""250px""></img></td>
  </tr>
  <tr height=200>
    <td width=300><img src=""static/images/keys/z.svg"" width=""35%"" height=""75%""></img></td>
    <td width=300></td>
  </tr>
</table>
  ",90.0,1.0,,,,,,,,,,,,,,,,,,,,,,,,,,
152,0,,html-keyboard-response,152,327683,0.0-7.0-2.0,b02kswwu8zn,2022-09-19 14:52:50.643,5fea7e34e1506a5df25419ec,3,51,51,52,51,37,female,,,"
  <table>
  <tr height=300>
    <td width=300 height=300><img src=""static/images/cards/3_of_red_moons.svg"" width=""175px"" height=""250px""></img></td>
    <td width=300 height=300><img src=""static/images/cards/back_of_red_moons.svg"" width=""175px"" height=""250px""></img></td>
  </tr>
  <tr height=200>
    <td width=300><img src=""static/images/keys/z.svg"" width=""35%"" height=""75%""></img></td>
    <td width=300></td>
  </tr>
</table>
  ",,,,,,,,,,,,,,,,,,,,,,,,,,,,
153,0,,html-keyboard-response,153,329198,0.0-7.0-3.0,b02kswwu8zn,2022-09-19 14:52:50.643,5fea7e34e1506a5df25419ec,3,51,51,52,51,37,female,,,"<p style=""font-size:50px"">You Lose!
No points this round.</p>",,,,,,,,,,,,,,,,,,,,,,,,,,,,
154,0,,html-keyboard-response,154,329706,0.0-7.0-4.0,b02kswwu8zn,2022-09-19 14:52:50.643,5fea7e34e1506a5df25419ec,3,51,51,52,51,37,female,,,,,,1.0,choice,0.0,A,B,red,black,moons,moons,B,A,B,red,moons,1832.0,0.0,1.0,1,left,1394.2000000477,3.0,0.0,0.0,,,
155,0,,html-keyboard-response,155,330719,0.0-7.1-0.1,b02kswwu8zn,2022-09-19 14:52:50.643,5fea7e34e1506a5df25419ec,3,51,51,52,51,37,female,1010.3000000119,,"
  <table>
  <tr height=300>
    <td width=300 height=300><img src=""static/images/cards/stack_of_red_stars.svg"" width=""175px"" height=""250px""></img></td>
    <td width=300 height=300><img src=""static/images/cards/stack_of_black_stars.svg"" width=""175px"" height=""250px""></img></td>
  </tr>
  <tr height=200>
    <td width=300><img src=""static/images/keys/w.svg"" width=""35%"" height=""75%""></img></td>
    <td width=300><img src=""static/images/keys/o.svg"" width=""35%"" height=""75%""></img></td>
  </tr>
</table>
  ",87.0,1.0,,,,,,,,,,,,,,,,,,,,,,,,,,
156,0,,html-keyboard-response,156,332506,0.0-7.1-1.1,b02kswwu8zn,2022-09-19 14:52:50.643,5fea7e34e1506a5df25419ec,3,51,51,52,51,37,female,1271.6999999881,,"
  <table>
  <tr height=300>
    <td width=300 height=300><img src=""static/images/cards/back_of_red_stars.svg"" width=""175px"" height=""250px""></img></td>
    <td width=300 height=300><img src=""static/images/cards/back_of_red_stars.svg"" width=""175px"" height=""250px""></img></td>
  </tr>
  <tr height=200>
    <td width=300></td>
    <td width=300><img src=""static/images/keys/m.svg"" width=""35%"" height=""75%""></img></td>
  </tr>
</table>
  ",77.0,1.0,,,,,,,,,,,,,,,,,,,,,,,,,,
157,0,,html-keyboard-response,157,334009,0.0-7.1-2.1,b02kswwu8zn,2022-09-19 14:52:50.643,5fea7e34e1506a5df25419ec,3,51,51,52,51,37,female,,,"
  <table>
  <tr height=300>
    <td width=300 height=300><img src=""static/images/cards/back_of_red_stars.svg"" width=""175px"" height=""250px""></img></td>
    <td width=300 height=300><img src=""static/images/cards/10_of_red_stars.svg"" width=""175px"" height=""250px""></img></td>
  </tr>
  <tr height=200>
    <td width=300></td>
    <td width=300><img src=""static/images/keys/m.svg"" width=""35%"" height=""75%""></img></td>
  </tr>
</table>
  ",,,,,,,,,,,,,,,,,,,,,,,,,,,,
158,0,,html-keyboard-response,158,335527,0.0-7.1-3.1,b02kswwu8zn,2022-09-19 14:52:50.643,5fea7e34e1506a5df25419ec,3,51,51,52,51,37,female,,,"<p style=""font-size:50px"">You win!
+10 points this round!</p>",,,,,,,,,,,,,,,,,,,,,,,,,,,,
159,0,,html-keyboard-response,159,336033,0.0-7.1-4.1,b02kswwu8zn,2022-09-19 14:52:50.643,5fea7e34e1506a5df25419ec,3,51,51,52,51,37,female,,,,,,1.0,choice,1.0,C,D,red,black,stars,stars,D,C,D,red,stars,1010.3000000119,0.0,0.0,0,right,1271.6999999881,10.0,1.0,1.0,,,
160,0,,html-keyboard-response,160,338507,0.0-7.2-0.2,b02kswwu8zn,2022-09-19 14:52:50.643,5fea7e34e1506a5df25419ec,3,51,51,52,51,37,female,2473.1999999881,,"
  <table>
  <tr height=300>
    <td width=300 height=300><img src=""static/images/cards/stack_of_red_stars.svg"" width=""175px"" height=""250px""></img></td>
    <td width=300 height=300><img src=""static/images/cards/stack_of_black_moons.svg"" width=""175px"" height=""250px""></img></td>
  </tr>
  <tr height=200>
    <td width=300><img src=""static/images/keys/w.svg"" width=""35%"" height=""75%""></img></td>
    <td width=300><img src=""static/images/keys/o.svg"" width=""35%"" height=""75%""></img></td>
  </tr>
</table>
  ",79.0,1.0,,,,,,,,,,,,,,,,,,,,,,,,,,
161,0,,html-keyboard-response,161,339875,0.0-7.2-1.2,b02kswwu8zn,2022-09-19 14:52:50.643,5fea7e34e1506a5df25419ec,3,51,51,52,51,37,female,853.0,,"
  <table>
  <tr height=300>
    <td width=300 height=300><img src=""static/images/cards/back_of_black_moons.svg"" width=""175px"" height=""250px""></img></td>
    <td width=300 height=300><img src=""static/images/cards/back_of_black_moons.svg"" width=""175px"" height=""250px""></img></td>
  </tr>
  <tr height=200>
    <td width=300><img src=""static/images/keys/z.svg"" width=""35%"" height=""75%""></img></td>
    <td width=300><img src=""static/images/keys/m.svg"" width=""35%"" height=""75%""></img></td>
  </tr>
</table>
  ",77.0,1.0,,,,,,,,,,,,,,,,,,,,,,,,,,
162,0,,html-keyboard-response,162,341382,0.0-7.2-2.2,b02kswwu8zn,2022-09-19 14:52:50.643,5fea7e34e1506a5df25419ec,3,51,51,52,51,37,female,,,"
  <table>
  <tr height=300>
    <td width=300 height=300><img src=""static/images/cards/back_of_black_moons.svg"" width=""175px"" height=""250px""></img></td>
    <td width=300 height=300><img src=""static/images/cards/3_of_black_moons.svg"" width=""175px"" height=""250px""></img></td>
  </tr>
  <tr height=200>
    <td width=300><img src=""static/images/keys/z.svg"" width=""35%"" height=""75%""></img></td>
    <td width=300><img src=""static/images/keys/m.svg"" width=""35%"" height=""75%""></img></td>
  </tr>
</table>
  ",,,,,,,,,,,,,,,,,,,,,,,,,,,,
163,0,,html-keyboard-response,163,342896,0.0-7.2-3.2,b02kswwu8zn,2022-09-19 14:52:50.643,5fea7e34e1506a5df25419ec,3,51,51,52,51,37,female,,,"<p style=""font-size:50px"">You Lose!
No points this round.</p>",,,,,,,,,,,,,,,,,,,,,,,,,,,,
164,0,,html-keyboard-response,164,343406,0.0-7.2-4.2,b02kswwu8zn,2022-09-19 14:52:50.643,5fea7e34e1506a5df25419ec,3,51,51,52,51,37,female,,,,,,1.0,choice,2.0,A,D,red,black,stars,moons,D,A,A,black,moons,2473.1999999881,1.0,1.0,NA,right,853.0,3.0,0.0,0.0,,,
165,0,,html-keyboard-response,165,345334,0.0-7.3-0.3,b02kswwu8zn,2022-09-19 14:52:50.643,5fea7e34e1506a5df25419ec,3,51,51,52,51,37,female,1926.1000000238,,"
  <table>
  <tr height=300>
    <td width=300 height=300><img src=""static/images/cards/stack_of_black_moons.svg"" width=""175px"" height=""250px""></img></td>
    <td width=300 height=300><img src=""static/images/cards/stack_of_black_stars.svg"" width=""175px"" height=""250px""></img></td>
  </tr>
  <tr height=200>
    <td width=300><img src=""static/images/keys/w.svg"" width=""35%"" height=""75%""></img></td>
    <td width=300><img src=""static/images/keys/o.svg"" width=""35%"" height=""75%""></img></td>
  </tr>
</table>
  ",87.0,1.0,,,,,,,,,,,,,,,,,,,,,,,,,,
166,0,,html-keyboard-response,166,346918,0.0-7.3-1.3,b02kswwu8zn,2022-09-19 14:52:50.643,5fea7e34e1506a5df25419ec,3,51,51,52,51,37,female,1071.7000000477,,"
  <table>
  <tr height=300>
    <td width=300 height=300><img src=""static/images/cards/back_of_black_moons.svg"" width=""175px"" height=""250px""></img></td>
    <td width=300 height=300><img src=""static/images/cards/back_of_black_moons.svg"" width=""175px"" height=""250px""></img></td>
  </tr>
  <tr height=200>
    <td width=300><img src=""static/images/keys/z.svg"" width=""35%"" height=""75%""></img></td>
    <td width=300><img src=""static/images/keys/m.svg"" width=""35%"" height=""75%""></img></td>
  </tr>
</table>
  ",77.0,1.0,,,,,,,,,,,,,,,,,,,,,,,,,,
167,0,,html-keyboard-response,167,348430,0.0-7.3-2.3,b02kswwu8zn,2022-09-19 14:52:50.643,5fea7e34e1506a5df25419ec,3,51,51,52,51,37,female,,,"
  <table>
  <tr height=300>
    <td width=300 height=300><img src=""static/images/cards/back_of_black_moons.svg"" width=""175px"" height=""250px""></img></td>
    <td width=300 height=300><img src=""static/images/cards/4_of_black_moons.svg"" width=""175px"" height=""250px""></img></td>
  </tr>
  <tr height=200>
    <td width=300><img src=""static/images/keys/z.svg"" width=""35%"" height=""75%""></img></td>
    <td width=300><img src=""static/images/keys/m.svg"" width=""35%"" height=""75%""></img></td>
  </tr>
</table>
  ",,,,,,,,,,,,,,,,,,,,,,,,,,,,
168,0,,html-keyboard-response,168,349946,0.0-7.3-3.3,b02kswwu8zn,2022-09-19 14:52:50.643,5fea7e34e1506a5df25419ec,3,51,51,52,51,37,female,,,"<p style=""font-size:50px"">You Lose!
No points this round.</p>",,,,,,,,,,,,,,,,,,,,,,,,,,,,
169,0,,html-keyboard-response,169,350459,0.0-7.3-4.3,b02kswwu8zn,2022-09-19 14:52:50.643,5fea7e34e1506a5df25419ec,3,51,51,52,51,37,female,,,,,,1.0,choice,3.0,A,C,black,black,moons,stars,A,C,A,black,moons,1926.1000000238,1.0,1.0,NA,right,1071.7000000477,4.0,0.0,0.0,,,
170,0,,html-keyboard-response,170,352703,0.0-7.4-0.4,b02kswwu8zn,2022-09-19 14:52:50.643,5fea7e34e1506a5df25419ec,3,51,51,52,51,37,female,2241.8999999762,,"
  <table>
  <tr height=300>
    <td width=300 height=300><img src=""static/images/cards/stack_of_red_stars.svg"" width=""175px"" height=""250px""></img></td>
    <td width=300 height=300><img src=""static/images/cards/stack_of_black_stars.svg"" width=""175px"" height=""250px""></img></td>
  </tr>
  <tr height=200>
    <td width=300><img src=""static/images/keys/w.svg"" width=""35%"" height=""75%""></img></td>
    <td width=300><img src=""static/images/keys/o.svg"" width=""35%"" height=""75%""></img></td>
  </tr>
</table>
  ",79.0,1.0,,,,,,,,,,,,,,,,,,,,,,,,,,
171,0,,html-keyboard-response,171,353699,0.0-7.4-1.4,b02kswwu8zn,2022-09-19 14:52:50.643,5fea7e34e1506a5df25419ec,3,51,51,52,51,37,female,492.7000000477,,"
  <table>
  <tr height=300>
    <td width=300 height=300><img src=""static/images/cards/back_of_black_stars.svg"" width=""175px"" height=""250px""></img></td>
    <td width=300 height=300><img src=""static/images/cards/back_of_black_stars.svg"" width=""175px"" height=""250px""></img></td>
  </tr>
  <tr height=200>
    <td width=300><img src=""static/images/keys/z.svg"" width=""35%"" height=""75%""></img></td>
    <td width=300><img src=""static/images/keys/m.svg"" width=""35%"" height=""75%""></img></td>
  </tr>
</table>
  ",77.0,1.0,,,,,,,,,,,,,,,,,,,,,,,,,,
172,0,,html-keyboard-response,172,355217,0.0-7.4-2.4,b02kswwu8zn,2022-09-19 14:52:50.643,5fea7e34e1506a5df25419ec,3,51,51,52,51,37,female,,,"
  <table>
  <tr height=300>
    <td width=300 height=300><img src=""static/images/cards/back_of_black_stars.svg"" width=""175px"" height=""250px""></img></td>
    <td width=300 height=300><img src=""static/images/cards/9_of_black_stars.svg"" width=""175px"" height=""250px""></img></td>
  </tr>
  <tr height=200>
    <td width=300><img src=""static/images/keys/z.svg"" width=""35%"" height=""75%""></img></td>
    <td width=300><img src=""static/images/keys/m.svg"" width=""35%"" height=""75%""></img></td>
  </tr>
</table>
  ",,,,,,,,,,,,,,,,,,,,,,,,,,,,
173,0,,html-keyboard-response,173,356730,0.0-7.4-3.4,b02kswwu8zn,2022-09-19 14:52:50.643,5fea7e34e1506a5df25419ec,3,51,51,52,51,37,female,,,"<p style=""font-size:50px"">You win!
+10 points this round!</p>",,,,,,,,,,,,,,,,,,,,,,,,,,,,
174,0,,html-keyboard-response,174,357242,0.0-7.4-4.4,b02kswwu8zn,2022-09-19 14:52:50.643,5fea7e34e1506a5df25419ec,3,51,51,52,51,37,female,,,,,,1.0,choice,4.0,C,D,red,black,stars,stars,D,C,C,black,stars,2241.8999999762,1.0,0.0,NA,right,492.7000000477,9.0,1.0,1.0,,,
175,0,,html-keyboard-response,175,359673,0.0-7.5-0.5,b02kswwu8zn,2022-09-19 14:52:50.643,5fea7e34e1506a5df25419ec,3,51,51,52,51,37,female,2428.4000000358,,"
  <table>
  <tr height=300>
    <td width=300 height=300><img src=""static/images/cards/stack_of_black_stars.svg"" width=""175px"" height=""250px""></img></td>
    <td width=300 height=300><img src=""static/images/cards/stack_of_black_moons.svg"" width=""175px"" height=""250px""></img></td>
  </tr>
  <tr height=200>
    <td width=300><img src=""static/images/keys/w.svg"" width=""35%"" height=""75%""></img></td>
    <td width=300><img src=""static/images/keys/o.svg"" width=""35%"" height=""75%""></img></td>
  </tr>
</table>
  ",87.0,1.0,,,,,,,,,,,,,,,,,,,,,,,,,,
176,0,,html-keyboard-response,176,360649,0.0-7.5-1.5,b02kswwu8zn,2022-09-19 14:52:50.643,5fea7e34e1506a5df25419ec,3,51,51,52,51,37,female,467.7999999523,,"
  <table>
  <tr height=300>
    <td width=300 height=300><img src=""static/images/cards/back_of_black_stars.svg"" width=""175px"" height=""250px""></img></td>
    <td width=300 height=300><img src=""static/images/cards/back_of_black_stars.svg"" width=""175px"" height=""250px""></img></td>
  </tr>
  <tr height=200>
    <td width=300><img src=""static/images/keys/z.svg"" width=""35%"" height=""75%""></img></td>
    <td width=300><img src=""static/images/keys/m.svg"" width=""35%"" height=""75%""></img></td>
  </tr>
</table>
  ",77.0,1.0,,,,,,,,,,,,,,,,,,,,,,,,,,
177,0,,html-keyboard-response,177,362167,0.0-7.5-2.5,b02kswwu8zn,2022-09-19 14:52:50.643,5fea7e34e1506a5df25419ec,3,51,51,52,51,37,female,,,"
  <table>
  <tr height=300>
    <td width=300 height=300><img src=""static/images/cards/back_of_black_stars.svg"" width=""175px"" height=""250px""></img></td>
    <td width=300 height=300><img src=""static/images/cards/4_of_black_stars.svg"" width=""175px"" height=""250px""></img></td>
  </tr>
  <tr height=200>
    <td width=300><img src=""static/images/keys/z.svg"" width=""35%"" height=""75%""></img></td>
    <td width=300><img src=""static/images/keys/m.svg"" width=""35%"" height=""75%""></img></td>
  </tr>
</table>
  ",,,,,,,,,,,,,,,,,,,,,,,,,,,,
178,0,,html-keyboard-response,178,363684,0.0-7.5-3.5,b02kswwu8zn,2022-09-19 14:52:50.643,5fea7e34e1506a5df25419ec,3,51,51,52,51,37,female,,,"<p style=""font-size:50px"">You win!
+10 points this round!</p>",,,,,,,,,,,,,,,,,,,,,,,,,,,,
179,0,,html-keyboard-response,179,364193,0.0-7.5-4.5,b02kswwu8zn,2022-09-19 14:52:50.643,5fea7e34e1506a5df25419ec,3,51,51,52,51,37,female,,,,,,1.0,choice,5.0,A,C,black,black,stars,moons,C,A,C,black,stars,2428.4000000358,1.0,0.0,NA,right,467.7999999523,4.0,0.0,1.0,,,
180,0,,html-keyboard-response,180,365467,0.0-7.6-0.6,b02kswwu8zn,2022-09-19 14:52:50.643,5fea7e34e1506a5df25419ec,3,51,51,52,51,37,female,1272.1000000238,,"
  <table>
  <tr height=300>
    <td width=300 height=300><img src=""static/images/cards/stack_of_black_stars.svg"" width=""175px"" height=""250px""></img></td>
    <td width=300 height=300><img src=""static/images/cards/stack_of_black_moons.svg"" width=""175px"" height=""250px""></img></td>
  </tr>
  <tr height=200>
    <td width=300><img src=""static/images/keys/w.svg"" width=""35%"" height=""75%""></img></td>
    <td width=300><img src=""static/images/keys/o.svg"" width=""35%"" height=""75%""></img></td>
  </tr>
</table>
  ",87.0,1.0,,,,,,,,,,,,,,,,,,,,,,,,,,
181,0,,html-keyboard-response,181,366335,0.0-7.6-1.6,b02kswwu8zn,2022-09-19 14:52:50.643,5fea7e34e1506a5df25419ec,3,51,51,52,51,37,female,363.8000000119,,"
  <table>
  <tr height=300>
    <td width=300 height=300><img src=""static/images/cards/back_of_black_stars.svg"" width=""175px"" height=""250px""></img></td>
    <td width=300 height=300><img src=""static/images/cards/back_of_black_stars.svg"" width=""175px"" height=""250px""></img></td>
  </tr>
  <tr height=200>
    <td width=300><img src=""static/images/keys/z.svg"" width=""35%"" height=""75%""></img></td>
    <td width=300><img src=""static/images/keys/m.svg"" width=""35%"" height=""75%""></img></td>
  </tr>
</table>
  ",77.0,1.0,,,,,,,,,,,,,,,,,,,,,,,,,,
182,0,,html-keyboard-response,182,367838,0.0-7.6-2.6,b02kswwu8zn,2022-09-19 14:52:50.643,5fea7e34e1506a5df25419ec,3,51,51,52,51,37,female,,,"
  <table>
  <tr height=300>
    <td width=300 height=300><img src=""static/images/cards/back_of_black_stars.svg"" width=""175px"" height=""250px""></img></td>
    <td width=300 height=300><img src=""static/images/cards/3_of_black_stars.svg"" width=""175px"" height=""250px""></img></td>
  </tr>
  <tr height=200>
    <td width=300><img src=""static/images/keys/z.svg"" width=""35%"" height=""75%""></img></td>
    <td width=300><img src=""static/images/keys/m.svg"" width=""35%"" height=""75%""></img></td>
  </tr>
</table>
  ",,,,,,,,,,,,,,,,,,,,,,,,,,,,
183,0,,html-keyboard-response,183,369351,0.0-7.6-3.6,b02kswwu8zn,2022-09-19 14:52:50.643,5fea7e34e1506a5df25419ec,3,51,51,52,51,37,female,,,"<p style=""font-size:50px"">You win!
+10 points this round!</p>",,,,,,,,,,,,,,,,,,,,,,,,,,,,
184,0,,html-keyboard-response,184,369861,0.0-7.6-4.6,b02kswwu8zn,2022-09-19 14:52:50.643,5fea7e34e1506a5df25419ec,3,51,51,52,51,37,female,,,,,,1.0,choice,6.0,A,C,black,black,stars,moons,C,A,C,black,stars,1272.1000000238,1.0,0.0,NA,right,363.8000000119,3.0,0.0,1.0,,,
185,0,,html-keyboard-response,185,374130,0.0-7.7-0.7,b02kswwu8zn,2022-09-19 14:52:50.643,5fea7e34e1506a5df25419ec,3,51,51,52,51,37,female,4268.6000000238,,"
  <table>
  <tr height=300>
    <td width=300 height=300><img src=""static/images/cards/stack_of_black_moons.svg"" width=""175px"" height=""250px""></img></td>
    <td width=300 height=300><img src=""static/images/cards/stack_of_red_moons.svg"" width=""175px"" height=""250px""></img></td>
  </tr>
  <tr height=200>
    <td width=300><img src=""static/images/keys/w.svg"" width=""35%"" height=""75%""></img></td>
    <td width=300><img src=""static/images/keys/o.svg"" width=""35%"" height=""75%""></img></td>
  </tr>
</table>
  ",79.0,1.0,,,,,,,,,,,,,,,,,,,,,,,,,,
186,0,,html-keyboard-response,186,375879,0.0-7.7-1.7,b02kswwu8zn,2022-09-19 14:52:50.643,5fea7e34e1506a5df25419ec,3,51,51,52,51,37,female,1232.6999999881,,"
  <table>
  <tr height=300>
    <td width=300 height=300><img src=""static/images/cards/back_of_red_moons.svg"" width=""175px"" height=""250px""></img></td>
    <td width=300 height=300><img src=""static/images/cards/back_of_red_moons.svg"" width=""175px"" height=""250px""></img></td>
  </tr>
  <tr height=200>
    <td width=300><img src=""static/images/keys/z.svg"" width=""35%"" height=""75%""></img></td>
    <td width=300></td>
  </tr>
</table>
  ",90.0,1.0,,,,,,,,,,,,,,,,,,,,,,,,,,
187,0,,html-keyboard-response,187,377381,0.0-7.7-2.7,b02kswwu8zn,2022-09-19 14:52:50.643,5fea7e34e1506a5df25419ec,3,51,51,52,51,37,female,,,"
  <table>
  <tr height=300>
    <td width=300 height=300><img src=""static/images/cards/7_of_red_moons.svg"" width=""175px"" height=""250px""></img></td>
    <td width=300 height=300><img src=""static/images/cards/back_of_red_moons.svg"" width=""175px"" height=""250px""></img></td>
  </tr>
  <tr height=200>
    <td width=300><img src=""static/images/keys/z.svg"" width=""35%"" height=""75%""></img></td>
    <td width=300></td>
  </tr>
</table>
  ",,,,,,,,,,,,,,,,,,,,,,,,,,,,
188,0,,html-keyboard-response,188,378900,0.0-7.7-3.7,b02kswwu8zn,2022-09-19 14:52:50.643,5fea7e34e1506a5df25419ec,3,51,51,52,51,37,female,,,"<p style=""font-size:50px"">You win!
+10 points this round!</p>",,,,,,,,,,,,,,,,,,,,,,,,,,,,
189,0,,html-keyboard-response,189,379407,0.0-7.7-4.7,b02kswwu8zn,2022-09-19 14:52:50.643,5fea7e34e1506a5df25419ec,3,51,51,52,51,37,female,,,,,,1.0,choice,7.0,A,B,black,red,moons,moons,A,B,B,red,moons,4268.6000000238,0.0,1.0,1,left,1232.6999999881,7.0,1.0,1.0,,,
190,0,,html-keyboard-response,190,383586,0.0-7.8-0.8,b02kswwu8zn,2022-09-19 14:52:50.643,5fea7e34e1506a5df25419ec,3,51,51,52,51,37,female,4178.3000000119,,"
  <table>
  <tr height=300>
    <td width=300 height=300><img src=""static/images/cards/stack_of_red_moons.svg"" width=""175px"" height=""250px""></img></td>
    <td width=300 height=300><img src=""static/images/cards/stack_of_black_stars.svg"" width=""175px"" height=""250px""></img></td>
  </tr>
  <tr height=200>
    <td width=300><img src=""static/images/keys/w.svg"" width=""35%"" height=""75%""></img></td>
    <td width=300><img src=""static/images/keys/o.svg"" width=""35%"" height=""75%""></img></td>
  </tr>
</table>
  ",79.0,1.0,,,,,,,,,,,,,,,,,,,,,,,,,,
191,0,,html-keyboard-response,191,384672,0.0-7.8-1.8,b02kswwu8zn,2022-09-19 14:52:50.643,5fea7e34e1506a5df25419ec,3,51,51,52,51,37,female,575.8000000119,,"
  <table>
  <tr height=300>
    <td width=300 height=300><img src=""static/images/cards/back_of_black_stars.svg"" width=""175px"" height=""250px""></img></td>
    <td width=300 height=300><img src=""static/images/cards/back_of_black_stars.svg"" width=""175px"" height=""250px""></img></td>
  </tr>
  <tr height=200>
    <td width=300><img src=""static/images/keys/z.svg"" width=""35%"" height=""75%""></img></td>
    <td width=300><img src=""static/images/keys/m.svg"" width=""35%"" height=""75%""></img></td>
  </tr>
</table>
  ",77.0,1.0,,,,,,,,,,,,,,,,,,,,,,,,,,
192,0,,html-keyboard-response,192,386186,0.0-7.8-2.8,b02kswwu8zn,2022-09-19 14:52:50.643,5fea7e34e1506a5df25419ec,3,51,51,52,51,37,female,,,"
  <table>
  <tr height=300>
    <td width=300 height=300><img src=""static/images/cards/back_of_black_stars.svg"" width=""175px"" height=""250px""></img></td>
    <td width=300 height=300><img src=""static/images/cards/1_of_black_stars.svg"" width=""175px"" height=""250px""></img></td>
  </tr>
  <tr height=200>
    <td width=300><img src=""static/images/keys/z.svg"" width=""35%"" height=""75%""></img></td>
    <td width=300><img src=""static/images/keys/m.svg"" width=""35%"" height=""75%""></img></td>
  </tr>
</table>
  ",,,,,,,,,,,,,,,,,,,,,,,,,,,,
193,0,,html-keyboard-response,193,387706,0.0-7.8-3.8,b02kswwu8zn,2022-09-19 14:52:50.643,5fea7e34e1506a5df25419ec,3,51,51,52,51,37,female,,,"<p style=""font-size:50px"">You Lose!
No points this round.</p>",,,,,,,,,,,,,,,,,,,,,,,,,,,,
194,0,,html-keyboard-response,194,388215,0.0-7.8-4.8,b02kswwu8zn,2022-09-19 14:52:50.643,5fea7e34e1506a5df25419ec,3,51,51,52,51,37,female,,,,,,1.0,choice,8.0,B,C,red,black,moons,stars,B,C,C,black,stars,4178.3000000119,1.0,0.0,NA,right,575.8000000119,1.0,0.0,0.0,,,
195,0,,html-keyboard-response,195,389667,0.0-7.9-0.9,b02kswwu8zn,2022-09-19 14:52:50.643,5fea7e34e1506a5df25419ec,3,51,51,52,51,37,female,1449.0999999642,,"
  <table>
  <tr height=300>
    <td width=300 height=300><img src=""static/images/cards/stack_of_red_stars.svg"" width=""175px"" height=""250px""></img></td>
    <td width=300 height=300><img src=""static/images/cards/stack_of_black_stars.svg"" width=""175px"" height=""250px""></img></td>
  </tr>
  <tr height=200>
    <td width=300><img src=""static/images/keys/w.svg"" width=""35%"" height=""75%""></img></td>
    <td width=300><img src=""static/images/keys/o.svg"" width=""35%"" height=""75%""></img></td>
  </tr>
</table>
  ",87.0,1.0,,,,,,,,,,,,,,,,,,,,,,,,,,
196,0,,html-keyboard-response,196,390615,0.0-7.9-1.9,b02kswwu8zn,2022-09-19 14:52:50.643,5fea7e34e1506a5df25419ec,3,51,51,52,51,37,female,432.1999999881,,"
  <table>
  <tr height=300>
    <td width=300 height=300><img src=""static/images/cards/back_of_red_stars.svg"" width=""175px"" height=""250px""></img></td>
    <td width=300 height=300><img src=""static/images/cards/back_of_red_stars.svg"" width=""175px"" height=""250px""></img></td>
  </tr>
  <tr height=200>
    <td width=300></td>
    <td width=300><img src=""static/images/keys/m.svg"" width=""35%"" height=""75%""></img></td>
  </tr>
</table>
  ",77.0,1.0,,,,,,,,,,,,,,,,,,,,,,,,,,
197,0,,html-keyboard-response,197,392127,0.0-7.9-2.9,b02kswwu8zn,2022-09-19 14:52:50.643,5fea7e34e1506a5df25419ec,3,51,51,52,51,37,female,,,"
  <table>
  <tr height=300>
    <td width=300 height=300><img src=""static/images/cards/back_of_red_stars.svg"" width=""175px"" height=""250px""></img></td>
    <td width=300 height=300><img src=""static/images/cards/4_of_red_stars.svg"" width=""175px"" height=""250px""></img></td>
  </tr>
  <tr height=200>
    <td width=300></td>
    <td width=300><img src=""static/images/keys/m.svg"" width=""35%"" height=""75%""></img></td>
  </tr>
</table>
  ",,,,,,,,,,,,,,,,,,,,,,,,,,,,
198,0,,html-keyboard-response,198,393640,0.0-7.9-3.9,b02kswwu8zn,2022-09-19 14:52:50.643,5fea7e34e1506a5df25419ec,3,51,51,52,51,37,female,,,"<p style=""font-size:50px"">You win!
+10 points this round!</p>",,,,,,,,,,,,,,,,,,,,,,,,,,,,
199,0,,html-keyboard-response,199,394149,0.0-7.9-4.9,b02kswwu8zn,2022-09-19 14:52:50.643,5fea7e34e1506a5df25419ec,3,51,51,52,51,37,female,,,,,,1.0,choice,9.0,C,D,red,black,stars,stars,D,C,D,red,stars,1449.0999999642,0.0,0.0,0,right,432.1999999881,4.0,0.0,1.0,,,
200,0,,html-keyboard-response,200,395533,0.0-7.10-0.10,b02kswwu8zn,2022-09-19 14:52:50.643,5fea7e34e1506a5df25419ec,3,51,51,52,51,37,female,1381.0999999642,,"
  <table>
  <tr height=300>
    <td width=300 height=300><img src=""static/images/cards/stack_of_black_moons.svg"" width=""175px"" height=""250px""></img></td>
    <td width=300 height=300><img src=""static/images/cards/stack_of_black_stars.svg"" width=""175px"" height=""250px""></img></td>
  </tr>
  <tr height=200>
    <td width=300><img src=""static/images/keys/w.svg"" width=""35%"" height=""75%""></img></td>
    <td width=300><img src=""static/images/keys/o.svg"" width=""35%"" height=""75%""></img></td>
  </tr>
</table>
  ",87.0,1.0,,,,,,,,,,,,,,,,,,,,,,,,,,
201,0,,html-keyboard-response,201,396640,0.0-7.10-1.10,b02kswwu8zn,2022-09-19 14:52:50.643,5fea7e34e1506a5df25419ec,3,51,51,52,51,37,female,601.3000000119,,"
  <table>
  <tr height=300>
    <td width=300 height=300><img src=""static/images/cards/back_of_black_moons.svg"" width=""175px"" height=""250px""></img></td>
    <td width=300 height=300><img src=""static/images/cards/back_of_black_moons.svg"" width=""175px"" height=""250px""></img></td>
  </tr>
  <tr height=200>
    <td width=300><img src=""static/images/keys/z.svg"" width=""35%"" height=""75%""></img></td>
    <td width=300><img src=""static/images/keys/m.svg"" width=""35%"" height=""75%""></img></td>
  </tr>
</table>
  ",77.0,1.0,,,,,,,,,,,,,,,,,,,,,,,,,,
202,0,,html-keyboard-response,202,398151,0.0-7.10-2.10,b02kswwu8zn,2022-09-19 14:52:50.643,5fea7e34e1506a5df25419ec,3,51,51,52,51,37,female,,,"
  <table>
  <tr height=300>
    <td width=300 height=300><img src=""static/images/cards/back_of_black_moons.svg"" width=""175px"" height=""250px""></img></td>
    <td width=300 height=300><img src=""static/images/cards/9_of_black_moons.svg"" width=""175px"" height=""250px""></img></td>
  </tr>
  <tr height=200>
    <td width=300><img src=""static/images/keys/z.svg"" width=""35%"" height=""75%""></img></td>
    <td width=300><img src=""static/images/keys/m.svg"" width=""35%"" height=""75%""></img></td>
  </tr>
</table>
  ",,,,,,,,,,,,,,,,,,,,,,,,,,,,
203,0,,html-keyboard-response,203,399675,0.0-7.10-3.10,b02kswwu8zn,2022-09-19 14:52:50.643,5fea7e34e1506a5df25419ec,3,51,51,52,51,37,female,,,"<p style=""font-size:50px"">You win!
+10 points this round!</p>",,,,,,,,,,,,,,,,,,,,,,,,,,,,
204,0,,html-keyboard-response,204,400186,0.0-7.10-4.10,b02kswwu8zn,2022-09-19 14:52:50.643,5fea7e34e1506a5df25419ec,3,51,51,52,51,37,female,,,,,,1.0,choice,10.0,A,C,black,black,moons,stars,A,C,A,black,moons,1381.0999999642,1.0,1.0,NA,right,601.3000000119,9.0,1.0,1.0,,,
205,0,,html-keyboard-response,205,402175,0.0-7.11-0.11,b02kswwu8zn,2022-09-19 14:52:50.643,5fea7e34e1506a5df25419ec,3,51,51,52,51,37,female,1987.0999999642,,"
  <table>
  <tr height=300>
    <td width=300 height=300><img src=""static/images/cards/stack_of_black_stars.svg"" width=""175px"" height=""250px""></img></td>
    <td width=300 height=300><img src=""static/images/cards/stack_of_red_stars.svg"" width=""175px"" height=""250px""></img></td>
  </tr>
  <tr height=200>
    <td width=300><img src=""static/images/keys/w.svg"" width=""35%"" height=""75%""></img></td>
    <td width=300><img src=""static/images/keys/o.svg"" width=""35%"" height=""75%""></img></td>
  </tr>
</table>
  ",87.0,1.0,,,,,,,,,,,,,,,,,,,,,,,,,,
206,0,,html-keyboard-response,206,403287,0.0-7.11-1.11,b02kswwu8zn,2022-09-19 14:52:50.643,5fea7e34e1506a5df25419ec,3,51,51,52,51,37,female,597.0,,"
  <table>
  <tr height=300>
    <td width=300 height=300><img src=""static/images/cards/back_of_black_stars.svg"" width=""175px"" height=""250px""></img></td>
    <td width=300 height=300><img src=""static/images/cards/back_of_black_stars.svg"" width=""175px"" height=""250px""></img></td>
  </tr>
  <tr height=200>
    <td width=300><img src=""static/images/keys/z.svg"" width=""35%"" height=""75%""></img></td>
    <td width=300><img src=""static/images/keys/m.svg"" width=""35%"" height=""75%""></img></td>
  </tr>
</table>
  ",77.0,1.0,,,,,,,,,,,,,,,,,,,,,,,,,,
207,0,,html-keyboard-response,207,404794,0.0-7.11-2.11,b02kswwu8zn,2022-09-19 14:52:50.643,5fea7e34e1506a5df25419ec,3,51,51,52,51,37,female,,,"
  <table>
  <tr height=300>
    <td width=300 height=300><img src=""static/images/cards/back_of_black_stars.svg"" width=""175px"" height=""250px""></img></td>
    <td width=300 height=300><img src=""static/images/cards/10_of_black_stars.svg"" width=""175px"" height=""250px""></img></td>
  </tr>
  <tr height=200>
    <td width=300><img src=""static/images/keys/z.svg"" width=""35%"" height=""75%""></img></td>
    <td width=300><img src=""static/images/keys/m.svg"" width=""35%"" height=""75%""></img></td>
  </tr>
</table>
  ",,,,,,,,,,,,,,,,,,,,,,,,,,,,
208,0,,html-keyboard-response,208,406315,0.0-7.11-3.11,b02kswwu8zn,2022-09-19 14:52:50.643,5fea7e34e1506a5df25419ec,3,51,51,52,51,37,female,,,"<p style=""font-size:50px"">You win!
+10 points this round!</p>",,,,,,,,,,,,,,,,,,,,,,,,,,,,
209,0,,html-keyboard-response,209,406825,0.0-7.11-4.11,b02kswwu8zn,2022-09-19 14:52:50.643,5fea7e34e1506a5df25419ec,3,51,51,52,51,37,female,,,,,,1.0,choice,11.0,C,D,black,red,stars,stars,C,D,C,black,stars,1987.0999999642,1.0,0.0,NA,right,597.0,10.0,1.0,1.0,,,
210,0,,html-keyboard-response,210,408143,0.0-7.12-0.12,b02kswwu8zn,2022-09-19 14:52:50.643,5fea7e34e1506a5df25419ec,3,51,51,52,51,37,female,1316.0,,"
  <table>
  <tr height=300>
    <td width=300 height=300><img src=""static/images/cards/stack_of_black_moons.svg"" width=""175px"" height=""250px""></img></td>
    <td width=300 height=300><img src=""static/images/cards/stack_of_red_stars.svg"" width=""175px"" height=""250px""></img></td>
  </tr>
  <tr height=200>
    <td width=300><img src=""static/images/keys/w.svg"" width=""35%"" height=""75%""></img></td>
    <td width=300><img src=""static/images/keys/o.svg"" width=""35%"" height=""75%""></img></td>
  </tr>
</table>
  ",79.0,1.0,,,,,,,,,,,,,,,,,,,,,,,,,,
211,0,,html-keyboard-response,211,409077,0.0-7.12-1.12,b02kswwu8zn,2022-09-19 14:52:50.643,5fea7e34e1506a5df25419ec,3,51,51,52,51,37,female,425.0,,"
  <table>
  <tr height=300>
    <td width=300 height=300><img src=""static/images/cards/back_of_red_stars.svg"" width=""175px"" height=""250px""></img></td>
    <td width=300 height=300><img src=""static/images/cards/back_of_red_stars.svg"" width=""175px"" height=""250px""></img></td>
  </tr>
  <tr height=200>
    <td width=300></td>
    <td width=300><img src=""static/images/keys/m.svg"" width=""35%"" height=""75%""></img></td>
  </tr>
</table>
  ",77.0,1.0,,,,,,,,,,,,,,,,,,,,,,,,,,
212,0,,html-keyboard-response,212,410592,0.0-7.12-2.12,b02kswwu8zn,2022-09-19 14:52:50.643,5fea7e34e1506a5df25419ec,3,51,51,52,51,37,female,,,"
  <table>
  <tr height=300>
    <td width=300 height=300><img src=""static/images/cards/back_of_red_stars.svg"" width=""175px"" height=""250px""></img></td>
    <td width=300 height=300><img src=""static/images/cards/6_of_red_stars.svg"" width=""175px"" height=""250px""></img></td>
  </tr>
  <tr height=200>
    <td width=300></td>
    <td width=300><img src=""static/images/keys/m.svg"" width=""35%"" height=""75%""></img></td>
  </tr>
</table>
  ",,,,,,,,,,,,,,,,,,,,,,,,,,,,
213,0,,html-keyboard-response,213,412107,0.0-7.12-3.12,b02kswwu8zn,2022-09-19 14:52:50.643,5fea7e34e1506a5df25419ec,3,51,51,52,51,37,female,,,"<p style=""font-size:50px"">You win!
+10 points this round!</p>",,,,,,,,,,,,,,,,,,,,,,,,,,,,
214,0,,html-keyboard-response,214,412618,0.0-7.12-4.12,b02kswwu8zn,2022-09-19 14:52:50.643,5fea7e34e1506a5df25419ec,3,51,51,52,51,37,female,,,,,,1.0,choice,12.0,A,D,black,red,moons,stars,A,D,D,red,stars,1316.0,0.0,0.0,0,right,425.0,6.0,1.0,1.0,,,
215,0,,html-keyboard-response,215,414141,0.0-7.13-0.13,b02kswwu8zn,2022-09-19 14:52:50.643,5fea7e34e1506a5df25419ec,3,51,51,52,51,37,female,1520.0,,"
  <table>
  <tr height=300>
    <td width=300 height=300><img src=""static/images/cards/stack_of_red_moons.svg"" width=""175px"" height=""250px""></img></td>
    <td width=300 height=300><img src=""static/images/cards/stack_of_black_moons.svg"" width=""175px"" height=""250px""></img></td>
  </tr>
  <tr height=200>
    <td width=300><img src=""static/images/keys/w.svg"" width=""35%"" height=""75%""></img></td>
    <td width=300><img src=""static/images/keys/o.svg"" width=""35%"" height=""75%""></img></td>
  </tr>
</table>
  ",79.0,1.0,,,,,,,,,,,,,,,,,,,,,,,,,,
216,0,,html-keyboard-response,216,415073,0.0-7.13-1.13,b02kswwu8zn,2022-09-19 14:52:50.643,5fea7e34e1506a5df25419ec,3,51,51,52,51,37,female,419.2999999523,,"
  <table>
  <tr height=300>
    <td width=300 height=300><img src=""static/images/cards/back_of_black_moons.svg"" width=""175px"" height=""250px""></img></td>
    <td width=300 height=300><img src=""static/images/cards/back_of_black_moons.svg"" width=""175px"" height=""250px""></img></td>
  </tr>
  <tr height=200>
    <td width=300><img src=""static/images/keys/z.svg"" width=""35%"" height=""75%""></img></td>
    <td width=300><img src=""static/images/keys/m.svg"" width=""35%"" height=""75%""></img></td>
  </tr>
</table>
  ",77.0,1.0,,,,,,,,,,,,,,,,,,,,,,,,,,
217,0,,html-keyboard-response,217,416579,0.0-7.13-2.13,b02kswwu8zn,2022-09-19 14:52:50.643,5fea7e34e1506a5df25419ec,3,51,51,52,51,37,female,,,"
  <table>
  <tr height=300>
    <td width=300 height=300><img src=""static/images/cards/back_of_black_moons.svg"" width=""175px"" height=""250px""></img></td>
    <td width=300 height=300><img src=""static/images/cards/4_of_black_moons.svg"" width=""175px"" height=""250px""></img></td>
  </tr>
  <tr height=200>
    <td width=300><img src=""static/images/keys/z.svg"" width=""35%"" height=""75%""></img></td>
    <td width=300><img src=""static/images/keys/m.svg"" width=""35%"" height=""75%""></img></td>
  </tr>
</table>
  ",,,,,,,,,,,,,,,,,,,,,,,,,,,,
218,0,,html-keyboard-response,218,418096,0.0-7.13-3.13,b02kswwu8zn,2022-09-19 14:52:50.643,5fea7e34e1506a5df25419ec,3,51,51,52,51,37,female,,,"<p style=""font-size:50px"">You Lose!
No points this round.</p>",,,,,,,,,,,,,,,,,,,,,,,,,,,,
219,0,,html-keyboard-response,219,418608,0.0-7.13-4.13,b02kswwu8zn,2022-09-19 14:52:50.643,5fea7e34e1506a5df25419ec,3,51,51,52,51,37,female,,,,,,1.0,choice,13.0,A,B,red,black,moons,moons,B,A,A,black,moons,1520.0,1.0,1.0,NA,right,419.2999999523,4.0,0.0,0.0,,,
220,0,,html-keyboard-response,220,420566,0.0-7.14-0.14,b02kswwu8zn,2022-09-19 14:52:50.643,5fea7e34e1506a5df25419ec,3,51,51,52,51,37,female,1954.6999999881,,"
  <table>
  <tr height=300>
    <td width=300 height=300><img src=""static/images/cards/stack_of_black_moons.svg"" width=""175px"" height=""250px""></img></td>
    <td width=300 height=300><img src=""static/images/cards/stack_of_red_bolts.svg"" width=""175px"" height=""250px""></img></td>
  </tr>
  <tr height=200>
    <td width=300><img src=""static/images/keys/w.svg"" width=""35%"" height=""75%""></img></td>
    <td width=300><img src=""static/images/keys/o.svg"" width=""35%"" height=""75%""></img></td>
  </tr>
</table>
  ",87.0,1.0,,,,,,,,,,,,,,,,,,,,,,,,,,
221,0,,html-keyboard-response,221,421679,0.0-7.14-1.14,b02kswwu8zn,2022-09-19 14:52:50.643,5fea7e34e1506a5df25419ec,3,51,51,52,51,37,female,607.0,,"
  <table>
  <tr height=300>
    <td width=300 height=300><img src=""static/images/cards/back_of_black_moons.svg"" width=""175px"" height=""250px""></img></td>
    <td width=300 height=300><img src=""static/images/cards/back_of_black_moons.svg"" width=""175px"" height=""250px""></img></td>
  </tr>
  <tr height=200>
    <td width=300><img src=""static/images/keys/z.svg"" width=""35%"" height=""75%""></img></td>
    <td width=300><img src=""static/images/keys/m.svg"" width=""35%"" height=""75%""></img></td>
  </tr>
</table>
  ",77.0,1.0,,,,,,,,,,,,,,,,,,,,,,,,,,
222,0,,html-keyboard-response,222,423193,0.0-7.14-2.14,b02kswwu8zn,2022-09-19 14:52:50.643,5fea7e34e1506a5df25419ec,3,51,51,52,51,37,female,,,"
  <table>
  <tr height=300>
    <td width=300 height=300><img src=""static/images/cards/back_of_black_moons.svg"" width=""175px"" height=""250px""></img></td>
    <td width=300 height=300><img src=""static/images/cards/1_of_black_moons.svg"" width=""175px"" height=""250px""></img></td>
  </tr>
  <tr height=200>
    <td width=300><img src=""static/images/keys/z.svg"" width=""35%"" height=""75%""></img></td>
    <td width=300><img src=""static/images/keys/m.svg"" width=""35%"" height=""75%""></img></td>
  </tr>
</table>
  ",,,,,,,,,,,,,,,,,,,,,,,,,,,,
223,0,,html-keyboard-response,223,424711,0.0-7.14-3.14,b02kswwu8zn,2022-09-19 14:52:50.643,5fea7e34e1506a5df25419ec,3,51,51,52,51,37,female,,,"<p style=""font-size:50px"">You Lose!
No points this round.</p>",,,,,,,,,,,,,,,,,,,,,,,,,,,,
224,0,,html-keyboard-response,224,425221,0.0-7.14-4.14,b02kswwu8zn,2022-09-19 14:52:50.643,5fea7e34e1506a5df25419ec,3,51,51,52,51,37,female,,,,,,1.0,choice,14.0,A,Xc,black,red,moons,bolts,A,Xc,A,black,moons,1954.6999999881,1.0,1.0,NA,right,607.0,1.0,0.0,0.0,,,
225,0,,html-keyboard-response,225,426531,0.0-7.15-0.15,b02kswwu8zn,2022-09-19 14:52:50.643,5fea7e34e1506a5df25419ec,3,51,51,52,51,37,female,1308.3999999762,,"
  <table>
  <tr height=300>
    <td width=300 height=300><img src=""static/images/cards/stack_of_red_moons.svg"" width=""175px"" height=""250px""></img></td>
    <td width=300 height=300><img src=""static/images/cards/stack_of_black_stars.svg"" width=""175px"" height=""250px""></img></td>
  </tr>
  <tr height=200>
    <td width=300><img src=""static/images/keys/w.svg"" width=""35%"" height=""75%""></img></td>
    <td width=300><img src=""static/images/keys/o.svg"" width=""35%"" height=""75%""></img></td>
  </tr>
</table>
  ",79.0,1.0,,,,,,,,,,,,,,,,,,,,,,,,,,
226,0,,html-keyboard-response,226,427604,0.0-7.15-1.15,b02kswwu8zn,2022-09-19 14:52:50.643,5fea7e34e1506a5df25419ec,3,51,51,52,51,37,female,564.4000000358,,"
  <table>
  <tr height=300>
    <td width=300 height=300><img src=""static/images/cards/back_of_black_stars.svg"" width=""175px"" height=""250px""></img></td>
    <td width=300 height=300><img src=""static/images/cards/back_of_black_stars.svg"" width=""175px"" height=""250px""></img></td>
  </tr>
  <tr height=200>
    <td width=300><img src=""static/images/keys/z.svg"" width=""35%"" height=""75%""></img></td>
    <td width=300><img src=""static/images/keys/m.svg"" width=""35%"" height=""75%""></img></td>
  </tr>
</table>
  ",77.0,1.0,,,,,,,,,,,,,,,,,,,,,,,,,,
227,0,,html-keyboard-response,227,429108,0.0-7.15-2.15,b02kswwu8zn,2022-09-19 14:52:50.643,5fea7e34e1506a5df25419ec,3,51,51,52,51,37,female,,,"
  <table>
  <tr height=300>
    <td width=300 height=300><img src=""static/images/cards/back_of_black_stars.svg"" width=""175px"" height=""250px""></img></td>
    <td width=300 height=300><img src=""static/images/cards/9_of_black_stars.svg"" width=""175px"" height=""250px""></img></td>
  </tr>
  <tr height=200>
    <td width=300><img src=""static/images/keys/z.svg"" width=""35%"" height=""75%""></img></td>
    <td width=300><img src=""static/images/keys/m.svg"" width=""35%"" height=""75%""></img></td>
  </tr>
</table>
  ",,,,,,,,,,,,,,,,,,,,,,,,,,,,
228,0,,html-keyboard-response,228,430625,0.0-7.15-3.15,b02kswwu8zn,2022-09-19 14:52:50.643,5fea7e34e1506a5df25419ec,3,51,51,52,51,37,female,,,"<p style=""font-size:50px"">You win!
+10 points this round!</p>",,,,,,,,,,,,,,,,,,,,,,,,,,,,
229,0,,html-keyboard-response,229,431137,0.0-7.15-4.15,b02kswwu8zn,2022-09-19 14:52:50.643,5fea7e34e1506a5df25419ec,3,51,51,52,51,37,female,,,,,,1.0,choice,15.0,B,C,red,black,moons,stars,B,C,C,black,stars,1308.3999999762,1.0,0.0,NA,right,564.4000000358,9.0,1.0,1.0,,,
230,0,,html-keyboard-response,230,432931,0.0-7.16-0.16,b02kswwu8zn,2022-09-19 14:52:50.643,5fea7e34e1506a5df25419ec,3,51,51,52,51,37,female,1793.1000000238,,"
  <table>
  <tr height=300>
    <td width=300 height=300><img src=""static/images/cards/stack_of_black_moons.svg"" width=""175px"" height=""250px""></img></td>
    <td width=300 height=300><img src=""static/images/cards/stack_of_red_stars.svg"" width=""175px"" height=""250px""></img></td>
  </tr>
  <tr height=200>
    <td width=300><img src=""static/images/keys/w.svg"" width=""35%"" height=""75%""></img></td>
    <td width=300><img src=""static/images/keys/o.svg"" width=""35%"" height=""75%""></img></td>
  </tr>
</table>
  ",87.0,1.0,,,,,,,,,,,,,,,,,,,,,,,,,,
231,0,,html-keyboard-response,231,433905,0.0-7.16-1.16,b02kswwu8zn,2022-09-19 14:52:50.643,5fea7e34e1506a5df25419ec,3,51,51,52,51,37,female,464.4000000358,,"
  <table>
  <tr height=300>
    <td width=300 height=300><img src=""static/images/cards/back_of_black_moons.svg"" width=""175px"" height=""250px""></img></td>
    <td width=300 height=300><img src=""static/images/cards/back_of_black_moons.svg"" width=""175px"" height=""250px""></img></td>
  </tr>
  <tr height=200>
    <td width=300><img src=""static/images/keys/z.svg"" width=""35%"" height=""75%""></img></td>
    <td width=300><img src=""static/images/keys/m.svg"" width=""35%"" height=""75%""></img></td>
  </tr>
</table>
  ",77.0,1.0,,,,,,,,,,,,,,,,,,,,,,,,,,
232,0,,html-keyboard-response,232,435416,0.0-7.16-2.16,b02kswwu8zn,2022-09-19 14:52:50.643,5fea7e34e1506a5df25419ec,3,51,51,52,51,37,female,,,"
  <table>
