,index,success,trial_type,trial_index,time_elapsed,internal_node_id,subject,date,prol_id,ctbl,sense_of_control_A,sense_of_control_B,sense_of_control_C,sense_of_control_D,age,gender,rt,url,stimulus,key_press,npress,is_data_trial,phase,trial,deck1,deck2,col1,col2,sym1,sym2,deck_l,deck_r,chosen_deck,chosen_col,chosen_sym,deck_rt,choose_choice,mutual_info,hidden_key,chosen_card,card_rt,player_num,win_card,outcome,mock_rating,response,responses
0,0,1.0,fullscreen,0,12660,0.0-0.0,jfg5etege3e,2022-09-19 14:54:07.444,6287745dd285a8be832879dc,1,57,21,38,5,31,Male,,,,,,,,,,,,,,,,,,,,,,,,,,,,,,,
1,0,,external-html,1,39197,0.0-1.0,jfg5etege3e,2022-09-19 14:54:07.444,6287745dd285a8be832879dc,1,57,21,38,5,31,Male,26419.5,static/js/sub/consent.html,,,,,,,,,,,,,,,,,,,,,,,,,,,,,
2,0,,call-function,2,39199,0.0-2.0,jfg5etege3e,2022-09-19 14:54:07.444,6287745dd285a8be832879dc,1,57,21,38,5,31,Male,,,,,,,,,,,,,,,,,,,,,,,,,,,,,,,
3,0,,image-keyboard-response,3,53913,0.0-3.0-0.0,jfg5etege3e,2022-09-19 14:54:07.444,6287745dd285a8be832879dc,1,57,21,38,5,31,Male,14713.0999999642,,static/images/instructions_CB_1/Slide1.png,39.0,,,,,,,,,,,,,,,,,,,,,,,,,,,
4,0,,image-keyboard-response,4,63173,0.0-3.1-0.1,jfg5etege3e,2022-09-19 14:54:07.444,6287745dd285a8be832879dc,1,57,21,38,5,31,Male,9257.6999999881,,static/images/instructions_CB_1/Slide2.png,39.0,,,,,,,,,,,,,,,,,,,,,,,,,,,
5,0,,image-keyboard-response,5,73537,0.0-3.2-0.2,jfg5etege3e,2022-09-19 14:54:07.444,6287745dd285a8be832879dc,1,57,21,38,5,31,Male,10361.3999999762,,static/images/instructions_CB_1/Slide3.png,39.0,,,,,,,,,,,,,,,,,,,,,,,,,,,
6,0,,image-keyboard-response,6,83433,0.0-3.3-0.3,jfg5etege3e,2022-09-19 14:54:07.444,6287745dd285a8be832879dc,1,57,21,38,5,31,Male,9893.8000000119,,static/images/instructions_CB_1/Slide4.png,39.0,,,,,,,,,,,,,,,,,,,,,,,,,,,
7,0,,image-keyboard-response,7,93172,0.0-3.4-0.4,jfg5etege3e,2022-09-19 14:54:07.444,6287745dd285a8be832879dc,1,57,21,38,5,31,Male,9737.3999999762,,static/images/instructions_CB_1/Slide5.png,39.0,,,,,,,,,,,,,,,,,,,,,,,,,,,
8,0,,image-keyboard-response,8,95813,0.0-3.5-0.5,jfg5etege3e,2022-09-19 14:54:07.444,6287745dd285a8be832879dc,1,57,21,38,5,31,Male,2640.0,,static/images/instructions_CB_1/Slide6.png,39.0,,,,,,,,,,,,,,,,,,,,,,,,,,,
9,0,,image-keyboard-response,9,100822,0.0-3.6-0.6,jfg5etege3e,2022-09-19 14:54:07.444,6287745dd285a8be832879dc,1,57,21,38,5,31,Male,5007.5,,static/images/instructions_CB_1/Slide7.png,39.0,,,,,,,,,,,,,,,,,,,,,,,,,,,
10,0,,image-keyboard-response,10,118398,0.0-3.7-0.7,jfg5etege3e,2022-09-19 14:54:07.444,6287745dd285a8be832879dc,1,57,21,38,5,31,Male,17574.3000000119,,static/images/instructions_CB_1/Slide8.png,39.0,,,,,,,,,,,,,,,,,,,,,,,,,,,
11,0,,image-keyboard-response,11,123672,0.0-3.8-0.8,jfg5etege3e,2022-09-19 14:54:07.444,6287745dd285a8be832879dc,1,57,21,38,5,31,Male,5272.5,,static/images/instructions_CB_1/Slide9.png,39.0,,,,,,,,,,,,,,,,,,,,,,,,,,,
12,0,,image-keyboard-response,12,137622,0.0-3.9-0.9,jfg5etege3e,2022-09-19 14:54:07.444,6287745dd285a8be832879dc,1,57,21,38,5,31,Male,13947.6000000238,,static/images/instructions_CB_1/Slide10.png,39.0,,,,,,,,,,,,,,,,,,,,,,,,,,,
13,0,,image-keyboard-response,13,140368,0.0-3.10-0.10,jfg5etege3e,2022-09-19 14:54:07.444,6287745dd285a8be832879dc,1,57,21,38,5,31,Male,2745.0999999642,,static/images/instructions_CB_1/Slide11.png,39.0,,,,,,,,,,,,,,,,,,,,,,,,,,,
14,0,,image-keyboard-response,14,172628,0.0-3.11-0.11,jfg5etege3e,2022-09-19 14:54:07.444,6287745dd285a8be832879dc,1,57,21,38,5,31,Male,32257.8000000119,,static/images/instructions_CB_1/Slide12.png,39.0,,,,,,,,,,,,,,,,,,,,,,,,,,,
15,0,,image-keyboard-response,15,199078,0.0-3.12-0.12,jfg5etege3e,2022-09-19 14:54:07.444,6287745dd285a8be832879dc,1,57,21,38,5,31,Male,26448.1999999881,,static/images/instructions_CB_1/Slide13.png,39.0,,,,,,,,,,,,,,,,,,,,,,,,,,,
16,0,,image-keyboard-response,16,206574,0.0-3.13-0.13,jfg5etege3e,2022-09-19 14:54:07.444,6287745dd285a8be832879dc,1,57,21,38,5,31,Male,7495.3000000119,,static/images/instructions_CB_1/Slide14.png,39.0,,,,,,,,,,,,,,,,,,,,,,,,,,,
17,0,,image-keyboard-response,17,216769,0.0-3.14-0.14,jfg5etege3e,2022-09-19 14:54:07.444,6287745dd285a8be832879dc,1,57,21,38,5,31,Male,10192.6999999881,,static/images/instructions_CB_1/Slide15.png,39.0,,,,,,,,,,,,,,,,,,,,,,,,,,,
18,0,,image-keyboard-response,18,228698,0.0-3.15-0.15,jfg5etege3e,2022-09-19 14:54:07.444,6287745dd285a8be832879dc,1,57,21,38,5,31,Male,11927.5,,static/images/instructions_CB_1/Slide16.png,39.0,,,,,,,,,,,,,,,,,,,,,,,,,,,
19,0,,image-keyboard-response,19,246659,0.0-3.16-0.16,jfg5etege3e,2022-09-19 14:54:07.444,6287745dd285a8be832879dc,1,57,21,38,5,31,Male,17960.0,,static/images/instructions_CB_1/Slide17.png,39.0,,,,,,,,,,,,,,,,,,,,,,,,,,,
20,0,,image-keyboard-response,20,266896,0.0-3.17-0.17,jfg5etege3e,2022-09-19 14:54:07.444,6287745dd285a8be832879dc,1,57,21,38,5,31,Male,20235.5,,static/images/instructions_CB_1/Slide18.png,39.0,,,,,,,,,,,,,,,,,,,,,,,,,,,
21,0,,image-keyboard-response,21,279696,0.0-3.18-0.18,jfg5etege3e,2022-09-19 14:54:07.444,6287745dd285a8be832879dc,1,57,21,38,5,31,Male,12798.6000000238,,static/images/instructions_CB_1/Slide19.png,39.0,,,,,,,,,,,,,,,,,,,,,,,,,,,
22,0,,html-keyboard-response,22,281210,0.0-4.0-0.0,jfg5etege3e,2022-09-19 14:54:07.444,6287745dd285a8be832879dc,1,57,21,38,5,31,Male,,,"<img src=""static/images/cards/stack_of_red_moons.svg"" width=""175px"" height=""250px""></img>",,,,,,,,,,,,,,,,,,,,,,,,,,,,
23,0,,html-keyboard-response,23,283100,0.0-4.0-1.0,jfg5etege3e,2022-09-19 14:54:07.444,6287745dd285a8be832879dc,1,57,21,38,5,31,Male,1373.1999999881,,"
  <table>
  <tr height=300>
    <td width=300 height=300><img src=""static/images/cards/back_of_red_moons.svg"" width=""175px"" height=""250px""></img></td>
    <td width=300 height=300><img src=""static/images/cards/back_of_red_moons.svg"" width=""175px"" height=""250px""></img></td>
  </tr>
  <tr height=200>
    <td width=300><img src=""static/images/keys/z.svg"" width=""35%"" height=""75%""></img></td>
    <td width=300><img src=""static/images/keys/m.svg"" width=""35%"" height=""75%""></img></td>
  </tr>
</table>
  ",77.0,1.0,,,,,,,,,,,,,,,,,,,,,,,,,,
24,0,,html-keyboard-response,24,284617,0.0-4.0-2.0,jfg5etege3e,2022-09-19 14:54:07.444,6287745dd285a8be832879dc,1,57,21,38,5,31,Male,,,"
  <table>
  <tr height=300>
    <td width=300 height=300><img src=""static/images/cards/back_of_red_moons.svg"" width=""175px"" height=""250px""></img></td>
    <td width=300 height=300><img src=""static/images/cards/3_of_red_moons.svg"" width=""175px"" height=""250px""></img></td>
  </tr>
  <tr height=200>
    <td width=300><img src=""static/images/keys/z.svg"" width=""35%"" height=""75%""></img></td>
    <td width=300><img src=""static/images/keys/m.svg"" width=""35%"" height=""75%""></img></td>
  </tr>
</table>
  ",,,,,,,,,,,,,,,,,,,,,,,,,,,,
25,0,,html-keyboard-response,25,286127,0.0-4.0-3.0,jfg5etege3e,2022-09-19 14:54:07.444,6287745dd285a8be832879dc,1,57,21,38,5,31,Male,,,"<p style=""font-size:50px"">You Lose!
No points this round.</p>",,,,,,,,,,,,,,,,,,,,,,,,,,,,
26,0,,html-keyboard-response,26,286638,0.0-4.0-4.0,jfg5etege3e,2022-09-19 14:54:07.444,6287745dd285a8be832879dc,1,57,21,38,5,31,Male,,,,,,1.0,learning,0.0,A,,red,,moons,,,,A,red,moons,,1.0,1.0,NA,right,1373.1999999881,3.0,0.0,0.0,,,
27,0,,html-keyboard-response,27,288152,0.0-4.1-0.1,jfg5etege3e,2022-09-19 14:54:07.444,6287745dd285a8be832879dc,1,57,21,38,5,31,Male,,,"<img src=""static/images/cards/stack_of_black_moons.svg"" width=""175px"" height=""250px""></img>",,,,,,,,,,,,,,,,,,,,,,,,,,,,
28,0,,html-keyboard-response,28,289544,0.0-4.1-1.1,jfg5etege3e,2022-09-19 14:54:07.444,6287745dd285a8be832879dc,1,57,21,38,5,31,Male,885.5,,"
  <table>
  <tr height=300>
    <td width=300 height=300><img src=""static/images/cards/back_of_black_moons.svg"" width=""175px"" height=""250px""></img></td>
    <td width=300 height=300><img src=""static/images/cards/back_of_black_moons.svg"" width=""175px"" height=""250px""></img></td>
  </tr>
  <tr height=200>
    <td width=300><img src=""static/images/keys/z.svg"" width=""35%"" height=""75%""></img></td>
    <td width=300></td>
  </tr>
</table>
  ",90.0,1.0,,,,,,,,,,,,,,,,,,,,,,,,,,
29,0,,html-keyboard-response,29,291047,0.0-4.1-2.1,jfg5etege3e,2022-09-19 14:54:07.444,6287745dd285a8be832879dc,1,57,21,38,5,31,Male,,,"
  <table>
  <tr height=300>
    <td width=300 height=300><img src=""static/images/cards/7_of_black_moons.svg"" width=""175px"" height=""250px""></img></td>
    <td width=300 height=300><img src=""static/images/cards/back_of_black_moons.svg"" width=""175px"" height=""250px""></img></td>
  </tr>
  <tr height=200>
    <td width=300><img src=""static/images/keys/z.svg"" width=""35%"" height=""75%""></img></td>
    <td width=300></td>
  </tr>
</table>
  ",,,,,,,,,,,,,,,,,,,,,,,,,,,,
30,0,,html-keyboard-response,30,292569,0.0-4.1-3.1,jfg5etege3e,2022-09-19 14:54:07.444,6287745dd285a8be832879dc,1,57,21,38,5,31,Male,,,"<p style=""font-size:50px"">You win!
+10 points this round!</p>",,,,,,,,,,,,,,,,,,,,,,,,,,,,
31,0,,html-keyboard-response,31,293077,0.0-4.1-4.1,jfg5etege3e,2022-09-19 14:54:07.444,6287745dd285a8be832879dc,1,57,21,38,5,31,Male,,,,,,1.0,learning,1.0,B,,black,,moons,,,,B,black,moons,,0.0,1.0,1,left,885.5,7.0,1.0,1.0,,,
32,0,,html-keyboard-response,32,294585,0.0-4.2-0.2,jfg5etege3e,2022-09-19 14:54:07.444,6287745dd285a8be832879dc,1,57,21,38,5,31,Male,,,"<img src=""static/images/cards/stack_of_red_stars.svg"" width=""175px"" height=""250px""></img>",,,,,,,,,,,,,,,,,,,,,,,,,,,,
33,0,,html-keyboard-response,33,295891,0.0-4.2-1.2,jfg5etege3e,2022-09-19 14:54:07.444,6287745dd285a8be832879dc,1,57,21,38,5,31,Male,801.1999999881,,"
  <table>
  <tr height=300>
    <td width=300 height=300><img src=""static/images/cards/back_of_red_stars.svg"" width=""175px"" height=""250px""></img></td>
    <td width=300 height=300><img src=""static/images/cards/back_of_red_stars.svg"" width=""175px"" height=""250px""></img></td>
  </tr>
  <tr height=200>
    <td width=300><img src=""static/images/keys/z.svg"" width=""35%"" height=""75%""></img></td>
    <td width=300><img src=""static/images/keys/m.svg"" width=""35%"" height=""75%""></img></td>
  </tr>
</table>
  ",77.0,1.0,,,,,,,,,,,,,,,,,,,,,,,,,,
34,0,,html-keyboard-response,34,297397,0.0-4.2-2.2,jfg5etege3e,2022-09-19 14:54:07.444,6287745dd285a8be832879dc,1,57,21,38,5,31,Male,,,"
  <table>
  <tr height=300>
    <td width=300 height=300><img src=""static/images/cards/back_of_red_stars.svg"" width=""175px"" height=""250px""></img></td>
    <td width=300 height=300><img src=""static/images/cards/6_of_red_stars.svg"" width=""175px"" height=""250px""></img></td>
  </tr>
  <tr height=200>
    <td width=300><img src=""static/images/keys/z.svg"" width=""35%"" height=""75%""></img></td>
    <td width=300><img src=""static/images/keys/m.svg"" width=""35%"" height=""75%""></img></td>
  </tr>
</table>
  ",,,,,,,,,,,,,,,,,,,,,,,,,,,,
35,0,,html-keyboard-response,35,298915,0.0-4.2-3.2,jfg5etege3e,2022-09-19 14:54:07.444,6287745dd285a8be832879dc,1,57,21,38,5,31,Male,,,"<p style=""font-size:50px"">You win!
+10 points this round!</p>",,,,,,,,,,,,,,,,,,,,,,,,,,,,
36,0,,html-keyboard-response,36,299421,0.0-4.2-4.2,jfg5etege3e,2022-09-19 14:54:07.444,6287745dd285a8be832879dc,1,57,21,38,5,31,Male,,,,,,1.0,learning,2.0,C,,red,,stars,,,,C,red,stars,,1.0,0.0,NA,right,801.1999999881,6.0,1.0,1.0,,,
37,0,,html-keyboard-response,37,300927,0.0-4.3-0.3,jfg5etege3e,2022-09-19 14:54:07.444,6287745dd285a8be832879dc,1,57,21,38,5,31,Male,,,"<img src=""static/images/cards/stack_of_black_stars.svg"" width=""175px"" height=""250px""></img>",,,,,,,,,,,,,,,,,,,,,,,,,,,,
38,0,,html-keyboard-response,38,302324,0.0-4.3-1.3,jfg5etege3e,2022-09-19 14:54:07.444,6287745dd285a8be832879dc,1,57,21,38,5,31,Male,892.0999999642,,"
  <table>
  <tr height=300>
    <td width=300 height=300><img src=""static/images/cards/back_of_black_stars.svg"" width=""175px"" height=""250px""></img></td>
    <td width=300 height=300><img src=""static/images/cards/back_of_black_stars.svg"" width=""175px"" height=""250px""></img></td>
  </tr>
  <tr height=200>
    <td width=300><img src=""static/images/keys/z.svg"" width=""35%"" height=""75%""></img></td>
    <td width=300></td>
  </tr>
</table>
  ",90.0,1.0,,,,,,,,,,,,,,,,,,,,,,,,,,
39,0,,html-keyboard-response,39,303829,0.0-4.3-2.3,jfg5etege3e,2022-09-19 14:54:07.444,6287745dd285a8be832879dc,1,57,21,38,5,31,Male,,,"
  <table>
  <tr height=300>
    <td width=300 height=300><img src=""static/images/cards/7_of_black_stars.svg"" width=""175px"" height=""250px""></img></td>
    <td width=300 height=300><img src=""static/images/cards/back_of_black_stars.svg"" width=""175px"" height=""250px""></img></td>
  </tr>
  <tr height=200>
    <td width=300><img src=""static/images/keys/z.svg"" width=""35%"" height=""75%""></img></td>
    <td width=300></td>
  </tr>
</table>
  ",,,,,,,,,,,,,,,,,,,,,,,,,,,,
40,0,,html-keyboard-response,40,305349,0.0-4.3-3.3,jfg5etege3e,2022-09-19 14:54:07.444,6287745dd285a8be832879dc,1,57,21,38,5,31,Male,,,"<p style=""font-size:50px"">You win!
+10 points this round!</p>",,,,,,,,,,,,,,,,,,,,,,,,,,,,
41,0,,html-keyboard-response,41,305862,0.0-4.3-4.3,jfg5etege3e,2022-09-19 14:54:07.444,6287745dd285a8be832879dc,1,57,21,38,5,31,Male,,,,,,1.0,learning,3.0,D,,black,,stars,,,,D,black,stars,,0.0,0.0,1,left,892.0999999642,7.0,1.0,1.0,,,
42,0,,html-keyboard-response,42,307373,0.0-4.4-0.4,jfg5etege3e,2022-09-19 14:54:07.444,6287745dd285a8be832879dc,1,57,21,38,5,31,Male,,,"<img src=""static/images/cards/stack_of_red_bolts.svg"" width=""175px"" height=""250px""></img>",,,,,,,,,,,,,,,,,,,,,,,,,,,,
43,0,,html-keyboard-response,43,308390,0.0-4.4-1.4,jfg5etege3e,2022-09-19 14:54:07.444,6287745dd285a8be832879dc,1,57,21,38,5,31,Male,515.0,,"
  <table>
  <tr height=300>
    <td width=300 height=300><img src=""static/images/cards/back_of_red_bolts.svg"" width=""175px"" height=""250px""></img></td>
    <td width=300 height=300><img src=""static/images/cards/back_of_red_bolts.svg"" width=""175px"" height=""250px""></img></td>
  </tr>
  <tr height=200>
    <td width=300><img src=""static/images/keys/z.svg"" width=""35%"" height=""75%""></img></td>
    <td width=300><img src=""static/images/keys/m.svg"" width=""35%"" height=""75%""></img></td>
  </tr>
</table>
  ",90.0,1.0,,,,,,,,,,,,,,,,,,,,,,,,,,
44,0,,html-keyboard-response,44,309895,0.0-4.4-2.4,jfg5etege3e,2022-09-19 14:54:07.444,6287745dd285a8be832879dc,1,57,21,38,5,31,Male,,,"
  <table>
  <tr height=300>
    <td width=300 height=300><img src=""static/images/cards/8_of_red_bolts.svg"" width=""175px"" height=""250px""></img></td>
    <td width=300 height=300><img src=""static/images/cards/back_of_red_bolts.svg"" width=""175px"" height=""250px""></img></td>
  </tr>
  <tr height=200>
    <td width=300><img src=""static/images/keys/z.svg"" width=""35%"" height=""75%""></img></td>
    <td width=300><img src=""static/images/keys/m.svg"" width=""35%"" height=""75%""></img></td>
  </tr>
</table>
  ",,,,,,,,,,,,,,,,,,,,,,,,,,,,
45,0,,html-keyboard-response,45,311414,0.0-4.4-3.4,jfg5etege3e,2022-09-19 14:54:07.444,6287745dd285a8be832879dc,1,57,21,38,5,31,Male,,,"<p style=""font-size:50px"">You win!
+10 points this round!</p>",,,,,,,,,,,,,,,,,,,,,,,,,,,,
46,0,,html-keyboard-response,46,311925,0.0-4.4-4.4,jfg5etege3e,2022-09-19 14:54:07.444,6287745dd285a8be832879dc,1,57,21,38,5,31,Male,,,,,,1.0,learning,4.0,Xc,,red,,bolts,,,,Xc,red,bolts,,1.0,0.0,NA,left,515.0,8.0,1.0,1.0,,,
47,0,,html-keyboard-response,47,313437,0.0-4.5-0.5,jfg5etege3e,2022-09-19 14:54:07.444,6287745dd285a8be832879dc,1,57,21,38,5,31,Male,,,"<img src=""static/images/cards/stack_of_black_bolts.svg"" width=""175px"" height=""250px""></img>",,,,,,,,,,,,,,,,,,,,,,,,,,,,
48,0,,html-keyboard-response,48,314476,0.0-4.5-1.5,jfg5etege3e,2022-09-19 14:54:07.444,6287745dd285a8be832879dc,1,57,21,38,5,31,Male,532.6000000238,,"
  <table>
  <tr height=300>
    <td width=300 height=300><img src=""static/images/cards/back_of_black_bolts.svg"" width=""175px"" height=""250px""></img></td>
    <td width=300 height=300><img src=""static/images/cards/back_of_black_bolts.svg"" width=""175px"" height=""250px""></img></td>
  </tr>
  <tr height=200>
    <td width=300></td>
    <td width=300><img src=""static/images/keys/m.svg"" width=""35%"" height=""75%""></img></td>
  </tr>
</table>
  ",77.0,1.0,,,,,,,,,,,,,,,,,,,,,,,,,,
49,0,,html-keyboard-response,49,315993,0.0-4.5-2.5,jfg5etege3e,2022-09-19 14:54:07.444,6287745dd285a8be832879dc,1,57,21,38,5,31,Male,,,"
  <table>
  <tr height=300>
    <td width=300 height=300><img src=""static/images/cards/back_of_black_bolts.svg"" width=""175px"" height=""250px""></img></td>
    <td width=300 height=300><img src=""static/images/cards/1_of_black_bolts.svg"" width=""175px"" height=""250px""></img></td>
  </tr>
  <tr height=200>
    <td width=300></td>
    <td width=300><img src=""static/images/keys/m.svg"" width=""35%"" height=""75%""></img></td>
  </tr>
</table>
  ",,,,,,,,,,,,,,,,,,,,,,,,,,,,
50,0,,html-keyboard-response,50,317509,0.0-4.5-3.5,jfg5etege3e,2022-09-19 14:54:07.444,6287745dd285a8be832879dc,1,57,21,38,5,31,Male,,,"<p style=""font-size:50px"">You win!
+10 points this round!</p>",,,,,,,,,,,,,,,,,,,,,,,,,,,,
51,0,,html-keyboard-response,51,318017,0.0-4.5-4.5,jfg5etege3e,2022-09-19 14:54:07.444,6287745dd285a8be832879dc,1,57,21,38,5,31,Male,,,,,,1.0,learning,5.0,Xnc,,black,,bolts,,,,Xnc,black,bolts,,0.0,0.0,0,right,532.6000000238,1.0,0.0,1.0,,,
52,0,,html-keyboard-response,52,319527,0.0-4.6-0.6,jfg5etege3e,2022-09-19 14:54:07.444,6287745dd285a8be832879dc,1,57,21,38,5,31,Male,,,"<img src=""static/images/cards/stack_of_red_moons.svg"" width=""175px"" height=""250px""></img>",,,,,,,,,,,,,,,,,,,,,,,,,,,,
53,0,,html-keyboard-response,53,320757,0.0-4.6-1.6,jfg5etege3e,2022-09-19 14:54:07.444,6287745dd285a8be832879dc,1,57,21,38,5,31,Male,722.2999999523,,"
  <table>
  <tr height=300>
    <td width=300 height=300><img src=""static/images/cards/back_of_red_moons.svg"" width=""175px"" height=""250px""></img></td>
    <td width=300 height=300><img src=""static/images/cards/back_of_red_moons.svg"" width=""175px"" height=""250px""></img></td>
  </tr>
  <tr height=200>
    <td width=300><img src=""static/images/keys/z.svg"" width=""35%"" height=""75%""></img></td>
    <td width=300><img src=""static/images/keys/m.svg"" width=""35%"" height=""75%""></img></td>
  </tr>
</table>
  ",77.0,1.0,,,,,,,,,,,,,,,,,,,,,,,,,,
54,0,,html-keyboard-response,54,322267,0.0-4.6-2.6,jfg5etege3e,2022-09-19 14:54:07.444,6287745dd285a8be832879dc,1,57,21,38,5,31,Male,,,"
  <table>
  <tr height=300>
    <td width=300 height=300><img src=""static/images/cards/back_of_red_moons.svg"" width=""175px"" height=""250px""></img></td>
    <td width=300 height=300><img src=""static/images/cards/7_of_red_moons.svg"" width=""175px"" height=""250px""></img></td>
  </tr>
  <tr height=200>
    <td width=300><img src=""static/images/keys/z.svg"" width=""35%"" height=""75%""></img></td>
    <td width=300><img src=""static/images/keys/m.svg"" width=""35%"" height=""75%""></img></td>
  </tr>
</table>
  ",,,,,,,,,,,,,,,,,,,,,,,,,,,,
55,0,,html-keyboard-response,55,323786,0.0-4.6-3.6,jfg5etege3e,2022-09-19 14:54:07.444,6287745dd285a8be832879dc,1,57,21,38,5,31,Male,,,"<p style=""font-size:50px"">You win!
+10 points this round!</p>",,,,,,,,,,,,,,,,,,,,,,,,,,,,
56,0,,html-keyboard-response,56,324294,0.0-4.6-4.6,jfg5etege3e,2022-09-19 14:54:07.444,6287745dd285a8be832879dc,1,57,21,38,5,31,Male,,,,,,1.0,learning,6.0,A,,red,,moons,,,,A,red,moons,,1.0,1.0,NA,right,722.2999999523,7.0,1.0,1.0,,,
57,0,,html-keyboard-response,57,325808,0.0-4.7-0.7,jfg5etege3e,2022-09-19 14:54:07.444,6287745dd285a8be832879dc,1,57,21,38,5,31,Male,,,"<img src=""static/images/cards/stack_of_black_moons.svg"" width=""175px"" height=""250px""></img>",,,,,,,,,,,,,,,,,,,,,,,,,,,,
58,0,,html-keyboard-response,58,327145,0.0-4.7-1.7,jfg5etege3e,2022-09-19 14:54:07.444,6287745dd285a8be832879dc,1,57,21,38,5,31,Male,827.6000000238,,"
  <table>
  <tr height=300>
    <td width=300 height=300><img src=""static/images/cards/back_of_black_moons.svg"" width=""175px"" height=""250px""></img></td>
    <td width=300 height=300><img src=""static/images/cards/back_of_black_moons.svg"" width=""175px"" height=""250px""></img></td>
  </tr>
  <tr height=200>
    <td width=300></td>
    <td width=300><img src=""static/images/keys/m.svg"" width=""35%"" height=""75%""></img></td>
  </tr>
</table>
  ",77.0,1.0,,,,,,,,,,,,,,,,,,,,,,,,,,
59,0,,html-keyboard-response,59,328657,0.0-4.7-2.7,jfg5etege3e,2022-09-19 14:54:07.444,6287745dd285a8be832879dc,1,57,21,38,5,31,Male,,,"
  <table>
  <tr height=300>
    <td width=300 height=300><img src=""static/images/cards/back_of_black_moons.svg"" width=""175px"" height=""250px""></img></td>
    <td width=300 height=300><img src=""static/images/cards/6_of_black_moons.svg"" width=""175px"" height=""250px""></img></td>
  </tr>
  <tr height=200>
    <td width=300></td>
    <td width=300><img src=""static/images/keys/m.svg"" width=""35%"" height=""75%""></img></td>
  </tr>
</table>
  ",,,,,,,,,,,,,,,,,,,,,,,,,,,,
60,0,,html-keyboard-response,60,330172,0.0-4.7-3.7,jfg5etege3e,2022-09-19 14:54:07.444,6287745dd285a8be832879dc,1,57,21,38,5,31,Male,,,"<p style=""font-size:50px"">You win!
+10 points this round!</p>",,,,,,,,,,,,,,,,,,,,,,,,,,,,
61,0,,html-keyboard-response,61,330682,0.0-4.7-4.7,jfg5etege3e,2022-09-19 14:54:07.444,6287745dd285a8be832879dc,1,57,21,38,5,31,Male,,,,,,1.0,learning,7.0,B,,black,,moons,,,,B,black,moons,,0.0,1.0,0,right,827.6000000238,6.0,1.0,1.0,,,
62,0,,html-keyboard-response,62,332189,0.0-4.8-0.8,jfg5etege3e,2022-09-19 14:54:07.444,6287745dd285a8be832879dc,1,57,21,38,5,31,Male,,,"<img src=""static/images/cards/stack_of_red_stars.svg"" width=""175px"" height=""250px""></img>",,,,,,,,,,,,,,,,,,,,,,,,,,,,
63,0,,html-keyboard-response,63,333521,0.0-4.8-1.8,jfg5etege3e,2022-09-19 14:54:07.444,6287745dd285a8be832879dc,1,57,21,38,5,31,Male,825.9000000358,,"
  <table>
  <tr height=300>
    <td width=300 height=300><img src=""static/images/cards/back_of_red_stars.svg"" width=""175px"" height=""250px""></img></td>
    <td width=300 height=300><img src=""static/images/cards/back_of_red_stars.svg"" width=""175px"" height=""250px""></img></td>
  </tr>
  <tr height=200>
    <td width=300><img src=""static/images/keys/z.svg"" width=""35%"" height=""75%""></img></td>
    <td width=300><img src=""static/images/keys/m.svg"" width=""35%"" height=""75%""></img></td>
  </tr>
</table>
  ",77.0,1.0,,,,,,,,,,,,,,,,,,,,,,,,,,
64,0,,html-keyboard-response,64,335032,0.0-4.8-2.8,jfg5etege3e,2022-09-19 14:54:07.444,6287745dd285a8be832879dc,1,57,21,38,5,31,Male,,,"
  <table>
  <tr height=300>
    <td width=300 height=300><img src=""static/images/cards/back_of_red_stars.svg"" width=""175px"" height=""250px""></img></td>
    <td width=300 height=300><img src=""static/images/cards/9_of_red_stars.svg"" width=""175px"" height=""250px""></img></td>
  </tr>
  <tr height=200>
    <td width=300><img src=""static/images/keys/z.svg"" width=""35%"" height=""75%""></img></td>
    <td width=300><img src=""static/images/keys/m.svg"" width=""35%"" height=""75%""></img></td>
  </tr>
</table>
  ",,,,,,,,,,,,,,,,,,,,,,,,,,,,
65,0,,html-keyboard-response,65,336542,0.0-4.8-3.8,jfg5etege3e,2022-09-19 14:54:07.444,6287745dd285a8be832879dc,1,57,21,38,5,31,Male,,,"<p style=""font-size:50px"">You Lose!
No points this round.</p>",,,,,,,,,,,,,,,,,,,,,,,,,,,,
66,0,,html-keyboard-response,66,337055,0.0-4.8-4.8,jfg5etege3e,2022-09-19 14:54:07.444,6287745dd285a8be832879dc,1,57,21,38,5,31,Male,,,,,,1.0,learning,8.0,C,,red,,stars,,,,C,red,stars,,1.0,0.0,NA,right,825.9000000358,9.0,1.0,0.0,,,
67,0,,html-keyboard-response,67,338566,0.0-4.9-0.9,jfg5etege3e,2022-09-19 14:54:07.444,6287745dd285a8be832879dc,1,57,21,38,5,31,Male,,,"<img src=""static/images/cards/stack_of_black_stars.svg"" width=""175px"" height=""250px""></img>",,,,,,,,,,,,,,,,,,,,,,,,,,,,
68,0,,html-keyboard-response,68,339497,0.0-4.9-1.9,jfg5etege3e,2022-09-19 14:54:07.444,6287745dd285a8be832879dc,1,57,21,38,5,31,Male,422.4000000358,,"
  <table>
  <tr height=300>
    <td width=300 height=300><img src=""static/images/cards/back_of_black_stars.svg"" width=""175px"" height=""250px""></img></td>
    <td width=300 height=300><img src=""static/images/cards/back_of_black_stars.svg"" width=""175px"" height=""250px""></img></td>
  </tr>
  <tr height=200>
    <td width=300><img src=""static/images/keys/z.svg"" width=""35%"" height=""75%""></img></td>
    <td width=300></td>
  </tr>
</table>
  ",90.0,1.0,,,,,,,,,,,,,,,,,,,,,,,,,,
69,0,,html-keyboard-response,69,341001,0.0-4.9-2.9,jfg5etege3e,2022-09-19 14:54:07.444,6287745dd285a8be832879dc,1,57,21,38,5,31,Male,,,"
  <table>
  <tr height=300>
    <td width=300 height=300><img src=""static/images/cards/2_of_black_stars.svg"" width=""175px"" height=""250px""></img></td>
    <td width=300 height=300><img src=""static/images/cards/back_of_black_stars.svg"" width=""175px"" height=""250px""></img></td>
  </tr>
  <tr height=200>
    <td width=300><img src=""static/images/keys/z.svg"" width=""35%"" height=""75%""></img></td>
    <td width=300></td>
  </tr>
</table>
  ",,,,,,,,,,,,,,,,,,,,,,,,,,,,
70,0,,html-keyboard-response,70,342522,0.0-4.9-3.9,jfg5etege3e,2022-09-19 14:54:07.444,6287745dd285a8be832879dc,1,57,21,38,5,31,Male,,,"<p style=""font-size:50px"">You Lose!
No points this round.</p>",,,,,,,,,,,,,,,,,,,,,,,,,,,,
71,0,,html-keyboard-response,71,343029,0.0-4.9-4.9,jfg5etege3e,2022-09-19 14:54:07.444,6287745dd285a8be832879dc,1,57,21,38,5,31,Male,,,,,,1.0,learning,9.0,D,,black,,stars,,,,D,black,stars,,0.0,0.0,1,left,422.4000000358,2.0,0.0,0.0,,,
72,0,,html-keyboard-response,72,344544,0.0-4.10-0.10,jfg5etege3e,2022-09-19 14:54:07.444,6287745dd285a8be832879dc,1,57,21,38,5,31,Male,,,"<img src=""static/images/cards/stack_of_red_bolts.svg"" width=""175px"" height=""250px""></img>",,,,,,,,,,,,,,,,,,,,,,,,,,,,
73,0,,html-keyboard-response,73,345439,0.0-4.10-1.10,jfg5etege3e,2022-09-19 14:54:07.444,6287745dd285a8be832879dc,1,57,21,38,5,31,Male,386.1999999881,,"
  <table>
  <tr height=300>
    <td width=300 height=300><img src=""static/images/cards/back_of_red_bolts.svg"" width=""175px"" height=""250px""></img></td>
    <td width=300 height=300><img src=""static/images/cards/back_of_red_bolts.svg"" width=""175px"" height=""250px""></img></td>
  </tr>
  <tr height=200>
    <td width=300><img src=""static/images/keys/z.svg"" width=""35%"" height=""75%""></img></td>
    <td width=300><img src=""static/images/keys/m.svg"" width=""35%"" height=""75%""></img></td>
  </tr>
</table>
  ",77.0,1.0,,,,,,,,,,,,,,,,,,,,,,,,,,
74,0,,html-keyboard-response,74,346957,0.0-4.10-2.10,jfg5etege3e,2022-09-19 14:54:07.444,6287745dd285a8be832879dc,1,57,21,38,5,31,Male,,,"
  <table>
  <tr height=300>
    <td width=300 height=300><img src=""static/images/cards/back_of_red_bolts.svg"" width=""175px"" height=""250px""></img></td>
    <td width=300 height=300><img src=""static/images/cards/8_of_red_bolts.svg"" width=""175px"" height=""250px""></img></td>
  </tr>
  <tr height=200>
    <td width=300><img src=""static/images/keys/z.svg"" width=""35%"" height=""75%""></img></td>
    <td width=300><img src=""static/images/keys/m.svg"" width=""35%"" height=""75%""></img></td>
  </tr>
</table>
  ",,,,,,,,,,,,,,,,,,,,,,,,,,,,
75,0,,html-keyboard-response,75,348477,0.0-4.10-3.10,jfg5etege3e,2022-09-19 14:54:07.444,6287745dd285a8be832879dc,1,57,21,38,5,31,Male,,,"<p style=""font-size:50px"">You win!
+10 points this round!</p>",,,,,,,,,,,,,,,,,,,,,,,,,,,,
76,0,,html-keyboard-response,76,348991,0.0-4.10-4.10,jfg5etege3e,2022-09-19 14:54:07.444,6287745dd285a8be832879dc,1,57,21,38,5,31,Male,,,,,,1.0,learning,10.0,Xc,,red,,bolts,,,,Xc,red,bolts,,1.0,0.0,NA,right,386.1999999881,8.0,1.0,1.0,,,
77,0,,html-keyboard-response,77,350506,0.0-4.11-0.11,jfg5etege3e,2022-09-19 14:54:07.444,6287745dd285a8be832879dc,1,57,21,38,5,31,Male,,,"<img src=""static/images/cards/stack_of_black_bolts.svg"" width=""175px"" height=""250px""></img>",,,,,,,,,,,,,,,,,,,,,,,,,,,,
78,0,,html-keyboard-response,78,351477,0.0-4.11-1.11,jfg5etege3e,2022-09-19 14:54:07.444,6287745dd285a8be832879dc,1,57,21,38,5,31,Male,462.3999999762,,"
  <table>
  <tr height=300>
    <td width=300 height=300><img src=""static/images/cards/back_of_black_bolts.svg"" width=""175px"" height=""250px""></img></td>
    <td width=300 height=300><img src=""static/images/cards/back_of_black_bolts.svg"" width=""175px"" height=""250px""></img></td>
  </tr>
  <tr height=200>
    <td width=300><img src=""static/images/keys/z.svg"" width=""35%"" height=""75%""></img></td>
    <td width=300></td>
  </tr>
</table>
  ",90.0,1.0,,,,,,,,,,,,,,,,,,,,,,,,,,
79,0,,html-keyboard-response,79,352987,0.0-4.11-2.11,jfg5etege3e,2022-09-19 14:54:07.444,6287745dd285a8be832879dc,1,57,21,38,5,31,Male,,,"
  <table>
  <tr height=300>
    <td width=300 height=300><img src=""static/images/cards/7_of_black_bolts.svg"" width=""175px"" height=""250px""></img></td>
    <td width=300 height=300><img src=""static/images/cards/back_of_black_bolts.svg"" width=""175px"" height=""250px""></img></td>
  </tr>
  <tr height=200>
    <td width=300><img src=""static/images/keys/z.svg"" width=""35%"" height=""75%""></img></td>
    <td width=300></td>
  </tr>
</table>
  ",,,,,,,,,,,,,,,,,,,,,,,,,,,,
80,0,,html-keyboard-response,80,354509,0.0-4.11-3.11,jfg5etege3e,2022-09-19 14:54:07.444,6287745dd285a8be832879dc,1,57,21,38,5,31,Male,,,"<p style=""font-size:50px"">You win!
+10 points this round!</p>",,,,,,,,,,,,,,,,,,,,,,,,,,,,
81,0,,html-keyboard-response,81,355015,0.0-4.11-4.11,jfg5etege3e,2022-09-19 14:54:07.444,6287745dd285a8be832879dc,1,57,21,38,5,31,Male,,,,,,1.0,learning,11.0,Xnc,,black,,bolts,,,,Xnc,black,bolts,,0.0,0.0,1,left,462.3999999762,7.0,1.0,1.0,,,
82,0,,html-keyboard-response,82,356525,0.0-4.12-0.12,jfg5etege3e,2022-09-19 14:54:07.444,6287745dd285a8be832879dc,1,57,21,38,5,31,Male,,,"<img src=""static/images/cards/stack_of_red_moons.svg"" width=""175px"" height=""250px""></img>",,,,,,,,,,,,,,,,,,,,,,,,,,,,
83,0,,html-keyboard-response,83,357466,0.0-4.12-1.12,jfg5etege3e,2022-09-19 14:54:07.444,6287745dd285a8be832879dc,1,57,21,38,5,31,Male,435.6000000238,,"
  <table>
  <tr height=300>
    <td width=300 height=300><img src=""static/images/cards/back_of_red_moons.svg"" width=""175px"" height=""250px""></img></td>
    <td width=300 height=300><img src=""static/images/cards/back_of_red_moons.svg"" width=""175px"" height=""250px""></img></td>
  </tr>
  <tr height=200>
    <td width=300><img src=""static/images/keys/z.svg"" width=""35%"" height=""75%""></img></td>
    <td width=300><img src=""static/images/keys/m.svg"" width=""35%"" height=""75%""></img></td>
  </tr>
</table>
  ",90.0,1.0,,,,,,,,,,,,,,,,,,,,,,,,,,
84,0,,html-keyboard-response,84,358971,0.0-4.12-2.12,jfg5etege3e,2022-09-19 14:54:07.444,6287745dd285a8be832879dc,1,57,21,38,5,31,Male,,,"
  <table>
  <tr height=300>
    <td width=300 height=300><img src=""static/images/cards/8_of_red_moons.svg"" width=""175px"" height=""250px""></img></td>
    <td width=300 height=300><img src=""static/images/cards/back_of_red_moons.svg"" width=""175px"" height=""250px""></img></td>
  </tr>
  <tr height=200>
    <td width=300><img src=""static/images/keys/z.svg"" width=""35%"" height=""75%""></img></td>
    <td width=300><img src=""static/images/keys/m.svg"" width=""35%"" height=""75%""></img></td>
  </tr>
</table>
  ",,,,,,,,,,,,,,,,,,,,,,,,,,,,
85,0,,html-keyboard-response,85,360493,0.0-4.12-3.12,jfg5etege3e,2022-09-19 14:54:07.444,6287745dd285a8be832879dc,1,57,21,38,5,31,Male,,,"<p style=""font-size:50px"">You win!
+10 points this round!</p>",,,,,,,,,,,,,,,,,,,,,,,,,,,,
86,0,,html-keyboard-response,86,361000,0.0-4.12-4.12,jfg5etege3e,2022-09-19 14:54:07.444,6287745dd285a8be832879dc,1,57,21,38,5,31,Male,,,,,,1.0,learning,12.0,A,,red,,moons,,,,A,red,moons,,1.0,1.0,NA,left,435.6000000238,8.0,1.0,1.0,,,
87,0,,html-keyboard-response,87,362505,0.0-4.13-0.13,jfg5etege3e,2022-09-19 14:54:07.444,6287745dd285a8be832879dc,1,57,21,38,5,31,Male,,,"<img src=""static/images/cards/stack_of_black_moons.svg"" width=""175px"" height=""250px""></img>",,,,,,,,,,,,,,,,,,,,,,,,,,,,
88,0,,html-keyboard-response,88,363386,0.0-4.13-1.13,jfg5etege3e,2022-09-19 14:54:07.444,6287745dd285a8be832879dc,1,57,21,38,5,31,Male,374.1000000238,,"
  <table>
  <tr height=300>
    <td width=300 height=300><img src=""static/images/cards/back_of_black_moons.svg"" width=""175px"" height=""250px""></img></td>
    <td width=300 height=300><img src=""static/images/cards/back_of_black_moons.svg"" width=""175px"" height=""250px""></img></td>
  </tr>
  <tr height=200>
    <td width=300><img src=""static/images/keys/z.svg"" width=""35%"" height=""75%""></img></td>
    <td width=300></td>
  </tr>
</table>
  ",90.0,1.0,,,,,,,,,,,,,,,,,,,,,,,,,,
89,0,,html-keyboard-response,89,364889,0.0-4.13-2.13,jfg5etege3e,2022-09-19 14:54:07.444,6287745dd285a8be832879dc,1,57,21,38,5,31,Male,,,"
  <table>
  <tr height=300>
    <td width=300 height=300><img src=""static/images/cards/3_of_black_moons.svg"" width=""175px"" height=""250px""></img></td>
    <td width=300 height=300><img src=""static/images/cards/back_of_black_moons.svg"" width=""175px"" height=""250px""></img></td>
  </tr>
  <tr height=200>
    <td width=300><img src=""static/images/keys/z.svg"" width=""35%"" height=""75%""></img></td>
    <td width=300></td>
  </tr>
</table>
  ",,,,,,,,,,,,,,,,,,,,,,,,,,,,
90,0,,html-keyboard-response,90,366401,0.0-4.13-3.13,jfg5etege3e,2022-09-19 14:54:07.444,6287745dd285a8be832879dc,1,57,21,38,5,31,Male,,,"<p style=""font-size:50px"">You Lose!
No points this round.</p>",,,,,,,,,,,,,,,,,,,,,,,,,,,,
91,0,,html-keyboard-response,91,366908,0.0-4.13-4.13,jfg5etege3e,2022-09-19 14:54:07.444,6287745dd285a8be832879dc,1,57,21,38,5,31,Male,,,,,,1.0,learning,13.0,B,,black,,moons,,,,B,black,moons,,0.0,1.0,1,left,374.1000000238,3.0,0.0,0.0,,,
92,0,,html-keyboard-response,92,368416,0.0-4.14-0.14,jfg5etege3e,2022-09-19 14:54:07.444,6287745dd285a8be832879dc,1,57,21,38,5,31,Male,,,"<img src=""static/images/cards/stack_of_red_stars.svg"" width=""175px"" height=""250px""></img>",,,,,,,,,,,,,,,,,,,,,,,,,,,,
93,0,,html-keyboard-response,93,369559,0.0-4.14-1.14,jfg5etege3e,2022-09-19 14:54:07.444,6287745dd285a8be832879dc,1,57,21,38,5,31,Male,635.6999999881,,"
  <table>
  <tr height=300>
    <td width=300 height=300><img src=""static/images/cards/back_of_red_stars.svg"" width=""175px"" height=""250px""></img></td>
    <td width=300 height=300><img src=""static/images/cards/back_of_red_stars.svg"" width=""175px"" height=""250px""></img></td>
  </tr>
  <tr height=200>
    <td width=300><img src=""static/images/keys/z.svg"" width=""35%"" height=""75%""></img></td>
    <td width=300><img src=""static/images/keys/m.svg"" width=""35%"" height=""75%""></img></td>
  </tr>
</table>
  ",77.0,1.0,,,,,,,,,,,,,,,,,,,,,,,,,,
94,0,,html-keyboard-response,94,371064,0.0-4.14-2.14,jfg5etege3e,2022-09-19 14:54:07.444,6287745dd285a8be832879dc,1,57,21,38,5,31,Male,,,"
  <table>
  <tr height=300>
    <td width=300 height=300><img src=""static/images/cards/back_of_red_stars.svg"" width=""175px"" height=""250px""></img></td>
    <td width=300 height=300><img src=""static/images/cards/4_of_red_stars.svg"" width=""175px"" height=""250px""></img></td>
  </tr>
  <tr height=200>
    <td width=300><img src=""static/images/keys/z.svg"" width=""35%"" height=""75%""></img></td>
    <td width=300><img src=""static/images/keys/m.svg"" width=""35%"" height=""75%""></img></td>
  </tr>
</table>
  ",,,,,,,,,,,,,,,,,,,,,,,,,,,,
95,0,,html-keyboard-response,95,372580,0.0-4.14-3.14,jfg5etege3e,2022-09-19 14:54:07.444,6287745dd285a8be832879dc,1,57,21,38,5,31,Male,,,"<p style=""font-size:50px"">You win!
+10 points this round!</p>",,,,,,,,,,,,,,,,,,,,,,,,,,,,
96,0,,html-keyboard-response,96,373102,0.0-4.14-4.14,jfg5etege3e,2022-09-19 14:54:07.444,6287745dd285a8be832879dc,1,57,21,38,5,31,Male,,,,,,1.0,learning,14.0,C,,red,,stars,,,,C,red,stars,,1.0,0.0,NA,right,635.6999999881,4.0,0.0,1.0,,,
97,0,,html-keyboard-response,97,374609,0.0-4.15-0.15,jfg5etege3e,2022-09-19 14:54:07.444,6287745dd285a8be832879dc,1,57,21,38,5,31,Male,,,"<img src=""static/images/cards/stack_of_black_stars.svg"" width=""175px"" height=""250px""></img>",,,,,,,,,,,,,,,,,,,,,,,,,,,,
98,0,,html-keyboard-response,98,375569,0.0-4.15-1.15,jfg5etege3e,2022-09-19 14:54:07.444,6287745dd285a8be832879dc,1,57,21,38,5,31,Male,452.1000000238,,"
  <table>
  <tr height=300>
    <td width=300 height=300><img src=""static/images/cards/back_of_black_stars.svg"" width=""175px"" height=""250px""></img></td>
    <td width=300 height=300><img src=""static/images/cards/back_of_black_stars.svg"" width=""175px"" height=""250px""></img></td>
  </tr>
  <tr height=200>
    <td width=300><img src=""static/images/keys/z.svg"" width=""35%"" height=""75%""></img></td>
    <td width=300></td>
  </tr>
</table>
  ",90.0,1.0,,,,,,,,,,,,,,,,,,,,,,,,,,
99,0,,html-keyboard-response,99,377077,0.0-4.15-2.15,jfg5etege3e,2022-09-19 14:54:07.444,6287745dd285a8be832879dc,1,57,21,38,5,31,Male,,,"
  <table>
  <tr height=300>
    <td width=300 height=300><img src=""static/images/cards/8_of_black_stars.svg"" width=""175px"" height=""250px""></img></td>
    <td width=300 height=300><img src=""static/images/cards/back_of_black_stars.svg"" width=""175px"" height=""250px""></img></td>
  </tr>
  <tr height=200>
    <td width=300><img src=""static/images/keys/z.svg"" width=""35%"" height=""75%""></img></td>
    <td width=300></td>
  </tr>
</table>
  ",,,,,,,,,,,,,,,,,,,,,,,,,,,,
100,0,,html-keyboard-response,100,378598,0.0-4.15-3.15,jfg5etege3e,2022-09-19 14:54:07.444,6287745dd285a8be832879dc,1,57,21,38,5,31,Male,,,"<p style=""font-size:50px"">You Lose!
No points this round.</p>",,,,,,,,,,,,,,,,,,,,,,,,,,,,
101,0,,html-keyboard-response,101,379111,0.0-4.15-4.15,jfg5etege3e,2022-09-19 14:54:07.444,6287745dd285a8be832879dc,1,57,21,38,5,31,Male,,,,,,1.0,learning,15.0,D,,black,,stars,,,,D,black,stars,,0.0,0.0,1,left,452.1000000238,8.0,1.0,0.0,,,
102,0,,html-keyboard-response,102,380621,0.0-4.16-0.16,jfg5etege3e,2022-09-19 14:54:07.444,6287745dd285a8be832879dc,1,57,21,38,5,31,Male,,,"<img src=""static/images/cards/stack_of_red_bolts.svg"" width=""175px"" height=""250px""></img>",,,,,,,,,,,,,,,,,,,,,,,,,,,,
103,0,,html-keyboard-response,103,381515,0.0-4.16-1.16,jfg5etege3e,2022-09-19 14:54:07.444,6287745dd285a8be832879dc,1,57,21,38,5,31,Male,386.6000000238,,"
  <table>
  <tr height=300>
    <td width=300 height=300><img src=""static/images/cards/back_of_red_bolts.svg"" width=""175px"" height=""250px""></img></td>
    <td width=300 height=300><img src=""static/images/cards/back_of_red_bolts.svg"" width=""175px"" height=""250px""></img></td>
  </tr>
  <tr height=200>
    <td width=300><img src=""static/images/keys/z.svg"" width=""35%"" height=""75%""></img></td>
    <td width=300><img src=""static/images/keys/m.svg"" width=""35%"" height=""75%""></img></td>
  </tr>
</table>
  ",77.0,1.0,,,,,,,,,,,,,,,,,,,,,,,,,,
104,0,,html-keyboard-response,104,383027,0.0-4.16-2.16,jfg5etege3e,2022-09-19 14:54:07.444,6287745dd285a8be832879dc,1,57,21,38,5,31,Male,,,"
  <table>
  <tr height=300>
    <td width=300 height=300><img src=""static/images/cards/back_of_red_bolts.svg"" width=""175px"" height=""250px""></img></td>
    <td width=300 height=300><img src=""static/images/cards/4_of_red_bolts.svg"" width=""175px"" height=""250px""></img></td>
  </tr>
  <tr height=200>
    <td width=300><img src=""static/images/keys/z.svg"" width=""35%"" height=""75%""></img></td>
    <td width=300><img src=""static/images/keys/m.svg"" width=""35%"" height=""75%""></img></td>
  </tr>
</table>
  ",,,,,,,,,,,,,,,,,,,,,,,,,,,,
105,0,,html-keyboard-response,105,384545,0.0-4.16-3.16,jfg5etege3e,2022-09-19 14:54:07.444,6287745dd285a8be832879dc,1,57,21,38,5,31,Male,,,"<p style=""font-size:50px"">You win!
+10 points this round!</p>",,,,,,,,,,,,,,,,,,,,,,,,,,,,
106,0,,html-keyboard-response,106,385056,0.0-4.16-4.16,jfg5etege3e,2022-09-19 14:54:07.444,6287745dd285a8be832879dc,1,57,21,38,5,31,Male,,,,,,1.0,learning,16.0,Xc,,red,,bolts,,,,Xc,red,bolts,,1.0,0.0,NA,right,386.6000000238,4.0,0.0,1.0,,,
107,0,,html-keyboard-response,107,386568,0.0-4.17-0.17,jfg5etege3e,2022-09-19 14:54:07.444,6287745dd285a8be832879dc,1,57,21,38,5,31,Male,,,"<img src=""static/images/cards/stack_of_black_bolts.svg"" width=""175px"" height=""250px""></img>",,,,,,,,,,,,,,,,,,,,,,,,,,,,
108,0,,html-keyboard-response,108,387763,0.0-4.17-1.17,jfg5etege3e,2022-09-19 14:54:07.444,6287745dd285a8be832879dc,1,57,21,38,5,31,Male,689.3000000119,,"
  <table>
  <tr height=300>
    <td width=300 height=300><img src=""static/images/cards/back_of_black_bolts.svg"" width=""175px"" height=""250px""></img></td>
    <td width=300 height=300><img src=""static/images/cards/back_of_black_bolts.svg"" width=""175px"" height=""250px""></img></td>
  </tr>
  <tr height=200>
    <td width=300></td>
    <td width=300><img src=""static/images/keys/m.svg"" width=""35%"" height=""75%""></img></td>
  </tr>
</table>
  ",77.0,1.0,,,,,,,,,,,,,,,,,,,,,,,,,,
109,0,,html-keyboard-response,109,389270,0.0-4.17-2.17,jfg5etege3e,2022-09-19 14:54:07.444,6287745dd285a8be832879dc,1,57,21,38,5,31,Male,,,"
  <table>
  <tr height=300>
    <td width=300 height=300><img src=""static/images/cards/back_of_black_bolts.svg"" width=""175px"" height=""250px""></img></td>
    <td width=300 height=300><img src=""static/images/cards/3_of_black_bolts.svg"" width=""175px"" height=""250px""></img></td>
  </tr>
  <tr height=200>
    <td width=300></td>
    <td width=300><img src=""static/images/keys/m.svg"" width=""35%"" height=""75%""></img></td>
  </tr>
</table>
  ",,,,,,,,,,,,,,,,,,,,,,,,,,,,
110,0,,html-keyboard-response,110,390790,0.0-4.17-3.17,jfg5etege3e,2022-09-19 14:54:07.444,6287745dd285a8be832879dc,1,57,21,38,5,31,Male,,,"<p style=""font-size:50px"">You win!
+10 points this round!</p>",,,,,,,,,,,,,,,,,,,,,,,,,,,,
111,0,,html-keyboard-response,111,391298,0.0-4.17-4.17,jfg5etege3e,2022-09-19 14:54:07.444,6287745dd285a8be832879dc,1,57,21,38,5,31,Male,,,,,,1.0,learning,17.0,Xnc,,black,,bolts,,,,Xnc,black,bolts,,0.0,0.0,0,right,689.3000000119,3.0,0.0,1.0,,,
112,0,,html-keyboard-response,112,392805,0.0-4.18-0.18,jfg5etege3e,2022-09-19 14:54:07.444,6287745dd285a8be832879dc,1,57,21,38,5,31,Male,,,"<img src=""static/images/cards/stack_of_red_moons.svg"" width=""175px"" height=""250px""></img>",,,,,,,,,,,,,,,,,,,,,,,,,,,,
113,0,,html-keyboard-response,113,393996,0.0-4.18-1.18,jfg5etege3e,2022-09-19 14:54:07.444,6287745dd285a8be832879dc,1,57,21,38,5,31,Male,685.4000000358,,"
  <table>
  <tr height=300>
    <td width=300 height=300><img src=""static/images/cards/back_of_red_moons.svg"" width=""175px"" height=""250px""></img></td>
    <td width=300 height=300><img src=""static/images/cards/back_of_red_moons.svg"" width=""175px"" height=""250px""></img></td>
  </tr>
  <tr height=200>
    <td width=300><img src=""static/images/keys/z.svg"" width=""35%"" height=""75%""></img></td>
    <td width=300><img src=""static/images/keys/m.svg"" width=""35%"" height=""75%""></img></td>
  </tr>
</table>
  ",77.0,1.0,,,,,,,,,,,,,,,,,,,,,,,,,,
114,0,,html-keyboard-response,114,395505,0.0-4.18-2.18,jfg5etege3e,2022-09-19 14:54:07.444,6287745dd285a8be832879dc,1,57,21,38,5,31,Male,,,"
  <table>
  <tr height=300>
    <td width=300 height=300><img src=""static/images/cards/back_of_red_moons.svg"" width=""175px"" height=""250px""></img></td>
    <td width=300 height=300><img src=""static/images/cards/2_of_red_moons.svg"" width=""175px"" height=""250px""></img></td>
  </tr>
  <tr height=200>
    <td width=300><img src=""static/images/keys/z.svg"" width=""35%"" height=""75%""></img></td>
    <td width=300><img src=""static/images/keys/m.svg"" width=""35%"" height=""75%""></img></td>
  </tr>
</table>
  ",,,,,,,,,,,,,,,,,,,,,,,,,,,,
115,0,,html-keyboard-response,115,397022,0.0-4.18-3.18,jfg5etege3e,2022-09-19 14:54:07.444,6287745dd285a8be832879dc,1,57,21,38,5,31,Male,,,"<p style=""font-size:50px"">You Lose!
No points this round.</p>",,,,,,,,,,,,,,,,,,,,,,,,,,,,
116,0,,html-keyboard-response,116,397531,0.0-4.18-4.18,jfg5etege3e,2022-09-19 14:54:07.444,6287745dd285a8be832879dc,1,57,21,38,5,31,Male,,,,,,1.0,learning,18.0,A,,red,,moons,,,,A,red,moons,,1.0,1.0,NA,right,685.4000000358,2.0,0.0,0.0,,,
117,0,,html-keyboard-response,117,399040,0.0-4.19-0.19,jfg5etege3e,2022-09-19 14:54:07.444,6287745dd285a8be832879dc,1,57,21,38,5,31,Male,,,"<img src=""static/images/cards/stack_of_black_moons.svg"" width=""175px"" height=""250px""></img>",,,,,,,,,,,,,,,,,,,,,,,,,,,,
118,0,,html-keyboard-response,118,400150,0.0-4.19-1.19,jfg5etege3e,2022-09-19 14:54:07.444,6287745dd285a8be832879dc,1,57,21,38,5,31,Male,604.3000000119,,"
  <table>
  <tr height=300>
    <td width=300 height=300><img src=""static/images/cards/back_of_black_moons.svg"" width=""175px"" height=""250px""></img></td>
    <td width=300 height=300><img src=""static/images/cards/back_of_black_moons.svg"" width=""175px"" height=""250px""></img></td>
  </tr>
  <tr height=200>
    <td width=300></td>
    <td width=300><img src=""static/images/keys/m.svg"" width=""35%"" height=""75%""></img></td>
  </tr>
</table>
  ",77.0,1.0,,,,,,,,,,,,,,,,,,,,,,,,,,
119,0,,html-keyboard-response,119,401662,0.0-4.19-2.19,jfg5etege3e,2022-09-19 14:54:07.444,6287745dd285a8be832879dc,1,57,21,38,5,31,Male,,,"
  <table>
  <tr height=300>
    <td width=300 height=300><img src=""static/images/cards/back_of_black_moons.svg"" width=""175px"" height=""250px""></img></td>
    <td width=300 height=300><img src=""static/images/cards/3_of_black_moons.svg"" width=""175px"" height=""250px""></img></td>
  </tr>
  <tr height=200>
    <td width=300></td>
    <td width=300><img src=""static/images/keys/m.svg"" width=""35%"" height=""75%""></img></td>
  </tr>
</table>
  ",,,,,,,,,,,,,,,,,,,,,,,,,,,,
120,0,,html-keyboard-response,120,403177,0.0-4.19-3.19,jfg5etege3e,2022-09-19 14:54:07.444,6287745dd285a8be832879dc,1,57,21,38,5,31,Male,,,"<p style=""font-size:50px"">You Lose!
No points this round.</p>",,,,,,,,,,,,,,,,,,,,,,,,,,,,
121,0,,html-keyboard-response,121,403688,0.0-4.19-4.19,jfg5etege3e,2022-09-19 14:54:07.444,6287745dd285a8be832879dc,1,57,21,38,5,31,Male,,,,,,1.0,learning,19.0,B,,black,,moons,,,,B,black,moons,,0.0,1.0,0,right,604.3000000119,3.0,0.0,0.0,,,
122,0,,html-keyboard-response,122,405202,0.0-4.20-0.20,jfg5etege3e,2022-09-19 14:54:07.444,6287745dd285a8be832879dc,1,57,21,38,5,31,Male,,,"<img src=""static/images/cards/stack_of_red_stars.svg"" width=""175px"" height=""250px""></img>",,,,,,,,,,,,,,,,,,,,,,,,,,,,
123,0,,html-keyboard-response,123,406313,0.0-4.20-1.20,jfg5etege3e,2022-09-19 14:54:07.444,6287745dd285a8be832879dc,1,57,21,38,5,31,Male,602.5,,"
  <table>
  <tr height=300>
    <td width=300 height=300><img src=""static/images/cards/back_of_red_stars.svg"" width=""175px"" height=""250px""></img></td>
    <td width=300 height=300><img src=""static/images/cards/back_of_red_stars.svg"" width=""175px"" height=""250px""></img></td>
  </tr>
  <tr height=200>
    <td width=300><img src=""static/images/keys/z.svg"" width=""35%"" height=""75%""></img></td>
    <td width=300><img src=""static/images/keys/m.svg"" width=""35%"" height=""75%""></img></td>
  </tr>
</table>
  ",90.0,1.0,,,,,,,,,,,,,,,,,,,,,,,,,,
124,0,,html-keyboard-response,124,407822,0.0-4.20-2.20,jfg5etege3e,2022-09-19 14:54:07.444,6287745dd285a8be832879dc,1,57,21,38,5,31,Male,,,"
  <table>
  <tr height=300>
    <td width=300 height=300><img src=""static/images/cards/2_of_red_stars.svg"" width=""175px"" height=""250px""></img></td>
    <td width=300 height=300><img src=""static/images/cards/back_of_red_stars.svg"" width=""175px"" height=""250px""></img></td>
  </tr>
  <tr height=200>
    <td width=300><img src=""static/images/keys/z.svg"" width=""35%"" height=""75%""></img></td>
    <td width=300><img src=""static/images/keys/m.svg"" width=""35%"" height=""75%""></img></td>
  </tr>
</table>
  ",,,,,,,,,,,,,,,,,,,,,,,,,,,,
125,0,,html-keyboard-response,125,409338,0.0-4.20-3.20,jfg5etege3e,2022-09-19 14:54:07.444,6287745dd285a8be832879dc,1,57,21,38,5,31,Male,,,"<p style=""font-size:50px"">You Lose!
No points this round.</p>",,,,,,,,,,,,,,,,,,,,,,,,,,,,
126,0,,html-keyboard-response,126,409845,0.0-4.20-4.20,jfg5etege3e,2022-09-19 14:54:07.444,6287745dd285a8be832879dc,1,57,21,38,5,31,Male,,,,,,1.0,learning,20.0,C,,red,,stars,,,,C,red,stars,,1.0,0.0,NA,left,602.5,2.0,0.0,0.0,,,
127,0,,html-keyboard-response,127,411356,0.0-4.21-0.21,jfg5etege3e,2022-09-19 14:54:07.444,6287745dd285a8be832879dc,1,57,21,38,5,31,Male,,,"<img src=""static/images/cards/stack_of_black_stars.svg"" width=""175px"" height=""250px""></img>",,,,,,,,,,,,,,,,,,,,,,,,,,,,
128,0,,html-keyboard-response,128,412405,0.0-4.21-1.21,jfg5etege3e,2022-09-19 14:54:07.444,6287745dd285a8be832879dc,1,57,21,38,5,31,Male,546.5999999642,,"
  <table>
  <tr height=300>
    <td width=300 height=300><img src=""static/images/cards/back_of_black_stars.svg"" width=""175px"" height=""250px""></img></td>
    <td width=300 height=300><img src=""static/images/cards/back_of_black_stars.svg"" width=""175px"" height=""250px""></img></td>
  </tr>
  <tr height=200>
    <td width=300><img src=""static/images/keys/z.svg"" width=""35%"" height=""75%""></img></td>
    <td width=300></td>
  </tr>
</table>
  ",90.0,1.0,,,,,,,,,,,,,,,,,,,,,,,,,,
129,0,,html-keyboard-response,129,413913,0.0-4.21-2.21,jfg5etege3e,2022-09-19 14:54:07.444,6287745dd285a8be832879dc,1,57,21,38,5,31,Male,,,"
  <table>
  <tr height=300>
    <td width=300 height=300><img src=""static/images/cards/3_of_black_stars.svg"" width=""175px"" height=""250px""></img></td>
    <td width=300 height=300><img src=""static/images/cards/back_of_black_stars.svg"" width=""175px"" height=""250px""></img></td>
  </tr>
  <tr height=200>
    <td width=300><img src=""static/images/keys/z.svg"" width=""35%"" height=""75%""></img></td>
    <td width=300></td>
  </tr>
</table>
  ",,,,,,,,,,,,,,,,,,,,,,,,,,,,
130,0,,html-keyboard-response,130,415429,0.0-4.21-3.21,jfg5etege3e,2022-09-19 14:54:07.444,6287745dd285a8be832879dc,1,57,21,38,5,31,Male,,,"<p style=""font-size:50px"">You win!
+10 points this round!</p>",,,,,,,,,,,,,,,,,,,,,,,,,,,,
131,0,,html-keyboard-response,131,415938,0.0-4.21-4.21,jfg5etege3e,2022-09-19 14:54:07.444,6287745dd285a8be832879dc,1,57,21,38,5,31,Male,,,,,,1.0,learning,21.0,D,,black,,stars,,,,D,black,stars,,0.0,0.0,1,left,546.5999999642,3.0,0.0,1.0,,,
132,0,,html-keyboard-response,132,417452,0.0-4.22-0.22,jfg5etege3e,2022-09-19 14:54:07.444,6287745dd285a8be832879dc,1,57,21,38,5,31,Male,,,"<img src=""static/images/cards/stack_of_red_bolts.svg"" width=""175px"" height=""250px""></img>",,,,,,,,,,,,,,,,,,,,,,,,,,,,
133,0,,html-keyboard-response,133,418553,0.0-4.22-1.22,jfg5etege3e,2022-09-19 14:54:07.444,6287745dd285a8be832879dc,1,57,21,38,5,31,Male,594.8000000119,,"
  <table>
  <tr height=300>
    <td width=300 height=300><img src=""static/images/cards/back_of_red_bolts.svg"" width=""175px"" height=""250px""></img></td>
    <td width=300 height=300><img src=""static/images/cards/back_of_red_bolts.svg"" width=""175px"" height=""250px""></img></td>
  </tr>
  <tr height=200>
    <td width=300><img src=""static/images/keys/z.svg"" width=""35%"" height=""75%""></img></td>
    <td width=300><img src=""static/images/keys/m.svg"" width=""35%"" height=""75%""></img></td>
  </tr>
</table>
  ",90.0,1.0,,,,,,,,,,,,,,,,,,,,,,,,,,
134,0,,html-keyboard-response,134,420060,0.0-4.22-2.22,jfg5etege3e,2022-09-19 14:54:07.444,6287745dd285a8be832879dc,1,57,21,38,5,31,Male,,,"
  <table>
  <tr height=300>
    <td width=300 height=300><img src=""static/images/cards/1_of_red_bolts.svg"" width=""175px"" height=""250px""></img></td>
    <td width=300 height=300><img src=""static/images/cards/back_of_red_bolts.svg"" width=""175px"" height=""250px""></img></td>
  </tr>
  <tr height=200>
    <td width=300><img src=""static/images/keys/z.svg"" width=""35%"" height=""75%""></img></td>
    <td width=300><img src=""static/images/keys/m.svg"" width=""35%"" height=""75%""></img></td>
  </tr>
</table>
  ",,,,,,,,,,,,,,,,,,,,,,,,,,,,
135,0,,html-keyboard-response,135,421577,0.0-4.22-3.22,jfg5etege3e,2022-09-19 14:54:07.444,6287745dd285a8be832879dc,1,57,21,38,5,31,Male,,,"<p style=""font-size:50px"">You win!
+10 points this round!</p>",,,,,,,,,,,,,,,,,,,,,,,,,,,,
136,0,,html-keyboard-response,136,422089,0.0-4.22-4.22,jfg5etege3e,2022-09-19 14:54:07.444,6287745dd285a8be832879dc,1,57,21,38,5,31,Male,,,,,,1.0,learning,22.0,Xc,,red,,bolts,,,,Xc,red,bolts,,1.0,0.0,NA,left,594.8000000119,1.0,0.0,1.0,,,
137,0,,html-keyboard-response,137,423603,0.0-4.23-0.23,jfg5etege3e,2022-09-19 14:54:07.444,6287745dd285a8be832879dc,1,57,21,38,5,31,Male,,,"<img src=""static/images/cards/stack_of_black_bolts.svg"" width=""175px"" height=""250px""></img>",,,,,,,,,,,,,,,,,,,,,,,,,,,,
138,0,,html-keyboard-response,138,424477,0.0-4.23-1.23,jfg5etege3e,2022-09-19 14:54:07.444,6287745dd285a8be832879dc,1,57,21,38,5,31,Male,369.1999999881,,"
  <table>
  <tr height=300>
    <td width=300 height=300><img src=""static/images/cards/back_of_black_bolts.svg"" width=""175px"" height=""250px""></img></td>
    <td width=300 height=300><img src=""static/images/cards/back_of_black_bolts.svg"" width=""175px"" height=""250px""></img></td>
  </tr>
  <tr height=200>
    <td width=300><img src=""static/images/keys/z.svg"" width=""35%"" height=""75%""></img></td>
    <td width=300></td>
  </tr>
</table>
  ",90.0,1.0,,,,,,,,,,,,,,,,,,,,,,,,,,
139,0,,html-keyboard-response,139,425993,0.0-4.23-2.23,jfg5etege3e,2022-09-19 14:54:07.444,6287745dd285a8be832879dc,1,57,21,38,5,31,Male,,,"
  <table>
  <tr height=300>
    <td width=300 height=300><img src=""static/images/cards/9_of_black_bolts.svg"" width=""175px"" height=""250px""></img></td>
    <td width=300 height=300><img src=""static/images/cards/back_of_black_bolts.svg"" width=""175px"" height=""250px""></img></td>
  </tr>
  <tr height=200>
    <td width=300><img src=""static/images/keys/z.svg"" width=""35%"" height=""75%""></img></td>
    <td width=300></td>
  </tr>
</table>
  ",,,,,,,,,,,,,,,,,,,,,,,,,,,,
140,0,,html-keyboard-response,140,427511,0.0-4.23-3.23,jfg5etege3e,2022-09-19 14:54:07.444,6287745dd285a8be832879dc,1,57,21,38,5,31,Male,,,"<p style=""font-size:50px"">You win!
+10 points this round!</p>",,,,,,,,,,,,,,,,,,,,,,,,,,,,
141,0,,html-keyboard-response,141,428018,0.0-4.23-4.23,jfg5etege3e,2022-09-19 14:54:07.444,6287745dd285a8be832879dc,1,57,21,38,5,31,Male,,,,,,1.0,learning,23.0,Xnc,,black,,bolts,,,,Xnc,black,bolts,,0.0,0.0,1,left,369.1999999881,9.0,1.0,1.0,,,
142,0,,call-function,142,428023,0.0-5.0,jfg5etege3e,2022-09-19 14:54:07.444,6287745dd285a8be832879dc,1,57,21,38,5,31,Male,,,,,,,,,,,,,,,,,,,,,,,,,,,,,,,
143,0,,image-keyboard-response,143,437164,0.0-6.0-0.0,jfg5etege3e,2022-09-19 14:54:07.444,6287745dd285a8be832879dc,1,57,21,38,5,31,Male,9139.6999999881,,static/images/instructions_CB_1/Slide20.png,39.0,,,,,,,,,,,,,,,,,,,,,,,,,,,
144,0,,image-keyboard-response,144,455714,0.0-6.1-0.1,jfg5etege3e,2022-09-19 14:54:07.444,6287745dd285a8be832879dc,1,57,21,38,5,31,Male,18549.9000000358,,static/images/instructions_CB_1/Slide21.png,39.0,,,,,,,,,,,,,,,,,,,,,,,,,,,
145,0,,image-keyboard-response,145,476765,0.0-6.2-0.2,jfg5etege3e,2022-09-19 14:54:07.444,6287745dd285a8be832879dc,1,57,21,38,5,31,Male,21048.5,,static/images/instructions_CB_1/Slide22.png,39.0,,,,,,,,,,,,,,,,,,,,,,,,,,,
146,0,,image-keyboard-response,146,503944,0.0-6.3-0.3,jfg5etege3e,2022-09-19 14:54:07.444,6287745dd285a8be832879dc,1,57,21,38,5,31,Male,27177.3999999762,,static/images/instructions_CB_1/Slide23.png,39.0,,,,,,,,,,,,,,,,,,,,,,,,,,,
147,0,,image-keyboard-response,147,512013,0.0-6.4-0.4,jfg5etege3e,2022-09-19 14:54:07.444,6287745dd285a8be832879dc,1,57,21,38,5,31,Male,8067.8000000119,,static/images/instructions_CB_1/Slide24.png,39.0,,,,,,,,,,,,,,,,,,,,,,,,,,,
148,0,,html-keyboard-response,148,514561,0.0-7.0-0.0,jfg5etege3e,2022-09-19 14:54:07.444,6287745dd285a8be832879dc,1,57,21,38,5,31,Male,2545.5,,"
  <table>
  <tr height=300>
    <td width=300 height=300><img src=""static/images/cards/stack_of_black_stars.svg"" width=""175px"" height=""250px""></img></td>
    <td width=300 height=300><img src=""static/images/cards/stack_of_red_stars.svg"" width=""175px"" height=""250px""></img></td>
  </tr>
  <tr height=200>
    <td width=300><img src=""static/images/keys/w.svg"" width=""35%"" height=""75%""></img></td>
    <td width=300><img src=""static/images/keys/o.svg"" width=""35%"" height=""75%""></img></td>
  </tr>
</table>
  ",79.0,1.0,,,,,,,,,,,,,,,,,,,,,,,,,,
149,0,,html-keyboard-response,149,515992,0.0-7.0-1.0,jfg5etege3e,2022-09-19 14:54:07.444,6287745dd285a8be832879dc,1,57,21,38,5,31,Male,915.7000000477,,"
  <table>
  <tr height=300>
    <td width=300 height=300><img src=""static/images/cards/back_of_red_stars.svg"" width=""175px"" height=""250px""></img></td>
    <td width=300 height=300><img src=""static/images/cards/back_of_red_stars.svg"" width=""175px"" height=""250px""></img></td>
  </tr>
  <tr height=200>
    <td width=300><img src=""static/images/keys/z.svg"" width=""35%"" height=""75%""></img></td>
    <td width=300><img src=""static/images/keys/m.svg"" width=""35%"" height=""75%""></img></td>
  </tr>
</table>
  ",77.0,1.0,,,,,,,,,,,,,,,,,,,,,,,,,,
150,0,,html-keyboard-response,150,517510,0.0-7.0-2.0,jfg5etege3e,2022-09-19 14:54:07.444,6287745dd285a8be832879dc,1,57,21,38,5,31,Male,,,"
  <table>
  <tr height=300>
    <td width=300 height=300><img src=""static/images/cards/back_of_red_stars.svg"" width=""175px"" height=""250px""></img></td>
    <td width=300 height=300><img src=""static/images/cards/6_of_red_stars.svg"" width=""175px"" height=""250px""></img></td>
  </tr>
  <tr height=200>
    <td width=300><img src=""static/images/keys/z.svg"" width=""35%"" height=""75%""></img></td>
    <td width=300><img src=""static/images/keys/m.svg"" width=""35%"" height=""75%""></img></td>
  </tr>
</table>
  ",,,,,,,,,,,,,,,,,,,,,,,,,,,,
151,0,,html-keyboard-response,151,519024,0.0-7.0-3.0,jfg5etege3e,2022-09-19 14:54:07.444,6287745dd285a8be832879dc,1,57,21,38,5,31,Male,,,"<p style=""font-size:50px"">You win!
+10 points this round!</p>",,,,,,,,,,,,,,,,,,,,,,,,,,,,
152,0,,html-keyboard-response,152,519536,0.0-7.0-4.0,jfg5etege3e,2022-09-19 14:54:07.444,6287745dd285a8be832879dc,1,57,21,38,5,31,Male,,,,,,1.0,choice,0.0,C,D,black,red,stars,stars,D,C,C,red,stars,2545.5,1.0,0.0,NA,right,915.7000000477,6.0,1.0,1.0,,,
153,0,,html-keyboard-response,153,521496,0.0-7.1-0.1,jfg5etege3e,2022-09-19 14:54:07.444,6287745dd285a8be832879dc,1,57,21,38,5,31,Male,1958.2000000477,,"
  <table>
  <tr height=300>
    <td width=300 height=300><img src=""static/images/cards/stack_of_red_moons.svg"" width=""175px"" height=""250px""></img></td>
    <td width=300 height=300><img src=""static/images/cards/stack_of_black_moons.svg"" width=""175px"" height=""250px""></img></td>
  </tr>
  <tr height=200>
    <td width=300><img src=""static/images/keys/w.svg"" width=""35%"" height=""75%""></img></td>
    <td width=300><img src=""static/images/keys/o.svg"" width=""35%"" height=""75%""></img></td>
  </tr>
</table>
  ",79.0,1.0,,,,,,,,,,,,,,,,,,,,,,,,,,
154,0,,html-keyboard-response,154,522992,0.0-7.1-1.1,jfg5etege3e,2022-09-19 14:54:07.444,6287745dd285a8be832879dc,1,57,21,38,5,31,Male,989.8000000119,,"
  <table>
  <tr height=300>
    <td width=300 height=300><img src=""static/images/cards/back_of_black_moons.svg"" width=""175px"" height=""250px""></img></td>
    <td width=300 height=300><img src=""static/images/cards/back_of_black_moons.svg"" width=""175px"" height=""250px""></img></td>
  </tr>
  <tr height=200>
    <td width=300></td>
    <td width=300><img src=""static/images/keys/m.svg"" width=""35%"" height=""75%""></img></td>
  </tr>
</table>
  ",77.0,1.0,,,,,,,,,,,,,,,,,,,,,,,,,,
155,0,,html-keyboard-response,155,524510,0.0-7.1-2.1,jfg5etege3e,2022-09-19 14:54:07.444,6287745dd285a8be832879dc,1,57,21,38,5,31,Male,,,"
  <table>
  <tr height=300>
    <td width=300 height=300><img src=""static/images/cards/back_of_black_moons.svg"" width=""175px"" height=""250px""></img></td>
    <td width=300 height=300><img src=""static/images/cards/1_of_black_moons.svg"" width=""175px"" height=""250px""></img></td>
  </tr>
  <tr height=200>
    <td width=300></td>
    <td width=300><img src=""static/images/keys/m.svg"" width=""35%"" height=""75%""></img></td>
  </tr>
</table>
  ",,,,,,,,,,,,,,,,,,,,,,,,,,,,
156,0,,html-keyboard-response,156,526020,0.0-7.1-3.1,jfg5etege3e,2022-09-19 14:54:07.444,6287745dd285a8be832879dc,1,57,21,38,5,31,Male,,,"<p style=""font-size:50px"">You Lose!
No points this round.</p>",,,,,,,,,,,,,,,,,,,,,,,,,,,,
157,0,,html-keyboard-response,157,526531,0.0-7.1-4.1,jfg5etege3e,2022-09-19 14:54:07.444,6287745dd285a8be832879dc,1,57,21,38,5,31,Male,,,,,,1.0,choice,1.0,A,B,red,black,moons,moons,A,B,B,black,moons,1958.2000000477,0.0,1.0,0,right,989.8000000119,1.0,0.0,0.0,,,
158,0,,html-keyboard-response,158,527955,0.0-7.2-0.2,jfg5etege3e,2022-09-19 14:54:07.444,6287745dd285a8be832879dc,1,57,21,38,5,31,Male,1421.5,,"
  <table>
  <tr height=300>
    <td width=300 height=300><img src=""static/images/cards/stack_of_black_moons.svg"" width=""175px"" height=""250px""></img></td>
    <td width=300 height=300><img src=""static/images/cards/stack_of_red_moons.svg"" width=""175px"" height=""250px""></img></td>
  </tr>
  <tr height=200>
    <td width=300><img src=""static/images/keys/w.svg"" width=""35%"" height=""75%""></img></td>
    <td width=300><img src=""static/images/keys/o.svg"" width=""35%"" height=""75%""></img></td>
  </tr>
</table>
  ",87.0,1.0,,,,,,,,,,,,,,,,,,,,,,,,,,
159,0,,html-keyboard-response,159,529176,0.0-7.2-1.2,jfg5etege3e,2022-09-19 14:54:07.444,6287745dd285a8be832879dc,1,57,21,38,5,31,Male,705.2999999523,,"
  <table>
  <tr height=300>
    <td width=300 height=300><img src=""static/images/cards/back_of_black_moons.svg"" width=""175px"" height=""250px""></img></td>
    <td width=300 height=300><img src=""static/images/cards/back_of_black_moons.svg"" width=""175px"" height=""250px""></img></td>
  </tr>
  <tr height=200>
    <td width=300></td>
    <td width=300><img src=""static/images/keys/m.svg"" width=""35%"" height=""75%""></img></td>
  </tr>
</table>
  ",77.0,1.0,,,,,,,,,,,,,,,,,,,,,,,,,,
160,0,,html-keyboard-response,160,530680,0.0-7.2-2.2,jfg5etege3e,2022-09-19 14:54:07.444,6287745dd285a8be832879dc,1,57,21,38,5,31,Male,,,"
  <table>
  <tr height=300>
    <td width=300 height=300><img src=""static/images/cards/back_of_black_moons.svg"" width=""175px"" height=""250px""></img></td>
    <td width=300 height=300><img src=""static/images/cards/2_of_black_moons.svg"" width=""175px"" height=""250px""></img></td>
  </tr>
  <tr height=200>
    <td width=300></td>
    <td width=300><img src=""static/images/keys/m.svg"" width=""35%"" height=""75%""></img></td>
  </tr>
</table>
  ",,,,,,,,,,,,,,,,,,,,,,,,,,,,
161,0,,html-keyboard-response,161,532192,0.0-7.2-3.2,jfg5etege3e,2022-09-19 14:54:07.444,6287745dd285a8be832879dc,1,57,21,38,5,31,Male,,,"<p style=""font-size:50px"">You Lose!
No points this round.</p>",,,,,,,,,,,,,,,,,,,,,,,,,,,,
162,0,,html-keyboard-response,162,532701,0.0-7.2-4.2,jfg5etege3e,2022-09-19 14:54:07.444,6287745dd285a8be832879dc,1,57,21,38,5,31,Male,,,,,,1.0,choice,2.0,A,B,black,red,moons,moons,B,A,B,black,moons,1421.5,0.0,1.0,0,right,705.2999999523,2.0,0.0,0.0,,,
163,0,,html-keyboard-response,163,534328,0.0-7.3-0.3,jfg5etege3e,2022-09-19 14:54:07.444,6287745dd285a8be832879dc,1,57,21,38,5,31,Male,1624.8000000119,,"
  <table>
  <tr height=300>
    <td width=300 height=300><img src=""static/images/cards/stack_of_black_stars.svg"" width=""175px"" height=""250px""></img></td>
    <td width=300 height=300><img src=""static/images/cards/stack_of_red_stars.svg"" width=""175px"" height=""250px""></img></td>
  </tr>
  <tr height=200>
    <td width=300><img src=""static/images/keys/w.svg"" width=""35%"" height=""75%""></img></td>
    <td width=300><img src=""static/images/keys/o.svg"" width=""35%"" height=""75%""></img></td>
  </tr>
</table>
  ",79.0,1.0,,,,,,,,,,,,,,,,,,,,,,,,,,
164,0,,html-keyboard-response,164,535689,0.0-7.3-1.3,jfg5etege3e,2022-09-19 14:54:07.444,6287745dd285a8be832879dc,1,57,21,38,5,31,Male,859.8000000119,,"
  <table>
  <tr height=300>
    <td width=300 height=300><img src=""static/images/cards/back_of_red_stars.svg"" width=""175px"" height=""250px""></img></td>
    <td width=300 height=300><img src=""static/images/cards/back_of_red_stars.svg"" width=""175px"" height=""250px""></img></td>
  </tr>
  <tr height=200>
    <td width=300><img src=""static/images/keys/z.svg"" width=""35%"" height=""75%""></img></td>
    <td width=300><img src=""static/images/keys/m.svg"" width=""35%"" height=""75%""></img></td>
  </tr>
</table>
  ",90.0,1.0,,,,,,,,,,,,,,,,,,,,,,,,,,
165,0,,html-keyboard-response,165,537202,0.0-7.3-2.3,jfg5etege3e,2022-09-19 14:54:07.444,6287745dd285a8be832879dc,1,57,21,38,5,31,Male,,,"
  <table>
  <tr height=300>
    <td width=300 height=300><img src=""static/images/cards/7_of_red_stars.svg"" width=""175px"" height=""250px""></img></td>
    <td width=300 height=300><img src=""static/images/cards/back_of_red_stars.svg"" width=""175px"" height=""250px""></img></td>
  </tr>
  <tr height=200>
    <td width=300><img src=""static/images/keys/z.svg"" width=""35%"" height=""75%""></img></td>
    <td width=300><img src=""static/images/keys/m.svg"" width=""35%"" height=""75%""></img></td>
  </tr>
</table>
  ",,,,,,,,,,,,,,,,,,,,,,,,,,,,
166,0,,html-keyboard-response,166,538717,0.0-7.3-3.3,jfg5etege3e,2022-09-19 14:54:07.444,6287745dd285a8be832879dc,1,57,21,38,5,31,Male,,,"<p style=""font-size:50px"">You Lose!
No points this round.</p>",,,,,,,,,,,,,,,,,,,,,,,,,,,,
167,0,,html-keyboard-response,167,539223,0.0-7.3-4.3,jfg5etege3e,2022-09-19 14:54:07.444,6287745dd285a8be832879dc,1,57,21,38,5,31,Male,,,,,,1.0,choice,3.0,C,D,black,red,stars,stars,D,C,C,red,stars,1624.8000000119,1.0,0.0,NA,left,859.8000000119,7.0,1.0,0.0,,,
168,0,,html-keyboard-response,168,540863,0.0-7.4-0.4,jfg5etege3e,2022-09-19 14:54:07.444,6287745dd285a8be832879dc,1,57,21,38,5,31,Male,1638.4000000358,,"
  <table>
  <tr height=300>
    <td width=300 height=300><img src=""static/images/cards/stack_of_red_moons.svg"" width=""175px"" height=""250px""></img></td>
    <td width=300 height=300><img src=""static/images/cards/stack_of_black_stars.svg"" width=""175px"" height=""250px""></img></td>
  </tr>
  <tr height=200>
    <td width=300><img src=""static/images/keys/w.svg"" width=""35%"" height=""75%""></img></td>
    <td width=300><img src=""static/images/keys/o.svg"" width=""35%"" height=""75%""></img></td>
  </tr>
</table>
  ",87.0,1.0,,,,,,,,,,,,,,,,,,,,,,,,,,
169,0,,html-keyboard-response,169,542178,0.0-7.4-1.4,jfg5etege3e,2022-09-19 14:54:07.444,6287745dd285a8be832879dc,1,57,21,38,5,31,Male,802.8999999762,,"
  <table>
  <tr height=300>
    <td width=300 height=300><img src=""static/images/cards/back_of_red_moons.svg"" width=""175px"" height=""250px""></img></td>
    <td width=300 height=300><img src=""static/images/cards/back_of_red_moons.svg"" width=""175px"" height=""250px""></img></td>
  </tr>
  <tr height=200>
    <td width=300><img src=""static/images/keys/z.svg"" width=""35%"" height=""75%""></img></td>
    <td width=300><img src=""static/images/keys/m.svg"" width=""35%"" height=""75%""></img></td>
  </tr>
</table>
  ",77.0,1.0,,,,,,,,,,,,,,,,,,,,,,,,,,
170,0,,html-keyboard-response,170,543681,0.0-7.4-2.4,jfg5etege3e,2022-09-19 14:54:07.444,6287745dd285a8be832879dc,1,57,21,38,5,31,Male,,,"
  <table>
  <tr height=300>
    <td width=300 height=300><img src=""static/images/cards/back_of_red_moons.svg"" width=""175px"" height=""250px""></img></td>
    <td width=300 height=300><img src=""static/images/cards/9_of_red_moons.svg"" width=""175px"" height=""250px""></img></td>
  </tr>
  <tr height=200>
    <td width=300><img src=""static/images/keys/z.svg"" width=""35%"" height=""75%""></img></td>
    <td width=300><img src=""static/images/keys/m.svg"" width=""35%"" height=""75%""></img></td>
  </tr>
</table>
  ",,,,,,,,,,,,,,,,,,,,,,,,,,,,
171,0,,html-keyboard-response,171,545197,0.0-7.4-3.4,jfg5etege3e,2022-09-19 14:54:07.444,6287745dd285a8be832879dc,1,57,21,38,5,31,Male,,,"<p style=""font-size:50px"">You win!
+10 points this round!</p>",,,,,,,,,,,,,,,,,,,,,,,,,,,,
172,0,,html-keyboard-response,172,545709,0.0-7.4-4.4,jfg5etege3e,2022-09-19 14:54:07.444,6287745dd285a8be832879dc,1,57,21,38,5,31,Male,,,,,,1.0,choice,4.0,A,D,red,black,moons,stars,A,D,A,red,moons,1638.4000000358,1.0,1.0,NA,right,802.8999999762,9.0,1.0,1.0,,,
173,0,,html-keyboard-response,173,547542,0.0-7.5-0.5,jfg5etege3e,2022-09-19 14:54:07.444,6287745dd285a8be832879dc,1,57,21,38,5,31,Male,1830.1999999881,,"
  <table>
  <tr height=300>
    <td width=300 height=300><img src=""static/images/cards/stack_of_black_moons.svg"" width=""175px"" height=""250px""></img></td>
    <td width=300 height=300><img src=""static/images/cards/stack_of_red_bolts.svg"" width=""175px"" height=""250px""></img></td>
  </tr>
  <tr height=200>
    <td width=300><img src=""static/images/keys/w.svg"" width=""35%"" height=""75%""></img></td>
    <td width=300><img src=""static/images/keys/o.svg"" width=""35%"" height=""75%""></img></td>
  </tr>
</table>
  ",79.0,1.0,,,,,,,,,,,,,,,,,,,,,,,,,,
174,0,,html-keyboard-response,174,548864,0.0-7.5-1.5,jfg5etege3e,2022-09-19 14:54:07.444,6287745dd285a8be832879dc,1,57,21,38,5,31,Male,811.9000000358,,"
  <table>
  <tr height=300>
    <td width=300 height=300><img src=""static/images/cards/back_of_red_bolts.svg"" width=""175px"" height=""250px""></img></td>
    <td width=300 height=300><img src=""static/images/cards/back_of_red_bolts.svg"" width=""175px"" height=""250px""></img></td>
  </tr>
  <tr height=200>
    <td width=300><img src=""static/images/keys/z.svg"" width=""35%"" height=""75%""></img></td>
    <td width=300><img src=""static/images/keys/m.svg"" width=""35%"" height=""75%""></img></td>
  </tr>
</table>
  ",77.0,1.0,,,,,,,,,,,,,,,,,,,,,,,,,,
175,0,,html-keyboard-response,175,550380,0.0-7.5-2.5,jfg5etege3e,2022-09-19 14:54:07.444,6287745dd285a8be832879dc,1,57,21,38,5,31,Male,,,"
  <table>
  <tr height=300>
    <td width=300 height=300><img src=""static/images/cards/back_of_red_bolts.svg"" width=""175px"" height=""250px""></img></td>
    <td width=300 height=300><img src=""static/images/cards/3_of_red_bolts.svg"" width=""175px"" height=""250px""></img></td>
  </tr>
  <tr height=200>
    <td width=300><img src=""static/images/keys/z.svg"" width=""35%"" height=""75%""></img></td>
    <td width=300><img src=""static/images/keys/m.svg"" width=""35%"" height=""75%""></img></td>
  </tr>
</table>
  ",,,,,,,,,,,,,,,,,,,,,,,,,,,,
176,0,,html-keyboard-response,176,551899,0.0-7.5-3.5,jfg5etege3e,2022-09-19 14:54:07.444,6287745dd285a8be832879dc,1,57,21,38,5,31,Male,,,"<p style=""font-size:50px"">You win!
+10 points this round!</p>",,,,,,,,,,,,,,,,,,,,,,,,,,,,
177,0,,html-keyboard-response,177,552406,0.0-7.5-4.5,jfg5etege3e,2022-09-19 14:54:07.444,6287745dd285a8be832879dc,1,57,21,38,5,31,Male,,,,,,1.0,choice,5.0,B,Xc,black,red,moons,bolts,B,Xc,Xc,red,bolts,1830.1999999881,1.0,0.0,NA,right,811.9000000358,3.0,0.0,1.0,,,
178,0,,html-keyboard-response,178,553884,0.0-7.6-0.6,jfg5etege3e,2022-09-19 14:54:07.444,6287745dd285a8be832879dc,1,57,21,38,5,31,Male,1475.5,,"
  <table>
  <tr height=300>
    <td width=300 height=300><img src=""static/images/cards/stack_of_red_stars.svg"" width=""175px"" height=""250px""></img></td>
    <td width=300 height=300><img src=""static/images/cards/stack_of_black_moons.svg"" width=""175px"" height=""250px""></img></td>
  </tr>
  <tr height=200>
    <td width=300><img src=""static/images/keys/w.svg"" width=""35%"" height=""75%""></img></td>
    <td width=300><img src=""static/images/keys/o.svg"" width=""35%"" height=""75%""></img></td>
  </tr>
</table>
  ",79.0,1.0,,,,,,,,,,,,,,,,,,,,,,,,,,
179,0,,html-keyboard-response,179,555210,0.0-7.6-1.6,jfg5etege3e,2022-09-19 14:54:07.444,6287745dd285a8be832879dc,1,57,21,38,5,31,Male,809.8999999762,,"
  <table>
  <tr height=300>
    <td width=300 height=300><img src=""static/images/cards/back_of_black_moons.svg"" width=""175px"" height=""250px""></img></td>
    <td width=300 height=300><img src=""static/images/cards/back_of_black_moons.svg"" width=""175px"" height=""250px""></img></td>
  </tr>
  <tr height=200>
    <td width=300><img src=""static/images/keys/z.svg"" width=""35%"" height=""75%""></img></td>
    <td width=300></td>
  </tr>
</table>
  ",90.0,1.0,,,,,,,,,,,,,,,,,,,,,,,,,,
180,0,,html-keyboard-response,180,556718,0.0-7.6-2.6,jfg5etege3e,2022-09-19 14:54:07.444,6287745dd285a8be832879dc,1,57,21,38,5,31,Male,,,"
  <table>
  <tr height=300>
    <td width=300 height=300><img src=""static/images/cards/7_of_black_moons.svg"" width=""175px"" height=""250px""></img></td>
    <td width=300 height=300><img src=""static/images/cards/back_of_black_moons.svg"" width=""175px"" height=""250px""></img></td>
  </tr>
  <tr height=200>
    <td width=300><img src=""static/images/keys/z.svg"" width=""35%"" height=""75%""></img></td>
    <td width=300></td>
  </tr>
</table>
  ",,,,,,,,,,,,,,,,,,,,,,,,,,,,
181,0,,html-keyboard-response,181,558231,0.0-7.6-3.6,jfg5etege3e,2022-09-19 14:54:07.444,6287745dd285a8be832879dc,1,57,21,38,5,31,Male,,,"<p style=""font-size:50px"">You win!
+10 points this round!</p>",,,,,,,,,,,,,,,,,,,,,,,,,,,,
182,0,,html-keyboard-response,182,558743,0.0-7.6-4.6,jfg5etege3e,2022-09-19 14:54:07.444,6287745dd285a8be832879dc,1,57,21,38,5,31,Male,,,,,,1.0,choice,6.0,B,C,red,black,stars,moons,C,B,B,black,moons,1475.5,0.0,1.0,1,left,809.8999999762,7.0,1.0,1.0,,,
183,0,,html-keyboard-response,183,560246,0.0-7.7-0.7,jfg5etege3e,2022-09-19 14:54:07.444,6287745dd285a8be832879dc,1,57,21,38,5,31,Male,1501.1000000238,,"
  <table>
  <tr height=300>
    <td width=300 height=300><img src=""static/images/cards/stack_of_black_stars.svg"" width=""175px"" height=""250px""></img></td>
    <td width=300 height=300><img src=""static/images/cards/stack_of_black_moons.svg"" width=""175px"" height=""250px""></img></td>
  </tr>
  <tr height=200>
    <td width=300><img src=""static/images/keys/w.svg"" width=""35%"" height=""75%""></img></td>
    <td width=300><img src=""static/images/keys/o.svg"" width=""35%"" height=""75%""></img></td>
  </tr>
</table>
  ",79.0,1.0,,,,,,,,,,,,,,,,,,,,,,,,,,
184,0,,html-keyboard-response,184,561332,0.0-7.7-1.7,jfg5etege3e,2022-09-19 14:54:07.444,6287745dd285a8be832879dc,1,57,21,38,5,31,Male,584.0999999642,,"
  <table>
  <tr height=300>
    <td width=300 height=300><img src=""static/images/cards/back_of_black_moons.svg"" width=""175px"" height=""250px""></img></td>
    <td width=300 height=300><img src=""static/images/cards/back_of_black_moons.svg"" width=""175px"" height=""250px""></img></td>
  </tr>
  <tr height=200>
    <td width=300></td>
    <td width=300><img src=""static/images/keys/m.svg"" width=""35%"" height=""75%""></img></td>
  </tr>
</table>
  ",77.0,1.0,,,,,,,,,,,,,,,,,,,,,,,,,,
185,0,,html-keyboard-response,185,562843,0.0-7.7-2.7,jfg5etege3e,2022-09-19 14:54:07.444,6287745dd285a8be832879dc,1,57,21,38,5,31,Male,,,"
  <table>
  <tr height=300>
    <td width=300 height=300><img src=""static/images/cards/back_of_black_moons.svg"" width=""175px"" height=""250px""></img></td>
    <td width=300 height=300><img src=""static/images/cards/3_of_black_moons.svg"" width=""175px"" height=""250px""></img></td>
  </tr>
  <tr height=200>
    <td width=300></td>
    <td width=300><img src=""static/images/keys/m.svg"" width=""35%"" height=""75%""></img></td>
  </tr>
</table>
  ",,,,,,,,,,,,,,,,,,,,,,,,,,,,
186,0,,html-keyboard-response,186,564360,0.0-7.7-3.7,jfg5etege3e,2022-09-19 14:54:07.444,6287745dd285a8be832879dc,1,57,21,38,5,31,Male,,,"<p style=""font-size:50px"">You Lose!
No points this round.</p>",,,,,,,,,,,,,,,,,,,,,,,,,,,,
187,0,,html-keyboard-response,187,564869,0.0-7.7-4.7,jfg5etege3e,2022-09-19 14:54:07.444,6287745dd285a8be832879dc,1,57,21,38,5,31,Male,,,,,,1.0,choice,7.0,B,D,black,black,stars,moons,D,B,B,black,moons,1501.1000000238,0.0,1.0,0,right,584.0999999642,3.0,0.0,0.0,,,
188,0,,html-keyboard-response,188,566224,0.0-7.8-0.8,jfg5etege3e,2022-09-19 14:54:07.444,6287745dd285a8be832879dc,1,57,21,38,5,31,Male,1353.3000000119,,"
  <table>
  <tr height=300>
    <td width=300 height=300><img src=""static/images/cards/stack_of_black_stars.svg"" width=""175px"" height=""250px""></img></td>
    <td width=300 height=300><img src=""static/images/cards/stack_of_black_moons.svg"" width=""175px"" height=""250px""></img></td>
  </tr>
  <tr height=200>
    <td width=300><img src=""static/images/keys/w.svg"" width=""35%"" height=""75%""></img></td>
    <td width=300><img src=""static/images/keys/o.svg"" width=""35%"" height=""75%""></img></td>
  </tr>
</table>
  ",79.0,1.0,,,,,,,,,,,,,,,,,,,,,,,,,,
189,0,,html-keyboard-response,189,567427,0.0-7.8-1.8,jfg5etege3e,2022-09-19 14:54:07.444,6287745dd285a8be832879dc,1,57,21,38,5,31,Male,693.1999999881,,"
  <table>
  <tr height=300>
    <td width=300 height=300><img src=""static/images/cards/back_of_black_moons.svg"" width=""175px"" height=""250px""></img></td>
    <td width=300 height=300><img src=""static/images/cards/back_of_black_moons.svg"" width=""175px"" height=""250px""></img></td>
  </tr>
  <tr height=200>
    <td width=300></td>
    <td width=300><img src=""static/images/keys/m.svg"" width=""35%"" height=""75%""></img></td>
  </tr>
</table>
  ",77.0,1.0,,,,,,,,,,,,,,,,,,,,,,,,,,
190,0,,html-keyboard-response,190,568943,0.0-7.8-2.8,jfg5etege3e,2022-09-19 14:54:07.444,6287745dd285a8be832879dc,1,57,21,38,5,31,Male,,,"
  <table>
  <tr height=300>
    <td width=300 height=300><img src=""static/images/cards/back_of_black_moons.svg"" width=""175px"" height=""250px""></img></td>
    <td width=300 height=300><img src=""static/images/cards/6_of_black_moons.svg"" width=""175px"" height=""250px""></img></td>
  </tr>
  <tr height=200>
    <td width=300></td>
    <td width=300><img src=""static/images/keys/m.svg"" width=""35%"" height=""75%""></img></td>
  </tr>
</table>
  ",,,,,,,,,,,,,,,,,,,,,,,,,,,,
191,0,,html-keyboard-response,191,570451,0.0-7.8-3.8,jfg5etege3e,2022-09-19 14:54:07.444,6287745dd285a8be832879dc,1,57,21,38,5,31,Male,,,"<p style=""font-size:50px"">You win!
+10 points this round!</p>",,,,,,,,,,,,,,,,,,,,,,,,,,,,
192,0,,html-keyboard-response,192,570958,0.0-7.8-4.8,jfg5etege3e,2022-09-19 14:54:07.444,6287745dd285a8be832879dc,1,57,21,38,5,31,Male,,,,,,1.0,choice,8.0,B,D,black,black,stars,moons,D,B,B,black,moons,1353.3000000119,0.0,1.0,0,right,693.1999999881,6.0,1.0,1.0,,,
193,0,,html-keyboard-response,193,571857,0.0-7.9-0.9,jfg5etege3e,2022-09-19 14:54:07.444,6287745dd285a8be832879dc,1,57,21,38,5,31,Male,897.2000000477,,"
  <table>
  <tr height=300>
    <td width=300 height=300><img src=""static/images/cards/stack_of_red_stars.svg"" width=""175px"" height=""250px""></img></td>
    <td width=300 height=300><img src=""static/images/cards/stack_of_red_moons.svg"" width=""175px"" height=""250px""></img></td>
  </tr>
  <tr height=200>
    <td width=300><img src=""static/images/keys/w.svg"" width=""35%"" height=""75%""></img></td>
    <td width=300><img src=""static/images/keys/o.svg"" width=""35%"" height=""75%""></img></td>
  </tr>
</table>
  ",79.0,1.0,,,,,,,,,,,,,,,,,,,,,,,,,,
194,0,,html-keyboard-response,194,573397,0.0-7.9-1.9,jfg5etege3e,2022-09-19 14:54:07.444,6287745dd285a8be832879dc,1,57,21,38,5,31,Male,1023.3999999762,,"
  <table>
  <tr height=300>
    <td width=300 height=300><img src=""static/images/cards/back_of_red_moons.svg"" width=""175px"" height=""250px""></img></td>
    <td width=300 height=300><img src=""static/images/cards/back_of_red_moons.svg"" width=""175px"" height=""250px""></img></td>
  </tr>
  <tr height=200>
    <td width=300><img src=""static/images/keys/z.svg"" width=""35%"" height=""75%""></img></td>
    <td width=300><img src=""static/images/keys/m.svg"" width=""35%"" height=""75%""></img></td>
  </tr>
</table>
  ",90.0,1.0,,,,,,,,,,,,,,,,,,,,,,,,,,
195,0,,html-keyboard-response,195,574911,0.0-7.9-2.9,jfg5etege3e,2022-09-19 14:54:07.444,6287745dd285a8be832879dc,1,57,21,38,5,31,Male,,,"
  <table>
  <tr height=300>
    <td width=300 height=300><img src=""static/images/cards/1_of_red_moons.svg"" width=""175px"" height=""250px""></img></td>
    <td width=300 height=300><img src=""static/images/cards/back_of_red_moons.svg"" width=""175px"" height=""250px""></img></td>
  </tr>
  <tr height=200>
    <td width=300><img src=""static/images/keys/z.svg"" width=""35%"" height=""75%""></img></td>
    <td width=300><img src=""static/images/keys/m.svg"" width=""35%"" height=""75%""></img></td>
  </tr>
</table>
  ",,,,,,,,,,,,,,,,,,,,,,,,,,,,
196,0,,html-keyboard-response,196,576424,0.0-7.9-3.9,jfg5etege3e,2022-09-19 14:54:07.444,6287745dd285a8be832879dc,1,57,21,38,5,31,Male,,,"<p style=""font-size:50px"">You Lose!
No points this round.</p>",,,,,,,,,,,,,,,,,,,,,,,,,,,,
197,0,,html-keyboard-response,197,576931,0.0-7.9-4.9,jfg5etege3e,2022-09-19 14:54:07.444,6287745dd285a8be832879dc,1,57,21,38,5,31,Male,,,,,,1.0,choice,9.0,A,C,red,red,stars,moons,C,A,A,red,moons,897.2000000477,1.0,1.0,NA,left,1023.3999999762,1.0,0.0,0.0,,,
198,0,,html-keyboard-response,198,577501,0.0-7.10-0.10,jfg5etege3e,2022-09-19 14:54:07.444,6287745dd285a8be832879dc,1,57,21,38,5,31,Male,567.8000000119,,"
  <table>
  <tr height=300>
    <td width=300 height=300><img src=""static/images/cards/stack_of_red_stars.svg"" width=""175px"" height=""250px""></img></td>
    <td width=300 height=300><img src=""static/images/cards/stack_of_black_moons.svg"" width=""175px"" height=""250px""></img></td>
  </tr>
  <tr height=200>
    <td width=300><img src=""static/images/keys/w.svg"" width=""35%"" height=""75%""></img></td>
    <td width=300><img src=""static/images/keys/o.svg"" width=""35%"" height=""75%""></img></td>
  </tr>
</table>
  ",79.0,1.0,,,,,,,,,,,,,,,,,,,,,,,,,,
199,0,,html-keyboard-response,199,578502,0.0-7.10-1.10,jfg5etege3e,2022-09-19 14:54:07.444,6287745dd285a8be832879dc,1,57,21,38,5,31,Male,492.1999999881,,"
  <table>
  <tr height=300>
    <td width=300 height=300><img src=""static/images/cards/back_of_black_moons.svg"" width=""175px"" height=""250px""></img></td>
    <td width=300 height=300><img src=""static/images/cards/back_of_black_moons.svg"" width=""175px"" height=""250px""></img></td>
  </tr>
  <tr height=200>
    <td width=300></td>
    <td width=300><img src=""static/images/keys/m.svg"" width=""35%"" height=""75%""></img></td>
  </tr>
</table>
  ",77.0,1.0,,,,,,,,,,,,,,,,,,,,,,,,,,
200,0,,html-keyboard-response,200,580010,0.0-7.10-2.10,jfg5etege3e,2022-09-19 14:54:07.444,6287745dd285a8be832879dc,1,57,21,38,5,31,Male,,,"
  <table>
  <tr height=300>
    <td width=300 height=300><img src=""static/images/cards/back_of_black_moons.svg"" width=""175px"" height=""250px""></img></td>
    <td width=300 height=300><img src=""static/images/cards/6_of_black_moons.svg"" width=""175px"" height=""250px""></img></td>
  </tr>
  <tr height=200>
    <td width=300></td>
    <td width=300><img src=""static/images/keys/m.svg"" width=""35%"" height=""75%""></img></td>
  </tr>
</table>
  ",,,,,,,,,,,,,,,,,,,,,,,,,,,,
201,0,,html-keyboard-response,201,581526,0.0-7.10-3.10,jfg5etege3e,2022-09-19 14:54:07.444,6287745dd285a8be832879dc,1,57,21,38,5,31,Male,,,"<p style=""font-size:50px"">You win!
+10 points this round!</p>",,,,,,,,,,,,,,,,,,,,,,,,,,,,
202,0,,html-keyboard-response,202,582033,0.0-7.10-4.10,jfg5etege3e,2022-09-19 14:54:07.444,6287745dd285a8be832879dc,1,57,21,38,5,31,Male,,,,,,1.0,choice,10.0,B,C,red,black,stars,moons,C,B,B,black,moons,567.8000000119,0.0,1.0,0,right,492.1999999881,6.0,1.0,1.0,,,
203,0,,html-keyboard-response,203,582862,0.0-7.11-0.11,jfg5etege3e,2022-09-19 14:54:07.444,6287745dd285a8be832879dc,1,57,21,38,5,31,Male,826.8000000119,,"
  <table>
  <tr height=300>
    <td width=300 height=300><img src=""static/images/cards/stack_of_black_moons.svg"" width=""175px"" height=""250px""></img></td>
    <td width=300 height=300><img src=""static/images/cards/stack_of_red_moons.svg"" width=""175px"" height=""250px""></img></td>
  </tr>
  <tr height=200>
    <td width=300><img src=""static/images/keys/w.svg"" width=""35%"" height=""75%""></img></td>
    <td width=300><img src=""static/images/keys/o.svg"" width=""35%"" height=""75%""></img></td>
  </tr>
</table>
  ",87.0,1.0,,,,,,,,,,,,,,,,,,,,,,,,,,
204,0,,html-keyboard-response,204,583934,0.0-7.11-1.11,jfg5etege3e,2022-09-19 14:54:07.444,6287745dd285a8be832879dc,1,57,21,38,5,31,Male,563.6999999881,,"
  <table>
  <tr height=300>
    <td width=300 height=300><img src=""static/images/cards/back_of_black_moons.svg"" width=""175px"" height=""250px""></img></td>
    <td width=300 height=300><img src=""static/images/cards/back_of_black_moons.svg"" width=""175px"" height=""250px""></img></td>
  </tr>
  <tr height=200>
    <td width=300><img src=""static/images/keys/z.svg"" width=""35%"" height=""75%""></img></td>
    <td width=300></td>
  </tr>
</table>
  ",90.0,1.0,,,,,,,,,,,,,,,,,,,,,,,,,,
205,0,,html-keyboard-response,205,585447,0.0-7.11-2.11,jfg5etege3e,2022-09-19 14:54:07.444,6287745dd285a8be832879dc,1,57,21,38,5,31,Male,,,"
  <table>
  <tr height=300>
    <td width=300 height=300><img src=""static/images/cards/6_of_black_moons.svg"" width=""175px"" height=""250px""></img></td>
    <td width=300 height=300><img src=""static/images/cards/back_of_black_moons.svg"" width=""175px"" height=""250px""></img></td>
  </tr>
  <tr height=200>
    <td width=300><img src=""static/images/keys/z.svg"" width=""35%"" height=""75%""></img></td>
    <td width=300></td>
  </tr>
</table>
  ",,,,,,,,,,,,,,,,,,,,,,,,,,,,
206,0,,html-keyboard-response,206,586961,0.0-7.11-3.11,jfg5etege3e,2022-09-19 14:54:07.444,6287745dd285a8be832879dc,1,57,21,38,5,31,Male,,,"<p style=""font-size:50px"">You win!
+10 points this round!</p>",,,,,,,,,,,,,,,,,,,,,,,,,,,,
207,0,,html-keyboard-response,207,587468,0.0-7.11-4.11,jfg5etege3e,2022-09-19 14:54:07.444,6287745dd285a8be832879dc,1,57,21,38,5,31,Male,,,,,,1.0,choice,11.0,A,B,black,red,moons,moons,B,A,B,black,moons,826.8000000119,0.0,1.0,1,left,563.6999999881,6.0,1.0,1.0,,,
208,0,,html-keyboard-response,208,588486,0.0-7.12-0.12,jfg5etege3e,2022-09-19 14:54:07.444,6287745dd285a8be832879dc,1,57,21,38,5,31,Male,1015.8000000119,,"
  <table>
  <tr height=300>
    <td width=300 height=300><img src=""static/images/cards/stack_of_red_stars.svg"" width=""175px"" height=""250px""></img></td>
    <td width=300 height=300><img src=""static/images/cards/stack_of_black_stars.svg"" width=""175px"" height=""250px""></img></td>
  </tr>
  <tr height=200>
    <td width=300><img src=""static/images/keys/w.svg"" width=""35%"" height=""75%""></img></td>
    <td width=300><img src=""static/images/keys/o.svg"" width=""35%"" height=""75%""></img></td>
  </tr>
</table>
  ",79.0,1.0,,,,,,,,,,,,,,,,,,,,,,,,,,
209,0,,html-keyboard-response,209,589387,0.0-7.12-1.12,jfg5etege3e,2022-09-19 14:54:07.444,6287745dd285a8be832879dc,1,57,21,38,5,31,Male,391.5,,"
  <table>
  <tr height=300>
    <td width=300 height=300><img src=""static/images/cards/back_of_black_stars.svg"" width=""175px"" height=""250px""></img></td>
    <td width=300 height=300><img src=""static/images/cards/back_of_black_stars.svg"" width=""175px"" height=""250px""></img></td>
  </tr>
  <tr height=200>
    <td width=300></td>
    <td width=300><img src=""static/images/keys/m.svg"" width=""35%"" height=""75%""></img></td>
  </tr>
</table>
  ",77.0,1.0,,,,,,,,,,,,,,,,,,,,,,,,,,
210,0,,html-keyboard-response,210,590891,0.0-7.12-2.12,jfg5etege3e,2022-09-19 14:54:07.444,6287745dd285a8be832879dc,1,57,21,38,5,31,Male,,,"
  <table>
  <tr height=300>
    <td width=300 height=300><img src=""static/images/cards/back_of_black_stars.svg"" width=""175px"" height=""250px""></img></td>
    <td width=300 height=300><img src=""static/images/cards/9_of_black_stars.svg"" width=""175px"" height=""250px""></img></td>
  </tr>
  <tr height=200>
    <td width=300></td>
    <td width=300><img src=""static/images/keys/m.svg"" width=""35%"" height=""75%""></img></td>
  </tr>
</table>
  ",,,,,,,,,,,,,,,,,,,,,,,,,,,,
211,0,,html-keyboard-response,211,592403,0.0-7.12-3.12,jfg5etege3e,2022-09-19 14:54:07.444,6287745dd285a8be832879dc,1,57,21,38,5,31,Male,,,"<p style=""font-size:50px"">You win!
+10 points this round!</p>",,,,,,,,,,,,,,,,,,,,,,,,,,,,
212,0,,html-keyboard-response,212,592910,0.0-7.12-4.12,jfg5etege3e,2022-09-19 14:54:07.444,6287745dd285a8be832879dc,1,57,21,38,5,31,Male,,,,,,1.0,choice,12.0,C,D,red,black,stars,stars,C,D,D,black,stars,1015.8000000119,0.0,0.0,0,right,391.5,9.0,1.0,1.0,,,
213,0,,html-keyboard-response,213,593544,0.0-7.13-0.13,jfg5etege3e,2022-09-19 14:54:07.444,6287745dd285a8be832879dc,1,57,21,38,5,31,Male,631.3999999762,,"
  <table>
  <tr height=300>
    <td width=300 height=300><img src=""static/images/cards/stack_of_red_stars.svg"" width=""175px"" height=""250px""></img></td>
    <td width=300 height=300><img src=""static/images/cards/stack_of_black_stars.svg"" width=""175px"" height=""250px""></img></td>
  </tr>
  <tr height=200>
    <td width=300><img src=""static/images/keys/w.svg"" width=""35%"" height=""75%""></img></td>
    <td width=300><img src=""static/images/keys/o.svg"" width=""35%"" height=""75%""></img></td>
  </tr>
</table>
  ",87.0,1.0,,,,,,,,,,,,,,,,,,,,,,,,,,
214,0,,html-keyboard-response,214,594497,0.0-7.13-1.13,jfg5etege3e,2022-09-19 14:54:07.444,6287745dd285a8be832879dc,1,57,21,38,5,31,Male,443.1999999881,,"
  <table>
  <tr height=300>
    <td width=300 height=300><img src=""static/images/cards/back_of_red_stars.svg"" width=""175px"" height=""250px""></img></td>
    <td width=300 height=300><img src=""static/images/cards/back_of_red_stars.svg"" width=""175px"" height=""250px""></img></td>
  </tr>
  <tr height=200>
    <td width=300><img src=""static/images/keys/z.svg"" width=""35%"" height=""75%""></img></td>
    <td width=300><img src=""static/images/keys/m.svg"" width=""35%"" height=""75%""></img></td>
  </tr>
</table>
  ",90.0,1.0,,,,,,,,,,,,,,,,,,,,,,,,,,
215,0,,html-keyboard-response,215,596010,0.0-7.13-2.13,jfg5etege3e,2022-09-19 14:54:07.444,6287745dd285a8be832879dc,1,57,21,38,5,31,Male,,,"
  <table>
  <tr height=300>
    <td width=300 height=300><img src=""static/images/cards/6_of_red_stars.svg"" width=""175px"" height=""250px""></img></td>
    <td width=300 height=300><img src=""static/images/cards/back_of_red_stars.svg"" width=""175px"" height=""250px""></img></td>
  </tr>
  <tr height=200>
    <td width=300><img src=""static/images/keys/z.svg"" width=""35%"" height=""75%""></img></td>
    <td width=300><img src=""static/images/keys/m.svg"" width=""35%"" height=""75%""></img></td>
  </tr>
</table>
  ",,,,,,,,,,,,,,,,,,,,,,,,,,,,
216,0,,html-keyboard-response,216,597534,0.0-7.13-3.13,jfg5etege3e,2022-09-19 14:54:07.444,6287745dd285a8be832879dc,1,57,21,38,5,31,Male,,,"<p style=""font-size:50px"">You Lose!
No points this round.</p>",,,,,,,,,,,,,,,,,,,,,,,,,,,,
217,0,,html-keyboard-response,217,598044,0.0-7.13-4.13,jfg5etege3e,2022-09-19 14:54:07.444,6287745dd285a8be832879dc,1,57,21,38,5,31,Male,,,,,,1.0,choice,13.0,C,D,red,black,stars,stars,C,D,C,red,stars,631.3999999762,1.0,0.0,NA,left,443.1999999881,6.0,1.0,0.0,,,
218,0,,html-keyboard-response,218,598677,0.0-7.14-0.14,jfg5etege3e,2022-09-19 14:54:07.444,6287745dd285a8be832879dc,1,57,21,38,5,31,Male,631.7999999523,,"
  <table>
  <tr height=300>
    <td width=300 height=300><img src=""static/images/cards/stack_of_black_stars.svg"" width=""175px"" height=""250px""></img></td>
    <td width=300 height=300><img src=""static/images/cards/stack_of_black_moons.svg"" width=""175px"" height=""250px""></img></td>
  </tr>
  <tr height=200>
    <td width=300><img src=""static/images/keys/w.svg"" width=""35%"" height=""75%""></img></td>
    <td width=300><img src=""static/images/keys/o.svg"" width=""35%"" height=""75%""></img></td>
  </tr>
</table>
  ",79.0,1.0,,,,,,,,,,,,,,,,,,,,,,,,,,
219,0,,html-keyboard-response,219,599676,0.0-7.14-1.14,jfg5etege3e,2022-09-19 14:54:07.444,6287745dd285a8be832879dc,1,57,21,38,5,31,Male,484.7000000477,,"
  <table>
  <tr height=300>
    <td width=300 height=300><img src=""static/images/cards/back_of_black_moons.svg"" width=""175px"" height=""250px""></img></td>
    <td width=300 height=300><img src=""static/images/cards/back_of_black_moons.svg"" width=""175px"" height=""250px""></img></td>
  </tr>
  <tr height=200>
    <td width=300></td>
    <td width=300><img src=""static/images/keys/m.svg"" width=""35%"" height=""75%""></img></td>
  </tr>
</table>
  ",77.0,1.0,,,,,,,,,,,,,,,,,,,,,,,,,,
220,0,,html-keyboard-response,220,601179,0.0-7.14-2.14,jfg5etege3e,2022-09-19 14:54:07.444,6287745dd285a8be832879dc,1,57,21,38,5,31,Male,,,"
  <table>
  <tr height=300>
    <td width=300 height=300><img src=""static/images/cards/back_of_black_moons.svg"" width=""175px"" height=""250px""></img></td>
    <td width=300 height=300><img src=""static/images/cards/9_of_black_moons.svg"" width=""175px"" height=""250px""></img></td>
  </tr>
  <tr height=200>
    <td width=300></td>
    <td width=300><img src=""static/images/keys/m.svg"" width=""35%"" height=""75%""></img></td>
  </tr>
</table>
  ",,,,,,,,,,,,,,,,,,,,,,,,,,,,
221,0,,html-keyboard-response,221,602688,0.0-7.14-3.14,jfg5etege3e,2022-09-19 14:54:07.444,6287745dd285a8be832879dc,1,57,21,38,5,31,Male,,,"<p style=""font-size:50px"">You win!
+10 points this round!</p>",,,,,,,,,,,,,,,,,,,,,,,,,,,,
222,0,,html-keyboard-response,222,603197,0.0-7.14-4.14,jfg5etege3e,2022-09-19 14:54:07.444,6287745dd285a8be832879dc,1,57,21,38,5,31,Male,,,,,,1.0,choice,14.0,B,D,black,black,stars,moons,D,B,B,black,moons,631.7999999523,0.0,1.0,0,right,484.7000000477,9.0,1.0,1.0,,,
223,0,,html-keyboard-response,223,604031,0.0-7.15-0.15,jfg5etege3e,2022-09-19 14:54:07.444,6287745dd285a8be832879dc,1,57,21,38,5,31,Male,831.7000000477,,"
  <table>
  <tr height=300>
    <td width=300 height=300><img src=""static/images/cards/stack_of_black_moons.svg"" width=""175px"" height=""250px""></img></td>
    <td width=300 height=300><img src=""static/images/cards/stack_of_red_stars.svg"" width=""175px"" height=""250px""></img></td>
  </tr>
  <tr height=200>
    <td width=300><img src=""static/images/keys/w.svg"" width=""35%"" height=""75%""></img></td>
    <td width=300><img src=""static/images/keys/o.svg"" width=""35%"" height=""75%""></img></td>
  </tr>
</table>
  ",87.0,1.0,,,,,,,,,,,,,,,,,,,,,,,,,,
224,0,,html-keyboard-response,224,605161,0.0-7.15-1.15,jfg5etege3e,2022-09-19 14:54:07.444,6287745dd285a8be832879dc,1,57,21,38,5,31,Male,626.5,,"
  <table>
  <tr height=300>
    <td width=300 height=300><img src=""static/images/cards/back_of_black_moons.svg"" width=""175px"" height=""250px""></img></td>
    <td width=300 height=300><img src=""static/images/cards/back_of_black_moons.svg"" width=""175px"" height=""250px""></img></td>
  </tr>
  <tr height=200>
    <td width=300></td>
    <td width=300><img src=""static/images/keys/m.svg"" width=""35%"" height=""75%""></img></td>
  </tr>
</table>
  ",77.0,1.0,,,,,,,,,,,,,,,,,,,,,,,,,,
225,0,,html-keyboard-response,225,606667,0.0-7.15-2.15,jfg5etege3e,2022-09-19 14:54:07.444,6287745dd285a8be832879dc,1,57,21,38,5,31,Male,,,"
  <table>
  <tr height=300>
    <td width=300 height=300><img src=""static/images/cards/back_of_black_moons.svg"" width=""175px"" height=""250px""></img></td>
    <td width=300 height=300><img src=""static/images/cards/4_of_black_moons.svg"" width=""175px"" height=""250px""></img></td>
  </tr>
  <tr height=200>
    <td width=300></td>
    <td width=300><img src=""static/images/keys/m.svg"" width=""35%"" height=""75%""></img></td>
  </tr>
</table>
  ",,,,,,,,,,,,,,,,,,,,,,,,,,,,
226,0,,html-keyboard-response,226,608184,0.0-7.15-3.15,jfg5etege3e,2022-09-19 14:54:07.444,6287745dd285a8be832879dc,1,57,21,38,5,31,Male,,,"<p style=""font-size:50px"">You Lose!
No points this round.</p>",,,,,,,,,,,,,,,,,,,,,,,,,,,,
227,0,,html-keyboard-response,227,608692,0.0-7.15-4.15,jfg5etege3e,2022-09-19 14:54:07.444,6287745dd285a8be832879dc,1,57,21,38,5,31,Male,,,,,,1.0,choice,15.0,B,C,black,red,moons,stars,B,C,B,black,moons,831.7000000477,0.0,1.0,0,right,626.5,4.0,0.0,0.0,,,
228,0,,html-keyboard-response,228,609399,0.0-7.16-0.16,jfg5etege3e,2022-09-19 14:54:07.444,6287745dd285a8be832879dc,1,57,21,38,5,31,Male,705.5999999642,,"
  <table>
  <tr height=300>
    <td width=300 height=300><img src=""static/images/cards/stack_of_red_moons.svg"" width=""175px"" height=""250px""></img></td>
    <td width=300 height=300><img src=""static/images/cards/stack_of_red_stars.svg"" width=""175px"" height=""250px""></img></td>
  </tr>
  <tr height=200>
    <td width=300><img src=""static/images/keys/w.svg"" width=""35%"" height=""75%""></img></td>
    <td width=300><img src=""static/images/keys/o.svg"" width=""35%"" height=""75%""></img></td>
  </tr>
</table>
  ",87.0,1.0,,,,,,,,,,,,,,,,,,,,,,,,,,
229,0,,html-keyboard-response,229,610339,0.0-7.16-1.16,jfg5etege3e,2022-09-19 14:54:07.444,6287745dd285a8be832879dc,1,57,21,38,5,31,Male,437.0999999642,,"
  <table>
  <tr height=300>
    <td width=300 height=300><img src=""static/images/cards/back_of_red_moons.svg"" width=""175px"" height=""250px""></img></td>
    <td width=300 height=300><img src=""static/images/cards/back_of_red_moons.svg"" width=""175px"" height=""250px""></img></td>
  </tr>
  <tr height=200>
    <td width=300><img src=""static/images/keys/z.svg"" width=""35%"" height=""75%""></img></td>
    <td width=300><img src=""static/images/keys/m.svg"" width=""35%"" height=""75%""></img></td>
  </tr>
</table>
  ",77.0,1.0,,,,,,,,,,,,,,,,,,,,,,,,,,
230,0,,html-keyboard-response,230,611843,0.0-7.16-2.16,jfg5etege3e,2022-09-19 14:54:07.444,6287745dd285a8be832879dc,1,57,21,38,5,31,Male,,,"
  <table>
  <tr height=300>
    <td width=300 height=300><img src=""static/images/cards/back_of_red_moons.svg"" width=""175px"" height=""250px""></img></td>
    <td width=300 height=300><img src=""static/images/cards/2_of_red_moons.svg"" width=""175px"" height=""250px""></img></td>
  </tr>
  <tr height=200>
    <td width=300><img src=""static/images/keys/z.svg"" width=""35%"" height=""75%""></img></td>
    <td width=300><img src=""static/images/keys/m.svg"" width=""35%"" height=""75%""></img></td>
  </tr>
</table>
  ",,,,,,,,,,,,,,,,,,,,,,,,,,,,
231,0,,html-keyboard-response,231,613363,0.0-7.16-3.16,jfg5etege3e,2022-09-19 14:54:07.444,6287745dd285a8be832879dc,1,57,21,38,5,31,Male,,,"<p style=""font-size:50px"">You Lose!
No points this round.</p>",,,,,,,,,,,,,,,,,,,,,,,,,,,,
232,0,,html-keyboard-response,232,613877,0.0-7.16-4.16,jfg5etege3e,2022-09-19 14:54:07.444,6287745dd285a8be832879dc,1,57,21,38,5,31,Male,,,,,,1.0,choice,16.0,A,C,red,red,moons,stars,A,C,A,red,moons,705.5999999642,1.0,1.0,NA,right,437.0999999642,2.0,0.0,0.0,,,
233,0,,html-keyboard-response,233,614520,0.0-7.17-0.17,jfg5etege3e,2022-09-19 14:54:07.444,6287745dd285a8be832879dc,1,57,21,38,5,31,Male,640.2000000477,,"
  <table>
  <tr height=300>
    <td width=300 height=300><img src=""static/images/cards/stack_of_red_stars.svg"" width=""175px"" height=""250px""></img></td>
    <td width=300 height=300><img src=""static/images/cards/stack_of_black_moons.svg"" width=""175px"" height=""250px""></img></td>
  </tr>
  <tr height=200>
    <td width=300><img src=""static/images/keys/w.svg"" width=""35%"" height=""75%""></img></td>
    <td width=300><img src=""static/images/keys/o.svg"" width=""35%"" height=""75%""></img></td>
  </tr>
</table>
  ",79.0,1.0,,,,,,,,,,,,,,,,,,,,,,,,,,
