,index,success,trial_type,trial_index,time_elapsed,internal_node_id,subject,date,prol_id,ctbl,sense_of_control_A,sense_of_control_B,sense_of_control_C,sense_of_control_D,age,gender,rt,url,stimulus,key_press,npress,is_data_trial,phase,trial,deck1,deck2,col1,col2,sym1,sym2,deck_l,deck_r,chosen_deck,chosen_col,chosen_sym,deck_rt,choose_choice,mutual_info,hidden_key,chosen_card,card_rt,player_num,win_card,outcome,mock_rating,response,responses
0,0,1.0,fullscreen,0,3364,0.0-0.0,ei3y0b0xjnk,2022-09-19 14:52:51.313,62b5f3e16a7f9aef9ed922df,3,71,64,39,14,28,Female,,,,,,,,,,,,,,,,,,,,,,,,,,,,,,,
1,0,,external-html,1,17542,0.0-1.0,ei3y0b0xjnk,2022-09-19 14:52:51.313,62b5f3e16a7f9aef9ed922df,3,71,64,39,14,28,Female,14064.8999999762,static/js/sub/consent.html,,,,,,,,,,,,,,,,,,,,,,,,,,,,,
2,0,,call-function,2,17545,0.0-2.0,ei3y0b0xjnk,2022-09-19 14:52:51.313,62b5f3e16a7f9aef9ed922df,3,71,64,39,14,28,Female,,,,,,,,,,,,,,,,,,,,,,,,,,,,,,,
3,0,,image-keyboard-response,3,23966,0.0-3.0-0.0,ei3y0b0xjnk,2022-09-19 14:52:51.313,62b5f3e16a7f9aef9ed922df,3,71,64,39,14,28,Female,6416.3999999762,,static/images/instructions_CB_3/Slide1.png,39.0,,,,,,,,,,,,,,,,,,,,,,,,,,,
4,0,,image-keyboard-response,4,27806,0.0-3.1-0.1,ei3y0b0xjnk,2022-09-19 14:52:51.313,62b5f3e16a7f9aef9ed922df,3,71,64,39,14,28,Female,3836.6999999881,,static/images/instructions_CB_3/Slide2.png,39.0,,,,,,,,,,,,,,,,,,,,,,,,,,,
5,0,,image-keyboard-response,5,29143,0.0-3.2-0.2,ei3y0b0xjnk,2022-09-19 14:52:51.313,62b5f3e16a7f9aef9ed922df,3,71,64,39,14,28,Female,1333.6999999881,,static/images/instructions_CB_3/Slide3.png,37.0,,,,,,,,,,,,,,,,,,,,,,,,,,,
6,0,,image-keyboard-response,6,34296,0.0-3.3-0.3,ei3y0b0xjnk,2022-09-19 14:52:51.313,62b5f3e16a7f9aef9ed922df,3,71,64,39,14,28,Female,5150.7999999523,,static/images/instructions_CB_3/Slide2.png,39.0,,,,,,,,,,,,,,,,,,,,,,,,,,,
7,0,,image-keyboard-response,7,39804,0.0-3.4-0.4,ei3y0b0xjnk,2022-09-19 14:52:51.313,62b5f3e16a7f9aef9ed922df,3,71,64,39,14,28,Female,5507.2000000477,,static/images/instructions_CB_3/Slide3.png,39.0,,,,,,,,,,,,,,,,,,,,,,,,,,,
8,0,,image-keyboard-response,8,44002,0.0-3.5-0.5,ei3y0b0xjnk,2022-09-19 14:52:51.313,62b5f3e16a7f9aef9ed922df,3,71,64,39,14,28,Female,4196.3000000119,,static/images/instructions_CB_3/Slide4.png,39.0,,,,,,,,,,,,,,,,,,,,,,,,,,,
9,0,,image-keyboard-response,9,50901,0.0-3.6-0.6,ei3y0b0xjnk,2022-09-19 14:52:51.313,62b5f3e16a7f9aef9ed922df,3,71,64,39,14,28,Female,6896.1000000238,,static/images/instructions_CB_3/Slide5.png,39.0,,,,,,,,,,,,,,,,,,,,,,,,,,,
10,0,,image-keyboard-response,10,52738,0.0-3.7-0.7,ei3y0b0xjnk,2022-09-19 14:52:51.313,62b5f3e16a7f9aef9ed922df,3,71,64,39,14,28,Female,1836.6999999881,,static/images/instructions_CB_3/Slide6.png,39.0,,,,,,,,,,,,,,,,,,,,,,,,,,,
11,0,,image-keyboard-response,11,56657,0.0-3.8-0.8,ei3y0b0xjnk,2022-09-19 14:52:51.313,62b5f3e16a7f9aef9ed922df,3,71,64,39,14,28,Female,3917.6999999881,,static/images/instructions_CB_3/Slide7.png,39.0,,,,,,,,,,,,,,,,,,,,,,,,,,,
12,0,,image-keyboard-response,12,66351,0.0-3.9-0.9,ei3y0b0xjnk,2022-09-19 14:52:51.313,62b5f3e16a7f9aef9ed922df,3,71,64,39,14,28,Female,9692.9000000358,,static/images/instructions_CB_3/Slide8.png,39.0,,,,,,,,,,,,,,,,,,,,,,,,,,,
13,0,,image-keyboard-response,13,72133,0.0-3.10-0.10,ei3y0b0xjnk,2022-09-19 14:52:51.313,62b5f3e16a7f9aef9ed922df,3,71,64,39,14,28,Female,5780.0,,static/images/instructions_CB_3/Slide9.png,39.0,,,,,,,,,,,,,,,,,,,,,,,,,,,
14,0,,image-keyboard-response,14,86013,0.0-3.11-0.11,ei3y0b0xjnk,2022-09-19 14:52:51.313,62b5f3e16a7f9aef9ed922df,3,71,64,39,14,28,Female,13878.5999999642,,static/images/instructions_CB_3/Slide10.png,39.0,,,,,,,,,,,,,,,,,,,,,,,,,,,
15,0,,image-keyboard-response,15,93040,0.0-3.12-0.12,ei3y0b0xjnk,2022-09-19 14:52:51.313,62b5f3e16a7f9aef9ed922df,3,71,64,39,14,28,Female,7025.3999999762,,static/images/instructions_CB_3/Slide11.png,39.0,,,,,,,,,,,,,,,,,,,,,,,,,,,
16,0,,image-keyboard-response,16,111388,0.0-3.13-0.13,ei3y0b0xjnk,2022-09-19 14:52:51.313,62b5f3e16a7f9aef9ed922df,3,71,64,39,14,28,Female,18345.5,,static/images/instructions_CB_3/Slide12.png,39.0,,,,,,,,,,,,,,,,,,,,,,,,,,,
17,0,,image-keyboard-response,17,122168,0.0-3.14-0.14,ei3y0b0xjnk,2022-09-19 14:52:51.313,62b5f3e16a7f9aef9ed922df,3,71,64,39,14,28,Female,10778.6999999881,,static/images/instructions_CB_3/Slide13.png,39.0,,,,,,,,,,,,,,,,,,,,,,,,,,,
18,0,,image-keyboard-response,18,125776,0.0-3.15-0.15,ei3y0b0xjnk,2022-09-19 14:52:51.313,62b5f3e16a7f9aef9ed922df,3,71,64,39,14,28,Female,3606.9000000358,,static/images/instructions_CB_3/Slide14.png,39.0,,,,,,,,,,,,,,,,,,,,,,,,,,,
19,0,,image-keyboard-response,19,136191,0.0-3.16-0.16,ei3y0b0xjnk,2022-09-19 14:52:51.313,62b5f3e16a7f9aef9ed922df,3,71,64,39,14,28,Female,10413.5,,static/images/instructions_CB_3/Slide15.png,39.0,,,,,,,,,,,,,,,,,,,,,,,,,,,
20,0,,image-keyboard-response,20,144219,0.0-3.17-0.17,ei3y0b0xjnk,2022-09-19 14:52:51.313,62b5f3e16a7f9aef9ed922df,3,71,64,39,14,28,Female,8027.0,,static/images/instructions_CB_3/Slide16.png,39.0,,,,,,,,,,,,,,,,,,,,,,,,,,,
21,0,,image-keyboard-response,21,156154,0.0-3.18-0.18,ei3y0b0xjnk,2022-09-19 14:52:51.313,62b5f3e16a7f9aef9ed922df,3,71,64,39,14,28,Female,11933.3000000119,,static/images/instructions_CB_3/Slide17.png,39.0,,,,,,,,,,,,,,,,,,,,,,,,,,,
22,0,,image-keyboard-response,22,182931,0.0-3.19-0.19,ei3y0b0xjnk,2022-09-19 14:52:51.313,62b5f3e16a7f9aef9ed922df,3,71,64,39,14,28,Female,26775.1999999881,,static/images/instructions_CB_3/Slide18.png,39.0,,,,,,,,,,,,,,,,,,,,,,,,,,,
23,0,,image-keyboard-response,23,191664,0.0-3.20-0.20,ei3y0b0xjnk,2022-09-19 14:52:51.313,62b5f3e16a7f9aef9ed922df,3,71,64,39,14,28,Female,8732.9000000358,,static/images/instructions_CB_3/Slide19.png,39.0,,,,,,,,,,,,,,,,,,,,,,,,,,,
24,0,,html-keyboard-response,24,193173,0.0-4.0-0.0,ei3y0b0xjnk,2022-09-19 14:52:51.313,62b5f3e16a7f9aef9ed922df,3,71,64,39,14,28,Female,,,"<img src=""static/images/cards/stack_of_black_moons.svg"" width=""175px"" height=""250px""></img>",,,,,,,,,,,,,,,,,,,,,,,,,,,,
25,0,,html-keyboard-response,25,193966,0.0-4.0-1.0,ei3y0b0xjnk,2022-09-19 14:52:51.313,62b5f3e16a7f9aef9ed922df,3,71,64,39,14,28,Female,278.8000000119,,"
  <table>
  <tr height=300>
    <td width=300 height=300><img src=""static/images/cards/back_of_black_moons.svg"" width=""175px"" height=""250px""></img></td>
    <td width=300 height=300><img src=""static/images/cards/back_of_black_moons.svg"" width=""175px"" height=""250px""></img></td>
  </tr>
  <tr height=200>
    <td width=300><img src=""static/images/keys/z.svg"" width=""35%"" height=""75%""></img></td>
    <td width=300><img src=""static/images/keys/m.svg"" width=""35%"" height=""75%""></img></td>
  </tr>
</table>
  ",77.0,1.0,,,,,,,,,,,,,,,,,,,,,,,,,,
26,0,,html-keyboard-response,26,195474,0.0-4.0-2.0,ei3y0b0xjnk,2022-09-19 14:52:51.313,62b5f3e16a7f9aef9ed922df,3,71,64,39,14,28,Female,,,"
  <table>
  <tr height=300>
    <td width=300 height=300><img src=""static/images/cards/back_of_black_moons.svg"" width=""175px"" height=""250px""></img></td>
    <td width=300 height=300><img src=""static/images/cards/2_of_black_moons.svg"" width=""175px"" height=""250px""></img></td>
  </tr>
  <tr height=200>
    <td width=300><img src=""static/images/keys/z.svg"" width=""35%"" height=""75%""></img></td>
    <td width=300><img src=""static/images/keys/m.svg"" width=""35%"" height=""75%""></img></td>
  </tr>
</table>
  ",,,,,,,,,,,,,,,,,,,,,,,,,,,,
27,0,,html-keyboard-response,27,196996,0.0-4.0-3.0,ei3y0b0xjnk,2022-09-19 14:52:51.313,62b5f3e16a7f9aef9ed922df,3,71,64,39,14,28,Female,,,"<p style=""font-size:50px"">You Lose!
No points this round.</p>",,,,,,,,,,,,,,,,,,,,,,,,,,,,
28,0,,html-keyboard-response,28,197505,0.0-4.0-4.0,ei3y0b0xjnk,2022-09-19 14:52:51.313,62b5f3e16a7f9aef9ed922df,3,71,64,39,14,28,Female,,,,,,1.0,learning,0.0,A,,black,,moons,,,,A,black,moons,,1.0,1.0,NA,right,278.8000000119,2.0,0.0,0.0,,,
29,0,,html-keyboard-response,29,199008,0.0-4.1-0.1,ei3y0b0xjnk,2022-09-19 14:52:51.313,62b5f3e16a7f9aef9ed922df,3,71,64,39,14,28,Female,,,"<img src=""static/images/cards/stack_of_red_moons.svg"" width=""175px"" height=""250px""></img>",,,,,,,,,,,,,,,,,,,,,,,,,,,,
30,0,,html-keyboard-response,30,199867,0.0-4.1-1.1,ei3y0b0xjnk,2022-09-19 14:52:51.313,62b5f3e16a7f9aef9ed922df,3,71,64,39,14,28,Female,351.0,,"
  <table>
  <tr height=300>
    <td width=300 height=300><img src=""static/images/cards/back_of_red_moons.svg"" width=""175px"" height=""250px""></img></td>
    <td width=300 height=300><img src=""static/images/cards/back_of_red_moons.svg"" width=""175px"" height=""250px""></img></td>
  </tr>
  <tr height=200>
    <td width=300><img src=""static/images/keys/z.svg"" width=""35%"" height=""75%""></img></td>
    <td width=300></td>
  </tr>
</table>
  ",90.0,1.0,,,,,,,,,,,,,,,,,,,,,,,,,,
31,0,,html-keyboard-response,31,201385,0.0-4.1-2.1,ei3y0b0xjnk,2022-09-19 14:52:51.313,62b5f3e16a7f9aef9ed922df,3,71,64,39,14,28,Female,,,"
  <table>
  <tr height=300>
    <td width=300 height=300><img src=""static/images/cards/6_of_red_moons.svg"" width=""175px"" height=""250px""></img></td>
    <td width=300 height=300><img src=""static/images/cards/back_of_red_moons.svg"" width=""175px"" height=""250px""></img></td>
  </tr>
  <tr height=200>
    <td width=300><img src=""static/images/keys/z.svg"" width=""35%"" height=""75%""></img></td>
    <td width=300></td>
  </tr>
</table>
  ",,,,,,,,,,,,,,,,,,,,,,,,,,,,
32,0,,html-keyboard-response,32,202903,0.0-4.1-3.1,ei3y0b0xjnk,2022-09-19 14:52:51.313,62b5f3e16a7f9aef9ed922df,3,71,64,39,14,28,Female,,,"<p style=""font-size:50px"">You win!
+10 points this round!</p>",,,,,,,,,,,,,,,,,,,,,,,,,,,,
33,0,,html-keyboard-response,33,203413,0.0-4.1-4.1,ei3y0b0xjnk,2022-09-19 14:52:51.313,62b5f3e16a7f9aef9ed922df,3,71,64,39,14,28,Female,,,,,,1.0,learning,1.0,B,,red,,moons,,,,B,red,moons,,0.0,1.0,1,left,351.0,6.0,1.0,1.0,,,
34,0,,html-keyboard-response,34,204922,0.0-4.2-0.2,ei3y0b0xjnk,2022-09-19 14:52:51.313,62b5f3e16a7f9aef9ed922df,3,71,64,39,14,28,Female,,,"<img src=""static/images/cards/stack_of_black_stars.svg"" width=""175px"" height=""250px""></img>",,,,,,,,,,,,,,,,,,,,,,,,,,,,
35,0,,html-keyboard-response,35,205990,0.0-4.2-1.2,ei3y0b0xjnk,2022-09-19 14:52:51.313,62b5f3e16a7f9aef9ed922df,3,71,64,39,14,28,Female,561.5,,"
  <table>
  <tr height=300>
    <td width=300 height=300><img src=""static/images/cards/back_of_black_stars.svg"" width=""175px"" height=""250px""></img></td>
    <td width=300 height=300><img src=""static/images/cards/back_of_black_stars.svg"" width=""175px"" height=""250px""></img></td>
  </tr>
  <tr height=200>
    <td width=300><img src=""static/images/keys/z.svg"" width=""35%"" height=""75%""></img></td>
    <td width=300><img src=""static/images/keys/m.svg"" width=""35%"" height=""75%""></img></td>
  </tr>
</table>
  ",90.0,1.0,,,,,,,,,,,,,,,,,,,,,,,,,,
36,0,,html-keyboard-response,36,207500,0.0-4.2-2.2,ei3y0b0xjnk,2022-09-19 14:52:51.313,62b5f3e16a7f9aef9ed922df,3,71,64,39,14,28,Female,,,"
  <table>
  <tr height=300>
    <td width=300 height=300><img src=""static/images/cards/6_of_black_stars.svg"" width=""175px"" height=""250px""></img></td>
    <td width=300 height=300><img src=""static/images/cards/back_of_black_stars.svg"" width=""175px"" height=""250px""></img></td>
  </tr>
  <tr height=200>
    <td width=300><img src=""static/images/keys/z.svg"" width=""35%"" height=""75%""></img></td>
    <td width=300><img src=""static/images/keys/m.svg"" width=""35%"" height=""75%""></img></td>
  </tr>
</table>
  ",,,,,,,,,,,,,,,,,,,,,,,,,,,,
37,0,,html-keyboard-response,37,209019,0.0-4.2-3.2,ei3y0b0xjnk,2022-09-19 14:52:51.313,62b5f3e16a7f9aef9ed922df,3,71,64,39,14,28,Female,,,"<p style=""font-size:50px"">You Lose!
No points this round.</p>",,,,,,,,,,,,,,,,,,,,,,,,,,,,
38,0,,html-keyboard-response,38,209533,0.0-4.2-4.2,ei3y0b0xjnk,2022-09-19 14:52:51.313,62b5f3e16a7f9aef9ed922df,3,71,64,39,14,28,Female,,,,,,1.0,learning,2.0,C,,black,,stars,,,,C,black,stars,,1.0,0.0,NA,left,561.5,6.0,1.0,0.0,,,
39,0,,html-keyboard-response,39,211045,0.0-4.3-0.3,ei3y0b0xjnk,2022-09-19 14:52:51.313,62b5f3e16a7f9aef9ed922df,3,71,64,39,14,28,Female,,,"<img src=""static/images/cards/stack_of_red_stars.svg"" width=""175px"" height=""250px""></img>",,,,,,,,,,,,,,,,,,,,,,,,,,,,
40,0,,html-keyboard-response,40,212109,0.0-4.3-1.3,ei3y0b0xjnk,2022-09-19 14:52:51.313,62b5f3e16a7f9aef9ed922df,3,71,64,39,14,28,Female,558.0999999642,,"
  <table>
  <tr height=300>
    <td width=300 height=300><img src=""static/images/cards/back_of_red_stars.svg"" width=""175px"" height=""250px""></img></td>
    <td width=300 height=300><img src=""static/images/cards/back_of_red_stars.svg"" width=""175px"" height=""250px""></img></td>
  </tr>
  <tr height=200>
    <td width=300></td>
    <td width=300><img src=""static/images/keys/m.svg"" width=""35%"" height=""75%""></img></td>
  </tr>
</table>
  ",77.0,1.0,,,,,,,,,,,,,,,,,,,,,,,,,,
41,0,,html-keyboard-response,41,213614,0.0-4.3-2.3,ei3y0b0xjnk,2022-09-19 14:52:51.313,62b5f3e16a7f9aef9ed922df,3,71,64,39,14,28,Female,,,"
  <table>
  <tr height=300>
    <td width=300 height=300><img src=""static/images/cards/back_of_red_stars.svg"" width=""175px"" height=""250px""></img></td>
    <td width=300 height=300><img src=""static/images/cards/8_of_red_stars.svg"" width=""175px"" height=""250px""></img></td>
  </tr>
  <tr height=200>
    <td width=300></td>
    <td width=300><img src=""static/images/keys/m.svg"" width=""35%"" height=""75%""></img></td>
  </tr>
</table>
  ",,,,,,,,,,,,,,,,,,,,,,,,,,,,
42,0,,html-keyboard-response,42,215127,0.0-4.3-3.3,ei3y0b0xjnk,2022-09-19 14:52:51.313,62b5f3e16a7f9aef9ed922df,3,71,64,39,14,28,Female,,,"<p style=""font-size:50px"">You win!
+10 points this round!</p>",,,,,,,,,,,,,,,,,,,,,,,,,,,,
43,0,,html-keyboard-response,43,215638,0.0-4.3-4.3,ei3y0b0xjnk,2022-09-19 14:52:51.313,62b5f3e16a7f9aef9ed922df,3,71,64,39,14,28,Female,,,,,,1.0,learning,3.0,D,,red,,stars,,,,D,red,stars,,0.0,0.0,0,right,558.0999999642,8.0,1.0,1.0,,,
44,0,,html-keyboard-response,44,217147,0.0-4.4-0.4,ei3y0b0xjnk,2022-09-19 14:52:51.313,62b5f3e16a7f9aef9ed922df,3,71,64,39,14,28,Female,,,"<img src=""static/images/cards/stack_of_red_bolts.svg"" width=""175px"" height=""250px""></img>",,,,,,,,,,,,,,,,,,,,,,,,,,,,
45,0,,html-keyboard-response,45,217945,0.0-4.4-1.4,ei3y0b0xjnk,2022-09-19 14:52:51.313,62b5f3e16a7f9aef9ed922df,3,71,64,39,14,28,Female,292.0,,"
  <table>
  <tr height=300>
    <td width=300 height=300><img src=""static/images/cards/back_of_red_bolts.svg"" width=""175px"" height=""250px""></img></td>
    <td width=300 height=300><img src=""static/images/cards/back_of_red_bolts.svg"" width=""175px"" height=""250px""></img></td>
  </tr>
  <tr height=200>
    <td width=300><img src=""static/images/keys/z.svg"" width=""35%"" height=""75%""></img></td>
    <td width=300><img src=""static/images/keys/m.svg"" width=""35%"" height=""75%""></img></td>
  </tr>
</table>
  ",77.0,1.0,,,,,,,,,,,,,,,,,,,,,,,,,,
46,0,,html-keyboard-response,46,219455,0.0-4.4-2.4,ei3y0b0xjnk,2022-09-19 14:52:51.313,62b5f3e16a7f9aef9ed922df,3,71,64,39,14,28,Female,,,"
  <table>
  <tr height=300>
    <td width=300 height=300><img src=""static/images/cards/back_of_red_bolts.svg"" width=""175px"" height=""250px""></img></td>
    <td width=300 height=300><img src=""static/images/cards/4_of_red_bolts.svg"" width=""175px"" height=""250px""></img></td>
  </tr>
  <tr height=200>
    <td width=300><img src=""static/images/keys/z.svg"" width=""35%"" height=""75%""></img></td>
    <td width=300><img src=""static/images/keys/m.svg"" width=""35%"" height=""75%""></img></td>
  </tr>
</table>
  ",,,,,,,,,,,,,,,,,,,,,,,,,,,,
47,0,,html-keyboard-response,47,220967,0.0-4.4-3.4,ei3y0b0xjnk,2022-09-19 14:52:51.313,62b5f3e16a7f9aef9ed922df,3,71,64,39,14,28,Female,,,"<p style=""font-size:50px"">You win!
+10 points this round!</p>",,,,,,,,,,,,,,,,,,,,,,,,,,,,
48,0,,html-keyboard-response,48,221482,0.0-4.4-4.4,ei3y0b0xjnk,2022-09-19 14:52:51.313,62b5f3e16a7f9aef9ed922df,3,71,64,39,14,28,Female,,,,,,1.0,learning,4.0,Xc,,red,,bolts,,,,Xc,red,bolts,,1.0,0.0,NA,right,292.0,4.0,0.0,1.0,,,
49,0,,html-keyboard-response,49,222996,0.0-4.5-0.5,ei3y0b0xjnk,2022-09-19 14:52:51.313,62b5f3e16a7f9aef9ed922df,3,71,64,39,14,28,Female,,,"<img src=""static/images/cards/stack_of_black_bolts.svg"" width=""175px"" height=""250px""></img>",,,,,,,,,,,,,,,,,,,,,,,,,,,,
50,0,,html-keyboard-response,50,224066,0.0-4.5-1.5,ei3y0b0xjnk,2022-09-19 14:52:51.313,62b5f3e16a7f9aef9ed922df,3,71,64,39,14,28,Female,555.5,,"
  <table>
  <tr height=300>
    <td width=300 height=300><img src=""static/images/cards/back_of_black_bolts.svg"" width=""175px"" height=""250px""></img></td>
    <td width=300 height=300><img src=""static/images/cards/back_of_black_bolts.svg"" width=""175px"" height=""250px""></img></td>
  </tr>
  <tr height=200>
    <td width=300></td>
    <td width=300><img src=""static/images/keys/m.svg"" width=""35%"" height=""75%""></img></td>
  </tr>
</table>
  ",77.0,2.0,,,,,,,,,,,,,,,,,,,,,,,,,,
51,0,,html-keyboard-response,51,225583,0.0-4.5-2.5,ei3y0b0xjnk,2022-09-19 14:52:51.313,62b5f3e16a7f9aef9ed922df,3,71,64,39,14,28,Female,,,"
  <table>
  <tr height=300>
    <td width=300 height=300><img src=""static/images/cards/back_of_black_bolts.svg"" width=""175px"" height=""250px""></img></td>
    <td width=300 height=300><img src=""static/images/cards/4_of_black_bolts.svg"" width=""175px"" height=""250px""></img></td>
  </tr>
  <tr height=200>
    <td width=300></td>
    <td width=300><img src=""static/images/keys/m.svg"" width=""35%"" height=""75%""></img></td>
  </tr>
</table>
  ",,,,,,,,,,,,,,,,,,,,,,,,,,,,
52,0,,html-keyboard-response,52,227104,0.0-4.5-3.5,ei3y0b0xjnk,2022-09-19 14:52:51.313,62b5f3e16a7f9aef9ed922df,3,71,64,39,14,28,Female,,,"<p style=""font-size:50px"">You win!
+10 points this round!</p>",,,,,,,,,,,,,,,,,,,,,,,,,,,,
53,0,,html-keyboard-response,53,227616,0.0-4.5-4.5,ei3y0b0xjnk,2022-09-19 14:52:51.313,62b5f3e16a7f9aef9ed922df,3,71,64,39,14,28,Female,,,,,,1.0,learning,5.0,Xnc,,black,,bolts,,,,Xnc,black,bolts,,0.0,0.0,0,right,555.5,4.0,0.0,1.0,,,
54,0,,html-keyboard-response,54,229132,0.0-4.6-0.6,ei3y0b0xjnk,2022-09-19 14:52:51.313,62b5f3e16a7f9aef9ed922df,3,71,64,39,14,28,Female,,,"<img src=""static/images/cards/stack_of_black_moons.svg"" width=""175px"" height=""250px""></img>",,,,,,,,,,,,,,,,,,,,,,,,,,,,
55,0,,html-keyboard-response,55,229962,0.0-4.6-1.6,ei3y0b0xjnk,2022-09-19 14:52:51.313,62b5f3e16a7f9aef9ed922df,3,71,64,39,14,28,Female,324.5,,"
  <table>
  <tr height=300>
    <td width=300 height=300><img src=""static/images/cards/back_of_black_moons.svg"" width=""175px"" height=""250px""></img></td>
    <td width=300 height=300><img src=""static/images/cards/back_of_black_moons.svg"" width=""175px"" height=""250px""></img></td>
  </tr>
  <tr height=200>
    <td width=300><img src=""static/images/keys/z.svg"" width=""35%"" height=""75%""></img></td>
    <td width=300><img src=""static/images/keys/m.svg"" width=""35%"" height=""75%""></img></td>
  </tr>
</table>
  ",90.0,1.0,,,,,,,,,,,,,,,,,,,,,,,,,,
56,0,,html-keyboard-response,56,231471,0.0-4.6-2.6,ei3y0b0xjnk,2022-09-19 14:52:51.313,62b5f3e16a7f9aef9ed922df,3,71,64,39,14,28,Female,,,"
  <table>
  <tr height=300>
    <td width=300 height=300><img src=""static/images/cards/3_of_black_moons.svg"" width=""175px"" height=""250px""></img></td>
    <td width=300 height=300><img src=""static/images/cards/back_of_black_moons.svg"" width=""175px"" height=""250px""></img></td>
  </tr>
  <tr height=200>
    <td width=300><img src=""static/images/keys/z.svg"" width=""35%"" height=""75%""></img></td>
    <td width=300><img src=""static/images/keys/m.svg"" width=""35%"" height=""75%""></img></td>
  </tr>
</table>
  ",,,,,,,,,,,,,,,,,,,,,,,,,,,,
57,0,,html-keyboard-response,57,232988,0.0-4.6-3.6,ei3y0b0xjnk,2022-09-19 14:52:51.313,62b5f3e16a7f9aef9ed922df,3,71,64,39,14,28,Female,,,"<p style=""font-size:50px"">You Lose!
No points this round.</p>",,,,,,,,,,,,,,,,,,,,,,,,,,,,
58,0,,html-keyboard-response,58,233497,0.0-4.6-4.6,ei3y0b0xjnk,2022-09-19 14:52:51.313,62b5f3e16a7f9aef9ed922df,3,71,64,39,14,28,Female,,,,,,1.0,learning,6.0,A,,black,,moons,,,,A,black,moons,,1.0,1.0,NA,left,324.5,3.0,0.0,0.0,,,
59,0,,html-keyboard-response,59,235012,0.0-4.7-0.7,ei3y0b0xjnk,2022-09-19 14:52:51.313,62b5f3e16a7f9aef9ed922df,3,71,64,39,14,28,Female,,,"<img src=""static/images/cards/stack_of_red_moons.svg"" width=""175px"" height=""250px""></img>",,,,,,,,,,,,,,,,,,,,,,,,,,,,
60,0,,html-keyboard-response,60,236053,0.0-4.7-1.7,ei3y0b0xjnk,2022-09-19 14:52:51.313,62b5f3e16a7f9aef9ed922df,3,71,64,39,14,28,Female,534.0,,"
  <table>
  <tr height=300>
    <td width=300 height=300><img src=""static/images/cards/back_of_red_moons.svg"" width=""175px"" height=""250px""></img></td>
    <td width=300 height=300><img src=""static/images/cards/back_of_red_moons.svg"" width=""175px"" height=""250px""></img></td>
  </tr>
  <tr height=200>
    <td width=300></td>
    <td width=300><img src=""static/images/keys/m.svg"" width=""35%"" height=""75%""></img></td>
  </tr>
</table>
  ",77.0,1.0,,,,,,,,,,,,,,,,,,,,,,,,,,
61,0,,html-keyboard-response,61,237557,0.0-4.7-2.7,ei3y0b0xjnk,2022-09-19 14:52:51.313,62b5f3e16a7f9aef9ed922df,3,71,64,39,14,28,Female,,,"
  <table>
  <tr height=300>
    <td width=300 height=300><img src=""static/images/cards/back_of_red_moons.svg"" width=""175px"" height=""250px""></img></td>
    <td width=300 height=300><img src=""static/images/cards/2_of_red_moons.svg"" width=""175px"" height=""250px""></img></td>
  </tr>
  <tr height=200>
    <td width=300></td>
    <td width=300><img src=""static/images/keys/m.svg"" width=""35%"" height=""75%""></img></td>
  </tr>
</table>
  ",,,,,,,,,,,,,,,,,,,,,,,,,,,,
62,0,,html-keyboard-response,62,239074,0.0-4.7-3.7,ei3y0b0xjnk,2022-09-19 14:52:51.313,62b5f3e16a7f9aef9ed922df,3,71,64,39,14,28,Female,,,"<p style=""font-size:50px"">You Lose!
No points this round.</p>",,,,,,,,,,,,,,,,,,,,,,,,,,,,
63,0,,html-keyboard-response,63,239585,0.0-4.7-4.7,ei3y0b0xjnk,2022-09-19 14:52:51.313,62b5f3e16a7f9aef9ed922df,3,71,64,39,14,28,Female,,,,,,1.0,learning,7.0,B,,red,,moons,,,,B,red,moons,,0.0,1.0,0,right,534.0,2.0,0.0,0.0,,,
64,0,,html-keyboard-response,64,241098,0.0-4.8-0.8,ei3y0b0xjnk,2022-09-19 14:52:51.313,62b5f3e16a7f9aef9ed922df,3,71,64,39,14,28,Female,,,"<img src=""static/images/cards/stack_of_black_stars.svg"" width=""175px"" height=""250px""></img>",,,,,,,,,,,,,,,,,,,,,,,,,,,,
65,0,,html-keyboard-response,65,242114,0.0-4.8-1.8,ei3y0b0xjnk,2022-09-19 14:52:51.313,62b5f3e16a7f9aef9ed922df,3,71,64,39,14,28,Female,506.4000000358,,"
  <table>
  <tr height=300>
    <td width=300 height=300><img src=""static/images/cards/back_of_black_stars.svg"" width=""175px"" height=""250px""></img></td>
    <td width=300 height=300><img src=""static/images/cards/back_of_black_stars.svg"" width=""175px"" height=""250px""></img></td>
  </tr>
  <tr height=200>
    <td width=300><img src=""static/images/keys/z.svg"" width=""35%"" height=""75%""></img></td>
    <td width=300><img src=""static/images/keys/m.svg"" width=""35%"" height=""75%""></img></td>
  </tr>
</table>
  ",90.0,1.0,,,,,,,,,,,,,,,,,,,,,,,,,,
66,0,,html-keyboard-response,66,243626,0.0-4.8-2.8,ei3y0b0xjnk,2022-09-19 14:52:51.313,62b5f3e16a7f9aef9ed922df,3,71,64,39,14,28,Female,,,"
  <table>
  <tr height=300>
    <td width=300 height=300><img src=""static/images/cards/3_of_black_stars.svg"" width=""175px"" height=""250px""></img></td>
    <td width=300 height=300><img src=""static/images/cards/back_of_black_stars.svg"" width=""175px"" height=""250px""></img></td>
  </tr>
  <tr height=200>
    <td width=300><img src=""static/images/keys/z.svg"" width=""35%"" height=""75%""></img></td>
    <td width=300><img src=""static/images/keys/m.svg"" width=""35%"" height=""75%""></img></td>
  </tr>
</table>
  ",,,,,,,,,,,,,,,,,,,,,,,,,,,,
67,0,,html-keyboard-response,67,245147,0.0-4.8-3.8,ei3y0b0xjnk,2022-09-19 14:52:51.313,62b5f3e16a7f9aef9ed922df,3,71,64,39,14,28,Female,,,"<p style=""font-size:50px"">You Lose!
No points this round.</p>",,,,,,,,,,,,,,,,,,,,,,,,,,,,
68,0,,html-keyboard-response,68,245658,0.0-4.8-4.8,ei3y0b0xjnk,2022-09-19 14:52:51.313,62b5f3e16a7f9aef9ed922df,3,71,64,39,14,28,Female,,,,,,1.0,learning,8.0,C,,black,,stars,,,,C,black,stars,,1.0,0.0,NA,left,506.4000000358,3.0,0.0,0.0,,,
69,0,,html-keyboard-response,69,247175,0.0-4.9-0.9,ei3y0b0xjnk,2022-09-19 14:52:51.313,62b5f3e16a7f9aef9ed922df,3,71,64,39,14,28,Female,,,"<img src=""static/images/cards/stack_of_red_stars.svg"" width=""175px"" height=""250px""></img>",,,,,,,,,,,,,,,,,,,,,,,,,,,,
70,0,,html-keyboard-response,70,248058,0.0-4.9-1.9,ei3y0b0xjnk,2022-09-19 14:52:51.313,62b5f3e16a7f9aef9ed922df,3,71,64,39,14,28,Female,365.8999999762,,"
  <table>
  <tr height=300>
    <td width=300 height=300><img src=""static/images/cards/back_of_red_stars.svg"" width=""175px"" height=""250px""></img></td>
    <td width=300 height=300><img src=""static/images/cards/back_of_red_stars.svg"" width=""175px"" height=""250px""></img></td>
  </tr>
  <tr height=200>
    <td width=300></td>
    <td width=300><img src=""static/images/keys/m.svg"" width=""35%"" height=""75%""></img></td>
  </tr>
</table>
  ",77.0,1.0,,,,,,,,,,,,,,,,,,,,,,,,,,
71,0,,html-keyboard-response,71,249571,0.0-4.9-2.9,ei3y0b0xjnk,2022-09-19 14:52:51.313,62b5f3e16a7f9aef9ed922df,3,71,64,39,14,28,Female,,,"
  <table>
  <tr height=300>
    <td width=300 height=300><img src=""static/images/cards/back_of_red_stars.svg"" width=""175px"" height=""250px""></img></td>
    <td width=300 height=300><img src=""static/images/cards/8_of_red_stars.svg"" width=""175px"" height=""250px""></img></td>
  </tr>
  <tr height=200>
    <td width=300></td>
    <td width=300><img src=""static/images/keys/m.svg"" width=""35%"" height=""75%""></img></td>
  </tr>
</table>
  ",,,,,,,,,,,,,,,,,,,,,,,,,,,,
72,0,,html-keyboard-response,72,251087,0.0-4.9-3.9,ei3y0b0xjnk,2022-09-19 14:52:51.313,62b5f3e16a7f9aef9ed922df,3,71,64,39,14,28,Female,,,"<p style=""font-size:50px"">You Lose!
No points this round.</p>",,,,,,,,,,,,,,,,,,,,,,,,,,,,
73,0,,html-keyboard-response,73,251596,0.0-4.9-4.9,ei3y0b0xjnk,2022-09-19 14:52:51.313,62b5f3e16a7f9aef9ed922df,3,71,64,39,14,28,Female,,,,,,1.0,learning,9.0,D,,red,,stars,,,,D,red,stars,,0.0,0.0,0,right,365.8999999762,8.0,1.0,0.0,,,
74,0,,html-keyboard-response,74,253113,0.0-4.10-0.10,ei3y0b0xjnk,2022-09-19 14:52:51.313,62b5f3e16a7f9aef9ed922df,3,71,64,39,14,28,Female,,,"<img src=""static/images/cards/stack_of_red_bolts.svg"" width=""175px"" height=""250px""></img>",,,,,,,,,,,,,,,,,,,,,,,,,,,,
75,0,,html-keyboard-response,75,254195,0.0-4.10-1.10,ei3y0b0xjnk,2022-09-19 14:52:51.313,62b5f3e16a7f9aef9ed922df,3,71,64,39,14,28,Female,575.1000000238,,"
  <table>
  <tr height=300>
    <td width=300 height=300><img src=""static/images/cards/back_of_red_bolts.svg"" width=""175px"" height=""250px""></img></td>
    <td width=300 height=300><img src=""static/images/cards/back_of_red_bolts.svg"" width=""175px"" height=""250px""></img></td>
  </tr>
  <tr height=200>
    <td width=300><img src=""static/images/keys/z.svg"" width=""35%"" height=""75%""></img></td>
    <td width=300><img src=""static/images/keys/m.svg"" width=""35%"" height=""75%""></img></td>
  </tr>
</table>
  ",90.0,1.0,,,,,,,,,,,,,,,,,,,,,,,,,,
76,0,,html-keyboard-response,76,255706,0.0-4.10-2.10,ei3y0b0xjnk,2022-09-19 14:52:51.313,62b5f3e16a7f9aef9ed922df,3,71,64,39,14,28,Female,,,"
  <table>
  <tr height=300>
    <td width=300 height=300><img src=""static/images/cards/6_of_red_bolts.svg"" width=""175px"" height=""250px""></img></td>
    <td width=300 height=300><img src=""static/images/cards/back_of_red_bolts.svg"" width=""175px"" height=""250px""></img></td>
  </tr>
  <tr height=200>
    <td width=300><img src=""static/images/keys/z.svg"" width=""35%"" height=""75%""></img></td>
    <td width=300><img src=""static/images/keys/m.svg"" width=""35%"" height=""75%""></img></td>
  </tr>
</table>
  ",,,,,,,,,,,,,,,,,,,,,,,,,,,,
77,0,,html-keyboard-response,77,257222,0.0-4.10-3.10,ei3y0b0xjnk,2022-09-19 14:52:51.313,62b5f3e16a7f9aef9ed922df,3,71,64,39,14,28,Female,,,"<p style=""font-size:50px"">You win!
+10 points this round!</p>",,,,,,,,,,,,,,,,,,,,,,,,,,,,
78,0,,html-keyboard-response,78,257736,0.0-4.10-4.10,ei3y0b0xjnk,2022-09-19 14:52:51.313,62b5f3e16a7f9aef9ed922df,3,71,64,39,14,28,Female,,,,,,1.0,learning,10.0,Xc,,red,,bolts,,,,Xc,red,bolts,,1.0,0.0,NA,left,575.1000000238,6.0,1.0,1.0,,,
79,0,,html-keyboard-response,79,259251,0.0-4.11-0.11,ei3y0b0xjnk,2022-09-19 14:52:51.313,62b5f3e16a7f9aef9ed922df,3,71,64,39,14,28,Female,,,"<img src=""static/images/cards/stack_of_black_bolts.svg"" width=""175px"" height=""250px""></img>",,,,,,,,,,,,,,,,,,,,,,,,,,,,
80,0,,html-keyboard-response,80,260300,0.0-4.11-1.11,ei3y0b0xjnk,2022-09-19 14:52:51.313,62b5f3e16a7f9aef9ed922df,3,71,64,39,14,28,Female,533.2000000477,,"
  <table>
  <tr height=300>
    <td width=300 height=300><img src=""static/images/cards/back_of_black_bolts.svg"" width=""175px"" height=""250px""></img></td>
    <td width=300 height=300><img src=""static/images/cards/back_of_black_bolts.svg"" width=""175px"" height=""250px""></img></td>
  </tr>
  <tr height=200>
    <td width=300><img src=""static/images/keys/z.svg"" width=""35%"" height=""75%""></img></td>
    <td width=300></td>
  </tr>
</table>
  ",90.0,2.0,,,,,,,,,,,,,,,,,,,,,,,,,,
81,0,,html-keyboard-response,81,261806,0.0-4.11-2.11,ei3y0b0xjnk,2022-09-19 14:52:51.313,62b5f3e16a7f9aef9ed922df,3,71,64,39,14,28,Female,,,"
  <table>
  <tr height=300>
    <td width=300 height=300><img src=""static/images/cards/6_of_black_bolts.svg"" width=""175px"" height=""250px""></img></td>
    <td width=300 height=300><img src=""static/images/cards/back_of_black_bolts.svg"" width=""175px"" height=""250px""></img></td>
  </tr>
  <tr height=200>
    <td width=300><img src=""static/images/keys/z.svg"" width=""35%"" height=""75%""></img></td>
    <td width=300></td>
  </tr>
</table>
  ",,,,,,,,,,,,,,,,,,,,,,,,,,,,
82,0,,html-keyboard-response,82,263324,0.0-4.11-3.11,ei3y0b0xjnk,2022-09-19 14:52:51.313,62b5f3e16a7f9aef9ed922df,3,71,64,39,14,28,Female,,,"<p style=""font-size:50px"">You win!
+10 points this round!</p>",,,,,,,,,,,,,,,,,,,,,,,,,,,,
83,0,,html-keyboard-response,83,263837,0.0-4.11-4.11,ei3y0b0xjnk,2022-09-19 14:52:51.313,62b5f3e16a7f9aef9ed922df,3,71,64,39,14,28,Female,,,,,,1.0,learning,11.0,Xnc,,black,,bolts,,,,Xnc,black,bolts,,0.0,0.0,1,left,533.2000000477,6.0,1.0,1.0,,,
84,0,,html-keyboard-response,84,265339,0.0-4.12-0.12,ei3y0b0xjnk,2022-09-19 14:52:51.313,62b5f3e16a7f9aef9ed922df,3,71,64,39,14,28,Female,,,"<img src=""static/images/cards/stack_of_black_moons.svg"" width=""175px"" height=""250px""></img>",,,,,,,,,,,,,,,,,,,,,,,,,,,,
85,0,,html-keyboard-response,85,266517,0.0-4.12-1.12,ei3y0b0xjnk,2022-09-19 14:52:51.313,62b5f3e16a7f9aef9ed922df,3,71,64,39,14,28,Female,669.8000000119,,"
  <table>
  <tr height=300>
    <td width=300 height=300><img src=""static/images/cards/back_of_black_moons.svg"" width=""175px"" height=""250px""></img></td>
    <td width=300 height=300><img src=""static/images/cards/back_of_black_moons.svg"" width=""175px"" height=""250px""></img></td>
  </tr>
  <tr height=200>
    <td width=300><img src=""static/images/keys/z.svg"" width=""35%"" height=""75%""></img></td>
    <td width=300><img src=""static/images/keys/m.svg"" width=""35%"" height=""75%""></img></td>
  </tr>
</table>
  ",77.0,1.0,,,,,,,,,,,,,,,,,,,,,,,,,,
86,0,,html-keyboard-response,86,268022,0.0-4.12-2.12,ei3y0b0xjnk,2022-09-19 14:52:51.313,62b5f3e16a7f9aef9ed922df,3,71,64,39,14,28,Female,,,"
  <table>
  <tr height=300>
    <td width=300 height=300><img src=""static/images/cards/back_of_black_moons.svg"" width=""175px"" height=""250px""></img></td>
    <td width=300 height=300><img src=""static/images/cards/8_of_black_moons.svg"" width=""175px"" height=""250px""></img></td>
  </tr>
  <tr height=200>
    <td width=300><img src=""static/images/keys/z.svg"" width=""35%"" height=""75%""></img></td>
    <td width=300><img src=""static/images/keys/m.svg"" width=""35%"" height=""75%""></img></td>
  </tr>
</table>
  ",,,,,,,,,,,,,,,,,,,,,,,,,,,,
87,0,,html-keyboard-response,87,269540,0.0-4.12-3.12,ei3y0b0xjnk,2022-09-19 14:52:51.313,62b5f3e16a7f9aef9ed922df,3,71,64,39,14,28,Female,,,"<p style=""font-size:50px"">You win!
+10 points this round!</p>",,,,,,,,,,,,,,,,,,,,,,,,,,,,
88,0,,html-keyboard-response,88,270050,0.0-4.12-4.12,ei3y0b0xjnk,2022-09-19 14:52:51.313,62b5f3e16a7f9aef9ed922df,3,71,64,39,14,28,Female,,,,,,1.0,learning,12.0,A,,black,,moons,,,,A,black,moons,,1.0,1.0,NA,right,669.8000000119,8.0,1.0,1.0,,,
89,0,,html-keyboard-response,89,271566,0.0-4.13-0.13,ei3y0b0xjnk,2022-09-19 14:52:51.313,62b5f3e16a7f9aef9ed922df,3,71,64,39,14,28,Female,,,"<img src=""static/images/cards/stack_of_red_moons.svg"" width=""175px"" height=""250px""></img>",,,,,,,,,,,,,,,,,,,,,,,,,,,,
90,0,,html-keyboard-response,90,272493,0.0-4.13-1.13,ei3y0b0xjnk,2022-09-19 14:52:51.313,62b5f3e16a7f9aef9ed922df,3,71,64,39,14,28,Female,420.8000000119,,"
  <table>
  <tr height=300>
    <td width=300 height=300><img src=""static/images/cards/back_of_red_moons.svg"" width=""175px"" height=""250px""></img></td>
    <td width=300 height=300><img src=""static/images/cards/back_of_red_moons.svg"" width=""175px"" height=""250px""></img></td>
  </tr>
  <tr height=200>
    <td width=300></td>
    <td width=300><img src=""static/images/keys/m.svg"" width=""35%"" height=""75%""></img></td>
  </tr>
</table>
  ",77.0,1.0,,,,,,,,,,,,,,,,,,,,,,,,,,
91,0,,html-keyboard-response,91,274003,0.0-4.13-2.13,ei3y0b0xjnk,2022-09-19 14:52:51.313,62b5f3e16a7f9aef9ed922df,3,71,64,39,14,28,Female,,,"
  <table>
  <tr height=300>
    <td width=300 height=300><img src=""static/images/cards/back_of_red_moons.svg"" width=""175px"" height=""250px""></img></td>
    <td width=300 height=300><img src=""static/images/cards/3_of_red_moons.svg"" width=""175px"" height=""250px""></img></td>
  </tr>
  <tr height=200>
    <td width=300></td>
    <td width=300><img src=""static/images/keys/m.svg"" width=""35%"" height=""75%""></img></td>
  </tr>
</table>
  ",,,,,,,,,,,,,,,,,,,,,,,,,,,,
92,0,,html-keyboard-response,92,275518,0.0-4.13-3.13,ei3y0b0xjnk,2022-09-19 14:52:51.313,62b5f3e16a7f9aef9ed922df,3,71,64,39,14,28,Female,,,"<p style=""font-size:50px"">You Lose!
No points this round.</p>",,,,,,,,,,,,,,,,,,,,,,,,,,,,
93,0,,html-keyboard-response,93,276026,0.0-4.13-4.13,ei3y0b0xjnk,2022-09-19 14:52:51.313,62b5f3e16a7f9aef9ed922df,3,71,64,39,14,28,Female,,,,,,1.0,learning,13.0,B,,red,,moons,,,,B,red,moons,,0.0,1.0,0,right,420.8000000119,3.0,0.0,0.0,,,
94,0,,html-keyboard-response,94,277542,0.0-4.14-0.14,ei3y0b0xjnk,2022-09-19 14:52:51.313,62b5f3e16a7f9aef9ed922df,3,71,64,39,14,28,Female,,,"<img src=""static/images/cards/stack_of_black_stars.svg"" width=""175px"" height=""250px""></img>",,,,,,,,,,,,,,,,,,,,,,,,,,,,
95,0,,html-keyboard-response,95,278465,0.0-4.14-1.14,ei3y0b0xjnk,2022-09-19 14:52:51.313,62b5f3e16a7f9aef9ed922df,3,71,64,39,14,28,Female,419.0,,"
  <table>
  <tr height=300>
    <td width=300 height=300><img src=""static/images/cards/back_of_black_stars.svg"" width=""175px"" height=""250px""></img></td>
    <td width=300 height=300><img src=""static/images/cards/back_of_black_stars.svg"" width=""175px"" height=""250px""></img></td>
  </tr>
  <tr height=200>
    <td width=300><img src=""static/images/keys/z.svg"" width=""35%"" height=""75%""></img></td>
    <td width=300><img src=""static/images/keys/m.svg"" width=""35%"" height=""75%""></img></td>
  </tr>
</table>
  ",90.0,1.0,,,,,,,,,,,,,,,,,,,,,,,,,,
96,0,,html-keyboard-response,96,279971,0.0-4.14-2.14,ei3y0b0xjnk,2022-09-19 14:52:51.313,62b5f3e16a7f9aef9ed922df,3,71,64,39,14,28,Female,,,"
  <table>
  <tr height=300>
    <td width=300 height=300><img src=""static/images/cards/8_of_black_stars.svg"" width=""175px"" height=""250px""></img></td>
    <td width=300 height=300><img src=""static/images/cards/back_of_black_stars.svg"" width=""175px"" height=""250px""></img></td>
  </tr>
  <tr height=200>
    <td width=300><img src=""static/images/keys/z.svg"" width=""35%"" height=""75%""></img></td>
    <td width=300><img src=""static/images/keys/m.svg"" width=""35%"" height=""75%""></img></td>
  </tr>
</table>
  ",,,,,,,,,,,,,,,,,,,,,,,,,,,,
97,0,,html-keyboard-response,97,281488,0.0-4.14-3.14,ei3y0b0xjnk,2022-09-19 14:52:51.313,62b5f3e16a7f9aef9ed922df,3,71,64,39,14,28,Female,,,"<p style=""font-size:50px"">You win!
+10 points this round!</p>",,,,,,,,,,,,,,,,,,,,,,,,,,,,
98,0,,html-keyboard-response,98,282003,0.0-4.14-4.14,ei3y0b0xjnk,2022-09-19 14:52:51.313,62b5f3e16a7f9aef9ed922df,3,71,64,39,14,28,Female,,,,,,1.0,learning,14.0,C,,black,,stars,,,,C,black,stars,,1.0,0.0,NA,left,419.0,8.0,1.0,1.0,,,
99,0,,html-keyboard-response,99,283509,0.0-4.15-0.15,ei3y0b0xjnk,2022-09-19 14:52:51.313,62b5f3e16a7f9aef9ed922df,3,71,64,39,14,28,Female,,,"<img src=""static/images/cards/stack_of_red_stars.svg"" width=""175px"" height=""250px""></img>",,,,,,,,,,,,,,,,,,,,,,,,,,,,
100,0,,html-keyboard-response,100,284412,0.0-4.15-1.15,ei3y0b0xjnk,2022-09-19 14:52:51.313,62b5f3e16a7f9aef9ed922df,3,71,64,39,14,28,Female,395.5999999642,,"
  <table>
  <tr height=300>
    <td width=300 height=300><img src=""static/images/cards/back_of_red_stars.svg"" width=""175px"" height=""250px""></img></td>
    <td width=300 height=300><img src=""static/images/cards/back_of_red_stars.svg"" width=""175px"" height=""250px""></img></td>
  </tr>
  <tr height=200>
    <td width=300><img src=""static/images/keys/z.svg"" width=""35%"" height=""75%""></img></td>
    <td width=300></td>
  </tr>
</table>
  ",90.0,1.0,,,,,,,,,,,,,,,,,,,,,,,,,,
101,0,,html-keyboard-response,101,285923,0.0-4.15-2.15,ei3y0b0xjnk,2022-09-19 14:52:51.313,62b5f3e16a7f9aef9ed922df,3,71,64,39,14,28,Female,,,"
  <table>
  <tr height=300>
    <td width=300 height=300><img src=""static/images/cards/3_of_red_stars.svg"" width=""175px"" height=""250px""></img></td>
    <td width=300 height=300><img src=""static/images/cards/back_of_red_stars.svg"" width=""175px"" height=""250px""></img></td>
  </tr>
  <tr height=200>
    <td width=300><img src=""static/images/keys/z.svg"" width=""35%"" height=""75%""></img></td>
    <td width=300></td>
  </tr>
</table>
  ",,,,,,,,,,,,,,,,,,,,,,,,,,,,
102,0,,html-keyboard-response,102,287440,0.0-4.15-3.15,ei3y0b0xjnk,2022-09-19 14:52:51.313,62b5f3e16a7f9aef9ed922df,3,71,64,39,14,28,Female,,,"<p style=""font-size:50px"">You win!
+10 points this round!</p>",,,,,,,,,,,,,,,,,,,,,,,,,,,,
103,0,,html-keyboard-response,103,287951,0.0-4.15-4.15,ei3y0b0xjnk,2022-09-19 14:52:51.313,62b5f3e16a7f9aef9ed922df,3,71,64,39,14,28,Female,,,,,,1.0,learning,15.0,D,,red,,stars,,,,D,red,stars,,0.0,0.0,1,left,395.5999999642,3.0,0.0,1.0,,,
104,0,,html-keyboard-response,104,289464,0.0-4.16-0.16,ei3y0b0xjnk,2022-09-19 14:52:51.313,62b5f3e16a7f9aef9ed922df,3,71,64,39,14,28,Female,,,"<img src=""static/images/cards/stack_of_red_bolts.svg"" width=""175px"" height=""250px""></img>",,,,,,,,,,,,,,,,,,,,,,,,,,,,
105,0,,html-keyboard-response,105,290493,0.0-4.16-1.16,ei3y0b0xjnk,2022-09-19 14:52:51.313,62b5f3e16a7f9aef9ed922df,3,71,64,39,14,28,Female,522.1999999881,,"
  <table>
  <tr height=300>
    <td width=300 height=300><img src=""static/images/cards/back_of_red_bolts.svg"" width=""175px"" height=""250px""></img></td>
    <td width=300 height=300><img src=""static/images/cards/back_of_red_bolts.svg"" width=""175px"" height=""250px""></img></td>
  </tr>
  <tr height=200>
    <td width=300><img src=""static/images/keys/z.svg"" width=""35%"" height=""75%""></img></td>
    <td width=300><img src=""static/images/keys/m.svg"" width=""35%"" height=""75%""></img></td>
  </tr>
</table>
  ",77.0,1.0,,,,,,,,,,,,,,,,,,,,,,,,,,
106,0,,html-keyboard-response,106,291996,0.0-4.16-2.16,ei3y0b0xjnk,2022-09-19 14:52:51.313,62b5f3e16a7f9aef9ed922df,3,71,64,39,14,28,Female,,,"
  <table>
  <tr height=300>
    <td width=300 height=300><img src=""static/images/cards/back_of_red_bolts.svg"" width=""175px"" height=""250px""></img></td>
    <td width=300 height=300><img src=""static/images/cards/1_of_red_bolts.svg"" width=""175px"" height=""250px""></img></td>
  </tr>
  <tr height=200>
    <td width=300><img src=""static/images/keys/z.svg"" width=""35%"" height=""75%""></img></td>
    <td width=300><img src=""static/images/keys/m.svg"" width=""35%"" height=""75%""></img></td>
  </tr>
</table>
  ",,,,,,,,,,,,,,,,,,,,,,,,,,,,
107,0,,html-keyboard-response,107,293506,0.0-4.16-3.16,ei3y0b0xjnk,2022-09-19 14:52:51.313,62b5f3e16a7f9aef9ed922df,3,71,64,39,14,28,Female,,,"<p style=""font-size:50px"">You win!
+10 points this round!</p>",,,,,,,,,,,,,,,,,,,,,,,,,,,,
108,0,,html-keyboard-response,108,294022,0.0-4.16-4.16,ei3y0b0xjnk,2022-09-19 14:52:51.313,62b5f3e16a7f9aef9ed922df,3,71,64,39,14,28,Female,,,,,,1.0,learning,16.0,Xc,,red,,bolts,,,,Xc,red,bolts,,1.0,0.0,NA,right,522.1999999881,1.0,0.0,1.0,,,
109,0,,html-keyboard-response,109,295535,0.0-4.17-0.17,ei3y0b0xjnk,2022-09-19 14:52:51.313,62b5f3e16a7f9aef9ed922df,3,71,64,39,14,28,Female,,,"<img src=""static/images/cards/stack_of_black_bolts.svg"" width=""175px"" height=""250px""></img>",,,,,,,,,,,,,,,,,,,,,,,,,,,,
110,0,,html-keyboard-response,110,296477,0.0-4.17-1.17,ei3y0b0xjnk,2022-09-19 14:52:51.313,62b5f3e16a7f9aef9ed922df,3,71,64,39,14,28,Female,436.9000000358,,"
  <table>
  <tr height=300>
    <td width=300 height=300><img src=""static/images/cards/back_of_black_bolts.svg"" width=""175px"" height=""250px""></img></td>
    <td width=300 height=300><img src=""static/images/cards/back_of_black_bolts.svg"" width=""175px"" height=""250px""></img></td>
  </tr>
  <tr height=200>
    <td width=300><img src=""static/images/keys/z.svg"" width=""35%"" height=""75%""></img></td>
    <td width=300></td>
  </tr>
</table>
  ",90.0,1.0,,,,,,,,,,,,,,,,,,,,,,,,,,
111,0,,html-keyboard-response,111,297993,0.0-4.17-2.17,ei3y0b0xjnk,2022-09-19 14:52:51.313,62b5f3e16a7f9aef9ed922df,3,71,64,39,14,28,Female,,,"
  <table>
  <tr height=300>
    <td width=300 height=300><img src=""static/images/cards/3_of_black_bolts.svg"" width=""175px"" height=""250px""></img></td>
    <td width=300 height=300><img src=""static/images/cards/back_of_black_bolts.svg"" width=""175px"" height=""250px""></img></td>
  </tr>
  <tr height=200>
    <td width=300><img src=""static/images/keys/z.svg"" width=""35%"" height=""75%""></img></td>
    <td width=300></td>
  </tr>
</table>
  ",,,,,,,,,,,,,,,,,,,,,,,,,,,,
112,0,,html-keyboard-response,112,299505,0.0-4.17-3.17,ei3y0b0xjnk,2022-09-19 14:52:51.313,62b5f3e16a7f9aef9ed922df,3,71,64,39,14,28,Female,,,"<p style=""font-size:50px"">You win!
+10 points this round!</p>",,,,,,,,,,,,,,,,,,,,,,,,,,,,
113,0,,html-keyboard-response,113,300024,0.0-4.17-4.17,ei3y0b0xjnk,2022-09-19 14:52:51.313,62b5f3e16a7f9aef9ed922df,3,71,64,39,14,28,Female,,,,,,1.0,learning,17.0,Xnc,,black,,bolts,,,,Xnc,black,bolts,,0.0,0.0,1,left,436.9000000358,3.0,0.0,1.0,,,
114,0,,html-keyboard-response,114,301530,0.0-4.18-0.18,ei3y0b0xjnk,2022-09-19 14:52:51.313,62b5f3e16a7f9aef9ed922df,3,71,64,39,14,28,Female,,,"<img src=""static/images/cards/stack_of_black_moons.svg"" width=""175px"" height=""250px""></img>",,,,,,,,,,,,,,,,,,,,,,,,,,,,
115,0,,html-keyboard-response,115,302489,0.0-4.18-1.18,ei3y0b0xjnk,2022-09-19 14:52:51.313,62b5f3e16a7f9aef9ed922df,3,71,64,39,14,28,Female,454.5,,"
  <table>
  <tr height=300>
    <td width=300 height=300><img src=""static/images/cards/back_of_black_moons.svg"" width=""175px"" height=""250px""></img></td>
    <td width=300 height=300><img src=""static/images/cards/back_of_black_moons.svg"" width=""175px"" height=""250px""></img></td>
  </tr>
  <tr height=200>
    <td width=300><img src=""static/images/keys/z.svg"" width=""35%"" height=""75%""></img></td>
    <td width=300><img src=""static/images/keys/m.svg"" width=""35%"" height=""75%""></img></td>
  </tr>
</table>
  ",90.0,1.0,,,,,,,,,,,,,,,,,,,,,,,,,,
116,0,,html-keyboard-response,116,303994,0.0-4.18-2.18,ei3y0b0xjnk,2022-09-19 14:52:51.313,62b5f3e16a7f9aef9ed922df,3,71,64,39,14,28,Female,,,"
  <table>
  <tr height=300>
    <td width=300 height=300><img src=""static/images/cards/6_of_black_moons.svg"" width=""175px"" height=""250px""></img></td>
    <td width=300 height=300><img src=""static/images/cards/back_of_black_moons.svg"" width=""175px"" height=""250px""></img></td>
  </tr>
  <tr height=200>
    <td width=300><img src=""static/images/keys/z.svg"" width=""35%"" height=""75%""></img></td>
    <td width=300><img src=""static/images/keys/m.svg"" width=""35%"" height=""75%""></img></td>
  </tr>
</table>
  ",,,,,,,,,,,,,,,,,,,,,,,,,,,,
117,0,,html-keyboard-response,117,305502,0.0-4.18-3.18,ei3y0b0xjnk,2022-09-19 14:52:51.313,62b5f3e16a7f9aef9ed922df,3,71,64,39,14,28,Female,,,"<p style=""font-size:50px"">You win!
+10 points this round!</p>",,,,,,,,,,,,,,,,,,,,,,,,,,,,
118,0,,html-keyboard-response,118,306015,0.0-4.18-4.18,ei3y0b0xjnk,2022-09-19 14:52:51.313,62b5f3e16a7f9aef9ed922df,3,71,64,39,14,28,Female,,,,,,1.0,learning,18.0,A,,black,,moons,,,,A,black,moons,,1.0,1.0,NA,left,454.5,6.0,1.0,1.0,,,
119,0,,html-keyboard-response,119,307531,0.0-4.19-0.19,ei3y0b0xjnk,2022-09-19 14:52:51.313,62b5f3e16a7f9aef9ed922df,3,71,64,39,14,28,Female,,,"<img src=""static/images/cards/stack_of_red_moons.svg"" width=""175px"" height=""250px""></img>",,,,,,,,,,,,,,,,,,,,,,,,,,,,
120,0,,html-keyboard-response,120,308593,0.0-4.19-1.19,ei3y0b0xjnk,2022-09-19 14:52:51.313,62b5f3e16a7f9aef9ed922df,3,71,64,39,14,28,Female,558.0,,"
  <table>
  <tr height=300>
    <td width=300 height=300><img src=""static/images/cards/back_of_red_moons.svg"" width=""175px"" height=""250px""></img></td>
    <td width=300 height=300><img src=""static/images/cards/back_of_red_moons.svg"" width=""175px"" height=""250px""></img></td>
  </tr>
  <tr height=200>
    <td width=300></td>
    <td width=300><img src=""static/images/keys/m.svg"" width=""35%"" height=""75%""></img></td>
  </tr>
</table>
  ",77.0,1.0,,,,,,,,,,,,,,,,,,,,,,,,,,
121,0,,html-keyboard-response,121,310110,0.0-4.19-2.19,ei3y0b0xjnk,2022-09-19 14:52:51.313,62b5f3e16a7f9aef9ed922df,3,71,64,39,14,28,Female,,,"
  <table>
  <tr height=300>
    <td width=300 height=300><img src=""static/images/cards/back_of_red_moons.svg"" width=""175px"" height=""250px""></img></td>
    <td width=300 height=300><img src=""static/images/cards/7_of_red_moons.svg"" width=""175px"" height=""250px""></img></td>
  </tr>
  <tr height=200>
    <td width=300></td>
    <td width=300><img src=""static/images/keys/m.svg"" width=""35%"" height=""75%""></img></td>
  </tr>
</table>
  ",,,,,,,,,,,,,,,,,,,,,,,,,,,,
122,0,,html-keyboard-response,122,311620,0.0-4.19-3.19,ei3y0b0xjnk,2022-09-19 14:52:51.313,62b5f3e16a7f9aef9ed922df,3,71,64,39,14,28,Female,,,"<p style=""font-size:50px"">You win!
+10 points this round!</p>",,,,,,,,,,,,,,,,,,,,,,,,,,,,
123,0,,html-keyboard-response,123,312134,0.0-4.19-4.19,ei3y0b0xjnk,2022-09-19 14:52:51.313,62b5f3e16a7f9aef9ed922df,3,71,64,39,14,28,Female,,,,,,1.0,learning,19.0,B,,red,,moons,,,,B,red,moons,,0.0,1.0,0,right,558.0,7.0,1.0,1.0,,,
124,0,,html-keyboard-response,124,313646,0.0-4.20-0.20,ei3y0b0xjnk,2022-09-19 14:52:51.313,62b5f3e16a7f9aef9ed922df,3,71,64,39,14,28,Female,,,"<img src=""static/images/cards/stack_of_black_stars.svg"" width=""175px"" height=""250px""></img>",,,,,,,,,,,,,,,,,,,,,,,,,,,,
125,0,,html-keyboard-response,125,314687,0.0-4.20-1.20,ei3y0b0xjnk,2022-09-19 14:52:51.313,62b5f3e16a7f9aef9ed922df,3,71,64,39,14,28,Female,533.9000000358,,"
  <table>
  <tr height=300>
    <td width=300 height=300><img src=""static/images/cards/back_of_black_stars.svg"" width=""175px"" height=""250px""></img></td>
    <td width=300 height=300><img src=""static/images/cards/back_of_black_stars.svg"" width=""175px"" height=""250px""></img></td>
  </tr>
  <tr height=200>
    <td width=300><img src=""static/images/keys/z.svg"" width=""35%"" height=""75%""></img></td>
    <td width=300><img src=""static/images/keys/m.svg"" width=""35%"" height=""75%""></img></td>
  </tr>
</table>
  ",90.0,1.0,,,,,,,,,,,,,,,,,,,,,,,,,,
126,0,,html-keyboard-response,126,316197,0.0-4.20-2.20,ei3y0b0xjnk,2022-09-19 14:52:51.313,62b5f3e16a7f9aef9ed922df,3,71,64,39,14,28,Female,,,"
  <table>
  <tr height=300>
    <td width=300 height=300><img src=""static/images/cards/3_of_black_stars.svg"" width=""175px"" height=""250px""></img></td>
    <td width=300 height=300><img src=""static/images/cards/back_of_black_stars.svg"" width=""175px"" height=""250px""></img></td>
  </tr>
  <tr height=200>
    <td width=300><img src=""static/images/keys/z.svg"" width=""35%"" height=""75%""></img></td>
    <td width=300><img src=""static/images/keys/m.svg"" width=""35%"" height=""75%""></img></td>
  </tr>
</table>
  ",,,,,,,,,,,,,,,,,,,,,,,,,,,,
127,0,,html-keyboard-response,127,317718,0.0-4.20-3.20,ei3y0b0xjnk,2022-09-19 14:52:51.313,62b5f3e16a7f9aef9ed922df,3,71,64,39,14,28,Female,,,"<p style=""font-size:50px"">You win!
+10 points this round!</p>",,,,,,,,,,,,,,,,,,,,,,,,,,,,
128,0,,html-keyboard-response,128,318230,0.0-4.20-4.20,ei3y0b0xjnk,2022-09-19 14:52:51.313,62b5f3e16a7f9aef9ed922df,3,71,64,39,14,28,Female,,,,,,1.0,learning,20.0,C,,black,,stars,,,,C,black,stars,,1.0,0.0,NA,left,533.9000000358,3.0,0.0,1.0,,,
129,0,,html-keyboard-response,129,319743,0.0-4.21-0.21,ei3y0b0xjnk,2022-09-19 14:52:51.313,62b5f3e16a7f9aef9ed922df,3,71,64,39,14,28,Female,,,"<img src=""static/images/cards/stack_of_red_stars.svg"" width=""175px"" height=""250px""></img>",,,,,,,,,,,,,,,,,,,,,,,,,,,,
130,0,,html-keyboard-response,130,320670,0.0-4.21-1.21,ei3y0b0xjnk,2022-09-19 14:52:51.313,62b5f3e16a7f9aef9ed922df,3,71,64,39,14,28,Female,419.1000000238,,"
  <table>
  <tr height=300>
    <td width=300 height=300><img src=""static/images/cards/back_of_red_stars.svg"" width=""175px"" height=""250px""></img></td>
    <td width=300 height=300><img src=""static/images/cards/back_of_red_stars.svg"" width=""175px"" height=""250px""></img></td>
  </tr>
  <tr height=200>
    <td width=300><img src=""static/images/keys/z.svg"" width=""35%"" height=""75%""></img></td>
    <td width=300></td>
  </tr>
</table>
  ",90.0,1.0,,,,,,,,,,,,,,,,,,,,,,,,,,
131,0,,html-keyboard-response,131,322177,0.0-4.21-2.21,ei3y0b0xjnk,2022-09-19 14:52:51.313,62b5f3e16a7f9aef9ed922df,3,71,64,39,14,28,Female,,,"
  <table>
  <tr height=300>
    <td width=300 height=300><img src=""static/images/cards/4_of_red_stars.svg"" width=""175px"" height=""250px""></img></td>
    <td width=300 height=300><img src=""static/images/cards/back_of_red_stars.svg"" width=""175px"" height=""250px""></img></td>
  </tr>
  <tr height=200>
    <td width=300><img src=""static/images/keys/z.svg"" width=""35%"" height=""75%""></img></td>
    <td width=300></td>
  </tr>
</table>
  ",,,,,,,,,,,,,,,,,,,,,,,,,,,,
132,0,,html-keyboard-response,132,323694,0.0-4.21-3.21,ei3y0b0xjnk,2022-09-19 14:52:51.313,62b5f3e16a7f9aef9ed922df,3,71,64,39,14,28,Female,,,"<p style=""font-size:50px"">You Lose!
No points this round.</p>",,,,,,,,,,,,,,,,,,,,,,,,,,,,
133,0,,html-keyboard-response,133,324208,0.0-4.21-4.21,ei3y0b0xjnk,2022-09-19 14:52:51.313,62b5f3e16a7f9aef9ed922df,3,71,64,39,14,28,Female,,,,,,1.0,learning,21.0,D,,red,,stars,,,,D,red,stars,,0.0,0.0,1,left,419.1000000238,4.0,0.0,0.0,,,
134,0,,html-keyboard-response,134,325722,0.0-4.22-0.22,ei3y0b0xjnk,2022-09-19 14:52:51.313,62b5f3e16a7f9aef9ed922df,3,71,64,39,14,28,Female,,,"<img src=""static/images/cards/stack_of_red_bolts.svg"" width=""175px"" height=""250px""></img>",,,,,,,,,,,,,,,,,,,,,,,,,,,,
135,0,,html-keyboard-response,135,326697,0.0-4.22-1.22,ei3y0b0xjnk,2022-09-19 14:52:51.313,62b5f3e16a7f9aef9ed922df,3,71,64,39,14,28,Female,464.3000000119,,"
  <table>
  <tr height=300>
    <td width=300 height=300><img src=""static/images/cards/back_of_red_bolts.svg"" width=""175px"" height=""250px""></img></td>
    <td width=300 height=300><img src=""static/images/cards/back_of_red_bolts.svg"" width=""175px"" height=""250px""></img></td>
  </tr>
  <tr height=200>
    <td width=300><img src=""static/images/keys/z.svg"" width=""35%"" height=""75%""></img></td>
    <td width=300><img src=""static/images/keys/m.svg"" width=""35%"" height=""75%""></img></td>
  </tr>
</table>
  ",90.0,1.0,,,,,,,,,,,,,,,,,,,,,,,,,,
136,0,,html-keyboard-response,136,328215,0.0-4.22-2.22,ei3y0b0xjnk,2022-09-19 14:52:51.313,62b5f3e16a7f9aef9ed922df,3,71,64,39,14,28,Female,,,"
  <table>
  <tr height=300>
    <td width=300 height=300><img src=""static/images/cards/8_of_red_bolts.svg"" width=""175px"" height=""250px""></img></td>
    <td width=300 height=300><img src=""static/images/cards/back_of_red_bolts.svg"" width=""175px"" height=""250px""></img></td>
  </tr>
  <tr height=200>
    <td width=300><img src=""static/images/keys/z.svg"" width=""35%"" height=""75%""></img></td>
    <td width=300><img src=""static/images/keys/m.svg"" width=""35%"" height=""75%""></img></td>
  </tr>
</table>
  ",,,,,,,,,,,,,,,,,,,,,,,,,,,,
137,0,,html-keyboard-response,137,329735,0.0-4.22-3.22,ei3y0b0xjnk,2022-09-19 14:52:51.313,62b5f3e16a7f9aef9ed922df,3,71,64,39,14,28,Female,,,"<p style=""font-size:50px"">You win!
+10 points this round!</p>",,,,,,,,,,,,,,,,,,,,,,,,,,,,
138,0,,html-keyboard-response,138,330248,0.0-4.22-4.22,ei3y0b0xjnk,2022-09-19 14:52:51.313,62b5f3e16a7f9aef9ed922df,3,71,64,39,14,28,Female,,,,,,1.0,learning,22.0,Xc,,red,,bolts,,,,Xc,red,bolts,,1.0,0.0,NA,left,464.3000000119,8.0,1.0,1.0,,,
139,0,,html-keyboard-response,139,331763,0.0-4.23-0.23,ei3y0b0xjnk,2022-09-19 14:52:51.313,62b5f3e16a7f9aef9ed922df,3,71,64,39,14,28,Female,,,"<img src=""static/images/cards/stack_of_black_bolts.svg"" width=""175px"" height=""250px""></img>",,,,,,,,,,,,,,,,,,,,,,,,,,,,
140,0,,html-keyboard-response,140,332686,0.0-4.23-1.23,ei3y0b0xjnk,2022-09-19 14:52:51.313,62b5f3e16a7f9aef9ed922df,3,71,64,39,14,28,Female,413.1999999881,,"
  <table>
  <tr height=300>
    <td width=300 height=300><img src=""static/images/cards/back_of_black_bolts.svg"" width=""175px"" height=""250px""></img></td>
    <td width=300 height=300><img src=""static/images/cards/back_of_black_bolts.svg"" width=""175px"" height=""250px""></img></td>
  </tr>
  <tr height=200>
    <td width=300></td>
    <td width=300><img src=""static/images/keys/m.svg"" width=""35%"" height=""75%""></img></td>
  </tr>
</table>
  ",77.0,1.0,,,,,,,,,,,,,,,,,,,,,,,,,,
141,0,,html-keyboard-response,141,334204,0.0-4.23-2.23,ei3y0b0xjnk,2022-09-19 14:52:51.313,62b5f3e16a7f9aef9ed922df,3,71,64,39,14,28,Female,,,"
  <table>
  <tr height=300>
    <td width=300 height=300><img src=""static/images/cards/back_of_black_bolts.svg"" width=""175px"" height=""250px""></img></td>
    <td width=300 height=300><img src=""static/images/cards/8_of_black_bolts.svg"" width=""175px"" height=""250px""></img></td>
  </tr>
  <tr height=200>
    <td width=300></td>
    <td width=300><img src=""static/images/keys/m.svg"" width=""35%"" height=""75%""></img></td>
  </tr>
</table>
  ",,,,,,,,,,,,,,,,,,,,,,,,,,,,
142,0,,html-keyboard-response,142,335722,0.0-4.23-3.23,ei3y0b0xjnk,2022-09-19 14:52:51.313,62b5f3e16a7f9aef9ed922df,3,71,64,39,14,28,Female,,,"<p style=""font-size:50px"">You win!
+10 points this round!</p>",,,,,,,,,,,,,,,,,,,,,,,,,,,,
143,0,,html-keyboard-response,143,336234,0.0-4.23-4.23,ei3y0b0xjnk,2022-09-19 14:52:51.313,62b5f3e16a7f9aef9ed922df,3,71,64,39,14,28,Female,,,,,,1.0,learning,23.0,Xnc,,black,,bolts,,,,Xnc,black,bolts,,0.0,0.0,0,right,413.1999999881,8.0,1.0,1.0,,,
144,0,,call-function,144,336247,0.0-5.0,ei3y0b0xjnk,2022-09-19 14:52:51.313,62b5f3e16a7f9aef9ed922df,3,71,64,39,14,28,Female,,,,,,,,,,,,,,,,,,,,,,,,,,,,,,,
145,0,,image-keyboard-response,145,344642,0.0-6.0-0.0,ei3y0b0xjnk,2022-09-19 14:52:51.313,62b5f3e16a7f9aef9ed922df,3,71,64,39,14,28,Female,8394.2000000477,,static/images/instructions_CB_3/Slide20.png,39.0,,,,,,,,,,,,,,,,,,,,,,,,,,,
146,0,,image-keyboard-response,146,361798,0.0-6.1-0.1,ei3y0b0xjnk,2022-09-19 14:52:51.313,62b5f3e16a7f9aef9ed922df,3,71,64,39,14,28,Female,17155.1999999881,,static/images/instructions_CB_3/Slide21.png,39.0,,,,,,,,,,,,,,,,,,,,,,,,,,,
147,0,,image-keyboard-response,147,371106,0.0-6.2-0.2,ei3y0b0xjnk,2022-09-19 14:52:51.313,62b5f3e16a7f9aef9ed922df,3,71,64,39,14,28,Female,9306.3999999762,,static/images/instructions_CB_3/Slide22.png,39.0,,,,,,,,,,,,,,,,,,,,,,,,,,,
148,0,,image-keyboard-response,148,396005,0.0-6.3-0.3,ei3y0b0xjnk,2022-09-19 14:52:51.313,62b5f3e16a7f9aef9ed922df,3,71,64,39,14,28,Female,24897.8000000119,,static/images/instructions_CB_3/Slide23.png,39.0,,,,,,,,,,,,,,,,,,,,,,,,,,,
149,0,,image-keyboard-response,149,401216,0.0-6.4-0.4,ei3y0b0xjnk,2022-09-19 14:52:51.313,62b5f3e16a7f9aef9ed922df,3,71,64,39,14,28,Female,5210.3000000119,,static/images/instructions_CB_3/Slide24.png,39.0,,,,,,,,,,,,,,,,,,,,,,,,,,,
150,0,,html-keyboard-response,150,403161,0.0-7.0-0.0,ei3y0b0xjnk,2022-09-19 14:52:51.313,62b5f3e16a7f9aef9ed922df,3,71,64,39,14,28,Female,1942.5,,"
  <table>
  <tr height=300>
    <td width=300 height=300><img src=""static/images/cards/stack_of_red_moons.svg"" width=""175px"" height=""250px""></img></td>
    <td width=300 height=300><img src=""static/images/cards/stack_of_red_stars.svg"" width=""175px"" height=""250px""></img></td>
  </tr>
  <tr height=200>
    <td width=300><img src=""static/images/keys/w.svg"" width=""35%"" height=""75%""></img></td>
    <td width=300><img src=""static/images/keys/o.svg"" width=""35%"" height=""75%""></img></td>
  </tr>
</table>
  ",87.0,1.0,,,,,,,,,,,,,,,,,,,,,,,,,,
151,0,,html-keyboard-response,151,404825,0.0-7.0-1.0,ei3y0b0xjnk,2022-09-19 14:52:51.313,62b5f3e16a7f9aef9ed922df,3,71,64,39,14,28,Female,1156.5999999642,,"
  <table>
  <tr height=300>
    <td width=300 height=300><img src=""static/images/cards/back_of_red_moons.svg"" width=""175px"" height=""250px""></img></td>
    <td width=300 height=300><img src=""static/images/cards/back_of_red_moons.svg"" width=""175px"" height=""250px""></img></td>
  </tr>
  <tr height=200>
    <td width=300><img src=""static/images/keys/z.svg"" width=""35%"" height=""75%""></img></td>
    <td width=300></td>
  </tr>
</table>
  ",90.0,1.0,,,,,,,,,,,,,,,,,,,,,,,,,,
152,0,,html-keyboard-response,152,406327,0.0-7.0-2.0,ei3y0b0xjnk,2022-09-19 14:52:51.313,62b5f3e16a7f9aef9ed922df,3,71,64,39,14,28,Female,,,"
  <table>
  <tr height=300>
    <td width=300 height=300><img src=""static/images/cards/6_of_red_moons.svg"" width=""175px"" height=""250px""></img></td>
    <td width=300 height=300><img src=""static/images/cards/back_of_red_moons.svg"" width=""175px"" height=""250px""></img></td>
  </tr>
  <tr height=200>
    <td width=300><img src=""static/images/keys/z.svg"" width=""35%"" height=""75%""></img></td>
    <td width=300></td>
  </tr>
</table>
  ",,,,,,,,,,,,,,,,,,,,,,,,,,,,
153,0,,html-keyboard-response,153,407854,0.0-7.0-3.0,ei3y0b0xjnk,2022-09-19 14:52:51.313,62b5f3e16a7f9aef9ed922df,3,71,64,39,14,28,Female,,,"<p style=""font-size:50px"">You win!
+10 points this round!</p>",,,,,,,,,,,,,,,,,,,,,,,,,,,,
154,0,,html-keyboard-response,154,408369,0.0-7.0-4.0,ei3y0b0xjnk,2022-09-19 14:52:51.313,62b5f3e16a7f9aef9ed922df,3,71,64,39,14,28,Female,,,,,,1.0,choice,0.0,B,D,red,red,moons,stars,B,D,B,red,moons,1942.5,0.0,1.0,1,left,1156.5999999642,6.0,1.0,1.0,,,
155,0,,html-keyboard-response,155,409757,0.0-7.1-0.1,ei3y0b0xjnk,2022-09-19 14:52:51.313,62b5f3e16a7f9aef9ed922df,3,71,64,39,14,28,Female,1385.6999999881,,"
  <table>
  <tr height=300>
    <td width=300 height=300><img src=""static/images/cards/stack_of_red_moons.svg"" width=""175px"" height=""250px""></img></td>
    <td width=300 height=300><img src=""static/images/cards/stack_of_black_moons.svg"" width=""175px"" height=""250px""></img></td>
  </tr>
  <tr height=200>
    <td width=300><img src=""static/images/keys/w.svg"" width=""35%"" height=""75%""></img></td>
    <td width=300><img src=""static/images/keys/o.svg"" width=""35%"" height=""75%""></img></td>
  </tr>
</table>
  ",79.0,1.0,,,,,,,,,,,,,,,,,,,,,,,,,,
156,0,,html-keyboard-response,156,411681,0.0-7.1-1.1,ei3y0b0xjnk,2022-09-19 14:52:51.313,62b5f3e16a7f9aef9ed922df,3,71,64,39,14,28,Female,1412.9000000358,,"
  <table>
  <tr height=300>
    <td width=300 height=300><img src=""static/images/cards/back_of_black_moons.svg"" width=""175px"" height=""250px""></img></td>
    <td width=300 height=300><img src=""static/images/cards/back_of_black_moons.svg"" width=""175px"" height=""250px""></img></td>
  </tr>
  <tr height=200>
    <td width=300><img src=""static/images/keys/z.svg"" width=""35%"" height=""75%""></img></td>
    <td width=300><img src=""static/images/keys/m.svg"" width=""35%"" height=""75%""></img></td>
  </tr>
</table>
  ",90.0,1.0,,,,,,,,,,,,,,,,,,,,,,,,,,
157,0,,html-keyboard-response,157,413191,0.0-7.1-2.1,ei3y0b0xjnk,2022-09-19 14:52:51.313,62b5f3e16a7f9aef9ed922df,3,71,64,39,14,28,Female,,,"
  <table>
  <tr height=300>
    <td width=300 height=300><img src=""static/images/cards/10_of_black_moons.svg"" width=""175px"" height=""250px""></img></td>
    <td width=300 height=300><img src=""static/images/cards/back_of_black_moons.svg"" width=""175px"" height=""250px""></img></td>
  </tr>
  <tr height=200>
    <td width=300><img src=""static/images/keys/z.svg"" width=""35%"" height=""75%""></img></td>
    <td width=300><img src=""static/images/keys/m.svg"" width=""35%"" height=""75%""></img></td>
  </tr>
</table>
  ",,,,,,,,,,,,,,,,,,,,,,,,,,,,
158,0,,html-keyboard-response,158,414707,0.0-7.1-3.1,ei3y0b0xjnk,2022-09-19 14:52:51.313,62b5f3e16a7f9aef9ed922df,3,71,64,39,14,28,Female,,,"<p style=""font-size:50px"">You win!
+10 points this round!</p>",,,,,,,,,,,,,,,,,,,,,,,,,,,,
159,0,,html-keyboard-response,159,415220,0.0-7.1-4.1,ei3y0b0xjnk,2022-09-19 14:52:51.313,62b5f3e16a7f9aef9ed922df,3,71,64,39,14,28,Female,,,,,,1.0,choice,1.0,A,B,red,black,moons,moons,B,A,A,black,moons,1385.6999999881,1.0,1.0,NA,left,1412.9000000358,10.0,1.0,1.0,,,
160,0,,html-keyboard-response,160,416276,0.0-7.2-0.2,ei3y0b0xjnk,2022-09-19 14:52:51.313,62b5f3e16a7f9aef9ed922df,3,71,64,39,14,28,Female,1053.0,,"
  <table>
  <tr height=300>
    <td width=300 height=300><img src=""static/images/cards/stack_of_red_stars.svg"" width=""175px"" height=""250px""></img></td>
    <td width=300 height=300><img src=""static/images/cards/stack_of_black_moons.svg"" width=""175px"" height=""250px""></img></td>
  </tr>
  <tr height=200>
    <td width=300><img src=""static/images/keys/w.svg"" width=""35%"" height=""75%""></img></td>
    <td width=300><img src=""static/images/keys/o.svg"" width=""35%"" height=""75%""></img></td>
  </tr>
</table>
  ",79.0,1.0,,,,,,,,,,,,,,,,,,,,,,,,,,
161,0,,html-keyboard-response,161,417867,0.0-7.2-1.2,ei3y0b0xjnk,2022-09-19 14:52:51.313,62b5f3e16a7f9aef9ed922df,3,71,64,39,14,28,Female,1075.8999999762,,"
  <table>
  <tr height=300>
    <td width=300 height=300><img src=""static/images/cards/back_of_black_moons.svg"" width=""175px"" height=""250px""></img></td>
    <td width=300 height=300><img src=""static/images/cards/back_of_black_moons.svg"" width=""175px"" height=""250px""></img></td>
  </tr>
  <tr height=200>
    <td width=300><img src=""static/images/keys/z.svg"" width=""35%"" height=""75%""></img></td>
    <td width=300><img src=""static/images/keys/m.svg"" width=""35%"" height=""75%""></img></td>
  </tr>
</table>
  ",90.0,1.0,,,,,,,,,,,,,,,,,,,,,,,,,,
162,0,,html-keyboard-response,162,419382,0.0-7.2-2.2,ei3y0b0xjnk,2022-09-19 14:52:51.313,62b5f3e16a7f9aef9ed922df,3,71,64,39,14,28,Female,,,"
  <table>
  <tr height=300>
    <td width=300 height=300><img src=""static/images/cards/4_of_black_moons.svg"" width=""175px"" height=""250px""></img></td>
    <td width=300 height=300><img src=""static/images/cards/back_of_black_moons.svg"" width=""175px"" height=""250px""></img></td>
  </tr>
  <tr height=200>
    <td width=300><img src=""static/images/keys/z.svg"" width=""35%"" height=""75%""></img></td>
    <td width=300><img src=""static/images/keys/m.svg"" width=""35%"" height=""75%""></img></td>
  </tr>
</table>
  ",,,,,,,,,,,,,,,,,,,,,,,,,,,,
163,0,,html-keyboard-response,163,420904,0.0-7.2-3.2,ei3y0b0xjnk,2022-09-19 14:52:51.313,62b5f3e16a7f9aef9ed922df,3,71,64,39,14,28,Female,,,"<p style=""font-size:50px"">You Lose!
No points this round.</p>",,,,,,,,,,,,,,,,,,,,,,,,,,,,
164,0,,html-keyboard-response,164,421414,0.0-7.2-4.2,ei3y0b0xjnk,2022-09-19 14:52:51.313,62b5f3e16a7f9aef9ed922df,3,71,64,39,14,28,Female,,,,,,1.0,choice,2.0,A,D,red,black,stars,moons,D,A,A,black,moons,1053.0,1.0,1.0,NA,left,1075.8999999762,4.0,0.0,0.0,,,
165,0,,html-keyboard-response,165,422526,0.0-7.3-0.3,ei3y0b0xjnk,2022-09-19 14:52:51.313,62b5f3e16a7f9aef9ed922df,3,71,64,39,14,28,Female,1109.8000000119,,"
  <table>
  <tr height=300>
    <td width=300 height=300><img src=""static/images/cards/stack_of_red_moons.svg"" width=""175px"" height=""250px""></img></td>
    <td width=300 height=300><img src=""static/images/cards/stack_of_black_stars.svg"" width=""175px"" height=""250px""></img></td>
  </tr>
  <tr height=200>
    <td width=300><img src=""static/images/keys/w.svg"" width=""35%"" height=""75%""></img></td>
    <td width=300><img src=""static/images/keys/o.svg"" width=""35%"" height=""75%""></img></td>
  </tr>
</table>
  ",87.0,1.0,,,,,,,,,,,,,,,,,,,,,,,,,,
166,0,,html-keyboard-response,166,424679,0.0-7.3-1.3,ei3y0b0xjnk,2022-09-19 14:52:51.313,62b5f3e16a7f9aef9ed922df,3,71,64,39,14,28,Female,1636.5999999642,,"
  <table>
  <tr height=300>
    <td width=300 height=300><img src=""static/images/cards/back_of_red_moons.svg"" width=""175px"" height=""250px""></img></td>
    <td width=300 height=300><img src=""static/images/cards/back_of_red_moons.svg"" width=""175px"" height=""250px""></img></td>
  </tr>
  <tr height=200>
    <td width=300><img src=""static/images/keys/z.svg"" width=""35%"" height=""75%""></img></td>
    <td width=300></td>
  </tr>
</table>
  ",90.0,1.0,,,,,,,,,,,,,,,,,,,,,,,,,,
167,0,,html-keyboard-response,167,426183,0.0-7.3-2.3,ei3y0b0xjnk,2022-09-19 14:52:51.313,62b5f3e16a7f9aef9ed922df,3,71,64,39,14,28,Female,,,"
  <table>
  <tr height=300>
    <td width=300 height=300><img src=""static/images/cards/2_of_red_moons.svg"" width=""175px"" height=""250px""></img></td>
    <td width=300 height=300><img src=""static/images/cards/back_of_red_moons.svg"" width=""175px"" height=""250px""></img></td>
  </tr>
  <tr height=200>
    <td width=300><img src=""static/images/keys/z.svg"" width=""35%"" height=""75%""></img></td>
    <td width=300></td>
  </tr>
</table>
  ",,,,,,,,,,,,,,,,,,,,,,,,,,,,
168,0,,html-keyboard-response,168,427703,0.0-7.3-3.3,ei3y0b0xjnk,2022-09-19 14:52:51.313,62b5f3e16a7f9aef9ed922df,3,71,64,39,14,28,Female,,,"<p style=""font-size:50px"">You Lose!
No points this round.</p>",,,,,,,,,,,,,,,,,,,,,,,,,,,,
169,0,,html-keyboard-response,169,428223,0.0-7.3-4.3,ei3y0b0xjnk,2022-09-19 14:52:51.313,62b5f3e16a7f9aef9ed922df,3,71,64,39,14,28,Female,,,,,,1.0,choice,3.0,B,C,red,black,moons,stars,B,C,B,red,moons,1109.8000000119,0.0,1.0,1,left,1636.5999999642,2.0,0.0,0.0,,,
170,0,,html-keyboard-response,170,430398,0.0-7.4-0.4,ei3y0b0xjnk,2022-09-19 14:52:51.313,62b5f3e16a7f9aef9ed922df,3,71,64,39,14,28,Female,2173.8999999762,,"
  <table>
  <tr height=300>
    <td width=300 height=300><img src=""static/images/cards/stack_of_red_moons.svg"" width=""175px"" height=""250px""></img></td>
    <td width=300 height=300><img src=""static/images/cards/stack_of_black_stars.svg"" width=""175px"" height=""250px""></img></td>
  </tr>
  <tr height=200>
    <td width=300><img src=""static/images/keys/w.svg"" width=""35%"" height=""75%""></img></td>
    <td width=300><img src=""static/images/keys/o.svg"" width=""35%"" height=""75%""></img></td>
  </tr>
</table>
  ",87.0,1.0,,,,,,,,,,,,,,,,,,,,,,,,,,
171,0,,html-keyboard-response,171,431679,0.0-7.4-1.4,ei3y0b0xjnk,2022-09-19 14:52:51.313,62b5f3e16a7f9aef9ed922df,3,71,64,39,14,28,Female,774.5,,"
  <table>
  <tr height=300>
    <td width=300 height=300><img src=""static/images/cards/back_of_red_moons.svg"" width=""175px"" height=""250px""></img></td>
    <td width=300 height=300><img src=""static/images/cards/back_of_red_moons.svg"" width=""175px"" height=""250px""></img></td>
  </tr>
  <tr height=200>
    <td width=300><img src=""static/images/keys/z.svg"" width=""35%"" height=""75%""></img></td>
    <td width=300></td>
  </tr>
</table>
  ",90.0,1.0,,,,,,,,,,,,,,,,,,,,,,,,,,
172,0,,html-keyboard-response,172,433189,0.0-7.4-2.4,ei3y0b0xjnk,2022-09-19 14:52:51.313,62b5f3e16a7f9aef9ed922df,3,71,64,39,14,28,Female,,,"
  <table>
  <tr height=300>
    <td width=300 height=300><img src=""static/images/cards/4_of_red_moons.svg"" width=""175px"" height=""250px""></img></td>
    <td width=300 height=300><img src=""static/images/cards/back_of_red_moons.svg"" width=""175px"" height=""250px""></img></td>
  </tr>
  <tr height=200>
    <td width=300><img src=""static/images/keys/z.svg"" width=""35%"" height=""75%""></img></td>
    <td width=300></td>
  </tr>
</table>
  ",,,,,,,,,,,,,,,,,,,,,,,,,,,,
173,0,,html-keyboard-response,173,434714,0.0-7.4-3.4,ei3y0b0xjnk,2022-09-19 14:52:51.313,62b5f3e16a7f9aef9ed922df,3,71,64,39,14,28,Female,,,"<p style=""font-size:50px"">You Lose!
No points this round.</p>",,,,,,,,,,,,,,,,,,,,,,,,,,,,
174,0,,html-keyboard-response,174,435234,0.0-7.4-4.4,ei3y0b0xjnk,2022-09-19 14:52:51.313,62b5f3e16a7f9aef9ed922df,3,71,64,39,14,28,Female,,,,,,1.0,choice,4.0,B,C,red,black,moons,stars,B,C,B,red,moons,2173.8999999762,0.0,1.0,1,left,774.5,4.0,0.0,0.0,,,
175,0,,html-keyboard-response,175,436570,0.0-7.5-0.5,ei3y0b0xjnk,2022-09-19 14:52:51.313,62b5f3e16a7f9aef9ed922df,3,71,64,39,14,28,Female,1334.1999999881,,"
  <table>
  <tr height=300>
    <td width=300 height=300><img src=""static/images/cards/stack_of_black_moons.svg"" width=""175px"" height=""250px""></img></td>
    <td width=300 height=300><img src=""static/images/cards/stack_of_red_moons.svg"" width=""175px"" height=""250px""></img></td>
  </tr>
  <tr height=200>
    <td width=300><img src=""static/images/keys/w.svg"" width=""35%"" height=""75%""></img></td>
    <td width=300><img src=""static/images/keys/o.svg"" width=""35%"" height=""75%""></img></td>
  </tr>
</table>
  ",87.0,1.0,,,,,,,,,,,,,,,,,,,,,,,,,,
176,0,,html-keyboard-response,176,437645,0.0-7.5-1.5,ei3y0b0xjnk,2022-09-19 14:52:51.313,62b5f3e16a7f9aef9ed922df,3,71,64,39,14,28,Female,563.5,,"
  <table>
  <tr height=300>
    <td width=300 height=300><img src=""static/images/cards/back_of_black_moons.svg"" width=""175px"" height=""250px""></img></td>
    <td width=300 height=300><img src=""static/images/cards/back_of_black_moons.svg"" width=""175px"" height=""250px""></img></td>
  </tr>
  <tr height=200>
    <td width=300><img src=""static/images/keys/z.svg"" width=""35%"" height=""75%""></img></td>
    <td width=300><img src=""static/images/keys/m.svg"" width=""35%"" height=""75%""></img></td>
  </tr>
</table>
  ",90.0,1.0,,,,,,,,,,,,,,,,,,,,,,,,,,
177,0,,html-keyboard-response,177,439160,0.0-7.5-2.5,ei3y0b0xjnk,2022-09-19 14:52:51.313,62b5f3e16a7f9aef9ed922df,3,71,64,39,14,28,Female,,,"
  <table>
  <tr height=300>
    <td width=300 height=300><img src=""static/images/cards/10_of_black_moons.svg"" width=""175px"" height=""250px""></img></td>
    <td width=300 height=300><img src=""static/images/cards/back_of_black_moons.svg"" width=""175px"" height=""250px""></img></td>
  </tr>
  <tr height=200>
    <td width=300><img src=""static/images/keys/z.svg"" width=""35%"" height=""75%""></img></td>
    <td width=300><img src=""static/images/keys/m.svg"" width=""35%"" height=""75%""></img></td>
  </tr>
</table>
  ",,,,,,,,,,,,,,,,,,,,,,,,,,,,
178,0,,html-keyboard-response,178,440680,0.0-7.5-3.5,ei3y0b0xjnk,2022-09-19 14:52:51.313,62b5f3e16a7f9aef9ed922df,3,71,64,39,14,28,Female,,,"<p style=""font-size:50px"">You win!
+10 points this round!</p>",,,,,,,,,,,,,,,,,,,,,,,,,,,,
179,0,,html-keyboard-response,179,441192,0.0-7.5-4.5,ei3y0b0xjnk,2022-09-19 14:52:51.313,62b5f3e16a7f9aef9ed922df,3,71,64,39,14,28,Female,,,,,,1.0,choice,5.0,A,B,black,red,moons,moons,A,B,A,black,moons,1334.1999999881,1.0,1.0,NA,left,563.5,10.0,1.0,1.0,,,
180,0,,html-keyboard-response,180,442885,0.0-7.6-0.6,ei3y0b0xjnk,2022-09-19 14:52:51.313,62b5f3e16a7f9aef9ed922df,3,71,64,39,14,28,Female,1690.4000000358,,"
  <table>
  <tr height=300>
    <td width=300 height=300><img src=""static/images/cards/stack_of_red_stars.svg"" width=""175px"" height=""250px""></img></td>
    <td width=300 height=300><img src=""static/images/cards/stack_of_red_moons.svg"" width=""175px"" height=""250px""></img></td>
  </tr>
  <tr height=200>
    <td width=300><img src=""static/images/keys/w.svg"" width=""35%"" height=""75%""></img></td>
    <td width=300><img src=""static/images/keys/o.svg"" width=""35%"" height=""75%""></img></td>
  </tr>
</table>
  ",79.0,1.0,,,,,,,,,,,,,,,,,,,,,,,,,,
181,0,,html-keyboard-response,181,444322,0.0-7.6-1.6,ei3y0b0xjnk,2022-09-19 14:52:51.313,62b5f3e16a7f9aef9ed922df,3,71,64,39,14,28,Female,920.1000000238,,"
  <table>
  <tr height=300>
    <td width=300 height=300><img src=""static/images/cards/back_of_red_moons.svg"" width=""175px"" height=""250px""></img></td>
    <td width=300 height=300><img src=""static/images/cards/back_of_red_moons.svg"" width=""175px"" height=""250px""></img></td>
  </tr>
  <tr height=200>
    <td width=300></td>
    <td width=300><img src=""static/images/keys/m.svg"" width=""35%"" height=""75%""></img></td>
  </tr>
</table>
  ",77.0,1.0,,,,,,,,,,,,,,,,,,,,,,,,,,
182,0,,html-keyboard-response,182,445838,0.0-7.6-2.6,ei3y0b0xjnk,2022-09-19 14:52:51.313,62b5f3e16a7f9aef9ed922df,3,71,64,39,14,28,Female,,,"
  <table>
  <tr height=300>
    <td width=300 height=300><img src=""static/images/cards/back_of_red_moons.svg"" width=""175px"" height=""250px""></img></td>
    <td width=300 height=300><img src=""static/images/cards/3_of_red_moons.svg"" width=""175px"" height=""250px""></img></td>
  </tr>
  <tr height=200>
    <td width=300></td>
    <td width=300><img src=""static/images/keys/m.svg"" width=""35%"" height=""75%""></img></td>
  </tr>
</table>
  ",,,,,,,,,,,,,,,,,,,,,,,,,,,,
183,0,,html-keyboard-response,183,447357,0.0-7.6-3.6,ei3y0b0xjnk,2022-09-19 14:52:51.313,62b5f3e16a7f9aef9ed922df,3,71,64,39,14,28,Female,,,"<p style=""font-size:50px"">You Lose!
No points this round.</p>",,,,,,,,,,,,,,,,,,,,,,,,,,,,
184,0,,html-keyboard-response,184,447868,0.0-7.6-4.6,ei3y0b0xjnk,2022-09-19 14:52:51.313,62b5f3e16a7f9aef9ed922df,3,71,64,39,14,28,Female,,,,,,1.0,choice,6.0,B,D,red,red,stars,moons,D,B,B,red,moons,1690.4000000358,0.0,1.0,0,right,920.1000000238,3.0,0.0,0.0,,,
185,0,,html-keyboard-response,185,448942,0.0-7.7-0.7,ei3y0b0xjnk,2022-09-19 14:52:51.313,62b5f3e16a7f9aef9ed922df,3,71,64,39,14,28,Female,1071.6999999881,,"
  <table>
  <tr height=300>
    <td width=300 height=300><img src=""static/images/cards/stack_of_black_stars.svg"" width=""175px"" height=""250px""></img></td>
    <td width=300 height=300><img src=""static/images/cards/stack_of_black_moons.svg"" width=""175px"" height=""250px""></img></td>
  </tr>
  <tr height=200>
    <td width=300><img src=""static/images/keys/w.svg"" width=""35%"" height=""75%""></img></td>
    <td width=300><img src=""static/images/keys/o.svg"" width=""35%"" height=""75%""></img></td>
  </tr>
</table>
  ",79.0,1.0,,,,,,,,,,,,,,,,,,,,,,,,,,
186,0,,html-keyboard-response,186,449902,0.0-7.7-1.7,ei3y0b0xjnk,2022-09-19 14:52:51.313,62b5f3e16a7f9aef9ed922df,3,71,64,39,14,28,Female,443.5,,"
  <table>
  <tr height=300>
    <td width=300 height=300><img src=""static/images/cards/back_of_black_moons.svg"" width=""175px"" height=""250px""></img></td>
    <td width=300 height=300><img src=""static/images/cards/back_of_black_moons.svg"" width=""175px"" height=""250px""></img></td>
  </tr>
  <tr height=200>
    <td width=300><img src=""static/images/keys/z.svg"" width=""35%"" height=""75%""></img></td>
    <td width=300><img src=""static/images/keys/m.svg"" width=""35%"" height=""75%""></img></td>
  </tr>
</table>
  ",90.0,1.0,,,,,,,,,,,,,,,,,,,,,,,,,,
187,0,,html-keyboard-response,187,451418,0.0-7.7-2.7,ei3y0b0xjnk,2022-09-19 14:52:51.313,62b5f3e16a7f9aef9ed922df,3,71,64,39,14,28,Female,,,"
  <table>
  <tr height=300>
    <td width=300 height=300><img src=""static/images/cards/2_of_black_moons.svg"" width=""175px"" height=""250px""></img></td>
    <td width=300 height=300><img src=""static/images/cards/back_of_black_moons.svg"" width=""175px"" height=""250px""></img></td>
  </tr>
  <tr height=200>
    <td width=300><img src=""static/images/keys/z.svg"" width=""35%"" height=""75%""></img></td>
    <td width=300><img src=""static/images/keys/m.svg"" width=""35%"" height=""75%""></img></td>
  </tr>
</table>
  ",,,,,,,,,,,,,,,,,,,,,,,,,,,,
188,0,,html-keyboard-response,188,452938,0.0-7.7-3.7,ei3y0b0xjnk,2022-09-19 14:52:51.313,62b5f3e16a7f9aef9ed922df,3,71,64,39,14,28,Female,,,"<p style=""font-size:50px"">You Lose!
No points this round.</p>",,,,,,,,,,,,,,,,,,,,,,,,,,,,
189,0,,html-keyboard-response,189,453449,0.0-7.7-4.7,ei3y0b0xjnk,2022-09-19 14:52:51.313,62b5f3e16a7f9aef9ed922df,3,71,64,39,14,28,Female,,,,,,1.0,choice,7.0,A,C,black,black,stars,moons,C,A,A,black,moons,1071.6999999881,1.0,1.0,NA,left,443.5,2.0,0.0,0.0,,,
190,0,,html-keyboard-response,190,454960,0.0-7.8-0.8,ei3y0b0xjnk,2022-09-19 14:52:51.313,62b5f3e16a7f9aef9ed922df,3,71,64,39,14,28,Female,1509.0,,"
  <table>
  <tr height=300>
    <td width=300 height=300><img src=""static/images/cards/stack_of_red_stars.svg"" width=""175px"" height=""250px""></img></td>
    <td width=300 height=300><img src=""static/images/cards/stack_of_black_stars.svg"" width=""175px"" height=""250px""></img></td>
  </tr>
  <tr height=200>
    <td width=300><img src=""static/images/keys/w.svg"" width=""35%"" height=""75%""></img></td>
    <td width=300><img src=""static/images/keys/o.svg"" width=""35%"" height=""75%""></img></td>
  </tr>
</table>
  ",79.0,1.0,,,,,,,,,,,,,,,,,,,,,,,,,,
191,0,,html-keyboard-response,191,456311,0.0-7.8-1.8,ei3y0b0xjnk,2022-09-19 14:52:51.313,62b5f3e16a7f9aef9ed922df,3,71,64,39,14,28,Female,843.5999999642,,"
  <table>
  <tr height=300>
    <td width=300 height=300><img src=""static/images/cards/back_of_black_stars.svg"" width=""175px"" height=""250px""></img></td>
    <td width=300 height=300><img src=""static/images/cards/back_of_black_stars.svg"" width=""175px"" height=""250px""></img></td>
  </tr>
  <tr height=200>
    <td width=300><img src=""static/images/keys/z.svg"" width=""35%"" height=""75%""></img></td>
    <td width=300><img src=""static/images/keys/m.svg"" width=""35%"" height=""75%""></img></td>
  </tr>
</table>
  ",77.0,1.0,,,,,,,,,,,,,,,,,,,,,,,,,,
192,0,,html-keyboard-response,192,457814,0.0-7.8-2.8,ei3y0b0xjnk,2022-09-19 14:52:51.313,62b5f3e16a7f9aef9ed922df,3,71,64,39,14,28,Female,,,"
  <table>
  <tr height=300>
    <td width=300 height=300><img src=""static/images/cards/back_of_black_stars.svg"" width=""175px"" height=""250px""></img></td>
    <td width=300 height=300><img src=""static/images/cards/8_of_black_stars.svg"" width=""175px"" height=""250px""></img></td>
  </tr>
  <tr height=200>
    <td width=300><img src=""static/images/keys/z.svg"" width=""35%"" height=""75%""></img></td>
    <td width=300><img src=""static/images/keys/m.svg"" width=""35%"" height=""75%""></img></td>
  </tr>
</table>
  ",,,,,,,,,,,,,,,,,,,,,,,,,,,,
193,0,,html-keyboard-response,193,459319,0.0-7.8-3.8,ei3y0b0xjnk,2022-09-19 14:52:51.313,62b5f3e16a7f9aef9ed922df,3,71,64,39,14,28,Female,,,"<p style=""font-size:50px"">You Lose!
No points this round.</p>",,,,,,,,,,,,,,,,,,,,,,,,,,,,
194,0,,html-keyboard-response,194,459828,0.0-7.8-4.8,ei3y0b0xjnk,2022-09-19 14:52:51.313,62b5f3e16a7f9aef9ed922df,3,71,64,39,14,28,Female,,,,,,1.0,choice,8.0,C,D,red,black,stars,stars,D,C,C,black,stars,1509.0,1.0,0.0,NA,right,843.5999999642,8.0,1.0,0.0,,,
195,0,,html-keyboard-response,195,460703,0.0-7.9-0.9,ei3y0b0xjnk,2022-09-19 14:52:51.313,62b5f3e16a7f9aef9ed922df,3,71,64,39,14,28,Female,873.0,,"
  <table>
  <tr height=300>
    <td width=300 height=300><img src=""static/images/cards/stack_of_red_stars.svg"" width=""175px"" height=""250px""></img></td>
    <td width=300 height=300><img src=""static/images/cards/stack_of_black_moons.svg"" width=""175px"" height=""250px""></img></td>
  </tr>
  <tr height=200>
    <td width=300><img src=""static/images/keys/w.svg"" width=""35%"" height=""75%""></img></td>
    <td width=300><img src=""static/images/keys/o.svg"" width=""35%"" height=""75%""></img></td>
  </tr>
</table>
  ",79.0,1.0,,,,,,,,,,,,,,,,,,,,,,,,,,
196,0,,html-keyboard-response,196,461546,0.0-7.9-1.9,ei3y0b0xjnk,2022-09-19 14:52:51.313,62b5f3e16a7f9aef9ed922df,3,71,64,39,14,28,Female,336.8000000119,,"
  <table>
  <tr height=300>
    <td width=300 height=300><img src=""static/images/cards/back_of_black_moons.svg"" width=""175px"" height=""250px""></img></td>
    <td width=300 height=300><img src=""static/images/cards/back_of_black_moons.svg"" width=""175px"" height=""250px""></img></td>
  </tr>
  <tr height=200>
    <td width=300><img src=""static/images/keys/z.svg"" width=""35%"" height=""75%""></img></td>
    <td width=300><img src=""static/images/keys/m.svg"" width=""35%"" height=""75%""></img></td>
  </tr>
</table>
  ",90.0,1.0,,,,,,,,,,,,,,,,,,,,,,,,,,
197,0,,html-keyboard-response,197,463058,0.0-7.9-2.9,ei3y0b0xjnk,2022-09-19 14:52:51.313,62b5f3e16a7f9aef9ed922df,3,71,64,39,14,28,Female,,,"
  <table>
  <tr height=300>
    <td width=300 height=300><img src=""static/images/cards/4_of_black_moons.svg"" width=""175px"" height=""250px""></img></td>
    <td width=300 height=300><img src=""static/images/cards/back_of_black_moons.svg"" width=""175px"" height=""250px""></img></td>
  </tr>
  <tr height=200>
    <td width=300><img src=""static/images/keys/z.svg"" width=""35%"" height=""75%""></img></td>
    <td width=300><img src=""static/images/keys/m.svg"" width=""35%"" height=""75%""></img></td>
  </tr>
</table>
  ",,,,,,,,,,,,,,,,,,,,,,,,,,,,
198,0,,html-keyboard-response,198,464560,0.0-7.9-3.9,ei3y0b0xjnk,2022-09-19 14:52:51.313,62b5f3e16a7f9aef9ed922df,3,71,64,39,14,28,Female,,,"<p style=""font-size:50px"">You Lose!
No points this round.</p>",,,,,,,,,,,,,,,,,,,,,,,,,,,,
199,0,,html-keyboard-response,199,465069,0.0-7.9-4.9,ei3y0b0xjnk,2022-09-19 14:52:51.313,62b5f3e16a7f9aef9ed922df,3,71,64,39,14,28,Female,,,,,,1.0,choice,9.0,A,D,red,black,stars,moons,D,A,A,black,moons,873.0,1.0,1.0,NA,left,336.8000000119,4.0,0.0,0.0,,,
200,0,,html-keyboard-response,200,466023,0.0-7.10-0.10,ei3y0b0xjnk,2022-09-19 14:52:51.313,62b5f3e16a7f9aef9ed922df,3,71,64,39,14,28,Female,952.8000000119,,"
  <table>
  <tr height=300>
    <td width=300 height=300><img src=""static/images/cards/stack_of_black_moons.svg"" width=""175px"" height=""250px""></img></td>
    <td width=300 height=300><img src=""static/images/cards/stack_of_black_bolts.svg"" width=""175px"" height=""250px""></img></td>
  </tr>
  <tr height=200>
    <td width=300><img src=""static/images/keys/w.svg"" width=""35%"" height=""75%""></img></td>
    <td width=300><img src=""static/images/keys/o.svg"" width=""35%"" height=""75%""></img></td>
  </tr>
</table>
  ",79.0,1.0,,,,,,,,,,,,,,,,,,,,,,,,,,
201,0,,html-keyboard-response,201,467154,0.0-7.10-1.10,ei3y0b0xjnk,2022-09-19 14:52:51.313,62b5f3e16a7f9aef9ed922df,3,71,64,39,14,28,Female,615.0,,"
  <table>
  <tr height=300>
    <td width=300 height=300><img src=""static/images/cards/back_of_black_bolts.svg"" width=""175px"" height=""250px""></img></td>
    <td width=300 height=300><img src=""static/images/cards/back_of_black_bolts.svg"" width=""175px"" height=""250px""></img></td>
  </tr>
  <tr height=200>
    <td width=300><img src=""static/images/keys/z.svg"" width=""35%"" height=""75%""></img></td>
    <td width=300></td>
  </tr>
</table>
  ",90.0,1.0,,,,,,,,,,,,,,,,,,,,,,,,,,
202,0,,html-keyboard-response,202,468669,0.0-7.10-2.10,ei3y0b0xjnk,2022-09-19 14:52:51.313,62b5f3e16a7f9aef9ed922df,3,71,64,39,14,28,Female,,,"
  <table>
  <tr height=300>
    <td width=300 height=300><img src=""static/images/cards/7_of_black_bolts.svg"" width=""175px"" height=""250px""></img></td>
    <td width=300 height=300><img src=""static/images/cards/back_of_black_bolts.svg"" width=""175px"" height=""250px""></img></td>
  </tr>
  <tr height=200>
    <td width=300><img src=""static/images/keys/z.svg"" width=""35%"" height=""75%""></img></td>
    <td width=300></td>
  </tr>
</table>
  ",,,,,,,,,,,,,,,,,,,,,,,,,,,,
203,0,,html-keyboard-response,203,470187,0.0-7.10-3.10,ei3y0b0xjnk,2022-09-19 14:52:51.313,62b5f3e16a7f9aef9ed922df,3,71,64,39,14,28,Female,,,"<p style=""font-size:50px"">You win!
+10 points this round!</p>",,,,,,,,,,,,,,,,,,,,,,,,,,,,
204,0,,html-keyboard-response,204,470699,0.0-7.10-4.10,ei3y0b0xjnk,2022-09-19 14:52:51.313,62b5f3e16a7f9aef9ed922df,3,71,64,39,14,28,Female,,,,,,1.0,choice,10.0,A,Xnc,black,black,moons,bolts,A,Xnc,Xnc,black,bolts,952.8000000119,0.0,0.0,1,left,615.0,7.0,1.0,1.0,,,
205,0,,html-keyboard-response,205,472004,0.0-7.11-0.11,ei3y0b0xjnk,2022-09-19 14:52:51.313,62b5f3e16a7f9aef9ed922df,3,71,64,39,14,28,Female,1302.7999999523,,"
  <table>
  <tr height=300>
    <td width=300 height=300><img src=""static/images/cards/stack_of_black_stars.svg"" width=""175px"" height=""250px""></img></td>
    <td width=300 height=300><img src=""static/images/cards/stack_of_red_stars.svg"" width=""175px"" height=""250px""></img></td>
  </tr>
  <tr height=200>
    <td width=300><img src=""static/images/keys/w.svg"" width=""35%"" height=""75%""></img></td>
    <td width=300><img src=""static/images/keys/o.svg"" width=""35%"" height=""75%""></img></td>
  </tr>
</table>
  ",87.0,1.0,,,,,,,,,,,,,,,,,,,,,,,,,,
206,0,,html-keyboard-response,206,473245,0.0-7.11-1.11,ei3y0b0xjnk,2022-09-19 14:52:51.313,62b5f3e16a7f9aef9ed922df,3,71,64,39,14,28,Female,729.3000000119,,"
  <table>
  <tr height=300>
    <td width=300 height=300><img src=""static/images/cards/back_of_black_stars.svg"" width=""175px"" height=""250px""></img></td>
    <td width=300 height=300><img src=""static/images/cards/back_of_black_stars.svg"" width=""175px"" height=""250px""></img></td>
  </tr>
  <tr height=200>
    <td width=300><img src=""static/images/keys/z.svg"" width=""35%"" height=""75%""></img></td>
    <td width=300><img src=""static/images/keys/m.svg"" width=""35%"" height=""75%""></img></td>
  </tr>
</table>
  ",77.0,1.0,,,,,,,,,,,,,,,,,,,,,,,,,,
207,0,,html-keyboard-response,207,474759,0.0-7.11-2.11,ei3y0b0xjnk,2022-09-19 14:52:51.313,62b5f3e16a7f9aef9ed922df,3,71,64,39,14,28,Female,,,"
  <table>
  <tr height=300>
    <td width=300 height=300><img src=""static/images/cards/back_of_black_stars.svg"" width=""175px"" height=""250px""></img></td>
    <td width=300 height=300><img src=""static/images/cards/1_of_black_stars.svg"" width=""175px"" height=""250px""></img></td>
  </tr>
  <tr height=200>
    <td width=300><img src=""static/images/keys/z.svg"" width=""35%"" height=""75%""></img></td>
    <td width=300><img src=""static/images/keys/m.svg"" width=""35%"" height=""75%""></img></td>
  </tr>
</table>
  ",,,,,,,,,,,,,,,,,,,,,,,,,,,,
208,0,,html-keyboard-response,208,476279,0.0-7.11-3.11,ei3y0b0xjnk,2022-09-19 14:52:51.313,62b5f3e16a7f9aef9ed922df,3,71,64,39,14,28,Female,,,"<p style=""font-size:50px"">You win!
+10 points this round!</p>",,,,,,,,,,,,,,,,,,,,,,,,,,,,
209,0,,html-keyboard-response,209,476796,0.0-7.11-4.11,ei3y0b0xjnk,2022-09-19 14:52:51.313,62b5f3e16a7f9aef9ed922df,3,71,64,39,14,28,Female,,,,,,1.0,choice,11.0,C,D,black,red,stars,stars,C,D,C,black,stars,1302.7999999523,1.0,0.0,NA,right,729.3000000119,1.0,0.0,1.0,,,
210,0,,html-keyboard-response,210,478464,0.0-7.12-0.12,ei3y0b0xjnk,2022-09-19 14:52:51.313,62b5f3e16a7f9aef9ed922df,3,71,64,39,14,28,Female,1665.2999999523,,"
  <table>
  <tr height=300>
    <td width=300 height=300><img src=""static/images/cards/stack_of_red_bolts.svg"" width=""175px"" height=""250px""></img></td>
    <td width=300 height=300><img src=""static/images/cards/stack_of_black_stars.svg"" width=""175px"" height=""250px""></img></td>
  </tr>
  <tr height=200>
    <td width=300><img src=""static/images/keys/w.svg"" width=""35%"" height=""75%""></img></td>
    <td width=300><img src=""static/images/keys/o.svg"" width=""35%"" height=""75%""></img></td>
  </tr>
</table>
  ",87.0,1.0,,,,,,,,,,,,,,,,,,,,,,,,,,
211,0,,html-keyboard-response,211,479685,0.0-7.12-1.12,ei3y0b0xjnk,2022-09-19 14:52:51.313,62b5f3e16a7f9aef9ed922df,3,71,64,39,14,28,Female,716.1999999881,,"
  <table>
  <tr height=300>
    <td width=300 height=300><img src=""static/images/cards/back_of_red_bolts.svg"" width=""175px"" height=""250px""></img></td>
    <td width=300 height=300><img src=""static/images/cards/back_of_red_bolts.svg"" width=""175px"" height=""250px""></img></td>
  </tr>
  <tr height=200>
    <td width=300><img src=""static/images/keys/z.svg"" width=""35%"" height=""75%""></img></td>
    <td width=300><img src=""static/images/keys/m.svg"" width=""35%"" height=""75%""></img></td>
  </tr>
</table>
  ",90.0,1.0,,,,,,,,,,,,,,,,,,,,,,,,,,
212,0,,html-keyboard-response,212,481189,0.0-7.12-2.12,ei3y0b0xjnk,2022-09-19 14:52:51.313,62b5f3e16a7f9aef9ed922df,3,71,64,39,14,28,Female,,,"
  <table>
  <tr height=300>
    <td width=300 height=300><img src=""static/images/cards/2_of_red_bolts.svg"" width=""175px"" height=""250px""></img></td>
    <td width=300 height=300><img src=""static/images/cards/back_of_red_bolts.svg"" width=""175px"" height=""250px""></img></td>
  </tr>
  <tr height=200>
    <td width=300><img src=""static/images/keys/z.svg"" width=""35%"" height=""75%""></img></td>
    <td width=300><img src=""static/images/keys/m.svg"" width=""35%"" height=""75%""></img></td>
  </tr>
</table>
  ",,,,,,,,,,,,,,,,,,,,,,,,,,,,
213,0,,html-keyboard-response,213,482709,0.0-7.12-3.12,ei3y0b0xjnk,2022-09-19 14:52:51.313,62b5f3e16a7f9aef9ed922df,3,71,64,39,14,28,Female,,,"<p style=""font-size:50px"">You win!
+10 points this round!</p>",,,,,,,,,,,,,,,,,,,,,,,,,,,,
214,0,,html-keyboard-response,214,483222,0.0-7.12-4.12,ei3y0b0xjnk,2022-09-19 14:52:51.313,62b5f3e16a7f9aef9ed922df,3,71,64,39,14,28,Female,,,,,,1.0,choice,12.0,C,Xc,red,black,bolts,stars,Xc,C,Xc,red,bolts,1665.2999999523,1.0,0.0,NA,left,716.1999999881,2.0,0.0,1.0,,,
215,0,,html-keyboard-response,215,485061,0.0-7.13-0.13,ei3y0b0xjnk,2022-09-19 14:52:51.313,62b5f3e16a7f9aef9ed922df,3,71,64,39,14,28,Female,1837.8000000119,,"
  <table>
  <tr height=300>
    <td width=300 height=300><img src=""static/images/cards/stack_of_red_moons.svg"" width=""175px"" height=""250px""></img></td>
    <td width=300 height=300><img src=""static/images/cards/stack_of_black_stars.svg"" width=""175px"" height=""250px""></img></td>
  </tr>
  <tr height=200>
    <td width=300><img src=""static/images/keys/w.svg"" width=""35%"" height=""75%""></img></td>
    <td width=300><img src=""static/images/keys/o.svg"" width=""35%"" height=""75%""></img></td>
  </tr>
</table>
  ",87.0,1.0,,,,,,,,,,,,,,,,,,,,,,,,,,
216,0,,html-keyboard-response,216,486077,0.0-7.13-1.13,ei3y0b0xjnk,2022-09-19 14:52:51.313,62b5f3e16a7f9aef9ed922df,3,71,64,39,14,28,Female,504.4000000358,,"
  <table>
  <tr height=300>
    <td width=300 height=300><img src=""static/images/cards/back_of_red_moons.svg"" width=""175px"" height=""250px""></img></td>
    <td width=300 height=300><img src=""static/images/cards/back_of_red_moons.svg"" width=""175px"" height=""250px""></img></td>
  </tr>
  <tr height=200>
    <td width=300><img src=""static/images/keys/z.svg"" width=""35%"" height=""75%""></img></td>
    <td width=300></td>
  </tr>
</table>
  ",90.0,1.0,,,,,,,,,,,,,,,,,,,,,,,,,,
217,0,,html-keyboard-response,217,487592,0.0-7.13-2.13,ei3y0b0xjnk,2022-09-19 14:52:51.313,62b5f3e16a7f9aef9ed922df,3,71,64,39,14,28,Female,,,"
  <table>
  <tr height=300>
    <td width=300 height=300><img src=""static/images/cards/7_of_red_moons.svg"" width=""175px"" height=""250px""></img></td>
    <td width=300 height=300><img src=""static/images/cards/back_of_red_moons.svg"" width=""175px"" height=""250px""></img></td>
  </tr>
  <tr height=200>
    <td width=300><img src=""static/images/keys/z.svg"" width=""35%"" height=""75%""></img></td>
    <td width=300></td>
  </tr>
</table>
  ",,,,,,,,,,,,,,,,,,,,,,,,,,,,
218,0,,html-keyboard-response,218,489095,0.0-7.13-3.13,ei3y0b0xjnk,2022-09-19 14:52:51.313,62b5f3e16a7f9aef9ed922df,3,71,64,39,14,28,Female,,,"<p style=""font-size:50px"">You win!
+10 points this round!</p>",,,,,,,,,,,,,,,,,,,,,,,,,,,,
219,0,,html-keyboard-response,219,489606,0.0-7.13-4.13,ei3y0b0xjnk,2022-09-19 14:52:51.313,62b5f3e16a7f9aef9ed922df,3,71,64,39,14,28,Female,,,,,,1.0,choice,13.0,B,C,red,black,moons,stars,B,C,B,red,moons,1837.8000000119,0.0,1.0,1,left,504.4000000358,7.0,1.0,1.0,,,
220,0,,html-keyboard-response,220,490482,0.0-7.14-0.14,ei3y0b0xjnk,2022-09-19 14:52:51.313,62b5f3e16a7f9aef9ed922df,3,71,64,39,14,28,Female,873.6999999881,,"
  <table>
  <tr height=300>
    <td width=300 height=300><img src=""static/images/cards/stack_of_red_moons.svg"" width=""175px"" height=""250px""></img></td>
    <td width=300 height=300><img src=""static/images/cards/stack_of_black_stars.svg"" width=""175px"" height=""250px""></img></td>
  </tr>
  <tr height=200>
    <td width=300><img src=""static/images/keys/w.svg"" width=""35%"" height=""75%""></img></td>
    <td width=300><img src=""static/images/keys/o.svg"" width=""35%"" height=""75%""></img></td>
  </tr>
</table>
  ",87.0,1.0,,,,,,,,,,,,,,,,,,,,,,,,,,
221,0,,html-keyboard-response,221,491520,0.0-7.14-1.14,ei3y0b0xjnk,2022-09-19 14:52:51.313,62b5f3e16a7f9aef9ed922df,3,71,64,39,14,28,Female,521.5,,"
  <table>
  <tr height=300>
    <td width=300 height=300><img src=""static/images/cards/back_of_red_moons.svg"" width=""175px"" height=""250px""></img></td>
    <td width=300 height=300><img src=""static/images/cards/back_of_red_moons.svg"" width=""175px"" height=""250px""></img></td>
  </tr>
  <tr height=200>
    <td width=300></td>
    <td width=300><img src=""static/images/keys/m.svg"" width=""35%"" height=""75%""></img></td>
  </tr>
</table>
  ",77.0,1.0,,,,,,,,,,,,,,,,,,,,,,,,,,
222,0,,html-keyboard-response,222,493035,0.0-7.14-2.14,ei3y0b0xjnk,2022-09-19 14:52:51.313,62b5f3e16a7f9aef9ed922df,3,71,64,39,14,28,Female,,,"
  <table>
  <tr height=300>
    <td width=300 height=300><img src=""static/images/cards/back_of_red_moons.svg"" width=""175px"" height=""250px""></img></td>
    <td width=300 height=300><img src=""static/images/cards/4_of_red_moons.svg"" width=""175px"" height=""250px""></img></td>
  </tr>
  <tr height=200>
    <td width=300></td>
    <td width=300><img src=""static/images/keys/m.svg"" width=""35%"" height=""75%""></img></td>
  </tr>
</table>
  ",,,,,,,,,,,,,,,,,,,,,,,,,,,,
223,0,,html-keyboard-response,223,494552,0.0-7.14-3.14,ei3y0b0xjnk,2022-09-19 14:52:51.313,62b5f3e16a7f9aef9ed922df,3,71,64,39,14,28,Female,,,"<p style=""font-size:50px"">You Lose!
No points this round.</p>",,,,,,,,,,,,,,,,,,,,,,,,,,,,
224,0,,html-keyboard-response,224,495065,0.0-7.14-4.14,ei3y0b0xjnk,2022-09-19 14:52:51.313,62b5f3e16a7f9aef9ed922df,3,71,64,39,14,28,Female,,,,,,1.0,choice,14.0,B,C,red,black,moons,stars,B,C,B,red,moons,873.6999999881,0.0,1.0,0,right,521.5,4.0,0.0,0.0,,,
225,0,,html-keyboard-response,225,496306,0.0-7.15-0.15,ei3y0b0xjnk,2022-09-19 14:52:51.313,62b5f3e16a7f9aef9ed922df,3,71,64,39,14,28,Female,1239.0,,"
  <table>
  <tr height=300>
    <td width=300 height=300><img src=""static/images/cards/stack_of_black_stars.svg"" width=""175px"" height=""250px""></img></td>
    <td width=300 height=300><img src=""static/images/cards/stack_of_black_moons.svg"" width=""175px"" height=""250px""></img></td>
  </tr>
  <tr height=200>
    <td width=300><img src=""static/images/keys/w.svg"" width=""35%"" height=""75%""></img></td>
    <td width=300><img src=""static/images/keys/o.svg"" width=""35%"" height=""75%""></img></td>
  </tr>
</table>
  ",79.0,1.0,,,,,,,,,,,,,,,,,,,,,,,,,,
226,0,,html-keyboard-response,226,497218,0.0-7.15-1.15,ei3y0b0xjnk,2022-09-19 14:52:51.313,62b5f3e16a7f9aef9ed922df,3,71,64,39,14,28,Female,402.7000000477,,"
  <table>
  <tr height=300>
    <td width=300 height=300><img src=""static/images/cards/back_of_black_moons.svg"" width=""175px"" height=""250px""></img></td>
    <td width=300 height=300><img src=""static/images/cards/back_of_black_moons.svg"" width=""175px"" height=""250px""></img></td>
  </tr>
  <tr height=200>
    <td width=300><img src=""static/images/keys/z.svg"" width=""35%"" height=""75%""></img></td>
    <td width=300><img src=""static/images/keys/m.svg"" width=""35%"" height=""75%""></img></td>
  </tr>
</table>
  ",90.0,1.0,,,,,,,,,,,,,,,,,,,,,,,,,,
227,0,,html-keyboard-response,227,498726,0.0-7.15-2.15,ei3y0b0xjnk,2022-09-19 14:52:51.313,62b5f3e16a7f9aef9ed922df,3,71,64,39,14,28,Female,,,"
  <table>
  <tr height=300>
    <td width=300 height=300><img src=""static/images/cards/4_of_black_moons.svg"" width=""175px"" height=""250px""></img></td>
    <td width=300 height=300><img src=""static/images/cards/back_of_black_moons.svg"" width=""175px"" height=""250px""></img></td>
  </tr>
  <tr height=200>
    <td width=300><img src=""static/images/keys/z.svg"" width=""35%"" height=""75%""></img></td>
    <td width=300><img src=""static/images/keys/m.svg"" width=""35%"" height=""75%""></img></td>
  </tr>
</table>
  ",,,,,,,,,,,,,,,,,,,,,,,,,,,,
228,0,,html-keyboard-response,228,500240,0.0-7.15-3.15,ei3y0b0xjnk,2022-09-19 14:52:51.313,62b5f3e16a7f9aef9ed922df,3,71,64,39,14,28,Female,,,"<p style=""font-size:50px"">You Lose!
No points this round.</p>",,,,,,,,,,,,,,,,,,,,,,,,,,,,
229,0,,html-keyboard-response,229,500751,0.0-7.15-4.15,ei3y0b0xjnk,2022-09-19 14:52:51.313,62b5f3e16a7f9aef9ed922df,3,71,64,39,14,28,Female,,,,,,1.0,choice,15.0,A,C,black,black,stars,moons,C,A,A,black,moons,1239.0,1.0,1.0,NA,left,402.7000000477,4.0,0.0,0.0,,,
230,0,,html-keyboard-response,230,501679,0.0-7.16-0.16,ei3y0b0xjnk,2022-09-19 14:52:51.313,62b5f3e16a7f9aef9ed922df,3,71,64,39,14,28,Female,924.8000000119,,"
  <table>
  <tr height=300>
    <td width=300 height=300><img src=""static/images/cards/stack_of_red_moons.svg"" width=""175px"" height=""250px""></img></td>
    <td width=300 height=300><img src=""static/images/cards/stack_of_red_stars.svg"" width=""175px"" height=""250px""></img></td>
  </tr>
  <tr height=200>
    <td width=300><img src=""static/images/keys/w.svg"" width=""35%"" height=""75%""></img></td>
    <td width=300><img src=""static/images/keys/o.svg"" width=""35%"" height=""75%""></img></td>
  </tr>
</table>
  ",87.0,1.0,,,,,,,,,,,,,,,,,,,,,,,,,,
231,0,,html-keyboard-response,231,502643,0.0-7.16-1.16,ei3y0b0xjnk,2022-09-19 14:52:51.313,62b5f3e16a7f9aef9ed922df,3,71,64,39,14,28,Female,453.0999999642,,"
  <table>
  <tr height=300>
    <td width=300 height=300><img src=""static/images/cards/back_of_red_moons.svg"" width=""175px"" height=""250px""></img></td>
    <td width=300 height=300><img src=""static/images/cards/back_of_red_moons.svg"" width=""175px"" height=""250px""></img></td>
  </tr>
  <tr height=200>
    <td width=300></td>
    <td width=300><img src=""static/images/keys/m.svg"" width=""35%"" height=""75%""></img></td>
  </tr>
</table>
  ",77.0,1.0,,,,,,,,,,,,,,,,,,,,,,,,,,
232,0,,html-keyboard-response,232,504161,0.0-7.16-2.16,ei3y0b0xjnk,2022-09-19 14:52:51.313,62b5f3e16a7f9aef9ed922df,3,71,64,39,14,28,Female,,,"
  <table>
  <tr height=300>
    <td width=300 height=300><img src=""static/images/cards/back_of_red_moons.svg"" width=""175px"" height=""250px""></img></td>
    <td width=300 height=300><img src=""static/images/cards/3_of_red_moons.svg"" width=""175px"" height=""250px""></img></td>
  </tr>
  <tr height=200>
    <td width=300></td>
    <td width=300><img src=""static/images/keys/m.svg"" width=""35%"" height=""75%""></img></td>
  </tr>
</table>
  ",,,,,,,,,,,,,,,,,,,,,,,,,,,,
