"","X","index","success","trial_type","trial_index","time_elapsed","internal_node_id","subject","date","prol_id","ctbl","sense_of_control_A","sense_of_control_B","sense_of_control_C","sense_of_control_D","age","gender","rt","url","stimulus","key_press","npress","is_data_trial","phase","trial","deck1","deck2","col1","col2","sym1","sym2","deck_l","deck_r","chosen_deck","chosen_col","chosen_sym","deck_rt","choose_choice","mutual_info","hidden_key","chosen_card","card_rt","player_num","win_card","outcome","mock_rating","response","responses","pair","soc_split_A","soc_split_B","soc_split_C","soc_split_D","choice_pair","mi_pair"
"153",152,0,NA,"html-keyboard-response",152,616507,"0.0-7.0-4.0","0a7yvayyw0tj","2022-09-19 16:21:43.034","5f516d96bf6cde3b04b94b69",3,63,38,66,39,"31","male",NA,"","",NA,NA,"true","choice",0,"A","B","black","red","moons","moons","A","B","A","black","moons",2847.700000003,0,0,1,"",NA,4,0,1,NA,NA,"","AB",1,0,1,1,"10","11"
"163",162,0,NA,"html-keyboard-response",162,630791,"0.0-7.2-4.2","0a7yvayyw0tj","2022-09-19 16:21:43.034","5f516d96bf6cde3b04b94b69",3,63,38,66,39,"31","male",NA,"","",NA,NA,"true","choice",2,"B","D","red","red","stars","moons","D","B","B","red","moons",2656.799999997,0,1,0,"right",1172.5,7,1,1,NA,NA,"","BD",1,0,1,1,"00","01"
"168",167,0,NA,"html-keyboard-response",167,637330,"0.0-7.3-4.3","0a7yvayyw0tj","2022-09-19 16:21:43.034","5f516d96bf6cde3b04b94b69",3,63,38,66,39,"31","male",NA,"","",NA,NA,"true","choice",3,"A","C","black","black","moons","stars","A","C","C","black","stars",1398.8999999911,1,0,NA,"right",1093,2,0,0,NA,NA,"","AC",1,0,1,1,"11","10"
"173",172,0,NA,"html-keyboard-response",172,644349,"0.0-7.4-4.4","0a7yvayyw0tj","2022-09-19 16:21:43.034","5f516d96bf6cde3b04b94b69",3,63,38,66,39,"31","male",NA,"","",NA,NA,"true","choice",4,"B","C","black","red","stars","moons","C","B","C","black","stars",1691.8999999911,1,0,NA,"right",1264.700000003,1,0,0,NA,NA,"","BC",1,0,1,1,"10","01"
"178",177,0,NA,"html-keyboard-response",177,650891,"0.0-7.5-4.5","0a7yvayyw0tj","2022-09-19 16:21:43.034","5f516d96bf6cde3b04b94b69",3,63,38,66,39,"31","male",NA,"","",NA,NA,"true","choice",5,"A","D","red","black","stars","moons","D","A","D","red","stars",1360.599999994,0,0,0,"right",1120,7,1,1,NA,NA,"","AD",1,0,1,1,"10","10"
"183",182,0,NA,"html-keyboard-response",182,657084,"0.0-7.6-4.6","0a7yvayyw0tj","2022-09-19 16:21:43.034","5f516d96bf6cde3b04b94b69",3,63,38,66,39,"31","male",NA,"","",NA,NA,"true","choice",6,"C","D","black","red","stars","stars","C","D","C","black","stars",1139,1,0,NA,"right",1012.799999997,8,1,1,NA,NA,"","CD",1,0,1,1,"10","00"
"188",187,0,NA,"html-keyboard-response",187,662778,"0.0-7.7-4.7","0a7yvayyw0tj","2022-09-19 16:21:43.034","5f516d96bf6cde3b04b94b69",3,63,38,66,39,"31","male",NA,"","",NA,NA,"true","choice",7,"B","C","black","red","stars","moons","C","B","C","black","stars",922.1000000089,1,0,NA,"right",706.200000003,4,0,1,NA,NA,"","BC",1,0,1,1,"10","01"
"193",192,0,NA,"html-keyboard-response",192,669016,"0.0-7.8-4.8","0a7yvayyw0tj","2022-09-19 16:21:43.034","5f516d96bf6cde3b04b94b69",3,63,38,66,39,"31","male",NA,"","",NA,NA,"true","choice",8,"C","D","red","black","stars","stars","D","C","C","black","stars",1235.299999997,1,0,NA,"right",952.700000003,8,1,1,NA,NA,"","CD",1,0,1,1,"10","00"
"198",197,0,NA,"html-keyboard-response",197,675310,"0.0-7.9-4.9","0a7yvayyw0tj","2022-09-19 16:21:43.034","5f516d96bf6cde3b04b94b69",3,63,38,66,39,"31","male",NA,"","",NA,NA,"true","choice",9,"B","C","black","red","stars","moons","C","B","C","black","stars",1277.700000003,1,0,NA,"right",948.599999994,4,0,0,NA,NA,"","BC",1,0,1,1,"10","01"
"203",202,0,NA,"html-keyboard-response",202,681156,"0.0-7.10-4.10","0a7yvayyw0tj","2022-09-19 16:21:43.034","5f516d96bf6cde3b04b94b69",3,63,38,66,39,"31","male",NA,"","",NA,NA,"true","choice",10,"A","D","black","red","moons","stars","A","D","A","black","moons",703.700000003,1,1,NA,"right",1087.5,9,1,1,NA,NA,"","AD",1,0,1,1,"10","10"
"213",212,0,NA,"html-keyboard-response",212,694390,"0.0-7.12-4.12","0a7yvayyw0tj","2022-09-19 16:21:43.034","5f516d96bf6cde3b04b94b69",3,63,38,66,39,"31","male",NA,"","",NA,NA,"true","choice",12,"A","C","black","black","moons","stars","A","C","A","black","moons",1395,1,1,NA,"right",1230.099999994,6,1,1,NA,NA,"","AC",1,0,1,1,"11","10"
"218",217,0,NA,"html-keyboard-response",217,700749,"0.0-7.13-4.13","0a7yvayyw0tj","2022-09-19 16:21:43.034","5f516d96bf6cde3b04b94b69",3,63,38,66,39,"31","male",NA,"","",NA,NA,"true","choice",13,"C","D","red","black","stars","stars","D","C","C","black","stars",1175.6000000089,1,0,NA,"right",1108.400000006,3,0,1,NA,NA,"","CD",1,0,1,1,"10","00"
"223",222,0,NA,"html-keyboard-response",222,707213,"0.0-7.14-4.14","0a7yvayyw0tj","2022-09-19 16:21:43.034","5f516d96bf6cde3b04b94b69",3,63,38,66,39,"31","male",NA,"","",NA,NA,"true","choice",14,"B","D","red","red","moons","stars","B","D","D","red","stars",1464.599999994,0,0,0,"right",934.599999994,2,0,0,NA,NA,"","BD",1,0,1,1,"00","01"
"228",227,0,NA,"html-keyboard-response",227,713367,"0.0-7.15-4.15","0a7yvayyw0tj","2022-09-19 16:21:43.034","5f516d96bf6cde3b04b94b69",3,63,38,66,39,"31","male",NA,"","",NA,NA,"true","choice",15,"A","D","red","black","stars","moons","D","A","A","black","moons",1096.1000000089,1,1,NA,"right",999.299999997,4,0,0,NA,NA,"","AD",1,0,1,1,"10","10"
"233",232,0,NA,"html-keyboard-response",232,719279,"0.0-7.16-4.16","0a7yvayyw0tj","2022-09-19 16:21:43.034","5f516d96bf6cde3b04b94b69",3,63,38,66,39,"31","male",NA,"","",NA,NA,"true","choice",16,"A","B","red","black","moons","moons","B","A","A","black","moons",1088,1,1,NA,"right",758.3999999911,4,0,0,NA,NA,"","AB",1,0,1,1,"10","11"
"238",237,0,NA,"html-keyboard-response",237,725460,"0.0-7.17-4.17","0a7yvayyw0tj","2022-09-19 16:21:43.034","5f516d96bf6cde3b04b94b69",3,63,38,66,39,"31","male",NA,"","",NA,NA,"true","choice",17,"B","D","red","red","stars","moons","D","B","D","red","stars",1110.599999994,0,0,0,"right",1009.099999994,9,1,0,NA,NA,"","BD",1,0,1,1,"00","01"
"243",242,0,NA,"html-keyboard-response",242,731795,"0.0-7.18-4.18","0a7yvayyw0tj","2022-09-19 16:21:43.034","5f516d96bf6cde3b04b94b69",3,63,38,66,39,"31","male",NA,"","",NA,NA,"true","choice",18,"A","C","black","black","stars","moons","C","A","A","black","moons",1417.299999997,1,1,NA,"right",859,10,1,1,NA,NA,"","AC",1,0,1,1,"11","10"
"248",247,0,NA,"html-keyboard-response",247,737720,"0.0-7.19-4.19","0a7yvayyw0tj","2022-09-19 16:21:43.034","5f516d96bf6cde3b04b94b69",3,63,38,66,39,"31","male",NA,"","",NA,NA,"true","choice",19,"C","D","red","black","stars","stars","D","C","C","black","stars",914.700000003,1,0,NA,"right",950,1,0,1,NA,NA,"","CD",1,0,1,1,"10","00"
"253",252,0,NA,"html-keyboard-response",252,743719,"0.0-7.20-4.20","0a7yvayyw0tj","2022-09-19 16:21:43.034","5f516d96bf6cde3b04b94b69",3,63,38,66,39,"31","male",NA,"","",NA,NA,"true","choice",20,"B","D","red","red","moons","stars","B","D","D","red","stars",1029.400000006,0,0,0,"right",928.5,1,0,0,NA,NA,"","BD",1,0,1,1,"00","01"
"258",257,0,NA,"html-keyboard-response",257,749754,"0.0-7.21-4.21","0a7yvayyw0tj","2022-09-19 16:21:43.034","5f516d96bf6cde3b04b94b69",3,63,38,66,39,"31","male",NA,"","",NA,NA,"true","choice",21,"C","D","red","black","stars","stars","D","C","C","black","stars",1086.8999999911,1,0,NA,"right",886.200000003,10,1,0,NA,NA,"","CD",1,0,1,1,"10","00"
"268",267,0,NA,"html-keyboard-response",267,761977,"0.0-7.23-4.23","0a7yvayyw0tj","2022-09-19 16:21:43.034","5f516d96bf6cde3b04b94b69",3,63,38,66,39,"31","male",NA,"","",NA,NA,"true","choice",23,"C","D","red","black","stars","stars","D","C","C","black","stars",1063.200000003,1,0,NA,"right",879.799999997,8,1,1,NA,NA,"","CD",1,0,1,1,"10","00"
"273",272,0,NA,"html-keyboard-response",272,768817,"0.0-7.24-4.24","0a7yvayyw0tj","2022-09-19 16:21:43.034","5f516d96bf6cde3b04b94b69",3,63,38,66,39,"31","male",NA,"","",NA,NA,"true","choice",24,"A","D","black","red","moons","stars","A","D","A","black","moons",1820.3999999911,1,1,NA,"right",958.099999994,3,0,0,NA,NA,"","AD",1,0,1,1,"10","10"
"278",277,0,NA,"html-keyboard-response",277,775030,"0.0-7.25-4.25","0a7yvayyw0tj","2022-09-19 16:21:43.034","5f516d96bf6cde3b04b94b69",3,63,38,66,39,"31","male",NA,"","",NA,NA,"true","choice",25,"A","D","black","red","moons","stars","A","D","A","black","moons",1124.700000003,1,1,NA,"left",1028.099999994,6,1,1,NA,NA,"","AD",1,0,1,1,"10","10"
"293",292,0,NA,"html-keyboard-response",292,794115,"0.0-7.28-4.28","0a7yvayyw0tj","2022-09-19 16:21:43.034","5f516d96bf6cde3b04b94b69",3,63,38,66,39,"31","male",NA,"","",NA,NA,"true","choice",28,"C","D","red","black","stars","stars","D","C","C","black","stars",995,1,0,NA,"right",937.400000006,4,0,1,NA,NA,"","CD",1,0,1,1,"10","00"
"298",297,0,NA,"html-keyboard-response",297,800530,"0.0-7.29-4.29","0a7yvayyw0tj","2022-09-19 16:21:43.034","5f516d96bf6cde3b04b94b69",3,63,38,66,39,"31","male",NA,"","",NA,NA,"true","choice",29,"A","B","red","black","moons","moons","B","A","A","black","moons",1466.200000003,1,1,NA,"right",888.6000000089,10,1,1,NA,NA,"","AB",1,0,1,1,"10","11"
"303",302,0,NA,"html-keyboard-response",302,807118,"0.0-7.30-4.30","0a7yvayyw0tj","2022-09-19 16:21:43.034","5f516d96bf6cde3b04b94b69",3,63,38,66,39,"31","male",NA,"","",NA,NA,"true","choice",30,"C","D","black","red","stars","stars","C","D","C","black","stars",1636.5,1,0,NA,"right",919.200000003,8,1,0,NA,NA,"","CD",1,0,1,1,"10","00"
"308",307,0,NA,"html-keyboard-response",307,813203,"0.0-7.31-4.31","0a7yvayyw0tj","2022-09-19 16:21:43.034","5f516d96bf6cde3b04b94b69",3,63,38,66,39,"31","male",NA,"","",NA,NA,"true","choice",31,"A","C","black","black","moons","stars","A","C","C","black","stars",1159.799999997,1,0,NA,"right",864.799999997,2,0,1,NA,NA,"","AC",1,0,1,1,"11","10"
"313",312,0,NA,"html-keyboard-response",312,819303,"0.0-7.32-4.32","0a7yvayyw0tj","2022-09-19 16:21:43.034","5f516d96bf6cde3b04b94b69",3,63,38,66,39,"31","male",NA,"","",NA,NA,"true","choice",32,"A","B","red","black","moons","moons","B","A","A","black","moons",1052.299999997,1,1,NA,"right",972.1999999881,2,0,0,NA,NA,"","AB",1,0,1,1,"10","11"
"318",317,0,NA,"html-keyboard-response",317,825257,"0.0-7.33-4.33","0a7yvayyw0tj","2022-09-19 16:21:43.034","5f516d96bf6cde3b04b94b69",3,63,38,66,39,"31","male",NA,"","",NA,NA,"true","choice",33,"A","B","red","black","moons","moons","B","A","A","black","moons",918.5,1,1,NA,"right",977.1000000089,8,1,1,NA,NA,"","AB",1,0,1,1,"10","11"
"323",322,0,NA,"html-keyboard-response",322,831558,"0.0-7.34-4.34","0a7yvayyw0tj","2022-09-19 16:21:43.034","5f516d96bf6cde3b04b94b69",3,63,38,66,39,"31","male",NA,"","",NA,NA,"true","choice",34,"B","C","black","red","stars","moons","C","B","C","black","stars",1316.299999997,1,0,NA,"right",920.900000006,10,1,1,NA,NA,"","BC",1,0,1,1,"10","01"
"328",327,0,NA,"html-keyboard-response",327,837748,"0.0-7.35-4.35","0a7yvayyw0tj","2022-09-19 16:21:43.034","5f516d96bf6cde3b04b94b69",3,63,38,66,39,"31","male",NA,"","",NA,NA,"true","choice",35,"A","C","black","black","moons","stars","A","C","C","black","stars",1151.799999997,1,0,NA,"right",982.799999997,4,0,1,NA,NA,"","AC",1,0,1,1,"11","10"
"333",332,0,NA,"html-keyboard-response",332,843877,"0.0-7.36-4.36","0a7yvayyw0tj","2022-09-19 16:21:43.034","5f516d96bf6cde3b04b94b69",3,63,38,66,39,"31","male",NA,"","",NA,NA,"true","choice",36,"A","C","black","black","stars","moons","C","A","C","black","stars",1225,1,0,NA,"right",845.5,8,1,0,NA,NA,"","AC",1,0,1,1,"11","10"
"338",337,0,NA,"html-keyboard-response",337,850836,"0.0-7.37-4.37","0a7yvayyw0tj","2022-09-19 16:21:43.034","5f516d96bf6cde3b04b94b69",3,63,38,66,39,"31","male",NA,"","",NA,NA,"true","choice",37,"B","C","black","red","stars","moons","C","B","B","red","moons",1617,0,1,1,"left",1271.6000000089,2,0,0,NA,NA,"","BC",1,0,1,1,"10","01"
"343",342,0,NA,"html-keyboard-response",342,857257,"0.0-7.38-4.38","0a7yvayyw0tj","2022-09-19 16:21:43.034","5f516d96bf6cde3b04b94b69",3,63,38,66,39,"31","male",NA,"","",NA,NA,"true","choice",38,"A","D","black","red","moons","stars","A","D","A","black","moons",1129.200000003,1,1,NA,"right",1227.400000006,7,1,1,NA,NA,"","AD",1,0,1,1,"10","10"
"348",347,0,NA,"html-keyboard-response",347,863424,"0.0-7.39-4.39","0a7yvayyw0tj","2022-09-19 16:21:43.034","5f516d96bf6cde3b04b94b69",3,63,38,66,39,"31","male",NA,"","",NA,NA,"true","choice",39,"C","D","red","black","stars","stars","D","C","C","black","stars",1276.700000003,1,0,NA,"right",833.799999997,3,0,1,NA,NA,"","CD",1,0,1,1,"10","00"
"353",352,0,NA,"html-keyboard-response",352,870330,"0.0-7.40-4.40","0a7yvayyw0tj","2022-09-19 16:21:43.034","5f516d96bf6cde3b04b94b69",3,63,38,66,39,"31","male",NA,"","",NA,NA,"true","choice",40,"A","B","black","red","moons","moons","A","B","A","black","moons",1861.700000003,1,1,NA,"right",976.3000000119,8,1,1,NA,NA,"","AB",1,0,1,1,"10","11"
"358",357,0,NA,"html-keyboard-response",357,876262,"0.0-7.41-4.41","0a7yvayyw0tj","2022-09-19 16:21:43.034","5f516d96bf6cde3b04b94b69",3,63,38,66,39,"31","male",NA,"","",NA,NA,"true","choice",41,"A","B","red","black","moons","moons","B","A","A","black","moons",1059.599999994,1,1,NA,"right",826.6999999881,8,1,1,NA,NA,"","AB",1,0,1,1,"10","11"
"363",362,0,NA,"html-keyboard-response",362,882332,"0.0-7.42-4.42","0a7yvayyw0tj","2022-09-19 16:21:43.034","5f516d96bf6cde3b04b94b69",3,63,38,66,39,"31","male",NA,"","",NA,NA,"true","choice",42,"A","C","black","black","stars","moons","C","A","A","black","moons",1119.3000000119,1,1,NA,"right",895.700000003,6,1,1,NA,NA,"","AC",1,0,1,1,"11","10"
"368",367,0,NA,"html-keyboard-response",367,889277,"0.0-7.43-4.43","0a7yvayyw0tj","2022-09-19 16:21:43.034","5f516d96bf6cde3b04b94b69",3,63,38,66,39,"31","male",NA,"","",NA,NA,"true","choice",43,"A","D","black","red","moons","stars","A","D","A","black","moons",1945.099999994,1,1,NA,"right",938.200000003,1,0,0,NA,NA,"","AD",1,0,1,1,"10","10"
"373",372,0,NA,"html-keyboard-response",372,896112,"0.0-7.44-4.44","0a7yvayyw0tj","2022-09-19 16:21:43.034","5f516d96bf6cde3b04b94b69",3,63,38,66,39,"31","male",NA,"","",NA,NA,"true","choice",44,"A","D","black","red","moons","stars","A","D","A","black","moons",1688.799999997,1,1,NA,"right",1104.599999994,9,1,1,NA,NA,"","AD",1,0,1,1,"10","10"
"378",377,0,NA,"html-keyboard-response",377,902331,"0.0-7.45-4.45","0a7yvayyw0tj","2022-09-19 16:21:43.034","5f516d96bf6cde3b04b94b69",3,63,38,66,39,"31","male",NA,"","",NA,NA,"true","choice",45,"B","C","red","black","moons","stars","B","C","C","black","stars",1196.700000003,1,0,NA,"right",953.1000000089,6,1,1,NA,NA,"","BC",1,0,1,1,"10","01"
"383",382,0,NA,"html-keyboard-response",382,908593,"0.0-7.46-4.46","0a7yvayyw0tj","2022-09-19 16:21:43.034","5f516d96bf6cde3b04b94b69",3,63,38,66,39,"31","male",NA,"","",NA,NA,"true","choice",46,"A","B","black","red","moons","moons","A","B","A","black","moons",1202.8999999911,1,1,NA,"right",996.5,9,1,1,NA,NA,"","AB",1,0,1,1,"10","11"
"388",387,0,NA,"html-keyboard-response",387,915115,"0.0-7.47-4.47","0a7yvayyw0tj","2022-09-19 16:21:43.034","5f516d96bf6cde3b04b94b69",3,63,38,66,39,"31","male",NA,"","",NA,NA,"true","choice",47,"B","D","red","red","stars","moons","D","B","B","red","moons",1308.6000000089,0,1,1,"left",1152.8999999911,10,1,1,NA,NA,"","BD",1,0,1,1,"00","01"
"393",392,0,NA,"html-keyboard-response",392,921352,"0.0-7.48-4.48","0a7yvayyw0tj","2022-09-19 16:21:43.034","5f516d96bf6cde3b04b94b69",3,63,38,66,39,"31","male",NA,"","",NA,NA,"true","choice",48,"C","D","red","black","stars","stars","D","C","C","black","stars",1211,1,0,NA,"right",956.3999999911,1,0,1,NA,NA,"","CD",1,0,1,1,"10","00"
"398",397,0,NA,"html-keyboard-response",397,927955,"0.0-7.49-4.49","0a7yvayyw0tj","2022-09-19 16:21:43.034","5f516d96bf6cde3b04b94b69",3,63,38,66,39,"31","male",NA,"","",NA,NA,"true","choice",49,"B","D","red","red","stars","moons","D","B","B","red","moons",1469.099999994,0,1,1,"left",1076.900000006,4,0,0,NA,NA,"","BD",1,0,1,1,"00","01"
"403",402,0,NA,"html-keyboard-response",402,934339,"0.0-7.50-4.50","0a7yvayyw0tj","2022-09-19 16:21:43.034","5f516d96bf6cde3b04b94b69",3,63,38,66,39,"31","male",NA,"","",NA,NA,"true","choice",50,"A","C","black","black","moons","stars","A","C","C","black","stars",1258.799999997,1,0,NA,"right",1061.5,2,0,0,NA,NA,"","AC",1,0,1,1,"11","10"
"408",407,0,NA,"html-keyboard-response",407,940694,"0.0-7.51-4.51","0a7yvayyw0tj","2022-09-19 16:21:43.034","5f516d96bf6cde3b04b94b69",3,63,38,66,39,"31","male",NA,"","",NA,NA,"true","choice",51,"B","D","red","red","stars","moons","D","B","D","red","stars",1218.599999994,0,0,1,"left",1077.5,9,1,0,NA,NA,"","BD",1,0,1,1,"00","01"
"418",417,0,NA,"html-keyboard-response",417,953502,"0.0-7.53-4.53","0a7yvayyw0tj","2022-09-19 16:21:43.034","5f516d96bf6cde3b04b94b69",3,63,38,66,39,"31","male",NA,"","",NA,NA,"true","choice",53,"A","B","red","black","moons","moons","B","A","B","red","moons",1218.599999994,0,1,1,"left",1077.700000003,4,0,0,NA,NA,"","AB",1,0,1,1,"10","11"
"423",422,0,NA,"html-keyboard-response",422,959809,"0.0-7.54-4.54","0a7yvayyw0tj","2022-09-19 16:21:43.034","5f516d96bf6cde3b04b94b69",3,63,38,66,39,"31","male",NA,"","",NA,NA,"true","choice",54,"A","C","black","black","moons","stars","A","C","C","black","stars",1135.8999999911,1,0,NA,"left",1119.299999997,1,0,1,NA,NA,"","AC",1,0,1,1,"11","10"
"428",427,0,NA,"html-keyboard-response",427,966253,"0.0-7.55-4.55","0a7yvayyw0tj","2022-09-19 16:21:43.034","5f516d96bf6cde3b04b94b69",3,63,38,66,39,"31","male",NA,"","",NA,NA,"true","choice",55,"A","D","red","black","stars","moons","D","A","A","black","moons",1404.700000003,1,1,NA,"right",976.799999997,9,1,1,NA,NA,"","AD",1,0,1,1,"10","10"
"433",432,0,NA,"html-keyboard-response",432,972365,"0.0-7.56-4.56","0a7yvayyw0tj","2022-09-19 16:21:43.034","5f516d96bf6cde3b04b94b69",3,63,38,66,39,"31","male",NA,"","",NA,NA,"true","choice",56,"B","C","red","black","moons","stars","B","C","C","black","stars",1056.299999997,1,0,NA,"right",994.400000006,3,0,0,NA,NA,"","BC",1,0,1,1,"10","01"
"443",442,0,NA,"html-keyboard-response",442,984995,"0.0-7.58-4.58","0a7yvayyw0tj","2022-09-19 16:21:43.034","5f516d96bf6cde3b04b94b69",3,63,38,66,39,"31","male",NA,"","",NA,NA,"true","choice",58,"A","C","black","black","stars","moons","C","A","A","black","moons",1492.799999997,1,1,NA,"right",898.799999997,9,1,1,NA,NA,"","AC",1,0,1,1,"11","10"
"448",447,0,NA,"html-keyboard-response",447,991016,"0.0-7.59-4.59","0a7yvayyw0tj","2022-09-19 16:21:43.034","5f516d96bf6cde3b04b94b69",3,63,38,66,39,"31","male",NA,"","",NA,NA,"true","choice",59,"B","D","red","red","stars","moons","D","B","B","red","moons",1123.099999994,0,1,0,"right",844.700000003,2,0,0,NA,NA,"","BD",1,0,1,1,"00","01"
"453",452,0,NA,"html-keyboard-response",452,997642,"0.0-7.60-4.60","0a7yvayyw0tj","2022-09-19 16:21:43.034","5f516d96bf6cde3b04b94b69",3,63,38,66,39,"31","male",NA,"","",NA,NA,"true","choice",60,"B","C","black","red","stars","moons","C","B","C","black","stars",1365.8999999911,1,0,NA,"right",1204.6000000089,6,1,0,NA,NA,"","BC",1,0,1,1,"10","01"
"458",457,0,NA,"html-keyboard-response",457,1004124,"0.0-7.61-4.61","0a7yvayyw0tj","2022-09-19 16:21:43.034","5f516d96bf6cde3b04b94b69",3,63,38,66,39,"31","male",NA,"","",NA,NA,"true","choice",61,"B","C","black","red","stars","moons","C","B","C","black","stars",1244.700000003,1,0,NA,"right",1174.299999997,7,1,0,NA,NA,"","BC",1,0,1,1,"10","01"
"463",462,0,NA,"html-keyboard-response",462,1010537,"0.0-7.62-4.62","0a7yvayyw0tj","2022-09-19 16:21:43.034","5f516d96bf6cde3b04b94b69",3,63,38,66,39,"31","male",NA,"","",NA,NA,"true","choice",62,"B","C","red","black","moons","stars","B","C","C","black","stars",1250.599999994,1,0,NA,"right",1113.200000003,10,1,1,NA,NA,"","BC",1,0,1,1,"10","01"
"468",467,0,NA,"html-keyboard-response",467,1016612,"0.0-7.63-4.63","0a7yvayyw0tj","2022-09-19 16:21:43.034","5f516d96bf6cde3b04b94b69",3,63,38,66,39,"31","male",NA,"","",NA,NA,"true","choice",63,"A","B","red","black","moons","moons","B","A","A","black","moons",1117.400000006,1,1,NA,"right",909.200000003,8,1,1,NA,NA,"","AB",1,0,1,1,"10","11"
"473",472,0,NA,"html-keyboard-response",472,1022991,"0.0-7.64-4.64","0a7yvayyw0tj","2022-09-19 16:21:43.034","5f516d96bf6cde3b04b94b69",3,63,38,66,39,"31","male",NA,"","",NA,NA,"true","choice",64,"B","D","red","red","stars","moons","D","B","B","red","moons",1234.400000006,0,1,1,"left",1103.1000000089,8,1,1,NA,NA,"","BD",1,0,1,1,"00","01"
"478",477,0,NA,"html-keyboard-response",477,1029501,"0.0-7.65-4.65","0a7yvayyw0tj","2022-09-19 16:21:43.034","5f516d96bf6cde3b04b94b69",3,63,38,66,39,"31","male",NA,"","",NA,NA,"true","choice",65,"B","D","red","red","stars","moons","D","B","B","red","moons",1198.700000003,0,1,0,"right",1243.799999997,2,0,0,NA,NA,"","BD",1,0,1,1,"00","01"
"483",482,0,NA,"html-keyboard-response",482,1035977,"0.0-7.66-4.66","0a7yvayyw0tj","2022-09-19 16:21:43.034","5f516d96bf6cde3b04b94b69",3,63,38,66,39,"31","male",NA,"","",NA,NA,"true","choice",66,"A","D","red","black","stars","moons","D","A","D","red","stars",1433,0,0,1,"left",996.799999997,1,0,0,NA,NA,"","AD",1,0,1,1,"10","10"
"673",154,0,NA,"html-keyboard-response",154,744621,"0.0-7.0-4.0","0e6le4hsg2a6","2022-09-19 14:52:42.394","5fb7dd473afbb1033b491811",2,42,68,0,2,"45","Male",NA,"","",NA,NA,"true","choice",0,"B","C","black","red","moons","stars","C","B","B","red","stars",2462.0999999996,0,1,0,"right",1507,4,0,0,NA,NA,"","BC",0,1,0,0,"10","01"
"678",159,0,NA,"html-keyboard-response",159,751811,"0.0-7.1-4.1","0e6le4hsg2a6","2022-09-19 14:52:42.394","5fb7dd473afbb1033b491811",2,42,68,0,2,"45","Male",NA,"","",NA,NA,"true","choice",1,"A","B","red","black","stars","stars","B","A","B","red","stars",1795.0999999996,0,1,1,"left",1334.4000000004,8,1,1,NA,NA,"","AB",0,1,0,0,"10","11"
"683",164,0,NA,"html-keyboard-response",164,759858,"0.0-7.2-4.2","0e6le4hsg2a6","2022-09-19 14:52:42.394","5fb7dd473afbb1033b491811",2,42,68,0,2,"45","Male",NA,"","",NA,NA,"true","choice",2,"A","D","black","red","stars","moons","A","D","A","black","stars",2615.1999999993,1,1,NA,"left",1365.5,2,0,0,NA,NA,"","AD",0,1,0,0,"10","10"
"688",169,0,NA,"html-keyboard-response",169,766809,"0.0-7.3-4.3","0e6le4hsg2a6","2022-09-19 14:52:42.394","5fb7dd473afbb1033b491811",2,42,68,0,2,"45","Male",NA,"","",NA,NA,"true","choice",3,"B","D","red","red","stars","moons","B","D","B","red","stars",1469.0999999996,0,1,0,"right",1397.4000000004,1,0,0,NA,NA,"","BD",0,1,0,0,"00","01"
"693",174,0,NA,"html-keyboard-response",174,773531,"0.0-7.4-4.4","0e6le4hsg2a6","2022-09-19 14:52:42.394","5fb7dd473afbb1033b491811",2,42,68,0,2,"45","Male",NA,"","",NA,NA,"true","choice",4,"B","C","red","black","stars","moons","B","C","B","red","stars",1569.5999999996,0,1,0,"right",1080,4,0,0,NA,NA,"","BC",0,1,0,0,"10","01"
"703",184,0,NA,"html-keyboard-response",184,787279,"0.0-7.6-4.6","0e6le4hsg2a6","2022-09-19 14:52:42.394","5fb7dd473afbb1033b491811",2,42,68,0,2,"45","Male",NA,"","",NA,NA,"true","choice",6,"B","D","red","red","moons","stars","D","B","B","red","stars",1419,0,1,1,"left",1086.4000000004,2,0,0,NA,NA,"","BD",0,1,0,0,"00","01"
"708",189,0,NA,"html-keyboard-response",189,793438,"0.0-7.7-4.7","0e6le4hsg2a6","2022-09-19 14:52:42.394","5fb7dd473afbb1033b491811",2,42,68,0,2,"45","Male",NA,"","",NA,NA,"true","choice",7,"A","B","black","red","stars","stars","A","B","B","red","stars",1140.1000000015,0,1,0,"right",952,7,1,1,NA,NA,"","AB",0,1,0,0,"10","11"
"713",194,0,NA,"html-keyboard-response",194,799976,"0.0-7.8-4.8","0e6le4hsg2a6","2022-09-19 14:52:42.394","5fb7dd473afbb1033b491811",2,42,68,0,2,"45","Male",NA,"","",NA,NA,"true","choice",8,"B","D","red","red","moons","stars","D","B","B","red","stars",1133.1999999993,0,1,1,"left",1329.7000000011,1,0,0,NA,NA,"","BD",0,1,0,0,"00","01"
"718",199,0,NA,"html-keyboard-response",199,806633,"0.0-7.9-4.9","0e6le4hsg2a6","2022-09-19 14:52:42.394","5fb7dd473afbb1033b491811",2,42,68,0,2,"45","Male",NA,"","",NA,NA,"true","choice",9,"C","D","black","red","moons","moons","C","D","D","red","moons",1550.5,0,0,0,"right",1014,8,1,0,NA,NA,"","CD",0,1,0,0,"10","00"
"723",204,0,NA,"html-keyboard-response",204,813155,"0.0-7.10-4.10","0e6le4hsg2a6","2022-09-19 14:52:42.394","5fb7dd473afbb1033b491811",2,42,68,0,2,"45","Male",NA,"","",NA,NA,"true","choice",10,"A","B","red","black","stars","stars","B","A","B","red","stars",1372.8000000007,0,1,1,"left",1086.0999999996,1,0,0,NA,NA,"","AB",0,1,0,0,"10","11"
"728",209,0,NA,"html-keyboard-response",209,819944,"0.0-7.11-4.11","0e6le4hsg2a6","2022-09-19 14:52:42.394","5fb7dd473afbb1033b491811",2,42,68,0,2,"45","Male",NA,"","",NA,NA,"true","choice",11,"A","C","black","black","moons","stars","C","A","A","black","stars",1501.5999999996,1,1,NA,"right",1198.5,2,0,0,NA,NA,"","AC",0,1,0,0,"11","10"
"733",214,0,NA,"html-keyboard-response",214,826871,"0.0-7.12-4.12","0e6le4hsg2a6","2022-09-19 14:52:42.394","5fb7dd473afbb1033b491811",2,42,68,0,2,"45","Male",NA,"","",NA,NA,"true","choice",12,"C","D","red","black","moons","moons","D","C","D","red","moons",1404.0999999996,0,0,0,"right",1450.0999999996,6,1,0,NA,NA,"","CD",0,1,0,0,"10","00"
"738",219,0,NA,"html-keyboard-response",219,833124,"0.0-7.13-4.13","0e6le4hsg2a6","2022-09-19 14:52:42.394","5fb7dd473afbb1033b491811",2,42,68,0,2,"45","Male",NA,"","",NA,NA,"true","choice",13,"C","D","red","black","moons","moons","D","C","D","red","moons",1220.6000000015,0,0,0,"right",950.9000000004,4,0,1,NA,NA,"","CD",0,1,0,0,"10","00"
"743",224,0,NA,"html-keyboard-response",224,838816,"0.0-7.14-4.14","0e6le4hsg2a6","2022-09-19 14:52:42.394","5fb7dd473afbb1033b491811",2,42,68,0,2,"45","Male",NA,"","",NA,NA,"true","choice",14,"A","B","red","black","stars","stars","B","A","B","red","stars",1026.4000000004,0,1,0,"right",583.7000000011,4,0,0,NA,NA,"","AB",0,1,0,0,"10","11"
"753",234,0,NA,"html-keyboard-response",234,852997,"0.0-7.16-4.16","0e6le4hsg2a6","2022-09-19 14:52:42.394","5fb7dd473afbb1033b491811",2,42,68,0,2,"45","Male",NA,"","",NA,NA,"true","choice",16,"B","C","red","black","stars","moons","B","C","B","red","stars",1887.0999999996,0,1,0,"right",1553.5,1,0,0,NA,NA,"","BC",0,1,0,0,"10","01"
"758",239,0,NA,"html-keyboard-response",239,859356,"0.0-7.17-4.17","0e6le4hsg2a6","2022-09-19 14:52:42.394","5fb7dd473afbb1033b491811",2,42,68,0,2,"45","Male",NA,"","",NA,NA,"true","choice",17,"A","D","red","black","moons","stars","D","A","A","black","stars",1535.4000000004,1,1,NA,"right",754.8999999985,7,1,1,NA,NA,"","AD",0,1,0,0,"10","10"
"763",244,0,NA,"html-keyboard-response",244,865727,"0.0-7.18-4.18","0e6le4hsg2a6","2022-09-19 14:52:42.394","5fb7dd473afbb1033b491811",2,42,68,0,2,"45","Male",NA,"","",NA,NA,"true","choice",18,"A","B","black","red","stars","stars","A","B","B","red","stars",1418,0,1,1,"left",875.7999999989,3,0,0,NA,NA,"","AB",0,1,0,0,"10","11"
"773",254,0,NA,"html-keyboard-response",254,878427,"0.0-7.20-4.20","0e6le4hsg2a6","2022-09-19 14:52:42.394","5fb7dd473afbb1033b491811",2,42,68,0,2,"45","Male",NA,"","",NA,NA,"true","choice",20,"C","D","red","black","moons","moons","D","C","C","black","moons",1620.2999999989,1,0,NA,"right",907.5,9,1,0,NA,NA,"","CD",0,1,0,0,"10","00"
"778",259,0,NA,"html-keyboard-response",259,884862,"0.0-7.21-4.21","0e6le4hsg2a6","2022-09-19 14:52:42.394","5fb7dd473afbb1033b491811",2,42,68,0,2,"45","Male",NA,"","",NA,NA,"true","choice",21,"A","C","black","black","moons","stars","C","A","A","black","stars",1418.2000000011,1,1,NA,"right",934.6999999993,4,0,0,NA,NA,"","AC",0,1,0,0,"11","10"
"783",264,0,NA,"html-keyboard-response",264,891345,"0.0-7.22-4.22","0e6le4hsg2a6","2022-09-19 14:52:42.394","5fb7dd473afbb1033b491811",2,42,68,0,2,"45","Male",NA,"","",NA,NA,"true","choice",22,"C","D","black","red","moons","moons","C","D","D","red","moons",1241,0,0,1,"left",1159.9000000004,9,1,0,NA,NA,"","CD",0,1,0,0,"10","00"
"793",274,0,NA,"html-keyboard-response",274,904783,"0.0-7.24-4.24","0e6le4hsg2a6","2022-09-19 14:52:42.394","5fb7dd473afbb1033b491811",2,42,68,0,2,"45","Male",NA,"","",NA,NA,"true","choice",24,"C","D","red","black","moons","moons","D","C","D","red","moons",1322.2999999989,0,0,1,"left",926.5999999996,1,0,1,NA,NA,"","CD",0,1,0,0,"10","00"
"798",279,0,NA,"html-keyboard-response",279,911204,"0.0-7.25-4.25","0e6le4hsg2a6","2022-09-19 14:52:42.394","5fb7dd473afbb1033b491811",2,42,68,0,2,"45","Male",NA,"","",NA,NA,"true","choice",25,"B","D","red","red","stars","moons","B","D","B","red","stars",1128.5,0,1,0,"right",1210.4000000004,4,0,0,NA,NA,"","BD",0,1,0,0,"00","01"
"803",284,0,NA,"html-keyboard-response",284,917397,"0.0-7.26-4.26","0e6le4hsg2a6","2022-09-19 14:52:42.394","5fb7dd473afbb1033b491811",2,42,68,0,2,"45","Male",NA,"","",NA,NA,"true","choice",26,"A","B","black","red","stars","stars","A","B","A","black","stars",1170.5,1,1,NA,"left",961.3000000007,1,0,0,NA,NA,"","AB",0,1,0,0,"10","11"
"808",289,0,NA,"html-keyboard-response",289,923502,"0.0-7.27-4.27","0e6le4hsg2a6","2022-09-19 14:52:42.394","5fb7dd473afbb1033b491811",2,42,68,0,2,"45","Male",NA,"","",NA,NA,"true","choice",27,"A","B","red","black","stars","stars","B","A","B","red","stars",1129.8000000007,0,1,1,"left",893.8000000007,10,1,1,NA,NA,"","AB",0,1,0,0,"10","11"
"813",294,0,NA,"html-keyboard-response",294,929558,"0.0-7.28-4.28","0e6le4hsg2a6","2022-09-19 14:52:42.394","5fb7dd473afbb1033b491811",2,42,68,0,2,"45","Male",NA,"","",NA,NA,"true","choice",28,"A","B","red","black","stars","stars","B","A","A","black","stars",1177.4000000004,1,1,NA,"left",778.2000000011,9,1,1,NA,NA,"","AB",0,1,0,0,"10","11"
"818",299,0,NA,"html-keyboard-response",299,936134,"0.0-7.29-4.29","0e6le4hsg2a6","2022-09-19 14:52:42.394","5fb7dd473afbb1033b491811",2,42,68,0,2,"45","Male",NA,"","",NA,NA,"true","choice",29,"A","C","black","black","moons","stars","C","A","C","black","moons",1022.6999999993,1,0,NA,"left",1488.5999999996,8,1,1,NA,NA,"","AC",0,1,0,0,"11","10"
"828",309,0,NA,"html-keyboard-response",309,949214,"0.0-7.31-4.31","0e6le4hsg2a6","2022-09-19 14:52:42.394","5fb7dd473afbb1033b491811",2,42,68,0,2,"45","Male",NA,"","",NA,NA,"true","choice",31,"A","C","black","black","moons","stars","C","A","A","black","stars",1210.5999999996,1,1,NA,"right",1188.6000000015,8,1,1,NA,NA,"","AC",0,1,0,0,"11","10"
"833",314,0,NA,"html-keyboard-response",314,955253,"0.0-7.32-4.32","0e6le4hsg2a6","2022-09-19 14:52:42.394","5fb7dd473afbb1033b491811",2,42,68,0,2,"45","Male",NA,"","",NA,NA,"true","choice",32,"C","D","black","red","moons","moons","C","D","D","red","moons",1105.9000000004,0,0,1,"left",856.7999999989,3,0,0,NA,NA,"","CD",0,1,0,0,"10","00"
"838",319,0,NA,"html-keyboard-response",319,961592,"0.0-7.33-4.33","0e6le4hsg2a6","2022-09-19 14:52:42.394","5fb7dd473afbb1033b491811",2,42,68,0,2,"45","Male",NA,"","",NA,NA,"true","choice",33,"B","C","red","black","stars","moons","B","C","B","red","stars",1329.8999999985,0,1,1,"left",942.0999999996,7,1,1,NA,NA,"","BC",0,1,0,0,"10","01"
"853",334,0,NA,"html-keyboard-response",334,982145,"0.0-7.36-4.36","0e6le4hsg2a6","2022-09-19 14:52:42.394","5fb7dd473afbb1033b491811",2,42,68,0,2,"45","Male",NA,"","",NA,NA,"true","choice",36,"A","D","black","red","stars","moons","A","D","A","black","stars",1826.1999999993,1,1,NA,"left",1208,1,0,0,NA,NA,"","AD",0,1,0,0,"10","10"
"858",339,0,NA,"html-keyboard-response",339,988020,"0.0-7.37-4.37","0e6le4hsg2a6","2022-09-19 14:52:42.394","5fb7dd473afbb1033b491811",2,42,68,0,2,"45","Male",NA,"","",NA,NA,"true","choice",37,"A","D","red","black","moons","stars","D","A","A","black","stars",1021.2999999989,1,1,NA,"right",782.9000000004,6,1,1,NA,NA,"","AD",0,1,0,0,"10","10"
"863",344,0,NA,"html-keyboard-response",344,993674,"0.0-7.38-4.38","0e6le4hsg2a6","2022-09-19 14:52:42.394","5fb7dd473afbb1033b491811",2,42,68,0,2,"45","Male",NA,"","",NA,NA,"true","choice",38,"B","C","black","red","moons","stars","C","B","B","red","stars",894.8000000007,0,1,0,"right",690.9000000004,10,1,1,NA,NA,"","BC",0,1,0,0,"10","01"
"868",349,0,NA,"html-keyboard-response",349,999680,"0.0-7.39-4.39","0e6le4hsg2a6","2022-09-19 14:52:42.394","5fb7dd473afbb1033b491811",2,42,68,0,2,"45","Male",NA,"","",NA,NA,"true","choice",39,"A","C","black","black","stars","moons","A","C","A","black","stars",1045,1,1,NA,"left",903.1999999993,2,0,0,NA,NA,"","AC",0,1,0,0,"11","10"
"873",354,0,NA,"html-keyboard-response",354,1006055,"0.0-7.40-4.40","0e6le4hsg2a6","2022-09-19 14:52:42.394","5fb7dd473afbb1033b491811",2,42,68,0,2,"45","Male",NA,"","",NA,NA,"true","choice",40,"B","C","red","black","stars","moons","B","C","B","red","stars",1312.5,0,1,0,"right",996.5999999996,3,0,0,NA,NA,"","BC",0,1,0,0,"10","01"
"878",359,0,NA,"html-keyboard-response",359,1011893,"0.0-7.41-4.41","0e6le4hsg2a6","2022-09-19 14:52:42.394","5fb7dd473afbb1033b491811",2,42,68,0,2,"45","Male",NA,"","",NA,NA,"true","choice",41,"B","D","red","red","moons","stars","D","B","B","red","stars",872.5,0,1,1,"left",889.6999999993,3,0,0,NA,NA,"","BD",0,1,0,0,"00","01"
"883",364,0,NA,"html-keyboard-response",364,1017934,"0.0-7.42-4.42","0e6le4hsg2a6","2022-09-19 14:52:42.394","5fb7dd473afbb1033b491811",2,42,68,0,2,"45","Male",NA,"","",NA,NA,"true","choice",42,"B","D","red","red","stars","moons","B","D","B","red","stars",841.5,0,1,0,"right",1128.5,3,0,0,NA,NA,"","BD",0,1,0,0,"00","01"
"888",369,0,NA,"html-keyboard-response",369,1024039,"0.0-7.43-4.43","0e6le4hsg2a6","2022-09-19 14:52:42.394","5fb7dd473afbb1033b491811",2,42,68,0,2,"45","Male",NA,"","",NA,NA,"true","choice",43,"B","D","red","red","moons","stars","D","B","B","red","stars",1272.8000000007,0,1,0,"right",747.4000000004,10,1,1,NA,NA,"","BD",0,1,0,0,"00","01"
"893",374,0,NA,"html-keyboard-response",374,1031147,"0.0-7.44-4.44","0e6le4hsg2a6","2022-09-19 14:52:42.394","5fb7dd473afbb1033b491811",2,42,68,0,2,"45","Male",NA,"","",NA,NA,"true","choice",44,"A","D","black","red","stars","moons","A","D","A","black","stars",2138.8000000007,1,1,NA,"right",900.5999999996,6,1,1,NA,NA,"","AD",0,1,0,0,"10","10"
"898",379,0,NA,"html-keyboard-response",379,1037238,"0.0-7.45-4.45","0e6le4hsg2a6","2022-09-19 14:52:42.394","5fb7dd473afbb1033b491811",2,42,68,0,2,"45","Male",NA,"","",NA,NA,"true","choice",45,"A","D","red","black","moons","stars","D","A","A","black","stars",1373,1,1,NA,"right",650.1999999993,3,0,0,NA,NA,"","AD",0,1,0,0,"10","10"
"903",384,0,NA,"html-keyboard-response",384,1043261,"0.0-7.46-4.46","0e6le4hsg2a6","2022-09-19 14:52:42.394","5fb7dd473afbb1033b491811",2,42,68,0,2,"45","Male",NA,"","",NA,NA,"true","choice",46,"B","D","red","red","stars","moons","B","D","B","red","stars",998,0,1,1,"left",941.1999999993,6,1,1,NA,NA,"","BD",0,1,0,0,"00","01"
"908",389,0,NA,"html-keyboard-response",389,1050234,"0.0-7.47-4.47","0e6le4hsg2a6","2022-09-19 14:52:42.394","5fb7dd473afbb1033b491811",2,42,68,0,2,"45","Male",NA,"","",NA,NA,"true","choice",47,"A","C","black","black","moons","stars","C","A","A","black","stars",1765.9000000004,1,1,NA,"right",1141.6999999993,7,1,1,NA,NA,"","AC",0,1,0,0,"11","10"
"913",394,0,NA,"html-keyboard-response",394,1056458,"0.0-7.48-4.48","0e6le4hsg2a6","2022-09-19 14:52:42.394","5fb7dd473afbb1033b491811",2,42,68,0,2,"45","Male",NA,"","",NA,NA,"true","choice",48,"C","D","black","red","moons","moons","C","D","D","red","moons",1401.1999999993,0,0,0,"right",730.6999999993,9,1,1,NA,NA,"","CD",0,1,0,0,"10","00"
"918",399,0,NA,"html-keyboard-response",399,1062330,"0.0-7.49-4.49","0e6le4hsg2a6","2022-09-19 14:52:42.394","5fb7dd473afbb1033b491811",2,42,68,0,2,"45","Male",NA,"","",NA,NA,"true","choice",49,"A","B","black","red","stars","stars","A","B","B","red","stars",1209.0999999996,0,1,0,"right",592.6000000015,10,1,1,NA,NA,"","AB",0,1,0,0,"10","11"
"923",404,0,NA,"html-keyboard-response",404,1068775,"0.0-7.50-4.50","0e6le4hsg2a6","2022-09-19 14:52:42.394","5fb7dd473afbb1033b491811",2,42,68,0,2,"45","Male",NA,"","",NA,NA,"true","choice",50,"A","D","red","black","moons","stars","D","A","A","black","stars",1722.0999999996,1,1,NA,"right",652,1,0,0,NA,NA,"","AD",0,1,0,0,"10","10"
"928",409,0,NA,"html-keyboard-response",409,1074544,"0.0-7.51-4.51","0e6le4hsg2a6","2022-09-19 14:52:42.394","5fb7dd473afbb1033b491811",2,42,68,0,2,"45","Male",NA,"","",NA,NA,"true","choice",51,"C","D","red","black","moons","moons","D","C","C","black","moons",964.1999999993,1,0,NA,"right",717.3000000007,10,1,1,NA,NA,"","CD",0,1,0,0,"10","00"
"933",414,0,NA,"html-keyboard-response",414,1080182,"0.0-7.52-4.52","0e6le4hsg2a6","2022-09-19 14:52:42.394","5fb7dd473afbb1033b491811",2,42,68,0,2,"45","Male",NA,"","",NA,NA,"true","choice",52,"A","C","black","black","moons","stars","C","A","A","black","stars",852,1,1,NA,"right",720.1999999993,9,1,1,NA,NA,"","AC",0,1,0,0,"11","10"
"938",419,0,NA,"html-keyboard-response",419,1086556,"0.0-7.53-4.53","0e6le4hsg2a6","2022-09-19 14:52:42.394","5fb7dd473afbb1033b491811",2,42,68,0,2,"45","Male",NA,"","",NA,NA,"true","choice",53,"B","D","red","red","stars","moons","B","D","B","red","stars",1485.3999999985,0,1,1,"left",835.1999999993,7,1,1,NA,NA,"","BD",0,1,0,0,"00","01"
"948",429,0,NA,"html-keyboard-response",429,1099785,"0.0-7.55-4.55","0e6le4hsg2a6","2022-09-19 14:52:42.394","5fb7dd473afbb1033b491811",2,42,68,0,2,"45","Male",NA,"","",NA,NA,"true","choice",55,"B","D","red","red","moons","stars","D","B","B","red","stars",1795.2000000011,0,1,0,"right",1063.8000000007,8,1,1,NA,NA,"","BD",0,1,0,0,"00","01"
"953",434,0,NA,"html-keyboard-response",434,1106392,"0.0-7.56-4.56","0e6le4hsg2a6","2022-09-19 14:52:42.394","5fb7dd473afbb1033b491811",2,42,68,0,2,"45","Male",NA,"","",NA,NA,"true","choice",56,"B","C","red","black","stars","moons","B","C","B","red","stars",1261.2000000011,0,1,1,"left",1265.6999999993,4,0,0,NA,NA,"","BC",0,1,0,0,"10","01"
"958",439,0,NA,"html-keyboard-response",439,1113647,"0.0-7.57-4.57","0e6le4hsg2a6","2022-09-19 14:52:42.394","5fb7dd473afbb1033b491811",2,42,68,0,2,"45","Male",NA,"","",NA,NA,"true","choice",57,"A","B","red","black","stars","stars","B","A","B","red","stars",860,0,1,1,"left",2308.4000000004,4,0,0,NA,NA,"","AB",0,1,0,0,"10","11"
"963",444,0,NA,"html-keyboard-response",444,1119772,"0.0-7.58-4.58","0e6le4hsg2a6","2022-09-19 14:52:42.394","5fb7dd473afbb1033b491811",2,42,68,0,2,"45","Male",NA,"","",NA,NA,"true","choice",58,"A","C","black","black","moons","stars","C","A","A","black","stars",1268,1,1,NA,"right",770.1999999993,7,1,1,NA,NA,"","AC",0,1,0,0,"11","10"
"968",449,0,NA,"html-keyboard-response",449,1125761,"0.0-7.59-4.59","0e6le4hsg2a6","2022-09-19 14:52:42.394","5fb7dd473afbb1033b491811",2,42,68,0,2,"45","Male",NA,"","",NA,NA,"true","choice",59,"B","C","red","black","stars","moons","B","C","B","red","stars",1103.3000000007,0,1,1,"left",789.1999999993,2,0,0,NA,NA,"","BC",0,1,0,0,"10","01"
"973",454,0,NA,"html-keyboard-response",454,1132234,"0.0-7.60-4.60","0e6le4hsg2a6","2022-09-19 14:52:42.394","5fb7dd473afbb1033b491811",2,42,68,0,2,"45","Male",NA,"","",NA,NA,"true","choice",60,"B","C","red","black","stars","moons","B","C","B","red","stars",1468.5999999996,0,1,1,"left",907.9000000004,3,0,0,NA,NA,"","BC",0,1,0,0,"10","01"
"978",459,0,NA,"html-keyboard-response",459,1138857,"0.0-7.61-4.61","0e6le4hsg2a6","2022-09-19 14:52:42.394","5fb7dd473afbb1033b491811",2,42,68,0,2,"45","Male",NA,"","",NA,NA,"true","choice",61,"A","D","black","red","stars","moons","A","D","A","black","stars",1652.0999999996,1,1,NA,"right",905.1999999993,10,1,1,NA,NA,"","AD",0,1,0,0,"10","10"
"983",464,0,NA,"html-keyboard-response",464,1144679,"0.0-7.62-4.62","0e6le4hsg2a6","2022-09-19 14:52:42.394","5fb7dd473afbb1033b491811",2,42,68,0,2,"45","Male",NA,"","",NA,NA,"true","choice",62,"B","C","red","black","stars","moons","B","C","B","red","stars",876.5,0,1,1,"left",865.9000000004,6,1,1,NA,NA,"","BC",0,1,0,0,"10","01"
"988",469,0,NA,"html-keyboard-response",469,1150803,"0.0-7.63-4.63","0e6le4hsg2a6","2022-09-19 14:52:42.394","5fb7dd473afbb1033b491811",2,42,68,0,2,"45","Male",NA,"","",NA,NA,"true","choice",63,"A","C","black","black","stars","moons","A","C","A","black","stars",1133.8000000007,1,1,NA,"right",904.7999999989,10,1,1,NA,NA,"","AC",0,1,0,0,"11","10"
"993",474,0,NA,"html-keyboard-response",474,1156743,"0.0-7.64-4.64","0e6le4hsg2a6","2022-09-19 14:52:42.394","5fb7dd473afbb1033b491811",2,42,68,0,2,"45","Male",NA,"","",NA,NA,"true","choice",64,"A","D","red","black","moons","stars","D","A","A","black","stars",994.7000000011,1,1,NA,"right",874.5,1,0,0,NA,NA,"","AD",0,1,0,0,"10","10"
"998",479,0,NA,"html-keyboard-response",479,1162481,"0.0-7.65-4.65","0e6le4hsg2a6","2022-09-19 14:52:42.394","5fb7dd473afbb1033b491811",2,42,68,0,2,"45","Male",NA,"","",NA,NA,"true","choice",65,"A","C","black","black","moons","stars","C","A","A","black","stars",1061.5999999996,1,1,NA,"right",596.5999999996,1,0,0,NA,NA,"","AC",0,1,0,0,"11","10"
"1003",484,0,NA,"html-keyboard-response",484,1168572,"0.0-7.66-4.66","0e6le4hsg2a6","2022-09-19 14:52:42.394","5fb7dd473afbb1033b491811",2,42,68,0,2,"45","Male",NA,"","",NA,NA,"true","choice",66,"C","D","red","black","moons","moons","D","C","D","red","moons",1188.7999999989,0,0,1,"left",806.5999999996,6,1,0,NA,NA,"","CD",0,1,0,0,"10","00"
"1008",489,0,NA,"html-keyboard-response",489,1173962,"0.0-7.67-4.67","0e6le4hsg2a6","2022-09-19 14:52:42.394","5fb7dd473afbb1033b491811",2,42,68,0,2,"45","Male",NA,"","",NA,NA,"true","choice",67,"A","D","red","black","moons","stars","D","A","A","black","stars",840.3000000007,1,1,NA,"right",483.2000000011,1,0,0,NA,NA,"","AD",0,1,0,0,"10","10"
"1195",156,0,NA,"html-keyboard-response",156,811254,"0.0-7.0-4.0","0p80ze3jnx3h","2022-09-19 15:32:34.064","59102d52f601090001e80b82",2,59,0,38,0,"24","Male",NA,"","",NA,NA,"true","choice",0,"A","C","black","black","moons","stars","C","A","A","black","stars",2124.099999994,1,1,NA,"right",1269.5,4,0,0,NA,NA,"","AC",0,0,0,0,"11","10"
"1205",166,0,NA,"html-keyboard-response",166,823387,"0.0-7.2-4.2","0p80ze3jnx3h","2022-09-19 15:32:34.064","59102d52f601090001e80b82",2,59,0,38,0,"24","Male",NA,"","",NA,NA,"true","choice",2,"A","D","red","black","moons","stars","D","A","A","black","stars",1246,1,1,NA,"left",916.400000006,8,1,1,NA,NA,"","AD",0,0,0,0,"10","10"
"1210",171,0,NA,"html-keyboard-response",171,830215,"0.0-7.3-4.3","0p80ze3jnx3h","2022-09-19 15:32:34.064","59102d52f601090001e80b82",2,59,0,38,0,"24","Male",NA,"","",NA,NA,"true","choice",3,"B","C","red","black","stars","moons","B","C","B","red","stars",1806.599999994,0,1,1,"left",978.1999999881,6,1,1,NA,NA,"","BC",0,0,0,0,"10","01"
"1215",176,0,NA,"html-keyboard-response",176,836508,"0.0-7.4-4.4","0p80ze3jnx3h","2022-09-19 15:32:34.064","59102d52f601090001e80b82",2,59,0,38,0,"24","Male",NA,"","",NA,NA,"true","choice",4,"A","C","black","black","moons","stars","C","A","A","black","stars",1241,1,1,NA,"left",1016.599999994,6,1,1,NA,NA,"","AC",0,0,0,0,"11","10"
"1220",181,0,NA,"html-keyboard-response",181,844534,"0.0-7.5-4.5","0p80ze3jnx3h","2022-09-19 15:32:34.064","59102d52f601090001e80b82",2,59,0,38,0,"24","Male",NA,"","",NA,NA,"true","choice",5,"B","D","red","red","stars","moons","B","D","D","red","moons",2998.599999994,0,0,1,"left",965.8000000119,10,1,1,NA,NA,"","BD",0,0,0,0,"00","01"
"1225",186,0,NA,"html-keyboard-response",186,851309,"0.0-7.6-4.6","0p80ze3jnx3h","2022-09-19 15:32:34.064","59102d52f601090001e80b82",2,59,0,38,0,"24","Male",NA,"","",NA,NA,"true","choice",6,"A","C","black","black","stars","moons","A","C","A","black","stars",1530.599999994,1,1,NA,"right",1204.599999994,7,1,1,NA,NA,"","AC",0,0,0,0,"11","10"
"1230",191,0,NA,"html-keyboard-response",191,857592,"0.0-7.7-4.7","0p80ze3jnx3h","2022-09-19 15:32:34.064","59102d52f601090001e80b82",2,59,0,38,0,"24","Male",NA,"","",NA,NA,"true","choice",7,"A","D","black","red","stars","moons","A","D","A","black","stars",1338.599999994,1,1,NA,"left",889.8000000119,3,0,0,NA,NA,"","AD",0,0,0,0,"10","10"
"1240",201,0,NA,"html-keyboard-response",201,869492,"0.0-7.9-4.9","0p80ze3jnx3h","2022-09-19 15:32:34.064","59102d52f601090001e80b82",2,59,0,38,0,"24","Male",NA,"","",NA,NA,"true","choice",9,"A","D","red","black","moons","stars","D","A","A","black","stars",912.3999999762,1,1,NA,"right",863.6999999881,4,0,0,NA,NA,"","AD",0,0,0,0,"10","10"
"1245",206,0,NA,"html-keyboard-response",206,875585,"0.0-7.10-4.10","0p80ze3jnx3h","2022-09-19 15:32:34.064","59102d52f601090001e80b82",2,59,0,38,0,"24","Male",NA,"","",NA,NA,"true","choice",10,"C","D","black","red","moons","moons","C","D","C","black","moons",1307.5,1,0,NA,"right",746.400000006,7,1,1,NA,NA,"","CD",0,0,0,0,"10","00"
"1250",211,0,NA,"html-keyboard-response",211,881530,"0.0-7.11-4.11","0p80ze3jnx3h","2022-09-19 15:32:34.064","59102d52f601090001e80b82",2,59,0,38,0,"24","Male",NA,"","",NA,NA,"true","choice",11,"A","B","red","black","stars","stars","B","A","A","black","stars",1037.5,1,1,NA,"right",865.900000006,1,0,0,NA,NA,"","AB",0,0,0,0,"10","11"
"1265",226,0,NA,"html-keyboard-response",226,899449,"0.0-7.14-4.14","0p80ze3jnx3h","2022-09-19 15:32:34.064","59102d52f601090001e80b82",2,59,0,38,0,"24","Male",NA,"","",NA,NA,"true","choice",14,"A","D","black","red","stars","moons","A","D","A","black","stars",1270.099999994,1,1,NA,"left",785.8000000119,4,0,0,NA,NA,"","AD",0,0,0,0,"10","10"
"1270",231,0,NA,"html-keyboard-response",231,906595,"0.0-7.15-4.15","0p80ze3jnx3h","2022-09-19 15:32:34.064","59102d52f601090001e80b82",2,59,0,38,0,"24","Male",NA,"","",NA,NA,"true","choice",15,"A","C","black","black","moons","stars","C","A","A","black","stars",2211.7999999821,1,1,NA,"left",877.7000000179,8,1,1,NA,NA,"","AC",0,0,0,0,"11","10"
"1275",236,0,NA,"html-keyboard-response",236,912790,"0.0-7.16-4.16","0p80ze3jnx3h","2022-09-19 15:32:34.064","59102d52f601090001e80b82",2,59,0,38,0,"24","Male",NA,"","",NA,NA,"true","choice",16,"C","D","black","red","moons","moons","C","D","C","black","moons",1379.5,1,0,NA,"right",758,8,1,0,NA,NA,"","CD",0,0,0,0,"10","00"
"1280",241,0,NA,"html-keyboard-response",241,918769,"0.0-7.17-4.17","0p80ze3jnx3h","2022-09-19 15:32:34.064","59102d52f601090001e80b82",2,59,0,38,0,"24","Male",NA,"","",NA,NA,"true","choice",17,"A","D","black","red","stars","moons","A","D","A","black","stars",1003.400000006,1,1,NA,"left",940.8000000119,9,1,1,NA,NA,"","AD",0,0,0,0,"10","10"
"1285",246,0,NA,"html-keyboard-response",246,925474,"0.0-7.18-4.18","0p80ze3jnx3h","2022-09-19 15:32:34.064","59102d52f601090001e80b82",2,59,0,38,0,"24","Male",NA,"","",NA,NA,"true","choice",18,"B","C","red","black","stars","moons","B","C","B","red","stars",1732.7000000179,0,1,0,"right",921.5,1,0,0,NA,NA,"","BC",0,0,0,0,"10","01"
"1290",251,0,NA,"html-keyboard-response",251,931434,"0.0-7.19-4.19","0p80ze3jnx3h","2022-09-19 15:32:34.064","59102d52f601090001e80b82",2,59,0,38,0,"24","Male",NA,"","",NA,NA,"true","choice",19,"A","C","black","black","moons","stars","C","A","A","black","stars",1046.5,1,1,NA,"right",854.900000006,2,0,0,NA,NA,"","AC",0,0,0,0,"11","10"
"1295",256,0,NA,"html-keyboard-response",256,938214,"0.0-7.20-4.20","0p80ze3jnx3h","2022-09-19 15:32:34.064","59102d52f601090001e80b82",2,59,0,38,0,"24","Male",NA,"","",NA,NA,"true","choice",20,"A","B","black","red","stars","stars","A","B","A","black","stars",1570.099999994,1,1,NA,"right",1166.1000000238,8,1,1,NA,NA,"","AB",0,0,0,0,"10","11"
"1300",261,0,NA,"html-keyboard-response",261,944945,"0.0-7.21-4.21","0p80ze3jnx3h","2022-09-19 15:32:34.064","59102d52f601090001e80b82",2,59,0,38,0,"24","Male",NA,"","",NA,NA,"true","choice",21,"B","D","red","red","moons","stars","D","B","B","red","stars",1647.6999999881,0,1,0,"right",1021.099999994,7,1,1,NA,NA,"","BD",0,0,0,0,"00","01"
"1305",266,0,NA,"html-keyboard-response",266,951359,"0.0-7.22-4.22","0p80ze3jnx3h","2022-09-19 15:32:34.064","59102d52f601090001e80b82",2,59,0,38,0,"24","Male",NA,"","",NA,NA,"true","choice",22,"A","D","red","black","moons","stars","D","A","A","black","stars",1287.5999999642,1,1,NA,"right",1085.3999999762,6,1,1,NA,NA,"","AD",0,0,0,0,"10","10"
"1310",271,0,NA,"html-keyboard-response",271,956832,"0.0-7.23-4.23","0p80ze3jnx3h","2022-09-19 15:32:34.064","59102d52f601090001e80b82",2,59,0,38,0,"24","Male",NA,"","",NA,NA,"true","choice",23,"A","B","black","red","stars","stars","A","B","A","black","stars",891.4000000358,1,1,NA,"left",532.1999999881,10,1,1,NA,NA,"","AB",0,0,0,0,"10","11"
"1315",276,0,NA,"html-keyboard-response",276,962857,"0.0-7.24-4.24","0p80ze3jnx3h","2022-09-19 15:32:34.064","59102d52f601090001e80b82",2,59,0,38,0,"24","Male",NA,"","",NA,NA,"true","choice",24,"B","C","red","black","stars","moons","B","C","C","black","moons",1180.0999999642,1,0,NA,"left",796.8000000119,6,1,1,NA,NA,"","BC",0,0,0,0,"10","01"
"1320",281,0,NA,"html-keyboard-response",281,969174,"0.0-7.25-4.25","0p80ze3jnx3h","2022-09-19 15:32:34.064","59102d52f601090001e80b82",2,59,0,38,0,"24","Male",NA,"","",NA,NA,"true","choice",25,"B","D","red","red","stars","moons","B","D","B","red","stars",1398.9000000358,0,1,1,"left",859.4000000358,2,0,0,NA,NA,"","BD",0,0,0,0,"00","01"
"1325",286,0,NA,"html-keyboard-response",286,974930,"0.0-7.26-4.26","0p80ze3jnx3h","2022-09-19 15:32:34.064","59102d52f601090001e80b82",2,59,0,38,0,"24","Male",NA,"","",NA,NA,"true","choice",26,"A","B","black","red","stars","stars","A","B","A","black","stars",877.1999999881,1,1,NA,"right",828.0999999642,3,0,0,NA,NA,"","AB",0,0,0,0,"10","11"
"1330",291,0,NA,"html-keyboard-response",291,980592,"0.0-7.27-4.27","0p80ze3jnx3h","2022-09-19 15:32:34.064","59102d52f601090001e80b82",2,59,0,38,0,"24","Male",NA,"","",NA,NA,"true","choice",27,"A","D","black","red","stars","moons","A","D","A","black","stars",880.0999999642,1,1,NA,"right",734.6000000238,1,0,0,NA,NA,"","AD",0,0,0,0,"10","10"
"1335",296,0,NA,"html-keyboard-response",296,987148,"0.0-7.28-4.28","0p80ze3jnx3h","2022-09-19 15:32:34.064","59102d52f601090001e80b82",2,59,0,38,0,"24","Male",NA,"","",NA,NA,"true","choice",28,"C","D","red","black","moons","moons","D","C","C","black","moons",1589.0999999642,1,0,NA,"right",919.7999999523,2,0,1,NA,NA,"","CD",0,0,0,0,"10","00"
"1340",301,0,NA,"html-keyboard-response",301,994204,"0.0-7.29-4.29","0p80ze3jnx3h","2022-09-19 15:32:34.064","59102d52f601090001e80b82",2,59,0,38,0,"24","Male",NA,"","",NA,NA,"true","choice",29,"A","C","black","black","moons","stars","C","A","A","black","stars",1727.8000000119,1,1,NA,"right",1286.1999999881,3,0,0,NA,NA,"","AC",0,0,0,0,"11","10"
"1345",306,0,NA,"html-keyboard-response",306,1000371,"0.0-7.30-4.30","0p80ze3jnx3h","2022-09-19 15:32:34.064","59102d52f601090001e80b82",2,59,0,38,0,"24","Male",NA,"","",NA,NA,"true","choice",30,"B","D","red","red","stars","moons","B","D","B","red","stars",1233,0,1,1,"left",886.8999999762,6,1,1,NA,NA,"","BD",0,0,0,0,"00","01"
"1350",311,0,NA,"html-keyboard-response",311,1006104,"0.0-7.31-4.31","0p80ze3jnx3h","2022-09-19 15:32:34.064","59102d52f601090001e80b82",2,59,0,38,0,"24","Male",NA,"","",NA,NA,"true","choice",31,"B","D","red","red","stars","moons","B","D","B","red","stars",862.8000000119,0,1,0,"right",826.5,10,1,1,NA,NA,"","BD",0,0,0,0,"00","01"
"1355",316,0,NA,"html-keyboard-response",316,1012014,"0.0-7.32-4.32","0p80ze3jnx3h","2022-09-19 15:32:34.064","59102d52f601090001e80b82",2,59,0,38,0,"24","Male",NA,"","",NA,NA,"true","choice",32,"A","B","red","black","stars","stars","B","A","A","black","stars",1023.1999999881,1,1,NA,"left",831.1000000238,10,1,1,NA,NA,"","AB",0,0,0,0,"10","11"
"1360",321,0,NA,"html-keyboard-response",321,1017903,"0.0-7.33-4.33","0p80ze3jnx3h","2022-09-19 15:32:34.064","59102d52f601090001e80b82",2,59,0,38,0,"24","Male",NA,"","",NA,NA,"true","choice",33,"C","D","red","black","moons","moons","D","C","C","black","moons",1111.3000000119,1,0,NA,"right",721.7999999523,9,1,0,NA,NA,"","CD",0,0,0,0,"10","00"
"1365",326,0,NA,"html-keyboard-response",326,1023994,"0.0-7.34-4.34","0p80ze3jnx3h","2022-09-19 15:32:34.064","59102d52f601090001e80b82",2,59,0,38,0,"24","Male",NA,"","",NA,NA,"true","choice",34,"A","B","red","black","stars","stars","B","A","A","black","stars",1203.0999999642,1,1,NA,"right",832,8,1,1,NA,NA,"","AB",0,0,0,0,"10","11"
"1370",331,0,NA,"html-keyboard-response",331,1029921,"0.0-7.35-4.35","0p80ze3jnx3h","2022-09-19 15:32:34.064","59102d52f601090001e80b82",2,59,0,38,0,"24","Male",NA,"","",NA,NA,"true","choice",35,"B","D","red","red","stars","moons","B","D","B","red","stars",949.3000000119,0,1,1,"left",944.8000000119,2,0,0,NA,NA,"","BD",0,0,0,0,"00","01"
"1375",336,0,NA,"html-keyboard-response",336,1036209,"0.0-7.36-4.36","0p80ze3jnx3h","2022-09-19 15:32:34.064","59102d52f601090001e80b82",2,59,0,38,0,"24","Male",NA,"","",NA,NA,"true","choice",36,"B","C","red","black","stars","moons","B","C","C","black","moons",1326.5999999642,1,0,NA,"right",917.1999999881,2,0,0,NA,NA,"","BC",0,0,0,0,"10","01"
"1380",341,0,NA,"html-keyboard-response",341,1042612,"0.0-7.37-4.37","0p80ze3jnx3h","2022-09-19 15:32:34.064","59102d52f601090001e80b82",2,59,0,38,0,"24","Male",NA,"","",NA,NA,"true","choice",37,"B","D","red","red","moons","stars","D","B","B","red","stars",1457.5,0,1,0,"right",898.8999999762,1,0,0,NA,NA,"","BD",0,0,0,0,"00","01"
"1385",346,0,NA,"html-keyboard-response",346,1048344,"0.0-7.38-4.38","0p80ze3jnx3h","2022-09-19 15:32:34.064","59102d52f601090001e80b82",2,59,0,38,0,"24","Male",NA,"","",NA,NA,"true","choice",38,"A","C","black","black","stars","moons","A","C","A","black","stars",968.6999999881,1,1,NA,"right",724.3000000119,4,0,0,NA,NA,"","AC",0,0,0,0,"11","10"
"1390",351,0,NA,"html-keyboard-response",351,1055295,"0.0-7.39-4.39","0p80ze3jnx3h","2022-09-19 15:32:34.064","59102d52f601090001e80b82",2,59,0,38,0,"24","Male",NA,"","",NA,NA,"true","choice",39,"B","C","red","black","stars","moons","B","C","B","red","stars",1937.5,0,1,0,"right",964.5,2,0,0,NA,NA,"","BC",0,0,0,0,"10","01"
"1395",356,0,NA,"html-keyboard-response",356,1061110,"0.0-7.40-4.40","0p80ze3jnx3h","2022-09-19 15:32:34.064","59102d52f601090001e80b82",2,59,0,38,0,"24","Male",NA,"","",NA,NA,"true","choice",40,"A","B","black","red","stars","stars","A","B","A","black","stars",1154.0999999642,1,1,NA,"right",621.1000000238,3,0,0,NA,NA,"","AB",0,0,0,0,"10","11"
"1400",361,0,NA,"html-keyboard-response",361,1067299,"0.0-7.41-4.41","0p80ze3jnx3h","2022-09-19 15:32:34.064","59102d52f601090001e80b82",2,59,0,38,0,"24","Male",NA,"","",NA,NA,"true","choice",41,"C","D","black","red","moons","moons","C","D","C","black","moons",1017.0999999642,1,0,NA,"right",1134.8000000119,6,1,0,NA,NA,"","CD",0,0,0,0,"10","00"
"1405",366,0,NA,"html-keyboard-response",366,1073412,"0.0-7.42-4.42","0p80ze3jnx3h","2022-09-19 15:32:34.064","59102d52f601090001e80b82",2,59,0,38,0,"24","Male",NA,"","",NA,NA,"true","choice",42,"A","B","red","black","stars","stars","B","A","A","black","stars",1418.7000000477,1,1,NA,"right",638.3000000119,10,1,1,NA,NA,"","AB",0,0,0,0,"10","11"
"1410",371,0,NA,"html-keyboard-response",371,1079003,"0.0-7.43-4.43","0p80ze3jnx3h","2022-09-19 15:32:34.064","59102d52f601090001e80b82",2,59,0,38,0,"24","Male",NA,"","",NA,NA,"true","choice",43,"A","C","black","black","stars","moons","A","C","A","black","stars",902.3999999762,1,1,NA,"left",635.8999999762,2,0,0,NA,NA,"","AC",0,0,0,0,"11","10"
"1425",386,0,NA,"html-keyboard-response",386,1096896,"0.0-7.46-4.46","0p80ze3jnx3h","2022-09-19 15:32:34.064","59102d52f601090001e80b82",2,59,0,38,0,"24","Male",NA,"","",NA,NA,"true","choice",46,"A","B","red","black","stars","stars","B","A","A","black","stars",885.1999999881,1,1,NA,"right",852.3000000119,6,1,1,NA,NA,"","AB",0,0,0,0,"10","11"
"1430",391,0,NA,"html-keyboard-response",391,1102931,"0.0-7.47-4.47","0p80ze3jnx3h","2022-09-19 15:32:34.064","59102d52f601090001e80b82",2,59,0,38,0,"24","Male",NA,"","",NA,NA,"true","choice",47,"C","D","black","red","moons","moons","C","D","C","black","moons",1368.2999999523,1,0,NA,"left",628.8999999762,8,1,0,NA,NA,"","CD",0,0,0,0,"10","00"
"1435",396,0,NA,"html-keyboard-response",396,1108226,"0.0-7.48-4.48","0p80ze3jnx3h","2022-09-19 15:32:34.064","59102d52f601090001e80b82",2,59,0,38,0,"24","Male",NA,"","",NA,NA,"true","choice",48,"C","D","red","black","moons","moons","D","C","C","black","moons",808.4000000358,1,0,NA,"right",448.3000000119,6,1,0,NA,NA,"","CD",0,0,0,0,"10","00"
"1440",401,0,NA,"html-keyboard-response",401,1114363,"0.0-7.49-4.49","0p80ze3jnx3h","2022-09-19 15:32:34.064","59102d52f601090001e80b82",2,59,0,38,0,"24","Male",NA,"","",NA,NA,"true","choice",49,"A","C","black","black","moons","stars","C","A","A","black","stars",1341.5999999642,1,1,NA,"right",751.0999999642,1,0,0,NA,NA,"","AC",0,0,0,0,"11","10"
"1445",406,0,NA,"html-keyboard-response",406,1119962,"0.0-7.50-4.50","0p80ze3jnx3h","2022-09-19 15:32:34.064","59102d52f601090001e80b82",2,59,0,38,0,"24","Male",NA,"","",NA,NA,"true","choice",50,"A","D","red","black","moons","stars","D","A","A","black","stars",1015,1,1,NA,"right",546.8000000119,3,0,0,NA,NA,"","AD",0,0,0,0,"10","10"
"1450",411,0,NA,"html-keyboard-response",411,1125301,"0.0-7.51-4.51","0p80ze3jnx3h","2022-09-19 15:32:34.064","59102d52f601090001e80b82",2,59,0,38,0,"24","Male",NA,"","",NA,NA,"true","choice",51,"A","D","black","red","stars","moons","A","D","A","black","stars",775.8000000119,1,1,NA,"right",519.5,1,0,0,NA,NA,"","AD",0,0,0,0,"10","10"
"1460",421,0,NA,"html-keyboard-response",421,1137204,"0.0-7.53-4.53","0p80ze3jnx3h","2022-09-19 15:32:34.064","59102d52f601090001e80b82",2,59,0,38,0,"24","Male",NA,"","",NA,NA,"true","choice",53,"B","D","red","red","stars","moons","B","D","B","red","stars",1076.7999999523,0,1,0,"right",914.7000000477,3,0,0,NA,NA,"","BD",0,0,0,0,"00","01"
"1465",426,0,NA,"html-keyboard-response",426,1143399,"0.0-7.54-4.54","0p80ze3jnx3h","2022-09-19 15:32:34.064","59102d52f601090001e80b82",2,59,0,38,0,"24","Male",NA,"","",NA,NA,"true","choice",54,"B","C","red","black","stars","moons","B","C","B","red","stars",1395.3000000119,0,1,0,"right",762,8,1,1,NA,NA,"","BC",0,0,0,0,"10","01"
"1470",431,0,NA,"html-keyboard-response",431,1149067,"0.0-7.55-4.55","0p80ze3jnx3h","2022-09-19 15:32:34.064","59102d52f601090001e80b82",2,59,0,38,0,"24","Male",NA,"","",NA,NA,"true","choice",55,"C","D","red","black","moons","moons","D","C","C","black","moons",1189.1000000238,1,0,NA,"left",454.5999999642,3,0,1,NA,NA,"","CD",0,0,0,0,"10","00"
"1475",436,0,NA,"html-keyboard-response",436,1155208,"0.0-7.56-4.56","0p80ze3jnx3h","2022-09-19 15:32:34.064","59102d52f601090001e80b82",2,59,0,38,0,"24","Male",NA,"","",NA,NA,"true","choice",56,"A","C","black","black","stars","moons","A","C","A","black","stars",1069.6999999881,1,1,NA,"left",1020.7000000477,3,0,0,NA,NA,"","AC",0,0,0,0,"11","10"
"1480",441,0,NA,"html-keyboard-response",441,1160746,"0.0-7.57-4.57","0p80ze3jnx3h","2022-09-19 15:32:34.064","59102d52f601090001e80b82",2,59,0,38,0,"24","Male",NA,"","",NA,NA,"true","choice",57,"A","D","red","black","moons","stars","D","A","A","black","stars",858.5999999642,1,1,NA,"left",628.1000000238,3,0,0,NA,NA,"","AD",0,0,0,0,"10","10"
"1490",451,0,NA,"html-keyboard-response",451,1172547,"0.0-7.59-4.59","0p80ze3jnx3h","2022-09-19 15:32:34.064","59102d52f601090001e80b82",2,59,0,38,0,"24","Male",NA,"","",NA,NA,"true","choice",59,"C","D","red","black","moons","moons","D","C","C","black","moons",976,1,0,NA,"right",661,6,1,1,NA,NA,"","CD",0,0,0,0,"10","00"
"1495",456,0,NA,"html-keyboard-response",456,1178814,"0.0-7.60-4.60","0p80ze3jnx3h","2022-09-19 15:32:34.064","59102d52f601090001e80b82",2,59,0,38,0,"24","Male",NA,"","",NA,NA,"true","choice",60,"A","B","red","black","stars","stars","B","A","A","black","stars",926.3000000119,1,1,NA,"right",1289.7000000477,6,1,1,NA,NA,"","AB",0,0,0,0,"10","11"
"1500",461,0,NA,"html-keyboard-response",461,1185277,"0.0-7.61-4.61","0p80ze3jnx3h","2022-09-19 15:32:34.064","59102d52f601090001e80b82",2,59,0,38,0,"24","Male",NA,"","",NA,NA,"true","choice",61,"B","C","red","black","stars","moons","B","C","B","red","stars",1405.5,0,1,1,"left",1011.1999999881,3,0,0,NA,NA,"","BC",0,0,0,0,"10","01"
"1505",466,0,NA,"html-keyboard-response",466,1192084,"0.0-7.62-4.62","0p80ze3jnx3h","2022-09-19 15:32:34.064","59102d52f601090001e80b82",2,59,0,38,0,"24","Male",NA,"","",NA,NA,"true","choice",62,"B","C","black","red","moons","stars","C","B","C","black","moons",1488.1000000238,1,0,NA,"right",1279.6000000238,6,1,0,NA,NA,"","BC",0,0,0,0,"10","01"
"1510",471,0,NA,"html-keyboard-response",471,1197880,"0.0-7.63-4.63","0p80ze3jnx3h","2022-09-19 15:32:34.064","59102d52f601090001e80b82",2,59,0,38,0,"24","Male",NA,"","",NA,NA,"true","choice",63,"B","C","red","black","stars","moons","B","C","B","red","stars",983.6999999881,0,1,0,"right",756.3000000119,2,0,0,NA,NA,"","BC",0,0,0,0,"10","01"
"1515",476,0,NA,"html-keyboard-response",476,1203810,"0.0-7.64-4.64","0p80ze3jnx3h","2022-09-19 15:32:34.064","59102d52f601090001e80b82",2,59,0,38,0,"24","Male",NA,"","",NA,NA,"true","choice",64,"B","D","red","red","stars","moons","B","D","B","red","stars",1070,0,1,0,"right",800.8000000119,6,1,1,NA,NA,"","BD",0,0,0,0,"00","01"
"1520",481,0,NA,"html-keyboard-response",481,1209908,"0.0-7.65-4.65","0p80ze3jnx3h","2022-09-19 15:32:34.064","59102d52f601090001e80b82",2,59,0,38,0,"24","Male",NA,"","",NA,NA,"true","choice",65,"B","C","black","red","moons","stars","C","B","C","black","moons",1074.9000000358,1,0,NA,"left",986.3000000119,3,0,0,NA,NA,"","BC",0,0,0,0,"10","01"
"1525",486,0,NA,"html-keyboard-response",486,1216614,"0.0-7.66-4.66","0p80ze3jnx3h","2022-09-19 15:32:34.064","59102d52f601090001e80b82",2,59,0,38,0,"24","Male",NA,"","",NA,NA,"true","choice",66,"B","D","red","red","moons","stars","D","B","B","red","stars",1896.1999999881,0,1,0,"right",778.1999999881,8,1,1,NA,NA,"","BD",0,0,0,0,"00","01"
"1530",491,0,NA,"html-keyboard-response",491,1222597,"0.0-7.67-4.67","0p80ze3jnx3h","2022-09-19 15:32:34.064","59102d52f601090001e80b82",2,59,0,38,0,"24","Male",NA,"","",NA,NA,"true","choice",67,"C","D","red","black","moons","moons","D","C","C","black","moons",1133.1999999881,1,0,NA,"left",803.8000000119,1,0,1,NA,NA,"","CD",0,0,0,0,"10","00"
"1719",158,0,NA,"html-keyboard-response",158,381194,"0.0-7.0-4.0","0res8o2mx8m","2022-09-19 16:45:09.902","5f1338a87447d0308e865fd0",3,64,48,47,40,"20","Female",NA,"","",NA,NA,"true","choice",0,"A","B","red","black","moons","moons","B","A","A","black","moons",1971.6000000238,1,1,NA,"left",1621.7000000179,4,0,0,NA,NA,"","AB",1,1,1,1,"10","11"
"1729",168,0,NA,"html-keyboard-response",168,396542,"0.0-7.2-4.2","0res8o2mx8m","2022-09-19 16:45:09.902","5f1338a87447d0308e865fd0",3,64,48,47,40,"20","Female",NA,"","",NA,NA,"true","choice",2,"A","D","red","black","stars","moons","D","A","A","black","moons",1953.599999994,1,1,NA,"right",976.099999994,9,1,1,NA,NA,"","AD",1,1,1,1,"10","10"
"1734",173,0,NA,"html-keyboard-response",173,405205,"0.0-7.3-4.3","0res8o2mx8m","2022-09-19 16:45:09.902","5f1338a87447d0308e865fd0",3,64,48,47,40,"20","Female",NA,"","",NA,NA,"true","choice",3,"B","C","red","black","moons","stars","B","C","C","black","stars",3149.6999999881,1,0,NA,"left",1468.3000000119,2,0,1,NA,NA,"","BC",1,1,1,1,"10","01"
"1739",178,0,NA,"html-keyboard-response",178,412922,"0.0-7.4-4.4","0res8o2mx8m","2022-09-19 16:45:09.902","5f1338a87447d0308e865fd0",3,64,48,47,40,"20","Female",NA,"","",NA,NA,"true","choice",4,"B","C","red","black","moons","stars","B","C","C","black","stars",2749.599999994,1,0,NA,"left",915.2999999821,8,1,0,NA,NA,"","BC",1,1,1,1,"10","01"
"1744",183,0,NA,"html-keyboard-response",183,420793,"0.0-7.5-4.5","0res8o2mx8m","2022-09-19 16:45:09.902","5f1338a87447d0308e865fd0",3,64,48,47,40,"20","Female",NA,"","",NA,NA,"true","choice",5,"C","D","black","red","stars","stars","C","D","D","red","stars",2723.099999994,0,0,1,"left",1086.900000006,2,0,1,NA,NA,"","CD",1,1,1,1,"10","00"
"1749",188,0,NA,"html-keyboard-response",188,427408,"0.0-7.6-4.6","0res8o2mx8m","2022-09-19 16:45:09.902","5f1338a87447d0308e865fd0",3,64,48,47,40,"20","Female",NA,"","",NA,NA,"true","choice",6,"B","D","red","red","stars","moons","D","B","B","red","moons",1661.1999999881,0,1,1,"left",902.400000006,2,0,0,NA,NA,"","BD",1,1,1,1,"00","01"
"1754",193,0,NA,"html-keyboard-response",193,435165,"0.0-7.7-4.7","0res8o2mx8m","2022-09-19 16:45:09.902","5f1338a87447d0308e865fd0",3,64,48,47,40,"20","Female",NA,"","",NA,NA,"true","choice",7,"A","C","black","black","moons","stars","A","C","A","black","moons",2356.1999999881,1,1,NA,"left",1356.1999999881,4,0,0,NA,NA,"","AC",1,1,1,1,"11","10"
"1769",208,0,NA,"html-keyboard-response",208,456115,"0.0-7.10-4.10","0res8o2mx8m","2022-09-19 16:45:09.902","5f1338a87447d0308e865fd0",3,64,48,47,40,"20","Female",NA,"","",NA,NA,"true","choice",10,"A","C","black","black","moons","stars","A","C","A","black","moons",2353.6999999881,1,1,NA,"right",1299.1999999881,7,1,1,NA,NA,"","AC",1,1,1,1,"11","10"
"1774",213,0,NA,"html-keyboard-response",213,462884,"0.0-7.11-4.11","0res8o2mx8m","2022-09-19 16:45:09.902","5f1338a87447d0308e865fd0",3,64,48,47,40,"20","Female",NA,"","",NA,NA,"true","choice",11,"B","D","red","red","stars","moons","D","B","B","red","moons",1872.099999994,0,1,0,"right",850.099999994,4,0,0,NA,NA,"","BD",1,1,1,1,"00","01"
"1779",218,0,NA,"html-keyboard-response",218,470417,"0.0-7.12-4.12","0res8o2mx8m","2022-09-19 16:45:09.902","5f1338a87447d0308e865fd0",3,64,48,47,40,"20","Female",NA,"","",NA,NA,"true","choice",12,"A","D","black","red","moons","stars","A","D","A","black","moons",2074.400000006,1,1,NA,"right",1398.099999994,1,0,0,NA,NA,"","AD",1,1,1,1,"10","10"
"1784",223,0,NA,"html-keyboard-response",223,477628,"0.0-7.13-4.13","0res8o2mx8m","2022-09-19 16:45:09.902","5f1338a87447d0308e865fd0",3,64,48,47,40,"20","Female",NA,"","",NA,NA,"true","choice",13,"C","D","black","red","stars","stars","C","D","C","black","stars",2392.900000006,1,0,NA,"left",757.7999999821,10,1,0,NA,NA,"","CD",1,1,1,1,"10","00"
"1789",228,0,NA,"html-keyboard-response",228,484830,"0.0-7.14-4.14","0res8o2mx8m","2022-09-19 16:45:09.902","5f1338a87447d0308e865fd0",3,64,48,47,40,"20","Female",NA,"","",NA,NA,"true","choice",14,"C","D","red","black","stars","stars","D","C","C","black","stars",2425,1,0,NA,"right",720.3000000119,10,1,0,NA,NA,"","CD",1,1,1,1,"10","00"
"1794",233,0,NA,"html-keyboard-response",233,490987,"0.0-7.15-4.15","0res8o2mx8m","2022-09-19 16:45:09.902","5f1338a87447d0308e865fd0",3,64,48,47,40,"20","Female",NA,"","",NA,NA,"true","choice",15,"B","D","red","red","moons","stars","B","D","D","red","stars",1379.5,0,0,0,"right",725.1999999881,2,0,0,NA,NA,"","BD",1,1,1,1,"00","01"
"1799",238,0,NA,"html-keyboard-response",238,497711,"0.0-7.16-4.16","0res8o2mx8m","2022-09-19 16:45:09.902","5f1338a87447d0308e865fd0",3,64,48,47,40,"20","Female",NA,"","",NA,NA,"true","choice",16,"B","D","red","red","moons","stars","B","D","B","red","moons",1933.7999999821,0,1,0,"right",741.6000000238,6,1,1,NA,NA,"","BD",1,1,1,1,"00","01"
"1809",248,0,NA,"html-keyboard-response",248,510582,"0.0-7.18-4.18","0res8o2mx8m","2022-09-19 16:45:09.902","5f1338a87447d0308e865fd0",3,64,48,47,40,"20","Female",NA,"","",NA,NA,"true","choice",18,"A","C","black","black","stars","moons","C","A","A","black","moons",1832.1999999881,1,1,NA,"left",736.099999994,7,1,1,NA,NA,"","AC",1,1,1,1,"11","10"
"1814",253,0,NA,"html-keyboard-response",253,517252,"0.0-7.19-4.19","0res8o2mx8m","2022-09-19 16:45:09.902","5f1338a87447d0308e865fd0",3,64,48,47,40,"20","Female",NA,"","",NA,NA,"true","choice",19,"B","D","red","red","moons","stars","B","D","B","red","moons",1984.7999999821,0,1,0,"right",634.7000000179,6,1,1,NA,NA,"","BD",1,1,1,1,"00","01"
"1819",258,0,NA,"html-keyboard-response",258,524535,"0.0-7.20-4.20","0res8o2mx8m","2022-09-19 16:45:09.902","5f1338a87447d0308e865fd0",3,64,48,47,40,"20","Female",NA,"","",NA,NA,"true","choice",20,"C","D","black","red","stars","stars","C","D","C","black","stars",2544.400000006,1,0,NA,"left",686.400000006,1,0,1,NA,NA,"","CD",1,1,1,1,"10","00"
"1824",263,0,NA,"html-keyboard-response",263,531264,"0.0-7.21-4.21","0res8o2mx8m","2022-09-19 16:45:09.902","5f1338a87447d0308e865fd0",3,64,48,47,40,"20","Female",NA,"","",NA,NA,"true","choice",21,"A","B","red","black","moons","moons","B","A","A","black","moons",1849.6000000238,1,1,NA,"left",833.5,3,0,0,NA,NA,"","AB",1,1,1,1,"10","11"
"1829",268,0,NA,"html-keyboard-response",268,538546,"0.0-7.22-4.22","0res8o2mx8m","2022-09-19 16:45:09.902","5f1338a87447d0308e865fd0",3,64,48,47,40,"20","Female",NA,"","",NA,NA,"true","choice",22,"B","C","black","red","stars","moons","C","B","C","black","stars",2178.400000006,1,0,NA,"right",1043.5,10,1,0,NA,NA,"","BC",1,1,1,1,"10","01"
"1834",273,0,NA,"html-keyboard-response",273,545382,"0.0-7.23-4.23","0res8o2mx8m","2022-09-19 16:45:09.902","5f1338a87447d0308e865fd0",3,64,48,47,40,"20","Female",NA,"","",NA,NA,"true","choice",23,"A","C","black","black","moons","stars","A","C","C","black","stars",2046,1,0,NA,"left",737.7000000179,2,0,0,NA,NA,"","AC",1,1,1,1,"11","10"
"1839",278,0,NA,"html-keyboard-response",278,551766,"0.0-7.24-4.24","0res8o2mx8m","2022-09-19 16:45:09.902","5f1338a87447d0308e865fd0",3,64,48,47,40,"20","Female",NA,"","",NA,NA,"true","choice",24,"A","C","black","black","stars","moons","C","A","C","black","stars",1607.2999999821,1,0,NA,"left",723.1999999881,6,1,0,NA,NA,"","AC",1,1,1,1,"11","10"
"1844",283,0,NA,"html-keyboard-response",283,558552,"0.0-7.25-4.25","0res8o2mx8m","2022-09-19 16:45:09.902","5f1338a87447d0308e865fd0",3,64,48,47,40,"20","Female",NA,"","",NA,NA,"true","choice",25,"B","C","red","black","moons","stars","B","C","B","red","moons",2055.5,0,1,0,"right",675,2,0,0,NA,NA,"","BC",1,1,1,1,"10","01"
"1849",288,0,NA,"html-keyboard-response",288,566217,"0.0-7.26-4.26","0res8o2mx8m","2022-09-19 16:45:09.902","5f1338a87447d0308e865fd0",3,64,48,47,40,"20","Female",NA,"","",NA,NA,"true","choice",26,"B","D","red","red","moons","stars","B","D","D","red","stars",2900.5,0,0,0,"right",710.6999999881,7,1,0,NA,NA,"","BD",1,1,1,1,"00","01"
"1859",298,0,NA,"html-keyboard-response",298,579553,"0.0-7.28-4.28","0res8o2mx8m","2022-09-19 16:45:09.902","5f1338a87447d0308e865fd0",3,64,48,47,40,"20","Female",NA,"","",NA,NA,"true","choice",28,"A","D","red","black","stars","moons","D","A","A","black","moons",2154.7999999821,1,1,NA,"left",671.3000000119,4,0,0,NA,NA,"","AD",1,1,1,1,"10","10"
"1869",308,0,NA,"html-keyboard-response",308,594243,"0.0-7.30-4.30","0res8o2mx8m","2022-09-19 16:45:09.902","5f1338a87447d0308e865fd0",3,64,48,47,40,"20","Female",NA,"","",NA,NA,"true","choice",30,"A","B","red","black","moons","moons","B","A","A","black","moons",2059.2999999821,1,1,NA,"left",1251.3000000119,7,1,1,NA,NA,"","AB",1,1,1,1,"10","11"
"1874",313,0,NA,"html-keyboard-response",313,601327,"0.0-7.31-4.31","0res8o2mx8m","2022-09-19 16:45:09.902","5f1338a87447d0308e865fd0",3,64,48,47,40,"20","Female",NA,"","",NA,NA,"true","choice",31,"A","D","black","red","moons","stars","A","D","A","black","moons",2265.5,1,1,NA,"left",772.5,8,1,1,NA,NA,"","AD",1,1,1,1,"10","10"
"1879",318,0,NA,"html-keyboard-response",318,608887,"0.0-7.32-4.32","0res8o2mx8m","2022-09-19 16:45:09.902","5f1338a87447d0308e865fd0",3,64,48,47,40,"20","Female",NA,"","",NA,NA,"true","choice",32,"B","C","red","black","moons","stars","B","C","C","black","stars",2305,1,0,NA,"right",1197.7000000179,8,1,0,NA,NA,"","BC",1,1,1,1,"10","01"
"1889",328,0,NA,"html-keyboard-response",328,622041,"0.0-7.34-4.34","0res8o2mx8m","2022-09-19 16:45:09.902","5f1338a87447d0308e865fd0",3,64,48,47,40,"20","Female",NA,"","",NA,NA,"true","choice",34,"A","C","black","black","stars","moons","C","A","A","black","moons",1871.3000000119,1,1,NA,"right",902.6999999881,2,0,0,NA,NA,"","AC",1,1,1,1,"11","10"
"1894",333,0,NA,"html-keyboard-response",333,629208,"0.0-7.35-4.35","0res8o2mx8m","2022-09-19 16:45:09.902","5f1338a87447d0308e865fd0",3,64,48,47,40,"20","Female",NA,"","",NA,NA,"true","choice",35,"A","C","black","black","moons","stars","A","C","A","black","moons",1624.8000000119,1,1,NA,"left",1479.5,7,1,1,NA,NA,"","AC",1,1,1,1,"11","10"
"1899",338,0,NA,"html-keyboard-response",338,635765,"0.0-7.36-4.36","0res8o2mx8m","2022-09-19 16:45:09.902","5f1338a87447d0308e865fd0",3,64,48,47,40,"20","Female",NA,"","",NA,NA,"true","choice",36,"C","D","red","black","stars","stars","D","C","C","black","stars",2015.8000000119,1,0,NA,"right",487.7000000179,7,1,0,NA,NA,"","CD",1,1,1,1,"10","00"
"1904",343,0,NA,"html-keyboard-response",343,642627,"0.0-7.37-4.37","0res8o2mx8m","2022-09-19 16:45:09.902","5f1338a87447d0308e865fd0",3,64,48,47,40,"20","Female",NA,"","",NA,NA,"true","choice",37,"B","C","black","red","stars","moons","C","B","C","black","stars",2520.5,1,0,NA,"right",281.099999994,2,0,0,NA,NA,"","BC",1,1,1,1,"10","01"
"1909",348,0,NA,"html-keyboard-response",348,649046,"0.0-7.38-4.38","0res8o2mx8m","2022-09-19 16:45:09.902","5f1338a87447d0308e865fd0",3,64,48,47,40,"20","Female",NA,"","",NA,NA,"true","choice",38,"C","D","black","red","stars","stars","C","D","C","black","stars",1651.6999999881,1,0,NA,"left",714.900000006,2,0,0,NA,NA,"","CD",1,1,1,1,"10","00"
"1914",353,0,NA,"html-keyboard-response",353,654926,"0.0-7.39-4.39","0res8o2mx8m","2022-09-19 16:45:09.902","5f1338a87447d0308e865fd0",3,64,48,47,40,"20","Female",NA,"","",NA,NA,"true","choice",39,"A","B","red","black","moons","moons","B","A","B","red","moons",1228.599999994,0,1,0,"right",594.5,10,1,1,NA,NA,"","AB",1,1,1,1,"10","11"
"1919",358,0,NA,"html-keyboard-response",358,662361,"0.0-7.40-4.40","0res8o2mx8m","2022-09-19 16:45:09.902","5f1338a87447d0308e865fd0",3,64,48,47,40,"20","Female",NA,"","",NA,NA,"true","choice",40,"B","D","red","red","moons","stars","B","D","B","red","moons",2551.3000000119,0,1,1,"left",824.599999994,7,1,1,NA,NA,"","BD",1,1,1,1,"00","01"
"1924",363,0,NA,"html-keyboard-response",363,668862,"0.0-7.41-4.41","0res8o2mx8m","2022-09-19 16:45:09.902","5f1338a87447d0308e865fd0",3,64,48,47,40,"20","Female",NA,"","",NA,NA,"true","choice",41,"A","D","black","red","moons","stars","A","D","A","black","moons",2127.599999994,1,1,NA,"right",320.599999994,1,0,0,NA,NA,"","AD",1,1,1,1,"10","10"
"1929",368,0,NA,"html-keyboard-response",368,676117,"0.0-7.42-4.42","0res8o2mx8m","2022-09-19 16:45:09.902","5f1338a87447d0308e865fd0",3,64,48,47,40,"20","Female",NA,"","",NA,NA,"true","choice",42,"A","B","black","red","moons","moons","A","B","A","black","moons",1964.6999999881,1,1,NA,"right",1243,1,0,0,NA,NA,"","AB",1,1,1,1,"10","11"
"1934",373,0,NA,"html-keyboard-response",373,682636,"0.0-7.43-4.43","0res8o2mx8m","2022-09-19 16:45:09.902","5f1338a87447d0308e865fd0",3,64,48,47,40,"20","Female",NA,"","",NA,NA,"true","choice",43,"B","C","black","red","stars","moons","C","B","B","red","moons",1779.599999994,0,1,0,"right",694.400000006,6,1,1,NA,NA,"","BC",1,1,1,1,"10","01"
"1939",378,0,NA,"html-keyboard-response",378,689504,"0.0-7.44-4.44","0res8o2mx8m","2022-09-19 16:45:09.902","5f1338a87447d0308e865fd0",3,64,48,47,40,"20","Female",NA,"","",NA,NA,"true","choice",44,"A","B","red","black","moons","moons","B","A","A","black","moons",2167.900000006,1,1,NA,"left",648.2999999821,3,0,0,NA,NA,"","AB",1,1,1,1,"10","11"
"1944",383,0,NA,"html-keyboard-response",383,695301,"0.0-7.45-4.45","0res8o2mx8m","2022-09-19 16:45:09.902","5f1338a87447d0308e865fd0",3,64,48,47,40,"20","Female",NA,"","",NA,NA,"true","choice",45,"C","D","black","red","stars","stars","C","D","C","black","stars",1489.099999994,1,0,NA,"left",251.2000000179,9,1,0,NA,NA,"","CD",1,1,1,1,"10","00"
"1949",388,0,NA,"html-keyboard-response",388,703500,"0.0-7.46-4.46","0res8o2mx8m","2022-09-19 16:45:09.902","5f1338a87447d0308e865fd0",3,64,48,47,40,"20","Female",NA,"","",NA,NA,"true","choice",46,"C","D","black","red","stars","stars","C","D","C","black","stars",3343.099999994,1,0,NA,"left",790.8000000119,3,0,1,NA,NA,"","CD",1,1,1,1,"10","00"
"1954",393,0,NA,"html-keyboard-response",393,709999,"0.0-7.47-4.47","0res8o2mx8m","2022-09-19 16:45:09.902","5f1338a87447d0308e865fd0",3,64,48,47,40,"20","Female",NA,"","",NA,NA,"true","choice",47,"A","C","black","black","stars","moons","C","A","A","black","moons",1825.2999999821,1,1,NA,"right",624,1,0,0,NA,NA,"","AC",1,1,1,1,"11","10"
"1959",398,0,NA,"html-keyboard-response",398,716833,"0.0-7.48-4.48","0res8o2mx8m","2022-09-19 16:45:09.902","5f1338a87447d0308e865fd0",3,64,48,47,40,"20","Female",NA,"","",NA,NA,"true","choice",48,"A","B","black","red","moons","moons","A","B","A","black","moons",1589.599999994,1,1,NA,"left",1197.8000000119,2,0,0,NA,NA,"","AB",1,1,1,1,"10","11"
"1964",403,0,NA,"html-keyboard-response",403,723267,"0.0-7.49-4.49","0res8o2mx8m","2022-09-19 16:45:09.902","5f1338a87447d0308e865fd0",3,64,48,47,40,"20","Female",NA,"","",NA,NA,"true","choice",49,"B","D","red","red","moons","stars","B","D","B","red","moons",1483,0,1,0,"right",897.2000000179,4,0,0,NA,NA,"","BD",1,1,1,1,"00","01"
"1969",408,0,NA,"html-keyboard-response",408,729299,"0.0-7.50-4.50","0res8o2mx8m","2022-09-19 16:45:09.902","5f1338a87447d0308e865fd0",3,64,48,47,40,"20","Female",NA,"","",NA,NA,"true","choice",50,"A","D","red","black","stars","moons","D","A","A","black","moons",1261.8000000119,1,1,NA,"right",713.8999999762,1,0,0,NA,NA,"","AD",1,1,1,1,"10","10"
"1974",413,0,NA,"html-keyboard-response",413,736073,"0.0-7.51-4.51","0res8o2mx8m","2022-09-19 16:45:09.902","5f1338a87447d0308e865fd0",3,64,48,47,40,"20","Female",NA,"","",NA,NA,"true","choice",51,"A","B","red","black","moons","moons","B","A","B","red","moons",1927.5,0,1,0,"right",808.599999994,6,1,1,NA,NA,"","AB",1,1,1,1,"10","11"
"1979",418,0,NA,"html-keyboard-response",418,742454,"0.0-7.52-4.52","0res8o2mx8m","2022-09-19 16:45:09.902","5f1338a87447d0308e865fd0",3,64,48,47,40,"20","Female",NA,"","",NA,NA,"true","choice",52,"A","C","black","black","stars","moons","C","A","A","black","moons",1588.599999994,1,1,NA,"right",741.400000006,3,0,0,NA,NA,"","AC",1,1,1,1,"11","10"
"1984",423,0,NA,"html-keyboard-response",423,749566,"0.0-7.53-4.53","0res8o2mx8m","2022-09-19 16:45:09.902","5f1338a87447d0308e865fd0",3,64,48,47,40,"20","Female",NA,"","",NA,NA,"true","choice",53,"A","D","black","red","moons","stars","A","D","A","black","moons",1677.7000000179,1,1,NA,"left",1379.400000006,2,0,0,NA,NA,"","AD",1,1,1,1,"10","10"
"1989",428,0,NA,"html-keyboard-response",428,756353,"0.0-7.54-4.54","0res8o2mx8m","2022-09-19 16:45:09.902","5f1338a87447d0308e865fd0",3,64,48,47,40,"20","Female",NA,"","",NA,NA,"true","choice",54,"B","C","red","black","moons","stars","B","C","C","black","stars",1744.2000000179,1,0,NA,"right",979.599999994,3,0,1,NA,NA,"","BC",1,1,1,1,"10","01"
"1994",433,0,NA,"html-keyboard-response",433,762892,"0.0-7.55-4.55","0res8o2mx8m","2022-09-19 16:45:09.902","5f1338a87447d0308e865fd0",3,64,48,47,40,"20","Female",NA,"","",NA,NA,"true","choice",55,"A","D","black","red","moons","stars","A","D","A","black","moons",1507.900000006,1,1,NA,"left",981.1999999881,9,1,1,NA,NA,"","AD",1,1,1,1,"10","10"
"1999",438,0,NA,"html-keyboard-response",438,770376,"0.0-7.56-4.56","0res8o2mx8m","2022-09-19 16:45:09.902","5f1338a87447d0308e865fd0",3,64,48,47,40,"20","Female",NA,"","",NA,NA,"true","choice",56,"B","C","red","black","moons","stars","B","C","B","red","moons",2466.8000000119,0,1,1,"left",974.400000006,10,1,1,NA,NA,"","BC",1,1,1,1,"10","01"
"2004",443,0,NA,"html-keyboard-response",443,777004,"0.0-7.57-4.57","0res8o2mx8m","2022-09-19 16:45:09.902","5f1338a87447d0308e865fd0",3,64,48,47,40,"20","Female",NA,"","",NA,NA,"true","choice",57,"B","D","red","red","stars","moons","D","B","B","red","moons",1776.1999999881,0,1,0,"right",794.599999994,7,1,1,NA,NA,"","BD",1,1,1,1,"00","01"
"2009",448,0,NA,"html-keyboard-response",448,784043,"0.0-7.58-4.58","0res8o2mx8m","2022-09-19 16:45:09.902","5f1338a87447d0308e865fd0",3,64,48,47,40,"20","Female",NA,"","",NA,NA,"true","choice",58,"B","D","red","red","moons","stars","B","D","B","red","moons",1978.5,0,1,0,"right",1017.2999999821,7,1,1,NA,NA,"","BD",1,1,1,1,"00","01"
"2014",453,0,NA,"html-keyboard-response",453,790940,"0.0-7.59-4.59","0res8o2mx8m","2022-09-19 16:45:09.902","5f1338a87447d0308e865fd0",3,64,48,47,40,"20","Female",NA,"","",NA,NA,"true","choice",59,"A","B","red","black","moons","moons","B","A","B","red","moons",2198.2999999821,0,1,1,"left",656.099999994,8,1,1,NA,NA,"","AB",1,1,1,1,"10","11"
"2019",458,0,NA,"html-keyboard-response",458,798022,"0.0-7.60-4.60","0res8o2mx8m","2022-09-19 16:45:09.902","5f1338a87447d0308e865fd0",3,64,48,47,40,"20","Female",NA,"","",NA,NA,"true","choice",60,"B","C","black","red","stars","moons","C","B","B","red","moons",2386.400000006,0,1,0,"right",653,3,0,0,NA,NA,"","BC",1,1,1,1,"10","01"
"2024",463,0,NA,"html-keyboard-response",463,804720,"0.0-7.61-4.61","0res8o2mx8m","2022-09-19 16:45:09.902","5f1338a87447d0308e865fd0",3,64,48,47,40,"20","Female",NA,"","",NA,NA,"true","choice",61,"C","D","black","red","stars","stars","C","D","D","red","stars",1660.3000000119,0,0,0,"right",987.3999999762,2,0,0,NA,NA,"","CD",1,1,1,1,"10","00"
"2029",468,0,NA,"html-keyboard-response",468,811790,"0.0-7.62-4.62","0res8o2mx8m","2022-09-19 16:45:09.902","5f1338a87447d0308e865fd0",3,64,48,47,40,"20","Female",NA,"","",NA,NA,"true","choice",62,"A","C","black","black","stars","moons","C","A","A","black","moons",1857.8000000119,1,1,NA,"right",1164.400000006,1,0,0,NA,NA,"","AC",1,1,1,1,"11","10"
"2034",473,0,NA,"html-keyboard-response",473,818161,"0.0-7.63-4.63","0res8o2mx8m","2022-09-19 16:45:09.902","5f1338a87447d0308e865fd0",3,64,48,47,40,"20","Female",NA,"","",NA,NA,"true","choice",63,"A","D","red","black","stars","moons","D","A","A","black","moons",1320.7000000179,1,1,NA,"left",995.900000006,3,0,0,NA,NA,"","AD",1,1,1,1,"10","10"
"2039",478,0,NA,"html-keyboard-response",478,824439,"0.0-7.64-4.64","0res8o2mx8m","2022-09-19 16:45:09.902","5f1338a87447d0308e865fd0",3,64,48,47,40,"20","Female",NA,"","",NA,NA,"true","choice",64,"A","D","red","black","stars","moons","D","A","A","black","moons",1447.400000006,1,1,NA,"right",777.400000006,10,1,1,NA,NA,"","AD",1,1,1,1,"10","10"
"2044",483,0,NA,"html-keyboard-response",483,832078,"0.0-7.65-4.65","0res8o2mx8m","2022-09-19 16:45:09.902","5f1338a87447d0308e865fd0",3,64,48,47,40,"20","Female",NA,"","",NA,NA,"true","choice",65,"A","B","black","red","moons","moons","A","B","B","red","moons",2829.1999999881,0,1,1,"left",752.5,10,1,1,NA,NA,"","AB",1,1,1,1,"10","11"
"2049",488,0,NA,"html-keyboard-response",488,839046,"0.0-7.66-4.66","0res8o2mx8m","2022-09-19 16:45:09.902","5f1338a87447d0308e865fd0",3,64,48,47,40,"20","Female",NA,"","",NA,NA,"true","choice",66,"C","D","black","red","stars","stars","C","D","D","red","stars",2157.400000006,0,0,1,"left",751.7000000179,8,1,0,NA,NA,"","CD",1,1,1,1,"10","00"
"2767",164,0,NA,"html-keyboard-response",164,380606,"0.0-7.2-4.2","1eocbzkws7","2022-09-19 16:21:58.817","62a212208e8395cfb1c4e42b",2,77,26,90,34,"37","Male",NA,"","",NA,NA,"true","choice",2,"A","D","red","black","moons","stars","D","A","A","black","stars",1438.900000006,1,1,NA,"left",928,3,0,0,NA,NA,"","AD",1,0,1,1,"10","10"
"2777",174,0,NA,"html-keyboard-response",174,393281,"0.0-7.4-4.4","1eocbzkws7","2022-09-19 16:21:58.817","62a212208e8395cfb1c4e42b",2,77,26,90,34,"37","Male",NA,"","",NA,NA,"true","choice",4,"A","C","black","black","moons","stars","C","A","C","black","moons",1399.799999997,1,0,NA,"left",629.799999997,4,0,0,NA,NA,"","AC",1,0,1,1,"11","10"
"2782",179,0,NA,"html-keyboard-response",179,399318,"0.0-7.5-4.5","1eocbzkws7","2022-09-19 16:21:58.817","62a212208e8395cfb1c4e42b",2,77,26,90,34,"37","Male",NA,"","",NA,NA,"true","choice",5,"B","D","red","red","moons","stars","D","B","B","red","stars",1133.200000003,0,1,1,"left",877.599999994,3,0,0,NA,NA,"","BD",1,0,1,1,"00","01"
"2787",184,0,NA,"html-keyboard-response",184,405702,"0.0-7.6-4.6","1eocbzkws7","2022-09-19 16:21:58.817","62a212208e8395cfb1c4e42b",2,77,26,90,34,"37","Male",NA,"","",NA,NA,"true","choice",6,"A","D","red","black","moons","stars","D","A","D","red","moons",1370.599999994,0,0,1,"left",979.200000003,9,1,0,NA,NA,"","AD",1,0,1,1,"10","10"
"2792",189,0,NA,"html-keyboard-response",189,411438,"0.0-7.7-4.7","1eocbzkws7","2022-09-19 16:21:58.817","62a212208e8395cfb1c4e42b",2,77,26,90,34,"37","Male",NA,"","",NA,NA,"true","choice",7,"B","C","red","black","stars","moons","B","C","B","red","stars",1110.599999994,0,1,1,"left",597.5,1,0,0,NA,NA,"","BC",1,0,1,1,"10","01"
"2797",194,0,NA,"html-keyboard-response",194,417187,"0.0-7.8-4.8","1eocbzkws7","2022-09-19 16:21:58.817","62a212208e8395cfb1c4e42b",2,77,26,90,34,"37","Male",NA,"","",NA,NA,"true","choice",8,"B","C","black","red","moons","stars","C","B","B","red","stars",1213.599999994,0,1,1,"left",511.799999997,3,0,0,NA,NA,"","BC",1,0,1,1,"10","01"
"2802",199,0,NA,"html-keyboard-response",199,422791,"0.0-7.9-4.9","1eocbzkws7","2022-09-19 16:21:58.817","62a212208e8395cfb1c4e42b",2,77,26,90,34,"37","Male",NA,"","",NA,NA,"true","choice",9,"C","D","black","red","moons","moons","C","D","C","black","moons",474.5,1,0,NA,"right",1098.200000003,1,0,1,NA,NA,"","CD",1,0,1,1,"10","00"
"2807",204,0,NA,"html-keyboard-response",204,427970,"0.0-7.10-4.10","1eocbzkws7","2022-09-19 16:21:58.817","62a212208e8395cfb1c4e42b",2,77,26,90,34,"37","Male",NA,"","",NA,NA,"true","choice",10,"C","D","black","red","moons","moons","C","D","C","black","moons",581.200000003,1,0,NA,"left",572.700000003,4,0,1,NA,NA,"","CD",1,0,1,1,"10","00"
"2812",209,0,NA,"html-keyboard-response",209,433894,"0.0-7.11-4.11","1eocbzkws7","2022-09-19 16:21:58.817","62a212208e8395cfb1c4e42b",2,77,26,90,34,"37","Male",NA,"","",NA,NA,"true","choice",11,"A","B","black","red","stars","stars","A","B","A","black","stars",1357.400000006,1,1,NA,"right",536.700000003,7,1,1,NA,NA,"","AB",1,0,1,1,"10","11"
"2817",214,0,NA,"html-keyboard-response",214,440242,"0.0-7.12-4.12","1eocbzkws7","2022-09-19 16:21:58.817","62a212208e8395cfb1c4e42b",2,77,26,90,34,"37","Male",NA,"","",NA,NA,"true","choice",12,"A","C","black","black","moons","stars","C","A","A","black","stars",1820.200000003,1,1,NA,"right",499.8999999911,3,0,0,NA,NA,"","AC",1,0,1,1,"11","10"
"2822",219,0,NA,"html-keyboard-response",219,446409,"0.0-7.13-4.13","1eocbzkws7","2022-09-19 16:21:58.817","62a212208e8395cfb1c4e42b",2,77,26,90,34,"37","Male",NA,"","",NA,NA,"true","choice",13,"A","B","black","red","stars","stars","A","B","B","red","stars",1290.299999997,0,1,1,"left",854,4,0,0,NA,NA,"","AB",1,0,1,1,"10","11"
"2827",224,0,NA,"html-keyboard-response",224,452472,"0.0-7.14-4.14","1eocbzkws7","2022-09-19 16:21:58.817","62a212208e8395cfb1c4e42b",2,77,26,90,34,"37","Male",NA,"","",NA,NA,"true","choice",14,"B","D","red","red","moons","stars","D","B","D","red","moons",1410.799999997,0,0,1,"left",620.599999994,10,1,0,NA,NA,"","BD",1,0,1,1,"00","01"
"2832",229,0,NA,"html-keyboard-response",229,458530,"0.0-7.15-4.15","1eocbzkws7","2022-09-19 16:21:58.817","62a212208e8395cfb1c4e42b",2,77,26,90,34,"37","Male",NA,"","",NA,NA,"true","choice",15,"B","C","red","black","stars","moons","B","C","C","black","moons",1427.200000003,1,0,NA,"right",599.5,4,0,0,NA,NA,"","BC",1,0,1,1,"10","01"
"2842",239,0,NA,"html-keyboard-response",239,470678,"0.0-7.17-4.17","1eocbzkws7","2022-09-19 16:21:58.817","62a212208e8395cfb1c4e42b",2,77,26,90,34,"37","Male",NA,"","",NA,NA,"true","choice",17,"A","C","black","black","stars","moons","A","C","A","black","stars",1595.5,1,1,NA,"right",769.700000003,7,1,1,NA,NA,"","AC",1,0,1,1,"11","10"
"2847",244,0,NA,"html-keyboard-response",244,476663,"0.0-7.18-4.18","1eocbzkws7","2022-09-19 16:21:58.817","62a212208e8395cfb1c4e42b",2,77,26,90,34,"37","Male",NA,"","",NA,NA,"true","choice",18,"C","D","red","black","moons","moons","D","C","D","red","moons",1549.099999994,0,0,0,"right",416.299999997,9,1,0,NA,NA,"","CD",1,0,1,1,"10","00"
"2852",249,0,NA,"html-keyboard-response",249,483568,"0.0-7.19-4.19","1eocbzkws7","2022-09-19 16:21:58.817","62a212208e8395cfb1c4e42b",2,77,26,90,34,"37","Male",NA,"","",NA,NA,"true","choice",19,"B","C","red","black","stars","moons","B","C","C","black","moons",2508,1,0,NA,"right",373.900000006,10,1,1,NA,NA,"","BC",1,0,1,1,"10","01"
"2857",254,0,NA,"html-keyboard-response",254,491210,"0.0-7.20-4.20","1eocbzkws7","2022-09-19 16:21:58.817","62a212208e8395cfb1c4e42b",2,77,26,90,34,"37","Male",NA,"","",NA,NA,"true","choice",20,"B","D","red","red","stars","moons","B","D","D","red","moons",2620,0,0,0,"right",991.8000000119,6,1,0,NA,NA,"","BD",1,0,1,1,"00","01"
"2862",259,0,NA,"html-keyboard-response",259,497661,"0.0-7.21-4.21","1eocbzkws7","2022-09-19 16:21:58.817","62a212208e8395cfb1c4e42b",2,77,26,90,34,"37","Male",NA,"","",NA,NA,"true","choice",21,"C","D","red","black","moons","moons","D","C","C","black","moons",1552.700000003,1,0,NA,"left",872,3,0,0,NA,NA,"","CD",1,0,1,1,"10","00"
"2867",264,0,NA,"html-keyboard-response",264,503646,"0.0-7.22-4.22","1eocbzkws7","2022-09-19 16:21:58.817","62a212208e8395cfb1c4e42b",2,77,26,90,34,"37","Male",NA,"","",NA,NA,"true","choice",22,"B","C","red","black","stars","moons","B","C","C","black","moons",1321.5,1,0,NA,"right",629.5,2,0,0,NA,NA,"","BC",1,0,1,1,"10","01"
"2872",269,0,NA,"html-keyboard-response",269,510504,"0.0-7.23-4.23","1eocbzkws7","2022-09-19 16:21:58.817","62a212208e8395cfb1c4e42b",2,77,26,90,34,"37","Male",NA,"","",NA,NA,"true","choice",23,"A","D","black","red","stars","moons","A","D","D","red","moons",2415.3999999911,0,0,1,"left",409.599999994,8,1,0,NA,NA,"","AD",1,0,1,1,"10","10"
"2877",274,0,NA,"html-keyboard-response",274,516491,"0.0-7.24-4.24","1eocbzkws7","2022-09-19 16:21:58.817","62a212208e8395cfb1c4e42b",2,77,26,90,34,"37","Male",NA,"","",NA,NA,"true","choice",24,"A","B","black","red","stars","stars","A","B","B","red","stars",1561.5,0,1,0,"right",394.1000000089,1,0,0,NA,NA,"","AB",1,0,1,1,"10","11"
"2882",279,0,NA,"html-keyboard-response",279,522167,"0.0-7.25-4.25","1eocbzkws7","2022-09-19 16:21:58.817","62a212208e8395cfb1c4e42b",2,77,26,90,34,"37","Male",NA,"","",NA,NA,"true","choice",25,"B","C","black","red","moons","stars","C","B","C","black","moons",1206.900000006,1,0,NA,"left",443.799999997,6,1,0,NA,NA,"","BC",1,0,1,1,"10","01"
"2887",284,0,NA,"html-keyboard-response",284,528683,"0.0-7.26-4.26","1eocbzkws7","2022-09-19 16:21:58.817","62a212208e8395cfb1c4e42b",2,77,26,90,34,"37","Male",NA,"","",NA,NA,"true","choice",26,"A","D","red","black","moons","stars","D","A","A","black","stars",1668.700000003,1,1,NA,"right",824,9,1,1,NA,NA,"","AD",1,0,1,1,"10","10"
"2892",289,0,NA,"html-keyboard-response",289,535704,"0.0-7.27-4.27","1eocbzkws7","2022-09-19 16:21:58.817","62a212208e8395cfb1c4e42b",2,77,26,90,34,"37","Male",NA,"","",NA,NA,"true","choice",27,"A","B","black","red","stars","stars","A","B","A","black","stars",2228.400000006,1,1,NA,"right",761.599999994,10,1,1,NA,NA,"","AB",1,0,1,1,"10","11"
"2897",294,0,NA,"html-keyboard-response",294,542046,"0.0-7.28-4.28","1eocbzkws7","2022-09-19 16:21:58.817","62a212208e8395cfb1c4e42b",2,77,26,90,34,"37","Male",NA,"","",NA,NA,"true","choice",28,"B","D","red","red","stars","moons","B","D","D","red","moons",1823.700000003,0,0,0,"right",492.3999999911,4,0,0,NA,NA,"","BD",1,0,1,1,"00","01"
"2902",299,0,NA,"html-keyboard-response",299,548315,"0.0-7.29-4.29","1eocbzkws7","2022-09-19 16:21:58.817","62a212208e8395cfb1c4e42b",2,77,26,90,34,"37","Male",NA,"","",NA,NA,"true","choice",29,"C","D","black","red","moons","moons","C","D","C","black","moons",1470.299999997,1,0,NA,"left",771.5,9,1,1,NA,NA,"","CD",1,0,1,1,"10","00"
"2907",304,0,NA,"html-keyboard-response",304,554499,"0.0-7.30-4.30","1eocbzkws7","2022-09-19 16:21:58.817","62a212208e8395cfb1c4e42b",2,77,26,90,34,"37","Male",NA,"","",NA,NA,"true","choice",30,"A","B","black","red","stars","stars","A","B","A","black","stars",1539.700000003,1,1,NA,"right",615,7,1,1,NA,NA,"","AB",1,0,1,1,"10","11"
"2912",309,0,NA,"html-keyboard-response",309,560783,"0.0-7.31-4.31","1eocbzkws7","2022-09-19 16:21:58.817","62a212208e8395cfb1c4e42b",2,77,26,90,34,"37","Male",NA,"","",NA,NA,"true","choice",31,"B","D","red","red","stars","moons","B","D","D","red","moons",1487.700000003,0,0,1,"left",771.299999997,6,1,1,NA,NA,"","BD",1,0,1,1,"00","01"
"2917",314,0,NA,"html-keyboard-response",314,566961,"0.0-7.32-4.32","1eocbzkws7","2022-09-19 16:21:58.817","62a212208e8395cfb1c4e42b",2,77,26,90,34,"37","Male",NA,"","",NA,NA,"true","choice",32,"B","C","red","black","stars","moons","B","C","C","black","moons",1019.299999997,1,0,NA,"right",1128.299999997,6,1,0,NA,NA,"","BC",1,0,1,1,"10","01"
"2922",319,0,NA,"html-keyboard-response",319,572731,"0.0-7.33-4.33","1eocbzkws7","2022-09-19 16:21:58.817","62a212208e8395cfb1c4e42b",2,77,26,90,34,"37","Male",NA,"","",NA,NA,"true","choice",33,"A","D","black","red","stars","moons","A","D","A","black","stars",1342.299999997,1,1,NA,"right",393.599999994,2,0,0,NA,NA,"","AD",1,0,1,1,"10","10"
"2932",329,0,NA,"html-keyboard-response",329,585243,"0.0-7.35-4.35","1eocbzkws7","2022-09-19 16:21:58.817","62a212208e8395cfb1c4e42b",2,77,26,90,34,"37","Male",NA,"","",NA,NA,"true","choice",35,"A","C","black","black","moons","stars","C","A","C","black","moons",2086.099999994,1,0,NA,"right",556,9,1,0,NA,NA,"","AC",1,0,1,1,"11","10"
"2937",334,0,NA,"html-keyboard-response",334,590933,"0.0-7.36-4.36","1eocbzkws7","2022-09-19 16:21:58.817","62a212208e8395cfb1c4e42b",2,77,26,90,34,"37","Male",NA,"","",NA,NA,"true","choice",36,"B","D","red","red","stars","moons","B","D","B","red","stars",859,0,1,0,"right",799.900000006,10,1,1,NA,NA,"","BD",1,0,1,1,"00","01"
"2942",339,0,NA,"html-keyboard-response",339,597456,"0.0-7.37-4.37","1eocbzkws7","2022-09-19 16:21:58.817","62a212208e8395cfb1c4e42b",2,77,26,90,34,"37","Male",NA,"","",NA,NA,"true","choice",37,"B","D","red","red","moons","stars","D","B","B","red","stars",2105,0,1,0,"right",388.299999997,2,0,0,NA,NA,"","BD",1,0,1,1,"00","01"
"2947",344,0,NA,"html-keyboard-response",344,603441,"0.0-7.38-4.38","1eocbzkws7","2022-09-19 16:21:58.817","62a212208e8395cfb1c4e42b",2,77,26,90,34,"37","Male",NA,"","",NA,NA,"true","choice",38,"A","D","black","red","stars","moons","A","D","A","black","stars",714.900000006,1,1,NA,"left",1238.900000006,6,1,1,NA,NA,"","AD",1,0,1,1,"10","10"
"2952",349,0,NA,"html-keyboard-response",349,610181,"0.0-7.39-4.39","1eocbzkws7","2022-09-19 16:21:58.817","62a212208e8395cfb1c4e42b",2,77,26,90,34,"37","Male",NA,"","",NA,NA,"true","choice",39,"B","C","black","red","moons","stars","C","B","C","black","moons",2241.5,1,0,NA,"left",466.599999994,10,1,1,NA,NA,"","BC",1,0,1,1,"10","01"
"2957",354,0,NA,"html-keyboard-response",354,617370,"0.0-7.40-4.40","1eocbzkws7","2022-09-19 16:21:58.817","62a212208e8395cfb1c4e42b",2,77,26,90,34,"37","Male",NA,"","",NA,NA,"true","choice",40,"A","C","black","black","moons","stars","C","A","C","black","moons",2435.8999999911,1,0,NA,"right",727,1,0,1,NA,NA,"","AC",1,0,1,1,"11","10"
"2962",359,0,NA,"html-keyboard-response",359,623687,"0.0-7.41-4.41","1eocbzkws7","2022-09-19 16:21:58.817","62a212208e8395cfb1c4e42b",2,77,26,90,34,"37","Male",NA,"","",NA,NA,"true","choice",41,"A","D","black","red","stars","moons","A","D","A","black","stars",1455.5,1,1,NA,"right",838.6999999881,2,0,0,NA,NA,"","AD",1,0,1,1,"10","10"
"2967",364,0,NA,"html-keyboard-response",364,628904,"0.0-7.42-4.42","1eocbzkws7","2022-09-19 16:21:58.817","62a212208e8395cfb1c4e42b",2,77,26,90,34,"37","Male",NA,"","",NA,NA,"true","choice",42,"A","B","black","red","stars","stars","A","B","A","black","stars",748.099999994,1,1,NA,"left",430.799999997,10,1,1,NA,NA,"","AB",1,0,1,1,"10","11"
"2972",369,0,NA,"html-keyboard-response",369,636673,"0.0-7.43-4.43","1eocbzkws7","2022-09-19 16:21:58.817","62a212208e8395cfb1c4e42b",2,77,26,90,34,"37","Male",NA,"","",NA,NA,"true","choice",43,"B","D","red","red","stars","moons","B","D","D","red","moons",2634.400000006,0,0,1,"left",1105.5,6,1,1,NA,NA,"","BD",1,0,1,1,"00","01"
"2977",374,0,NA,"html-keyboard-response",374,642891,"0.0-7.44-4.44","1eocbzkws7","2022-09-19 16:21:58.817","62a212208e8395cfb1c4e42b",2,77,26,90,34,"37","Male",NA,"","",NA,NA,"true","choice",44,"A","C","black","black","stars","moons","A","C","C","black","moons",815.700000003,1,0,NA,"left",1372.200000003,7,1,0,NA,NA,"","AC",1,0,1,1,"11","10"
"2982",379,0,NA,"html-keyboard-response",379,648861,"0.0-7.45-4.45","1eocbzkws7","2022-09-19 16:21:58.817","62a212208e8395cfb1c4e42b",2,77,26,90,34,"37","Male",NA,"","",NA,NA,"true","choice",45,"A","D","red","black","moons","stars","D","A","A","black","stars",1521.900000006,1,1,NA,"right",420.799999997,6,1,1,NA,NA,"","AD",1,0,1,1,"10","10"
"2992",389,0,NA,"html-keyboard-response",389,661880,"0.0-7.47-4.47","1eocbzkws7","2022-09-19 16:21:58.817","62a212208e8395cfb1c4e42b",2,77,26,90,34,"37","Male",NA,"","",NA,NA,"true","choice",47,"B","D","red","red","moons","stars","D","B","D","red","moons",2368.799999997,0,0,1,"left",460.799999997,2,0,0,NA,NA,"","BD",1,0,1,1,"00","01"
"3007",404,0,NA,"html-keyboard-response",404,679079,"0.0-7.50-4.50","1eocbzkws7","2022-09-19 16:21:58.817","62a212208e8395cfb1c4e42b",2,77,26,90,34,"37","Male",NA,"","",NA,NA,"true","choice",50,"A","C","black","black","moons","stars","C","A","A","black","stars",1844.6000000089,1,1,NA,"right",429.700000003,9,1,1,NA,NA,"","AC",1,0,1,1,"11","10"
"3012",409,0,NA,"html-keyboard-response",409,685432,"0.0-7.51-4.51","1eocbzkws7","2022-09-19 16:21:58.817","62a212208e8395cfb1c4e42b",2,77,26,90,34,"37","Male",NA,"","",NA,NA,"true","choice",51,"C","D","red","black","moons","moons","D","C","C","black","moons",1276.400000006,1,0,NA,"left",1058.599999994,2,0,0,NA,NA,"","CD",1,0,1,1,"10","00"
"3017",414,0,NA,"html-keyboard-response",414,691775,"0.0-7.52-4.52","1eocbzkws7","2022-09-19 16:21:58.817","62a212208e8395cfb1c4e42b",2,77,26,90,34,"37","Male",NA,"","",NA,NA,"true","choice",52,"B","C","black","red","moons","stars","C","B","C","black","moons",1894.3000000119,1,0,NA,"right",423.299999997,10,1,1,NA,NA,"","BC",1,0,1,1,"10","01"
"3022",419,0,NA,"html-keyboard-response",419,697509,"0.0-7.53-4.53","1eocbzkws7","2022-09-19 16:21:58.817","62a212208e8395cfb1c4e42b",2,77,26,90,34,"37","Male",NA,"","",NA,NA,"true","choice",53,"C","D","red","black","moons","moons","D","C","C","black","moons",1067.6000000089,1,0,NA,"right",638.799999997,1,0,0,NA,NA,"","CD",1,0,1,1,"10","00"
"3027",424,0,NA,"html-keyboard-response",424,704140,"0.0-7.54-4.54","1eocbzkws7","2022-09-19 16:21:58.817","62a212208e8395cfb1c4e42b",2,77,26,90,34,"37","Male",NA,"","",NA,NA,"true","choice",54,"B","D","red","red","moons","stars","D","B","B","red","stars",2073.3000000119,0,1,0,"right",527.099999994,2,0,0,NA,NA,"","BD",1,0,1,1,"00","01"
"3032",429,0,NA,"html-keyboard-response",429,710885,"0.0-7.55-4.55","1eocbzkws7","2022-09-19 16:21:58.817","62a212208e8395cfb1c4e42b",2,77,26,90,34,"37","Male",NA,"","",NA,NA,"true","choice",55,"A","C","black","black","moons","stars","C","A","C","black","moons",1928.799999997,1,0,NA,"right",795,2,0,1,NA,NA,"","AC",1,0,1,1,"11","10"
"3037",434,0,NA,"html-keyboard-response",434,716403,"0.0-7.56-4.56","1eocbzkws7","2022-09-19 16:21:58.817","62a212208e8395cfb1c4e42b",2,77,26,90,34,"37","Male",NA,"","",NA,NA,"true","choice",56,"A","B","red","black","stars","stars","B","A","A","black","stars",998.5,1,1,NA,"left",498.200000003,4,0,0,NA,NA,"","AB",1,0,1,1,"10","11"
"3042",439,0,NA,"html-keyboard-response",439,721716,"0.0-7.57-4.57","1eocbzkws7","2022-09-19 16:21:58.817","62a212208e8395cfb1c4e42b",2,77,26,90,34,"37","Male",NA,"","",NA,NA,"true","choice",57,"C","D","black","red","moons","moons","C","D","C","black","moons",876.1000000089,1,0,NA,"right",409.6000000089,2,0,1,NA,NA,"","CD",1,0,1,1,"10","00"
"3047",444,0,NA,"html-keyboard-response",444,727050,"0.0-7.58-4.58","1eocbzkws7","2022-09-19 16:21:58.817","62a212208e8395cfb1c4e42b",2,77,26,90,34,"37","Male",NA,"","",NA,NA,"true","choice",58,"A","B","red","black","stars","stars","B","A","A","black","stars",1016.5,1,1,NA,"left",283,3,0,0,NA,NA,"","AB",1,0,1,1,"10","11"
"3052",449,0,NA,"html-keyboard-response",449,734951,"0.0-7.59-4.59","1eocbzkws7","2022-09-19 16:21:58.817","62a212208e8395cfb1c4e42b",2,77,26,90,34,"37","Male",NA,"","",NA,NA,"true","choice",59,"A","B","red","black","stars","stars","B","A","A","black","stars",1732.6000000089,1,1,NA,"left",2145.099999994,9,1,1,NA,NA,"","AB",1,0,1,1,"10","11"
"3057",454,0,NA,"html-keyboard-response",454,741735,"0.0-7.60-4.60","1eocbzkws7","2022-09-19 16:21:58.817","62a212208e8395cfb1c4e42b",2,77,26,90,34,"37","Male",NA,"","",NA,NA,"true","choice",60,"A","C","black","black","moons","stars","C","A","A","black","stars",2087.599999994,1,1,NA,"right",671.5,3,0,0,NA,NA,"","AC",1,0,1,1,"11","10"
