,index,success,trial_type,trial_index,time_elapsed,internal_node_id,subject,date,prol_id,ctbl,sense_of_control_A,sense_of_control_B,sense_of_control_C,sense_of_control_D,age,gender,rt,url,stimulus,key_press,npress,is_data_trial,phase,trial,deck1,deck2,col1,col2,sym1,sym2,deck_l,deck_r,chosen_deck,chosen_col,chosen_sym,deck_rt,choose_choice,mutual_info,hidden_key,chosen_card,card_rt,player_num,win_card,outcome,mock_rating,response,responses
0,0,1.0,fullscreen,0,5590,0.0-0.0,gzi0wtbllnp,2022-09-16 18:30:43.680,5ef4d8b87faaa00c0dea0c4e,2,51,33,1,87,57,Female,,,,,,,,,,,,,,,,,,,,,,,,,,,,,,,
1,0,,external-html,1,8145,0.0-1.0,gzi0wtbllnp,2022-09-16 18:30:43.680,5ef4d8b87faaa00c0dea0c4e,2,51,33,1,87,57,Female,2464.0,static/js/sub/consent.html,,,,,,,,,,,,,,,,,,,,,,,,,,,,,
2,0,,call-function,2,8150,0.0-2.0,gzi0wtbllnp,2022-09-16 18:30:43.680,5ef4d8b87faaa00c0dea0c4e,2,51,33,1,87,57,Female,,,,,,,,,,,,,,,,,,,,,,,,,,,,,,,
3,0,,image-keyboard-response,3,20104,0.0-3.0-0.0,gzi0wtbllnp,2022-09-16 18:30:43.680,5ef4d8b87faaa00c0dea0c4e,2,51,33,1,87,57,Female,11953.0,,static/images/instructions_CB_2/Slide1.png,39.0,,,,,,,,,,,,,,,,,,,,,,,,,,,
4,0,,image-keyboard-response,4,47958,0.0-3.1-0.1,gzi0wtbllnp,2022-09-16 18:30:43.680,5ef4d8b87faaa00c0dea0c4e,2,51,33,1,87,57,Female,27855.0,,static/images/instructions_CB_2/Slide2.png,39.0,,,,,,,,,,,,,,,,,,,,,,,,,,,
5,0,,image-keyboard-response,5,56801,0.0-3.2-0.2,gzi0wtbllnp,2022-09-16 18:30:43.680,5ef4d8b87faaa00c0dea0c4e,2,51,33,1,87,57,Female,8842.0,,static/images/instructions_CB_2/Slide3.png,39.0,,,,,,,,,,,,,,,,,,,,,,,,,,,
6,0,,image-keyboard-response,6,69379,0.0-3.3-0.3,gzi0wtbllnp,2022-09-16 18:30:43.680,5ef4d8b87faaa00c0dea0c4e,2,51,33,1,87,57,Female,12578.0,,static/images/instructions_CB_2/Slide4.png,39.0,,,,,,,,,,,,,,,,,,,,,,,,,,,
7,0,,image-keyboard-response,7,79549,0.0-3.4-0.4,gzi0wtbllnp,2022-09-16 18:30:43.680,5ef4d8b87faaa00c0dea0c4e,2,51,33,1,87,57,Female,10169.0,,static/images/instructions_CB_2/Slide5.png,39.0,,,,,,,,,,,,,,,,,,,,,,,,,,,
8,0,,image-keyboard-response,8,84813,0.0-3.5-0.5,gzi0wtbllnp,2022-09-16 18:30:43.680,5ef4d8b87faaa00c0dea0c4e,2,51,33,1,87,57,Female,5264.0,,static/images/instructions_CB_2/Slide6.png,39.0,,,,,,,,,,,,,,,,,,,,,,,,,,,
9,0,,image-keyboard-response,9,91305,0.0-3.6-0.6,gzi0wtbllnp,2022-09-16 18:30:43.680,5ef4d8b87faaa00c0dea0c4e,2,51,33,1,87,57,Female,6491.0,,static/images/instructions_CB_2/Slide7.png,39.0,,,,,,,,,,,,,,,,,,,,,,,,,,,
10,0,,image-keyboard-response,10,109553,0.0-3.7-0.7,gzi0wtbllnp,2022-09-16 18:30:43.680,5ef4d8b87faaa00c0dea0c4e,2,51,33,1,87,57,Female,18247.0,,static/images/instructions_CB_2/Slide8.png,39.0,,,,,,,,,,,,,,,,,,,,,,,,,,,
11,0,,image-keyboard-response,11,114311,0.0-3.8-0.8,gzi0wtbllnp,2022-09-16 18:30:43.680,5ef4d8b87faaa00c0dea0c4e,2,51,33,1,87,57,Female,4758.0,,static/images/instructions_CB_2/Slide9.png,39.0,,,,,,,,,,,,,,,,,,,,,,,,,,,
12,0,,image-keyboard-response,12,122873,0.0-3.9-0.9,gzi0wtbllnp,2022-09-16 18:30:43.680,5ef4d8b87faaa00c0dea0c4e,2,51,33,1,87,57,Female,8561.0,,static/images/instructions_CB_2/Slide10.png,39.0,,,,,,,,,,,,,,,,,,,,,,,,,,,
13,0,,image-keyboard-response,13,126844,0.0-3.10-0.10,gzi0wtbllnp,2022-09-16 18:30:43.680,5ef4d8b87faaa00c0dea0c4e,2,51,33,1,87,57,Female,3970.0,,static/images/instructions_CB_2/Slide11.png,39.0,,,,,,,,,,,,,,,,,,,,,,,,,,,
14,0,,image-keyboard-response,14,143652,0.0-3.11-0.11,gzi0wtbllnp,2022-09-16 18:30:43.680,5ef4d8b87faaa00c0dea0c4e,2,51,33,1,87,57,Female,16808.0,,static/images/instructions_CB_2/Slide12.png,39.0,,,,,,,,,,,,,,,,,,,,,,,,,,,
15,0,,image-keyboard-response,15,163958,0.0-3.12-0.12,gzi0wtbllnp,2022-09-16 18:30:43.680,5ef4d8b87faaa00c0dea0c4e,2,51,33,1,87,57,Female,20306.0,,static/images/instructions_CB_2/Slide13.png,39.0,,,,,,,,,,,,,,,,,,,,,,,,,,,
16,0,,image-keyboard-response,16,172103,0.0-3.13-0.13,gzi0wtbllnp,2022-09-16 18:30:43.680,5ef4d8b87faaa00c0dea0c4e,2,51,33,1,87,57,Female,8144.0,,static/images/instructions_CB_2/Slide14.png,39.0,,,,,,,,,,,,,,,,,,,,,,,,,,,
17,0,,image-keyboard-response,17,178437,0.0-3.14-0.14,gzi0wtbllnp,2022-09-16 18:30:43.680,5ef4d8b87faaa00c0dea0c4e,2,51,33,1,87,57,Female,6333.0,,static/images/instructions_CB_2/Slide15.png,39.0,,,,,,,,,,,,,,,,,,,,,,,,,,,
18,0,,image-keyboard-response,18,184534,0.0-3.15-0.15,gzi0wtbllnp,2022-09-16 18:30:43.680,5ef4d8b87faaa00c0dea0c4e,2,51,33,1,87,57,Female,6097.0,,static/images/instructions_CB_2/Slide16.png,39.0,,,,,,,,,,,,,,,,,,,,,,,,,,,
19,0,,image-keyboard-response,19,194468,0.0-3.16-0.16,gzi0wtbllnp,2022-09-16 18:30:43.680,5ef4d8b87faaa00c0dea0c4e,2,51,33,1,87,57,Female,9934.0,,static/images/instructions_CB_2/Slide17.png,39.0,,,,,,,,,,,,,,,,,,,,,,,,,,,
20,0,,image-keyboard-response,20,217599,0.0-3.17-0.17,gzi0wtbllnp,2022-09-16 18:30:43.680,5ef4d8b87faaa00c0dea0c4e,2,51,33,1,87,57,Female,23130.0,,static/images/instructions_CB_2/Slide18.png,39.0,,,,,,,,,,,,,,,,,,,,,,,,,,,
21,0,,image-keyboard-response,21,226362,0.0-3.18-0.18,gzi0wtbllnp,2022-09-16 18:30:43.680,5ef4d8b87faaa00c0dea0c4e,2,51,33,1,87,57,Female,8763.0,,static/images/instructions_CB_2/Slide19.png,39.0,,,,,,,,,,,,,,,,,,,,,,,,,,,
22,0,,html-keyboard-response,22,227865,0.0-4.0-0.0,gzi0wtbllnp,2022-09-16 18:30:43.680,5ef4d8b87faaa00c0dea0c4e,2,51,33,1,87,57,Female,,,"<img src=""static/images/cards/stack_of_black_stars.svg"" width=""175px"" height=""250px""></img>",,,,,,,,,,,,,,,,,,,,,,,,,,,,
23,0,,html-keyboard-response,23,230942,0.0-4.0-1.0,gzi0wtbllnp,2022-09-16 18:30:43.680,5ef4d8b87faaa00c0dea0c4e,2,51,33,1,87,57,Female,2575.0,,"
  <table>
  <tr height=300>
    <td width=300 height=300><img src=""static/images/cards/back_of_black_stars.svg"" width=""175px"" height=""250px""></img></td>
    <td width=300 height=300><img src=""static/images/cards/back_of_black_stars.svg"" width=""175px"" height=""250px""></img></td>
  </tr>
  <tr height=200>
    <td width=300><img src=""static/images/keys/z.svg"" width=""35%"" height=""75%""></img></td>
    <td width=300><img src=""static/images/keys/m.svg"" width=""35%"" height=""75%""></img></td>
  </tr>
</table>
  ",90.0,1.0,,,,,,,,,,,,,,,,,,,,,,,,,,
24,0,,html-keyboard-response,24,232444,0.0-4.0-2.0,gzi0wtbllnp,2022-09-16 18:30:43.680,5ef4d8b87faaa00c0dea0c4e,2,51,33,1,87,57,Female,,,"
  <table>
  <tr height=300>
    <td width=300 height=300><img src=""static/images/cards/6_of_black_stars.svg"" width=""175px"" height=""250px""></img></td>
    <td width=300 height=300><img src=""static/images/cards/back_of_black_stars.svg"" width=""175px"" height=""250px""></img></td>
  </tr>
  <tr height=200>
    <td width=300><img src=""static/images/keys/z.svg"" width=""35%"" height=""75%""></img></td>
    <td width=300><img src=""static/images/keys/m.svg"" width=""35%"" height=""75%""></img></td>
  </tr>
</table>
  ",,,,,,,,,,,,,,,,,,,,,,,,,,,,
25,0,,html-keyboard-response,25,233947,0.0-4.0-3.0,gzi0wtbllnp,2022-09-16 18:30:43.680,5ef4d8b87faaa00c0dea0c4e,2,51,33,1,87,57,Female,,,"<p style=""font-size:50px"">You win!
+10 points this round!</p>",,,,,,,,,,,,,,,,,,,,,,,,,,,,
26,0,,html-keyboard-response,26,234448,0.0-4.0-4.0,gzi0wtbllnp,2022-09-16 18:30:43.680,5ef4d8b87faaa00c0dea0c4e,2,51,33,1,87,57,Female,,,,,,1.0,learning,0.0,A,,black,,stars,,,,A,black,stars,,1.0,1.0,NA,left,2575.0,6.0,1.0,1.0,,,
27,0,,html-keyboard-response,27,235950,0.0-4.1-0.1,gzi0wtbllnp,2022-09-16 18:30:43.680,5ef4d8b87faaa00c0dea0c4e,2,51,33,1,87,57,Female,,,"<img src=""static/images/cards/stack_of_red_stars.svg"" width=""175px"" height=""250px""></img>",,,,,,,,,,,,,,,,,,,,,,,,,,,,
28,0,,html-keyboard-response,28,237590,0.0-4.1-1.1,gzi0wtbllnp,2022-09-16 18:30:43.680,5ef4d8b87faaa00c0dea0c4e,2,51,33,1,87,57,Female,1138.0,,"
  <table>
  <tr height=300>
    <td width=300 height=300><img src=""static/images/cards/back_of_red_stars.svg"" width=""175px"" height=""250px""></img></td>
    <td width=300 height=300><img src=""static/images/cards/back_of_red_stars.svg"" width=""175px"" height=""250px""></img></td>
  </tr>
  <tr height=200>
    <td width=300><img src=""static/images/keys/z.svg"" width=""35%"" height=""75%""></img></td>
    <td width=300></td>
  </tr>
</table>
  ",90.0,1.0,,,,,,,,,,,,,,,,,,,,,,,,,,
29,0,,html-keyboard-response,29,239092,0.0-4.1-2.1,gzi0wtbllnp,2022-09-16 18:30:43.680,5ef4d8b87faaa00c0dea0c4e,2,51,33,1,87,57,Female,,,"
  <table>
  <tr height=300>
    <td width=300 height=300><img src=""static/images/cards/7_of_red_stars.svg"" width=""175px"" height=""250px""></img></td>
    <td width=300 height=300><img src=""static/images/cards/back_of_red_stars.svg"" width=""175px"" height=""250px""></img></td>
  </tr>
  <tr height=200>
    <td width=300><img src=""static/images/keys/z.svg"" width=""35%"" height=""75%""></img></td>
    <td width=300></td>
  </tr>
</table>
  ",,,,,,,,,,,,,,,,,,,,,,,,,,,,
30,0,,html-keyboard-response,30,240594,0.0-4.1-3.1,gzi0wtbllnp,2022-09-16 18:30:43.680,5ef4d8b87faaa00c0dea0c4e,2,51,33,1,87,57,Female,,,"<p style=""font-size:50px"">You win!
+10 points this round!</p>",,,,,,,,,,,,,,,,,,,,,,,,,,,,
31,0,,html-keyboard-response,31,241096,0.0-4.1-4.1,gzi0wtbllnp,2022-09-16 18:30:43.680,5ef4d8b87faaa00c0dea0c4e,2,51,33,1,87,57,Female,,,,,,1.0,learning,1.0,B,,red,,stars,,,,B,red,stars,,0.0,1.0,1,left,1138.0,7.0,1.0,1.0,,,
32,0,,html-keyboard-response,32,242598,0.0-4.2-0.2,gzi0wtbllnp,2022-09-16 18:30:43.680,5ef4d8b87faaa00c0dea0c4e,2,51,33,1,87,57,Female,,,"<img src=""static/images/cards/stack_of_black_moons.svg"" width=""175px"" height=""250px""></img>",,,,,,,,,,,,,,,,,,,,,,,,,,,,
33,0,,html-keyboard-response,33,244160,0.0-4.2-1.2,gzi0wtbllnp,2022-09-16 18:30:43.680,5ef4d8b87faaa00c0dea0c4e,2,51,33,1,87,57,Female,1060.0,,"
  <table>
  <tr height=300>
    <td width=300 height=300><img src=""static/images/cards/back_of_black_moons.svg"" width=""175px"" height=""250px""></img></td>
    <td width=300 height=300><img src=""static/images/cards/back_of_black_moons.svg"" width=""175px"" height=""250px""></img></td>
  </tr>
  <tr height=200>
    <td width=300><img src=""static/images/keys/z.svg"" width=""35%"" height=""75%""></img></td>
    <td width=300><img src=""static/images/keys/m.svg"" width=""35%"" height=""75%""></img></td>
  </tr>
</table>
  ",77.0,1.0,,,,,,,,,,,,,,,,,,,,,,,,,,
34,0,,html-keyboard-response,34,245663,0.0-4.2-2.2,gzi0wtbllnp,2022-09-16 18:30:43.680,5ef4d8b87faaa00c0dea0c4e,2,51,33,1,87,57,Female,,,"
  <table>
  <tr height=300>
    <td width=300 height=300><img src=""static/images/cards/back_of_black_moons.svg"" width=""175px"" height=""250px""></img></td>
    <td width=300 height=300><img src=""static/images/cards/6_of_black_moons.svg"" width=""175px"" height=""250px""></img></td>
  </tr>
  <tr height=200>
    <td width=300><img src=""static/images/keys/z.svg"" width=""35%"" height=""75%""></img></td>
    <td width=300><img src=""static/images/keys/m.svg"" width=""35%"" height=""75%""></img></td>
  </tr>
</table>
  ",,,,,,,,,,,,,,,,,,,,,,,,,,,,
35,0,,html-keyboard-response,35,247166,0.0-4.2-3.2,gzi0wtbllnp,2022-09-16 18:30:43.680,5ef4d8b87faaa00c0dea0c4e,2,51,33,1,87,57,Female,,,"<p style=""font-size:50px"">You win!
+10 points this round!</p>",,,,,,,,,,,,,,,,,,,,,,,,,,,,
36,0,,html-keyboard-response,36,247667,0.0-4.2-4.2,gzi0wtbllnp,2022-09-16 18:30:43.680,5ef4d8b87faaa00c0dea0c4e,2,51,33,1,87,57,Female,,,,,,1.0,learning,2.0,C,,black,,moons,,,,C,black,moons,,1.0,0.0,NA,right,1060.0,6.0,1.0,1.0,,,
37,0,,html-keyboard-response,37,249169,0.0-4.3-0.3,gzi0wtbllnp,2022-09-16 18:30:43.680,5ef4d8b87faaa00c0dea0c4e,2,51,33,1,87,57,Female,,,"<img src=""static/images/cards/stack_of_red_moons.svg"" width=""175px"" height=""250px""></img>",,,,,,,,,,,,,,,,,,,,,,,,,,,,
38,0,,html-keyboard-response,38,250325,0.0-4.3-1.3,gzi0wtbllnp,2022-09-16 18:30:43.680,5ef4d8b87faaa00c0dea0c4e,2,51,33,1,87,57,Female,654.0,,"
  <table>
  <tr height=300>
    <td width=300 height=300><img src=""static/images/cards/back_of_red_moons.svg"" width=""175px"" height=""250px""></img></td>
    <td width=300 height=300><img src=""static/images/cards/back_of_red_moons.svg"" width=""175px"" height=""250px""></img></td>
  </tr>
  <tr height=200>
    <td width=300><img src=""static/images/keys/z.svg"" width=""35%"" height=""75%""></img></td>
    <td width=300></td>
  </tr>
</table>
  ",90.0,1.0,,,,,,,,,,,,,,,,,,,,,,,,,,
39,0,,html-keyboard-response,39,251828,0.0-4.3-2.3,gzi0wtbllnp,2022-09-16 18:30:43.680,5ef4d8b87faaa00c0dea0c4e,2,51,33,1,87,57,Female,,,"
  <table>
  <tr height=300>
    <td width=300 height=300><img src=""static/images/cards/2_of_red_moons.svg"" width=""175px"" height=""250px""></img></td>
    <td width=300 height=300><img src=""static/images/cards/back_of_red_moons.svg"" width=""175px"" height=""250px""></img></td>
  </tr>
  <tr height=200>
    <td width=300><img src=""static/images/keys/z.svg"" width=""35%"" height=""75%""></img></td>
    <td width=300></td>
  </tr>
</table>
  ",,,,,,,,,,,,,,,,,,,,,,,,,,,,
40,0,,html-keyboard-response,40,253330,0.0-4.3-3.3,gzi0wtbllnp,2022-09-16 18:30:43.680,5ef4d8b87faaa00c0dea0c4e,2,51,33,1,87,57,Female,,,"<p style=""font-size:50px"">You Lose!
No points this round.</p>",,,,,,,,,,,,,,,,,,,,,,,,,,,,
41,0,,html-keyboard-response,41,253832,0.0-4.3-4.3,gzi0wtbllnp,2022-09-16 18:30:43.680,5ef4d8b87faaa00c0dea0c4e,2,51,33,1,87,57,Female,,,,,,1.0,learning,3.0,D,,red,,moons,,,,D,red,moons,,0.0,0.0,1,left,654.0,2.0,0.0,0.0,,,
42,0,,html-keyboard-response,42,255334,0.0-4.4-0.4,gzi0wtbllnp,2022-09-16 18:30:43.680,5ef4d8b87faaa00c0dea0c4e,2,51,33,1,87,57,Female,,,"<img src=""static/images/cards/stack_of_red_bolts.svg"" width=""175px"" height=""250px""></img>",,,,,,,,,,,,,,,,,,,,,,,,,,,,
43,0,,html-keyboard-response,43,256547,0.0-4.4-1.4,gzi0wtbllnp,2022-09-16 18:30:43.680,5ef4d8b87faaa00c0dea0c4e,2,51,33,1,87,57,Female,711.0000000001,,"
  <table>
  <tr height=300>
    <td width=300 height=300><img src=""static/images/cards/back_of_red_bolts.svg"" width=""175px"" height=""250px""></img></td>
    <td width=300 height=300><img src=""static/images/cards/back_of_red_bolts.svg"" width=""175px"" height=""250px""></img></td>
  </tr>
  <tr height=200>
    <td width=300><img src=""static/images/keys/z.svg"" width=""35%"" height=""75%""></img></td>
    <td width=300><img src=""static/images/keys/m.svg"" width=""35%"" height=""75%""></img></td>
  </tr>
</table>
  ",77.0,1.0,,,,,,,,,,,,,,,,,,,,,,,,,,
44,0,,html-keyboard-response,44,258049,0.0-4.4-2.4,gzi0wtbllnp,2022-09-16 18:30:43.680,5ef4d8b87faaa00c0dea0c4e,2,51,33,1,87,57,Female,,,"
  <table>
  <tr height=300>
    <td width=300 height=300><img src=""static/images/cards/back_of_red_bolts.svg"" width=""175px"" height=""250px""></img></td>
    <td width=300 height=300><img src=""static/images/cards/4_of_red_bolts.svg"" width=""175px"" height=""250px""></img></td>
  </tr>
  <tr height=200>
    <td width=300><img src=""static/images/keys/z.svg"" width=""35%"" height=""75%""></img></td>
    <td width=300><img src=""static/images/keys/m.svg"" width=""35%"" height=""75%""></img></td>
  </tr>
</table>
  ",,,,,,,,,,,,,,,,,,,,,,,,,,,,
45,0,,html-keyboard-response,45,259551,0.0-4.4-3.4,gzi0wtbllnp,2022-09-16 18:30:43.680,5ef4d8b87faaa00c0dea0c4e,2,51,33,1,87,57,Female,,,"<p style=""font-size:50px"">You win!
+10 points this round!</p>",,,,,,,,,,,,,,,,,,,,,,,,,,,,
46,0,,html-keyboard-response,46,260053,0.0-4.4-4.4,gzi0wtbllnp,2022-09-16 18:30:43.680,5ef4d8b87faaa00c0dea0c4e,2,51,33,1,87,57,Female,,,,,,1.0,learning,4.0,Xc,,red,,bolts,,,,Xc,red,bolts,,1.0,0.0,NA,right,711.0000000001,4.0,0.0,1.0,,,
47,0,,html-keyboard-response,47,261554,0.0-4.5-0.5,gzi0wtbllnp,2022-09-16 18:30:43.680,5ef4d8b87faaa00c0dea0c4e,2,51,33,1,87,57,Female,,,"<img src=""static/images/cards/stack_of_black_bolts.svg"" width=""175px"" height=""250px""></img>",,,,,,,,,,,,,,,,,,,,,,,,,,,,
48,0,,html-keyboard-response,48,262633,0.0-4.5-1.5,gzi0wtbllnp,2022-09-16 18:30:43.680,5ef4d8b87faaa00c0dea0c4e,2,51,33,1,87,57,Female,577.0,,"
  <table>
  <tr height=300>
    <td width=300 height=300><img src=""static/images/cards/back_of_black_bolts.svg"" width=""175px"" height=""250px""></img></td>
    <td width=300 height=300><img src=""static/images/cards/back_of_black_bolts.svg"" width=""175px"" height=""250px""></img></td>
  </tr>
  <tr height=200>
    <td width=300><img src=""static/images/keys/z.svg"" width=""35%"" height=""75%""></img></td>
    <td width=300></td>
  </tr>
</table>
  ",90.0,1.0,,,,,,,,,,,,,,,,,,,,,,,,,,
49,0,,html-keyboard-response,49,264135,0.0-4.5-2.5,gzi0wtbllnp,2022-09-16 18:30:43.680,5ef4d8b87faaa00c0dea0c4e,2,51,33,1,87,57,Female,,,"
  <table>
  <tr height=300>
    <td width=300 height=300><img src=""static/images/cards/2_of_black_bolts.svg"" width=""175px"" height=""250px""></img></td>
    <td width=300 height=300><img src=""static/images/cards/back_of_black_bolts.svg"" width=""175px"" height=""250px""></img></td>
  </tr>
  <tr height=200>
    <td width=300><img src=""static/images/keys/z.svg"" width=""35%"" height=""75%""></img></td>
    <td width=300></td>
  </tr>
</table>
  ",,,,,,,,,,,,,,,,,,,,,,,,,,,,
50,0,,html-keyboard-response,50,265637,0.0-4.5-3.5,gzi0wtbllnp,2022-09-16 18:30:43.680,5ef4d8b87faaa00c0dea0c4e,2,51,33,1,87,57,Female,,,"<p style=""font-size:50px"">You win!
+10 points this round!</p>",,,,,,,,,,,,,,,,,,,,,,,,,,,,
51,0,,html-keyboard-response,51,266139,0.0-4.5-4.5,gzi0wtbllnp,2022-09-16 18:30:43.680,5ef4d8b87faaa00c0dea0c4e,2,51,33,1,87,57,Female,,,,,,1.0,learning,5.0,Xnc,,black,,bolts,,,,Xnc,black,bolts,,0.0,0.0,1,left,577.0,2.0,0.0,1.0,,,
52,0,,html-keyboard-response,52,267640,0.0-4.6-0.6,gzi0wtbllnp,2022-09-16 18:30:43.680,5ef4d8b87faaa00c0dea0c4e,2,51,33,1,87,57,Female,,,"<img src=""static/images/cards/stack_of_black_stars.svg"" width=""175px"" height=""250px""></img>",,,,,,,,,,,,,,,,,,,,,,,,,,,,
53,0,,html-keyboard-response,53,268899,0.0-4.6-1.6,gzi0wtbllnp,2022-09-16 18:30:43.680,5ef4d8b87faaa00c0dea0c4e,2,51,33,1,87,57,Female,758.0,,"
  <table>
  <tr height=300>
    <td width=300 height=300><img src=""static/images/cards/back_of_black_stars.svg"" width=""175px"" height=""250px""></img></td>
    <td width=300 height=300><img src=""static/images/cards/back_of_black_stars.svg"" width=""175px"" height=""250px""></img></td>
  </tr>
  <tr height=200>
    <td width=300><img src=""static/images/keys/z.svg"" width=""35%"" height=""75%""></img></td>
    <td width=300><img src=""static/images/keys/m.svg"" width=""35%"" height=""75%""></img></td>
  </tr>
</table>
  ",90.0,1.0,,,,,,,,,,,,,,,,,,,,,,,,,,
54,0,,html-keyboard-response,54,270401,0.0-4.6-2.6,gzi0wtbllnp,2022-09-16 18:30:43.680,5ef4d8b87faaa00c0dea0c4e,2,51,33,1,87,57,Female,,,"
  <table>
  <tr height=300>
    <td width=300 height=300><img src=""static/images/cards/1_of_black_stars.svg"" width=""175px"" height=""250px""></img></td>
    <td width=300 height=300><img src=""static/images/cards/back_of_black_stars.svg"" width=""175px"" height=""250px""></img></td>
  </tr>
  <tr height=200>
    <td width=300><img src=""static/images/keys/z.svg"" width=""35%"" height=""75%""></img></td>
    <td width=300><img src=""static/images/keys/m.svg"" width=""35%"" height=""75%""></img></td>
  </tr>
</table>
  ",,,,,,,,,,,,,,,,,,,,,,,,,,,,
55,0,,html-keyboard-response,55,271903,0.0-4.6-3.6,gzi0wtbllnp,2022-09-16 18:30:43.680,5ef4d8b87faaa00c0dea0c4e,2,51,33,1,87,57,Female,,,"<p style=""font-size:50px"">You Lose!
No points this round.</p>",,,,,,,,,,,,,,,,,,,,,,,,,,,,
56,0,,html-keyboard-response,56,272405,0.0-4.6-4.6,gzi0wtbllnp,2022-09-16 18:30:43.680,5ef4d8b87faaa00c0dea0c4e,2,51,33,1,87,57,Female,,,,,,1.0,learning,6.0,A,,black,,stars,,,,A,black,stars,,1.0,1.0,NA,left,758.0,1.0,0.0,0.0,,,
57,0,,html-keyboard-response,57,273907,0.0-4.7-0.7,gzi0wtbllnp,2022-09-16 18:30:43.680,5ef4d8b87faaa00c0dea0c4e,2,51,33,1,87,57,Female,,,"<img src=""static/images/cards/stack_of_red_stars.svg"" width=""175px"" height=""250px""></img>",,,,,,,,,,,,,,,,,,,,,,,,,,,,
58,0,,html-keyboard-response,58,275379,0.0-4.7-1.7,gzi0wtbllnp,2022-09-16 18:30:43.680,5ef4d8b87faaa00c0dea0c4e,2,51,33,1,87,57,Female,969.9999999999,,"
  <table>
  <tr height=300>
    <td width=300 height=300><img src=""static/images/cards/back_of_red_stars.svg"" width=""175px"" height=""250px""></img></td>
    <td width=300 height=300><img src=""static/images/cards/back_of_red_stars.svg"" width=""175px"" height=""250px""></img></td>
  </tr>
  <tr height=200>
    <td width=300></td>
    <td width=300><img src=""static/images/keys/m.svg"" width=""35%"" height=""75%""></img></td>
  </tr>
</table>
  ",77.0,1.0,,,,,,,,,,,,,,,,,,,,,,,,,,
59,0,,html-keyboard-response,59,276881,0.0-4.7-2.7,gzi0wtbllnp,2022-09-16 18:30:43.680,5ef4d8b87faaa00c0dea0c4e,2,51,33,1,87,57,Female,,,"
  <table>
  <tr height=300>
    <td width=300 height=300><img src=""static/images/cards/back_of_red_stars.svg"" width=""175px"" height=""250px""></img></td>
    <td width=300 height=300><img src=""static/images/cards/8_of_red_stars.svg"" width=""175px"" height=""250px""></img></td>
  </tr>
  <tr height=200>
    <td width=300></td>
    <td width=300><img src=""static/images/keys/m.svg"" width=""35%"" height=""75%""></img></td>
  </tr>
</table>
  ",,,,,,,,,,,,,,,,,,,,,,,,,,,,
60,0,,html-keyboard-response,60,278383,0.0-4.7-3.7,gzi0wtbllnp,2022-09-16 18:30:43.680,5ef4d8b87faaa00c0dea0c4e,2,51,33,1,87,57,Female,,,"<p style=""font-size:50px"">You win!
+10 points this round!</p>",,,,,,,,,,,,,,,,,,,,,,,,,,,,
61,0,,html-keyboard-response,61,278884,0.0-4.7-4.7,gzi0wtbllnp,2022-09-16 18:30:43.680,5ef4d8b87faaa00c0dea0c4e,2,51,33,1,87,57,Female,,,,,,1.0,learning,7.0,B,,red,,stars,,,,B,red,stars,,0.0,1.0,0,right,969.9999999999,8.0,1.0,1.0,,,
62,0,,html-keyboard-response,62,280386,0.0-4.8-0.8,gzi0wtbllnp,2022-09-16 18:30:43.680,5ef4d8b87faaa00c0dea0c4e,2,51,33,1,87,57,Female,,,"<img src=""static/images/cards/stack_of_black_moons.svg"" width=""175px"" height=""250px""></img>",,,,,,,,,,,,,,,,,,,,,,,,,,,,
63,0,,html-keyboard-response,63,281668,0.0-4.8-1.8,gzi0wtbllnp,2022-09-16 18:30:43.680,5ef4d8b87faaa00c0dea0c4e,2,51,33,1,87,57,Female,781.0,,"
  <table>
  <tr height=300>
    <td width=300 height=300><img src=""static/images/cards/back_of_black_moons.svg"" width=""175px"" height=""250px""></img></td>
    <td width=300 height=300><img src=""static/images/cards/back_of_black_moons.svg"" width=""175px"" height=""250px""></img></td>
  </tr>
  <tr height=200>
    <td width=300><img src=""static/images/keys/z.svg"" width=""35%"" height=""75%""></img></td>
    <td width=300><img src=""static/images/keys/m.svg"" width=""35%"" height=""75%""></img></td>
  </tr>
</table>
  ",90.0,1.0,,,,,,,,,,,,,,,,,,,,,,,,,,
64,0,,html-keyboard-response,64,283170,0.0-4.8-2.8,gzi0wtbllnp,2022-09-16 18:30:43.680,5ef4d8b87faaa00c0dea0c4e,2,51,33,1,87,57,Female,,,"
  <table>
  <tr height=300>
    <td width=300 height=300><img src=""static/images/cards/3_of_black_moons.svg"" width=""175px"" height=""250px""></img></td>
    <td width=300 height=300><img src=""static/images/cards/back_of_black_moons.svg"" width=""175px"" height=""250px""></img></td>
  </tr>
  <tr height=200>
    <td width=300><img src=""static/images/keys/z.svg"" width=""35%"" height=""75%""></img></td>
    <td width=300><img src=""static/images/keys/m.svg"" width=""35%"" height=""75%""></img></td>
  </tr>
</table>
  ",,,,,,,,,,,,,,,,,,,,,,,,,,,,
65,0,,html-keyboard-response,65,284673,0.0-4.8-3.8,gzi0wtbllnp,2022-09-16 18:30:43.680,5ef4d8b87faaa00c0dea0c4e,2,51,33,1,87,57,Female,,,"<p style=""font-size:50px"">You win!
+10 points this round!</p>",,,,,,,,,,,,,,,,,,,,,,,,,,,,
66,0,,html-keyboard-response,66,285174,0.0-4.8-4.8,gzi0wtbllnp,2022-09-16 18:30:43.680,5ef4d8b87faaa00c0dea0c4e,2,51,33,1,87,57,Female,,,,,,1.0,learning,8.0,C,,black,,moons,,,,C,black,moons,,1.0,0.0,NA,left,781.0,3.0,0.0,1.0,,,
67,0,,html-keyboard-response,67,286675,0.0-4.9-0.9,gzi0wtbllnp,2022-09-16 18:30:43.680,5ef4d8b87faaa00c0dea0c4e,2,51,33,1,87,57,Female,,,"<img src=""static/images/cards/stack_of_red_moons.svg"" width=""175px"" height=""250px""></img>",,,,,,,,,,,,,,,,,,,,,,,,,,,,
68,0,,html-keyboard-response,68,287935,0.0-4.9-1.9,gzi0wtbllnp,2022-09-16 18:30:43.680,5ef4d8b87faaa00c0dea0c4e,2,51,33,1,87,57,Female,757.0,,"
  <table>
  <tr height=300>
    <td width=300 height=300><img src=""static/images/cards/back_of_red_moons.svg"" width=""175px"" height=""250px""></img></td>
    <td width=300 height=300><img src=""static/images/cards/back_of_red_moons.svg"" width=""175px"" height=""250px""></img></td>
  </tr>
  <tr height=200>
    <td width=300></td>
    <td width=300><img src=""static/images/keys/m.svg"" width=""35%"" height=""75%""></img></td>
  </tr>
</table>
  ",77.0,1.0,,,,,,,,,,,,,,,,,,,,,,,,,,
69,0,,html-keyboard-response,69,289437,0.0-4.9-2.9,gzi0wtbllnp,2022-09-16 18:30:43.680,5ef4d8b87faaa00c0dea0c4e,2,51,33,1,87,57,Female,,,"
  <table>
  <tr height=300>
    <td width=300 height=300><img src=""static/images/cards/back_of_red_moons.svg"" width=""175px"" height=""250px""></img></td>
    <td width=300 height=300><img src=""static/images/cards/8_of_red_moons.svg"" width=""175px"" height=""250px""></img></td>
  </tr>
  <tr height=200>
    <td width=300></td>
    <td width=300><img src=""static/images/keys/m.svg"" width=""35%"" height=""75%""></img></td>
  </tr>
</table>
  ",,,,,,,,,,,,,,,,,,,,,,,,,,,,
70,0,,html-keyboard-response,70,290939,0.0-4.9-3.9,gzi0wtbllnp,2022-09-16 18:30:43.680,5ef4d8b87faaa00c0dea0c4e,2,51,33,1,87,57,Female,,,"<p style=""font-size:50px"">You Lose!
No points this round.</p>",,,,,,,,,,,,,,,,,,,,,,,,,,,,
71,0,,html-keyboard-response,71,291440,0.0-4.9-4.9,gzi0wtbllnp,2022-09-16 18:30:43.680,5ef4d8b87faaa00c0dea0c4e,2,51,33,1,87,57,Female,,,,,,1.0,learning,9.0,D,,red,,moons,,,,D,red,moons,,0.0,0.0,0,right,757.0,8.0,1.0,0.0,,,
72,0,,html-keyboard-response,72,292942,0.0-4.10-0.10,gzi0wtbllnp,2022-09-16 18:30:43.680,5ef4d8b87faaa00c0dea0c4e,2,51,33,1,87,57,Female,,,"<img src=""static/images/cards/stack_of_red_bolts.svg"" width=""175px"" height=""250px""></img>",,,,,,,,,,,,,,,,,,,,,,,,,,,,
73,0,,html-keyboard-response,73,294122,0.0-4.10-1.10,gzi0wtbllnp,2022-09-16 18:30:43.680,5ef4d8b87faaa00c0dea0c4e,2,51,33,1,87,57,Female,678.0,,"
  <table>
  <tr height=300>
    <td width=300 height=300><img src=""static/images/cards/back_of_red_bolts.svg"" width=""175px"" height=""250px""></img></td>
    <td width=300 height=300><img src=""static/images/cards/back_of_red_bolts.svg"" width=""175px"" height=""250px""></img></td>
  </tr>
  <tr height=200>
    <td width=300><img src=""static/images/keys/z.svg"" width=""35%"" height=""75%""></img></td>
    <td width=300><img src=""static/images/keys/m.svg"" width=""35%"" height=""75%""></img></td>
  </tr>
</table>
  ",90.0,1.0,,,,,,,,,,,,,,,,,,,,,,,,,,
74,0,,html-keyboard-response,74,295624,0.0-4.10-2.10,gzi0wtbllnp,2022-09-16 18:30:43.680,5ef4d8b87faaa00c0dea0c4e,2,51,33,1,87,57,Female,,,"
  <table>
  <tr height=300>
    <td width=300 height=300><img src=""static/images/cards/3_of_red_bolts.svg"" width=""175px"" height=""250px""></img></td>
    <td width=300 height=300><img src=""static/images/cards/back_of_red_bolts.svg"" width=""175px"" height=""250px""></img></td>
  </tr>
  <tr height=200>
    <td width=300><img src=""static/images/keys/z.svg"" width=""35%"" height=""75%""></img></td>
    <td width=300><img src=""static/images/keys/m.svg"" width=""35%"" height=""75%""></img></td>
  </tr>
</table>
  ",,,,,,,,,,,,,,,,,,,,,,,,,,,,
75,0,,html-keyboard-response,75,297127,0.0-4.10-3.10,gzi0wtbllnp,2022-09-16 18:30:43.680,5ef4d8b87faaa00c0dea0c4e,2,51,33,1,87,57,Female,,,"<p style=""font-size:50px"">You win!
+10 points this round!</p>",,,,,,,,,,,,,,,,,,,,,,,,,,,,
76,0,,html-keyboard-response,76,297628,0.0-4.10-4.10,gzi0wtbllnp,2022-09-16 18:30:43.680,5ef4d8b87faaa00c0dea0c4e,2,51,33,1,87,57,Female,,,,,,1.0,learning,10.0,Xc,,red,,bolts,,,,Xc,red,bolts,,1.0,0.0,NA,left,678.0,3.0,0.0,1.0,,,
77,0,,html-keyboard-response,77,299130,0.0-4.11-0.11,gzi0wtbllnp,2022-09-16 18:30:43.680,5ef4d8b87faaa00c0dea0c4e,2,51,33,1,87,57,Female,,,"<img src=""static/images/cards/stack_of_black_bolts.svg"" width=""175px"" height=""250px""></img>",,,,,,,,,,,,,,,,,,,,,,,,,,,,
78,0,,html-keyboard-response,78,300096,0.0-4.11-1.11,gzi0wtbllnp,2022-09-16 18:30:43.680,5ef4d8b87faaa00c0dea0c4e,2,51,33,1,87,57,Female,465.0,,"
  <table>
  <tr height=300>
    <td width=300 height=300><img src=""static/images/cards/back_of_black_bolts.svg"" width=""175px"" height=""250px""></img></td>
    <td width=300 height=300><img src=""static/images/cards/back_of_black_bolts.svg"" width=""175px"" height=""250px""></img></td>
  </tr>
  <tr height=200>
    <td width=300></td>
    <td width=300><img src=""static/images/keys/m.svg"" width=""35%"" height=""75%""></img></td>
  </tr>
</table>
  ",77.0,1.0,,,,,,,,,,,,,,,,,,,,,,,,,,
79,0,,html-keyboard-response,79,301597,0.0-4.11-2.11,gzi0wtbllnp,2022-09-16 18:30:43.680,5ef4d8b87faaa00c0dea0c4e,2,51,33,1,87,57,Female,,,"
  <table>
  <tr height=300>
    <td width=300 height=300><img src=""static/images/cards/back_of_black_bolts.svg"" width=""175px"" height=""250px""></img></td>
    <td width=300 height=300><img src=""static/images/cards/9_of_black_bolts.svg"" width=""175px"" height=""250px""></img></td>
  </tr>
  <tr height=200>
    <td width=300></td>
    <td width=300><img src=""static/images/keys/m.svg"" width=""35%"" height=""75%""></img></td>
  </tr>
</table>
  ",,,,,,,,,,,,,,,,,,,,,,,,,,,,
80,0,,html-keyboard-response,80,303100,0.0-4.11-3.11,gzi0wtbllnp,2022-09-16 18:30:43.680,5ef4d8b87faaa00c0dea0c4e,2,51,33,1,87,57,Female,,,"<p style=""font-size:50px"">You win!
+10 points this round!</p>",,,,,,,,,,,,,,,,,,,,,,,,,,,,
81,0,,html-keyboard-response,81,303601,0.0-4.11-4.11,gzi0wtbllnp,2022-09-16 18:30:43.680,5ef4d8b87faaa00c0dea0c4e,2,51,33,1,87,57,Female,,,,,,1.0,learning,11.0,Xnc,,black,,bolts,,,,Xnc,black,bolts,,0.0,0.0,0,right,465.0,9.0,1.0,1.0,,,
82,0,,html-keyboard-response,82,305102,0.0-4.12-0.12,gzi0wtbllnp,2022-09-16 18:30:43.680,5ef4d8b87faaa00c0dea0c4e,2,51,33,1,87,57,Female,,,"<img src=""static/images/cards/stack_of_black_stars.svg"" width=""175px"" height=""250px""></img>",,,,,,,,,,,,,,,,,,,,,,,,,,,,
83,0,,html-keyboard-response,83,306351,0.0-4.12-1.12,gzi0wtbllnp,2022-09-16 18:30:43.680,5ef4d8b87faaa00c0dea0c4e,2,51,33,1,87,57,Female,745.9999999999,,"
  <table>
  <tr height=300>
    <td width=300 height=300><img src=""static/images/cards/back_of_black_stars.svg"" width=""175px"" height=""250px""></img></td>
    <td width=300 height=300><img src=""static/images/cards/back_of_black_stars.svg"" width=""175px"" height=""250px""></img></td>
  </tr>
  <tr height=200>
    <td width=300><img src=""static/images/keys/z.svg"" width=""35%"" height=""75%""></img></td>
    <td width=300><img src=""static/images/keys/m.svg"" width=""35%"" height=""75%""></img></td>
  </tr>
</table>
  ",90.0,1.0,,,,,,,,,,,,,,,,,,,,,,,,,,
84,0,,html-keyboard-response,84,307852,0.0-4.12-2.12,gzi0wtbllnp,2022-09-16 18:30:43.680,5ef4d8b87faaa00c0dea0c4e,2,51,33,1,87,57,Female,,,"
  <table>
  <tr height=300>
    <td width=300 height=300><img src=""static/images/cards/1_of_black_stars.svg"" width=""175px"" height=""250px""></img></td>
    <td width=300 height=300><img src=""static/images/cards/back_of_black_stars.svg"" width=""175px"" height=""250px""></img></td>
  </tr>
  <tr height=200>
    <td width=300><img src=""static/images/keys/z.svg"" width=""35%"" height=""75%""></img></td>
    <td width=300><img src=""static/images/keys/m.svg"" width=""35%"" height=""75%""></img></td>
  </tr>
</table>
  ",,,,,,,,,,,,,,,,,,,,,,,,,,,,
85,0,,html-keyboard-response,85,309355,0.0-4.12-3.12,gzi0wtbllnp,2022-09-16 18:30:43.680,5ef4d8b87faaa00c0dea0c4e,2,51,33,1,87,57,Female,,,"<p style=""font-size:50px"">You Lose!
No points this round.</p>",,,,,,,,,,,,,,,,,,,,,,,,,,,,
86,0,,html-keyboard-response,86,309857,0.0-4.12-4.12,gzi0wtbllnp,2022-09-16 18:30:43.680,5ef4d8b87faaa00c0dea0c4e,2,51,33,1,87,57,Female,,,,,,1.0,learning,12.0,A,,black,,stars,,,,A,black,stars,,1.0,1.0,NA,left,745.9999999999,1.0,0.0,0.0,,,
87,0,,html-keyboard-response,87,311357,0.0-4.13-0.13,gzi0wtbllnp,2022-09-16 18:30:43.680,5ef4d8b87faaa00c0dea0c4e,2,51,33,1,87,57,Female,,,"<img src=""static/images/cards/stack_of_red_stars.svg"" width=""175px"" height=""250px""></img>",,,,,,,,,,,,,,,,,,,,,,,,,,,,
88,0,,html-keyboard-response,88,312415,0.0-4.13-1.13,gzi0wtbllnp,2022-09-16 18:30:43.680,5ef4d8b87faaa00c0dea0c4e,2,51,33,1,87,57,Female,554.9999999999,,"
  <table>
  <tr height=300>
    <td width=300 height=300><img src=""static/images/cards/back_of_red_stars.svg"" width=""175px"" height=""250px""></img></td>
    <td width=300 height=300><img src=""static/images/cards/back_of_red_stars.svg"" width=""175px"" height=""250px""></img></td>
  </tr>
  <tr height=200>
    <td width=300></td>
    <td width=300><img src=""static/images/keys/m.svg"" width=""35%"" height=""75%""></img></td>
  </tr>
</table>
  ",77.0,1.0,,,,,,,,,,,,,,,,,,,,,,,,,,
89,0,,html-keyboard-response,89,313917,0.0-4.13-2.13,gzi0wtbllnp,2022-09-16 18:30:43.680,5ef4d8b87faaa00c0dea0c4e,2,51,33,1,87,57,Female,,,"
  <table>
  <tr height=300>
    <td width=300 height=300><img src=""static/images/cards/back_of_red_stars.svg"" width=""175px"" height=""250px""></img></td>
    <td width=300 height=300><img src=""static/images/cards/3_of_red_stars.svg"" width=""175px"" height=""250px""></img></td>
  </tr>
  <tr height=200>
    <td width=300></td>
    <td width=300><img src=""static/images/keys/m.svg"" width=""35%"" height=""75%""></img></td>
  </tr>
</table>
  ",,,,,,,,,,,,,,,,,,,,,,,,,,,,
90,0,,html-keyboard-response,90,315420,0.0-4.13-3.13,gzi0wtbllnp,2022-09-16 18:30:43.680,5ef4d8b87faaa00c0dea0c4e,2,51,33,1,87,57,Female,,,"<p style=""font-size:50px"">You Lose!
No points this round.</p>",,,,,,,,,,,,,,,,,,,,,,,,,,,,
91,0,,html-keyboard-response,91,315921,0.0-4.13-4.13,gzi0wtbllnp,2022-09-16 18:30:43.680,5ef4d8b87faaa00c0dea0c4e,2,51,33,1,87,57,Female,,,,,,1.0,learning,13.0,B,,red,,stars,,,,B,red,stars,,0.0,1.0,0,right,554.9999999999,3.0,0.0,0.0,,,
92,0,,html-keyboard-response,92,317423,0.0-4.14-0.14,gzi0wtbllnp,2022-09-16 18:30:43.680,5ef4d8b87faaa00c0dea0c4e,2,51,33,1,87,57,Female,,,"<img src=""static/images/cards/stack_of_black_moons.svg"" width=""175px"" height=""250px""></img>",,,,,,,,,,,,,,,,,,,,,,,,,,,,
93,0,,html-keyboard-response,93,318715,0.0-4.14-1.14,gzi0wtbllnp,2022-09-16 18:30:43.680,5ef4d8b87faaa00c0dea0c4e,2,51,33,1,87,57,Female,790.0,,"
  <table>
  <tr height=300>
    <td width=300 height=300><img src=""static/images/cards/back_of_black_moons.svg"" width=""175px"" height=""250px""></img></td>
    <td width=300 height=300><img src=""static/images/cards/back_of_black_moons.svg"" width=""175px"" height=""250px""></img></td>
  </tr>
  <tr height=200>
    <td width=300><img src=""static/images/keys/z.svg"" width=""35%"" height=""75%""></img></td>
    <td width=300><img src=""static/images/keys/m.svg"" width=""35%"" height=""75%""></img></td>
  </tr>
</table>
  ",77.0,1.0,,,,,,,,,,,,,,,,,,,,,,,,,,
94,0,,html-keyboard-response,94,320217,0.0-4.14-2.14,gzi0wtbllnp,2022-09-16 18:30:43.680,5ef4d8b87faaa00c0dea0c4e,2,51,33,1,87,57,Female,,,"
  <table>
  <tr height=300>
    <td width=300 height=300><img src=""static/images/cards/back_of_black_moons.svg"" width=""175px"" height=""250px""></img></td>
    <td width=300 height=300><img src=""static/images/cards/1_of_black_moons.svg"" width=""175px"" height=""250px""></img></td>
  </tr>
  <tr height=200>
    <td width=300><img src=""static/images/keys/z.svg"" width=""35%"" height=""75%""></img></td>
    <td width=300><img src=""static/images/keys/m.svg"" width=""35%"" height=""75%""></img></td>
  </tr>
</table>
  ",,,,,,,,,,,,,,,,,,,,,,,,,,,,
95,0,,html-keyboard-response,95,321719,0.0-4.14-3.14,gzi0wtbllnp,2022-09-16 18:30:43.680,5ef4d8b87faaa00c0dea0c4e,2,51,33,1,87,57,Female,,,"<p style=""font-size:50px"">You Lose!
No points this round.</p>",,,,,,,,,,,,,,,,,,,,,,,,,,,,
96,0,,html-keyboard-response,96,322221,0.0-4.14-4.14,gzi0wtbllnp,2022-09-16 18:30:43.680,5ef4d8b87faaa00c0dea0c4e,2,51,33,1,87,57,Female,,,,,,1.0,learning,14.0,C,,black,,moons,,,,C,black,moons,,1.0,0.0,NA,right,790.0,1.0,0.0,0.0,,,
97,0,,html-keyboard-response,97,323723,0.0-4.15-0.15,gzi0wtbllnp,2022-09-16 18:30:43.680,5ef4d8b87faaa00c0dea0c4e,2,51,33,1,87,57,Female,,,"<img src=""static/images/cards/stack_of_red_moons.svg"" width=""175px"" height=""250px""></img>",,,,,,,,,,,,,,,,,,,,,,,,,,,,
98,0,,html-keyboard-response,98,325139,0.0-4.15-1.15,gzi0wtbllnp,2022-09-16 18:30:43.680,5ef4d8b87faaa00c0dea0c4e,2,51,33,1,87,57,Female,914.0,,"
  <table>
  <tr height=300>
    <td width=300 height=300><img src=""static/images/cards/back_of_red_moons.svg"" width=""175px"" height=""250px""></img></td>
    <td width=300 height=300><img src=""static/images/cards/back_of_red_moons.svg"" width=""175px"" height=""250px""></img></td>
  </tr>
  <tr height=200>
    <td width=300><img src=""static/images/keys/z.svg"" width=""35%"" height=""75%""></img></td>
    <td width=300></td>
  </tr>
</table>
  ",90.0,1.0,,,,,,,,,,,,,,,,,,,,,,,,,,
99,0,,html-keyboard-response,99,326641,0.0-4.15-2.15,gzi0wtbllnp,2022-09-16 18:30:43.680,5ef4d8b87faaa00c0dea0c4e,2,51,33,1,87,57,Female,,,"
  <table>
  <tr height=300>
    <td width=300 height=300><img src=""static/images/cards/7_of_red_moons.svg"" width=""175px"" height=""250px""></img></td>
    <td width=300 height=300><img src=""static/images/cards/back_of_red_moons.svg"" width=""175px"" height=""250px""></img></td>
  </tr>
  <tr height=200>
    <td width=300><img src=""static/images/keys/z.svg"" width=""35%"" height=""75%""></img></td>
    <td width=300></td>
  </tr>
</table>
  ",,,,,,,,,,,,,,,,,,,,,,,,,,,,
100,0,,html-keyboard-response,100,328144,0.0-4.15-3.15,gzi0wtbllnp,2022-09-16 18:30:43.680,5ef4d8b87faaa00c0dea0c4e,2,51,33,1,87,57,Female,,,"<p style=""font-size:50px"">You win!
+10 points this round!</p>",,,,,,,,,,,,,,,,,,,,,,,,,,,,
101,0,,html-keyboard-response,101,328645,0.0-4.15-4.15,gzi0wtbllnp,2022-09-16 18:30:43.680,5ef4d8b87faaa00c0dea0c4e,2,51,33,1,87,57,Female,,,,,,1.0,learning,15.0,D,,red,,moons,,,,D,red,moons,,0.0,0.0,1,left,914.0,7.0,1.0,1.0,,,
102,0,,html-keyboard-response,102,330147,0.0-4.16-0.16,gzi0wtbllnp,2022-09-16 18:30:43.680,5ef4d8b87faaa00c0dea0c4e,2,51,33,1,87,57,Female,,,"<img src=""static/images/cards/stack_of_red_bolts.svg"" width=""175px"" height=""250px""></img>",,,,,,,,,,,,,,,,,,,,,,,,,,,,
103,0,,html-keyboard-response,103,331315,0.0-4.16-1.16,gzi0wtbllnp,2022-09-16 18:30:43.680,5ef4d8b87faaa00c0dea0c4e,2,51,33,1,87,57,Female,665.0,,"
  <table>
  <tr height=300>
    <td width=300 height=300><img src=""static/images/cards/back_of_red_bolts.svg"" width=""175px"" height=""250px""></img></td>
    <td width=300 height=300><img src=""static/images/cards/back_of_red_bolts.svg"" width=""175px"" height=""250px""></img></td>
  </tr>
  <tr height=200>
    <td width=300><img src=""static/images/keys/z.svg"" width=""35%"" height=""75%""></img></td>
    <td width=300><img src=""static/images/keys/m.svg"" width=""35%"" height=""75%""></img></td>
  </tr>
</table>
  ",77.0,1.0,,,,,,,,,,,,,,,,,,,,,,,,,,
104,0,,html-keyboard-response,104,332817,0.0-4.16-2.16,gzi0wtbllnp,2022-09-16 18:30:43.680,5ef4d8b87faaa00c0dea0c4e,2,51,33,1,87,57,Female,,,"
  <table>
  <tr height=300>
    <td width=300 height=300><img src=""static/images/cards/back_of_red_bolts.svg"" width=""175px"" height=""250px""></img></td>
    <td width=300 height=300><img src=""static/images/cards/7_of_red_bolts.svg"" width=""175px"" height=""250px""></img></td>
  </tr>
  <tr height=200>
    <td width=300><img src=""static/images/keys/z.svg"" width=""35%"" height=""75%""></img></td>
    <td width=300><img src=""static/images/keys/m.svg"" width=""35%"" height=""75%""></img></td>
  </tr>
</table>
  ",,,,,,,,,,,,,,,,,,,,,,,,,,,,
105,0,,html-keyboard-response,105,334320,0.0-4.16-3.16,gzi0wtbllnp,2022-09-16 18:30:43.680,5ef4d8b87faaa00c0dea0c4e,2,51,33,1,87,57,Female,,,"<p style=""font-size:50px"">You win!
+10 points this round!</p>",,,,,,,,,,,,,,,,,,,,,,,,,,,,
106,0,,html-keyboard-response,106,334822,0.0-4.16-4.16,gzi0wtbllnp,2022-09-16 18:30:43.680,5ef4d8b87faaa00c0dea0c4e,2,51,33,1,87,57,Female,,,,,,1.0,learning,16.0,Xc,,red,,bolts,,,,Xc,red,bolts,,1.0,0.0,NA,right,665.0,7.0,1.0,1.0,,,
107,0,,html-keyboard-response,107,336323,0.0-4.17-0.17,gzi0wtbllnp,2022-09-16 18:30:43.680,5ef4d8b87faaa00c0dea0c4e,2,51,33,1,87,57,Female,,,"<img src=""static/images/cards/stack_of_black_bolts.svg"" width=""175px"" height=""250px""></img>",,,,,,,,,,,,,,,,,,,,,,,,,,,,
108,0,,html-keyboard-response,108,337345,0.0-4.17-1.17,gzi0wtbllnp,2022-09-16 18:30:43.680,5ef4d8b87faaa00c0dea0c4e,2,51,33,1,87,57,Female,520.0,,"
  <table>
  <tr height=300>
    <td width=300 height=300><img src=""static/images/cards/back_of_black_bolts.svg"" width=""175px"" height=""250px""></img></td>
    <td width=300 height=300><img src=""static/images/cards/back_of_black_bolts.svg"" width=""175px"" height=""250px""></img></td>
  </tr>
  <tr height=200>
    <td width=300><img src=""static/images/keys/z.svg"" width=""35%"" height=""75%""></img></td>
    <td width=300></td>
  </tr>
</table>
  ",90.0,1.0,,,,,,,,,,,,,,,,,,,,,,,,,,
109,0,,html-keyboard-response,109,338847,0.0-4.17-2.17,gzi0wtbllnp,2022-09-16 18:30:43.680,5ef4d8b87faaa00c0dea0c4e,2,51,33,1,87,57,Female,,,"
  <table>
  <tr height=300>
    <td width=300 height=300><img src=""static/images/cards/7_of_black_bolts.svg"" width=""175px"" height=""250px""></img></td>
    <td width=300 height=300><img src=""static/images/cards/back_of_black_bolts.svg"" width=""175px"" height=""250px""></img></td>
  </tr>
  <tr height=200>
    <td width=300><img src=""static/images/keys/z.svg"" width=""35%"" height=""75%""></img></td>
    <td width=300></td>
  </tr>
</table>
  ",,,,,,,,,,,,,,,,,,,,,,,,,,,,
110,0,,html-keyboard-response,110,340349,0.0-4.17-3.17,gzi0wtbllnp,2022-09-16 18:30:43.680,5ef4d8b87faaa00c0dea0c4e,2,51,33,1,87,57,Female,,,"<p style=""font-size:50px"">You win!
+10 points this round!</p>",,,,,,,,,,,,,,,,,,,,,,,,,,,,
111,0,,html-keyboard-response,111,340851,0.0-4.17-4.17,gzi0wtbllnp,2022-09-16 18:30:43.680,5ef4d8b87faaa00c0dea0c4e,2,51,33,1,87,57,Female,,,,,,1.0,learning,17.0,Xnc,,black,,bolts,,,,Xnc,black,bolts,,0.0,0.0,1,left,520.0,7.0,1.0,1.0,,,
112,0,,html-keyboard-response,112,342353,0.0-4.18-0.18,gzi0wtbllnp,2022-09-16 18:30:43.680,5ef4d8b87faaa00c0dea0c4e,2,51,33,1,87,57,Female,,,"<img src=""static/images/cards/stack_of_black_stars.svg"" width=""175px"" height=""250px""></img>",,,,,,,,,,,,,,,,,,,,,,,,,,,,
113,0,,html-keyboard-response,113,343443,0.0-4.18-1.18,gzi0wtbllnp,2022-09-16 18:30:43.680,5ef4d8b87faaa00c0dea0c4e,2,51,33,1,87,57,Female,587.0000000001,,"
  <table>
  <tr height=300>
    <td width=300 height=300><img src=""static/images/cards/back_of_black_stars.svg"" width=""175px"" height=""250px""></img></td>
    <td width=300 height=300><img src=""static/images/cards/back_of_black_stars.svg"" width=""175px"" height=""250px""></img></td>
  </tr>
  <tr height=200>
    <td width=300><img src=""static/images/keys/z.svg"" width=""35%"" height=""75%""></img></td>
    <td width=300><img src=""static/images/keys/m.svg"" width=""35%"" height=""75%""></img></td>
  </tr>
</table>
  ",90.0,1.0,,,,,,,,,,,,,,,,,,,,,,,,,,
114,0,,html-keyboard-response,114,344944,0.0-4.18-2.18,gzi0wtbllnp,2022-09-16 18:30:43.680,5ef4d8b87faaa00c0dea0c4e,2,51,33,1,87,57,Female,,,"
  <table>
  <tr height=300>
    <td width=300 height=300><img src=""static/images/cards/6_of_black_stars.svg"" width=""175px"" height=""250px""></img></td>
    <td width=300 height=300><img src=""static/images/cards/back_of_black_stars.svg"" width=""175px"" height=""250px""></img></td>
  </tr>
  <tr height=200>
    <td width=300><img src=""static/images/keys/z.svg"" width=""35%"" height=""75%""></img></td>
    <td width=300><img src=""static/images/keys/m.svg"" width=""35%"" height=""75%""></img></td>
  </tr>
</table>
  ",,,,,,,,,,,,,,,,,,,,,,,,,,,,
115,0,,html-keyboard-response,115,346447,0.0-4.18-3.18,gzi0wtbllnp,2022-09-16 18:30:43.680,5ef4d8b87faaa00c0dea0c4e,2,51,33,1,87,57,Female,,,"<p style=""font-size:50px"">You win!
+10 points this round!</p>",,,,,,,,,,,,,,,,,,,,,,,,,,,,
116,0,,html-keyboard-response,116,346948,0.0-4.18-4.18,gzi0wtbllnp,2022-09-16 18:30:43.680,5ef4d8b87faaa00c0dea0c4e,2,51,33,1,87,57,Female,,,,,,1.0,learning,18.0,A,,black,,stars,,,,A,black,stars,,1.0,1.0,NA,left,587.0000000001,6.0,1.0,1.0,,,
117,0,,html-keyboard-response,117,348449,0.0-4.19-0.19,gzi0wtbllnp,2022-09-16 18:30:43.680,5ef4d8b87faaa00c0dea0c4e,2,51,33,1,87,57,Female,,,"<img src=""static/images/cards/stack_of_red_stars.svg"" width=""175px"" height=""250px""></img>",,,,,,,,,,,,,,,,,,,,,,,,,,,,
118,0,,html-keyboard-response,118,349777,0.0-4.19-1.19,gzi0wtbllnp,2022-09-16 18:30:43.680,5ef4d8b87faaa00c0dea0c4e,2,51,33,1,87,57,Female,826.0,,"
  <table>
  <tr height=300>
    <td width=300 height=300><img src=""static/images/cards/back_of_red_stars.svg"" width=""175px"" height=""250px""></img></td>
    <td width=300 height=300><img src=""static/images/cards/back_of_red_stars.svg"" width=""175px"" height=""250px""></img></td>
  </tr>
  <tr height=200>
    <td width=300><img src=""static/images/keys/z.svg"" width=""35%"" height=""75%""></img></td>
    <td width=300></td>
  </tr>
</table>
  ",90.0,1.0,,,,,,,,,,,,,,,,,,,,,,,,,,
119,0,,html-keyboard-response,119,351279,0.0-4.19-2.19,gzi0wtbllnp,2022-09-16 18:30:43.680,5ef4d8b87faaa00c0dea0c4e,2,51,33,1,87,57,Female,,,"
  <table>
  <tr height=300>
    <td width=300 height=300><img src=""static/images/cards/4_of_red_stars.svg"" width=""175px"" height=""250px""></img></td>
    <td width=300 height=300><img src=""static/images/cards/back_of_red_stars.svg"" width=""175px"" height=""250px""></img></td>
  </tr>
  <tr height=200>
    <td width=300><img src=""static/images/keys/z.svg"" width=""35%"" height=""75%""></img></td>
    <td width=300></td>
  </tr>
</table>
  ",,,,,,,,,,,,,,,,,,,,,,,,,,,,
120,0,,html-keyboard-response,120,352782,0.0-4.19-3.19,gzi0wtbllnp,2022-09-16 18:30:43.680,5ef4d8b87faaa00c0dea0c4e,2,51,33,1,87,57,Female,,,"<p style=""font-size:50px"">You Lose!
No points this round.</p>",,,,,,,,,,,,,,,,,,,,,,,,,,,,
121,0,,html-keyboard-response,121,353283,0.0-4.19-4.19,gzi0wtbllnp,2022-09-16 18:30:43.680,5ef4d8b87faaa00c0dea0c4e,2,51,33,1,87,57,Female,,,,,,1.0,learning,19.0,B,,red,,stars,,,,B,red,stars,,0.0,1.0,1,left,826.0,4.0,0.0,0.0,,,
122,0,,html-keyboard-response,122,354785,0.0-4.20-0.20,gzi0wtbllnp,2022-09-16 18:30:43.680,5ef4d8b87faaa00c0dea0c4e,2,51,33,1,87,57,Female,,,"<img src=""static/images/cards/stack_of_black_moons.svg"" width=""175px"" height=""250px""></img>",,,,,,,,,,,,,,,,,,,,,,,,,,,,
123,0,,html-keyboard-response,123,356077,0.0-4.20-1.20,gzi0wtbllnp,2022-09-16 18:30:43.680,5ef4d8b87faaa00c0dea0c4e,2,51,33,1,87,57,Female,790.0,,"
  <table>
  <tr height=300>
    <td width=300 height=300><img src=""static/images/cards/back_of_black_moons.svg"" width=""175px"" height=""250px""></img></td>
    <td width=300 height=300><img src=""static/images/cards/back_of_black_moons.svg"" width=""175px"" height=""250px""></img></td>
  </tr>
  <tr height=200>
    <td width=300><img src=""static/images/keys/z.svg"" width=""35%"" height=""75%""></img></td>
    <td width=300><img src=""static/images/keys/m.svg"" width=""35%"" height=""75%""></img></td>
  </tr>
</table>
  ",90.0,1.0,,,,,,,,,,,,,,,,,,,,,,,,,,
124,0,,html-keyboard-response,124,357579,0.0-4.20-2.20,gzi0wtbllnp,2022-09-16 18:30:43.680,5ef4d8b87faaa00c0dea0c4e,2,51,33,1,87,57,Female,,,"
  <table>
  <tr height=300>
    <td width=300 height=300><img src=""static/images/cards/7_of_black_moons.svg"" width=""175px"" height=""250px""></img></td>
    <td width=300 height=300><img src=""static/images/cards/back_of_black_moons.svg"" width=""175px"" height=""250px""></img></td>
  </tr>
  <tr height=200>
    <td width=300><img src=""static/images/keys/z.svg"" width=""35%"" height=""75%""></img></td>
    <td width=300><img src=""static/images/keys/m.svg"" width=""35%"" height=""75%""></img></td>
  </tr>
</table>
  ",,,,,,,,,,,,,,,,,,,,,,,,,,,,
125,0,,html-keyboard-response,125,359081,0.0-4.20-3.20,gzi0wtbllnp,2022-09-16 18:30:43.680,5ef4d8b87faaa00c0dea0c4e,2,51,33,1,87,57,Female,,,"<p style=""font-size:50px"">You Lose!
No points this round.</p>",,,,,,,,,,,,,,,,,,,,,,,,,,,,
126,0,,html-keyboard-response,126,359583,0.0-4.20-4.20,gzi0wtbllnp,2022-09-16 18:30:43.680,5ef4d8b87faaa00c0dea0c4e,2,51,33,1,87,57,Female,,,,,,1.0,learning,20.0,C,,black,,moons,,,,C,black,moons,,1.0,0.0,NA,left,790.0,7.0,1.0,0.0,,,
127,0,,html-keyboard-response,127,361085,0.0-4.21-0.21,gzi0wtbllnp,2022-09-16 18:30:43.680,5ef4d8b87faaa00c0dea0c4e,2,51,33,1,87,57,Female,,,"<img src=""static/images/cards/stack_of_red_moons.svg"" width=""175px"" height=""250px""></img>",,,,,,,,,,,,,,,,,,,,,,,,,,,,
128,0,,html-keyboard-response,128,362253,0.0-4.21-1.21,gzi0wtbllnp,2022-09-16 18:30:43.680,5ef4d8b87faaa00c0dea0c4e,2,51,33,1,87,57,Female,666.0,,"
  <table>
  <tr height=300>
    <td width=300 height=300><img src=""static/images/cards/back_of_red_moons.svg"" width=""175px"" height=""250px""></img></td>
    <td width=300 height=300><img src=""static/images/cards/back_of_red_moons.svg"" width=""175px"" height=""250px""></img></td>
  </tr>
  <tr height=200>
    <td width=300></td>
    <td width=300><img src=""static/images/keys/m.svg"" width=""35%"" height=""75%""></img></td>
  </tr>
</table>
  ",77.0,1.0,,,,,,,,,,,,,,,,,,,,,,,,,,
129,0,,html-keyboard-response,129,363755,0.0-4.21-2.21,gzi0wtbllnp,2022-09-16 18:30:43.680,5ef4d8b87faaa00c0dea0c4e,2,51,33,1,87,57,Female,,,"
  <table>
  <tr height=300>
    <td width=300 height=300><img src=""static/images/cards/back_of_red_moons.svg"" width=""175px"" height=""250px""></img></td>
    <td width=300 height=300><img src=""static/images/cards/4_of_red_moons.svg"" width=""175px"" height=""250px""></img></td>
  </tr>
  <tr height=200>
    <td width=300></td>
    <td width=300><img src=""static/images/keys/m.svg"" width=""35%"" height=""75%""></img></td>
  </tr>
</table>
  ",,,,,,,,,,,,,,,,,,,,,,,,,,,,
130,0,,html-keyboard-response,130,365257,0.0-4.21-3.21,gzi0wtbllnp,2022-09-16 18:30:43.680,5ef4d8b87faaa00c0dea0c4e,2,51,33,1,87,57,Female,,,"<p style=""font-size:50px"">You win!
+10 points this round!</p>",,,,,,,,,,,,,,,,,,,,,,,,,,,,
131,0,,html-keyboard-response,131,365759,0.0-4.21-4.21,gzi0wtbllnp,2022-09-16 18:30:43.680,5ef4d8b87faaa00c0dea0c4e,2,51,33,1,87,57,Female,,,,,,1.0,learning,21.0,D,,red,,moons,,,,D,red,moons,,0.0,0.0,0,right,666.0,4.0,0.0,1.0,,,
132,0,,html-keyboard-response,132,367261,0.0-4.22-0.22,gzi0wtbllnp,2022-09-16 18:30:43.680,5ef4d8b87faaa00c0dea0c4e,2,51,33,1,87,57,Female,,,"<img src=""static/images/cards/stack_of_red_bolts.svg"" width=""175px"" height=""250px""></img>",,,,,,,,,,,,,,,,,,,,,,,,,,,,
133,0,,html-keyboard-response,133,368373,0.0-4.22-1.22,gzi0wtbllnp,2022-09-16 18:30:43.680,5ef4d8b87faaa00c0dea0c4e,2,51,33,1,87,57,Female,611.0,,"
  <table>
  <tr height=300>
    <td width=300 height=300><img src=""static/images/cards/back_of_red_bolts.svg"" width=""175px"" height=""250px""></img></td>
    <td width=300 height=300><img src=""static/images/cards/back_of_red_bolts.svg"" width=""175px"" height=""250px""></img></td>
  </tr>
  <tr height=200>
    <td width=300><img src=""static/images/keys/z.svg"" width=""35%"" height=""75%""></img></td>
    <td width=300><img src=""static/images/keys/m.svg"" width=""35%"" height=""75%""></img></td>
  </tr>
</table>
  ",90.0,1.0,,,,,,,,,,,,,,,,,,,,,,,,,,
134,0,,html-keyboard-response,134,369875,0.0-4.22-2.22,gzi0wtbllnp,2022-09-16 18:30:43.680,5ef4d8b87faaa00c0dea0c4e,2,51,33,1,87,57,Female,,,"
  <table>
  <tr height=300>
    <td width=300 height=300><img src=""static/images/cards/9_of_red_bolts.svg"" width=""175px"" height=""250px""></img></td>
    <td width=300 height=300><img src=""static/images/cards/back_of_red_bolts.svg"" width=""175px"" height=""250px""></img></td>
  </tr>
  <tr height=200>
    <td width=300><img src=""static/images/keys/z.svg"" width=""35%"" height=""75%""></img></td>
    <td width=300><img src=""static/images/keys/m.svg"" width=""35%"" height=""75%""></img></td>
  </tr>
</table>
  ",,,,,,,,,,,,,,,,,,,,,,,,,,,,
135,0,,html-keyboard-response,135,371377,0.0-4.22-3.22,gzi0wtbllnp,2022-09-16 18:30:43.680,5ef4d8b87faaa00c0dea0c4e,2,51,33,1,87,57,Female,,,"<p style=""font-size:50px"">You win!
+10 points this round!</p>",,,,,,,,,,,,,,,,,,,,,,,,,,,,
136,0,,html-keyboard-response,136,371878,0.0-4.22-4.22,gzi0wtbllnp,2022-09-16 18:30:43.680,5ef4d8b87faaa00c0dea0c4e,2,51,33,1,87,57,Female,,,,,,1.0,learning,22.0,Xc,,red,,bolts,,,,Xc,red,bolts,,1.0,0.0,NA,left,611.0,9.0,1.0,1.0,,,
137,0,,html-keyboard-response,137,373380,0.0-4.23-0.23,gzi0wtbllnp,2022-09-16 18:30:43.680,5ef4d8b87faaa00c0dea0c4e,2,51,33,1,87,57,Female,,,"<img src=""static/images/cards/stack_of_black_bolts.svg"" width=""175px"" height=""250px""></img>",,,,,,,,,,,,,,,,,,,,,,,,,,,,
138,0,,html-keyboard-response,138,374358,0.0-4.23-1.23,gzi0wtbllnp,2022-09-16 18:30:43.680,5ef4d8b87faaa00c0dea0c4e,2,51,33,1,87,57,Female,476.0,,"
  <table>
  <tr height=300>
    <td width=300 height=300><img src=""static/images/cards/back_of_black_bolts.svg"" width=""175px"" height=""250px""></img></td>
    <td width=300 height=300><img src=""static/images/cards/back_of_black_bolts.svg"" width=""175px"" height=""250px""></img></td>
  </tr>
  <tr height=200>
    <td width=300></td>
    <td width=300><img src=""static/images/keys/m.svg"" width=""35%"" height=""75%""></img></td>
  </tr>
</table>
  ",77.0,1.0,,,,,,,,,,,,,,,,,,,,,,,,,,
139,0,,html-keyboard-response,139,375860,0.0-4.23-2.23,gzi0wtbllnp,2022-09-16 18:30:43.680,5ef4d8b87faaa00c0dea0c4e,2,51,33,1,87,57,Female,,,"
  <table>
  <tr height=300>
    <td width=300 height=300><img src=""static/images/cards/back_of_black_bolts.svg"" width=""175px"" height=""250px""></img></td>
    <td width=300 height=300><img src=""static/images/cards/1_of_black_bolts.svg"" width=""175px"" height=""250px""></img></td>
  </tr>
  <tr height=200>
    <td width=300></td>
    <td width=300><img src=""static/images/keys/m.svg"" width=""35%"" height=""75%""></img></td>
  </tr>
</table>
  ",,,,,,,,,,,,,,,,,,,,,,,,,,,,
140,0,,html-keyboard-response,140,377362,0.0-4.23-3.23,gzi0wtbllnp,2022-09-16 18:30:43.680,5ef4d8b87faaa00c0dea0c4e,2,51,33,1,87,57,Female,,,"<p style=""font-size:50px"">You win!
+10 points this round!</p>",,,,,,,,,,,,,,,,,,,,,,,,,,,,
141,0,,html-keyboard-response,141,377864,0.0-4.23-4.23,gzi0wtbllnp,2022-09-16 18:30:43.680,5ef4d8b87faaa00c0dea0c4e,2,51,33,1,87,57,Female,,,,,,1.0,learning,23.0,Xnc,,black,,bolts,,,,Xnc,black,bolts,,0.0,0.0,0,right,476.0,1.0,0.0,1.0,,,
142,0,,call-function,142,377868,0.0-5.0,gzi0wtbllnp,2022-09-16 18:30:43.680,5ef4d8b87faaa00c0dea0c4e,2,51,33,1,87,57,Female,,,,,,,,,,,,,,,,,,,,,,,,,,,,,,,
143,0,,image-keyboard-response,143,403136,0.0-6.0-0.0,gzi0wtbllnp,2022-09-16 18:30:43.680,5ef4d8b87faaa00c0dea0c4e,2,51,33,1,87,57,Female,25267.9999999999,,static/images/instructions_CB_2/Slide20.png,39.0,,,,,,,,,,,,,,,,,,,,,,,,,,,
144,0,,image-keyboard-response,144,428190,0.0-6.1-0.1,gzi0wtbllnp,2022-09-16 18:30:43.680,5ef4d8b87faaa00c0dea0c4e,2,51,33,1,87,57,Female,25053.9999999999,,static/images/instructions_CB_2/Slide21.png,37.0,,,,,,,,,,,,,,,,,,,,,,,,,,,
145,0,,image-keyboard-response,145,429067,0.0-6.2-0.2,gzi0wtbllnp,2022-09-16 18:30:43.680,5ef4d8b87faaa00c0dea0c4e,2,51,33,1,87,57,Female,876.0,,static/images/instructions_CB_2/Slide20.png,39.0,,,,,,,,,,,,,,,,,,,,,,,,,,,
146,0,,image-keyboard-response,146,430001,0.0-6.3-0.3,gzi0wtbllnp,2022-09-16 18:30:43.680,5ef4d8b87faaa00c0dea0c4e,2,51,33,1,87,57,Female,933.0,,static/images/instructions_CB_2/Slide21.png,39.0,,,,,,,,,,,,,,,,,,,,,,,,,,,
147,0,,image-keyboard-response,147,466665,0.0-6.4-0.4,gzi0wtbllnp,2022-09-16 18:30:43.680,5ef4d8b87faaa00c0dea0c4e,2,51,33,1,87,57,Female,36665.0,,static/images/instructions_CB_2/Slide22.png,39.0,,,,,,,,,,,,,,,,,,,,,,,,,,,
148,0,,image-keyboard-response,148,499425,0.0-6.5-0.5,gzi0wtbllnp,2022-09-16 18:30:43.680,5ef4d8b87faaa00c0dea0c4e,2,51,33,1,87,57,Female,32760.0,,static/images/instructions_CB_2/Slide23.png,39.0,,,,,,,,,,,,,,,,,,,,,,,,,,,
149,0,,image-keyboard-response,149,501821,0.0-6.6-0.6,gzi0wtbllnp,2022-09-16 18:30:43.680,5ef4d8b87faaa00c0dea0c4e,2,51,33,1,87,57,Female,2396.0,,static/images/instructions_CB_2/Slide24.png,39.0,,,,,,,,,,,,,,,,,,,,,,,,,,,
150,0,,html-keyboard-response,150,506164,0.0-7.0-0.0,gzi0wtbllnp,2022-09-16 18:30:43.680,5ef4d8b87faaa00c0dea0c4e,2,51,33,1,87,57,Female,4341.0,,"
  <table>
  <tr height=300>
    <td width=300 height=300><img src=""static/images/cards/stack_of_red_moons.svg"" width=""175px"" height=""250px""></img></td>
    <td width=300 height=300><img src=""static/images/cards/stack_of_black_stars.svg"" width=""175px"" height=""250px""></img></td>
  </tr>
  <tr height=200>
    <td width=300><img src=""static/images/keys/w.svg"" width=""35%"" height=""75%""></img></td>
    <td width=300><img src=""static/images/keys/o.svg"" width=""35%"" height=""75%""></img></td>
  </tr>
</table>
  ",79.0,1.0,,,,,,,,,,,,,,,,,,,,,,,,,,
151,0,,html-keyboard-response,151,508257,0.0-7.0-1.0,gzi0wtbllnp,2022-09-16 18:30:43.680,5ef4d8b87faaa00c0dea0c4e,2,51,33,1,87,57,Female,1590.0000000001,,"
  <table>
  <tr height=300>
    <td width=300 height=300><img src=""static/images/cards/back_of_black_stars.svg"" width=""175px"" height=""250px""></img></td>
    <td width=300 height=300><img src=""static/images/cards/back_of_black_stars.svg"" width=""175px"" height=""250px""></img></td>
  </tr>
  <tr height=200>
    <td width=300><img src=""static/images/keys/z.svg"" width=""35%"" height=""75%""></img></td>
    <td width=300><img src=""static/images/keys/m.svg"" width=""35%"" height=""75%""></img></td>
  </tr>
</table>
  ",77.0,1.0,,,,,,,,,,,,,,,,,,,,,,,,,,
152,0,,html-keyboard-response,152,509759,0.0-7.0-2.0,gzi0wtbllnp,2022-09-16 18:30:43.680,5ef4d8b87faaa00c0dea0c4e,2,51,33,1,87,57,Female,,,"
  <table>
  <tr height=300>
    <td width=300 height=300><img src=""static/images/cards/back_of_black_stars.svg"" width=""175px"" height=""250px""></img></td>
    <td width=300 height=300><img src=""static/images/cards/1_of_black_stars.svg"" width=""175px"" height=""250px""></img></td>
  </tr>
  <tr height=200>
    <td width=300><img src=""static/images/keys/z.svg"" width=""35%"" height=""75%""></img></td>
    <td width=300><img src=""static/images/keys/m.svg"" width=""35%"" height=""75%""></img></td>
  </tr>
</table>
  ",,,,,,,,,,,,,,,,,,,,,,,,,,,,
153,0,,html-keyboard-response,153,511262,0.0-7.0-3.0,gzi0wtbllnp,2022-09-16 18:30:43.680,5ef4d8b87faaa00c0dea0c4e,2,51,33,1,87,57,Female,,,"<p style=""font-size:50px"">You Lose!
No points this round.</p>",,,,,,,,,,,,,,,,,,,,,,,,,,,,
154,0,,html-keyboard-response,154,511763,0.0-7.0-4.0,gzi0wtbllnp,2022-09-16 18:30:43.680,5ef4d8b87faaa00c0dea0c4e,2,51,33,1,87,57,Female,,,,,,1.0,choice,0.0,A,D,red,black,moons,stars,D,A,A,black,stars,4341.0,1.0,1.0,NA,right,1590.0000000001,1.0,0.0,0.0,,,
155,0,,html-keyboard-response,155,513488,0.0-7.1-0.1,gzi0wtbllnp,2022-09-16 18:30:43.680,5ef4d8b87faaa00c0dea0c4e,2,51,33,1,87,57,Female,1724.0000000001,,"
  <table>
  <tr height=300>
    <td width=300 height=300><img src=""static/images/cards/stack_of_red_moons.svg"" width=""175px"" height=""250px""></img></td>
    <td width=300 height=300><img src=""static/images/cards/stack_of_black_stars.svg"" width=""175px"" height=""250px""></img></td>
  </tr>
  <tr height=200>
    <td width=300><img src=""static/images/keys/w.svg"" width=""35%"" height=""75%""></img></td>
    <td width=300><img src=""static/images/keys/o.svg"" width=""35%"" height=""75%""></img></td>
  </tr>
</table>
  ",79.0,1.0,,,,,,,,,,,,,,,,,,,,,,,,,,
156,0,,html-keyboard-response,156,515603,0.0-7.1-1.1,gzi0wtbllnp,2022-09-16 18:30:43.680,5ef4d8b87faaa00c0dea0c4e,2,51,33,1,87,57,Female,1613.0,,"
  <table>
  <tr height=300>
    <td width=300 height=300><img src=""static/images/cards/back_of_black_stars.svg"" width=""175px"" height=""250px""></img></td>
    <td width=300 height=300><img src=""static/images/cards/back_of_black_stars.svg"" width=""175px"" height=""250px""></img></td>
  </tr>
  <tr height=200>
    <td width=300><img src=""static/images/keys/z.svg"" width=""35%"" height=""75%""></img></td>
    <td width=300><img src=""static/images/keys/m.svg"" width=""35%"" height=""75%""></img></td>
  </tr>
</table>
  ",90.0,1.0,,,,,,,,,,,,,,,,,,,,,,,,,,
157,0,,html-keyboard-response,157,517105,0.0-7.1-2.1,gzi0wtbllnp,2022-09-16 18:30:43.680,5ef4d8b87faaa00c0dea0c4e,2,51,33,1,87,57,Female,,,"
  <table>
  <tr height=300>
    <td width=300 height=300><img src=""static/images/cards/3_of_black_stars.svg"" width=""175px"" height=""250px""></img></td>
    <td width=300 height=300><img src=""static/images/cards/back_of_black_stars.svg"" width=""175px"" height=""250px""></img></td>
  </tr>
  <tr height=200>
    <td width=300><img src=""static/images/keys/z.svg"" width=""35%"" height=""75%""></img></td>
    <td width=300><img src=""static/images/keys/m.svg"" width=""35%"" height=""75%""></img></td>
  </tr>
</table>
  ",,,,,,,,,,,,,,,,,,,,,,,,,,,,
158,0,,html-keyboard-response,158,518608,0.0-7.1-3.1,gzi0wtbllnp,2022-09-16 18:30:43.680,5ef4d8b87faaa00c0dea0c4e,2,51,33,1,87,57,Female,,,"<p style=""font-size:50px"">You Lose!
No points this round.</p>",,,,,,,,,,,,,,,,,,,,,,,,,,,,
159,0,,html-keyboard-response,159,519110,0.0-7.1-4.1,gzi0wtbllnp,2022-09-16 18:30:43.680,5ef4d8b87faaa00c0dea0c4e,2,51,33,1,87,57,Female,,,,,,1.0,choice,1.0,A,D,red,black,moons,stars,D,A,A,black,stars,1724.0000000001,1.0,1.0,NA,left,1613.0,3.0,0.0,0.0,,,
160,0,,html-keyboard-response,160,520474,0.0-7.2-0.2,gzi0wtbllnp,2022-09-16 18:30:43.680,5ef4d8b87faaa00c0dea0c4e,2,51,33,1,87,57,Female,1363.0,,"
  <table>
  <tr height=300>
    <td width=300 height=300><img src=""static/images/cards/stack_of_red_moons.svg"" width=""175px"" height=""250px""></img></td>
    <td width=300 height=300><img src=""static/images/cards/stack_of_red_stars.svg"" width=""175px"" height=""250px""></img></td>
  </tr>
  <tr height=200>
    <td width=300><img src=""static/images/keys/w.svg"" width=""35%"" height=""75%""></img></td>
    <td width=300><img src=""static/images/keys/o.svg"" width=""35%"" height=""75%""></img></td>
  </tr>
</table>
  ",79.0,1.0,,,,,,,,,,,,,,,,,,,,,,,,,,
161,0,,html-keyboard-response,161,522679,0.0-7.2-1.2,gzi0wtbllnp,2022-09-16 18:30:43.680,5ef4d8b87faaa00c0dea0c4e,2,51,33,1,87,57,Female,1703.0000000001,,"
  <table>
  <tr height=300>
    <td width=300 height=300><img src=""static/images/cards/back_of_red_stars.svg"" width=""175px"" height=""250px""></img></td>
    <td width=300 height=300><img src=""static/images/cards/back_of_red_stars.svg"" width=""175px"" height=""250px""></img></td>
  </tr>
  <tr height=200>
    <td width=300></td>
    <td width=300><img src=""static/images/keys/m.svg"" width=""35%"" height=""75%""></img></td>
  </tr>
</table>
  ",77.0,1.0,,,,,,,,,,,,,,,,,,,,,,,,,,
162,0,,html-keyboard-response,162,524182,0.0-7.2-2.2,gzi0wtbllnp,2022-09-16 18:30:43.680,5ef4d8b87faaa00c0dea0c4e,2,51,33,1,87,57,Female,,,"
  <table>
  <tr height=300>
    <td width=300 height=300><img src=""static/images/cards/back_of_red_stars.svg"" width=""175px"" height=""250px""></img></td>
    <td width=300 height=300><img src=""static/images/cards/10_of_red_stars.svg"" width=""175px"" height=""250px""></img></td>
  </tr>
  <tr height=200>
    <td width=300></td>
    <td width=300><img src=""static/images/keys/m.svg"" width=""35%"" height=""75%""></img></td>
  </tr>
</table>
  ",,,,,,,,,,,,,,,,,,,,,,,,,,,,
163,0,,html-keyboard-response,163,525683,0.0-7.2-3.2,gzi0wtbllnp,2022-09-16 18:30:43.680,5ef4d8b87faaa00c0dea0c4e,2,51,33,1,87,57,Female,,,"<p style=""font-size:50px"">You win!
+10 points this round!</p>",,,,,,,,,,,,,,,,,,,,,,,,,,,,
164,0,,html-keyboard-response,164,526185,0.0-7.2-4.2,gzi0wtbllnp,2022-09-16 18:30:43.680,5ef4d8b87faaa00c0dea0c4e,2,51,33,1,87,57,Female,,,,,,1.0,choice,2.0,B,D,red,red,moons,stars,D,B,B,red,stars,1363.0,0.0,1.0,0,right,1703.0000000001,10.0,1.0,1.0,,,
165,0,,html-keyboard-response,165,527899,0.0-7.3-0.3,gzi0wtbllnp,2022-09-16 18:30:43.680,5ef4d8b87faaa00c0dea0c4e,2,51,33,1,87,57,Female,1714.0000000001,,"
  <table>
  <tr height=300>
    <td width=300 height=300><img src=""static/images/cards/stack_of_black_bolts.svg"" width=""175px"" height=""250px""></img></td>
    <td width=300 height=300><img src=""static/images/cards/stack_of_red_moons.svg"" width=""175px"" height=""250px""></img></td>
  </tr>
  <tr height=200>
    <td width=300><img src=""static/images/keys/w.svg"" width=""35%"" height=""75%""></img></td>
    <td width=300><img src=""static/images/keys/o.svg"" width=""35%"" height=""75%""></img></td>
  </tr>
</table>
  ",87.0,1.0,,,,,,,,,,,,,,,,,,,,,,,,,,
166,0,,html-keyboard-response,166,529711,0.0-7.3-1.3,gzi0wtbllnp,2022-09-16 18:30:43.680,5ef4d8b87faaa00c0dea0c4e,2,51,33,1,87,57,Female,1310.0,,"
  <table>
  <tr height=300>
    <td width=300 height=300><img src=""static/images/cards/back_of_black_bolts.svg"" width=""175px"" height=""250px""></img></td>
    <td width=300 height=300><img src=""static/images/cards/back_of_black_bolts.svg"" width=""175px"" height=""250px""></img></td>
  </tr>
  <tr height=200>
    <td width=300><img src=""static/images/keys/z.svg"" width=""35%"" height=""75%""></img></td>
    <td width=300></td>
  </tr>
</table>
  ",90.0,1.0,,,,,,,,,,,,,,,,,,,,,,,,,,
167,0,,html-keyboard-response,167,531213,0.0-7.3-2.3,gzi0wtbllnp,2022-09-16 18:30:43.680,5ef4d8b87faaa00c0dea0c4e,2,51,33,1,87,57,Female,,,"
  <table>
  <tr height=300>
    <td width=300 height=300><img src=""static/images/cards/7_of_black_bolts.svg"" width=""175px"" height=""250px""></img></td>
    <td width=300 height=300><img src=""static/images/cards/back_of_black_bolts.svg"" width=""175px"" height=""250px""></img></td>
  </tr>
  <tr height=200>
    <td width=300><img src=""static/images/keys/z.svg"" width=""35%"" height=""75%""></img></td>
    <td width=300></td>
  </tr>
</table>
  ",,,,,,,,,,,,,,,,,,,,,,,,,,,,
168,0,,html-keyboard-response,168,532715,0.0-7.3-3.3,gzi0wtbllnp,2022-09-16 18:30:43.680,5ef4d8b87faaa00c0dea0c4e,2,51,33,1,87,57,Female,,,"<p style=""font-size:50px"">You win!
+10 points this round!</p>",,,,,,,,,,,,,,,,,,,,,,,,,,,,
169,0,,html-keyboard-response,169,533217,0.0-7.3-4.3,gzi0wtbllnp,2022-09-16 18:30:43.680,5ef4d8b87faaa00c0dea0c4e,2,51,33,1,87,57,Female,,,,,,1.0,choice,3.0,D,Xnc,black,red,bolts,moons,Xnc,D,Xnc,black,bolts,1714.0000000001,0.0,0.0,1,left,1310.0,7.0,1.0,1.0,,,
170,0,,html-keyboard-response,170,535043,0.0-7.4-0.4,gzi0wtbllnp,2022-09-16 18:30:43.680,5ef4d8b87faaa00c0dea0c4e,2,51,33,1,87,57,Female,1826.0,,"
  <table>
  <tr height=300>
    <td width=300 height=300><img src=""static/images/cards/stack_of_red_stars.svg"" width=""175px"" height=""250px""></img></td>
    <td width=300 height=300><img src=""static/images/cards/stack_of_black_stars.svg"" width=""175px"" height=""250px""></img></td>
  </tr>
  <tr height=200>
    <td width=300><img src=""static/images/keys/w.svg"" width=""35%"" height=""75%""></img></td>
    <td width=300><img src=""static/images/keys/o.svg"" width=""35%"" height=""75%""></img></td>
  </tr>
</table>
  ",79.0,1.0,,,,,,,,,,,,,,,,,,,,,,,,,,
171,0,,html-keyboard-response,171,536899,0.0-7.4-1.4,gzi0wtbllnp,2022-09-16 18:30:43.680,5ef4d8b87faaa00c0dea0c4e,2,51,33,1,87,57,Female,1354.0000000001,,"
  <table>
  <tr height=300>
    <td width=300 height=300><img src=""static/images/cards/back_of_black_stars.svg"" width=""175px"" height=""250px""></img></td>
    <td width=300 height=300><img src=""static/images/cards/back_of_black_stars.svg"" width=""175px"" height=""250px""></img></td>
  </tr>
  <tr height=200>
    <td width=300><img src=""static/images/keys/z.svg"" width=""35%"" height=""75%""></img></td>
    <td width=300><img src=""static/images/keys/m.svg"" width=""35%"" height=""75%""></img></td>
  </tr>
</table>
  ",77.0,1.0,,,,,,,,,,,,,,,,,,,,,,,,,,
172,0,,html-keyboard-response,172,538402,0.0-7.4-2.4,gzi0wtbllnp,2022-09-16 18:30:43.680,5ef4d8b87faaa00c0dea0c4e,2,51,33,1,87,57,Female,,,"
  <table>
  <tr height=300>
    <td width=300 height=300><img src=""static/images/cards/back_of_black_stars.svg"" width=""175px"" height=""250px""></img></td>
    <td width=300 height=300><img src=""static/images/cards/4_of_black_stars.svg"" width=""175px"" height=""250px""></img></td>
  </tr>
  <tr height=200>
    <td width=300><img src=""static/images/keys/z.svg"" width=""35%"" height=""75%""></img></td>
    <td width=300><img src=""static/images/keys/m.svg"" width=""35%"" height=""75%""></img></td>
  </tr>
</table>
  ",,,,,,,,,,,,,,,,,,,,,,,,,,,,
173,0,,html-keyboard-response,173,539904,0.0-7.4-3.4,gzi0wtbllnp,2022-09-16 18:30:43.680,5ef4d8b87faaa00c0dea0c4e,2,51,33,1,87,57,Female,,,"<p style=""font-size:50px"">You Lose!
No points this round.</p>",,,,,,,,,,,,,,,,,,,,,,,,,,,,
174,0,,html-keyboard-response,174,540406,0.0-7.4-4.4,gzi0wtbllnp,2022-09-16 18:30:43.680,5ef4d8b87faaa00c0dea0c4e,2,51,33,1,87,57,Female,,,,,,1.0,choice,4.0,A,B,red,black,stars,stars,B,A,A,black,stars,1826.0,1.0,1.0,NA,right,1354.0000000001,4.0,0.0,0.0,,,
175,0,,html-keyboard-response,175,542086,0.0-7.5-0.5,gzi0wtbllnp,2022-09-16 18:30:43.680,5ef4d8b87faaa00c0dea0c4e,2,51,33,1,87,57,Female,1679.0,,"
  <table>
  <tr height=300>
    <td width=300 height=300><img src=""static/images/cards/stack_of_black_moons.svg"" width=""175px"" height=""250px""></img></td>
    <td width=300 height=300><img src=""static/images/cards/stack_of_red_stars.svg"" width=""175px"" height=""250px""></img></td>
  </tr>
  <tr height=200>
    <td width=300><img src=""static/images/keys/w.svg"" width=""35%"" height=""75%""></img></td>
    <td width=300><img src=""static/images/keys/o.svg"" width=""35%"" height=""75%""></img></td>
  </tr>
</table>
  ",79.0,1.0,,,,,,,,,,,,,,,,,,,,,,,,,,
176,0,,html-keyboard-response,176,544066,0.0-7.5-1.5,gzi0wtbllnp,2022-09-16 18:30:43.680,5ef4d8b87faaa00c0dea0c4e,2,51,33,1,87,57,Female,1478.0,,"
  <table>
  <tr height=300>
    <td width=300 height=300><img src=""static/images/cards/back_of_red_stars.svg"" width=""175px"" height=""250px""></img></td>
    <td width=300 height=300><img src=""static/images/cards/back_of_red_stars.svg"" width=""175px"" height=""250px""></img></td>
  </tr>
  <tr height=200>
    <td width=300></td>
    <td width=300><img src=""static/images/keys/m.svg"" width=""35%"" height=""75%""></img></td>
  </tr>
</table>
  ",77.0,1.0,,,,,,,,,,,,,,,,,,,,,,,,,,
177,0,,html-keyboard-response,177,545568,0.0-7.5-2.5,gzi0wtbllnp,2022-09-16 18:30:43.680,5ef4d8b87faaa00c0dea0c4e,2,51,33,1,87,57,Female,,,"
  <table>
  <tr height=300>
    <td width=300 height=300><img src=""static/images/cards/back_of_red_stars.svg"" width=""175px"" height=""250px""></img></td>
    <td width=300 height=300><img src=""static/images/cards/4_of_red_stars.svg"" width=""175px"" height=""250px""></img></td>
  </tr>
  <tr height=200>
    <td width=300></td>
    <td width=300><img src=""static/images/keys/m.svg"" width=""35%"" height=""75%""></img></td>
  </tr>
</table>
  ",,,,,,,,,,,,,,,,,,,,,,,,,,,,
178,0,,html-keyboard-response,178,547071,0.0-7.5-3.5,gzi0wtbllnp,2022-09-16 18:30:43.680,5ef4d8b87faaa00c0dea0c4e,2,51,33,1,87,57,Female,,,"<p style=""font-size:50px"">You Lose!
No points this round.</p>",,,,,,,,,,,,,,,,,,,,,,,,,,,,
179,0,,html-keyboard-response,179,547572,0.0-7.5-4.5,gzi0wtbllnp,2022-09-16 18:30:43.680,5ef4d8b87faaa00c0dea0c4e,2,51,33,1,87,57,Female,,,,,,1.0,choice,5.0,B,C,black,red,moons,stars,C,B,B,red,stars,1679.0,0.0,1.0,0,right,1478.0,4.0,0.0,0.0,,,
180,0,,html-keyboard-response,180,549578,0.0-7.6-0.6,gzi0wtbllnp,2022-09-16 18:30:43.680,5ef4d8b87faaa00c0dea0c4e,2,51,33,1,87,57,Female,2005.0,,"
  <table>
  <tr height=300>
    <td width=300 height=300><img src=""static/images/cards/stack_of_black_stars.svg"" width=""175px"" height=""250px""></img></td>
    <td width=300 height=300><img src=""static/images/cards/stack_of_red_moons.svg"" width=""175px"" height=""250px""></img></td>
  </tr>
  <tr height=200>
    <td width=300><img src=""static/images/keys/w.svg"" width=""35%"" height=""75%""></img></td>
    <td width=300><img src=""static/images/keys/o.svg"" width=""35%"" height=""75%""></img></td>
  </tr>
</table>
  ",87.0,1.0,,,,,,,,,,,,,,,,,,,,,,,,,,
181,0,,html-keyboard-response,181,551626,0.0-7.6-1.6,gzi0wtbllnp,2022-09-16 18:30:43.680,5ef4d8b87faaa00c0dea0c4e,2,51,33,1,87,57,Female,1546.0,,"
  <table>
  <tr height=300>
    <td width=300 height=300><img src=""static/images/cards/back_of_black_stars.svg"" width=""175px"" height=""250px""></img></td>
    <td width=300 height=300><img src=""static/images/cards/back_of_black_stars.svg"" width=""175px"" height=""250px""></img></td>
  </tr>
  <tr height=200>
    <td width=300><img src=""static/images/keys/z.svg"" width=""35%"" height=""75%""></img></td>
    <td width=300><img src=""static/images/keys/m.svg"" width=""35%"" height=""75%""></img></td>
  </tr>
</table>
  ",77.0,1.0,,,,,,,,,,,,,,,,,,,,,,,,,,
182,0,,html-keyboard-response,182,553129,0.0-7.6-2.6,gzi0wtbllnp,2022-09-16 18:30:43.680,5ef4d8b87faaa00c0dea0c4e,2,51,33,1,87,57,Female,,,"
  <table>
  <tr height=300>
    <td width=300 height=300><img src=""static/images/cards/back_of_black_stars.svg"" width=""175px"" height=""250px""></img></td>
    <td width=300 height=300><img src=""static/images/cards/1_of_black_stars.svg"" width=""175px"" height=""250px""></img></td>
  </tr>
  <tr height=200>
    <td width=300><img src=""static/images/keys/z.svg"" width=""35%"" height=""75%""></img></td>
    <td width=300><img src=""static/images/keys/m.svg"" width=""35%"" height=""75%""></img></td>
  </tr>
</table>
  ",,,,,,,,,,,,,,,,,,,,,,,,,,,,
183,0,,html-keyboard-response,183,554631,0.0-7.6-3.6,gzi0wtbllnp,2022-09-16 18:30:43.680,5ef4d8b87faaa00c0dea0c4e,2,51,33,1,87,57,Female,,,"<p style=""font-size:50px"">You Lose!
No points this round.</p>",,,,,,,,,,,,,,,,,,,,,,,,,,,,
184,0,,html-keyboard-response,184,555133,0.0-7.6-4.6,gzi0wtbllnp,2022-09-16 18:30:43.680,5ef4d8b87faaa00c0dea0c4e,2,51,33,1,87,57,Female,,,,,,1.0,choice,6.0,A,D,black,red,stars,moons,A,D,A,black,stars,2005.0,1.0,1.0,NA,right,1546.0,1.0,0.0,0.0,,,
185,0,,html-keyboard-response,185,556925,0.0-7.7-0.7,gzi0wtbllnp,2022-09-16 18:30:43.680,5ef4d8b87faaa00c0dea0c4e,2,51,33,1,87,57,Female,1791.0,,"
  <table>
  <tr height=300>
    <td width=300 height=300><img src=""static/images/cards/stack_of_red_stars.svg"" width=""175px"" height=""250px""></img></td>
    <td width=300 height=300><img src=""static/images/cards/stack_of_red_moons.svg"" width=""175px"" height=""250px""></img></td>
  </tr>
  <tr height=200>
    <td width=300><img src=""static/images/keys/w.svg"" width=""35%"" height=""75%""></img></td>
    <td width=300><img src=""static/images/keys/o.svg"" width=""35%"" height=""75%""></img></td>
  </tr>
</table>
  ",87.0,1.0,,,,,,,,,,,,,,,,,,,,,,,,,,
186,0,,html-keyboard-response,186,558804,0.0-7.7-1.7,gzi0wtbllnp,2022-09-16 18:30:43.680,5ef4d8b87faaa00c0dea0c4e,2,51,33,1,87,57,Female,1377.0,,"
  <table>
  <tr height=300>
    <td width=300 height=300><img src=""static/images/cards/back_of_red_stars.svg"" width=""175px"" height=""250px""></img></td>
    <td width=300 height=300><img src=""static/images/cards/back_of_red_stars.svg"" width=""175px"" height=""250px""></img></td>
  </tr>
  <tr height=200>
    <td width=300><img src=""static/images/keys/z.svg"" width=""35%"" height=""75%""></img></td>
    <td width=300></td>
  </tr>
</table>
  ",90.0,1.0,,,,,,,,,,,,,,,,,,,,,,,,,,
187,0,,html-keyboard-response,187,560305,0.0-7.7-2.7,gzi0wtbllnp,2022-09-16 18:30:43.680,5ef4d8b87faaa00c0dea0c4e,2,51,33,1,87,57,Female,,,"
  <table>
  <tr height=300>
    <td width=300 height=300><img src=""static/images/cards/8_of_red_stars.svg"" width=""175px"" height=""250px""></img></td>
    <td width=300 height=300><img src=""static/images/cards/back_of_red_stars.svg"" width=""175px"" height=""250px""></img></td>
  </tr>
  <tr height=200>
    <td width=300><img src=""static/images/keys/z.svg"" width=""35%"" height=""75%""></img></td>
    <td width=300></td>
  </tr>
</table>
  ",,,,,,,,,,,,,,,,,,,,,,,,,,,,
188,0,,html-keyboard-response,188,561807,0.0-7.7-3.7,gzi0wtbllnp,2022-09-16 18:30:43.680,5ef4d8b87faaa00c0dea0c4e,2,51,33,1,87,57,Female,,,"<p style=""font-size:50px"">You win!
+10 points this round!</p>",,,,,,,,,,,,,,,,,,,,,,,,,,,,
189,0,,html-keyboard-response,189,562308,0.0-7.7-4.7,gzi0wtbllnp,2022-09-16 18:30:43.680,5ef4d8b87faaa00c0dea0c4e,2,51,33,1,87,57,Female,,,,,,1.0,choice,7.0,B,D,red,red,stars,moons,B,D,B,red,stars,1791.0,0.0,1.0,1,left,1377.0,8.0,1.0,1.0,,,
190,0,,html-keyboard-response,190,564518,0.0-7.8-0.8,gzi0wtbllnp,2022-09-16 18:30:43.680,5ef4d8b87faaa00c0dea0c4e,2,51,33,1,87,57,Female,2209.0,,"
  <table>
  <tr height=300>
    <td width=300 height=300><img src=""static/images/cards/stack_of_black_moons.svg"" width=""175px"" height=""250px""></img></td>
    <td width=300 height=300><img src=""static/images/cards/stack_of_red_moons.svg"" width=""175px"" height=""250px""></img></td>
  </tr>
  <tr height=200>
    <td width=300><img src=""static/images/keys/w.svg"" width=""35%"" height=""75%""></img></td>
    <td width=300><img src=""static/images/keys/o.svg"" width=""35%"" height=""75%""></img></td>
  </tr>
</table>
  ",87.0,1.0,,,,,,,,,,,,,,,,,,,,,,,,,,
191,0,,html-keyboard-response,191,566802,0.0-7.8-1.8,gzi0wtbllnp,2022-09-16 18:30:43.680,5ef4d8b87faaa00c0dea0c4e,2,51,33,1,87,57,Female,1782.0000000001,,"
  <table>
  <tr height=300>
    <td width=300 height=300><img src=""static/images/cards/back_of_black_moons.svg"" width=""175px"" height=""250px""></img></td>
    <td width=300 height=300><img src=""static/images/cards/back_of_black_moons.svg"" width=""175px"" height=""250px""></img></td>
  </tr>
  <tr height=200>
    <td width=300><img src=""static/images/keys/z.svg"" width=""35%"" height=""75%""></img></td>
    <td width=300><img src=""static/images/keys/m.svg"" width=""35%"" height=""75%""></img></td>
  </tr>
</table>
  ",90.0,1.0,,,,,,,,,,,,,,,,,,,,,,,,,,
192,0,,html-keyboard-response,192,568304,0.0-7.8-2.8,gzi0wtbllnp,2022-09-16 18:30:43.680,5ef4d8b87faaa00c0dea0c4e,2,51,33,1,87,57,Female,,,"
  <table>
  <tr height=300>
    <td width=300 height=300><img src=""static/images/cards/2_of_black_moons.svg"" width=""175px"" height=""250px""></img></td>
    <td width=300 height=300><img src=""static/images/cards/back_of_black_moons.svg"" width=""175px"" height=""250px""></img></td>
  </tr>
  <tr height=200>
    <td width=300><img src=""static/images/keys/z.svg"" width=""35%"" height=""75%""></img></td>
    <td width=300><img src=""static/images/keys/m.svg"" width=""35%"" height=""75%""></img></td>
  </tr>
</table>
  ",,,,,,,,,,,,,,,,,,,,,,,,,,,,
193,0,,html-keyboard-response,193,569806,0.0-7.8-3.8,gzi0wtbllnp,2022-09-16 18:30:43.680,5ef4d8b87faaa00c0dea0c4e,2,51,33,1,87,57,Female,,,"<p style=""font-size:50px"">You Lose!
No points this round.</p>",,,,,,,,,,,,,,,,,,,,,,,,,,,,
194,0,,html-keyboard-response,194,570308,0.0-7.8-4.8,gzi0wtbllnp,2022-09-16 18:30:43.680,5ef4d8b87faaa00c0dea0c4e,2,51,33,1,87,57,Female,,,,,,1.0,choice,8.0,C,D,black,red,moons,moons,C,D,C,black,moons,2209.0,1.0,0.0,NA,left,1782.0000000001,2.0,0.0,0.0,,,
195,0,,html-keyboard-response,195,571887,0.0-7.9-0.9,gzi0wtbllnp,2022-09-16 18:30:43.680,5ef4d8b87faaa00c0dea0c4e,2,51,33,1,87,57,Female,1578.0,,"
  <table>
  <tr height=300>
    <td width=300 height=300><img src=""static/images/cards/stack_of_red_stars.svg"" width=""175px"" height=""250px""></img></td>
    <td width=300 height=300><img src=""static/images/cards/stack_of_red_moons.svg"" width=""175px"" height=""250px""></img></td>
  </tr>
  <tr height=200>
    <td width=300><img src=""static/images/keys/w.svg"" width=""35%"" height=""75%""></img></td>
    <td width=300><img src=""static/images/keys/o.svg"" width=""35%"" height=""75%""></img></td>
  </tr>
</table>
  ",87.0,1.0,,,,,,,,,,,,,,,,,,,,,,,,,,
196,0,,html-keyboard-response,196,574025,0.0-7.9-1.9,gzi0wtbllnp,2022-09-16 18:30:43.680,5ef4d8b87faaa00c0dea0c4e,2,51,33,1,87,57,Female,1636.0,,"
  <table>
  <tr height=300>
    <td width=300 height=300><img src=""static/images/cards/back_of_red_stars.svg"" width=""175px"" height=""250px""></img></td>
    <td width=300 height=300><img src=""static/images/cards/back_of_red_stars.svg"" width=""175px"" height=""250px""></img></td>
  </tr>
  <tr height=200>
    <td width=300><img src=""static/images/keys/z.svg"" width=""35%"" height=""75%""></img></td>
    <td width=300></td>
  </tr>
</table>
  ",90.0,1.0,,,,,,,,,,,,,,,,,,,,,,,,,,
197,0,,html-keyboard-response,197,575526,0.0-7.9-2.9,gzi0wtbllnp,2022-09-16 18:30:43.680,5ef4d8b87faaa00c0dea0c4e,2,51,33,1,87,57,Female,,,"
  <table>
  <tr height=300>
    <td width=300 height=300><img src=""static/images/cards/2_of_red_stars.svg"" width=""175px"" height=""250px""></img></td>
    <td width=300 height=300><img src=""static/images/cards/back_of_red_stars.svg"" width=""175px"" height=""250px""></img></td>
  </tr>
  <tr height=200>
    <td width=300><img src=""static/images/keys/z.svg"" width=""35%"" height=""75%""></img></td>
    <td width=300></td>
  </tr>
</table>
  ",,,,,,,,,,,,,,,,,,,,,,,,,,,,
198,0,,html-keyboard-response,198,577028,0.0-7.9-3.9,gzi0wtbllnp,2022-09-16 18:30:43.680,5ef4d8b87faaa00c0dea0c4e,2,51,33,1,87,57,Female,,,"<p style=""font-size:50px"">You Lose!
No points this round.</p>",,,,,,,,,,,,,,,,,,,,,,,,,,,,
199,0,,html-keyboard-response,199,577529,0.0-7.9-4.9,gzi0wtbllnp,2022-09-16 18:30:43.680,5ef4d8b87faaa00c0dea0c4e,2,51,33,1,87,57,Female,,,,,,1.0,choice,9.0,B,D,red,red,stars,moons,B,D,B,red,stars,1578.0,0.0,1.0,1,left,1636.0,2.0,0.0,0.0,,,
200,0,,html-keyboard-response,200,579346,0.0-7.10-0.10,gzi0wtbllnp,2022-09-16 18:30:43.680,5ef4d8b87faaa00c0dea0c4e,2,51,33,1,87,57,Female,1816.0,,"
  <table>
  <tr height=300>
    <td width=300 height=300><img src=""static/images/cards/stack_of_black_stars.svg"" width=""175px"" height=""250px""></img></td>
    <td width=300 height=300><img src=""static/images/cards/stack_of_red_moons.svg"" width=""175px"" height=""250px""></img></td>
  </tr>
  <tr height=200>
    <td width=300><img src=""static/images/keys/w.svg"" width=""35%"" height=""75%""></img></td>
    <td width=300><img src=""static/images/keys/o.svg"" width=""35%"" height=""75%""></img></td>
  </tr>
</table>
  ",87.0,1.0,,,,,,,,,,,,,,,,,,,,,,,,,,
201,0,,html-keyboard-response,201,581067,0.0-7.10-1.10,gzi0wtbllnp,2022-09-16 18:30:43.680,5ef4d8b87faaa00c0dea0c4e,2,51,33,1,87,57,Female,1219.0,,"
  <table>
  <tr height=300>
    <td width=300 height=300><img src=""static/images/cards/back_of_black_stars.svg"" width=""175px"" height=""250px""></img></td>
    <td width=300 height=300><img src=""static/images/cards/back_of_black_stars.svg"" width=""175px"" height=""250px""></img></td>
  </tr>
  <tr height=200>
    <td width=300><img src=""static/images/keys/z.svg"" width=""35%"" height=""75%""></img></td>
    <td width=300><img src=""static/images/keys/m.svg"" width=""35%"" height=""75%""></img></td>
  </tr>
</table>
  ",77.0,1.0,,,,,,,,,,,,,,,,,,,,,,,,,,
202,0,,html-keyboard-response,202,582569,0.0-7.10-2.10,gzi0wtbllnp,2022-09-16 18:30:43.680,5ef4d8b87faaa00c0dea0c4e,2,51,33,1,87,57,Female,,,"
  <table>
  <tr height=300>
    <td width=300 height=300><img src=""static/images/cards/back_of_black_stars.svg"" width=""175px"" height=""250px""></img></td>
    <td width=300 height=300><img src=""static/images/cards/1_of_black_stars.svg"" width=""175px"" height=""250px""></img></td>
  </tr>
  <tr height=200>
    <td width=300><img src=""static/images/keys/z.svg"" width=""35%"" height=""75%""></img></td>
    <td width=300><img src=""static/images/keys/m.svg"" width=""35%"" height=""75%""></img></td>
  </tr>
</table>
  ",,,,,,,,,,,,,,,,,,,,,,,,,,,,
203,0,,html-keyboard-response,203,584072,0.0-7.10-3.10,gzi0wtbllnp,2022-09-16 18:30:43.680,5ef4d8b87faaa00c0dea0c4e,2,51,33,1,87,57,Female,,,"<p style=""font-size:50px"">You Lose!
No points this round.</p>",,,,,,,,,,,,,,,,,,,,,,,,,,,,
204,0,,html-keyboard-response,204,584574,0.0-7.10-4.10,gzi0wtbllnp,2022-09-16 18:30:43.680,5ef4d8b87faaa00c0dea0c4e,2,51,33,1,87,57,Female,,,,,,1.0,choice,10.0,A,D,black,red,stars,moons,A,D,A,black,stars,1816.0,1.0,1.0,NA,right,1219.0,1.0,0.0,0.0,,,
205,0,,html-keyboard-response,205,585646,0.0-7.11-0.11,gzi0wtbllnp,2022-09-16 18:30:43.680,5ef4d8b87faaa00c0dea0c4e,2,51,33,1,87,57,Female,1072.0,,"
  <table>
  <tr height=300>
    <td width=300 height=300><img src=""static/images/cards/stack_of_black_stars.svg"" width=""175px"" height=""250px""></img></td>
    <td width=300 height=300><img src=""static/images/cards/stack_of_black_moons.svg"" width=""175px"" height=""250px""></img></td>
  </tr>
  <tr height=200>
    <td width=300><img src=""static/images/keys/w.svg"" width=""35%"" height=""75%""></img></td>
    <td width=300><img src=""static/images/keys/o.svg"" width=""35%"" height=""75%""></img></td>
  </tr>
</table>
  ",87.0,1.0,,,,,,,,,,,,,,,,,,,,,,,,,,
206,0,,html-keyboard-response,206,587300,0.0-7.11-1.11,gzi0wtbllnp,2022-09-16 18:30:43.680,5ef4d8b87faaa00c0dea0c4e,2,51,33,1,87,57,Female,1151.0,,"
  <table>
  <tr height=300>
    <td width=300 height=300><img src=""static/images/cards/back_of_black_stars.svg"" width=""175px"" height=""250px""></img></td>
    <td width=300 height=300><img src=""static/images/cards/back_of_black_stars.svg"" width=""175px"" height=""250px""></img></td>
  </tr>
  <tr height=200>
    <td width=300><img src=""static/images/keys/z.svg"" width=""35%"" height=""75%""></img></td>
    <td width=300><img src=""static/images/keys/m.svg"" width=""35%"" height=""75%""></img></td>
  </tr>
</table>
  ",90.0,1.0,,,,,,,,,,,,,,,,,,,,,,,,,,
207,0,,html-keyboard-response,207,588802,0.0-7.11-2.11,gzi0wtbllnp,2022-09-16 18:30:43.680,5ef4d8b87faaa00c0dea0c4e,2,51,33,1,87,57,Female,,,"
  <table>
  <tr height=300>
    <td width=300 height=300><img src=""static/images/cards/2_of_black_stars.svg"" width=""175px"" height=""250px""></img></td>
    <td width=300 height=300><img src=""static/images/cards/back_of_black_stars.svg"" width=""175px"" height=""250px""></img></td>
  </tr>
  <tr height=200>
    <td width=300><img src=""static/images/keys/z.svg"" width=""35%"" height=""75%""></img></td>
    <td width=300><img src=""static/images/keys/m.svg"" width=""35%"" height=""75%""></img></td>
  </tr>
</table>
  ",,,,,,,,,,,,,,,,,,,,,,,,,,,,
208,0,,html-keyboard-response,208,590305,0.0-7.11-3.11,gzi0wtbllnp,2022-09-16 18:30:43.680,5ef4d8b87faaa00c0dea0c4e,2,51,33,1,87,57,Female,,,"<p style=""font-size:50px"">You Lose!
No points this round.</p>",,,,,,,,,,,,,,,,,,,,,,,,,,,,
209,0,,html-keyboard-response,209,590806,0.0-7.11-4.11,gzi0wtbllnp,2022-09-16 18:30:43.680,5ef4d8b87faaa00c0dea0c4e,2,51,33,1,87,57,Female,,,,,,1.0,choice,11.0,A,C,black,black,stars,moons,A,C,A,black,stars,1072.0,1.0,1.0,NA,left,1151.0,2.0,0.0,0.0,,,
210,0,,html-keyboard-response,210,592171,0.0-7.12-0.12,gzi0wtbllnp,2022-09-16 18:30:43.680,5ef4d8b87faaa00c0dea0c4e,2,51,33,1,87,57,Female,1364.0000000001,,"
  <table>
  <tr height=300>
    <td width=300 height=300><img src=""static/images/cards/stack_of_black_stars.svg"" width=""175px"" height=""250px""></img></td>
    <td width=300 height=300><img src=""static/images/cards/stack_of_red_bolts.svg"" width=""175px"" height=""250px""></img></td>
  </tr>
  <tr height=200>
    <td width=300><img src=""static/images/keys/w.svg"" width=""35%"" height=""75%""></img></td>
    <td width=300><img src=""static/images/keys/o.svg"" width=""35%"" height=""75%""></img></td>
  </tr>
</table>
  ",79.0,1.0,,,,,,,,,,,,,,,,,,,,,,,,,,
211,0,,html-keyboard-response,211,593881,0.0-7.12-1.12,gzi0wtbllnp,2022-09-16 18:30:43.680,5ef4d8b87faaa00c0dea0c4e,2,51,33,1,87,57,Female,1208.0,,"
  <table>
  <tr height=300>
    <td width=300 height=300><img src=""static/images/cards/back_of_red_bolts.svg"" width=""175px"" height=""250px""></img></td>
    <td width=300 height=300><img src=""static/images/cards/back_of_red_bolts.svg"" width=""175px"" height=""250px""></img></td>
  </tr>
  <tr height=200>
    <td width=300><img src=""static/images/keys/z.svg"" width=""35%"" height=""75%""></img></td>
    <td width=300><img src=""static/images/keys/m.svg"" width=""35%"" height=""75%""></img></td>
  </tr>
</table>
  ",77.0,1.0,,,,,,,,,,,,,,,,,,,,,,,,,,
212,0,,html-keyboard-response,212,595383,0.0-7.12-2.12,gzi0wtbllnp,2022-09-16 18:30:43.680,5ef4d8b87faaa00c0dea0c4e,2,51,33,1,87,57,Female,,,"
  <table>
  <tr height=300>
    <td width=300 height=300><img src=""static/images/cards/back_of_red_bolts.svg"" width=""175px"" height=""250px""></img></td>
    <td width=300 height=300><img src=""static/images/cards/8_of_red_bolts.svg"" width=""175px"" height=""250px""></img></td>
  </tr>
  <tr height=200>
    <td width=300><img src=""static/images/keys/z.svg"" width=""35%"" height=""75%""></img></td>
    <td width=300><img src=""static/images/keys/m.svg"" width=""35%"" height=""75%""></img></td>
  </tr>
</table>
  ",,,,,,,,,,,,,,,,,,,,,,,,,,,,
213,0,,html-keyboard-response,213,596885,0.0-7.12-3.12,gzi0wtbllnp,2022-09-16 18:30:43.680,5ef4d8b87faaa00c0dea0c4e,2,51,33,1,87,57,Female,,,"<p style=""font-size:50px"">You win!
+10 points this round!</p>",,,,,,,,,,,,,,,,,,,,,,,,,,,,
214,0,,html-keyboard-response,214,597386,0.0-7.12-4.12,gzi0wtbllnp,2022-09-16 18:30:43.680,5ef4d8b87faaa00c0dea0c4e,2,51,33,1,87,57,Female,,,,,,1.0,choice,12.0,A,Xc,black,red,stars,bolts,A,Xc,Xc,red,bolts,1364.0000000001,1.0,0.0,NA,right,1208.0,8.0,1.0,1.0,,,
215,0,,html-keyboard-response,215,599090,0.0-7.13-0.13,gzi0wtbllnp,2022-09-16 18:30:43.680,5ef4d8b87faaa00c0dea0c4e,2,51,33,1,87,57,Female,1703.0,,"
  <table>
  <tr height=300>
    <td width=300 height=300><img src=""static/images/cards/stack_of_red_moons.svg"" width=""175px"" height=""250px""></img></td>
    <td width=300 height=300><img src=""static/images/cards/stack_of_red_stars.svg"" width=""175px"" height=""250px""></img></td>
  </tr>
  <tr height=200>
    <td width=300><img src=""static/images/keys/w.svg"" width=""35%"" height=""75%""></img></td>
    <td width=300><img src=""static/images/keys/o.svg"" width=""35%"" height=""75%""></img></td>
  </tr>
</table>
  ",87.0,1.0,,,,,,,,,,,,,,,,,,,,,,,,,,
216,0,,html-keyboard-response,216,600834,0.0-7.13-1.13,gzi0wtbllnp,2022-09-16 18:30:43.680,5ef4d8b87faaa00c0dea0c4e,2,51,33,1,87,57,Female,1242.0,,"
  <table>
  <tr height=300>
    <td width=300 height=300><img src=""static/images/cards/back_of_red_moons.svg"" width=""175px"" height=""250px""></img></td>
    <td width=300 height=300><img src=""static/images/cards/back_of_red_moons.svg"" width=""175px"" height=""250px""></img></td>
  </tr>
  <tr height=200>
    <td width=300><img src=""static/images/keys/z.svg"" width=""35%"" height=""75%""></img></td>
    <td width=300></td>
  </tr>
</table>
  ",90.0,1.0,,,,,,,,,,,,,,,,,,,,,,,,,,
217,0,,html-keyboard-response,217,602336,0.0-7.13-2.13,gzi0wtbllnp,2022-09-16 18:30:43.680,5ef4d8b87faaa00c0dea0c4e,2,51,33,1,87,57,Female,,,"
  <table>
  <tr height=300>
    <td width=300 height=300><img src=""static/images/cards/10_of_red_moons.svg"" width=""175px"" height=""250px""></img></td>
    <td width=300 height=300><img src=""static/images/cards/back_of_red_moons.svg"" width=""175px"" height=""250px""></img></td>
  </tr>
  <tr height=200>
    <td width=300><img src=""static/images/keys/z.svg"" width=""35%"" height=""75%""></img></td>
    <td width=300></td>
  </tr>
</table>
  ",,,,,,,,,,,,,,,,,,,,,,,,,,,,
218,0,,html-keyboard-response,218,603838,0.0-7.13-3.13,gzi0wtbllnp,2022-09-16 18:30:43.680,5ef4d8b87faaa00c0dea0c4e,2,51,33,1,87,57,Female,,,"<p style=""font-size:50px"">You Lose!
No points this round.</p>",,,,,,,,,,,,,,,,,,,,,,,,,,,,
219,0,,html-keyboard-response,219,604338,0.0-7.13-4.13,gzi0wtbllnp,2022-09-16 18:30:43.680,5ef4d8b87faaa00c0dea0c4e,2,51,33,1,87,57,Female,,,,,,1.0,choice,13.0,B,D,red,red,moons,stars,D,B,D,red,moons,1703.0,0.0,0.0,1,left,1242.0,10.0,1.0,0.0,,,
220,0,,html-keyboard-response,220,606629,0.0-7.14-0.14,gzi0wtbllnp,2022-09-16 18:30:43.680,5ef4d8b87faaa00c0dea0c4e,2,51,33,1,87,57,Female,2290.0,,"
  <table>
  <tr height=300>
    <td width=300 height=300><img src=""static/images/cards/stack_of_black_stars.svg"" width=""175px"" height=""250px""></img></td>
    <td width=300 height=300><img src=""static/images/cards/stack_of_red_moons.svg"" width=""175px"" height=""250px""></img></td>
  </tr>
  <tr height=200>
    <td width=300><img src=""static/images/keys/w.svg"" width=""35%"" height=""75%""></img></td>
    <td width=300><img src=""static/images/keys/o.svg"" width=""35%"" height=""75%""></img></td>
  </tr>
</table>
  ",79.0,1.0,,,,,,,,,,,,,,,,,,,,,,,,,,
221,0,,html-keyboard-response,221,608765,0.0-7.14-1.14,gzi0wtbllnp,2022-09-16 18:30:43.680,5ef4d8b87faaa00c0dea0c4e,2,51,33,1,87,57,Female,1634.0,,"
  <table>
  <tr height=300>
    <td width=300 height=300><img src=""static/images/cards/back_of_red_moons.svg"" width=""175px"" height=""250px""></img></td>
    <td width=300 height=300><img src=""static/images/cards/back_of_red_moons.svg"" width=""175px"" height=""250px""></img></td>
  </tr>
  <tr height=200>
    <td width=300><img src=""static/images/keys/z.svg"" width=""35%"" height=""75%""></img></td>
    <td width=300></td>
  </tr>
</table>
  ",90.0,1.0,,,,,,,,,,,,,,,,,,,,,,,,,,
222,0,,html-keyboard-response,222,610267,0.0-7.14-2.14,gzi0wtbllnp,2022-09-16 18:30:43.680,5ef4d8b87faaa00c0dea0c4e,2,51,33,1,87,57,Female,,,"
  <table>
  <tr height=300>
    <td width=300 height=300><img src=""static/images/cards/3_of_red_moons.svg"" width=""175px"" height=""250px""></img></td>
    <td width=300 height=300><img src=""static/images/cards/back_of_red_moons.svg"" width=""175px"" height=""250px""></img></td>
  </tr>
  <tr height=200>
    <td width=300><img src=""static/images/keys/z.svg"" width=""35%"" height=""75%""></img></td>
    <td width=300></td>
  </tr>
</table>
  ",,,,,,,,,,,,,,,,,,,,,,,,,,,,
223,0,,html-keyboard-response,223,611770,0.0-7.14-3.14,gzi0wtbllnp,2022-09-16 18:30:43.680,5ef4d8b87faaa00c0dea0c4e,2,51,33,1,87,57,Female,,,"<p style=""font-size:50px"">You win!
+10 points this round!</p>",,,,,,,,,,,,,,,,,,,,,,,,,,,,
224,0,,html-keyboard-response,224,612271,0.0-7.14-4.14,gzi0wtbllnp,2022-09-16 18:30:43.680,5ef4d8b87faaa00c0dea0c4e,2,51,33,1,87,57,Female,,,,,,1.0,choice,14.0,A,D,black,red,stars,moons,A,D,D,red,moons,2290.0,0.0,0.0,1,left,1634.0,3.0,0.0,1.0,,,
225,0,,html-keyboard-response,225,613805,0.0-7.15-0.15,gzi0wtbllnp,2022-09-16 18:30:43.680,5ef4d8b87faaa00c0dea0c4e,2,51,33,1,87,57,Female,1533.0,,"
  <table>
  <tr height=300>
    <td width=300 height=300><img src=""static/images/cards/stack_of_red_stars.svg"" width=""175px"" height=""250px""></img></td>
    <td width=300 height=300><img src=""static/images/cards/stack_of_red_moons.svg"" width=""175px"" height=""250px""></img></td>
  </tr>
  <tr height=200>
    <td width=300><img src=""static/images/keys/w.svg"" width=""35%"" height=""75%""></img></td>
    <td width=300><img src=""static/images/keys/o.svg"" width=""35%"" height=""75%""></img></td>
  </tr>
</table>
  ",79.0,1.0,,,,,,,,,,,,,,,,,,,,,,,,,,
226,0,,html-keyboard-response,226,615538,0.0-7.15-1.15,gzi0wtbllnp,2022-09-16 18:30:43.680,5ef4d8b87faaa00c0dea0c4e,2,51,33,1,87,57,Female,1230.0,,"
  <table>
  <tr height=300>
    <td width=300 height=300><img src=""static/images/cards/back_of_red_moons.svg"" width=""175px"" height=""250px""></img></td>
    <td width=300 height=300><img src=""static/images/cards/back_of_red_moons.svg"" width=""175px"" height=""250px""></img></td>
  </tr>
  <tr height=200>
    <td width=300><img src=""static/images/keys/z.svg"" width=""35%"" height=""75%""></img></td>
    <td width=300></td>
  </tr>
</table>
  ",90.0,1.0,,,,,,,,,,,,,,,,,,,,,,,,,,
227,0,,html-keyboard-response,227,617040,0.0-7.15-2.15,gzi0wtbllnp,2022-09-16 18:30:43.680,5ef4d8b87faaa00c0dea0c4e,2,51,33,1,87,57,Female,,,"
  <table>
  <tr height=300>
    <td width=300 height=300><img src=""static/images/cards/7_of_red_moons.svg"" width=""175px"" height=""250px""></img></td>
    <td width=300 height=300><img src=""static/images/cards/back_of_red_moons.svg"" width=""175px"" height=""250px""></img></td>
  </tr>
  <tr height=200>
    <td width=300><img src=""static/images/keys/z.svg"" width=""35%"" height=""75%""></img></td>
    <td width=300></td>
  </tr>
</table>
  ",,,,,,,,,,,,,,,,,,,,,,,,,,,,
228,0,,html-keyboard-response,228,618542,0.0-7.15-3.15,gzi0wtbllnp,2022-09-16 18:30:43.680,5ef4d8b87faaa00c0dea0c4e,2,51,33,1,87,57,Female,,,"<p style=""font-size:50px"">You win!
+10 points this round!</p>",,,,,,,,,,,,,,,,,,,,,,,,,,,,
229,0,,html-keyboard-response,229,619044,0.0-7.15-4.15,gzi0wtbllnp,2022-09-16 18:30:43.680,5ef4d8b87faaa00c0dea0c4e,2,51,33,1,87,57,Female,,,,,,1.0,choice,15.0,B,D,red,red,stars,moons,B,D,D,red,moons,1533.0,0.0,0.0,1,left,1230.0,7.0,1.0,1.0,,,
230,0,,html-keyboard-response,230,620060,0.0-7.16-0.16,gzi0wtbllnp,2022-09-16 18:30:43.680,5ef4d8b87faaa00c0dea0c4e,2,51,33,1,87,57,Female,1014.9999999999,,"
  <table>
  <tr height=300>
    <td width=300 height=300><img src=""static/images/cards/stack_of_red_stars.svg"" width=""175px"" height=""250px""></img></td>
    <td width=300 height=300><img src=""static/images/cards/stack_of_red_moons.svg"" width=""175px"" height=""250px""></img></td>
  </tr>
  <tr height=200>
    <td width=300><img src=""static/images/keys/w.svg"" width=""35%"" height=""75%""></img></td>
    <td width=300><img src=""static/images/keys/o.svg"" width=""35%"" height=""75%""></img></td>
  </tr>
</table>
  ",79.0,1.0,,,,,,,,,,,,,,,,,,,,,,,,,,
231,0,,html-keyboard-response,231,622018,0.0-7.16-1.16,gzi0wtbllnp,2022-09-16 18:30:43.680,5ef4d8b87faaa00c0dea0c4e,2,51,33,1,87,57,Female,1456.0,,"
  <table>
  <tr height=300>
    <td width=300 height=300><img src=""static/images/cards/back_of_red_moons.svg"" width=""175px"" height=""250px""></img></td>
    <td width=300 height=300><img src=""static/images/cards/back_of_red_moons.svg"" width=""175px"" height=""250px""></img></td>
  </tr>
  <tr height=200>
    <td width=300><img src=""static/images/keys/z.svg"" width=""35%"" height=""75%""></img></td>
    <td width=300></td>
  </tr>
</table>
  ",90.0,1.0,,,,,,,,,,,,,,,,,,,,,,,,,,
232,0,,html-keyboard-response,232,623520,0.0-7.16-2.16,gzi0wtbllnp,2022-09-16 18:30:43.680,5ef4d8b87faaa00c0dea0c4e,2,51,33,1,87,57,Female,,,"
  <table>
  <tr height=300>
    <td width=300 height=300><img src=""static/images/cards/2_of_red_moons.svg"" width=""175px"" height=""250px""></img></td>
    <td width=300 height=300><img src=""static/images/cards/back_of_red_moons.svg"" width=""175px"" height=""250px""></img></td>
  </tr>
  <tr height=200>
    <td width=300><img src=""static/images/keys/z.svg"" width=""35%"" height=""75%""></img></td>
    <td width=300></td>
  </tr>
</table>
  ",,,,,,,,,,,,,,,,,,,,,,,,,,,,
233,0,,html-keyboard-response,233,625023,0.0-7.16-3.16,gzi0wtbllnp,2022-09-16 18:30:43.680,5ef4d8b87faaa00c0dea0c4e,2,51,33,1,87,57,Female,,,"<p style=""font-size:50px"">You Lose!
No points this round.</p>",,,,,,,,,,,,,,,,,,,,,,,,,,,,
234,0,,html-keyboard-response,234,625524,0.0-7.16-4.16,gzi0wtbllnp,2022-09-16 18:30:43.680,5ef4d8b87faaa00c0dea0c4e,2,51,33,1,87,57,Female,,,,,,1.0,choice,16.0,B,D,red,red,stars,moons,B,D,D,red,moons,1014.9999999999,0.0,0.0,1,left,1456.0,2.0,0.0,0.0,,,
235,0,,html-keyboard-response,235,627249,0.0-7.17-0.17,gzi0wtbllnp,2022-09-16 18:30:43.680,5ef4d8b87faaa00c0dea0c4e,2,51,33,1,87,57,Female,1724.0,,"
  <table>
  <tr height=300>
    <td width=300 height=300><img src=""static/images/cards/stack_of_red_moons.svg"" width=""175px"" height=""250px""></img></td>
    <td width=300 height=300><img src=""static/images/cards/stack_of_black_stars.svg"" width=""175px"" height=""250px""></img></td>
  </tr>
  <tr height=200>
    <td width=300><img src=""static/images/keys/w.svg"" width=""35%"" height=""75%""></img></td>
