,index,success,trial_type,trial_index,time_elapsed,internal_node_id,subject,date,prol_id,ctbl,sense_of_control_A,sense_of_control_B,sense_of_control_C,sense_of_control_D,age,gender,rt,url,stimulus,key_press,npress,is_data_trial,phase,trial,deck1,deck2,col1,col2,sym1,sym2,deck_l,deck_r,chosen_deck,chosen_col,chosen_sym,deck_rt,choose_choice,mutual_info,hidden_key,chosen_card,card_rt,player_num,win_card,outcome,mock_rating,response,responses
0,0,1.0,fullscreen,0,77004,0.0-0.0,0e6le4hsg2a6,2022-09-19 14:52:42.394,5fb7dd473afbb1033b491811,2,42,68,0,2,45,Male,,,,,,,,,,,,,,,,,,,,,,,,,,,,,,,
1,0,,external-html,1,86004,0.0-1.0,0e6le4hsg2a6,2022-09-19 14:52:42.394,5fb7dd473afbb1033b491811,2,42,68,0,2,45,Male,8854.1999999993,static/js/sub/consent.html,,,,,,,,,,,,,,,,,,,,,,,,,,,,,
2,0,,call-function,2,86007,0.0-2.0,0e6le4hsg2a6,2022-09-19 14:52:42.394,5fb7dd473afbb1033b491811,2,42,68,0,2,45,Male,,,,,,,,,,,,,,,,,,,,,,,,,,,,,,,
3,0,,image-keyboard-response,3,332127,0.0-3.0-0.0,0e6le4hsg2a6,2022-09-19 14:52:42.394,5fb7dd473afbb1033b491811,2,42,68,0,2,45,Male,246114.5,,static/images/instructions_CB_2/Slide1.png,39.0,,,,,,,,,,,,,,,,,,,,,,,,,,,
4,0,,image-keyboard-response,4,337813,0.0-3.1-0.1,0e6le4hsg2a6,2022-09-19 14:52:42.394,5fb7dd473afbb1033b491811,2,42,68,0,2,45,Male,5675.6999999993,,static/images/instructions_CB_2/Slide2.png,39.0,,,,,,,,,,,,,,,,,,,,,,,,,,,
5,0,,image-keyboard-response,5,340829,0.0-3.2-0.2,0e6le4hsg2a6,2022-09-19 14:52:42.394,5fb7dd473afbb1033b491811,2,42,68,0,2,45,Male,3007.2999999989,,static/images/instructions_CB_2/Slide3.png,39.0,,,,,,,,,,,,,,,,,,,,,,,,,,,
6,0,,image-keyboard-response,6,344150,0.0-3.3-0.3,0e6le4hsg2a6,2022-09-19 14:52:42.394,5fb7dd473afbb1033b491811,2,42,68,0,2,45,Male,3314.0,,static/images/instructions_CB_2/Slide4.png,39.0,,,,,,,,,,,,,,,,,,,,,,,,,,,
7,0,,image-keyboard-response,7,349926,0.0-3.4-0.4,0e6le4hsg2a6,2022-09-19 14:52:42.394,5fb7dd473afbb1033b491811,2,42,68,0,2,45,Male,5769.8000000007,,static/images/instructions_CB_2/Slide5.png,39.0,,,,,,,,,,,,,,,,,,,,,,,,,,,
8,0,,image-keyboard-response,8,351590,0.0-3.5-0.5,0e6le4hsg2a6,2022-09-19 14:52:42.394,5fb7dd473afbb1033b491811,2,42,68,0,2,45,Male,1658.0999999996,,static/images/instructions_CB_2/Slide6.png,39.0,,,,,,,,,,,,,,,,,,,,,,,,,,,
9,0,,image-keyboard-response,9,354527,0.0-3.6-0.6,0e6le4hsg2a6,2022-09-19 14:52:42.394,5fb7dd473afbb1033b491811,2,42,68,0,2,45,Male,2931.5999999996,,static/images/instructions_CB_2/Slide7.png,39.0,,,,,,,,,,,,,,,,,,,,,,,,,,,
10,0,,image-keyboard-response,10,366263,0.0-3.7-0.7,0e6le4hsg2a6,2022-09-19 14:52:42.394,5fb7dd473afbb1033b491811,2,42,68,0,2,45,Male,11731.5,,static/images/instructions_CB_2/Slide8.png,39.0,,,,,,,,,,,,,,,,,,,,,,,,,,,
11,0,,image-keyboard-response,11,370910,0.0-3.8-0.8,0e6le4hsg2a6,2022-09-19 14:52:42.394,5fb7dd473afbb1033b491811,2,42,68,0,2,45,Male,4639.6999999993,,static/images/instructions_CB_2/Slide9.png,39.0,,,,,,,,,,,,,,,,,,,,,,,,,,,
12,0,,image-keyboard-response,12,406493,0.0-3.9-0.9,0e6le4hsg2a6,2022-09-19 14:52:42.394,5fb7dd473afbb1033b491811,2,42,68,0,2,45,Male,35589.8000000007,,static/images/instructions_CB_2/Slide10.png,39.0,,,,,,,,,,,,,,,,,,,,,,,,,,,
13,0,,image-keyboard-response,13,411722,0.0-3.10-0.10,0e6le4hsg2a6,2022-09-19 14:52:42.394,5fb7dd473afbb1033b491811,2,42,68,0,2,45,Male,5224.0,,static/images/instructions_CB_2/Slide11.png,39.0,,,,,,,,,,,,,,,,,,,,,,,,,,,
14,0,,image-keyboard-response,14,423420,0.0-3.11-0.11,0e6le4hsg2a6,2022-09-19 14:52:42.394,5fb7dd473afbb1033b491811,2,42,68,0,2,45,Male,11693.0999999996,,static/images/instructions_CB_2/Slide12.png,39.0,,,,,,,,,,,,,,,,,,,,,,,,,,,
15,0,,image-keyboard-response,15,438613,0.0-3.12-0.12,0e6le4hsg2a6,2022-09-19 14:52:42.394,5fb7dd473afbb1033b491811,2,42,68,0,2,45,Male,15187.3000000007,,static/images/instructions_CB_2/Slide13.png,39.0,,,,,,,,,,,,,,,,,,,,,,,,,,,
16,0,,image-keyboard-response,16,447604,0.0-3.13-0.13,0e6le4hsg2a6,2022-09-19 14:52:42.394,5fb7dd473afbb1033b491811,2,42,68,0,2,45,Male,8985.3000000007,,static/images/instructions_CB_2/Slide14.png,37.0,,,,,,,,,,,,,,,,,,,,,,,,,,,
17,0,,image-keyboard-response,17,452057,0.0-3.14-0.14,0e6le4hsg2a6,2022-09-19 14:52:42.394,5fb7dd473afbb1033b491811,2,42,68,0,2,45,Male,4448.7000000011,,static/images/instructions_CB_2/Slide13.png,39.0,,,,,,,,,,,,,,,,,,,,,,,,,,,
18,0,,image-keyboard-response,18,455011,0.0-3.15-0.15,0e6le4hsg2a6,2022-09-19 14:52:42.394,5fb7dd473afbb1033b491811,2,42,68,0,2,45,Male,2950.9000000004,,static/images/instructions_CB_2/Slide14.png,39.0,,,,,,,,,,,,,,,,,,,,,,,,,,,
19,0,,image-keyboard-response,19,459956,0.0-3.16-0.16,0e6le4hsg2a6,2022-09-19 14:52:42.394,5fb7dd473afbb1033b491811,2,42,68,0,2,45,Male,4939.3000000007,,static/images/instructions_CB_2/Slide15.png,39.0,,,,,,,,,,,,,,,,,,,,,,,,,,,
20,0,,image-keyboard-response,20,486385,0.0-3.17-0.17,0e6le4hsg2a6,2022-09-19 14:52:42.394,5fb7dd473afbb1033b491811,2,42,68,0,2,45,Male,26414.0,,static/images/instructions_CB_2/Slide16.png,39.0,,,,,,,,,,,,,,,,,,,,,,,,,,,
21,0,,image-keyboard-response,21,495639,0.0-3.18-0.18,0e6le4hsg2a6,2022-09-19 14:52:42.394,5fb7dd473afbb1033b491811,2,42,68,0,2,45,Male,9249.3000000007,,static/images/instructions_CB_2/Slide17.png,39.0,,,,,,,,,,,,,,,,,,,,,,,,,,,
22,0,,image-keyboard-response,22,515608,0.0-3.19-0.19,0e6le4hsg2a6,2022-09-19 14:52:42.394,5fb7dd473afbb1033b491811,2,42,68,0,2,45,Male,19964.1000000015,,static/images/instructions_CB_2/Slide18.png,39.0,,,,,,,,,,,,,,,,,,,,,,,,,,,
23,0,,image-keyboard-response,23,521423,0.0-3.20-0.20,0e6le4hsg2a6,2022-09-19 14:52:42.394,5fb7dd473afbb1033b491811,2,42,68,0,2,45,Male,5811.7999999989,,static/images/instructions_CB_2/Slide19.png,39.0,,,,,,,,,,,,,,,,,,,,,,,,,,,
24,0,,html-keyboard-response,24,522933,0.0-4.0-0.0,0e6le4hsg2a6,2022-09-19 14:52:42.394,5fb7dd473afbb1033b491811,2,42,68,0,2,45,Male,,,"<img src=""static/images/cards/stack_of_black_stars.svg"" width=""175px"" height=""250px""></img>",,,,,,,,,,,,,,,,,,,,,,,,,,,,
25,0,,html-keyboard-response,25,525659,0.0-4.0-1.0,0e6le4hsg2a6,2022-09-19 14:52:42.394,5fb7dd473afbb1033b491811,2,42,68,0,2,45,Male,2202.1999999993,,"
  <table>
  <tr height=300>
    <td width=300 height=300><img src=""static/images/cards/back_of_black_stars.svg"" width=""175px"" height=""250px""></img></td>
    <td width=300 height=300><img src=""static/images/cards/back_of_black_stars.svg"" width=""175px"" height=""250px""></img></td>
  </tr>
  <tr height=200>
    <td width=300><img src=""static/images/keys/z.svg"" width=""35%"" height=""75%""></img></td>
    <td width=300><img src=""static/images/keys/m.svg"" width=""35%"" height=""75%""></img></td>
  </tr>
</table>
  ",90.0,1.0,,,,,,,,,,,,,,,,,,,,,,,,,,
26,0,,html-keyboard-response,26,527171,0.0-4.0-2.0,0e6le4hsg2a6,2022-09-19 14:52:42.394,5fb7dd473afbb1033b491811,2,42,68,0,2,45,Male,,,"
  <table>
  <tr height=300>
    <td width=300 height=300><img src=""static/images/cards/3_of_black_stars.svg"" width=""175px"" height=""250px""></img></td>
    <td width=300 height=300><img src=""static/images/cards/back_of_black_stars.svg"" width=""175px"" height=""250px""></img></td>
  </tr>
  <tr height=200>
    <td width=300><img src=""static/images/keys/z.svg"" width=""35%"" height=""75%""></img></td>
    <td width=300><img src=""static/images/keys/m.svg"" width=""35%"" height=""75%""></img></td>
  </tr>
</table>
  ",,,,,,,,,,,,,,,,,,,,,,,,,,,,
27,0,,html-keyboard-response,27,528691,0.0-4.0-3.0,0e6le4hsg2a6,2022-09-19 14:52:42.394,5fb7dd473afbb1033b491811,2,42,68,0,2,45,Male,,,"<p style=""font-size:50px"">You Lose!
No points this round.</p>",,,,,,,,,,,,,,,,,,,,,,,,,,,,
28,0,,html-keyboard-response,28,529204,0.0-4.0-4.0,0e6le4hsg2a6,2022-09-19 14:52:42.394,5fb7dd473afbb1033b491811,2,42,68,0,2,45,Male,,,,,,1.0,learning,0.0,A,,black,,stars,,,,A,black,stars,,1.0,1.0,NA,left,2202.1999999993,3.0,0.0,0.0,,,
29,0,,html-keyboard-response,29,530711,0.0-4.1-0.1,0e6le4hsg2a6,2022-09-19 14:52:42.394,5fb7dd473afbb1033b491811,2,42,68,0,2,45,Male,,,"<img src=""static/images/cards/stack_of_red_stars.svg"" width=""175px"" height=""250px""></img>",,,,,,,,,,,,,,,,,,,,,,,,,,,,
30,0,,html-keyboard-response,30,532185,0.0-4.1-1.1,0e6le4hsg2a6,2022-09-19 14:52:42.394,5fb7dd473afbb1033b491811,2,42,68,0,2,45,Male,956.5,,"
  <table>
  <tr height=300>
    <td width=300 height=300><img src=""static/images/cards/back_of_red_stars.svg"" width=""175px"" height=""250px""></img></td>
    <td width=300 height=300><img src=""static/images/cards/back_of_red_stars.svg"" width=""175px"" height=""250px""></img></td>
  </tr>
  <tr height=200>
    <td width=300><img src=""static/images/keys/z.svg"" width=""35%"" height=""75%""></img></td>
    <td width=300></td>
  </tr>
</table>
  ",90.0,1.0,,,,,,,,,,,,,,,,,,,,,,,,,,
31,0,,html-keyboard-response,31,533693,0.0-4.1-2.1,0e6le4hsg2a6,2022-09-19 14:52:42.394,5fb7dd473afbb1033b491811,2,42,68,0,2,45,Male,,,"
  <table>
  <tr height=300>
    <td width=300 height=300><img src=""static/images/cards/4_of_red_stars.svg"" width=""175px"" height=""250px""></img></td>
    <td width=300 height=300><img src=""static/images/cards/back_of_red_stars.svg"" width=""175px"" height=""250px""></img></td>
  </tr>
  <tr height=200>
    <td width=300><img src=""static/images/keys/z.svg"" width=""35%"" height=""75%""></img></td>
    <td width=300></td>
  </tr>
</table>
  ",,,,,,,,,,,,,,,,,,,,,,,,,,,,
32,0,,html-keyboard-response,32,535196,0.0-4.1-3.1,0e6le4hsg2a6,2022-09-19 14:52:42.394,5fb7dd473afbb1033b491811,2,42,68,0,2,45,Male,,,"<p style=""font-size:50px"">You Lose!
No points this round.</p>",,,,,,,,,,,,,,,,,,,,,,,,,,,,
33,0,,html-keyboard-response,33,535718,0.0-4.1-4.1,0e6le4hsg2a6,2022-09-19 14:52:42.394,5fb7dd473afbb1033b491811,2,42,68,0,2,45,Male,,,,,,1.0,learning,1.0,B,,red,,stars,,,,B,red,stars,,0.0,1.0,1,left,956.5,4.0,0.0,0.0,,,
34,0,,html-keyboard-response,34,537229,0.0-4.2-0.2,0e6le4hsg2a6,2022-09-19 14:52:42.394,5fb7dd473afbb1033b491811,2,42,68,0,2,45,Male,,,"<img src=""static/images/cards/stack_of_black_moons.svg"" width=""175px"" height=""250px""></img>",,,,,,,,,,,,,,,,,,,,,,,,,,,,
35,0,,html-keyboard-response,35,538899,0.0-4.2-1.2,0e6le4hsg2a6,2022-09-19 14:52:42.394,5fb7dd473afbb1033b491811,2,42,68,0,2,45,Male,1161.2999999989,,"
  <table>
  <tr height=300>
    <td width=300 height=300><img src=""static/images/cards/back_of_black_moons.svg"" width=""175px"" height=""250px""></img></td>
    <td width=300 height=300><img src=""static/images/cards/back_of_black_moons.svg"" width=""175px"" height=""250px""></img></td>
  </tr>
  <tr height=200>
    <td width=300><img src=""static/images/keys/z.svg"" width=""35%"" height=""75%""></img></td>
    <td width=300><img src=""static/images/keys/m.svg"" width=""35%"" height=""75%""></img></td>
  </tr>
</table>
  ",77.0,1.0,,,,,,,,,,,,,,,,,,,,,,,,,,
36,0,,html-keyboard-response,36,540416,0.0-4.2-2.2,0e6le4hsg2a6,2022-09-19 14:52:42.394,5fb7dd473afbb1033b491811,2,42,68,0,2,45,Male,,,"
  <table>
  <tr height=300>
    <td width=300 height=300><img src=""static/images/cards/back_of_black_moons.svg"" width=""175px"" height=""250px""></img></td>
    <td width=300 height=300><img src=""static/images/cards/9_of_black_moons.svg"" width=""175px"" height=""250px""></img></td>
  </tr>
  <tr height=200>
    <td width=300><img src=""static/images/keys/z.svg"" width=""35%"" height=""75%""></img></td>
    <td width=300><img src=""static/images/keys/m.svg"" width=""35%"" height=""75%""></img></td>
  </tr>
</table>
  ",,,,,,,,,,,,,,,,,,,,,,,,,,,,
37,0,,html-keyboard-response,37,541950,0.0-4.2-3.2,0e6le4hsg2a6,2022-09-19 14:52:42.394,5fb7dd473afbb1033b491811,2,42,68,0,2,45,Male,,,"<p style=""font-size:50px"">You Lose!
No points this round.</p>",,,,,,,,,,,,,,,,,,,,,,,,,,,,
38,0,,html-keyboard-response,38,542459,0.0-4.2-4.2,0e6le4hsg2a6,2022-09-19 14:52:42.394,5fb7dd473afbb1033b491811,2,42,68,0,2,45,Male,,,,,,1.0,learning,2.0,C,,black,,moons,,,,C,black,moons,,1.0,0.0,NA,right,1161.2999999989,9.0,1.0,0.0,,,
39,0,,html-keyboard-response,39,543968,0.0-4.3-0.3,0e6le4hsg2a6,2022-09-19 14:52:42.394,5fb7dd473afbb1033b491811,2,42,68,0,2,45,Male,,,"<img src=""static/images/cards/stack_of_red_moons.svg"" width=""175px"" height=""250px""></img>",,,,,,,,,,,,,,,,,,,,,,,,,,,,
40,0,,html-keyboard-response,40,545194,0.0-4.3-1.3,0e6le4hsg2a6,2022-09-19 14:52:42.394,5fb7dd473afbb1033b491811,2,42,68,0,2,45,Male,714.7000000011,,"
  <table>
  <tr height=300>
    <td width=300 height=300><img src=""static/images/cards/back_of_red_moons.svg"" width=""175px"" height=""250px""></img></td>
    <td width=300 height=300><img src=""static/images/cards/back_of_red_moons.svg"" width=""175px"" height=""250px""></img></td>
  </tr>
  <tr height=200>
    <td width=300><img src=""static/images/keys/z.svg"" width=""35%"" height=""75%""></img></td>
    <td width=300></td>
  </tr>
</table>
  ",90.0,1.0,,,,,,,,,,,,,,,,,,,,,,,,,,
41,0,,html-keyboard-response,41,546709,0.0-4.3-2.3,0e6le4hsg2a6,2022-09-19 14:52:42.394,5fb7dd473afbb1033b491811,2,42,68,0,2,45,Male,,,"
  <table>
  <tr height=300>
    <td width=300 height=300><img src=""static/images/cards/7_of_red_moons.svg"" width=""175px"" height=""250px""></img></td>
    <td width=300 height=300><img src=""static/images/cards/back_of_red_moons.svg"" width=""175px"" height=""250px""></img></td>
  </tr>
  <tr height=200>
    <td width=300><img src=""static/images/keys/z.svg"" width=""35%"" height=""75%""></img></td>
    <td width=300></td>
  </tr>
</table>
  ",,,,,,,,,,,,,,,,,,,,,,,,,,,,
42,0,,html-keyboard-response,42,548228,0.0-4.3-3.3,0e6le4hsg2a6,2022-09-19 14:52:42.394,5fb7dd473afbb1033b491811,2,42,68,0,2,45,Male,,,"<p style=""font-size:50px"">You win!
+10 points this round!</p>",,,,,,,,,,,,,,,,,,,,,,,,,,,,
43,0,,html-keyboard-response,43,548751,0.0-4.3-4.3,0e6le4hsg2a6,2022-09-19 14:52:42.394,5fb7dd473afbb1033b491811,2,42,68,0,2,45,Male,,,,,,1.0,learning,3.0,D,,red,,moons,,,,D,red,moons,,0.0,0.0,1,left,714.7000000011,7.0,1.0,1.0,,,
44,0,,html-keyboard-response,44,550261,0.0-4.4-0.4,0e6le4hsg2a6,2022-09-19 14:52:42.394,5fb7dd473afbb1033b491811,2,42,68,0,2,45,Male,,,"<img src=""static/images/cards/stack_of_red_bolts.svg"" width=""175px"" height=""250px""></img>",,,,,,,,,,,,,,,,,,,,,,,,,,,,
45,0,,html-keyboard-response,45,551670,0.0-4.4-1.4,0e6le4hsg2a6,2022-09-19 14:52:42.394,5fb7dd473afbb1033b491811,2,42,68,0,2,45,Male,896.9000000004,,"
  <table>
  <tr height=300>
    <td width=300 height=300><img src=""static/images/cards/back_of_red_bolts.svg"" width=""175px"" height=""250px""></img></td>
    <td width=300 height=300><img src=""static/images/cards/back_of_red_bolts.svg"" width=""175px"" height=""250px""></img></td>
  </tr>
  <tr height=200>
    <td width=300><img src=""static/images/keys/z.svg"" width=""35%"" height=""75%""></img></td>
    <td width=300><img src=""static/images/keys/m.svg"" width=""35%"" height=""75%""></img></td>
  </tr>
</table>
  ",77.0,1.0,,,,,,,,,,,,,,,,,,,,,,,,,,
46,0,,html-keyboard-response,46,553183,0.0-4.4-2.4,0e6le4hsg2a6,2022-09-19 14:52:42.394,5fb7dd473afbb1033b491811,2,42,68,0,2,45,Male,,,"
  <table>
  <tr height=300>
    <td width=300 height=300><img src=""static/images/cards/back_of_red_bolts.svg"" width=""175px"" height=""250px""></img></td>
    <td width=300 height=300><img src=""static/images/cards/4_of_red_bolts.svg"" width=""175px"" height=""250px""></img></td>
  </tr>
  <tr height=200>
    <td width=300><img src=""static/images/keys/z.svg"" width=""35%"" height=""75%""></img></td>
    <td width=300><img src=""static/images/keys/m.svg"" width=""35%"" height=""75%""></img></td>
  </tr>
</table>
  ",,,,,,,,,,,,,,,,,,,,,,,,,,,,
47,0,,html-keyboard-response,47,554701,0.0-4.4-3.4,0e6le4hsg2a6,2022-09-19 14:52:42.394,5fb7dd473afbb1033b491811,2,42,68,0,2,45,Male,,,"<p style=""font-size:50px"">You win!
+10 points this round!</p>",,,,,,,,,,,,,,,,,,,,,,,,,,,,
48,0,,html-keyboard-response,48,555210,0.0-4.4-4.4,0e6le4hsg2a6,2022-09-19 14:52:42.394,5fb7dd473afbb1033b491811,2,42,68,0,2,45,Male,,,,,,1.0,learning,4.0,Xc,,red,,bolts,,,,Xc,red,bolts,,1.0,0.0,NA,right,896.9000000004,4.0,0.0,1.0,,,
49,0,,html-keyboard-response,49,556715,0.0-4.5-0.5,0e6le4hsg2a6,2022-09-19 14:52:42.394,5fb7dd473afbb1033b491811,2,42,68,0,2,45,Male,,,"<img src=""static/images/cards/stack_of_black_bolts.svg"" width=""175px"" height=""250px""></img>",,,,,,,,,,,,,,,,,,,,,,,,,,,,
50,0,,html-keyboard-response,50,557973,0.0-4.5-1.5,0e6le4hsg2a6,2022-09-19 14:52:42.394,5fb7dd473afbb1033b491811,2,42,68,0,2,45,Male,745.5999999996,,"
  <table>
  <tr height=300>
    <td width=300 height=300><img src=""static/images/cards/back_of_black_bolts.svg"" width=""175px"" height=""250px""></img></td>
    <td width=300 height=300><img src=""static/images/cards/back_of_black_bolts.svg"" width=""175px"" height=""250px""></img></td>
  </tr>
  <tr height=200>
    <td width=300><img src=""static/images/keys/z.svg"" width=""35%"" height=""75%""></img></td>
    <td width=300></td>
  </tr>
</table>
  ",90.0,1.0,,,,,,,,,,,,,,,,,,,,,,,,,,
51,0,,html-keyboard-response,51,559494,0.0-4.5-2.5,0e6le4hsg2a6,2022-09-19 14:52:42.394,5fb7dd473afbb1033b491811,2,42,68,0,2,45,Male,,,"
  <table>
  <tr height=300>
    <td width=300 height=300><img src=""static/images/cards/7_of_black_bolts.svg"" width=""175px"" height=""250px""></img></td>
    <td width=300 height=300><img src=""static/images/cards/back_of_black_bolts.svg"" width=""175px"" height=""250px""></img></td>
  </tr>
  <tr height=200>
    <td width=300><img src=""static/images/keys/z.svg"" width=""35%"" height=""75%""></img></td>
    <td width=300></td>
  </tr>
</table>
  ",,,,,,,,,,,,,,,,,,,,,,,,,,,,
52,0,,html-keyboard-response,52,561007,0.0-4.5-3.5,0e6le4hsg2a6,2022-09-19 14:52:42.394,5fb7dd473afbb1033b491811,2,42,68,0,2,45,Male,,,"<p style=""font-size:50px"">You win!
+10 points this round!</p>",,,,,,,,,,,,,,,,,,,,,,,,,,,,
53,0,,html-keyboard-response,53,561514,0.0-4.5-4.5,0e6le4hsg2a6,2022-09-19 14:52:42.394,5fb7dd473afbb1033b491811,2,42,68,0,2,45,Male,,,,,,1.0,learning,5.0,Xnc,,black,,bolts,,,,Xnc,black,bolts,,0.0,0.0,1,left,745.5999999996,7.0,1.0,1.0,,,
54,0,,html-keyboard-response,54,563025,0.0-4.6-0.6,0e6le4hsg2a6,2022-09-19 14:52:42.394,5fb7dd473afbb1033b491811,2,42,68,0,2,45,Male,,,"<img src=""static/images/cards/stack_of_black_stars.svg"" width=""175px"" height=""250px""></img>",,,,,,,,,,,,,,,,,,,,,,,,,,,,
55,0,,html-keyboard-response,55,564246,0.0-4.6-1.6,0e6le4hsg2a6,2022-09-19 14:52:42.394,5fb7dd473afbb1033b491811,2,42,68,0,2,45,Male,712.0,,"
  <table>
  <tr height=300>
    <td width=300 height=300><img src=""static/images/cards/back_of_black_stars.svg"" width=""175px"" height=""250px""></img></td>
    <td width=300 height=300><img src=""static/images/cards/back_of_black_stars.svg"" width=""175px"" height=""250px""></img></td>
  </tr>
  <tr height=200>
    <td width=300><img src=""static/images/keys/z.svg"" width=""35%"" height=""75%""></img></td>
    <td width=300><img src=""static/images/keys/m.svg"" width=""35%"" height=""75%""></img></td>
  </tr>
</table>
  ",77.0,1.0,,,,,,,,,,,,,,,,,,,,,,,,,,
56,0,,html-keyboard-response,56,565761,0.0-4.6-2.6,0e6le4hsg2a6,2022-09-19 14:52:42.394,5fb7dd473afbb1033b491811,2,42,68,0,2,45,Male,,,"
  <table>
  <tr height=300>
    <td width=300 height=300><img src=""static/images/cards/back_of_black_stars.svg"" width=""175px"" height=""250px""></img></td>
    <td width=300 height=300><img src=""static/images/cards/3_of_black_stars.svg"" width=""175px"" height=""250px""></img></td>
  </tr>
  <tr height=200>
    <td width=300><img src=""static/images/keys/z.svg"" width=""35%"" height=""75%""></img></td>
    <td width=300><img src=""static/images/keys/m.svg"" width=""35%"" height=""75%""></img></td>
  </tr>
</table>
  ",,,,,,,,,,,,,,,,,,,,,,,,,,,,
57,0,,html-keyboard-response,57,567279,0.0-4.6-3.6,0e6le4hsg2a6,2022-09-19 14:52:42.394,5fb7dd473afbb1033b491811,2,42,68,0,2,45,Male,,,"<p style=""font-size:50px"">You Lose!
No points this round.</p>",,,,,,,,,,,,,,,,,,,,,,,,,,,,
58,0,,html-keyboard-response,58,567788,0.0-4.6-4.6,0e6le4hsg2a6,2022-09-19 14:52:42.394,5fb7dd473afbb1033b491811,2,42,68,0,2,45,Male,,,,,,1.0,learning,6.0,A,,black,,stars,,,,A,black,stars,,1.0,1.0,NA,right,712.0,3.0,0.0,0.0,,,
59,0,,html-keyboard-response,59,569298,0.0-4.7-0.7,0e6le4hsg2a6,2022-09-19 14:52:42.394,5fb7dd473afbb1033b491811,2,42,68,0,2,45,Male,,,"<img src=""static/images/cards/stack_of_red_stars.svg"" width=""175px"" height=""250px""></img>",,,,,,,,,,,,,,,,,,,,,,,,,,,,
60,0,,html-keyboard-response,60,570363,0.0-4.7-1.7,0e6le4hsg2a6,2022-09-19 14:52:42.394,5fb7dd473afbb1033b491811,2,42,68,0,2,45,Male,557.8000000007,,"
  <table>
  <tr height=300>
    <td width=300 height=300><img src=""static/images/cards/back_of_red_stars.svg"" width=""175px"" height=""250px""></img></td>
    <td width=300 height=300><img src=""static/images/cards/back_of_red_stars.svg"" width=""175px"" height=""250px""></img></td>
  </tr>
  <tr height=200>
    <td width=300><img src=""static/images/keys/z.svg"" width=""35%"" height=""75%""></img></td>
    <td width=300></td>
  </tr>
</table>
  ",90.0,1.0,,,,,,,,,,,,,,,,,,,,,,,,,,
61,0,,html-keyboard-response,61,571877,0.0-4.7-2.7,0e6le4hsg2a6,2022-09-19 14:52:42.394,5fb7dd473afbb1033b491811,2,42,68,0,2,45,Male,,,"
  <table>
  <tr height=300>
    <td width=300 height=300><img src=""static/images/cards/10_of_red_stars.svg"" width=""175px"" height=""250px""></img></td>
    <td width=300 height=300><img src=""static/images/cards/back_of_red_stars.svg"" width=""175px"" height=""250px""></img></td>
  </tr>
  <tr height=200>
    <td width=300><img src=""static/images/keys/z.svg"" width=""35%"" height=""75%""></img></td>
    <td width=300></td>
  </tr>
</table>
  ",,,,,,,,,,,,,,,,,,,,,,,,,,,,
62,0,,html-keyboard-response,62,573402,0.0-4.7-3.7,0e6le4hsg2a6,2022-09-19 14:52:42.394,5fb7dd473afbb1033b491811,2,42,68,0,2,45,Male,,,"<p style=""font-size:50px"">You win!
+10 points this round!</p>",,,,,,,,,,,,,,,,,,,,,,,,,,,,
63,0,,html-keyboard-response,63,573927,0.0-4.7-4.7,0e6le4hsg2a6,2022-09-19 14:52:42.394,5fb7dd473afbb1033b491811,2,42,68,0,2,45,Male,,,,,,1.0,learning,7.0,B,,red,,stars,,,,B,red,stars,,0.0,1.0,1,left,557.8000000007,10.0,1.0,1.0,,,
64,0,,html-keyboard-response,64,575438,0.0-4.8-0.8,0e6le4hsg2a6,2022-09-19 14:52:42.394,5fb7dd473afbb1033b491811,2,42,68,0,2,45,Male,,,"<img src=""static/images/cards/stack_of_black_moons.svg"" width=""175px"" height=""250px""></img>",,,,,,,,,,,,,,,,,,,,,,,,,,,,
65,0,,html-keyboard-response,65,576591,0.0-4.8-1.8,0e6le4hsg2a6,2022-09-19 14:52:42.394,5fb7dd473afbb1033b491811,2,42,68,0,2,45,Male,643.8000000007,,"
  <table>
  <tr height=300>
    <td width=300 height=300><img src=""static/images/cards/back_of_black_moons.svg"" width=""175px"" height=""250px""></img></td>
    <td width=300 height=300><img src=""static/images/cards/back_of_black_moons.svg"" width=""175px"" height=""250px""></img></td>
  </tr>
  <tr height=200>
    <td width=300><img src=""static/images/keys/z.svg"" width=""35%"" height=""75%""></img></td>
    <td width=300><img src=""static/images/keys/m.svg"" width=""35%"" height=""75%""></img></td>
  </tr>
</table>
  ",90.0,1.0,,,,,,,,,,,,,,,,,,,,,,,,,,
66,0,,html-keyboard-response,66,578100,0.0-4.8-2.8,0e6le4hsg2a6,2022-09-19 14:52:42.394,5fb7dd473afbb1033b491811,2,42,68,0,2,45,Male,,,"
  <table>
  <tr height=300>
    <td width=300 height=300><img src=""static/images/cards/1_of_black_moons.svg"" width=""175px"" height=""250px""></img></td>
    <td width=300 height=300><img src=""static/images/cards/back_of_black_moons.svg"" width=""175px"" height=""250px""></img></td>
  </tr>
  <tr height=200>
    <td width=300><img src=""static/images/keys/z.svg"" width=""35%"" height=""75%""></img></td>
    <td width=300><img src=""static/images/keys/m.svg"" width=""35%"" height=""75%""></img></td>
  </tr>
</table>
  ",,,,,,,,,,,,,,,,,,,,,,,,,,,,
67,0,,html-keyboard-response,67,579626,0.0-4.8-3.8,0e6le4hsg2a6,2022-09-19 14:52:42.394,5fb7dd473afbb1033b491811,2,42,68,0,2,45,Male,,,"<p style=""font-size:50px"">You Lose!
No points this round.</p>",,,,,,,,,,,,,,,,,,,,,,,,,,,,
68,0,,html-keyboard-response,68,580149,0.0-4.8-4.8,0e6le4hsg2a6,2022-09-19 14:52:42.394,5fb7dd473afbb1033b491811,2,42,68,0,2,45,Male,,,,,,1.0,learning,8.0,C,,black,,moons,,,,C,black,moons,,1.0,0.0,NA,left,643.8000000007,1.0,0.0,0.0,,,
69,0,,html-keyboard-response,69,581662,0.0-4.9-0.9,0e6le4hsg2a6,2022-09-19 14:52:42.394,5fb7dd473afbb1033b491811,2,42,68,0,2,45,Male,,,"<img src=""static/images/cards/stack_of_red_moons.svg"" width=""175px"" height=""250px""></img>",,,,,,,,,,,,,,,,,,,,,,,,,,,,
70,0,,html-keyboard-response,70,582717,0.0-4.9-1.9,0e6le4hsg2a6,2022-09-19 14:52:42.394,5fb7dd473afbb1033b491811,2,42,68,0,2,45,Male,546.7999999989,,"
  <table>
  <tr height=300>
    <td width=300 height=300><img src=""static/images/cards/back_of_red_moons.svg"" width=""175px"" height=""250px""></img></td>
    <td width=300 height=300><img src=""static/images/cards/back_of_red_moons.svg"" width=""175px"" height=""250px""></img></td>
  </tr>
  <tr height=200>
    <td width=300><img src=""static/images/keys/z.svg"" width=""35%"" height=""75%""></img></td>
    <td width=300></td>
  </tr>
</table>
  ",90.0,1.0,,,,,,,,,,,,,,,,,,,,,,,,,,
71,0,,html-keyboard-response,71,584227,0.0-4.9-2.9,0e6le4hsg2a6,2022-09-19 14:52:42.394,5fb7dd473afbb1033b491811,2,42,68,0,2,45,Male,,,"
  <table>
  <tr height=300>
    <td width=300 height=300><img src=""static/images/cards/10_of_red_moons.svg"" width=""175px"" height=""250px""></img></td>
    <td width=300 height=300><img src=""static/images/cards/back_of_red_moons.svg"" width=""175px"" height=""250px""></img></td>
  </tr>
  <tr height=200>
    <td width=300><img src=""static/images/keys/z.svg"" width=""35%"" height=""75%""></img></td>
    <td width=300></td>
  </tr>
</table>
  ",,,,,,,,,,,,,,,,,,,,,,,,,,,,
72,0,,html-keyboard-response,72,585747,0.0-4.9-3.9,0e6le4hsg2a6,2022-09-19 14:52:42.394,5fb7dd473afbb1033b491811,2,42,68,0,2,45,Male,,,"<p style=""font-size:50px"">You Lose!
No points this round.</p>",,,,,,,,,,,,,,,,,,,,,,,,,,,,
73,0,,html-keyboard-response,73,586257,0.0-4.9-4.9,0e6le4hsg2a6,2022-09-19 14:52:42.394,5fb7dd473afbb1033b491811,2,42,68,0,2,45,Male,,,,,,1.0,learning,9.0,D,,red,,moons,,,,D,red,moons,,0.0,0.0,1,left,546.7999999989,10.0,1.0,0.0,,,
74,0,,html-keyboard-response,74,587767,0.0-4.10-0.10,0e6le4hsg2a6,2022-09-19 14:52:42.394,5fb7dd473afbb1033b491811,2,42,68,0,2,45,Male,,,"<img src=""static/images/cards/stack_of_red_bolts.svg"" width=""175px"" height=""250px""></img>",,,,,,,,,,,,,,,,,,,,,,,,,,,,
75,0,,html-keyboard-response,75,589439,0.0-4.10-1.10,0e6le4hsg2a6,2022-09-19 14:52:42.394,5fb7dd473afbb1033b491811,2,42,68,0,2,45,Male,1162.5,,"
  <table>
  <tr height=300>
    <td width=300 height=300><img src=""static/images/cards/back_of_red_bolts.svg"" width=""175px"" height=""250px""></img></td>
    <td width=300 height=300><img src=""static/images/cards/back_of_red_bolts.svg"" width=""175px"" height=""250px""></img></td>
  </tr>
  <tr height=200>
    <td width=300><img src=""static/images/keys/z.svg"" width=""35%"" height=""75%""></img></td>
    <td width=300><img src=""static/images/keys/m.svg"" width=""35%"" height=""75%""></img></td>
  </tr>
</table>
  ",90.0,1.0,,,,,,,,,,,,,,,,,,,,,,,,,,
76,0,,html-keyboard-response,76,590955,0.0-4.10-2.10,0e6le4hsg2a6,2022-09-19 14:52:42.394,5fb7dd473afbb1033b491811,2,42,68,0,2,45,Male,,,"
  <table>
  <tr height=300>
    <td width=300 height=300><img src=""static/images/cards/6_of_red_bolts.svg"" width=""175px"" height=""250px""></img></td>
    <td width=300 height=300><img src=""static/images/cards/back_of_red_bolts.svg"" width=""175px"" height=""250px""></img></td>
  </tr>
  <tr height=200>
    <td width=300><img src=""static/images/keys/z.svg"" width=""35%"" height=""75%""></img></td>
    <td width=300><img src=""static/images/keys/m.svg"" width=""35%"" height=""75%""></img></td>
  </tr>
</table>
  ",,,,,,,,,,,,,,,,,,,,,,,,,,,,
77,0,,html-keyboard-response,77,592473,0.0-4.10-3.10,0e6le4hsg2a6,2022-09-19 14:52:42.394,5fb7dd473afbb1033b491811,2,42,68,0,2,45,Male,,,"<p style=""font-size:50px"">You win!
+10 points this round!</p>",,,,,,,,,,,,,,,,,,,,,,,,,,,,
78,0,,html-keyboard-response,78,592994,0.0-4.10-4.10,0e6le4hsg2a6,2022-09-19 14:52:42.394,5fb7dd473afbb1033b491811,2,42,68,0,2,45,Male,,,,,,1.0,learning,10.0,Xc,,red,,bolts,,,,Xc,red,bolts,,1.0,0.0,NA,left,1162.5,6.0,1.0,1.0,,,
79,0,,html-keyboard-response,79,594507,0.0-4.11-0.11,0e6le4hsg2a6,2022-09-19 14:52:42.394,5fb7dd473afbb1033b491811,2,42,68,0,2,45,Male,,,"<img src=""static/images/cards/stack_of_black_bolts.svg"" width=""175px"" height=""250px""></img>",,,,,,,,,,,,,,,,,,,,,,,,,,,,
80,0,,html-keyboard-response,80,596694,0.0-4.11-1.11,0e6le4hsg2a6,2022-09-19 14:52:42.394,5fb7dd473afbb1033b491811,2,42,68,0,2,45,Male,1677.6999999993,,"
  <table>
  <tr height=300>
    <td width=300 height=300><img src=""static/images/cards/back_of_black_bolts.svg"" width=""175px"" height=""250px""></img></td>
    <td width=300 height=300><img src=""static/images/cards/back_of_black_bolts.svg"" width=""175px"" height=""250px""></img></td>
  </tr>
  <tr height=200>
    <td width=300></td>
    <td width=300><img src=""static/images/keys/m.svg"" width=""35%"" height=""75%""></img></td>
  </tr>
</table>
  ",77.0,1.0,,,,,,,,,,,,,,,,,,,,,,,,,,
81,0,,html-keyboard-response,81,598210,0.0-4.11-2.11,0e6le4hsg2a6,2022-09-19 14:52:42.394,5fb7dd473afbb1033b491811,2,42,68,0,2,45,Male,,,"
  <table>
  <tr height=300>
    <td width=300 height=300><img src=""static/images/cards/back_of_black_bolts.svg"" width=""175px"" height=""250px""></img></td>
    <td width=300 height=300><img src=""static/images/cards/3_of_black_bolts.svg"" width=""175px"" height=""250px""></img></td>
  </tr>
  <tr height=200>
    <td width=300></td>
    <td width=300><img src=""static/images/keys/m.svg"" width=""35%"" height=""75%""></img></td>
  </tr>
</table>
  ",,,,,,,,,,,,,,,,,,,,,,,,,,,,
82,0,,html-keyboard-response,82,599729,0.0-4.11-3.11,0e6le4hsg2a6,2022-09-19 14:52:42.394,5fb7dd473afbb1033b491811,2,42,68,0,2,45,Male,,,"<p style=""font-size:50px"">You win!
+10 points this round!</p>",,,,,,,,,,,,,,,,,,,,,,,,,,,,
83,0,,html-keyboard-response,83,600238,0.0-4.11-4.11,0e6le4hsg2a6,2022-09-19 14:52:42.394,5fb7dd473afbb1033b491811,2,42,68,0,2,45,Male,,,,,,1.0,learning,11.0,Xnc,,black,,bolts,,,,Xnc,black,bolts,,0.0,0.0,0,right,1677.6999999993,3.0,0.0,1.0,,,
84,0,,html-keyboard-response,84,601747,0.0-4.12-0.12,0e6le4hsg2a6,2022-09-19 14:52:42.394,5fb7dd473afbb1033b491811,2,42,68,0,2,45,Male,,,"<img src=""static/images/cards/stack_of_black_stars.svg"" width=""175px"" height=""250px""></img>",,,,,,,,,,,,,,,,,,,,,,,,,,,,
85,0,,html-keyboard-response,85,603663,0.0-4.12-1.12,0e6le4hsg2a6,2022-09-19 14:52:42.394,5fb7dd473afbb1033b491811,2,42,68,0,2,45,Male,1406.3999999985,,"
  <table>
  <tr height=300>
    <td width=300 height=300><img src=""static/images/cards/back_of_black_stars.svg"" width=""175px"" height=""250px""></img></td>
    <td width=300 height=300><img src=""static/images/cards/back_of_black_stars.svg"" width=""175px"" height=""250px""></img></td>
  </tr>
  <tr height=200>
    <td width=300><img src=""static/images/keys/z.svg"" width=""35%"" height=""75%""></img></td>
    <td width=300><img src=""static/images/keys/m.svg"" width=""35%"" height=""75%""></img></td>
  </tr>
</table>
  ",77.0,1.0,,,,,,,,,,,,,,,,,,,,,,,,,,
86,0,,html-keyboard-response,86,605183,0.0-4.12-2.12,0e6le4hsg2a6,2022-09-19 14:52:42.394,5fb7dd473afbb1033b491811,2,42,68,0,2,45,Male,,,"
  <table>
  <tr height=300>
    <td width=300 height=300><img src=""static/images/cards/back_of_black_stars.svg"" width=""175px"" height=""250px""></img></td>
    <td width=300 height=300><img src=""static/images/cards/7_of_black_stars.svg"" width=""175px"" height=""250px""></img></td>
  </tr>
  <tr height=200>
    <td width=300><img src=""static/images/keys/z.svg"" width=""35%"" height=""75%""></img></td>
    <td width=300><img src=""static/images/keys/m.svg"" width=""35%"" height=""75%""></img></td>
  </tr>
</table>
  ",,,,,,,,,,,,,,,,,,,,,,,,,,,,
87,0,,html-keyboard-response,87,606703,0.0-4.12-3.12,0e6le4hsg2a6,2022-09-19 14:52:42.394,5fb7dd473afbb1033b491811,2,42,68,0,2,45,Male,,,"<p style=""font-size:50px"">You win!
+10 points this round!</p>",,,,,,,,,,,,,,,,,,,,,,,,,,,,
88,0,,html-keyboard-response,88,607210,0.0-4.12-4.12,0e6le4hsg2a6,2022-09-19 14:52:42.394,5fb7dd473afbb1033b491811,2,42,68,0,2,45,Male,,,,,,1.0,learning,12.0,A,,black,,stars,,,,A,black,stars,,1.0,1.0,NA,right,1406.3999999985,7.0,1.0,1.0,,,
89,0,,html-keyboard-response,89,608723,0.0-4.13-0.13,0e6le4hsg2a6,2022-09-19 14:52:42.394,5fb7dd473afbb1033b491811,2,42,68,0,2,45,Male,,,"<img src=""static/images/cards/stack_of_red_stars.svg"" width=""175px"" height=""250px""></img>",,,,,,,,,,,,,,,,,,,,,,,,,,,,
90,0,,html-keyboard-response,90,610694,0.0-4.13-1.13,0e6le4hsg2a6,2022-09-19 14:52:42.394,5fb7dd473afbb1033b491811,2,42,68,0,2,45,Male,1462.7000000011,,"
  <table>
  <tr height=300>
    <td width=300 height=300><img src=""static/images/cards/back_of_red_stars.svg"" width=""175px"" height=""250px""></img></td>
    <td width=300 height=300><img src=""static/images/cards/back_of_red_stars.svg"" width=""175px"" height=""250px""></img></td>
  </tr>
  <tr height=200>
    <td width=300></td>
    <td width=300><img src=""static/images/keys/m.svg"" width=""35%"" height=""75%""></img></td>
  </tr>
</table>
  ",77.0,1.0,,,,,,,,,,,,,,,,,,,,,,,,,,
91,0,,html-keyboard-response,91,612209,0.0-4.13-2.13,0e6le4hsg2a6,2022-09-19 14:52:42.394,5fb7dd473afbb1033b491811,2,42,68,0,2,45,Male,,,"
  <table>
  <tr height=300>
    <td width=300 height=300><img src=""static/images/cards/back_of_red_stars.svg"" width=""175px"" height=""250px""></img></td>
    <td width=300 height=300><img src=""static/images/cards/10_of_red_stars.svg"" width=""175px"" height=""250px""></img></td>
  </tr>
  <tr height=200>
    <td width=300></td>
    <td width=300><img src=""static/images/keys/m.svg"" width=""35%"" height=""75%""></img></td>
  </tr>
</table>
  ",,,,,,,,,,,,,,,,,,,,,,,,,,,,
92,0,,html-keyboard-response,92,613727,0.0-4.13-3.13,0e6le4hsg2a6,2022-09-19 14:52:42.394,5fb7dd473afbb1033b491811,2,42,68,0,2,45,Male,,,"<p style=""font-size:50px"">You win!
+10 points this round!</p>",,,,,,,,,,,,,,,,,,,,,,,,,,,,
93,0,,html-keyboard-response,93,614248,0.0-4.13-4.13,0e6le4hsg2a6,2022-09-19 14:52:42.394,5fb7dd473afbb1033b491811,2,42,68,0,2,45,Male,,,,,,1.0,learning,13.0,B,,red,,stars,,,,B,red,stars,,0.0,1.0,0,right,1462.7000000011,10.0,1.0,1.0,,,
94,0,,html-keyboard-response,94,615763,0.0-4.14-0.14,0e6le4hsg2a6,2022-09-19 14:52:42.394,5fb7dd473afbb1033b491811,2,42,68,0,2,45,Male,,,"<img src=""static/images/cards/stack_of_black_moons.svg"" width=""175px"" height=""250px""></img>",,,,,,,,,,,,,,,,,,,,,,,,,,,,
95,0,,html-keyboard-response,95,616745,0.0-4.14-1.14,0e6le4hsg2a6,2022-09-19 14:52:42.394,5fb7dd473afbb1033b491811,2,42,68,0,2,45,Male,472.0999999996,,"
  <table>
  <tr height=300>
    <td width=300 height=300><img src=""static/images/cards/back_of_black_moons.svg"" width=""175px"" height=""250px""></img></td>
    <td width=300 height=300><img src=""static/images/cards/back_of_black_moons.svg"" width=""175px"" height=""250px""></img></td>
  </tr>
  <tr height=200>
    <td width=300><img src=""static/images/keys/z.svg"" width=""35%"" height=""75%""></img></td>
    <td width=300><img src=""static/images/keys/m.svg"" width=""35%"" height=""75%""></img></td>
  </tr>
</table>
  ",90.0,1.0,,,,,,,,,,,,,,,,,,,,,,,,,,
96,0,,html-keyboard-response,96,618268,0.0-4.14-2.14,0e6le4hsg2a6,2022-09-19 14:52:42.394,5fb7dd473afbb1033b491811,2,42,68,0,2,45,Male,,,"
  <table>
  <tr height=300>
    <td width=300 height=300><img src=""static/images/cards/10_of_black_moons.svg"" width=""175px"" height=""250px""></img></td>
    <td width=300 height=300><img src=""static/images/cards/back_of_black_moons.svg"" width=""175px"" height=""250px""></img></td>
  </tr>
  <tr height=200>
    <td width=300><img src=""static/images/keys/z.svg"" width=""35%"" height=""75%""></img></td>
    <td width=300><img src=""static/images/keys/m.svg"" width=""35%"" height=""75%""></img></td>
  </tr>
</table>
  ",,,,,,,,,,,,,,,,,,,,,,,,,,,,
97,0,,html-keyboard-response,97,619800,0.0-4.14-3.14,0e6le4hsg2a6,2022-09-19 14:52:42.394,5fb7dd473afbb1033b491811,2,42,68,0,2,45,Male,,,"<p style=""font-size:50px"">You Lose!
No points this round.</p>",,,,,,,,,,,,,,,,,,,,,,,,,,,,
98,0,,html-keyboard-response,98,620309,0.0-4.14-4.14,0e6le4hsg2a6,2022-09-19 14:52:42.394,5fb7dd473afbb1033b491811,2,42,68,0,2,45,Male,,,,,,1.0,learning,14.0,C,,black,,moons,,,,C,black,moons,,1.0,0.0,NA,left,472.0999999996,10.0,1.0,0.0,,,
99,0,,html-keyboard-response,99,621817,0.0-4.15-0.15,0e6le4hsg2a6,2022-09-19 14:52:42.394,5fb7dd473afbb1033b491811,2,42,68,0,2,45,Male,,,"<img src=""static/images/cards/stack_of_red_moons.svg"" width=""175px"" height=""250px""></img>",,,,,,,,,,,,,,,,,,,,,,,,,,,,
100,0,,html-keyboard-response,100,623775,0.0-4.15-1.15,0e6le4hsg2a6,2022-09-19 14:52:42.394,5fb7dd473afbb1033b491811,2,42,68,0,2,45,Male,1446.0999999996,,"
  <table>
  <tr height=300>
    <td width=300 height=300><img src=""static/images/cards/back_of_red_moons.svg"" width=""175px"" height=""250px""></img></td>
    <td width=300 height=300><img src=""static/images/cards/back_of_red_moons.svg"" width=""175px"" height=""250px""></img></td>
  </tr>
  <tr height=200>
    <td width=300><img src=""static/images/keys/z.svg"" width=""35%"" height=""75%""></img></td>
    <td width=300></td>
  </tr>
</table>
  ",90.0,1.0,,,,,,,,,,,,,,,,,,,,,,,,,,
101,0,,html-keyboard-response,101,625290,0.0-4.15-2.15,0e6le4hsg2a6,2022-09-19 14:52:42.394,5fb7dd473afbb1033b491811,2,42,68,0,2,45,Male,,,"
  <table>
  <tr height=300>
    <td width=300 height=300><img src=""static/images/cards/2_of_red_moons.svg"" width=""175px"" height=""250px""></img></td>
    <td width=300 height=300><img src=""static/images/cards/back_of_red_moons.svg"" width=""175px"" height=""250px""></img></td>
  </tr>
  <tr height=200>
    <td width=300><img src=""static/images/keys/z.svg"" width=""35%"" height=""75%""></img></td>
    <td width=300></td>
  </tr>
</table>
  ",,,,,,,,,,,,,,,,,,,,,,,,,,,,
102,0,,html-keyboard-response,102,626807,0.0-4.15-3.15,0e6le4hsg2a6,2022-09-19 14:52:42.394,5fb7dd473afbb1033b491811,2,42,68,0,2,45,Male,,,"<p style=""font-size:50px"">You Lose!
No points this round.</p>",,,,,,,,,,,,,,,,,,,,,,,,,,,,
103,0,,html-keyboard-response,103,627316,0.0-4.15-4.15,0e6le4hsg2a6,2022-09-19 14:52:42.394,5fb7dd473afbb1033b491811,2,42,68,0,2,45,Male,,,,,,1.0,learning,15.0,D,,red,,moons,,,,D,red,moons,,0.0,0.0,1,left,1446.0999999996,2.0,0.0,0.0,,,
104,0,,html-keyboard-response,104,628826,0.0-4.16-0.16,0e6le4hsg2a6,2022-09-19 14:52:42.394,5fb7dd473afbb1033b491811,2,42,68,0,2,45,Male,,,"<img src=""static/images/cards/stack_of_red_bolts.svg"" width=""175px"" height=""250px""></img>",,,,,,,,,,,,,,,,,,,,,,,,,,,,
105,0,,html-keyboard-response,105,629970,0.0-4.16-1.16,0e6le4hsg2a6,2022-09-19 14:52:42.394,5fb7dd473afbb1033b491811,2,42,68,0,2,45,Male,633.6999999993,,"
  <table>
  <tr height=300>
    <td width=300 height=300><img src=""static/images/cards/back_of_red_bolts.svg"" width=""175px"" height=""250px""></img></td>
    <td width=300 height=300><img src=""static/images/cards/back_of_red_bolts.svg"" width=""175px"" height=""250px""></img></td>
  </tr>
  <tr height=200>
    <td width=300><img src=""static/images/keys/z.svg"" width=""35%"" height=""75%""></img></td>
    <td width=300><img src=""static/images/keys/m.svg"" width=""35%"" height=""75%""></img></td>
  </tr>
</table>
  ",77.0,1.0,,,,,,,,,,,,,,,,,,,,,,,,,,
106,0,,html-keyboard-response,106,631480,0.0-4.16-2.16,0e6le4hsg2a6,2022-09-19 14:52:42.394,5fb7dd473afbb1033b491811,2,42,68,0,2,45,Male,,,"
  <table>
  <tr height=300>
    <td width=300 height=300><img src=""static/images/cards/back_of_red_bolts.svg"" width=""175px"" height=""250px""></img></td>
    <td width=300 height=300><img src=""static/images/cards/6_of_red_bolts.svg"" width=""175px"" height=""250px""></img></td>
  </tr>
  <tr height=200>
    <td width=300><img src=""static/images/keys/z.svg"" width=""35%"" height=""75%""></img></td>
    <td width=300><img src=""static/images/keys/m.svg"" width=""35%"" height=""75%""></img></td>
  </tr>
</table>
  ",,,,,,,,,,,,,,,,,,,,,,,,,,,,
107,0,,html-keyboard-response,107,632999,0.0-4.16-3.16,0e6le4hsg2a6,2022-09-19 14:52:42.394,5fb7dd473afbb1033b491811,2,42,68,0,2,45,Male,,,"<p style=""font-size:50px"">You win!
+10 points this round!</p>",,,,,,,,,,,,,,,,,,,,,,,,,,,,
108,0,,html-keyboard-response,108,633521,0.0-4.16-4.16,0e6le4hsg2a6,2022-09-19 14:52:42.394,5fb7dd473afbb1033b491811,2,42,68,0,2,45,Male,,,,,,1.0,learning,16.0,Xc,,red,,bolts,,,,Xc,red,bolts,,1.0,0.0,NA,right,633.6999999993,6.0,1.0,1.0,,,
109,0,,html-keyboard-response,109,635045,0.0-4.17-0.17,0e6le4hsg2a6,2022-09-19 14:52:42.394,5fb7dd473afbb1033b491811,2,42,68,0,2,45,Male,,,"<img src=""static/images/cards/stack_of_black_bolts.svg"" width=""175px"" height=""250px""></img>",,,,,,,,,,,,,,,,,,,,,,,,,,,,
110,0,,html-keyboard-response,110,636308,0.0-4.17-1.17,0e6le4hsg2a6,2022-09-19 14:52:42.394,5fb7dd473afbb1033b491811,2,42,68,0,2,45,Male,750.4000000004,,"
  <table>
  <tr height=300>
    <td width=300 height=300><img src=""static/images/cards/back_of_black_bolts.svg"" width=""175px"" height=""250px""></img></td>
    <td width=300 height=300><img src=""static/images/cards/back_of_black_bolts.svg"" width=""175px"" height=""250px""></img></td>
  </tr>
  <tr height=200>
    <td width=300></td>
    <td width=300><img src=""static/images/keys/m.svg"" width=""35%"" height=""75%""></img></td>
  </tr>
</table>
  ",77.0,1.0,,,,,,,,,,,,,,,,,,,,,,,,,,
111,0,,html-keyboard-response,111,637818,0.0-4.17-2.17,0e6le4hsg2a6,2022-09-19 14:52:42.394,5fb7dd473afbb1033b491811,2,42,68,0,2,45,Male,,,"
  <table>
  <tr height=300>
    <td width=300 height=300><img src=""static/images/cards/back_of_black_bolts.svg"" width=""175px"" height=""250px""></img></td>
    <td width=300 height=300><img src=""static/images/cards/7_of_black_bolts.svg"" width=""175px"" height=""250px""></img></td>
  </tr>
  <tr height=200>
    <td width=300></td>
    <td width=300><img src=""static/images/keys/m.svg"" width=""35%"" height=""75%""></img></td>
  </tr>
</table>
  ",,,,,,,,,,,,,,,,,,,,,,,,,,,,
112,0,,html-keyboard-response,112,639337,0.0-4.17-3.17,0e6le4hsg2a6,2022-09-19 14:52:42.394,5fb7dd473afbb1033b491811,2,42,68,0,2,45,Male,,,"<p style=""font-size:50px"">You win!
+10 points this round!</p>",,,,,,,,,,,,,,,,,,,,,,,,,,,,
113,0,,html-keyboard-response,113,639845,0.0-4.17-4.17,0e6le4hsg2a6,2022-09-19 14:52:42.394,5fb7dd473afbb1033b491811,2,42,68,0,2,45,Male,,,,,,1.0,learning,17.0,Xnc,,black,,bolts,,,,Xnc,black,bolts,,0.0,0.0,0,right,750.4000000004,7.0,1.0,1.0,,,
114,0,,html-keyboard-response,114,641356,0.0-4.18-0.18,0e6le4hsg2a6,2022-09-19 14:52:42.394,5fb7dd473afbb1033b491811,2,42,68,0,2,45,Male,,,"<img src=""static/images/cards/stack_of_black_stars.svg"" width=""175px"" height=""250px""></img>",,,,,,,,,,,,,,,,,,,,,,,,,,,,
115,0,,html-keyboard-response,115,642953,0.0-4.18-1.18,0e6le4hsg2a6,2022-09-19 14:52:42.394,5fb7dd473afbb1033b491811,2,42,68,0,2,45,Male,1087.5,,"
  <table>
  <tr height=300>
    <td width=300 height=300><img src=""static/images/cards/back_of_black_stars.svg"" width=""175px"" height=""250px""></img></td>
    <td width=300 height=300><img src=""static/images/cards/back_of_black_stars.svg"" width=""175px"" height=""250px""></img></td>
  </tr>
  <tr height=200>
    <td width=300><img src=""static/images/keys/z.svg"" width=""35%"" height=""75%""></img></td>
    <td width=300><img src=""static/images/keys/m.svg"" width=""35%"" height=""75%""></img></td>
  </tr>
</table>
  ",77.0,1.0,,,,,,,,,,,,,,,,,,,,,,,,,,
116,0,,html-keyboard-response,116,644464,0.0-4.18-2.18,0e6le4hsg2a6,2022-09-19 14:52:42.394,5fb7dd473afbb1033b491811,2,42,68,0,2,45,Male,,,"
  <table>
  <tr height=300>
    <td width=300 height=300><img src=""static/images/cards/back_of_black_stars.svg"" width=""175px"" height=""250px""></img></td>
    <td width=300 height=300><img src=""static/images/cards/7_of_black_stars.svg"" width=""175px"" height=""250px""></img></td>
  </tr>
  <tr height=200>
    <td width=300><img src=""static/images/keys/z.svg"" width=""35%"" height=""75%""></img></td>
    <td width=300><img src=""static/images/keys/m.svg"" width=""35%"" height=""75%""></img></td>
  </tr>
</table>
  ",,,,,,,,,,,,,,,,,,,,,,,,,,,,
117,0,,html-keyboard-response,117,645978,0.0-4.18-3.18,0e6le4hsg2a6,2022-09-19 14:52:42.394,5fb7dd473afbb1033b491811,2,42,68,0,2,45,Male,,,"<p style=""font-size:50px"">You win!
+10 points this round!</p>",,,,,,,,,,,,,,,,,,,,,,,,,,,,
118,0,,html-keyboard-response,118,646484,0.0-4.18-4.18,0e6le4hsg2a6,2022-09-19 14:52:42.394,5fb7dd473afbb1033b491811,2,42,68,0,2,45,Male,,,,,,1.0,learning,18.0,A,,black,,stars,,,,A,black,stars,,1.0,1.0,NA,right,1087.5,7.0,1.0,1.0,,,
119,0,,html-keyboard-response,119,648002,0.0-4.19-0.19,0e6le4hsg2a6,2022-09-19 14:52:42.394,5fb7dd473afbb1033b491811,2,42,68,0,2,45,Male,,,"<img src=""static/images/cards/stack_of_red_stars.svg"" width=""175px"" height=""250px""></img>",,,,,,,,,,,,,,,,,,,,,,,,,,,,
120,0,,html-keyboard-response,120,649112,0.0-4.19-1.19,0e6le4hsg2a6,2022-09-19 14:52:42.394,5fb7dd473afbb1033b491811,2,42,68,0,2,45,Male,590.2000000011,,"
  <table>
  <tr height=300>
    <td width=300 height=300><img src=""static/images/cards/back_of_red_stars.svg"" width=""175px"" height=""250px""></img></td>
    <td width=300 height=300><img src=""static/images/cards/back_of_red_stars.svg"" width=""175px"" height=""250px""></img></td>
  </tr>
  <tr height=200>
    <td width=300><img src=""static/images/keys/z.svg"" width=""35%"" height=""75%""></img></td>
    <td width=300></td>
  </tr>
</table>
  ",90.0,1.0,,,,,,,,,,,,,,,,,,,,,,,,,,
121,0,,html-keyboard-response,121,650629,0.0-4.19-2.19,0e6le4hsg2a6,2022-09-19 14:52:42.394,5fb7dd473afbb1033b491811,2,42,68,0,2,45,Male,,,"
  <table>
  <tr height=300>
    <td width=300 height=300><img src=""static/images/cards/2_of_red_stars.svg"" width=""175px"" height=""250px""></img></td>
    <td width=300 height=300><img src=""static/images/cards/back_of_red_stars.svg"" width=""175px"" height=""250px""></img></td>
  </tr>
  <tr height=200>
    <td width=300><img src=""static/images/keys/z.svg"" width=""35%"" height=""75%""></img></td>
    <td width=300></td>
  </tr>
</table>
  ",,,,,,,,,,,,,,,,,,,,,,,,,,,,
122,0,,html-keyboard-response,122,652150,0.0-4.19-3.19,0e6le4hsg2a6,2022-09-19 14:52:42.394,5fb7dd473afbb1033b491811,2,42,68,0,2,45,Male,,,"<p style=""font-size:50px"">You Lose!
No points this round.</p>",,,,,,,,,,,,,,,,,,,,,,,,,,,,
123,0,,html-keyboard-response,123,652657,0.0-4.19-4.19,0e6le4hsg2a6,2022-09-19 14:52:42.394,5fb7dd473afbb1033b491811,2,42,68,0,2,45,Male,,,,,,1.0,learning,19.0,B,,red,,stars,,,,B,red,stars,,0.0,1.0,1,left,590.2000000011,2.0,0.0,0.0,,,
124,0,,html-keyboard-response,124,654169,0.0-4.20-0.20,0e6le4hsg2a6,2022-09-19 14:52:42.394,5fb7dd473afbb1033b491811,2,42,68,0,2,45,Male,,,"<img src=""static/images/cards/stack_of_black_moons.svg"" width=""175px"" height=""250px""></img>",,,,,,,,,,,,,,,,,,,,,,,,,,,,
125,0,,html-keyboard-response,125,655184,0.0-4.20-1.20,0e6le4hsg2a6,2022-09-19 14:52:42.394,5fb7dd473afbb1033b491811,2,42,68,0,2,45,Male,504.5999999996,,"
  <table>
  <tr height=300>
    <td width=300 height=300><img src=""static/images/cards/back_of_black_moons.svg"" width=""175px"" height=""250px""></img></td>
    <td width=300 height=300><img src=""static/images/cards/back_of_black_moons.svg"" width=""175px"" height=""250px""></img></td>
  </tr>
  <tr height=200>
    <td width=300><img src=""static/images/keys/z.svg"" width=""35%"" height=""75%""></img></td>
    <td width=300><img src=""static/images/keys/m.svg"" width=""35%"" height=""75%""></img></td>
  </tr>
</table>
  ",90.0,1.0,,,,,,,,,,,,,,,,,,,,,,,,,,
126,0,,html-keyboard-response,126,656690,0.0-4.20-2.20,0e6le4hsg2a6,2022-09-19 14:52:42.394,5fb7dd473afbb1033b491811,2,42,68,0,2,45,Male,,,"
  <table>
  <tr height=300>
    <td width=300 height=300><img src=""static/images/cards/3_of_black_moons.svg"" width=""175px"" height=""250px""></img></td>
    <td width=300 height=300><img src=""static/images/cards/back_of_black_moons.svg"" width=""175px"" height=""250px""></img></td>
  </tr>
  <tr height=200>
    <td width=300><img src=""static/images/keys/z.svg"" width=""35%"" height=""75%""></img></td>
    <td width=300><img src=""static/images/keys/m.svg"" width=""35%"" height=""75%""></img></td>
  </tr>
</table>
  ",,,,,,,,,,,,,,,,,,,,,,,,,,,,
127,0,,html-keyboard-response,127,658207,0.0-4.20-3.20,0e6le4hsg2a6,2022-09-19 14:52:42.394,5fb7dd473afbb1033b491811,2,42,68,0,2,45,Male,,,"<p style=""font-size:50px"">You Lose!
No points this round.</p>",,,,,,,,,,,,,,,,,,,,,,,,,,,,
128,0,,html-keyboard-response,128,658729,0.0-4.20-4.20,0e6le4hsg2a6,2022-09-19 14:52:42.394,5fb7dd473afbb1033b491811,2,42,68,0,2,45,Male,,,,,,1.0,learning,20.0,C,,black,,moons,,,,C,black,moons,,1.0,0.0,NA,left,504.5999999996,3.0,0.0,0.0,,,
129,0,,html-keyboard-response,129,660242,0.0-4.21-0.21,0e6le4hsg2a6,2022-09-19 14:52:42.394,5fb7dd473afbb1033b491811,2,42,68,0,2,45,Male,,,"<img src=""static/images/cards/stack_of_red_moons.svg"" width=""175px"" height=""250px""></img>",,,,,,,,,,,,,,,,,,,,,,,,,,,,
130,0,,html-keyboard-response,130,661416,0.0-4.21-1.21,0e6le4hsg2a6,2022-09-19 14:52:42.394,5fb7dd473afbb1033b491811,2,42,68,0,2,45,Male,660.8000000007,,"
  <table>
  <tr height=300>
    <td width=300 height=300><img src=""static/images/cards/back_of_red_moons.svg"" width=""175px"" height=""250px""></img></td>
    <td width=300 height=300><img src=""static/images/cards/back_of_red_moons.svg"" width=""175px"" height=""250px""></img></td>
  </tr>
  <tr height=200>
    <td width=300></td>
    <td width=300><img src=""static/images/keys/m.svg"" width=""35%"" height=""75%""></img></td>
  </tr>
</table>
  ",77.0,1.0,,,,,,,,,,,,,,,,,,,,,,,,,,
131,0,,html-keyboard-response,131,662928,0.0-4.21-2.21,0e6le4hsg2a6,2022-09-19 14:52:42.394,5fb7dd473afbb1033b491811,2,42,68,0,2,45,Male,,,"
  <table>
  <tr height=300>
    <td width=300 height=300><img src=""static/images/cards/back_of_red_moons.svg"" width=""175px"" height=""250px""></img></td>
    <td width=300 height=300><img src=""static/images/cards/1_of_red_moons.svg"" width=""175px"" height=""250px""></img></td>
  </tr>
  <tr height=200>
    <td width=300></td>
    <td width=300><img src=""static/images/keys/m.svg"" width=""35%"" height=""75%""></img></td>
  </tr>
</table>
  ",,,,,,,,,,,,,,,,,,,,,,,,,,,,
132,0,,html-keyboard-response,132,664446,0.0-4.21-3.21,0e6le4hsg2a6,2022-09-19 14:52:42.394,5fb7dd473afbb1033b491811,2,42,68,0,2,45,Male,,,"<p style=""font-size:50px"">You win!
+10 points this round!</p>",,,,,,,,,,,,,,,,,,,,,,,,,,,,
133,0,,html-keyboard-response,133,664954,0.0-4.21-4.21,0e6le4hsg2a6,2022-09-19 14:52:42.394,5fb7dd473afbb1033b491811,2,42,68,0,2,45,Male,,,,,,1.0,learning,21.0,D,,red,,moons,,,,D,red,moons,,0.0,0.0,0,right,660.8000000007,1.0,0.0,1.0,,,
134,0,,html-keyboard-response,134,666464,0.0-4.22-0.22,0e6le4hsg2a6,2022-09-19 14:52:42.394,5fb7dd473afbb1033b491811,2,42,68,0,2,45,Male,,,"<img src=""static/images/cards/stack_of_red_bolts.svg"" width=""175px"" height=""250px""></img>",,,,,,,,,,,,,,,,,,,,,,,,,,,,
135,0,,html-keyboard-response,135,667641,0.0-4.22-1.22,0e6le4hsg2a6,2022-09-19 14:52:42.394,5fb7dd473afbb1033b491811,2,42,68,0,2,45,Male,669.5,,"
  <table>
  <tr height=300>
    <td width=300 height=300><img src=""static/images/cards/back_of_red_bolts.svg"" width=""175px"" height=""250px""></img></td>
    <td width=300 height=300><img src=""static/images/cards/back_of_red_bolts.svg"" width=""175px"" height=""250px""></img></td>
  </tr>
  <tr height=200>
    <td width=300><img src=""static/images/keys/z.svg"" width=""35%"" height=""75%""></img></td>
    <td width=300><img src=""static/images/keys/m.svg"" width=""35%"" height=""75%""></img></td>
  </tr>
</table>
  ",90.0,1.0,,,,,,,,,,,,,,,,,,,,,,,,,,
136,0,,html-keyboard-response,136,669152,0.0-4.22-2.22,0e6le4hsg2a6,2022-09-19 14:52:42.394,5fb7dd473afbb1033b491811,2,42,68,0,2,45,Male,,,"
  <table>
  <tr height=300>
    <td width=300 height=300><img src=""static/images/cards/2_of_red_bolts.svg"" width=""175px"" height=""250px""></img></td>
    <td width=300 height=300><img src=""static/images/cards/back_of_red_bolts.svg"" width=""175px"" height=""250px""></img></td>
  </tr>
  <tr height=200>
    <td width=300><img src=""static/images/keys/z.svg"" width=""35%"" height=""75%""></img></td>
    <td width=300><img src=""static/images/keys/m.svg"" width=""35%"" height=""75%""></img></td>
  </tr>
</table>
  ",,,,,,,,,,,,,,,,,,,,,,,,,,,,
137,0,,html-keyboard-response,137,670686,0.0-4.22-3.22,0e6le4hsg2a6,2022-09-19 14:52:42.394,5fb7dd473afbb1033b491811,2,42,68,0,2,45,Male,,,"<p style=""font-size:50px"">You win!
+10 points this round!</p>",,,,,,,,,,,,,,,,,,,,,,,,,,,,
138,0,,html-keyboard-response,138,671195,0.0-4.22-4.22,0e6le4hsg2a6,2022-09-19 14:52:42.394,5fb7dd473afbb1033b491811,2,42,68,0,2,45,Male,,,,,,1.0,learning,22.0,Xc,,red,,bolts,,,,Xc,red,bolts,,1.0,0.0,NA,left,669.5,2.0,0.0,1.0,,,
139,0,,html-keyboard-response,139,672704,0.0-4.23-0.23,0e6le4hsg2a6,2022-09-19 14:52:42.394,5fb7dd473afbb1033b491811,2,42,68,0,2,45,Male,,,"<img src=""static/images/cards/stack_of_black_bolts.svg"" width=""175px"" height=""250px""></img>",,,,,,,,,,,,,,,,,,,,,,,,,,,,
140,0,,html-keyboard-response,140,673985,0.0-4.23-1.23,0e6le4hsg2a6,2022-09-19 14:52:42.394,5fb7dd473afbb1033b491811,2,42,68,0,2,45,Male,771.4000000004,,"
  <table>
  <tr height=300>
    <td width=300 height=300><img src=""static/images/cards/back_of_black_bolts.svg"" width=""175px"" height=""250px""></img></td>
    <td width=300 height=300><img src=""static/images/cards/back_of_black_bolts.svg"" width=""175px"" height=""250px""></img></td>
  </tr>
  <tr height=200>
    <td width=300><img src=""static/images/keys/z.svg"" width=""35%"" height=""75%""></img></td>
    <td width=300></td>
  </tr>
</table>
  ",90.0,1.0,,,,,,,,,,,,,,,,,,,,,,,,,,
141,0,,html-keyboard-response,141,675507,0.0-4.23-2.23,0e6le4hsg2a6,2022-09-19 14:52:42.394,5fb7dd473afbb1033b491811,2,42,68,0,2,45,Male,,,"
  <table>
  <tr height=300>
    <td width=300 height=300><img src=""static/images/cards/3_of_black_bolts.svg"" width=""175px"" height=""250px""></img></td>
    <td width=300 height=300><img src=""static/images/cards/back_of_black_bolts.svg"" width=""175px"" height=""250px""></img></td>
  </tr>
  <tr height=200>
    <td width=300><img src=""static/images/keys/z.svg"" width=""35%"" height=""75%""></img></td>
    <td width=300></td>
  </tr>
</table>
  ",,,,,,,,,,,,,,,,,,,,,,,,,,,,
142,0,,html-keyboard-response,142,677026,0.0-4.23-3.23,0e6le4hsg2a6,2022-09-19 14:52:42.394,5fb7dd473afbb1033b491811,2,42,68,0,2,45,Male,,,"<p style=""font-size:50px"">You win!
+10 points this round!</p>",,,,,,,,,,,,,,,,,,,,,,,,,,,,
143,0,,html-keyboard-response,143,677535,0.0-4.23-4.23,0e6le4hsg2a6,2022-09-19 14:52:42.394,5fb7dd473afbb1033b491811,2,42,68,0,2,45,Male,,,,,,1.0,learning,23.0,Xnc,,black,,bolts,,,,Xnc,black,bolts,,0.0,0.0,1,left,771.4000000004,3.0,0.0,1.0,,,
144,0,,call-function,144,677565,0.0-5.0,0e6le4hsg2a6,2022-09-19 14:52:42.394,5fb7dd473afbb1033b491811,2,42,68,0,2,45,Male,,,,,,,,,,,,,,,,,,,,,,,,,,,,,,,
145,0,,image-keyboard-response,145,687576,0.0-6.0-0.0,0e6le4hsg2a6,2022-09-19 14:52:42.394,5fb7dd473afbb1033b491811,2,42,68,0,2,45,Male,10009.5,,static/images/instructions_CB_2/Slide20.png,39.0,,,,,,,,,,,,,,,,,,,,,,,,,,,
146,0,,image-keyboard-response,146,702490,0.0-6.1-0.1,0e6le4hsg2a6,2022-09-19 14:52:42.394,5fb7dd473afbb1033b491811,2,42,68,0,2,45,Male,14908.1999999993,,static/images/instructions_CB_2/Slide21.png,39.0,,,,,,,,,,,,,,,,,,,,,,,,,,,
147,0,,image-keyboard-response,147,706397,0.0-6.2-0.2,0e6le4hsg2a6,2022-09-19 14:52:42.394,5fb7dd473afbb1033b491811,2,42,68,0,2,45,Male,3902.5999999996,,static/images/instructions_CB_2/Slide22.png,39.0,,,,,,,,,,,,,,,,,,,,,,,,,,,
148,0,,image-keyboard-response,148,730947,0.0-6.3-0.3,0e6le4hsg2a6,2022-09-19 14:52:42.394,5fb7dd473afbb1033b491811,2,42,68,0,2,45,Male,24546.4000000004,,static/images/instructions_CB_2/Slide23.png,39.0,,,,,,,,,,,,,,,,,,,,,,,,,,,
149,0,,image-keyboard-response,149,736578,0.0-6.4-0.4,0e6le4hsg2a6,2022-09-19 14:52:42.394,5fb7dd473afbb1033b491811,2,42,68,0,2,45,Male,5624.8999999985,,static/images/instructions_CB_2/Slide24.png,39.0,,,,,,,,,,,,,,,,,,,,,,,,,,,
150,0,,html-keyboard-response,150,739050,0.0-7.0-0.0,0e6le4hsg2a6,2022-09-19 14:52:42.394,5fb7dd473afbb1033b491811,2,42,68,0,2,45,Male,2462.0999999996,,"
  <table>
  <tr height=300>
    <td width=300 height=300><img src=""static/images/cards/stack_of_black_moons.svg"" width=""175px"" height=""250px""></img></td>
    <td width=300 height=300><img src=""static/images/cards/stack_of_red_stars.svg"" width=""175px"" height=""250px""></img></td>
  </tr>
  <tr height=200>
    <td width=300><img src=""static/images/keys/w.svg"" width=""35%"" height=""75%""></img></td>
    <td width=300><img src=""static/images/keys/o.svg"" width=""35%"" height=""75%""></img></td>
  </tr>
</table>
  ",79.0,1.0,,,,,,,,,,,,,,,,,,,,,,,,,,
151,0,,html-keyboard-response,151,741068,0.0-7.0-1.0,0e6le4hsg2a6,2022-09-19 14:52:42.394,5fb7dd473afbb1033b491811,2,42,68,0,2,45,Male,1507.0,,"
  <table>
  <tr height=300>
    <td width=300 height=300><img src=""static/images/cards/back_of_red_stars.svg"" width=""175px"" height=""250px""></img></td>
    <td width=300 height=300><img src=""static/images/cards/back_of_red_stars.svg"" width=""175px"" height=""250px""></img></td>
  </tr>
  <tr height=200>
    <td width=300></td>
    <td width=300><img src=""static/images/keys/m.svg"" width=""35%"" height=""75%""></img></td>
  </tr>
</table>
  ",77.0,1.0,,,,,,,,,,,,,,,,,,,,,,,,,,
152,0,,html-keyboard-response,152,742587,0.0-7.0-2.0,0e6le4hsg2a6,2022-09-19 14:52:42.394,5fb7dd473afbb1033b491811,2,42,68,0,2,45,Male,,,"
  <table>
  <tr height=300>
    <td width=300 height=300><img src=""static/images/cards/back_of_red_stars.svg"" width=""175px"" height=""250px""></img></td>
    <td width=300 height=300><img src=""static/images/cards/4_of_red_stars.svg"" width=""175px"" height=""250px""></img></td>
  </tr>
  <tr height=200>
    <td width=300></td>
    <td width=300><img src=""static/images/keys/m.svg"" width=""35%"" height=""75%""></img></td>
  </tr>
</table>
  ",,,,,,,,,,,,,,,,,,,,,,,,,,,,
153,0,,html-keyboard-response,153,744111,0.0-7.0-3.0,0e6le4hsg2a6,2022-09-19 14:52:42.394,5fb7dd473afbb1033b491811,2,42,68,0,2,45,Male,,,"<p style=""font-size:50px"">You Lose!
No points this round.</p>",,,,,,,,,,,,,,,,,,,,,,,,,,,,
154,0,,html-keyboard-response,154,744621,0.0-7.0-4.0,0e6le4hsg2a6,2022-09-19 14:52:42.394,5fb7dd473afbb1033b491811,2,42,68,0,2,45,Male,,,,,,1.0,choice,0.0,B,C,black,red,moons,stars,C,B,B,red,stars,2462.0999999996,0.0,1.0,0,right,1507.0,4.0,0.0,0.0,,,
155,0,,html-keyboard-response,155,746427,0.0-7.1-0.1,0e6le4hsg2a6,2022-09-19 14:52:42.394,5fb7dd473afbb1033b491811,2,42,68,0,2,45,Male,1795.0999999996,,"
  <table>
  <tr height=300>
    <td width=300 height=300><img src=""static/images/cards/stack_of_red_stars.svg"" width=""175px"" height=""250px""></img></td>
    <td width=300 height=300><img src=""static/images/cards/stack_of_black_stars.svg"" width=""175px"" height=""250px""></img></td>
  </tr>
  <tr height=200>
    <td width=300><img src=""static/images/keys/w.svg"" width=""35%"" height=""75%""></img></td>
    <td width=300><img src=""static/images/keys/o.svg"" width=""35%"" height=""75%""></img></td>
  </tr>
</table>
  ",87.0,1.0,,,,,,,,,,,,,,,,,,,,,,,,,,
156,0,,html-keyboard-response,156,748275,0.0-7.1-1.1,0e6le4hsg2a6,2022-09-19 14:52:42.394,5fb7dd473afbb1033b491811,2,42,68,0,2,45,Male,1334.4000000004,,"
  <table>
  <tr height=300>
    <td width=300 height=300><img src=""static/images/cards/back_of_red_stars.svg"" width=""175px"" height=""250px""></img></td>
    <td width=300 height=300><img src=""static/images/cards/back_of_red_stars.svg"" width=""175px"" height=""250px""></img></td>
  </tr>
  <tr height=200>
    <td width=300><img src=""static/images/keys/z.svg"" width=""35%"" height=""75%""></img></td>
    <td width=300></td>
  </tr>
</table>
  ",90.0,1.0,,,,,,,,,,,,,,,,,,,,,,,,,,
157,0,,html-keyboard-response,157,749792,0.0-7.1-2.1,0e6le4hsg2a6,2022-09-19 14:52:42.394,5fb7dd473afbb1033b491811,2,42,68,0,2,45,Male,,,"
  <table>
  <tr height=300>
    <td width=300 height=300><img src=""static/images/cards/8_of_red_stars.svg"" width=""175px"" height=""250px""></img></td>
    <td width=300 height=300><img src=""static/images/cards/back_of_red_stars.svg"" width=""175px"" height=""250px""></img></td>
  </tr>
  <tr height=200>
    <td width=300><img src=""static/images/keys/z.svg"" width=""35%"" height=""75%""></img></td>
    <td width=300></td>
  </tr>
</table>
  ",,,,,,,,,,,,,,,,,,,,,,,,,,,,
158,0,,html-keyboard-response,158,751303,0.0-7.1-3.1,0e6le4hsg2a6,2022-09-19 14:52:42.394,5fb7dd473afbb1033b491811,2,42,68,0,2,45,Male,,,"<p style=""font-size:50px"">You win!
+10 points this round!</p>",,,,,,,,,,,,,,,,,,,,,,,,,,,,
159,0,,html-keyboard-response,159,751811,0.0-7.1-4.1,0e6le4hsg2a6,2022-09-19 14:52:42.394,5fb7dd473afbb1033b491811,2,42,68,0,2,45,Male,,,,,,1.0,choice,1.0,A,B,red,black,stars,stars,B,A,B,red,stars,1795.0999999996,0.0,1.0,1,left,1334.4000000004,8.0,1.0,1.0,,,
160,0,,html-keyboard-response,160,754436,0.0-7.2-0.2,0e6le4hsg2a6,2022-09-19 14:52:42.394,5fb7dd473afbb1033b491811,2,42,68,0,2,45,Male,2615.1999999993,,"
  <table>
  <tr height=300>
    <td width=300 height=300><img src=""static/images/cards/stack_of_black_stars.svg"" width=""175px"" height=""250px""></img></td>
    <td width=300 height=300><img src=""static/images/cards/stack_of_red_moons.svg"" width=""175px"" height=""250px""></img></td>
  </tr>
  <tr height=200>
    <td width=300><img src=""static/images/keys/w.svg"" width=""35%"" height=""75%""></img></td>
    <td width=300><img src=""static/images/keys/o.svg"" width=""35%"" height=""75%""></img></td>
  </tr>
</table>
  ",87.0,1.0,,,,,,,,,,,,,,,,,,,,,,,,,,
161,0,,html-keyboard-response,161,756315,0.0-7.2-1.2,0e6le4hsg2a6,2022-09-19 14:52:42.394,5fb7dd473afbb1033b491811,2,42,68,0,2,45,Male,1365.5,,"
  <table>
  <tr height=300>
    <td width=300 height=300><img src=""static/images/cards/back_of_black_stars.svg"" width=""175px"" height=""250px""></img></td>
    <td width=300 height=300><img src=""static/images/cards/back_of_black_stars.svg"" width=""175px"" height=""250px""></img></td>
  </tr>
  <tr height=200>
    <td width=300><img src=""static/images/keys/z.svg"" width=""35%"" height=""75%""></img></td>
    <td width=300><img src=""static/images/keys/m.svg"" width=""35%"" height=""75%""></img></td>
  </tr>
</table>
  ",90.0,1.0,,,,,,,,,,,,,,,,,,,,,,,,,,
162,0,,html-keyboard-response,162,757827,0.0-7.2-2.2,0e6le4hsg2a6,2022-09-19 14:52:42.394,5fb7dd473afbb1033b491811,2,42,68,0,2,45,Male,,,"
  <table>
  <tr height=300>
    <td width=300 height=300><img src=""static/images/cards/2_of_black_stars.svg"" width=""175px"" height=""250px""></img></td>
    <td width=300 height=300><img src=""static/images/cards/back_of_black_stars.svg"" width=""175px"" height=""250px""></img></td>
  </tr>
  <tr height=200>
    <td width=300><img src=""static/images/keys/z.svg"" width=""35%"" height=""75%""></img></td>
    <td width=300><img src=""static/images/keys/m.svg"" width=""35%"" height=""75%""></img></td>
  </tr>
</table>
  ",,,,,,,,,,,,,,,,,,,,,,,,,,,,
163,0,,html-keyboard-response,163,759344,0.0-7.2-3.2,0e6le4hsg2a6,2022-09-19 14:52:42.394,5fb7dd473afbb1033b491811,2,42,68,0,2,45,Male,,,"<p style=""font-size:50px"">You Lose!
No points this round.</p>",,,,,,,,,,,,,,,,,,,,,,,,,,,,
164,0,,html-keyboard-response,164,759858,0.0-7.2-4.2,0e6le4hsg2a6,2022-09-19 14:52:42.394,5fb7dd473afbb1033b491811,2,42,68,0,2,45,Male,,,,,,1.0,choice,2.0,A,D,black,red,stars,moons,A,D,A,black,stars,2615.1999999993,1.0,1.0,NA,left,1365.5,2.0,0.0,0.0,,,
165,0,,html-keyboard-response,165,761333,0.0-7.3-0.3,0e6le4hsg2a6,2022-09-19 14:52:42.394,5fb7dd473afbb1033b491811,2,42,68,0,2,45,Male,1469.0999999996,,"
  <table>
  <tr height=300>
    <td width=300 height=300><img src=""static/images/cards/stack_of_red_stars.svg"" width=""175px"" height=""250px""></img></td>
    <td width=300 height=300><img src=""static/images/cards/stack_of_red_moons.svg"" width=""175px"" height=""250px""></img></td>
  </tr>
  <tr height=200>
    <td width=300><img src=""static/images/keys/w.svg"" width=""35%"" height=""75%""></img></td>
    <td width=300><img src=""static/images/keys/o.svg"" width=""35%"" height=""75%""></img></td>
  </tr>
</table>
  ",87.0,1.0,,,,,,,,,,,,,,,,,,,,,,,,,,
166,0,,html-keyboard-response,166,763251,0.0-7.3-1.3,0e6le4hsg2a6,2022-09-19 14:52:42.394,5fb7dd473afbb1033b491811,2,42,68,0,2,45,Male,1397.4000000004,,"
  <table>
  <tr height=300>
    <td width=300 height=300><img src=""static/images/cards/back_of_red_stars.svg"" width=""175px"" height=""250px""></img></td>
    <td width=300 height=300><img src=""static/images/cards/back_of_red_stars.svg"" width=""175px"" height=""250px""></img></td>
  </tr>
  <tr height=200>
    <td width=300></td>
    <td width=300><img src=""static/images/keys/m.svg"" width=""35%"" height=""75%""></img></td>
  </tr>
</table>
  ",77.0,1.0,,,,,,,,,,,,,,,,,,,,,,,,,,
167,0,,html-keyboard-response,167,764767,0.0-7.3-2.3,0e6le4hsg2a6,2022-09-19 14:52:42.394,5fb7dd473afbb1033b491811,2,42,68,0,2,45,Male,,,"
  <table>
  <tr height=300>
    <td width=300 height=300><img src=""static/images/cards/back_of_red_stars.svg"" width=""175px"" height=""250px""></img></td>
    <td width=300 height=300><img src=""static/images/cards/1_of_red_stars.svg"" width=""175px"" height=""250px""></img></td>
  </tr>
  <tr height=200>
    <td width=300></td>
    <td width=300><img src=""static/images/keys/m.svg"" width=""35%"" height=""75%""></img></td>
  </tr>
</table>
  ",,,,,,,,,,,,,,,,,,,,,,,,,,,,
168,0,,html-keyboard-response,168,766286,0.0-7.3-3.3,0e6le4hsg2a6,2022-09-19 14:52:42.394,5fb7dd473afbb1033b491811,2,42,68,0,2,45,Male,,,"<p style=""font-size:50px"">You Lose!
No points this round.</p>",,,,,,,,,,,,,,,,,,,,,,,,,,,,
169,0,,html-keyboard-response,169,766809,0.0-7.3-4.3,0e6le4hsg2a6,2022-09-19 14:52:42.394,5fb7dd473afbb1033b491811,2,42,68,0,2,45,Male,,,,,,1.0,choice,3.0,B,D,red,red,stars,moons,B,D,B,red,stars,1469.0999999996,0.0,1.0,0,right,1397.4000000004,1.0,0.0,0.0,,,
170,0,,html-keyboard-response,170,768389,0.0-7.4-0.4,0e6le4hsg2a6,2022-09-19 14:52:42.394,5fb7dd473afbb1033b491811,2,42,68,0,2,45,Male,1569.5999999996,,"
  <table>
  <tr height=300>
    <td width=300 height=300><img src=""static/images/cards/stack_of_red_stars.svg"" width=""175px"" height=""250px""></img></td>
    <td width=300 height=300><img src=""static/images/cards/stack_of_black_moons.svg"" width=""175px"" height=""250px""></img></td>
  </tr>
  <tr height=200>
    <td width=300><img src=""static/images/keys/w.svg"" width=""35%"" height=""75%""></img></td>
    <td width=300><img src=""static/images/keys/o.svg"" width=""35%"" height=""75%""></img></td>
  </tr>
</table>
  ",87.0,1.0,,,,,,,,,,,,,,,,,,,,,,,,,,
171,0,,html-keyboard-response,171,769986,0.0-7.4-1.4,0e6le4hsg2a6,2022-09-19 14:52:42.394,5fb7dd473afbb1033b491811,2,42,68,0,2,45,Male,1080.0,,"
  <table>
  <tr height=300>
    <td width=300 height=300><img src=""static/images/cards/back_of_red_stars.svg"" width=""175px"" height=""250px""></img></td>
    <td width=300 height=300><img src=""static/images/cards/back_of_red_stars.svg"" width=""175px"" height=""250px""></img></td>
  </tr>
  <tr height=200>
    <td width=300></td>
    <td width=300><img src=""static/images/keys/m.svg"" width=""35%"" height=""75%""></img></td>
  </tr>
</table>
  ",77.0,1.0,,,,,,,,,,,,,,,,,,,,,,,,,,
172,0,,html-keyboard-response,172,771507,0.0-7.4-2.4,0e6le4hsg2a6,2022-09-19 14:52:42.394,5fb7dd473afbb1033b491811,2,42,68,0,2,45,Male,,,"
  <table>
  <tr height=300>
    <td width=300 height=300><img src=""static/images/cards/back_of_red_stars.svg"" width=""175px"" height=""250px""></img></td>
    <td width=300 height=300><img src=""static/images/cards/4_of_red_stars.svg"" width=""175px"" height=""250px""></img></td>
  </tr>
  <tr height=200>
    <td width=300></td>
    <td width=300><img src=""static/images/keys/m.svg"" width=""35%"" height=""75%""></img></td>
  </tr>
</table>
  ",,,,,,,,,,,,,,,,,,,,,,,,,,,,
173,0,,html-keyboard-response,173,773024,0.0-7.4-3.4,0e6le4hsg2a6,2022-09-19 14:52:42.394,5fb7dd473afbb1033b491811,2,42,68,0,2,45,Male,,,"<p style=""font-size:50px"">You Lose!
No points this round.</p>",,,,,,,,,,,,,,,,,,,,,,,,,,,,
174,0,,html-keyboard-response,174,773531,0.0-7.4-4.4,0e6le4hsg2a6,2022-09-19 14:52:42.394,5fb7dd473afbb1033b491811,2,42,68,0,2,45,Male,,,,,,1.0,choice,4.0,B,C,red,black,stars,moons,B,C,B,red,stars,1569.5999999996,0.0,1.0,0,right,1080.0,4.0,0.0,0.0,,,
175,0,,html-keyboard-response,175,775420,0.0-7.5-0.5,0e6le4hsg2a6,2022-09-19 14:52:42.394,5fb7dd473afbb1033b491811,2,42,68,0,2,45,Male,1883.5,,"
  <table>
  <tr height=300>
    <td width=300 height=300><img src=""static/images/cards/stack_of_black_moons.svg"" width=""175px"" height=""250px""></img></td>
    <td width=300 height=300><img src=""static/images/cards/stack_of_red_bolts.svg"" width=""175px"" height=""250px""></img></td>
  </tr>
  <tr height=200>
    <td width=300><img src=""static/images/keys/w.svg"" width=""35%"" height=""75%""></img></td>
    <td width=300><img src=""static/images/keys/o.svg"" width=""35%"" height=""75%""></img></td>
  </tr>
</table>
  ",79.0,1.0,,,,,,,,,,,,,,,,,,,,,,,,,,
176,0,,html-keyboard-response,176,777156,0.0-7.5-1.5,0e6le4hsg2a6,2022-09-19 14:52:42.394,5fb7dd473afbb1033b491811,2,42,68,0,2,45,Male,1219.8000000007,,"
  <table>
  <tr height=300>
    <td width=300 height=300><img src=""static/images/cards/back_of_red_bolts.svg"" width=""175px"" height=""250px""></img></td>
    <td width=300 height=300><img src=""static/images/cards/back_of_red_bolts.svg"" width=""175px"" height=""250px""></img></td>
  </tr>
  <tr height=200>
    <td width=300><img src=""static/images/keys/z.svg"" width=""35%"" height=""75%""></img></td>
    <td width=300><img src=""static/images/keys/m.svg"" width=""35%"" height=""75%""></img></td>
  </tr>
</table>
  ",77.0,1.0,,,,,,,,,,,,,,,,,,,,,,,,,,
177,0,,html-keyboard-response,177,778680,0.0-7.5-2.5,0e6le4hsg2a6,2022-09-19 14:52:42.394,5fb7dd473afbb1033b491811,2,42,68,0,2,45,Male,,,"
  <table>
  <tr height=300>
    <td width=300 height=300><img src=""static/images/cards/back_of_red_bolts.svg"" width=""175px"" height=""250px""></img></td>
    <td width=300 height=300><img src=""static/images/cards/7_of_red_bolts.svg"" width=""175px"" height=""250px""></img></td>
  </tr>
  <tr height=200>
    <td width=300><img src=""static/images/keys/z.svg"" width=""35%"" height=""75%""></img></td>
    <td width=300><img src=""static/images/keys/m.svg"" width=""35%"" height=""75%""></img></td>
  </tr>
</table>
  ",,,,,,,,,,,,,,,,,,,,,,,,,,,,
178,0,,html-keyboard-response,178,780184,0.0-7.5-3.5,0e6le4hsg2a6,2022-09-19 14:52:42.394,5fb7dd473afbb1033b491811,2,42,68,0,2,45,Male,,,"<p style=""font-size:50px"">You win!
+10 points this round!</p>",,,,,,,,,,,,,,,,,,,,,,,,,,,,
179,0,,html-keyboard-response,179,780704,0.0-7.5-4.5,0e6le4hsg2a6,2022-09-19 14:52:42.394,5fb7dd473afbb1033b491811,2,42,68,0,2,45,Male,,,,,,1.0,choice,5.0,C,Xc,black,red,moons,bolts,C,Xc,Xc,red,bolts,1883.5,1.0,0.0,NA,right,1219.8000000007,7.0,1.0,1.0,,,
180,0,,html-keyboard-response,180,782133,0.0-7.6-0.6,0e6le4hsg2a6,2022-09-19 14:52:42.394,5fb7dd473afbb1033b491811,2,42,68,0,2,45,Male,1419.0,,"
  <table>
  <tr height=300>
    <td width=300 height=300><img src=""static/images/cards/stack_of_red_moons.svg"" width=""175px"" height=""250px""></img></td>
    <td width=300 height=300><img src=""static/images/cards/stack_of_red_stars.svg"" width=""175px"" height=""250px""></img></td>
  </tr>
  <tr height=200>
    <td width=300><img src=""static/images/keys/w.svg"" width=""35%"" height=""75%""></img></td>
    <td width=300><img src=""static/images/keys/o.svg"" width=""35%"" height=""75%""></img></td>
  </tr>
</table>
  ",79.0,1.0,,,,,,,,,,,,,,,,,,,,,,,,,,
181,0,,html-keyboard-response,181,783733,0.0-7.6-1.6,0e6le4hsg2a6,2022-09-19 14:52:42.394,5fb7dd473afbb1033b491811,2,42,68,0,2,45,Male,1086.4000000004,,"
  <table>
  <tr height=300>
    <td width=300 height=300><img src=""static/images/cards/back_of_red_stars.svg"" width=""175px"" height=""250px""></img></td>
    <td width=300 height=300><img src=""static/images/cards/back_of_red_stars.svg"" width=""175px"" height=""250px""></img></td>
  </tr>
  <tr height=200>
    <td width=300><img src=""static/images/keys/z.svg"" width=""35%"" height=""75%""></img></td>
    <td width=300></td>
  </tr>
</table>
  ",90.0,1.0,,,,,,,,,,,,,,,,,,,,,,,,,,
182,0,,html-keyboard-response,182,785245,0.0-7.6-2.6,0e6le4hsg2a6,2022-09-19 14:52:42.394,5fb7dd473afbb1033b491811,2,42,68,0,2,45,Male,,,"
  <table>
  <tr height=300>
    <td width=300 height=300><img src=""static/images/cards/2_of_red_stars.svg"" width=""175px"" height=""250px""></img></td>
    <td width=300 height=300><img src=""static/images/cards/back_of_red_stars.svg"" width=""175px"" height=""250px""></img></td>
  </tr>
  <tr height=200>
    <td width=300><img src=""static/images/keys/z.svg"" width=""35%"" height=""75%""></img></td>
    <td width=300></td>
  </tr>
</table>
  ",,,,,,,,,,,,,,,,,,,,,,,,,,,,
183,0,,html-keyboard-response,183,786757,0.0-7.6-3.6,0e6le4hsg2a6,2022-09-19 14:52:42.394,5fb7dd473afbb1033b491811,2,42,68,0,2,45,Male,,,"<p style=""font-size:50px"">You Lose!
No points this round.</p>",,,,,,,,,,,,,,,,,,,,,,,,,,,,
184,0,,html-keyboard-response,184,787279,0.0-7.6-4.6,0e6le4hsg2a6,2022-09-19 14:52:42.394,5fb7dd473afbb1033b491811,2,42,68,0,2,45,Male,,,,,,1.0,choice,6.0,B,D,red,red,moons,stars,D,B,B,red,stars,1419.0,0.0,1.0,1,left,1086.4000000004,2.0,0.0,0.0,,,
185,0,,html-keyboard-response,185,788428,0.0-7.7-0.7,0e6le4hsg2a6,2022-09-19 14:52:42.394,5fb7dd473afbb1033b491811,2,42,68,0,2,45,Male,1140.1000000015,,"
  <table>
  <tr height=300>
    <td width=300 height=300><img src=""static/images/cards/stack_of_black_stars.svg"" width=""175px"" height=""250px""></img></td>
    <td width=300 height=300><img src=""static/images/cards/stack_of_red_stars.svg"" width=""175px"" height=""250px""></img></td>
  </tr>
  <tr height=200>
    <td width=300><img src=""static/images/keys/w.svg"" width=""35%"" height=""75%""></img></td>
    <td width=300><img src=""static/images/keys/o.svg"" width=""35%"" height=""75%""></img></td>
  </tr>
</table>
  ",79.0,1.0,,,,,,,,,,,,,,,,,,,,,,,,,,
186,0,,html-keyboard-response,186,789901,0.0-7.7-1.7,0e6le4hsg2a6,2022-09-19 14:52:42.394,5fb7dd473afbb1033b491811,2,42,68,0,2,45,Male,952.0,,"
  <table>
  <tr height=300>
    <td width=300 height=300><img src=""static/images/cards/back_of_red_stars.svg"" width=""175px"" height=""250px""></img></td>
    <td width=300 height=300><img src=""static/images/cards/back_of_red_stars.svg"" width=""175px"" height=""250px""></img></td>
  </tr>
  <tr height=200>
    <td width=300></td>
    <td width=300><img src=""static/images/keys/m.svg"" width=""35%"" height=""75%""></img></td>
  </tr>
</table>
  ",77.0,1.0,,,,,,,,,,,,,,,,,,,,,,,,,,
187,0,,html-keyboard-response,187,791411,0.0-7.7-2.7,0e6le4hsg2a6,2022-09-19 14:52:42.394,5fb7dd473afbb1033b491811,2,42,68,0,2,45,Male,,,"
  <table>
  <tr height=300>
    <td width=300 height=300><img src=""static/images/cards/back_of_red_stars.svg"" width=""175px"" height=""250px""></img></td>
    <td width=300 height=300><img src=""static/images/cards/7_of_red_stars.svg"" width=""175px"" height=""250px""></img></td>
  </tr>
  <tr height=200>
    <td width=300></td>
    <td width=300><img src=""static/images/keys/m.svg"" width=""35%"" height=""75%""></img></td>
  </tr>
</table>
  ",,,,,,,,,,,,,,,,,,,,,,,,,,,,
188,0,,html-keyboard-response,188,792929,0.0-7.7-3.7,0e6le4hsg2a6,2022-09-19 14:52:42.394,5fb7dd473afbb1033b491811,2,42,68,0,2,45,Male,,,"<p style=""font-size:50px"">You win!
+10 points this round!</p>",,,,,,,,,,,,,,,,,,,,,,,,,,,,
189,0,,html-keyboard-response,189,793438,0.0-7.7-4.7,0e6le4hsg2a6,2022-09-19 14:52:42.394,5fb7dd473afbb1033b491811,2,42,68,0,2,45,Male,,,,,,1.0,choice,7.0,A,B,black,red,stars,stars,A,B,B,red,stars,1140.1000000015,0.0,1.0,0,right,952.0,7.0,1.0,1.0,,,
190,0,,html-keyboard-response,190,794581,0.0-7.8-0.8,0e6le4hsg2a6,2022-09-19 14:52:42.394,5fb7dd473afbb1033b491811,2,42,68,0,2,45,Male,1133.1999999993,,"
  <table>
  <tr height=300>
    <td width=300 height=300><img src=""static/images/cards/stack_of_red_moons.svg"" width=""175px"" height=""250px""></img></td>
    <td width=300 height=300><img src=""static/images/cards/stack_of_red_stars.svg"" width=""175px"" height=""250px""></img></td>
  </tr>
  <tr height=200>
    <td width=300><img src=""static/images/keys/w.svg"" width=""35%"" height=""75%""></img></td>
    <td width=300><img src=""static/images/keys/o.svg"" width=""35%"" height=""75%""></img></td>
  </tr>
</table>
  ",79.0,1.0,,,,,,,,,,,,,,,,,,,,,,,,,,
191,0,,html-keyboard-response,191,796419,0.0-7.8-1.8,0e6le4hsg2a6,2022-09-19 14:52:42.394,5fb7dd473afbb1033b491811,2,42,68,0,2,45,Male,1329.7000000011,,"
  <table>
  <tr height=300>
    <td width=300 height=300><img src=""static/images/cards/back_of_red_stars.svg"" width=""175px"" height=""250px""></img></td>
    <td width=300 height=300><img src=""static/images/cards/back_of_red_stars.svg"" width=""175px"" height=""250px""></img></td>
  </tr>
  <tr height=200>
    <td width=300><img src=""static/images/keys/z.svg"" width=""35%"" height=""75%""></img></td>
    <td width=300></td>
  </tr>
</table>
  ",90.0,1.0,,,,,,,,,,,,,,,,,,,,,,,,,,
192,0,,html-keyboard-response,192,797934,0.0-7.8-2.8,0e6le4hsg2a6,2022-09-19 14:52:42.394,5fb7dd473afbb1033b491811,2,42,68,0,2,45,Male,,,"
  <table>
  <tr height=300>
    <td width=300 height=300><img src=""static/images/cards/1_of_red_stars.svg"" width=""175px"" height=""250px""></img></td>
    <td width=300 height=300><img src=""static/images/cards/back_of_red_stars.svg"" width=""175px"" height=""250px""></img></td>
  </tr>
  <tr height=200>
    <td width=300><img src=""static/images/keys/z.svg"" width=""35%"" height=""75%""></img></td>
    <td width=300></td>
  </tr>
</table>
  ",,,,,,,,,,,,,,,,,,,,,,,,,,,,
193,0,,html-keyboard-response,193,799452,0.0-7.8-3.8,0e6le4hsg2a6,2022-09-19 14:52:42.394,5fb7dd473afbb1033b491811,2,42,68,0,2,45,Male,,,"<p style=""font-size:50px"">You Lose!
No points this round.</p>",,,,,,,,,,,,,,,,,,,,,,,,,,,,
194,0,,html-keyboard-response,194,799976,0.0-7.8-4.8,0e6le4hsg2a6,2022-09-19 14:52:42.394,5fb7dd473afbb1033b491811,2,42,68,0,2,45,Male,,,,,,1.0,choice,8.0,B,D,red,red,moons,stars,D,B,B,red,stars,1133.1999999993,0.0,1.0,1,left,1329.7000000011,1.0,0.0,0.0,,,
195,0,,html-keyboard-response,195,801537,0.0-7.9-0.9,0e6le4hsg2a6,2022-09-19 14:52:42.394,5fb7dd473afbb1033b491811,2,42,68,0,2,45,Male,1550.5,,"
  <table>
  <tr height=300>
    <td width=300 height=300><img src=""static/images/cards/stack_of_black_moons.svg"" width=""175px"" height=""250px""></img></td>
    <td width=300 height=300><img src=""static/images/cards/stack_of_red_moons.svg"" width=""175px"" height=""250px""></img></td>
  </tr>
  <tr height=200>
    <td width=300><img src=""static/images/keys/w.svg"" width=""35%"" height=""75%""></img></td>
    <td width=300><img src=""static/images/keys/o.svg"" width=""35%"" height=""75%""></img></td>
  </tr>
</table>
  ",79.0,1.0,,,,,,,,,,,,,,,,,,,,,,,,,,
196,0,,html-keyboard-response,196,803060,0.0-7.9-1.9,0e6le4hsg2a6,2022-09-19 14:52:42.394,5fb7dd473afbb1033b491811,2,42,68,0,2,45,Male,1014.0,,"
  <table>
  <tr height=300>
    <td width=300 height=300><img src=""static/images/cards/back_of_red_moons.svg"" width=""175px"" height=""250px""></img></td>
    <td width=300 height=300><img src=""static/images/cards/back_of_red_moons.svg"" width=""175px"" height=""250px""></img></td>
  </tr>
  <tr height=200>
    <td width=300></td>
    <td width=300><img src=""static/images/keys/m.svg"" width=""35%"" height=""75%""></img></td>
  </tr>
</table>
  ",77.0,1.0,,,,,,,,,,,,,,,,,,,,,,,,,,
197,0,,html-keyboard-response,197,804573,0.0-7.9-2.9,0e6le4hsg2a6,2022-09-19 14:52:42.394,5fb7dd473afbb1033b491811,2,42,68,0,2,45,Male,,,"
  <table>
  <tr height=300>
    <td width=300 height=300><img src=""static/images/cards/back_of_red_moons.svg"" width=""175px"" height=""250px""></img></td>
    <td width=300 height=300><img src=""static/images/cards/8_of_red_moons.svg"" width=""175px"" height=""250px""></img></td>
  </tr>
  <tr height=200>
    <td width=300></td>
    <td width=300><img src=""static/images/keys/m.svg"" width=""35%"" height=""75%""></img></td>
  </tr>
</table>
  ",,,,,,,,,,,,,,,,,,,,,,,,,,,,
198,0,,html-keyboard-response,198,806091,0.0-7.9-3.9,0e6le4hsg2a6,2022-09-19 14:52:42.394,5fb7dd473afbb1033b491811,2,42,68,0,2,45,Male,,,"<p style=""font-size:50px"">You Lose!
No points this round.</p>",,,,,,,,,,,,,,,,,,,,,,,,,,,,
199,0,,html-keyboard-response,199,806633,0.0-7.9-4.9,0e6le4hsg2a6,2022-09-19 14:52:42.394,5fb7dd473afbb1033b491811,2,42,68,0,2,45,Male,,,,,,1.0,choice,9.0,C,D,black,red,moons,moons,C,D,D,red,moons,1550.5,0.0,0.0,0,right,1014.0,8.0,1.0,0.0,,,
200,0,,html-keyboard-response,200,808013,0.0-7.10-0.10,0e6le4hsg2a6,2022-09-19 14:52:42.394,5fb7dd473afbb1033b491811,2,42,68,0,2,45,Male,1372.8000000007,,"
  <table>
  <tr height=300>
    <td width=300 height=300><img src=""static/images/cards/stack_of_red_stars.svg"" width=""175px"" height=""250px""></img></td>
    <td width=300 height=300><img src=""static/images/cards/stack_of_black_stars.svg"" width=""175px"" height=""250px""></img></td>
  </tr>
  <tr height=200>
    <td width=300><img src=""static/images/keys/w.svg"" width=""35%"" height=""75%""></img></td>
    <td width=300><img src=""static/images/keys/o.svg"" width=""35%"" height=""75%""></img></td>
  </tr>
</table>
  ",87.0,1.0,,,,,,,,,,,,,,,,,,,,,,,,,,
201,0,,html-keyboard-response,201,809620,0.0-7.10-1.10,0e6le4hsg2a6,2022-09-19 14:52:42.394,5fb7dd473afbb1033b491811,2,42,68,0,2,45,Male,1086.0999999996,,"
  <table>
  <tr height=300>
    <td width=300 height=300><img src=""static/images/cards/back_of_red_stars.svg"" width=""175px"" height=""250px""></img></td>
    <td width=300 height=300><img src=""static/images/cards/back_of_red_stars.svg"" width=""175px"" height=""250px""></img></td>
  </tr>
  <tr height=200>
    <td width=300><img src=""static/images/keys/z.svg"" width=""35%"" height=""75%""></img></td>
    <td width=300></td>
  </tr>
</table>
  ",90.0,1.0,,,,,,,,,,,,,,,,,,,,,,,,,,
202,0,,html-keyboard-response,202,811130,0.0-7.10-2.10,0e6le4hsg2a6,2022-09-19 14:52:42.394,5fb7dd473afbb1033b491811,2,42,68,0,2,45,Male,,,"
  <table>
  <tr height=300>
    <td width=300 height=300><img src=""static/images/cards/1_of_red_stars.svg"" width=""175px"" height=""250px""></img></td>
    <td width=300 height=300><img src=""static/images/cards/back_of_red_stars.svg"" width=""175px"" height=""250px""></img></td>
  </tr>
  <tr height=200>
    <td width=300><img src=""static/images/keys/z.svg"" width=""35%"" height=""75%""></img></td>
    <td width=300></td>
  </tr>
</table>
  ",,,,,,,,,,,,,,,,,,,,,,,,,,,,
203,0,,html-keyboard-response,203,812647,0.0-7.10-3.10,0e6le4hsg2a6,2022-09-19 14:52:42.394,5fb7dd473afbb1033b491811,2,42,68,0,2,45,Male,,,"<p style=""font-size:50px"">You Lose!
No points this round.</p>",,,,,,,,,,,,,,,,,,,,,,,,,,,,
204,0,,html-keyboard-response,204,813155,0.0-7.10-4.10,0e6le4hsg2a6,2022-09-19 14:52:42.394,5fb7dd473afbb1033b491811,2,42,68,0,2,45,Male,,,,,,1.0,choice,10.0,A,B,red,black,stars,stars,B,A,B,red,stars,1372.8000000007,0.0,1.0,1,left,1086.0999999996,1.0,0.0,0.0,,,
205,0,,html-keyboard-response,205,814661,0.0-7.11-0.11,0e6le4hsg2a6,2022-09-19 14:52:42.394,5fb7dd473afbb1033b491811,2,42,68,0,2,45,Male,1501.5999999996,,"
  <table>
  <tr height=300>
    <td width=300 height=300><img src=""static/images/cards/stack_of_black_moons.svg"" width=""175px"" height=""250px""></img></td>
    <td width=300 height=300><img src=""static/images/cards/stack_of_black_stars.svg"" width=""175px"" height=""250px""></img></td>
  </tr>
  <tr height=200>
    <td width=300><img src=""static/images/keys/w.svg"" width=""35%"" height=""75%""></img></td>
    <td width=300><img src=""static/images/keys/o.svg"" width=""35%"" height=""75%""></img></td>
  </tr>
</table>
  ",79.0,1.0,,,,,,,,,,,,,,,,,,,,,,,,,,
206,0,,html-keyboard-response,206,816380,0.0-7.11-1.11,0e6le4hsg2a6,2022-09-19 14:52:42.394,5fb7dd473afbb1033b491811,2,42,68,0,2,45,Male,1198.5,,"
  <table>
  <tr height=300>
    <td width=300 height=300><img src=""static/images/cards/back_of_black_stars.svg"" width=""175px"" height=""250px""></img></td>
    <td width=300 height=300><img src=""static/images/cards/back_of_black_stars.svg"" width=""175px"" height=""250px""></img></td>
  </tr>
  <tr height=200>
    <td width=300><img src=""static/images/keys/z.svg"" width=""35%"" height=""75%""></img></td>
    <td width=300><img src=""static/images/keys/m.svg"" width=""35%"" height=""75%""></img></td>
  </tr>
</table>
  ",77.0,1.0,,,,,,,,,,,,,,,,,,,,,,,,,,
207,0,,html-keyboard-response,207,817905,0.0-7.11-2.11,0e6le4hsg2a6,2022-09-19 14:52:42.394,5fb7dd473afbb1033b491811,2,42,68,0,2,45,Male,,,"
  <table>
  <tr height=300>
    <td width=300 height=300><img src=""static/images/cards/back_of_black_stars.svg"" width=""175px"" height=""250px""></img></td>
    <td width=300 height=300><img src=""static/images/cards/2_of_black_stars.svg"" width=""175px"" height=""250px""></img></td>
  </tr>
  <tr height=200>
    <td width=300><img src=""static/images/keys/z.svg"" width=""35%"" height=""75%""></img></td>
    <td width=300><img src=""static/images/keys/m.svg"" width=""35%"" height=""75%""></img></td>
  </tr>
</table>
  ",,,,,,,,,,,,,,,,,,,,,,,,,,,,
208,0,,html-keyboard-response,208,819423,0.0-7.11-3.11,0e6le4hsg2a6,2022-09-19 14:52:42.394,5fb7dd473afbb1033b491811,2,42,68,0,2,45,Male,,,"<p style=""font-size:50px"">You Lose!
No points this round.</p>",,,,,,,,,,,,,,,,,,,,,,,,,,,,
209,0,,html-keyboard-response,209,819944,0.0-7.11-4.11,0e6le4hsg2a6,2022-09-19 14:52:42.394,5fb7dd473afbb1033b491811,2,42,68,0,2,45,Male,,,,,,1.0,choice,11.0,A,C,black,black,moons,stars,C,A,A,black,stars,1501.5999999996,1.0,1.0,NA,right,1198.5,2.0,0.0,0.0,,,
210,0,,html-keyboard-response,210,821358,0.0-7.12-0.12,0e6le4hsg2a6,2022-09-19 14:52:42.394,5fb7dd473afbb1033b491811,2,42,68,0,2,45,Male,1404.0999999996,,"
  <table>
  <tr height=300>
    <td width=300 height=300><img src=""static/images/cards/stack_of_red_moons.svg"" width=""175px"" height=""250px""></img></td>
    <td width=300 height=300><img src=""static/images/cards/stack_of_black_moons.svg"" width=""175px"" height=""250px""></img></td>
  </tr>
  <tr height=200>
    <td width=300><img src=""static/images/keys/w.svg"" width=""35%"" height=""75%""></img></td>
    <td width=300><img src=""static/images/keys/o.svg"" width=""35%"" height=""75%""></img></td>
  </tr>
</table>
  ",87.0,1.0,,,,,,,,,,,,,,,,,,,,,,,,,,
211,0,,html-keyboard-response,211,823331,0.0-7.12-1.12,0e6le4hsg2a6,2022-09-19 14:52:42.394,5fb7dd473afbb1033b491811,2,42,68,0,2,45,Male,1450.0999999996,,"
  <table>
  <tr height=300>
    <td width=300 height=300><img src=""static/images/cards/back_of_red_moons.svg"" width=""175px"" height=""250px""></img></td>
    <td width=300 height=300><img src=""static/images/cards/back_of_red_moons.svg"" width=""175px"" height=""250px""></img></td>
  </tr>
  <tr height=200>
    <td width=300></td>
    <td width=300><img src=""static/images/keys/m.svg"" width=""35%"" height=""75%""></img></td>
  </tr>
</table>
  ",77.0,1.0,,,,,,,,,,,,,,,,,,,,,,,,,,
212,0,,html-keyboard-response,212,824845,0.0-7.12-2.12,0e6le4hsg2a6,2022-09-19 14:52:42.394,5fb7dd473afbb1033b491811,2,42,68,0,2,45,Male,,,"
  <table>
  <tr height=300>
    <td width=300 height=300><img src=""static/images/cards/back_of_red_moons.svg"" width=""175px"" height=""250px""></img></td>
    <td width=300 height=300><img src=""static/images/cards/6_of_red_moons.svg"" width=""175px"" height=""250px""></img></td>
  </tr>
  <tr height=200>
    <td width=300></td>
    <td width=300><img src=""static/images/keys/m.svg"" width=""35%"" height=""75%""></img></td>
  </tr>
</table>
  ",,,,,,,,,,,,,,,,,,,,,,,,,,,,
213,0,,html-keyboard-response,213,826362,0.0-7.12-3.12,0e6le4hsg2a6,2022-09-19 14:52:42.394,5fb7dd473afbb1033b491811,2,42,68,0,2,45,Male,,,"<p style=""font-size:50px"">You Lose!
No points this round.</p>",,,,,,,,,,,,,,,,,,,,,,,,,,,,
214,0,,html-keyboard-response,214,826871,0.0-7.12-4.12,0e6le4hsg2a6,2022-09-19 14:52:42.394,5fb7dd473afbb1033b491811,2,42,68,0,2,45,Male,,,,,,1.0,choice,12.0,C,D,red,black,moons,moons,D,C,D,red,moons,1404.0999999996,0.0,0.0,0,right,1450.0999999996,6.0,1.0,0.0,,,
215,0,,html-keyboard-response,215,828101,0.0-7.13-0.13,0e6le4hsg2a6,2022-09-19 14:52:42.394,5fb7dd473afbb1033b491811,2,42,68,0,2,45,Male,1220.6000000015,,"
  <table>
  <tr height=300>
    <td width=300 height=300><img src=""static/images/cards/stack_of_red_moons.svg"" width=""175px"" height=""250px""></img></td>
    <td width=300 height=300><img src=""static/images/cards/stack_of_black_moons.svg"" width=""175px"" height=""250px""></img></td>
  </tr>
  <tr height=200>
    <td width=300><img src=""static/images/keys/w.svg"" width=""35%"" height=""75%""></img></td>
    <td width=300><img src=""static/images/keys/o.svg"" width=""35%"" height=""75%""></img></td>
  </tr>
</table>
  ",87.0,1.0,,,,,,,,,,,,,,,,,,,,,,,,,,
216,0,,html-keyboard-response,216,829573,0.0-7.13-1.13,0e6le4hsg2a6,2022-09-19 14:52:42.394,5fb7dd473afbb1033b491811,2,42,68,0,2,45,Male,950.9000000004,,"
  <table>
  <tr height=300>
    <td width=300 height=300><img src=""static/images/cards/back_of_red_moons.svg"" width=""175px"" height=""250px""></img></td>
    <td width=300 height=300><img src=""static/images/cards/back_of_red_moons.svg"" width=""175px"" height=""250px""></img></td>
  </tr>
  <tr height=200>
    <td width=300></td>
    <td width=300><img src=""static/images/keys/m.svg"" width=""35%"" height=""75%""></img></td>
  </tr>
</table>
  ",77.0,1.0,,,,,,,,,,,,,,,,,,,,,,,,,,
217,0,,html-keyboard-response,217,831092,0.0-7.13-2.13,0e6le4hsg2a6,2022-09-19 14:52:42.394,5fb7dd473afbb1033b491811,2,42,68,0,2,45,Male,,,"
  <table>
  <tr height=300>
    <td width=300 height=300><img src=""static/images/cards/back_of_red_moons.svg"" width=""175px"" height=""250px""></img></td>
    <td width=300 height=300><img src=""static/images/cards/4_of_red_moons.svg"" width=""175px"" height=""250px""></img></td>
  </tr>
  <tr height=200>
    <td width=300></td>
    <td width=300><img src=""static/images/keys/m.svg"" width=""35%"" height=""75%""></img></td>
  </tr>
</table>
  ",,,,,,,,,,,,,,,,,,,,,,,,,,,,
218,0,,html-keyboard-response,218,832603,0.0-7.13-3.13,0e6le4hsg2a6,2022-09-19 14:52:42.394,5fb7dd473afbb1033b491811,2,42,68,0,2,45,Male,,,"<p style=""font-size:50px"">You win!
+10 points this round!</p>",,,,,,,,,,,,,,,,,,,,,,,,,,,,
219,0,,html-keyboard-response,219,833124,0.0-7.13-4.13,0e6le4hsg2a6,2022-09-19 14:52:42.394,5fb7dd473afbb1033b491811,2,42,68,0,2,45,Male,,,,,,1.0,choice,13.0,C,D,red,black,moons,moons,D,C,D,red,moons,1220.6000000015,0.0,0.0,0,right,950.9000000004,4.0,0.0,1.0,,,
220,0,,html-keyboard-response,220,834158,0.0-7.14-0.14,0e6le4hsg2a6,2022-09-19 14:52:42.394,5fb7dd473afbb1033b491811,2,42,68,0,2,45,Male,1026.4000000004,,"
  <table>
  <tr height=300>
    <td width=300 height=300><img src=""static/images/cards/stack_of_red_stars.svg"" width=""175px"" height=""250px""></img></td>
    <td width=300 height=300><img src=""static/images/cards/stack_of_black_stars.svg"" width=""175px"" height=""250px""></img></td>
  </tr>
  <tr height=200>
    <td width=300><img src=""static/images/keys/w.svg"" width=""35%"" height=""75%""></img></td>
    <td width=300><img src=""static/images/keys/o.svg"" width=""35%"" height=""75%""></img></td>
  </tr>
</table>
  ",87.0,1.0,,,,,,,,,,,,,,,,,,,,,,,,,,
221,0,,html-keyboard-response,221,835261,0.0-7.14-1.14,0e6le4hsg2a6,2022-09-19 14:52:42.394,5fb7dd473afbb1033b491811,2,42,68,0,2,45,Male,583.7000000011,,"
  <table>
  <tr height=300>
    <td width=300 height=300><img src=""static/images/cards/back_of_red_stars.svg"" width=""175px"" height=""250px""></img></td>
    <td width=300 height=300><img src=""static/images/cards/back_of_red_stars.svg"" width=""175px"" height=""250px""></img></td>
  </tr>
  <tr height=200>
    <td width=300></td>
    <td width=300><img src=""static/images/keys/m.svg"" width=""35%"" height=""75%""></img></td>
  </tr>
</table>
  ",77.0,1.0,,,,,,,,,,,,,,,,,,,,,,,,,,
222,0,,html-keyboard-response,222,836778,0.0-7.14-2.14,0e6le4hsg2a6,2022-09-19 14:52:42.394,5fb7dd473afbb1033b491811,2,42,68,0,2,45,Male,,,"
  <table>
  <tr height=300>
    <td width=300 height=300><img src=""static/images/cards/back_of_red_stars.svg"" width=""175px"" height=""250px""></img></td>
    <td width=300 height=300><img src=""static/images/cards/4_of_red_stars.svg"" width=""175px"" height=""250px""></img></td>
  </tr>
  <tr height=200>
    <td width=300></td>
    <td width=300><img src=""static/images/keys/m.svg"" width=""35%"" height=""75%""></img></td>
  </tr>
</table>
  ",,,,,,,,,,,,,,,,,,,,,,,,,,,,
223,0,,html-keyboard-response,223,838293,0.0-7.14-3.14,0e6le4hsg2a6,2022-09-19 14:52:42.394,5fb7dd473afbb1033b491811,2,42,68,0,2,45,Male,,,"<p style=""font-size:50px"">You Lose!
No points this round.</p>",,,,,,,,,,,,,,,,,,,,,,,,,,,,
224,0,,html-keyboard-response,224,838816,0.0-7.14-4.14,0e6le4hsg2a6,2022-09-19 14:52:42.394,5fb7dd473afbb1033b491811,2,42,68,0,2,45,Male,,,,,,1.0,choice,14.0,A,B,red,black,stars,stars,B,A,B,red,stars,1026.4000000004,0.0,1.0,0,right,583.7000000011,4.0,0.0,0.0,,,
225,0,,html-keyboard-response,225,840413,0.0-7.15-0.15,0e6le4hsg2a6,2022-09-19 14:52:42.394,5fb7dd473afbb1033b491811,2,42,68,0,2,45,Male,1588.0,,"
  <table>
  <tr height=300>
    <td width=300 height=300><img src=""static/images/cards/stack_of_red_moons.svg"" width=""175px"" height=""250px""></img></td>
    <td width=300 height=300><img src=""static/images/cards/stack_of_black_bolts.svg"" width=""175px"" height=""250px""></img></td>
  </tr>
  <tr height=200>
    <td width=300><img src=""static/images/keys/w.svg"" width=""35%"" height=""75%""></img></td>
    <td width=300><img src=""static/images/keys/o.svg"" width=""35%"" height=""75%""></img></td>
  </tr>
</table>
  ",79.0,1.0,,,,,,,,,,,,,,,,,,,,,,,,,,
226,0,,html-keyboard-response,226,841933,0.0-7.15-1.15,0e6le4hsg2a6,2022-09-19 14:52:42.394,5fb7dd473afbb1033b491811,2,42,68,0,2,45,Male,998.0,,"
  <table>
  <tr height=300>
    <td width=300 height=300><img src=""static/images/cards/back_of_black_bolts.svg"" width=""175px"" height=""250px""></img></td>
    <td width=300 height=300><img src=""static/images/cards/back_of_black_bolts.svg"" width=""175px"" height=""250px""></img></td>
  </tr>
  <tr height=200>
    <td width=300><img src=""static/images/keys/z.svg"" width=""35%"" height=""75%""></img></td>
    <td width=300></td>
  </tr>
</table>
  ",90.0,1.0,,,,,,,,,,,,,,,,,,,,,,,,,,
227,0,,html-keyboard-response,227,843447,0.0-7.15-2.15,0e6le4hsg2a6,2022-09-19 14:52:42.394,5fb7dd473afbb1033b491811,2,42,68,0,2,45,Male,,,"
  <table>
  <tr height=300>
    <td width=300 height=300><img src=""static/images/cards/7_of_black_bolts.svg"" width=""175px"" height=""250px""></img></td>
    <td width=300 height=300><img src=""static/images/cards/back_of_black_bolts.svg"" width=""175px"" height=""250px""></img></td>
  </tr>
  <tr height=200>
    <td width=300><img src=""static/images/keys/z.svg"" width=""35%"" height=""75%""></img></td>
    <td width=300></td>
  </tr>
</table>
  ",,,,,,,,,,,,,,,,,,,,,,,,,,,,
228,0,,html-keyboard-response,228,844964,0.0-7.15-3.15,0e6le4hsg2a6,2022-09-19 14:52:42.394,5fb7dd473afbb1033b491811,2,42,68,0,2,45,Male,,,"<p style=""font-size:50px"">You win!
+10 points this round!</p>",,,,,,,,,,,,,,,,,,,,,,,,,,,,
229,0,,html-keyboard-response,229,845478,0.0-7.15-4.15,0e6le4hsg2a6,2022-09-19 14:52:42.394,5fb7dd473afbb1033b491811,2,42,68,0,2,45,Male,,,,,,1.0,choice,15.0,D,Xnc,red,black,moons,bolts,D,Xnc,Xnc,black,bolts,1588.0,0.0,0.0,1,left,998.0,7.0,1.0,1.0,,,
230,0,,html-keyboard-response,230,847375,0.0-7.16-0.16,0e6le4hsg2a6,2022-09-19 14:52:42.394,5fb7dd473afbb1033b491811,2,42,68,0,2,45,Male,1887.0999999996,,"
  <table>
  <tr height=300>
    <td width=300 height=300><img src=""static/images/cards/stack_of_red_stars.svg"" width=""175px"" height=""250px""></img></td>
    <td width=300 height=300><img src=""static/images/cards/stack_of_black_moons.svg"" width=""175px"" height=""250px""></img></td>
  </tr>
  <tr height=200>
    <td width=300><img src=""static/images/keys/w.svg"" width=""35%"" height=""75%""></img></td>
    <td width=300><img src=""static/images/keys/o.svg"" width=""35%"" height=""75%""></img></td>
  </tr>
</table>
  ",87.0,1.0,,,,,,,,,,,,,,,,,,,,,,,,,,
231,0,,html-keyboard-response,231,849446,0.0-7.16-1.16,0e6le4hsg2a6,2022-09-19 14:52:42.394,5fb7dd473afbb1033b491811,2,42,68,0,2,45,Male,1553.5,,"
  <table>
  <tr height=300>
    <td width=300 height=300><img src=""static/images/cards/back_of_red_stars.svg"" width=""175px"" height=""250px""></img></td>
    <td width=300 height=300><img src=""static/images/cards/back_of_red_stars.svg"" width=""175px"" height=""250px""></img></td>
  </tr>
  <tr height=200>
    <td width=300></td>
    <td width=300><img src=""static/images/keys/m.svg"" width=""35%"" height=""75%""></img></td>
  </tr>
</table>
  ",77.0,1.0,,,,,,,,,,,,,,,,,,,,,,,,,,
232,0,,html-keyboard-response,232,850957,0.0-7.16-2.16,0e6le4hsg2a6,2022-09-19 14:52:42.394,5fb7dd473afbb1033b491811,2,42,68,0,2,45,Male,,,"
  <table>
  <tr height=300>
    <td width=300 height=300><img src=""static/images/cards/back_of_red_stars.svg"" width=""175px"" height=""250px""></img></td>
    <td width=300 height=300><img src=""static/images/cards/1_of_red_stars.svg"" width=""175px"" height=""250px""></img></td>
  </tr>
  <tr height=200>
    <td width=300></td>
    <td width=300><img src=""static/images/keys/m.svg"" width=""35%"" height=""75%""></img></td>
  </tr>
</table>
  ",,,,,,,,,,,,,,,,,,,,,,,,,,,,
233,0,,html-keyboard-response,233,852489,0.0-7.16-3.16,0e6le4hsg2a6,2022-09-19 14:52:42.394,5fb7dd473afbb1033b491811,2,42,68,0,2,45,Male,,,"<p style=""font-size:50px"">You Lose!
No points this round.</p>",,,,,,,,,,,,,,,,,,,,,,,,,,,,
234,0,,html-keyboard-response,234,852997,0.0-7.16-4.16,0e6le4hsg2a6,2022-09-19 14:52:42.394,5fb7dd473afbb1033b491811,2,42,68,0,2,45,Male,,,,,,1.0,choice,16.0,B,C,red,black,stars,moons,B,C,B,red,stars,1887.0999999996,0.0,1.0,0,right,1553.5,1.0,0.0,0.0,,,
235,0,,html-keyboard-response,235,854541,0.0-7.17-0.17,0e6le4hsg2a6,2022-09-19 14:52:42.394,5fb7dd473afbb1033b491811,2,42,68,0,2,45,Male,1535.4000000004,,"
  <table>
  <tr height=300>
    <td width=300 height=300><img src=""static/images/cards/stack_of_red_moons.svg"" width=""175px"" height=""250px""></img></td>
    <td width=300 height=300><img src=""static/images/cards/stack_of_black_stars.svg"" width=""175px"" height=""250px""></img></td>
  </tr>
  <tr height=200>
    <td width=300><img src=""static/images/keys/w.svg"" width=""35%"" height=""75%""></img></td>
    <td width=300><img src=""static/images/keys/o.svg"" width=""35%"" height=""75%""></img></td>
  </tr>
</table>
  ",79.0,1.0,,,,,,,,,,,,,,,,,,,,,,,,,,
236,0,,html-keyboard-response,236,855806,0.0-7.17-1.17,0e6le4hsg2a6,2022-09-19 14:52:42.394,5fb7dd473afbb1033b491811,2,42,68,0,2,45,Male,754.8999999985,,"
  <table>
  <tr height=300>
    <td width=300 height=300><img src=""static/images/cards/back_of_black_stars.svg"" width=""175px"" height=""250px""></img></td>
