,index,success,trial_type,trial_index,time_elapsed,internal_node_id,subject,date,prol_id,ctbl,sense_of_control_A,sense_of_control_B,sense_of_control_C,sense_of_control_D,age,gender,rt,url,stimulus,key_press,npress,is_data_trial,phase,trial,deck1,deck2,col1,col2,sym1,sym2,deck_l,deck_r,chosen_deck,chosen_col,chosen_sym,deck_rt,choose_choice,mutual_info,hidden_key,chosen_card,card_rt,player_num,win_card,outcome,mock_rating,response,responses
0,0,1.0,fullscreen,0,4545,0.0-0.0,x93rz45vuyc,2022-09-19 13:29:30.668,5d1a69d8f97a18001977e0d7,1,37,35,22,20,45,Male,,,,,,,,,,,,,,,,,,,,,,,,,,,,,,,
1,0,,external-html,1,34876,0.0-1.0,x93rz45vuyc,2022-09-19 13:29:30.668,5d1a69d8f97a18001977e0d7,1,37,35,22,20,45,Male,30231.2999999523,static/js/sub/consent.html,,,,,,,,,,,,,,,,,,,,,,,,,,,,,
2,0,,call-function,2,34877,0.0-2.0,x93rz45vuyc,2022-09-19 13:29:30.668,5d1a69d8f97a18001977e0d7,1,37,35,22,20,45,Male,,,,,,,,,,,,,,,,,,,,,,,,,,,,,,,
3,0,,image-keyboard-response,3,39400,0.0-3.0-0.0,x93rz45vuyc,2022-09-19 13:29:30.668,5d1a69d8f97a18001977e0d7,1,37,35,22,20,45,Male,4520.8000000119,,static/images/instructions_CB_1/Slide1.png,39.0,,,,,,,,,,,,,,,,,,,,,,,,,,,
4,0,,image-keyboard-response,4,49664,0.0-3.1-0.1,x93rz45vuyc,2022-09-19 13:29:30.668,5d1a69d8f97a18001977e0d7,1,37,35,22,20,45,Male,10260.7000000477,,static/images/instructions_CB_1/Slide2.png,39.0,,,,,,,,,,,,,,,,,,,,,,,,,,,
5,0,,image-keyboard-response,5,56276,0.0-3.2-0.2,x93rz45vuyc,2022-09-19 13:29:30.668,5d1a69d8f97a18001977e0d7,1,37,35,22,20,45,Male,6609.8000000119,,static/images/instructions_CB_1/Slide3.png,39.0,,,,,,,,,,,,,,,,,,,,,,,,,,,
6,0,,image-keyboard-response,6,63408,0.0-3.3-0.3,x93rz45vuyc,2022-09-19 13:29:30.668,5d1a69d8f97a18001977e0d7,1,37,35,22,20,45,Male,7130.5999999642,,static/images/instructions_CB_1/Slide4.png,39.0,,,,,,,,,,,,,,,,,,,,,,,,,,,
7,0,,image-keyboard-response,7,71744,0.0-3.4-0.4,x93rz45vuyc,2022-09-19 13:29:30.668,5d1a69d8f97a18001977e0d7,1,37,35,22,20,45,Male,8333.5,,static/images/instructions_CB_1/Slide5.png,39.0,,,,,,,,,,,,,,,,,,,,,,,,,,,
8,0,,image-keyboard-response,8,74576,0.0-3.5-0.5,x93rz45vuyc,2022-09-19 13:29:30.668,5d1a69d8f97a18001977e0d7,1,37,35,22,20,45,Male,2830.0999999642,,static/images/instructions_CB_1/Slide6.png,39.0,,,,,,,,,,,,,,,,,,,,,,,,,,,
9,0,,image-keyboard-response,9,82342,0.0-3.6-0.6,x93rz45vuyc,2022-09-19 13:29:30.668,5d1a69d8f97a18001977e0d7,1,37,35,22,20,45,Male,7764.3000000119,,static/images/instructions_CB_1/Slide7.png,39.0,,,,,,,,,,,,,,,,,,,,,,,,,,,
10,0,,image-keyboard-response,10,98663,0.0-3.7-0.7,x93rz45vuyc,2022-09-19 13:29:30.668,5d1a69d8f97a18001977e0d7,1,37,35,22,20,45,Male,16320.2000000477,,static/images/instructions_CB_1/Slide8.png,39.0,,,,,,,,,,,,,,,,,,,,,,,,,,,
11,0,,image-keyboard-response,11,114928,0.0-3.8-0.8,x93rz45vuyc,2022-09-19 13:29:30.668,5d1a69d8f97a18001977e0d7,1,37,35,22,20,45,Male,16267.3999999762,,static/images/instructions_CB_1/Slide9.png,39.0,,,,,,,,,,,,,,,,,,,,,,,,,,,
12,0,,image-keyboard-response,12,128242,0.0-3.9-0.9,x93rz45vuyc,2022-09-19 13:29:30.668,5d1a69d8f97a18001977e0d7,1,37,35,22,20,45,Male,13312.7999999523,,static/images/instructions_CB_1/Slide10.png,39.0,,,,,,,,,,,,,,,,,,,,,,,,,,,
13,0,,image-keyboard-response,13,136514,0.0-3.10-0.10,x93rz45vuyc,2022-09-19 13:29:30.668,5d1a69d8f97a18001977e0d7,1,37,35,22,20,45,Male,8270.3000000119,,static/images/instructions_CB_1/Slide11.png,39.0,,,,,,,,,,,,,,,,,,,,,,,,,,,
14,0,,image-keyboard-response,14,158244,0.0-3.11-0.11,x93rz45vuyc,2022-09-19 13:29:30.668,5d1a69d8f97a18001977e0d7,1,37,35,22,20,45,Male,21728.6000000238,,static/images/instructions_CB_1/Slide12.png,39.0,,,,,,,,,,,,,,,,,,,,,,,,,,,
15,0,,image-keyboard-response,15,184317,0.0-3.12-0.12,x93rz45vuyc,2022-09-19 13:29:30.668,5d1a69d8f97a18001977e0d7,1,37,35,22,20,45,Male,26082.0999999642,,static/images/instructions_CB_1/Slide13.png,39.0,,,,,,,,,,,,,,,,,,,,,,,,,,,
16,0,,image-keyboard-response,16,193178,0.0-3.13-0.13,x93rz45vuyc,2022-09-19 13:29:30.668,5d1a69d8f97a18001977e0d7,1,37,35,22,20,45,Male,8860.1999999881,,static/images/instructions_CB_1/Slide14.png,39.0,,,,,,,,,,,,,,,,,,,,,,,,,,,
17,0,,image-keyboard-response,17,199023,0.0-3.14-0.14,x93rz45vuyc,2022-09-19 13:29:30.668,5d1a69d8f97a18001977e0d7,1,37,35,22,20,45,Male,5843.2000000477,,static/images/instructions_CB_1/Slide15.png,37.0,,,,,,,,,,,,,,,,,,,,,,,,,,,
18,0,,image-keyboard-response,18,202223,0.0-3.15-0.15,x93rz45vuyc,2022-09-19 13:29:30.668,5d1a69d8f97a18001977e0d7,1,37,35,22,20,45,Male,3199.5,,static/images/instructions_CB_1/Slide14.png,37.0,,,,,,,,,,,,,,,,,,,,,,,,,,,
19,0,,image-keyboard-response,19,204409,0.0-3.16-0.16,x93rz45vuyc,2022-09-19 13:29:30.668,5d1a69d8f97a18001977e0d7,1,37,35,22,20,45,Male,2185.5,,static/images/instructions_CB_1/Slide13.png,39.0,,,,,,,,,,,,,,,,,,,,,,,,,,,
20,0,,image-keyboard-response,20,205269,0.0-3.17-0.17,x93rz45vuyc,2022-09-19 13:29:30.668,5d1a69d8f97a18001977e0d7,1,37,35,22,20,45,Male,859.0,,static/images/instructions_CB_1/Slide14.png,39.0,,,,,,,,,,,,,,,,,,,,,,,,,,,
21,0,,image-keyboard-response,21,205803,0.0-3.18-0.18,x93rz45vuyc,2022-09-19 13:29:30.668,5d1a69d8f97a18001977e0d7,1,37,35,22,20,45,Male,533.1000000238,,static/images/instructions_CB_1/Slide15.png,39.0,,,,,,,,,,,,,,,,,,,,,,,,,,,
22,0,,image-keyboard-response,22,218364,0.0-3.19-0.19,x93rz45vuyc,2022-09-19 13:29:30.668,5d1a69d8f97a18001977e0d7,1,37,35,22,20,45,Male,12560.1999999881,,static/images/instructions_CB_1/Slide16.png,39.0,,,,,,,,,,,,,,,,,,,,,,,,,,,
23,0,,image-keyboard-response,23,228057,0.0-3.20-0.20,x93rz45vuyc,2022-09-19 13:29:30.668,5d1a69d8f97a18001977e0d7,1,37,35,22,20,45,Male,9692.0,,static/images/instructions_CB_1/Slide17.png,39.0,,,,,,,,,,,,,,,,,,,,,,,,,,,
24,0,,image-keyboard-response,24,257945,0.0-3.21-0.21,x93rz45vuyc,2022-09-19 13:29:30.668,5d1a69d8f97a18001977e0d7,1,37,35,22,20,45,Male,29873.5,,static/images/instructions_CB_1/Slide18.png,39.0,,,,,,,,,,,,,,,,,,,,,,,,,,,
25,0,,image-keyboard-response,25,273878,0.0-3.22-0.22,x93rz45vuyc,2022-09-19 13:29:30.668,5d1a69d8f97a18001977e0d7,1,37,35,22,20,45,Male,15932.6000000238,,static/images/instructions_CB_1/Slide19.png,39.0,,,,,,,,,,,,,,,,,,,,,,,,,,,
26,0,,html-keyboard-response,26,275395,0.0-4.0-0.0,x93rz45vuyc,2022-09-19 13:29:30.668,5d1a69d8f97a18001977e0d7,1,37,35,22,20,45,Male,,,"<img src=""static/images/cards/stack_of_red_moons.svg"" width=""175px"" height=""250px""></img>",,,,,,,,,,,,,,,,,,,,,,,,,,,,
27,0,,html-keyboard-response,27,276972,0.0-4.0-1.0,x93rz45vuyc,2022-09-19 13:29:30.668,5d1a69d8f97a18001977e0d7,1,37,35,22,20,45,Male,1062.6000000238,,"
  <table>
  <tr height=300>
    <td width=300 height=300><img src=""static/images/cards/back_of_red_moons.svg"" width=""175px"" height=""250px""></img></td>
    <td width=300 height=300><img src=""static/images/cards/back_of_red_moons.svg"" width=""175px"" height=""250px""></img></td>
  </tr>
  <tr height=200>
    <td width=300><img src=""static/images/keys/z.svg"" width=""35%"" height=""75%""></img></td>
    <td width=300><img src=""static/images/keys/m.svg"" width=""35%"" height=""75%""></img></td>
  </tr>
</table>
  ",90.0,1.0,,,,,,,,,,,,,,,,,,,,,,,,,,
28,0,,html-keyboard-response,28,278478,0.0-4.0-2.0,x93rz45vuyc,2022-09-19 13:29:30.668,5d1a69d8f97a18001977e0d7,1,37,35,22,20,45,Male,,,"
  <table>
  <tr height=300>
    <td width=300 height=300><img src=""static/images/cards/9_of_red_moons.svg"" width=""175px"" height=""250px""></img></td>
    <td width=300 height=300><img src=""static/images/cards/back_of_red_moons.svg"" width=""175px"" height=""250px""></img></td>
  </tr>
  <tr height=200>
    <td width=300><img src=""static/images/keys/z.svg"" width=""35%"" height=""75%""></img></td>
    <td width=300><img src=""static/images/keys/m.svg"" width=""35%"" height=""75%""></img></td>
  </tr>
</table>
  ",,,,,,,,,,,,,,,,,,,,,,,,,,,,
29,0,,html-keyboard-response,29,279992,0.0-4.0-3.0,x93rz45vuyc,2022-09-19 13:29:30.668,5d1a69d8f97a18001977e0d7,1,37,35,22,20,45,Male,,,"<p style=""font-size:50px"">You win!
+10 points this round!</p>",,,,,,,,,,,,,,,,,,,,,,,,,,,,
30,0,,html-keyboard-response,30,280503,0.0-4.0-4.0,x93rz45vuyc,2022-09-19 13:29:30.668,5d1a69d8f97a18001977e0d7,1,37,35,22,20,45,Male,,,,,,1.0,learning,0.0,A,,red,,moons,,,,A,red,moons,,1.0,1.0,NA,left,1062.6000000238,9.0,1.0,1.0,,,
31,0,,html-keyboard-response,31,282018,0.0-4.1-0.1,x93rz45vuyc,2022-09-19 13:29:30.668,5d1a69d8f97a18001977e0d7,1,37,35,22,20,45,Male,,,"<img src=""static/images/cards/stack_of_black_moons.svg"" width=""175px"" height=""250px""></img>",,,,,,,,,,,,,,,,,,,,,,,,,,,,
32,0,,html-keyboard-response,32,283068,0.0-4.1-1.1,x93rz45vuyc,2022-09-19 13:29:30.668,5d1a69d8f97a18001977e0d7,1,37,35,22,20,45,Male,546.3000000119,,"
  <table>
  <tr height=300>
    <td width=300 height=300><img src=""static/images/cards/back_of_black_moons.svg"" width=""175px"" height=""250px""></img></td>
    <td width=300 height=300><img src=""static/images/cards/back_of_black_moons.svg"" width=""175px"" height=""250px""></img></td>
  </tr>
  <tr height=200>
    <td width=300><img src=""static/images/keys/z.svg"" width=""35%"" height=""75%""></img></td>
    <td width=300></td>
  </tr>
</table>
  ",90.0,1.0,,,,,,,,,,,,,,,,,,,,,,,,,,
33,0,,html-keyboard-response,33,284577,0.0-4.1-2.1,x93rz45vuyc,2022-09-19 13:29:30.668,5d1a69d8f97a18001977e0d7,1,37,35,22,20,45,Male,,,"
  <table>
  <tr height=300>
    <td width=300 height=300><img src=""static/images/cards/6_of_black_moons.svg"" width=""175px"" height=""250px""></img></td>
    <td width=300 height=300><img src=""static/images/cards/back_of_black_moons.svg"" width=""175px"" height=""250px""></img></td>
  </tr>
  <tr height=200>
    <td width=300><img src=""static/images/keys/z.svg"" width=""35%"" height=""75%""></img></td>
    <td width=300></td>
  </tr>
</table>
  ",,,,,,,,,,,,,,,,,,,,,,,,,,,,
34,0,,html-keyboard-response,34,286094,0.0-4.1-3.1,x93rz45vuyc,2022-09-19 13:29:30.668,5d1a69d8f97a18001977e0d7,1,37,35,22,20,45,Male,,,"<p style=""font-size:50px"">You win!
+10 points this round!</p>",,,,,,,,,,,,,,,,,,,,,,,,,,,,
35,0,,html-keyboard-response,35,286603,0.0-4.1-4.1,x93rz45vuyc,2022-09-19 13:29:30.668,5d1a69d8f97a18001977e0d7,1,37,35,22,20,45,Male,,,,,,1.0,learning,1.0,B,,black,,moons,,,,B,black,moons,,0.0,1.0,1,left,546.3000000119,6.0,1.0,1.0,,,
36,0,,html-keyboard-response,36,288120,0.0-4.2-0.2,x93rz45vuyc,2022-09-19 13:29:30.668,5d1a69d8f97a18001977e0d7,1,37,35,22,20,45,Male,,,"<img src=""static/images/cards/stack_of_red_stars.svg"" width=""175px"" height=""250px""></img>",,,,,,,,,,,,,,,,,,,,,,,,,,,,
37,0,,html-keyboard-response,37,289276,0.0-4.2-1.2,x93rz45vuyc,2022-09-19 13:29:30.668,5d1a69d8f97a18001977e0d7,1,37,35,22,20,45,Male,639.2000000477,,"
  <table>
  <tr height=300>
    <td width=300 height=300><img src=""static/images/cards/back_of_red_stars.svg"" width=""175px"" height=""250px""></img></td>
    <td width=300 height=300><img src=""static/images/cards/back_of_red_stars.svg"" width=""175px"" height=""250px""></img></td>
  </tr>
  <tr height=200>
    <td width=300><img src=""static/images/keys/z.svg"" width=""35%"" height=""75%""></img></td>
    <td width=300><img src=""static/images/keys/m.svg"" width=""35%"" height=""75%""></img></td>
  </tr>
</table>
  ",77.0,1.0,,,,,,,,,,,,,,,,,,,,,,,,,,
38,0,,html-keyboard-response,38,290792,0.0-4.2-2.2,x93rz45vuyc,2022-09-19 13:29:30.668,5d1a69d8f97a18001977e0d7,1,37,35,22,20,45,Male,,,"
  <table>
  <tr height=300>
    <td width=300 height=300><img src=""static/images/cards/back_of_red_stars.svg"" width=""175px"" height=""250px""></img></td>
    <td width=300 height=300><img src=""static/images/cards/6_of_red_stars.svg"" width=""175px"" height=""250px""></img></td>
  </tr>
  <tr height=200>
    <td width=300><img src=""static/images/keys/z.svg"" width=""35%"" height=""75%""></img></td>
    <td width=300><img src=""static/images/keys/m.svg"" width=""35%"" height=""75%""></img></td>
  </tr>
</table>
  ",,,,,,,,,,,,,,,,,,,,,,,,,,,,
39,0,,html-keyboard-response,39,292310,0.0-4.2-3.2,x93rz45vuyc,2022-09-19 13:29:30.668,5d1a69d8f97a18001977e0d7,1,37,35,22,20,45,Male,,,"<p style=""font-size:50px"">You Lose!
No points this round.</p>",,,,,,,,,,,,,,,,,,,,,,,,,,,,
40,0,,html-keyboard-response,40,292820,0.0-4.2-4.2,x93rz45vuyc,2022-09-19 13:29:30.668,5d1a69d8f97a18001977e0d7,1,37,35,22,20,45,Male,,,,,,1.0,learning,2.0,C,,red,,stars,,,,C,red,stars,,1.0,0.0,NA,right,639.2000000477,6.0,1.0,0.0,,,
41,0,,html-keyboard-response,41,294332,0.0-4.3-0.3,x93rz45vuyc,2022-09-19 13:29:30.668,5d1a69d8f97a18001977e0d7,1,37,35,22,20,45,Male,,,"<img src=""static/images/cards/stack_of_black_stars.svg"" width=""175px"" height=""250px""></img>",,,,,,,,,,,,,,,,,,,,,,,,,,,,
42,0,,html-keyboard-response,42,295402,0.0-4.3-1.3,x93rz45vuyc,2022-09-19 13:29:30.668,5d1a69d8f97a18001977e0d7,1,37,35,22,20,45,Male,565.3999999762,,"
  <table>
  <tr height=300>
    <td width=300 height=300><img src=""static/images/cards/back_of_black_stars.svg"" width=""175px"" height=""250px""></img></td>
    <td width=300 height=300><img src=""static/images/cards/back_of_black_stars.svg"" width=""175px"" height=""250px""></img></td>
  </tr>
  <tr height=200>
    <td width=300><img src=""static/images/keys/z.svg"" width=""35%"" height=""75%""></img></td>
    <td width=300></td>
  </tr>
</table>
  ",90.0,1.0,,,,,,,,,,,,,,,,,,,,,,,,,,
43,0,,html-keyboard-response,43,296909,0.0-4.3-2.3,x93rz45vuyc,2022-09-19 13:29:30.668,5d1a69d8f97a18001977e0d7,1,37,35,22,20,45,Male,,,"
  <table>
  <tr height=300>
    <td width=300 height=300><img src=""static/images/cards/8_of_black_stars.svg"" width=""175px"" height=""250px""></img></td>
    <td width=300 height=300><img src=""static/images/cards/back_of_black_stars.svg"" width=""175px"" height=""250px""></img></td>
  </tr>
  <tr height=200>
    <td width=300><img src=""static/images/keys/z.svg"" width=""35%"" height=""75%""></img></td>
    <td width=300></td>
  </tr>
</table>
  ",,,,,,,,,,,,,,,,,,,,,,,,,,,,
44,0,,html-keyboard-response,44,298426,0.0-4.3-3.3,x93rz45vuyc,2022-09-19 13:29:30.668,5d1a69d8f97a18001977e0d7,1,37,35,22,20,45,Male,,,"<p style=""font-size:50px"">You win!
+10 points this round!</p>",,,,,,,,,,,,,,,,,,,,,,,,,,,,
45,0,,html-keyboard-response,45,298935,0.0-4.3-4.3,x93rz45vuyc,2022-09-19 13:29:30.668,5d1a69d8f97a18001977e0d7,1,37,35,22,20,45,Male,,,,,,1.0,learning,3.0,D,,black,,stars,,,,D,black,stars,,0.0,0.0,1,left,565.3999999762,8.0,1.0,1.0,,,
46,0,,html-keyboard-response,46,300451,0.0-4.4-0.4,x93rz45vuyc,2022-09-19 13:29:30.668,5d1a69d8f97a18001977e0d7,1,37,35,22,20,45,Male,,,"<img src=""static/images/cards/stack_of_red_bolts.svg"" width=""175px"" height=""250px""></img>",,,,,,,,,,,,,,,,,,,,,,,,,,,,
47,0,,html-keyboard-response,47,301556,0.0-4.4-1.4,x93rz45vuyc,2022-09-19 13:29:30.668,5d1a69d8f97a18001977e0d7,1,37,35,22,20,45,Male,587.5,,"
  <table>
  <tr height=300>
    <td width=300 height=300><img src=""static/images/cards/back_of_red_bolts.svg"" width=""175px"" height=""250px""></img></td>
    <td width=300 height=300><img src=""static/images/cards/back_of_red_bolts.svg"" width=""175px"" height=""250px""></img></td>
  </tr>
  <tr height=200>
    <td width=300><img src=""static/images/keys/z.svg"" width=""35%"" height=""75%""></img></td>
    <td width=300><img src=""static/images/keys/m.svg"" width=""35%"" height=""75%""></img></td>
  </tr>
</table>
  ",77.0,1.0,,,,,,,,,,,,,,,,,,,,,,,,,,
48,0,,html-keyboard-response,48,303073,0.0-4.4-2.4,x93rz45vuyc,2022-09-19 13:29:30.668,5d1a69d8f97a18001977e0d7,1,37,35,22,20,45,Male,,,"
  <table>
  <tr height=300>
    <td width=300 height=300><img src=""static/images/cards/back_of_red_bolts.svg"" width=""175px"" height=""250px""></img></td>
    <td width=300 height=300><img src=""static/images/cards/4_of_red_bolts.svg"" width=""175px"" height=""250px""></img></td>
  </tr>
  <tr height=200>
    <td width=300><img src=""static/images/keys/z.svg"" width=""35%"" height=""75%""></img></td>
    <td width=300><img src=""static/images/keys/m.svg"" width=""35%"" height=""75%""></img></td>
  </tr>
</table>
  ",,,,,,,,,,,,,,,,,,,,,,,,,,,,
49,0,,html-keyboard-response,49,304591,0.0-4.4-3.4,x93rz45vuyc,2022-09-19 13:29:30.668,5d1a69d8f97a18001977e0d7,1,37,35,22,20,45,Male,,,"<p style=""font-size:50px"">You win!
+10 points this round!</p>",,,,,,,,,,,,,,,,,,,,,,,,,,,,
50,0,,html-keyboard-response,50,305103,0.0-4.4-4.4,x93rz45vuyc,2022-09-19 13:29:30.668,5d1a69d8f97a18001977e0d7,1,37,35,22,20,45,Male,,,,,,1.0,learning,4.0,Xc,,red,,bolts,,,,Xc,red,bolts,,1.0,0.0,NA,right,587.5,4.0,0.0,1.0,,,
51,0,,html-keyboard-response,51,306618,0.0-4.5-0.5,x93rz45vuyc,2022-09-19 13:29:30.668,5d1a69d8f97a18001977e0d7,1,37,35,22,20,45,Male,,,"<img src=""static/images/cards/stack_of_black_bolts.svg"" width=""175px"" height=""250px""></img>",,,,,,,,,,,,,,,,,,,,,,,,,,,,
52,0,,html-keyboard-response,52,307758,0.0-4.5-1.5,x93rz45vuyc,2022-09-19 13:29:30.668,5d1a69d8f97a18001977e0d7,1,37,35,22,20,45,Male,637.0999999642,,"
  <table>
  <tr height=300>
    <td width=300 height=300><img src=""static/images/cards/back_of_black_bolts.svg"" width=""175px"" height=""250px""></img></td>
    <td width=300 height=300><img src=""static/images/cards/back_of_black_bolts.svg"" width=""175px"" height=""250px""></img></td>
  </tr>
  <tr height=200>
    <td width=300></td>
    <td width=300><img src=""static/images/keys/m.svg"" width=""35%"" height=""75%""></img></td>
  </tr>
</table>
  ",77.0,1.0,,,,,,,,,,,,,,,,,,,,,,,,,,
53,0,,html-keyboard-response,53,309272,0.0-4.5-2.5,x93rz45vuyc,2022-09-19 13:29:30.668,5d1a69d8f97a18001977e0d7,1,37,35,22,20,45,Male,,,"
  <table>
  <tr height=300>
    <td width=300 height=300><img src=""static/images/cards/back_of_black_bolts.svg"" width=""175px"" height=""250px""></img></td>
    <td width=300 height=300><img src=""static/images/cards/2_of_black_bolts.svg"" width=""175px"" height=""250px""></img></td>
  </tr>
  <tr height=200>
    <td width=300></td>
    <td width=300><img src=""static/images/keys/m.svg"" width=""35%"" height=""75%""></img></td>
  </tr>
</table>
  ",,,,,,,,,,,,,,,,,,,,,,,,,,,,
54,0,,html-keyboard-response,54,310794,0.0-4.5-3.5,x93rz45vuyc,2022-09-19 13:29:30.668,5d1a69d8f97a18001977e0d7,1,37,35,22,20,45,Male,,,"<p style=""font-size:50px"">You win!
+10 points this round!</p>",,,,,,,,,,,,,,,,,,,,,,,,,,,,
55,0,,html-keyboard-response,55,311304,0.0-4.5-4.5,x93rz45vuyc,2022-09-19 13:29:30.668,5d1a69d8f97a18001977e0d7,1,37,35,22,20,45,Male,,,,,,1.0,learning,5.0,Xnc,,black,,bolts,,,,Xnc,black,bolts,,0.0,0.0,0,right,637.0999999642,2.0,0.0,1.0,,,
56,0,,html-keyboard-response,56,312813,0.0-4.6-0.6,x93rz45vuyc,2022-09-19 13:29:30.668,5d1a69d8f97a18001977e0d7,1,37,35,22,20,45,Male,,,"<img src=""static/images/cards/stack_of_red_moons.svg"" width=""175px"" height=""250px""></img>",,,,,,,,,,,,,,,,,,,,,,,,,,,,
57,0,,html-keyboard-response,57,314086,0.0-4.6-1.6,x93rz45vuyc,2022-09-19 13:29:30.668,5d1a69d8f97a18001977e0d7,1,37,35,22,20,45,Male,766.7000000477,,"
  <table>
  <tr height=300>
    <td width=300 height=300><img src=""static/images/cards/back_of_red_moons.svg"" width=""175px"" height=""250px""></img></td>
    <td width=300 height=300><img src=""static/images/cards/back_of_red_moons.svg"" width=""175px"" height=""250px""></img></td>
  </tr>
  <tr height=200>
    <td width=300><img src=""static/images/keys/z.svg"" width=""35%"" height=""75%""></img></td>
    <td width=300><img src=""static/images/keys/m.svg"" width=""35%"" height=""75%""></img></td>
  </tr>
</table>
  ",90.0,1.0,,,,,,,,,,,,,,,,,,,,,,,,,,
58,0,,html-keyboard-response,58,315603,0.0-4.6-2.6,x93rz45vuyc,2022-09-19 13:29:30.668,5d1a69d8f97a18001977e0d7,1,37,35,22,20,45,Male,,,"
  <table>
  <tr height=300>
    <td width=300 height=300><img src=""static/images/cards/10_of_red_moons.svg"" width=""175px"" height=""250px""></img></td>
    <td width=300 height=300><img src=""static/images/cards/back_of_red_moons.svg"" width=""175px"" height=""250px""></img></td>
  </tr>
  <tr height=200>
    <td width=300><img src=""static/images/keys/z.svg"" width=""35%"" height=""75%""></img></td>
    <td width=300><img src=""static/images/keys/m.svg"" width=""35%"" height=""75%""></img></td>
  </tr>
</table>
  ",,,,,,,,,,,,,,,,,,,,,,,,,,,,
59,0,,html-keyboard-response,59,317113,0.0-4.6-3.6,x93rz45vuyc,2022-09-19 13:29:30.668,5d1a69d8f97a18001977e0d7,1,37,35,22,20,45,Male,,,"<p style=""font-size:50px"">You win!
+10 points this round!</p>",,,,,,,,,,,,,,,,,,,,,,,,,,,,
60,0,,html-keyboard-response,60,317619,0.0-4.6-4.6,x93rz45vuyc,2022-09-19 13:29:30.668,5d1a69d8f97a18001977e0d7,1,37,35,22,20,45,Male,,,,,,1.0,learning,6.0,A,,red,,moons,,,,A,red,moons,,1.0,1.0,NA,left,766.7000000477,10.0,1.0,1.0,,,
61,0,,html-keyboard-response,61,319132,0.0-4.7-0.7,x93rz45vuyc,2022-09-19 13:29:30.668,5d1a69d8f97a18001977e0d7,1,37,35,22,20,45,Male,,,"<img src=""static/images/cards/stack_of_black_moons.svg"" width=""175px"" height=""250px""></img>",,,,,,,,,,,,,,,,,,,,,,,,,,,,
62,0,,html-keyboard-response,62,320157,0.0-4.7-1.7,x93rz45vuyc,2022-09-19 13:29:30.668,5d1a69d8f97a18001977e0d7,1,37,35,22,20,45,Male,520.0,,"
  <table>
  <tr height=300>
    <td width=300 height=300><img src=""static/images/cards/back_of_black_moons.svg"" width=""175px"" height=""250px""></img></td>
    <td width=300 height=300><img src=""static/images/cards/back_of_black_moons.svg"" width=""175px"" height=""250px""></img></td>
  </tr>
  <tr height=200>
    <td width=300><img src=""static/images/keys/z.svg"" width=""35%"" height=""75%""></img></td>
    <td width=300></td>
  </tr>
</table>
  ",90.0,1.0,,,,,,,,,,,,,,,,,,,,,,,,,,
63,0,,html-keyboard-response,63,321674,0.0-4.7-2.7,x93rz45vuyc,2022-09-19 13:29:30.668,5d1a69d8f97a18001977e0d7,1,37,35,22,20,45,Male,,,"
  <table>
  <tr height=300>
    <td width=300 height=300><img src=""static/images/cards/6_of_black_moons.svg"" width=""175px"" height=""250px""></img></td>
    <td width=300 height=300><img src=""static/images/cards/back_of_black_moons.svg"" width=""175px"" height=""250px""></img></td>
  </tr>
  <tr height=200>
    <td width=300><img src=""static/images/keys/z.svg"" width=""35%"" height=""75%""></img></td>
    <td width=300></td>
  </tr>
</table>
  ",,,,,,,,,,,,,,,,,,,,,,,,,,,,
64,0,,html-keyboard-response,64,323192,0.0-4.7-3.7,x93rz45vuyc,2022-09-19 13:29:30.668,5d1a69d8f97a18001977e0d7,1,37,35,22,20,45,Male,,,"<p style=""font-size:50px"">You win!
+10 points this round!</p>",,,,,,,,,,,,,,,,,,,,,,,,,,,,
65,0,,html-keyboard-response,65,323701,0.0-4.7-4.7,x93rz45vuyc,2022-09-19 13:29:30.668,5d1a69d8f97a18001977e0d7,1,37,35,22,20,45,Male,,,,,,1.0,learning,7.0,B,,black,,moons,,,,B,black,moons,,0.0,1.0,1,left,520.0,6.0,1.0,1.0,,,
66,0,,html-keyboard-response,66,325211,0.0-4.8-0.8,x93rz45vuyc,2022-09-19 13:29:30.668,5d1a69d8f97a18001977e0d7,1,37,35,22,20,45,Male,,,"<img src=""static/images/cards/stack_of_red_stars.svg"" width=""175px"" height=""250px""></img>",,,,,,,,,,,,,,,,,,,,,,,,,,,,
67,0,,html-keyboard-response,67,326496,0.0-4.8-1.8,x93rz45vuyc,2022-09-19 13:29:30.668,5d1a69d8f97a18001977e0d7,1,37,35,22,20,45,Male,776.3999999762,,"
  <table>
  <tr height=300>
    <td width=300 height=300><img src=""static/images/cards/back_of_red_stars.svg"" width=""175px"" height=""250px""></img></td>
    <td width=300 height=300><img src=""static/images/cards/back_of_red_stars.svg"" width=""175px"" height=""250px""></img></td>
  </tr>
  <tr height=200>
    <td width=300><img src=""static/images/keys/z.svg"" width=""35%"" height=""75%""></img></td>
    <td width=300><img src=""static/images/keys/m.svg"" width=""35%"" height=""75%""></img></td>
  </tr>
</table>
  ",77.0,1.0,,,,,,,,,,,,,,,,,,,,,,,,,,
68,0,,html-keyboard-response,68,328007,0.0-4.8-2.8,x93rz45vuyc,2022-09-19 13:29:30.668,5d1a69d8f97a18001977e0d7,1,37,35,22,20,45,Male,,,"
  <table>
  <tr height=300>
    <td width=300 height=300><img src=""static/images/cards/back_of_red_stars.svg"" width=""175px"" height=""250px""></img></td>
    <td width=300 height=300><img src=""static/images/cards/1_of_red_stars.svg"" width=""175px"" height=""250px""></img></td>
  </tr>
  <tr height=200>
    <td width=300><img src=""static/images/keys/z.svg"" width=""35%"" height=""75%""></img></td>
    <td width=300><img src=""static/images/keys/m.svg"" width=""35%"" height=""75%""></img></td>
  </tr>
</table>
  ",,,,,,,,,,,,,,,,,,,,,,,,,,,,
69,0,,html-keyboard-response,69,329509,0.0-4.8-3.8,x93rz45vuyc,2022-09-19 13:29:30.668,5d1a69d8f97a18001977e0d7,1,37,35,22,20,45,Male,,,"<p style=""font-size:50px"">You Lose!
No points this round.</p>",,,,,,,,,,,,,,,,,,,,,,,,,,,,
70,0,,html-keyboard-response,70,330017,0.0-4.8-4.8,x93rz45vuyc,2022-09-19 13:29:30.668,5d1a69d8f97a18001977e0d7,1,37,35,22,20,45,Male,,,,,,1.0,learning,8.0,C,,red,,stars,,,,C,red,stars,,1.0,0.0,NA,right,776.3999999762,1.0,0.0,0.0,,,
71,0,,html-keyboard-response,71,331531,0.0-4.9-0.9,x93rz45vuyc,2022-09-19 13:29:30.668,5d1a69d8f97a18001977e0d7,1,37,35,22,20,45,Male,,,"<img src=""static/images/cards/stack_of_black_stars.svg"" width=""175px"" height=""250px""></img>",,,,,,,,,,,,,,,,,,,,,,,,,,,,
72,0,,html-keyboard-response,72,332687,0.0-4.9-1.9,x93rz45vuyc,2022-09-19 13:29:30.668,5d1a69d8f97a18001977e0d7,1,37,35,22,20,45,Male,650.1999999881,,"
  <table>
  <tr height=300>
    <td width=300 height=300><img src=""static/images/cards/back_of_black_stars.svg"" width=""175px"" height=""250px""></img></td>
    <td width=300 height=300><img src=""static/images/cards/back_of_black_stars.svg"" width=""175px"" height=""250px""></img></td>
  </tr>
  <tr height=200>
    <td width=300><img src=""static/images/keys/z.svg"" width=""35%"" height=""75%""></img></td>
    <td width=300></td>
  </tr>
</table>
  ",90.0,1.0,,,,,,,,,,,,,,,,,,,,,,,,,,
73,0,,html-keyboard-response,73,334190,0.0-4.9-2.9,x93rz45vuyc,2022-09-19 13:29:30.668,5d1a69d8f97a18001977e0d7,1,37,35,22,20,45,Male,,,"
  <table>
  <tr height=300>
    <td width=300 height=300><img src=""static/images/cards/4_of_black_stars.svg"" width=""175px"" height=""250px""></img></td>
    <td width=300 height=300><img src=""static/images/cards/back_of_black_stars.svg"" width=""175px"" height=""250px""></img></td>
  </tr>
  <tr height=200>
    <td width=300><img src=""static/images/keys/z.svg"" width=""35%"" height=""75%""></img></td>
    <td width=300></td>
  </tr>
</table>
  ",,,,,,,,,,,,,,,,,,,,,,,,,,,,
74,0,,html-keyboard-response,74,335708,0.0-4.9-3.9,x93rz45vuyc,2022-09-19 13:29:30.668,5d1a69d8f97a18001977e0d7,1,37,35,22,20,45,Male,,,"<p style=""font-size:50px"">You Lose!
No points this round.</p>",,,,,,,,,,,,,,,,,,,,,,,,,,,,
75,0,,html-keyboard-response,75,336218,0.0-4.9-4.9,x93rz45vuyc,2022-09-19 13:29:30.668,5d1a69d8f97a18001977e0d7,1,37,35,22,20,45,Male,,,,,,1.0,learning,9.0,D,,black,,stars,,,,D,black,stars,,0.0,0.0,1,left,650.1999999881,4.0,0.0,0.0,,,
76,0,,html-keyboard-response,76,337730,0.0-4.10-0.10,x93rz45vuyc,2022-09-19 13:29:30.668,5d1a69d8f97a18001977e0d7,1,37,35,22,20,45,Male,,,"<img src=""static/images/cards/stack_of_red_bolts.svg"" width=""175px"" height=""250px""></img>",,,,,,,,,,,,,,,,,,,,,,,,,,,,
77,0,,html-keyboard-response,77,338962,0.0-4.10-1.10,x93rz45vuyc,2022-09-19 13:29:30.668,5d1a69d8f97a18001977e0d7,1,37,35,22,20,45,Male,727.0,,"
  <table>
  <tr height=300>
    <td width=300 height=300><img src=""static/images/cards/back_of_red_bolts.svg"" width=""175px"" height=""250px""></img></td>
    <td width=300 height=300><img src=""static/images/cards/back_of_red_bolts.svg"" width=""175px"" height=""250px""></img></td>
  </tr>
  <tr height=200>
    <td width=300><img src=""static/images/keys/z.svg"" width=""35%"" height=""75%""></img></td>
    <td width=300><img src=""static/images/keys/m.svg"" width=""35%"" height=""75%""></img></td>
  </tr>
</table>
  ",77.0,1.0,,,,,,,,,,,,,,,,,,,,,,,,,,
78,0,,html-keyboard-response,78,340468,0.0-4.10-2.10,x93rz45vuyc,2022-09-19 13:29:30.668,5d1a69d8f97a18001977e0d7,1,37,35,22,20,45,Male,,,"
  <table>
  <tr height=300>
    <td width=300 height=300><img src=""static/images/cards/back_of_red_bolts.svg"" width=""175px"" height=""250px""></img></td>
    <td width=300 height=300><img src=""static/images/cards/6_of_red_bolts.svg"" width=""175px"" height=""250px""></img></td>
  </tr>
  <tr height=200>
    <td width=300><img src=""static/images/keys/z.svg"" width=""35%"" height=""75%""></img></td>
    <td width=300><img src=""static/images/keys/m.svg"" width=""35%"" height=""75%""></img></td>
  </tr>
</table>
  ",,,,,,,,,,,,,,,,,,,,,,,,,,,,
79,0,,html-keyboard-response,79,341991,0.0-4.10-3.10,x93rz45vuyc,2022-09-19 13:29:30.668,5d1a69d8f97a18001977e0d7,1,37,35,22,20,45,Male,,,"<p style=""font-size:50px"">You win!
+10 points this round!</p>",,,,,,,,,,,,,,,,,,,,,,,,,,,,
80,0,,html-keyboard-response,80,342500,0.0-4.10-4.10,x93rz45vuyc,2022-09-19 13:29:30.668,5d1a69d8f97a18001977e0d7,1,37,35,22,20,45,Male,,,,,,1.0,learning,10.0,Xc,,red,,bolts,,,,Xc,red,bolts,,1.0,0.0,NA,right,727.0,6.0,1.0,1.0,,,
81,0,,html-keyboard-response,81,344002,0.0-4.11-0.11,x93rz45vuyc,2022-09-19 13:29:30.668,5d1a69d8f97a18001977e0d7,1,37,35,22,20,45,Male,,,"<img src=""static/images/cards/stack_of_black_bolts.svg"" width=""175px"" height=""250px""></img>",,,,,,,,,,,,,,,,,,,,,,,,,,,,
82,0,,html-keyboard-response,82,345141,0.0-4.11-1.11,x93rz45vuyc,2022-09-19 13:29:30.668,5d1a69d8f97a18001977e0d7,1,37,35,22,20,45,Male,624.7999999523,,"
  <table>
  <tr height=300>
    <td width=300 height=300><img src=""static/images/cards/back_of_black_bolts.svg"" width=""175px"" height=""250px""></img></td>
    <td width=300 height=300><img src=""static/images/cards/back_of_black_bolts.svg"" width=""175px"" height=""250px""></img></td>
  </tr>
  <tr height=200>
    <td width=300></td>
    <td width=300><img src=""static/images/keys/m.svg"" width=""35%"" height=""75%""></img></td>
  </tr>
</table>
  ",77.0,1.0,,,,,,,,,,,,,,,,,,,,,,,,,,
83,0,,html-keyboard-response,83,346656,0.0-4.11-2.11,x93rz45vuyc,2022-09-19 13:29:30.668,5d1a69d8f97a18001977e0d7,1,37,35,22,20,45,Male,,,"
  <table>
  <tr height=300>
    <td width=300 height=300><img src=""static/images/cards/back_of_black_bolts.svg"" width=""175px"" height=""250px""></img></td>
    <td width=300 height=300><img src=""static/images/cards/3_of_black_bolts.svg"" width=""175px"" height=""250px""></img></td>
  </tr>
  <tr height=200>
    <td width=300></td>
    <td width=300><img src=""static/images/keys/m.svg"" width=""35%"" height=""75%""></img></td>
  </tr>
</table>
  ",,,,,,,,,,,,,,,,,,,,,,,,,,,,
84,0,,html-keyboard-response,84,348159,0.0-4.11-3.11,x93rz45vuyc,2022-09-19 13:29:30.668,5d1a69d8f97a18001977e0d7,1,37,35,22,20,45,Male,,,"<p style=""font-size:50px"">You win!
+10 points this round!</p>",,,,,,,,,,,,,,,,,,,,,,,,,,,,
85,0,,html-keyboard-response,85,348666,0.0-4.11-4.11,x93rz45vuyc,2022-09-19 13:29:30.668,5d1a69d8f97a18001977e0d7,1,37,35,22,20,45,Male,,,,,,1.0,learning,11.0,Xnc,,black,,bolts,,,,Xnc,black,bolts,,0.0,0.0,0,right,624.7999999523,3.0,0.0,1.0,,,
86,0,,html-keyboard-response,86,350180,0.0-4.12-0.12,x93rz45vuyc,2022-09-19 13:29:30.668,5d1a69d8f97a18001977e0d7,1,37,35,22,20,45,Male,,,"<img src=""static/images/cards/stack_of_red_moons.svg"" width=""175px"" height=""250px""></img>",,,,,,,,,,,,,,,,,,,,,,,,,,,,
87,0,,html-keyboard-response,87,351527,0.0-4.12-1.12,x93rz45vuyc,2022-09-19 13:29:30.668,5d1a69d8f97a18001977e0d7,1,37,35,22,20,45,Male,842.5,,"
  <table>
  <tr height=300>
    <td width=300 height=300><img src=""static/images/cards/back_of_red_moons.svg"" width=""175px"" height=""250px""></img></td>
    <td width=300 height=300><img src=""static/images/cards/back_of_red_moons.svg"" width=""175px"" height=""250px""></img></td>
  </tr>
  <tr height=200>
    <td width=300><img src=""static/images/keys/z.svg"" width=""35%"" height=""75%""></img></td>
    <td width=300><img src=""static/images/keys/m.svg"" width=""35%"" height=""75%""></img></td>
  </tr>
</table>
  ",90.0,1.0,,,,,,,,,,,,,,,,,,,,,,,,,,
88,0,,html-keyboard-response,88,353038,0.0-4.12-2.12,x93rz45vuyc,2022-09-19 13:29:30.668,5d1a69d8f97a18001977e0d7,1,37,35,22,20,45,Male,,,"
  <table>
  <tr height=300>
    <td width=300 height=300><img src=""static/images/cards/3_of_red_moons.svg"" width=""175px"" height=""250px""></img></td>
    <td width=300 height=300><img src=""static/images/cards/back_of_red_moons.svg"" width=""175px"" height=""250px""></img></td>
  </tr>
  <tr height=200>
    <td width=300><img src=""static/images/keys/z.svg"" width=""35%"" height=""75%""></img></td>
    <td width=300><img src=""static/images/keys/m.svg"" width=""35%"" height=""75%""></img></td>
  </tr>
</table>
  ",,,,,,,,,,,,,,,,,,,,,,,,,,,,
89,0,,html-keyboard-response,89,354564,0.0-4.12-3.12,x93rz45vuyc,2022-09-19 13:29:30.668,5d1a69d8f97a18001977e0d7,1,37,35,22,20,45,Male,,,"<p style=""font-size:50px"">You Lose!
No points this round.</p>",,,,,,,,,,,,,,,,,,,,,,,,,,,,
90,0,,html-keyboard-response,90,355081,0.0-4.12-4.12,x93rz45vuyc,2022-09-19 13:29:30.668,5d1a69d8f97a18001977e0d7,1,37,35,22,20,45,Male,,,,,,1.0,learning,12.0,A,,red,,moons,,,,A,red,moons,,1.0,1.0,NA,left,842.5,3.0,0.0,0.0,,,
91,0,,html-keyboard-response,91,356596,0.0-4.13-0.13,x93rz45vuyc,2022-09-19 13:29:30.668,5d1a69d8f97a18001977e0d7,1,37,35,22,20,45,Male,,,"<img src=""static/images/cards/stack_of_black_moons.svg"" width=""175px"" height=""250px""></img>",,,,,,,,,,,,,,,,,,,,,,,,,,,,
92,0,,html-keyboard-response,92,357717,0.0-4.13-1.13,x93rz45vuyc,2022-09-19 13:29:30.668,5d1a69d8f97a18001977e0d7,1,37,35,22,20,45,Male,615.5,,"
  <table>
  <tr height=300>
    <td width=300 height=300><img src=""static/images/cards/back_of_black_moons.svg"" width=""175px"" height=""250px""></img></td>
    <td width=300 height=300><img src=""static/images/cards/back_of_black_moons.svg"" width=""175px"" height=""250px""></img></td>
  </tr>
  <tr height=200>
    <td width=300><img src=""static/images/keys/z.svg"" width=""35%"" height=""75%""></img></td>
    <td width=300></td>
  </tr>
</table>
  ",90.0,1.0,,,,,,,,,,,,,,,,,,,,,,,,,,
93,0,,html-keyboard-response,93,359222,0.0-4.13-2.13,x93rz45vuyc,2022-09-19 13:29:30.668,5d1a69d8f97a18001977e0d7,1,37,35,22,20,45,Male,,,"
  <table>
  <tr height=300>
    <td width=300 height=300><img src=""static/images/cards/3_of_black_moons.svg"" width=""175px"" height=""250px""></img></td>
    <td width=300 height=300><img src=""static/images/cards/back_of_black_moons.svg"" width=""175px"" height=""250px""></img></td>
  </tr>
  <tr height=200>
    <td width=300><img src=""static/images/keys/z.svg"" width=""35%"" height=""75%""></img></td>
    <td width=300></td>
  </tr>
</table>
  ",,,,,,,,,,,,,,,,,,,,,,,,,,,,
94,0,,html-keyboard-response,94,360740,0.0-4.13-3.13,x93rz45vuyc,2022-09-19 13:29:30.668,5d1a69d8f97a18001977e0d7,1,37,35,22,20,45,Male,,,"<p style=""font-size:50px"">You Lose!
No points this round.</p>",,,,,,,,,,,,,,,,,,,,,,,,,,,,
95,0,,html-keyboard-response,95,361249,0.0-4.13-4.13,x93rz45vuyc,2022-09-19 13:29:30.668,5d1a69d8f97a18001977e0d7,1,37,35,22,20,45,Male,,,,,,1.0,learning,13.0,B,,black,,moons,,,,B,black,moons,,0.0,1.0,1,left,615.5,3.0,0.0,0.0,,,
96,0,,html-keyboard-response,96,362763,0.0-4.14-0.14,x93rz45vuyc,2022-09-19 13:29:30.668,5d1a69d8f97a18001977e0d7,1,37,35,22,20,45,Male,,,"<img src=""static/images/cards/stack_of_red_stars.svg"" width=""175px"" height=""250px""></img>",,,,,,,,,,,,,,,,,,,,,,,,,,,,
97,0,,html-keyboard-response,97,363961,0.0-4.14-1.14,x93rz45vuyc,2022-09-19 13:29:30.668,5d1a69d8f97a18001977e0d7,1,37,35,22,20,45,Male,693.6999999881,,"
  <table>
  <tr height=300>
    <td width=300 height=300><img src=""static/images/cards/back_of_red_stars.svg"" width=""175px"" height=""250px""></img></td>
    <td width=300 height=300><img src=""static/images/cards/back_of_red_stars.svg"" width=""175px"" height=""250px""></img></td>
  </tr>
  <tr height=200>
    <td width=300><img src=""static/images/keys/z.svg"" width=""35%"" height=""75%""></img></td>
    <td width=300><img src=""static/images/keys/m.svg"" width=""35%"" height=""75%""></img></td>
  </tr>
</table>
  ",77.0,1.0,,,,,,,,,,,,,,,,,,,,,,,,,,
98,0,,html-keyboard-response,98,365471,0.0-4.14-2.14,x93rz45vuyc,2022-09-19 13:29:30.668,5d1a69d8f97a18001977e0d7,1,37,35,22,20,45,Male,,,"
  <table>
  <tr height=300>
    <td width=300 height=300><img src=""static/images/cards/back_of_red_stars.svg"" width=""175px"" height=""250px""></img></td>
    <td width=300 height=300><img src=""static/images/cards/3_of_red_stars.svg"" width=""175px"" height=""250px""></img></td>
  </tr>
  <tr height=200>
    <td width=300><img src=""static/images/keys/z.svg"" width=""35%"" height=""75%""></img></td>
    <td width=300><img src=""static/images/keys/m.svg"" width=""35%"" height=""75%""></img></td>
  </tr>
</table>
  ",,,,,,,,,,,,,,,,,,,,,,,,,,,,
99,0,,html-keyboard-response,99,366973,0.0-4.14-3.14,x93rz45vuyc,2022-09-19 13:29:30.668,5d1a69d8f97a18001977e0d7,1,37,35,22,20,45,Male,,,"<p style=""font-size:50px"">You win!
+10 points this round!</p>",,,,,,,,,,,,,,,,,,,,,,,,,,,,
100,0,,html-keyboard-response,100,367483,0.0-4.14-4.14,x93rz45vuyc,2022-09-19 13:29:30.668,5d1a69d8f97a18001977e0d7,1,37,35,22,20,45,Male,,,,,,1.0,learning,14.0,C,,red,,stars,,,,C,red,stars,,1.0,0.0,NA,right,693.6999999881,3.0,0.0,1.0,,,
101,0,,html-keyboard-response,101,368996,0.0-4.15-0.15,x93rz45vuyc,2022-09-19 13:29:30.668,5d1a69d8f97a18001977e0d7,1,37,35,22,20,45,Male,,,"<img src=""static/images/cards/stack_of_black_stars.svg"" width=""175px"" height=""250px""></img>",,,,,,,,,,,,,,,,,,,,,,,,,,,,
102,0,,html-keyboard-response,102,370098,0.0-4.15-1.15,x93rz45vuyc,2022-09-19 13:29:30.668,5d1a69d8f97a18001977e0d7,1,37,35,22,20,45,Male,585.6999999881,,"
  <table>
  <tr height=300>
    <td width=300 height=300><img src=""static/images/cards/back_of_black_stars.svg"" width=""175px"" height=""250px""></img></td>
    <td width=300 height=300><img src=""static/images/cards/back_of_black_stars.svg"" width=""175px"" height=""250px""></img></td>
  </tr>
  <tr height=200>
    <td width=300><img src=""static/images/keys/z.svg"" width=""35%"" height=""75%""></img></td>
    <td width=300></td>
  </tr>
</table>
  ",90.0,1.0,,,,,,,,,,,,,,,,,,,,,,,,,,
103,0,,html-keyboard-response,103,371605,0.0-4.15-2.15,x93rz45vuyc,2022-09-19 13:29:30.668,5d1a69d8f97a18001977e0d7,1,37,35,22,20,45,Male,,,"
  <table>
  <tr height=300>
    <td width=300 height=300><img src=""static/images/cards/2_of_black_stars.svg"" width=""175px"" height=""250px""></img></td>
    <td width=300 height=300><img src=""static/images/cards/back_of_black_stars.svg"" width=""175px"" height=""250px""></img></td>
  </tr>
  <tr height=200>
    <td width=300><img src=""static/images/keys/z.svg"" width=""35%"" height=""75%""></img></td>
    <td width=300></td>
  </tr>
</table>
  ",,,,,,,,,,,,,,,,,,,,,,,,,,,,
104,0,,html-keyboard-response,104,373122,0.0-4.15-3.15,x93rz45vuyc,2022-09-19 13:29:30.668,5d1a69d8f97a18001977e0d7,1,37,35,22,20,45,Male,,,"<p style=""font-size:50px"">You win!
+10 points this round!</p>",,,,,,,,,,,,,,,,,,,,,,,,,,,,
105,0,,html-keyboard-response,105,373633,0.0-4.15-4.15,x93rz45vuyc,2022-09-19 13:29:30.668,5d1a69d8f97a18001977e0d7,1,37,35,22,20,45,Male,,,,,,1.0,learning,15.0,D,,black,,stars,,,,D,black,stars,,0.0,0.0,1,left,585.6999999881,2.0,0.0,1.0,,,
106,0,,html-keyboard-response,106,375144,0.0-4.16-0.16,x93rz45vuyc,2022-09-19 13:29:30.668,5d1a69d8f97a18001977e0d7,1,37,35,22,20,45,Male,,,"<img src=""static/images/cards/stack_of_red_bolts.svg"" width=""175px"" height=""250px""></img>",,,,,,,,,,,,,,,,,,,,,,,,,,,,
107,0,,html-keyboard-response,107,376157,0.0-4.16-1.16,x93rz45vuyc,2022-09-19 13:29:30.668,5d1a69d8f97a18001977e0d7,1,37,35,22,20,45,Male,507.1000000238,,"
  <table>
  <tr height=300>
    <td width=300 height=300><img src=""static/images/cards/back_of_red_bolts.svg"" width=""175px"" height=""250px""></img></td>
    <td width=300 height=300><img src=""static/images/cards/back_of_red_bolts.svg"" width=""175px"" height=""250px""></img></td>
  </tr>
  <tr height=200>
    <td width=300><img src=""static/images/keys/z.svg"" width=""35%"" height=""75%""></img></td>
    <td width=300><img src=""static/images/keys/m.svg"" width=""35%"" height=""75%""></img></td>
  </tr>
</table>
  ",77.0,1.0,,,,,,,,,,,,,,,,,,,,,,,,,,
108,0,,html-keyboard-response,108,377671,0.0-4.16-2.16,x93rz45vuyc,2022-09-19 13:29:30.668,5d1a69d8f97a18001977e0d7,1,37,35,22,20,45,Male,,,"
  <table>
  <tr height=300>
    <td width=300 height=300><img src=""static/images/cards/back_of_red_bolts.svg"" width=""175px"" height=""250px""></img></td>
    <td width=300 height=300><img src=""static/images/cards/2_of_red_bolts.svg"" width=""175px"" height=""250px""></img></td>
  </tr>
  <tr height=200>
    <td width=300><img src=""static/images/keys/z.svg"" width=""35%"" height=""75%""></img></td>
    <td width=300><img src=""static/images/keys/m.svg"" width=""35%"" height=""75%""></img></td>
  </tr>
</table>
  ",,,,,,,,,,,,,,,,,,,,,,,,,,,,
109,0,,html-keyboard-response,109,379188,0.0-4.16-3.16,x93rz45vuyc,2022-09-19 13:29:30.668,5d1a69d8f97a18001977e0d7,1,37,35,22,20,45,Male,,,"<p style=""font-size:50px"">You win!
+10 points this round!</p>",,,,,,,,,,,,,,,,,,,,,,,,,,,,
110,0,,html-keyboard-response,110,379698,0.0-4.16-4.16,x93rz45vuyc,2022-09-19 13:29:30.668,5d1a69d8f97a18001977e0d7,1,37,35,22,20,45,Male,,,,,,1.0,learning,16.0,Xc,,red,,bolts,,,,Xc,red,bolts,,1.0,0.0,NA,right,507.1000000238,2.0,0.0,1.0,,,
111,0,,html-keyboard-response,111,381210,0.0-4.17-0.17,x93rz45vuyc,2022-09-19 13:29:30.668,5d1a69d8f97a18001977e0d7,1,37,35,22,20,45,Male,,,"<img src=""static/images/cards/stack_of_black_bolts.svg"" width=""175px"" height=""250px""></img>",,,,,,,,,,,,,,,,,,,,,,,,,,,,
112,0,,html-keyboard-response,112,382338,0.0-4.17-1.17,x93rz45vuyc,2022-09-19 13:29:30.668,5d1a69d8f97a18001977e0d7,1,37,35,22,20,45,Male,622.6999999881,,"
  <table>
  <tr height=300>
    <td width=300 height=300><img src=""static/images/cards/back_of_black_bolts.svg"" width=""175px"" height=""250px""></img></td>
    <td width=300 height=300><img src=""static/images/cards/back_of_black_bolts.svg"" width=""175px"" height=""250px""></img></td>
  </tr>
  <tr height=200>
    <td width=300><img src=""static/images/keys/z.svg"" width=""35%"" height=""75%""></img></td>
    <td width=300></td>
  </tr>
</table>
  ",90.0,1.0,,,,,,,,,,,,,,,,,,,,,,,,,,
113,0,,html-keyboard-response,113,383850,0.0-4.17-2.17,x93rz45vuyc,2022-09-19 13:29:30.668,5d1a69d8f97a18001977e0d7,1,37,35,22,20,45,Male,,,"
  <table>
  <tr height=300>
    <td width=300 height=300><img src=""static/images/cards/10_of_black_bolts.svg"" width=""175px"" height=""250px""></img></td>
    <td width=300 height=300><img src=""static/images/cards/back_of_black_bolts.svg"" width=""175px"" height=""250px""></img></td>
  </tr>
  <tr height=200>
    <td width=300><img src=""static/images/keys/z.svg"" width=""35%"" height=""75%""></img></td>
    <td width=300></td>
  </tr>
</table>
  ",,,,,,,,,,,,,,,,,,,,,,,,,,,,
114,0,,html-keyboard-response,114,385365,0.0-4.17-3.17,x93rz45vuyc,2022-09-19 13:29:30.668,5d1a69d8f97a18001977e0d7,1,37,35,22,20,45,Male,,,"<p style=""font-size:50px"">You win!
+10 points this round!</p>",,,,,,,,,,,,,,,,,,,,,,,,,,,,
115,0,,html-keyboard-response,115,385880,0.0-4.17-4.17,x93rz45vuyc,2022-09-19 13:29:30.668,5d1a69d8f97a18001977e0d7,1,37,35,22,20,45,Male,,,,,,1.0,learning,17.0,Xnc,,black,,bolts,,,,Xnc,black,bolts,,0.0,0.0,1,left,622.6999999881,10.0,1.0,1.0,,,
116,0,,html-keyboard-response,116,387393,0.0-4.18-0.18,x93rz45vuyc,2022-09-19 13:29:30.668,5d1a69d8f97a18001977e0d7,1,37,35,22,20,45,Male,,,"<img src=""static/images/cards/stack_of_red_moons.svg"" width=""175px"" height=""250px""></img>",,,,,,,,,,,,,,,,,,,,,,,,,,,,
117,0,,html-keyboard-response,117,388640,0.0-4.18-1.18,x93rz45vuyc,2022-09-19 13:29:30.668,5d1a69d8f97a18001977e0d7,1,37,35,22,20,45,Male,740.3000000119,,"
  <table>
  <tr height=300>
    <td width=300 height=300><img src=""static/images/cards/back_of_red_moons.svg"" width=""175px"" height=""250px""></img></td>
    <td width=300 height=300><img src=""static/images/cards/back_of_red_moons.svg"" width=""175px"" height=""250px""></img></td>
  </tr>
  <tr height=200>
    <td width=300><img src=""static/images/keys/z.svg"" width=""35%"" height=""75%""></img></td>
    <td width=300><img src=""static/images/keys/m.svg"" width=""35%"" height=""75%""></img></td>
  </tr>
</table>
  ",90.0,1.0,,,,,,,,,,,,,,,,,,,,,,,,,,
118,0,,html-keyboard-response,118,390152,0.0-4.18-2.18,x93rz45vuyc,2022-09-19 13:29:30.668,5d1a69d8f97a18001977e0d7,1,37,35,22,20,45,Male,,,"
  <table>
  <tr height=300>
    <td width=300 height=300><img src=""static/images/cards/3_of_red_moons.svg"" width=""175px"" height=""250px""></img></td>
    <td width=300 height=300><img src=""static/images/cards/back_of_red_moons.svg"" width=""175px"" height=""250px""></img></td>
  </tr>
  <tr height=200>
    <td width=300><img src=""static/images/keys/z.svg"" width=""35%"" height=""75%""></img></td>
    <td width=300><img src=""static/images/keys/m.svg"" width=""35%"" height=""75%""></img></td>
  </tr>
</table>
  ",,,,,,,,,,,,,,,,,,,,,,,,,,,,
119,0,,html-keyboard-response,119,391671,0.0-4.18-3.18,x93rz45vuyc,2022-09-19 13:29:30.668,5d1a69d8f97a18001977e0d7,1,37,35,22,20,45,Male,,,"<p style=""font-size:50px"">You Lose!
No points this round.</p>",,,,,,,,,,,,,,,,,,,,,,,,,,,,
120,0,,html-keyboard-response,120,392181,0.0-4.18-4.18,x93rz45vuyc,2022-09-19 13:29:30.668,5d1a69d8f97a18001977e0d7,1,37,35,22,20,45,Male,,,,,,1.0,learning,18.0,A,,red,,moons,,,,A,red,moons,,1.0,1.0,NA,left,740.3000000119,3.0,0.0,0.0,,,
121,0,,html-keyboard-response,121,393693,0.0-4.19-0.19,x93rz45vuyc,2022-09-19 13:29:30.668,5d1a69d8f97a18001977e0d7,1,37,35,22,20,45,Male,,,"<img src=""static/images/cards/stack_of_black_moons.svg"" width=""175px"" height=""250px""></img>",,,,,,,,,,,,,,,,,,,,,,,,,,,,
122,0,,html-keyboard-response,122,394744,0.0-4.19-1.19,x93rz45vuyc,2022-09-19 13:29:30.668,5d1a69d8f97a18001977e0d7,1,37,35,22,20,45,Male,545.6000000238,,"
  <table>
  <tr height=300>
    <td width=300 height=300><img src=""static/images/cards/back_of_black_moons.svg"" width=""175px"" height=""250px""></img></td>
    <td width=300 height=300><img src=""static/images/cards/back_of_black_moons.svg"" width=""175px"" height=""250px""></img></td>
  </tr>
  <tr height=200>
    <td width=300><img src=""static/images/keys/z.svg"" width=""35%"" height=""75%""></img></td>
    <td width=300></td>
  </tr>
</table>
  ",90.0,1.0,,,,,,,,,,,,,,,,,,,,,,,,,,
123,0,,html-keyboard-response,123,396252,0.0-4.19-2.19,x93rz45vuyc,2022-09-19 13:29:30.668,5d1a69d8f97a18001977e0d7,1,37,35,22,20,45,Male,,,"
  <table>
  <tr height=300>
    <td width=300 height=300><img src=""static/images/cards/2_of_black_moons.svg"" width=""175px"" height=""250px""></img></td>
    <td width=300 height=300><img src=""static/images/cards/back_of_black_moons.svg"" width=""175px"" height=""250px""></img></td>
  </tr>
  <tr height=200>
    <td width=300><img src=""static/images/keys/z.svg"" width=""35%"" height=""75%""></img></td>
    <td width=300></td>
  </tr>
</table>
  ",,,,,,,,,,,,,,,,,,,,,,,,,,,,
124,0,,html-keyboard-response,124,397770,0.0-4.19-3.19,x93rz45vuyc,2022-09-19 13:29:30.668,5d1a69d8f97a18001977e0d7,1,37,35,22,20,45,Male,,,"<p style=""font-size:50px"">You Lose!
No points this round.</p>",,,,,,,,,,,,,,,,,,,,,,,,,,,,
125,0,,html-keyboard-response,125,398280,0.0-4.19-4.19,x93rz45vuyc,2022-09-19 13:29:30.668,5d1a69d8f97a18001977e0d7,1,37,35,22,20,45,Male,,,,,,1.0,learning,19.0,B,,black,,moons,,,,B,black,moons,,0.0,1.0,1,left,545.6000000238,2.0,0.0,0.0,,,
126,0,,html-keyboard-response,126,399788,0.0-4.20-0.20,x93rz45vuyc,2022-09-19 13:29:30.668,5d1a69d8f97a18001977e0d7,1,37,35,22,20,45,Male,,,"<img src=""static/images/cards/stack_of_red_stars.svg"" width=""175px"" height=""250px""></img>",,,,,,,,,,,,,,,,,,,,,,,,,,,,
127,0,,html-keyboard-response,127,400996,0.0-4.20-1.20,x93rz45vuyc,2022-09-19 13:29:30.668,5d1a69d8f97a18001977e0d7,1,37,35,22,20,45,Male,700.0999999642,,"
  <table>
  <tr height=300>
    <td width=300 height=300><img src=""static/images/cards/back_of_red_stars.svg"" width=""175px"" height=""250px""></img></td>
    <td width=300 height=300><img src=""static/images/cards/back_of_red_stars.svg"" width=""175px"" height=""250px""></img></td>
  </tr>
  <tr height=200>
    <td width=300><img src=""static/images/keys/z.svg"" width=""35%"" height=""75%""></img></td>
    <td width=300><img src=""static/images/keys/m.svg"" width=""35%"" height=""75%""></img></td>
  </tr>
</table>
  ",77.0,1.0,,,,,,,,,,,,,,,,,,,,,,,,,,
128,0,,html-keyboard-response,128,402501,0.0-4.20-2.20,x93rz45vuyc,2022-09-19 13:29:30.668,5d1a69d8f97a18001977e0d7,1,37,35,22,20,45,Male,,,"
  <table>
  <tr height=300>
    <td width=300 height=300><img src=""static/images/cards/back_of_red_stars.svg"" width=""175px"" height=""250px""></img></td>
    <td width=300 height=300><img src=""static/images/cards/6_of_red_stars.svg"" width=""175px"" height=""250px""></img></td>
  </tr>
  <tr height=200>
    <td width=300><img src=""static/images/keys/z.svg"" width=""35%"" height=""75%""></img></td>
    <td width=300><img src=""static/images/keys/m.svg"" width=""35%"" height=""75%""></img></td>
  </tr>
</table>
  ",,,,,,,,,,,,,,,,,,,,,,,,,,,,
129,0,,html-keyboard-response,129,404015,0.0-4.20-3.20,x93rz45vuyc,2022-09-19 13:29:30.668,5d1a69d8f97a18001977e0d7,1,37,35,22,20,45,Male,,,"<p style=""font-size:50px"">You win!
+10 points this round!</p>",,,,,,,,,,,,,,,,,,,,,,,,,,,,
130,0,,html-keyboard-response,130,404536,0.0-4.20-4.20,x93rz45vuyc,2022-09-19 13:29:30.668,5d1a69d8f97a18001977e0d7,1,37,35,22,20,45,Male,,,,,,1.0,learning,20.0,C,,red,,stars,,,,C,red,stars,,1.0,0.0,NA,right,700.0999999642,6.0,1.0,1.0,,,
131,0,,html-keyboard-response,131,406041,0.0-4.21-0.21,x93rz45vuyc,2022-09-19 13:29:30.668,5d1a69d8f97a18001977e0d7,1,37,35,22,20,45,Male,,,"<img src=""static/images/cards/stack_of_black_stars.svg"" width=""175px"" height=""250px""></img>",,,,,,,,,,,,,,,,,,,,,,,,,,,,
132,0,,html-keyboard-response,132,407113,0.0-4.21-1.21,x93rz45vuyc,2022-09-19 13:29:30.668,5d1a69d8f97a18001977e0d7,1,37,35,22,20,45,Male,566.1000000238,,"
  <table>
  <tr height=300>
    <td width=300 height=300><img src=""static/images/cards/back_of_black_stars.svg"" width=""175px"" height=""250px""></img></td>
    <td width=300 height=300><img src=""static/images/cards/back_of_black_stars.svg"" width=""175px"" height=""250px""></img></td>
  </tr>
  <tr height=200>
    <td width=300><img src=""static/images/keys/z.svg"" width=""35%"" height=""75%""></img></td>
    <td width=300></td>
  </tr>
</table>
  ",90.0,1.0,,,,,,,,,,,,,,,,,,,,,,,,,,
133,0,,html-keyboard-response,133,408617,0.0-4.21-2.21,x93rz45vuyc,2022-09-19 13:29:30.668,5d1a69d8f97a18001977e0d7,1,37,35,22,20,45,Male,,,"
  <table>
  <tr height=300>
    <td width=300 height=300><img src=""static/images/cards/8_of_black_stars.svg"" width=""175px"" height=""250px""></img></td>
    <td width=300 height=300><img src=""static/images/cards/back_of_black_stars.svg"" width=""175px"" height=""250px""></img></td>
  </tr>
  <tr height=200>
    <td width=300><img src=""static/images/keys/z.svg"" width=""35%"" height=""75%""></img></td>
    <td width=300></td>
  </tr>
</table>
  ",,,,,,,,,,,,,,,,,,,,,,,,,,,,
134,0,,html-keyboard-response,134,410139,0.0-4.21-3.21,x93rz45vuyc,2022-09-19 13:29:30.668,5d1a69d8f97a18001977e0d7,1,37,35,22,20,45,Male,,,"<p style=""font-size:50px"">You Lose!
No points this round.</p>",,,,,,,,,,,,,,,,,,,,,,,,,,,,
135,0,,html-keyboard-response,135,410660,0.0-4.21-4.21,x93rz45vuyc,2022-09-19 13:29:30.668,5d1a69d8f97a18001977e0d7,1,37,35,22,20,45,Male,,,,,,1.0,learning,21.0,D,,black,,stars,,,,D,black,stars,,0.0,0.0,1,left,566.1000000238,8.0,1.0,0.0,,,
136,0,,html-keyboard-response,136,412174,0.0-4.22-0.22,x93rz45vuyc,2022-09-19 13:29:30.668,5d1a69d8f97a18001977e0d7,1,37,35,22,20,45,Male,,,"<img src=""static/images/cards/stack_of_red_bolts.svg"" width=""175px"" height=""250px""></img>",,,,,,,,,,,,,,,,,,,,,,,,,,,,
137,0,,html-keyboard-response,137,413238,0.0-4.22-1.22,x93rz45vuyc,2022-09-19 13:29:30.668,5d1a69d8f97a18001977e0d7,1,37,35,22,20,45,Male,558.0,,"
  <table>
  <tr height=300>
    <td width=300 height=300><img src=""static/images/cards/back_of_red_bolts.svg"" width=""175px"" height=""250px""></img></td>
    <td width=300 height=300><img src=""static/images/cards/back_of_red_bolts.svg"" width=""175px"" height=""250px""></img></td>
  </tr>
  <tr height=200>
    <td width=300><img src=""static/images/keys/z.svg"" width=""35%"" height=""75%""></img></td>
    <td width=300><img src=""static/images/keys/m.svg"" width=""35%"" height=""75%""></img></td>
  </tr>
</table>
  ",77.0,1.0,,,,,,,,,,,,,,,,,,,,,,,,,,
138,0,,html-keyboard-response,138,414745,0.0-4.22-2.22,x93rz45vuyc,2022-09-19 13:29:30.668,5d1a69d8f97a18001977e0d7,1,37,35,22,20,45,Male,,,"
  <table>
  <tr height=300>
    <td width=300 height=300><img src=""static/images/cards/back_of_red_bolts.svg"" width=""175px"" height=""250px""></img></td>
    <td width=300 height=300><img src=""static/images/cards/6_of_red_bolts.svg"" width=""175px"" height=""250px""></img></td>
  </tr>
  <tr height=200>
    <td width=300><img src=""static/images/keys/z.svg"" width=""35%"" height=""75%""></img></td>
    <td width=300><img src=""static/images/keys/m.svg"" width=""35%"" height=""75%""></img></td>
  </tr>
</table>
  ",,,,,,,,,,,,,,,,,,,,,,,,,,,,
139,0,,html-keyboard-response,139,416252,0.0-4.22-3.22,x93rz45vuyc,2022-09-19 13:29:30.668,5d1a69d8f97a18001977e0d7,1,37,35,22,20,45,Male,,,"<p style=""font-size:50px"">You win!
+10 points this round!</p>",,,,,,,,,,,,,,,,,,,,,,,,,,,,
140,0,,html-keyboard-response,140,416761,0.0-4.22-4.22,x93rz45vuyc,2022-09-19 13:29:30.668,5d1a69d8f97a18001977e0d7,1,37,35,22,20,45,Male,,,,,,1.0,learning,22.0,Xc,,red,,bolts,,,,Xc,red,bolts,,1.0,0.0,NA,right,558.0,6.0,1.0,1.0,,,
141,0,,html-keyboard-response,141,418274,0.0-4.23-0.23,x93rz45vuyc,2022-09-19 13:29:30.668,5d1a69d8f97a18001977e0d7,1,37,35,22,20,45,Male,,,"<img src=""static/images/cards/stack_of_black_bolts.svg"" width=""175px"" height=""250px""></img>",,,,,,,,,,,,,,,,,,,,,,,,,,,,
142,0,,html-keyboard-response,142,419398,0.0-4.23-1.23,x93rz45vuyc,2022-09-19 13:29:30.668,5d1a69d8f97a18001977e0d7,1,37,35,22,20,45,Male,618.5999999642,,"
  <table>
  <tr height=300>
    <td width=300 height=300><img src=""static/images/cards/back_of_black_bolts.svg"" width=""175px"" height=""250px""></img></td>
    <td width=300 height=300><img src=""static/images/cards/back_of_black_bolts.svg"" width=""175px"" height=""250px""></img></td>
  </tr>
  <tr height=200>
    <td width=300></td>
    <td width=300><img src=""static/images/keys/m.svg"" width=""35%"" height=""75%""></img></td>
  </tr>
</table>
  ",77.0,1.0,,,,,,,,,,,,,,,,,,,,,,,,,,
143,0,,html-keyboard-response,143,420901,0.0-4.23-2.23,x93rz45vuyc,2022-09-19 13:29:30.668,5d1a69d8f97a18001977e0d7,1,37,35,22,20,45,Male,,,"
  <table>
  <tr height=300>
    <td width=300 height=300><img src=""static/images/cards/back_of_black_bolts.svg"" width=""175px"" height=""250px""></img></td>
    <td width=300 height=300><img src=""static/images/cards/7_of_black_bolts.svg"" width=""175px"" height=""250px""></img></td>
  </tr>
  <tr height=200>
    <td width=300></td>
    <td width=300><img src=""static/images/keys/m.svg"" width=""35%"" height=""75%""></img></td>
  </tr>
</table>
  ",,,,,,,,,,,,,,,,,,,,,,,,,,,,
144,0,,html-keyboard-response,144,422418,0.0-4.23-3.23,x93rz45vuyc,2022-09-19 13:29:30.668,5d1a69d8f97a18001977e0d7,1,37,35,22,20,45,Male,,,"<p style=""font-size:50px"">You win!
+10 points this round!</p>",,,,,,,,,,,,,,,,,,,,,,,,,,,,
145,0,,html-keyboard-response,145,422927,0.0-4.23-4.23,x93rz45vuyc,2022-09-19 13:29:30.668,5d1a69d8f97a18001977e0d7,1,37,35,22,20,45,Male,,,,,,1.0,learning,23.0,Xnc,,black,,bolts,,,,Xnc,black,bolts,,0.0,0.0,0,right,618.5999999642,7.0,1.0,1.0,,,
146,0,,call-function,146,422940,0.0-5.0,x93rz45vuyc,2022-09-19 13:29:30.668,5d1a69d8f97a18001977e0d7,1,37,35,22,20,45,Male,,,,,,,,,,,,,,,,,,,,,,,,,,,,,,,
147,0,,image-keyboard-response,147,431785,0.0-6.0-0.0,x93rz45vuyc,2022-09-19 13:29:30.668,5d1a69d8f97a18001977e0d7,1,37,35,22,20,45,Male,8844.8000000119,,static/images/instructions_CB_1/Slide20.png,39.0,,,,,,,,,,,,,,,,,,,,,,,,,,,
148,0,,image-keyboard-response,148,447861,0.0-6.1-0.1,x93rz45vuyc,2022-09-19 13:29:30.668,5d1a69d8f97a18001977e0d7,1,37,35,22,20,45,Male,16081.3000000119,,static/images/instructions_CB_1/Slide21.png,39.0,,,,,,,,,,,,,,,,,,,,,,,,,,,
149,0,,image-keyboard-response,149,458232,0.0-6.2-0.2,x93rz45vuyc,2022-09-19 13:29:30.668,5d1a69d8f97a18001977e0d7,1,37,35,22,20,45,Male,10369.5,,static/images/instructions_CB_1/Slide22.png,39.0,,,,,,,,,,,,,,,,,,,,,,,,,,,
150,0,,image-keyboard-response,150,484380,0.0-6.3-0.3,x93rz45vuyc,2022-09-19 13:29:30.668,5d1a69d8f97a18001977e0d7,1,37,35,22,20,45,Male,26147.0,,static/images/instructions_CB_1/Slide23.png,39.0,,,,,,,,,,,,,,,,,,,,,,,,,,,
151,0,,image-keyboard-response,151,487244,0.0-6.4-0.4,x93rz45vuyc,2022-09-19 13:29:30.668,5d1a69d8f97a18001977e0d7,1,37,35,22,20,45,Male,2862.2000000477,,static/images/instructions_CB_1/Slide24.png,39.0,,,,,,,,,,,,,,,,,,,,,,,,,,,
152,0,,html-keyboard-response,152,490498,0.0-7.0-0.0,x93rz45vuyc,2022-09-19 13:29:30.668,5d1a69d8f97a18001977e0d7,1,37,35,22,20,45,Male,3250.9000000358,,"
  <table>
  <tr height=300>
    <td width=300 height=300><img src=""static/images/cards/stack_of_red_stars.svg"" width=""175px"" height=""250px""></img></td>
    <td width=300 height=300><img src=""static/images/cards/stack_of_black_moons.svg"" width=""175px"" height=""250px""></img></td>
  </tr>
  <tr height=200>
    <td width=300><img src=""static/images/keys/w.svg"" width=""35%"" height=""75%""></img></td>
    <td width=300><img src=""static/images/keys/o.svg"" width=""35%"" height=""75%""></img></td>
  </tr>
</table>
  ",79.0,1.0,,,,,,,,,,,,,,,,,,,,,,,,,,
153,0,,html-keyboard-response,153,491765,0.0-7.0-1.0,x93rz45vuyc,2022-09-19 13:29:30.668,5d1a69d8f97a18001977e0d7,1,37,35,22,20,45,Male,752.3999999762,,"
  <table>
  <tr height=300>
    <td width=300 height=300><img src=""static/images/cards/back_of_black_moons.svg"" width=""175px"" height=""250px""></img></td>
    <td width=300 height=300><img src=""static/images/cards/back_of_black_moons.svg"" width=""175px"" height=""250px""></img></td>
  </tr>
  <tr height=200>
    <td width=300><img src=""static/images/keys/z.svg"" width=""35%"" height=""75%""></img></td>
    <td width=300></td>
  </tr>
</table>
  ",90.0,1.0,,,,,,,,,,,,,,,,,,,,,,,,,,
154,0,,html-keyboard-response,154,493280,0.0-7.0-2.0,x93rz45vuyc,2022-09-19 13:29:30.668,5d1a69d8f97a18001977e0d7,1,37,35,22,20,45,Male,,,"
  <table>
  <tr height=300>
    <td width=300 height=300><img src=""static/images/cards/4_of_black_moons.svg"" width=""175px"" height=""250px""></img></td>
    <td width=300 height=300><img src=""static/images/cards/back_of_black_moons.svg"" width=""175px"" height=""250px""></img></td>
  </tr>
  <tr height=200>
    <td width=300><img src=""static/images/keys/z.svg"" width=""35%"" height=""75%""></img></td>
    <td width=300></td>
  </tr>
</table>
  ",,,,,,,,,,,,,,,,,,,,,,,,,,,,
155,0,,html-keyboard-response,155,494782,0.0-7.0-3.0,x93rz45vuyc,2022-09-19 13:29:30.668,5d1a69d8f97a18001977e0d7,1,37,35,22,20,45,Male,,,"<p style=""font-size:50px"">You Lose!
No points this round.</p>",,,,,,,,,,,,,,,,,,,,,,,,,,,,
156,0,,html-keyboard-response,156,495291,0.0-7.0-4.0,x93rz45vuyc,2022-09-19 13:29:30.668,5d1a69d8f97a18001977e0d7,1,37,35,22,20,45,Male,,,,,,1.0,choice,0.0,B,C,red,black,stars,moons,C,B,B,black,moons,3250.9000000358,0.0,1.0,1,left,752.3999999762,4.0,0.0,0.0,,,
157,0,,html-keyboard-response,157,498189,0.0-7.1-0.1,x93rz45vuyc,2022-09-19 13:29:30.668,5d1a69d8f97a18001977e0d7,1,37,35,22,20,45,Male,2894.8000000119,,"
  <table>
  <tr height=300>
    <td width=300 height=300><img src=""static/images/cards/stack_of_red_stars.svg"" width=""175px"" height=""250px""></img></td>
    <td width=300 height=300><img src=""static/images/cards/stack_of_black_stars.svg"" width=""175px"" height=""250px""></img></td>
  </tr>
  <tr height=200>
    <td width=300><img src=""static/images/keys/w.svg"" width=""35%"" height=""75%""></img></td>
    <td width=300><img src=""static/images/keys/o.svg"" width=""35%"" height=""75%""></img></td>
  </tr>
</table>
  ",87.0,2.0,,,,,,,,,,,,,,,,,,,,,,,,,,
158,0,,html-keyboard-response,158,499875,0.0-7.1-1.1,x93rz45vuyc,2022-09-19 13:29:30.668,5d1a69d8f97a18001977e0d7,1,37,35,22,20,45,Male,1181.0,,"
  <table>
  <tr height=300>
    <td width=300 height=300><img src=""static/images/cards/back_of_red_stars.svg"" width=""175px"" height=""250px""></img></td>
    <td width=300 height=300><img src=""static/images/cards/back_of_red_stars.svg"" width=""175px"" height=""250px""></img></td>
  </tr>
  <tr height=200>
    <td width=300><img src=""static/images/keys/z.svg"" width=""35%"" height=""75%""></img></td>
    <td width=300><img src=""static/images/keys/m.svg"" width=""35%"" height=""75%""></img></td>
  </tr>
</table>
  ",90.0,1.0,,,,,,,,,,,,,,,,,,,,,,,,,,
159,0,,html-keyboard-response,159,501383,0.0-7.1-2.1,x93rz45vuyc,2022-09-19 13:29:30.668,5d1a69d8f97a18001977e0d7,1,37,35,22,20,45,Male,,,"
  <table>
  <tr height=300>
    <td width=300 height=300><img src=""static/images/cards/6_of_red_stars.svg"" width=""175px"" height=""250px""></img></td>
    <td width=300 height=300><img src=""static/images/cards/back_of_red_stars.svg"" width=""175px"" height=""250px""></img></td>
  </tr>
  <tr height=200>
    <td width=300><img src=""static/images/keys/z.svg"" width=""35%"" height=""75%""></img></td>
    <td width=300><img src=""static/images/keys/m.svg"" width=""35%"" height=""75%""></img></td>
  </tr>
</table>
  ",,,,,,,,,,,,,,,,,,,,,,,,,,,,
160,0,,html-keyboard-response,160,502887,0.0-7.1-3.1,x93rz45vuyc,2022-09-19 13:29:30.668,5d1a69d8f97a18001977e0d7,1,37,35,22,20,45,Male,,,"<p style=""font-size:50px"">You Lose!
No points this round.</p>",,,,,,,,,,,,,,,,,,,,,,,,,,,,
161,0,,html-keyboard-response,161,503396,0.0-7.1-4.1,x93rz45vuyc,2022-09-19 13:29:30.668,5d1a69d8f97a18001977e0d7,1,37,35,22,20,45,Male,,,,,,1.0,choice,1.0,C,D,red,black,stars,stars,C,D,C,red,stars,2894.8000000119,1.0,0.0,NA,left,1181.0,6.0,1.0,0.0,,,
162,0,,html-keyboard-response,162,505152,0.0-7.2-0.2,x93rz45vuyc,2022-09-19 13:29:30.668,5d1a69d8f97a18001977e0d7,1,37,35,22,20,45,Male,1754.1000000238,,"
  <table>
  <tr height=300>
    <td width=300 height=300><img src=""static/images/cards/stack_of_red_moons.svg"" width=""175px"" height=""250px""></img></td>
    <td width=300 height=300><img src=""static/images/cards/stack_of_black_stars.svg"" width=""175px"" height=""250px""></img></td>
  </tr>
  <tr height=200>
    <td width=300><img src=""static/images/keys/w.svg"" width=""35%"" height=""75%""></img></td>
    <td width=300><img src=""static/images/keys/o.svg"" width=""35%"" height=""75%""></img></td>
  </tr>
</table>
  ",79.0,1.0,,,,,,,,,,,,,,,,,,,,,,,,,,
163,0,,html-keyboard-response,163,507094,0.0-7.2-1.2,x93rz45vuyc,2022-09-19 13:29:30.668,5d1a69d8f97a18001977e0d7,1,37,35,22,20,45,Male,1431.6000000238,,"
  <table>
  <tr height=300>
    <td width=300 height=300><img src=""static/images/cards/back_of_black_stars.svg"" width=""175px"" height=""250px""></img></td>
    <td width=300 height=300><img src=""static/images/cards/back_of_black_stars.svg"" width=""175px"" height=""250px""></img></td>
  </tr>
  <tr height=200>
    <td width=300></td>
    <td width=300><img src=""static/images/keys/m.svg"" width=""35%"" height=""75%""></img></td>
  </tr>
</table>
  ",77.0,1.0,,,,,,,,,,,,,,,,,,,,,,,,,,
164,0,,html-keyboard-response,164,508609,0.0-7.2-2.2,x93rz45vuyc,2022-09-19 13:29:30.668,5d1a69d8f97a18001977e0d7,1,37,35,22,20,45,Male,,,"
  <table>
  <tr height=300>
    <td width=300 height=300><img src=""static/images/cards/back_of_black_stars.svg"" width=""175px"" height=""250px""></img></td>
    <td width=300 height=300><img src=""static/images/cards/7_of_black_stars.svg"" width=""175px"" height=""250px""></img></td>
  </tr>
  <tr height=200>
    <td width=300></td>
    <td width=300><img src=""static/images/keys/m.svg"" width=""35%"" height=""75%""></img></td>
  </tr>
</table>
  ",,,,,,,,,,,,,,,,,,,,,,,,,,,,
165,0,,html-keyboard-response,165,510117,0.0-7.2-3.2,x93rz45vuyc,2022-09-19 13:29:30.668,5d1a69d8f97a18001977e0d7,1,37,35,22,20,45,Male,,,"<p style=""font-size:50px"">You win!
+10 points this round!</p>",,,,,,,,,,,,,,,,,,,,,,,,,,,,
166,0,,html-keyboard-response,166,510638,0.0-7.2-4.2,x93rz45vuyc,2022-09-19 13:29:30.668,5d1a69d8f97a18001977e0d7,1,37,35,22,20,45,Male,,,,,,1.0,choice,2.0,A,D,red,black,moons,stars,A,D,D,black,stars,1754.1000000238,0.0,0.0,0,right,1431.6000000238,7.0,1.0,1.0,,,
167,0,,html-keyboard-response,167,512346,0.0-7.3-0.3,x93rz45vuyc,2022-09-19 13:29:30.668,5d1a69d8f97a18001977e0d7,1,37,35,22,20,45,Male,1704.9000000358,,"
  <table>
  <tr height=300>
    <td width=300 height=300><img src=""static/images/cards/stack_of_black_stars.svg"" width=""175px"" height=""250px""></img></td>
    <td width=300 height=300><img src=""static/images/cards/stack_of_red_moons.svg"" width=""175px"" height=""250px""></img></td>
  </tr>
  <tr height=200>
    <td width=300><img src=""static/images/keys/w.svg"" width=""35%"" height=""75%""></img></td>
    <td width=300><img src=""static/images/keys/o.svg"" width=""35%"" height=""75%""></img></td>
  </tr>
</table>
  ",79.0,1.0,,,,,,,,,,,,,,,,,,,,,,,,,,
168,0,,html-keyboard-response,168,513578,0.0-7.3-1.3,x93rz45vuyc,2022-09-19 13:29:30.668,5d1a69d8f97a18001977e0d7,1,37,35,22,20,45,Male,721.3999999762,,"
  <table>
  <tr height=300>
    <td width=300 height=300><img src=""static/images/cards/back_of_red_moons.svg"" width=""175px"" height=""250px""></img></td>
    <td width=300 height=300><img src=""static/images/cards/back_of_red_moons.svg"" width=""175px"" height=""250px""></img></td>
  </tr>
  <tr height=200>
    <td width=300><img src=""static/images/keys/z.svg"" width=""35%"" height=""75%""></img></td>
    <td width=300><img src=""static/images/keys/m.svg"" width=""35%"" height=""75%""></img></td>
  </tr>
</table>
  ",77.0,1.0,,,,,,,,,,,,,,,,,,,,,,,,,,
169,0,,html-keyboard-response,169,515094,0.0-7.3-2.3,x93rz45vuyc,2022-09-19 13:29:30.668,5d1a69d8f97a18001977e0d7,1,37,35,22,20,45,Male,,,"
  <table>
  <tr height=300>
    <td width=300 height=300><img src=""static/images/cards/back_of_red_moons.svg"" width=""175px"" height=""250px""></img></td>
    <td width=300 height=300><img src=""static/images/cards/10_of_red_moons.svg"" width=""175px"" height=""250px""></img></td>
  </tr>
  <tr height=200>
    <td width=300><img src=""static/images/keys/z.svg"" width=""35%"" height=""75%""></img></td>
    <td width=300><img src=""static/images/keys/m.svg"" width=""35%"" height=""75%""></img></td>
  </tr>
</table>
  ",,,,,,,,,,,,,,,,,,,,,,,,,,,,
170,0,,html-keyboard-response,170,516597,0.0-7.3-3.3,x93rz45vuyc,2022-09-19 13:29:30.668,5d1a69d8f97a18001977e0d7,1,37,35,22,20,45,Male,,,"<p style=""font-size:50px"">You win!
+10 points this round!</p>",,,,,,,,,,,,,,,,,,,,,,,,,,,,
171,0,,html-keyboard-response,171,517106,0.0-7.3-4.3,x93rz45vuyc,2022-09-19 13:29:30.668,5d1a69d8f97a18001977e0d7,1,37,35,22,20,45,Male,,,,,,1.0,choice,3.0,A,D,black,red,stars,moons,D,A,A,red,moons,1704.9000000358,1.0,1.0,NA,right,721.3999999762,10.0,1.0,1.0,,,
172,0,,html-keyboard-response,172,518455,0.0-7.4-0.4,x93rz45vuyc,2022-09-19 13:29:30.668,5d1a69d8f97a18001977e0d7,1,37,35,22,20,45,Male,1346.0,,"
  <table>
  <tr height=300>
    <td width=300 height=300><img src=""static/images/cards/stack_of_red_bolts.svg"" width=""175px"" height=""250px""></img></td>
    <td width=300 height=300><img src=""static/images/cards/stack_of_red_moons.svg"" width=""175px"" height=""250px""></img></td>
  </tr>
  <tr height=200>
    <td width=300><img src=""static/images/keys/w.svg"" width=""35%"" height=""75%""></img></td>
    <td width=300><img src=""static/images/keys/o.svg"" width=""35%"" height=""75%""></img></td>
  </tr>
</table>
  ",87.0,1.0,,,,,,,,,,,,,,,,,,,,,,,,,,
173,0,,html-keyboard-response,173,519672,0.0-7.4-1.4,x93rz45vuyc,2022-09-19 13:29:30.668,5d1a69d8f97a18001977e0d7,1,37,35,22,20,45,Male,713.5999999642,,"
  <table>
  <tr height=300>
    <td width=300 height=300><img src=""static/images/cards/back_of_red_bolts.svg"" width=""175px"" height=""250px""></img></td>
    <td width=300 height=300><img src=""static/images/cards/back_of_red_bolts.svg"" width=""175px"" height=""250px""></img></td>
  </tr>
  <tr height=200>
    <td width=300><img src=""static/images/keys/z.svg"" width=""35%"" height=""75%""></img></td>
    <td width=300><img src=""static/images/keys/m.svg"" width=""35%"" height=""75%""></img></td>
  </tr>
</table>
  ",90.0,1.0,,,,,,,,,,,,,,,,,,,,,,,,,,
174,0,,html-keyboard-response,174,521176,0.0-7.4-2.4,x93rz45vuyc,2022-09-19 13:29:30.668,5d1a69d8f97a18001977e0d7,1,37,35,22,20,45,Male,,,"
  <table>
  <tr height=300>
    <td width=300 height=300><img src=""static/images/cards/9_of_red_bolts.svg"" width=""175px"" height=""250px""></img></td>
    <td width=300 height=300><img src=""static/images/cards/back_of_red_bolts.svg"" width=""175px"" height=""250px""></img></td>
  </tr>
  <tr height=200>
    <td width=300><img src=""static/images/keys/z.svg"" width=""35%"" height=""75%""></img></td>
    <td width=300><img src=""static/images/keys/m.svg"" width=""35%"" height=""75%""></img></td>
  </tr>
</table>
  ",,,,,,,,,,,,,,,,,,,,,,,,,,,,
175,0,,html-keyboard-response,175,522680,0.0-7.4-3.4,x93rz45vuyc,2022-09-19 13:29:30.668,5d1a69d8f97a18001977e0d7,1,37,35,22,20,45,Male,,,"<p style=""font-size:50px"">You win!
+10 points this round!</p>",,,,,,,,,,,,,,,,,,,,,,,,,,,,
176,0,,html-keyboard-response,176,523189,0.0-7.4-4.4,x93rz45vuyc,2022-09-19 13:29:30.668,5d1a69d8f97a18001977e0d7,1,37,35,22,20,45,Male,,,,,,1.0,choice,4.0,A,Xc,red,red,bolts,moons,Xc,A,Xc,red,bolts,1346.0,1.0,0.0,NA,left,713.5999999642,9.0,1.0,1.0,,,
177,0,,html-keyboard-response,177,525095,0.0-7.5-0.5,x93rz45vuyc,2022-09-19 13:29:30.668,5d1a69d8f97a18001977e0d7,1,37,35,22,20,45,Male,1904.5999999642,,"
  <table>
  <tr height=300>
    <td width=300 height=300><img src=""static/images/cards/stack_of_red_stars.svg"" width=""175px"" height=""250px""></img></td>
    <td width=300 height=300><img src=""static/images/cards/stack_of_black_stars.svg"" width=""175px"" height=""250px""></img></td>
  </tr>
  <tr height=200>
    <td width=300><img src=""static/images/keys/w.svg"" width=""35%"" height=""75%""></img></td>
    <td width=300><img src=""static/images/keys/o.svg"" width=""35%"" height=""75%""></img></td>
  </tr>
</table>
  ",79.0,1.0,,,,,,,,,,,,,,,,,,,,,,,,,,
178,0,,html-keyboard-response,178,527653,0.0-7.5-1.5,x93rz45vuyc,2022-09-19 13:29:30.668,5d1a69d8f97a18001977e0d7,1,37,35,22,20,45,Male,2046.7000000477,,"
  <table>
  <tr height=300>
    <td width=300 height=300><img src=""static/images/cards/back_of_black_stars.svg"" width=""175px"" height=""250px""></img></td>
    <td width=300 height=300><img src=""static/images/cards/back_of_black_stars.svg"" width=""175px"" height=""250px""></img></td>
  </tr>
  <tr height=200>
    <td width=300><img src=""static/images/keys/z.svg"" width=""35%"" height=""75%""></img></td>
    <td width=300></td>
  </tr>
</table>
  ",90.0,1.0,,,,,,,,,,,,,,,,,,,,,,,,,,
179,0,,html-keyboard-response,179,529163,0.0-7.5-2.5,x93rz45vuyc,2022-09-19 13:29:30.668,5d1a69d8f97a18001977e0d7,1,37,35,22,20,45,Male,,,"
  <table>
  <tr height=300>
    <td width=300 height=300><img src=""static/images/cards/7_of_black_stars.svg"" width=""175px"" height=""250px""></img></td>
    <td width=300 height=300><img src=""static/images/cards/back_of_black_stars.svg"" width=""175px"" height=""250px""></img></td>
  </tr>
  <tr height=200>
    <td width=300><img src=""static/images/keys/z.svg"" width=""35%"" height=""75%""></img></td>
    <td width=300></td>
  </tr>
</table>
  ",,,,,,,,,,,,,,,,,,,,,,,,,,,,
180,0,,html-keyboard-response,180,530668,0.0-7.5-3.5,x93rz45vuyc,2022-09-19 13:29:30.668,5d1a69d8f97a18001977e0d7,1,37,35,22,20,45,Male,,,"<p style=""font-size:50px"">You win!
+10 points this round!</p>",,,,,,,,,,,,,,,,,,,,,,,,,,,,
181,0,,html-keyboard-response,181,531176,0.0-7.5-4.5,x93rz45vuyc,2022-09-19 13:29:30.668,5d1a69d8f97a18001977e0d7,1,37,35,22,20,45,Male,,,,,,1.0,choice,5.0,C,D,red,black,stars,stars,C,D,D,black,stars,1904.5999999642,0.0,0.0,1,left,2046.7000000477,7.0,1.0,1.0,,,
182,0,,html-keyboard-response,182,531812,0.0-7.6-0.6,x93rz45vuyc,2022-09-19 13:29:30.668,5d1a69d8f97a18001977e0d7,1,37,35,22,20,45,Male,633.0,,"
  <table>
  <tr height=300>
    <td width=300 height=300><img src=""static/images/cards/stack_of_red_stars.svg"" width=""175px"" height=""250px""></img></td>
    <td width=300 height=300><img src=""static/images/cards/stack_of_red_bolts.svg"" width=""175px"" height=""250px""></img></td>
  </tr>
  <tr height=200>
    <td width=300><img src=""static/images/keys/w.svg"" width=""35%"" height=""75%""></img></td>
    <td width=300><img src=""static/images/keys/o.svg"" width=""35%"" height=""75%""></img></td>
  </tr>
</table>
  ",79.0,1.0,,,,,,,,,,,,,,,,,,,,,,,,,,
183,0,,html-keyboard-response,183,532986,0.0-7.6-1.6,x93rz45vuyc,2022-09-19 13:29:30.668,5d1a69d8f97a18001977e0d7,1,37,35,22,20,45,Male,658.6999999881,,"
  <table>
  <tr height=300>
    <td width=300 height=300><img src=""static/images/cards/back_of_red_bolts.svg"" width=""175px"" height=""250px""></img></td>
    <td width=300 height=300><img src=""static/images/cards/back_of_red_bolts.svg"" width=""175px"" height=""250px""></img></td>
  </tr>
  <tr height=200>
    <td width=300><img src=""static/images/keys/z.svg"" width=""35%"" height=""75%""></img></td>
    <td width=300><img src=""static/images/keys/m.svg"" width=""35%"" height=""75%""></img></td>
  </tr>
</table>
  ",77.0,1.0,,,,,,,,,,,,,,,,,,,,,,,,,,
184,0,,html-keyboard-response,184,534497,0.0-7.6-2.6,x93rz45vuyc,2022-09-19 13:29:30.668,5d1a69d8f97a18001977e0d7,1,37,35,22,20,45,Male,,,"
  <table>
  <tr height=300>
    <td width=300 height=300><img src=""static/images/cards/back_of_red_bolts.svg"" width=""175px"" height=""250px""></img></td>
    <td width=300 height=300><img src=""static/images/cards/3_of_red_bolts.svg"" width=""175px"" height=""250px""></img></td>
  </tr>
  <tr height=200>
    <td width=300><img src=""static/images/keys/z.svg"" width=""35%"" height=""75%""></img></td>
    <td width=300><img src=""static/images/keys/m.svg"" width=""35%"" height=""75%""></img></td>
  </tr>
</table>
  ",,,,,,,,,,,,,,,,,,,,,,,,,,,,
185,0,,html-keyboard-response,185,536015,0.0-7.6-3.6,x93rz45vuyc,2022-09-19 13:29:30.668,5d1a69d8f97a18001977e0d7,1,37,35,22,20,45,Male,,,"<p style=""font-size:50px"">You win!
+10 points this round!</p>",,,,,,,,,,,,,,,,,,,,,,,,,,,,
186,0,,html-keyboard-response,186,536523,0.0-7.6-4.6,x93rz45vuyc,2022-09-19 13:29:30.668,5d1a69d8f97a18001977e0d7,1,37,35,22,20,45,Male,,,,,,1.0,choice,6.0,C,Xc,red,red,stars,bolts,C,Xc,Xc,red,bolts,633.0,1.0,0.0,NA,right,658.6999999881,3.0,0.0,1.0,,,
187,0,,html-keyboard-response,187,537822,0.0-7.7-0.7,x93rz45vuyc,2022-09-19 13:29:30.668,5d1a69d8f97a18001977e0d7,1,37,35,22,20,45,Male,1297.1999999881,,"
  <table>
  <tr height=300>
    <td width=300 height=300><img src=""static/images/cards/stack_of_red_moons.svg"" width=""175px"" height=""250px""></img></td>
    <td width=300 height=300><img src=""static/images/cards/stack_of_black_moons.svg"" width=""175px"" height=""250px""></img></td>
  </tr>
  <tr height=200>
    <td width=300><img src=""static/images/keys/w.svg"" width=""35%"" height=""75%""></img></td>
    <td width=300><img src=""static/images/keys/o.svg"" width=""35%"" height=""75%""></img></td>
  </tr>
</table>
  ",79.0,1.0,,,,,,,,,,,,,,,,,,,,,,,,,,
188,0,,html-keyboard-response,188,538861,0.0-7.7-1.7,x93rz45vuyc,2022-09-19 13:29:30.668,5d1a69d8f97a18001977e0d7,1,37,35,22,20,45,Male,520.6000000238,,"
  <table>
  <tr height=300>
    <td width=300 height=300><img src=""static/images/cards/back_of_black_moons.svg"" width=""175px"" height=""250px""></img></td>
    <td width=300 height=300><img src=""static/images/cards/back_of_black_moons.svg"" width=""175px"" height=""250px""></img></td>
  </tr>
  <tr height=200>
    <td width=300></td>
    <td width=300><img src=""static/images/keys/m.svg"" width=""35%"" height=""75%""></img></td>
  </tr>
</table>
  ",77.0,1.0,,,,,,,,,,,,,,,,,,,,,,,,,,
189,0,,html-keyboard-response,189,540378,0.0-7.7-2.7,x93rz45vuyc,2022-09-19 13:29:30.668,5d1a69d8f97a18001977e0d7,1,37,35,22,20,45,Male,,,"
  <table>
  <tr height=300>
    <td width=300 height=300><img src=""static/images/cards/back_of_black_moons.svg"" width=""175px"" height=""250px""></img></td>
    <td width=300 height=300><img src=""static/images/cards/6_of_black_moons.svg"" width=""175px"" height=""250px""></img></td>
  </tr>
  <tr height=200>
    <td width=300></td>
    <td width=300><img src=""static/images/keys/m.svg"" width=""35%"" height=""75%""></img></td>
  </tr>
</table>
  ",,,,,,,,,,,,,,,,,,,,,,,,,,,,
190,0,,html-keyboard-response,190,541896,0.0-7.7-3.7,x93rz45vuyc,2022-09-19 13:29:30.668,5d1a69d8f97a18001977e0d7,1,37,35,22,20,45,Male,,,"<p style=""font-size:50px"">You win!
+10 points this round!</p>",,,,,,,,,,,,,,,,,,,,,,,,,,,,
191,0,,html-keyboard-response,191,542406,0.0-7.7-4.7,x93rz45vuyc,2022-09-19 13:29:30.668,5d1a69d8f97a18001977e0d7,1,37,35,22,20,45,Male,,,,,,1.0,choice,7.0,A,B,red,black,moons,moons,A,B,B,black,moons,1297.1999999881,0.0,1.0,0,right,520.6000000238,6.0,1.0,1.0,,,
192,0,,html-keyboard-response,192,543812,0.0-7.8-0.8,x93rz45vuyc,2022-09-19 13:29:30.668,5d1a69d8f97a18001977e0d7,1,37,35,22,20,45,Male,1403.8000000119,,"
  <table>
  <tr height=300>
    <td width=300 height=300><img src=""static/images/cards/stack_of_black_moons.svg"" width=""175px"" height=""250px""></img></td>
    <td width=300 height=300><img src=""static/images/cards/stack_of_black_bolts.svg"" width=""175px"" height=""250px""></img></td>
  </tr>
  <tr height=200>
    <td width=300><img src=""static/images/keys/w.svg"" width=""35%"" height=""75%""></img></td>
    <td width=300><img src=""static/images/keys/o.svg"" width=""35%"" height=""75%""></img></td>
  </tr>
</table>
  ",79.0,1.0,,,,,,,,,,,,,,,,,,,,,,,,,,
193,0,,html-keyboard-response,193,544881,0.0-7.8-1.8,x93rz45vuyc,2022-09-19 13:29:30.668,5d1a69d8f97a18001977e0d7,1,37,35,22,20,45,Male,558.6999999881,,"
  <table>
  <tr height=300>
    <td width=300 height=300><img src=""static/images/cards/back_of_black_bolts.svg"" width=""175px"" height=""250px""></img></td>
    <td width=300 height=300><img src=""static/images/cards/back_of_black_bolts.svg"" width=""175px"" height=""250px""></img></td>
  </tr>
  <tr height=200>
    <td width=300></td>
    <td width=300><img src=""static/images/keys/m.svg"" width=""35%"" height=""75%""></img></td>
  </tr>
</table>
  ",77.0,1.0,,,,,,,,,,,,,,,,,,,,,,,,,,
194,0,,html-keyboard-response,194,546393,0.0-7.8-2.8,x93rz45vuyc,2022-09-19 13:29:30.668,5d1a69d8f97a18001977e0d7,1,37,35,22,20,45,Male,,,"
  <table>
  <tr height=300>
    <td width=300 height=300><img src=""static/images/cards/back_of_black_bolts.svg"" width=""175px"" height=""250px""></img></td>
    <td width=300 height=300><img src=""static/images/cards/3_of_black_bolts.svg"" width=""175px"" height=""250px""></img></td>
  </tr>
  <tr height=200>
    <td width=300></td>
    <td width=300><img src=""static/images/keys/m.svg"" width=""35%"" height=""75%""></img></td>
  </tr>
</table>
  ",,,,,,,,,,,,,,,,,,,,,,,,,,,,
195,0,,html-keyboard-response,195,547899,0.0-7.8-3.8,x93rz45vuyc,2022-09-19 13:29:30.668,5d1a69d8f97a18001977e0d7,1,37,35,22,20,45,Male,,,"<p style=""font-size:50px"">You win!
+10 points this round!</p>",,,,,,,,,,,,,,,,,,,,,,,,,,,,
196,0,,html-keyboard-response,196,548405,0.0-7.8-4.8,x93rz45vuyc,2022-09-19 13:29:30.668,5d1a69d8f97a18001977e0d7,1,37,35,22,20,45,Male,,,,,,1.0,choice,8.0,B,Xnc,black,black,moons,bolts,B,Xnc,Xnc,black,bolts,1403.8000000119,0.0,0.0,0,right,558.6999999881,3.0,0.0,1.0,,,
197,0,,html-keyboard-response,197,549602,0.0-7.9-0.9,x93rz45vuyc,2022-09-19 13:29:30.668,5d1a69d8f97a18001977e0d7,1,37,35,22,20,45,Male,1194.2000000477,,"
  <table>
  <tr height=300>
    <td width=300 height=300><img src=""static/images/cards/stack_of_black_stars.svg"" width=""175px"" height=""250px""></img></td>
    <td width=300 height=300><img src=""static/images/cards/stack_of_red_stars.svg"" width=""175px"" height=""250px""></img></td>
  </tr>
  <tr height=200>
    <td width=300><img src=""static/images/keys/w.svg"" width=""35%"" height=""75%""></img></td>
    <td width=300><img src=""static/images/keys/o.svg"" width=""35%"" height=""75%""></img></td>
  </tr>
</table>
  ",79.0,1.0,,,,,,,,,,,,,,,,,,,,,,,,,,
198,0,,html-keyboard-response,198,550789,0.0-7.9-1.9,x93rz45vuyc,2022-09-19 13:29:30.668,5d1a69d8f97a18001977e0d7,1,37,35,22,20,45,Male,683.8999999762,,"
  <table>
  <tr height=300>
    <td width=300 height=300><img src=""static/images/cards/back_of_red_stars.svg"" width=""175px"" height=""250px""></img></td>
    <td width=300 height=300><img src=""static/images/cards/back_of_red_stars.svg"" width=""175px"" height=""250px""></img></td>
  </tr>
  <tr height=200>
    <td width=300><img src=""static/images/keys/z.svg"" width=""35%"" height=""75%""></img></td>
    <td width=300><img src=""static/images/keys/m.svg"" width=""35%"" height=""75%""></img></td>
  </tr>
</table>
  ",77.0,1.0,,,,,,,,,,,,,,,,,,,,,,,,,,
199,0,,html-keyboard-response,199,552292,0.0-7.9-2.9,x93rz45vuyc,2022-09-19 13:29:30.668,5d1a69d8f97a18001977e0d7,1,37,35,22,20,45,Male,,,"
  <table>
  <tr height=300>
    <td width=300 height=300><img src=""static/images/cards/back_of_red_stars.svg"" width=""175px"" height=""250px""></img></td>
    <td width=300 height=300><img src=""static/images/cards/8_of_red_stars.svg"" width=""175px"" height=""250px""></img></td>
  </tr>
  <tr height=200>
    <td width=300><img src=""static/images/keys/z.svg"" width=""35%"" height=""75%""></img></td>
    <td width=300><img src=""static/images/keys/m.svg"" width=""35%"" height=""75%""></img></td>
  </tr>
</table>
  ",,,,,,,,,,,,,,,,,,,,,,,,,,,,
200,0,,html-keyboard-response,200,553811,0.0-7.9-3.9,x93rz45vuyc,2022-09-19 13:29:30.668,5d1a69d8f97a18001977e0d7,1,37,35,22,20,45,Male,,,"<p style=""font-size:50px"">You win!
+10 points this round!</p>",,,,,,,,,,,,,,,,,,,,,,,,,,,,
201,0,,html-keyboard-response,201,554320,0.0-7.9-4.9,x93rz45vuyc,2022-09-19 13:29:30.668,5d1a69d8f97a18001977e0d7,1,37,35,22,20,45,Male,,,,,,1.0,choice,9.0,C,D,black,red,stars,stars,D,C,C,red,stars,1194.2000000477,1.0,0.0,NA,right,683.8999999762,8.0,1.0,1.0,,,
202,0,,html-keyboard-response,202,555708,0.0-7.10-0.10,x93rz45vuyc,2022-09-19 13:29:30.668,5d1a69d8f97a18001977e0d7,1,37,35,22,20,45,Male,1386.0,,"
  <table>
  <tr height=300>
    <td width=300 height=300><img src=""static/images/cards/stack_of_black_moons.svg"" width=""175px"" height=""250px""></img></td>
    <td width=300 height=300><img src=""static/images/cards/stack_of_red_moons.svg"" width=""175px"" height=""250px""></img></td>
  </tr>
  <tr height=200>
    <td width=300><img src=""static/images/keys/w.svg"" width=""35%"" height=""75%""></img></td>
    <td width=300><img src=""static/images/keys/o.svg"" width=""35%"" height=""75%""></img></td>
  </tr>
</table>
  ",87.0,1.0,,,,,,,,,,,,,,,,,,,,,,,,,,
203,0,,html-keyboard-response,203,556864,0.0-7.10-1.10,x93rz45vuyc,2022-09-19 13:29:30.668,5d1a69d8f97a18001977e0d7,1,37,35,22,20,45,Male,643.6999999881,,"
  <table>
  <tr height=300>
    <td width=300 height=300><img src=""static/images/cards/back_of_black_moons.svg"" width=""175px"" height=""250px""></img></td>
    <td width=300 height=300><img src=""static/images/cards/back_of_black_moons.svg"" width=""175px"" height=""250px""></img></td>
  </tr>
  <tr height=200>
    <td width=300></td>
    <td width=300><img src=""static/images/keys/m.svg"" width=""35%"" height=""75%""></img></td>
  </tr>
</table>
  ",77.0,1.0,,,,,,,,,,,,,,,,,,,,,,,,,,
204,0,,html-keyboard-response,204,558376,0.0-7.10-2.10,x93rz45vuyc,2022-09-19 13:29:30.668,5d1a69d8f97a18001977e0d7,1,37,35,22,20,45,Male,,,"
  <table>
  <tr height=300>
    <td width=300 height=300><img src=""static/images/cards/back_of_black_moons.svg"" width=""175px"" height=""250px""></img></td>
    <td width=300 height=300><img src=""static/images/cards/2_of_black_moons.svg"" width=""175px"" height=""250px""></img></td>
  </tr>
  <tr height=200>
    <td width=300></td>
    <td width=300><img src=""static/images/keys/m.svg"" width=""35%"" height=""75%""></img></td>
  </tr>
</table>
  ",,,,,,,,,,,,,,,,,,,,,,,,,,,,
205,0,,html-keyboard-response,205,559893,0.0-7.10-3.10,x93rz45vuyc,2022-09-19 13:29:30.668,5d1a69d8f97a18001977e0d7,1,37,35,22,20,45,Male,,,"<p style=""font-size:50px"">You Lose!
No points this round.</p>",,,,,,,,,,,,,,,,,,,,,,,,,,,,
206,0,,html-keyboard-response,206,560403,0.0-7.10-4.10,x93rz45vuyc,2022-09-19 13:29:30.668,5d1a69d8f97a18001977e0d7,1,37,35,22,20,45,Male,,,,,,1.0,choice,10.0,A,B,black,red,moons,moons,B,A,B,black,moons,1386.0,0.0,1.0,0,right,643.6999999881,2.0,0.0,0.0,,,
207,0,,html-keyboard-response,207,562114,0.0-7.11-0.11,x93rz45vuyc,2022-09-19 13:29:30.668,5d1a69d8f97a18001977e0d7,1,37,35,22,20,45,Male,1707.8000000119,,"
  <table>
  <tr height=300>
    <td width=300 height=300><img src=""static/images/cards/stack_of_black_moons.svg"" width=""175px"" height=""250px""></img></td>
    <td width=300 height=300><img src=""static/images/cards/stack_of_black_stars.svg"" width=""175px"" height=""250px""></img></td>
  </tr>
  <tr height=200>
    <td width=300><img src=""static/images/keys/w.svg"" width=""35%"" height=""75%""></img></td>
    <td width=300><img src=""static/images/keys/o.svg"" width=""35%"" height=""75%""></img></td>
  </tr>
</table>
  ",87.0,1.0,,,,,,,,,,,,,,,,,,,,,,,,,,
208,0,,html-keyboard-response,208,563265,0.0-7.11-1.11,x93rz45vuyc,2022-09-19 13:29:30.668,5d1a69d8f97a18001977e0d7,1,37,35,22,20,45,Male,644.8999999762,,"
  <table>
  <tr height=300>
    <td width=300 height=300><img src=""static/images/cards/back_of_black_moons.svg"" width=""175px"" height=""250px""></img></td>
    <td width=300 height=300><img src=""static/images/cards/back_of_black_moons.svg"" width=""175px"" height=""250px""></img></td>
  </tr>
  <tr height=200>
    <td width=300></td>
    <td width=300><img src=""static/images/keys/m.svg"" width=""35%"" height=""75%""></img></td>
  </tr>
</table>
  ",77.0,1.0,,,,,,,,,,,,,,,,,,,,,,,,,,
209,0,,html-keyboard-response,209,564777,0.0-7.11-2.11,x93rz45vuyc,2022-09-19 13:29:30.668,5d1a69d8f97a18001977e0d7,1,37,35,22,20,45,Male,,,"
  <table>
  <tr height=300>
    <td width=300 height=300><img src=""static/images/cards/back_of_black_moons.svg"" width=""175px"" height=""250px""></img></td>
    <td width=300 height=300><img src=""static/images/cards/2_of_black_moons.svg"" width=""175px"" height=""250px""></img></td>
  </tr>
  <tr height=200>
    <td width=300></td>
    <td width=300><img src=""static/images/keys/m.svg"" width=""35%"" height=""75%""></img></td>
  </tr>
</table>
  ",,,,,,,,,,,,,,,,,,,,,,,,,,,,
210,0,,html-keyboard-response,210,566297,0.0-7.11-3.11,x93rz45vuyc,2022-09-19 13:29:30.668,5d1a69d8f97a18001977e0d7,1,37,35,22,20,45,Male,,,"<p style=""font-size:50px"">You Lose!
No points this round.</p>",,,,,,,,,,,,,,,,,,,,,,,,,,,,
211,0,,html-keyboard-response,211,566803,0.0-7.11-4.11,x93rz45vuyc,2022-09-19 13:29:30.668,5d1a69d8f97a18001977e0d7,1,37,35,22,20,45,Male,,,,,,1.0,choice,11.0,B,D,black,black,moons,stars,B,D,B,black,moons,1707.8000000119,0.0,1.0,0,right,644.8999999762,2.0,0.0,0.0,,,
212,0,,html-keyboard-response,212,568363,0.0-7.12-0.12,x93rz45vuyc,2022-09-19 13:29:30.668,5d1a69d8f97a18001977e0d7,1,37,35,22,20,45,Male,1557.1000000238,,"
  <table>
  <tr height=300>
    <td width=300 height=300><img src=""static/images/cards/stack_of_red_stars.svg"" width=""175px"" height=""250px""></img></td>
    <td width=300 height=300><img src=""static/images/cards/stack_of_red_moons.svg"" width=""175px"" height=""250px""></img></td>
  </tr>
  <tr height=200>
    <td width=300><img src=""static/images/keys/w.svg"" width=""35%"" height=""75%""></img></td>
    <td width=300><img src=""static/images/keys/o.svg"" width=""35%"" height=""75%""></img></td>
  </tr>
</table>
  ",79.0,1.0,,,,,,,,,,,,,,,,,,,,,,,,,,
213,0,,html-keyboard-response,213,569336,0.0-7.12-1.12,x93rz45vuyc,2022-09-19 13:29:30.668,5d1a69d8f97a18001977e0d7,1,37,35,22,20,45,Male,466.3000000119,,"
  <table>
  <tr height=300>
    <td width=300 height=300><img src=""static/images/cards/back_of_red_moons.svg"" width=""175px"" height=""250px""></img></td>
    <td width=300 height=300><img src=""static/images/cards/back_of_red_moons.svg"" width=""175px"" height=""250px""></img></td>
  </tr>
  <tr height=200>
    <td width=300><img src=""static/images/keys/z.svg"" width=""35%"" height=""75%""></img></td>
    <td width=300><img src=""static/images/keys/m.svg"" width=""35%"" height=""75%""></img></td>
  </tr>
</table>
  ",77.0,1.0,,,,,,,,,,,,,,,,,,,,,,,,,,
214,0,,html-keyboard-response,214,570843,0.0-7.12-2.12,x93rz45vuyc,2022-09-19 13:29:30.668,5d1a69d8f97a18001977e0d7,1,37,35,22,20,45,Male,,,"
  <table>
  <tr height=300>
    <td width=300 height=300><img src=""static/images/cards/back_of_red_moons.svg"" width=""175px"" height=""250px""></img></td>
    <td width=300 height=300><img src=""static/images/cards/8_of_red_moons.svg"" width=""175px"" height=""250px""></img></td>
  </tr>
  <tr height=200>
    <td width=300><img src=""static/images/keys/z.svg"" width=""35%"" height=""75%""></img></td>
    <td width=300><img src=""static/images/keys/m.svg"" width=""35%"" height=""75%""></img></td>
  </tr>
</table>
  ",,,,,,,,,,,,,,,,,,,,,,,,,,,,
215,0,,html-keyboard-response,215,572375,0.0-7.12-3.12,x93rz45vuyc,2022-09-19 13:29:30.668,5d1a69d8f97a18001977e0d7,1,37,35,22,20,45,Male,,,"<p style=""font-size:50px"">You win!
+10 points this round!</p>",,,,,,,,,,,,,,,,,,,,,,,,,,,,
216,0,,html-keyboard-response,216,572884,0.0-7.12-4.12,x93rz45vuyc,2022-09-19 13:29:30.668,5d1a69d8f97a18001977e0d7,1,37,35,22,20,45,Male,,,,,,1.0,choice,12.0,A,C,red,red,stars,moons,C,A,A,red,moons,1557.1000000238,1.0,1.0,NA,right,466.3000000119,8.0,1.0,1.0,,,
217,0,,html-keyboard-response,217,573891,0.0-7.13-0.13,x93rz45vuyc,2022-09-19 13:29:30.668,5d1a69d8f97a18001977e0d7,1,37,35,22,20,45,Male,1004.6000000238,,"
  <table>
  <tr height=300>
    <td width=300 height=300><img src=""static/images/cards/stack_of_red_moons.svg"" width=""175px"" height=""250px""></img></td>
    <td width=300 height=300><img src=""static/images/cards/stack_of_black_stars.svg"" width=""175px"" height=""250px""></img></td>
  </tr>
  <tr height=200>
    <td width=300><img src=""static/images/keys/w.svg"" width=""35%"" height=""75%""></img></td>
    <td width=300><img src=""static/images/keys/o.svg"" width=""35%"" height=""75%""></img></td>
  </tr>
</table>
  ",87.0,1.0,,,,,,,,,,,,,,,,,,,,,,,,,,
218,0,,html-keyboard-response,218,574961,0.0-7.13-1.13,x93rz45vuyc,2022-09-19 13:29:30.668,5d1a69d8f97a18001977e0d7,1,37,35,22,20,45,Male,559.3000000119,,"
  <table>
  <tr height=300>
    <td width=300 height=300><img src=""static/images/cards/back_of_red_moons.svg"" width=""175px"" height=""250px""></img></td>
    <td width=300 height=300><img src=""static/images/cards/back_of_red_moons.svg"" width=""175px"" height=""250px""></img></td>
  </tr>
  <tr height=200>
    <td width=300><img src=""static/images/keys/z.svg"" width=""35%"" height=""75%""></img></td>
    <td width=300><img src=""static/images/keys/m.svg"" width=""35%"" height=""75%""></img></td>
  </tr>
</table>
  ",90.0,1.0,,,,,,,,,,,,,,,,,,,,,,,,,,
219,0,,html-keyboard-response,219,576471,0.0-7.13-2.13,x93rz45vuyc,2022-09-19 13:29:30.668,5d1a69d8f97a18001977e0d7,1,37,35,22,20,45,Male,,,"
  <table>
  <tr height=300>
    <td width=300 height=300><img src=""static/images/cards/3_of_red_moons.svg"" width=""175px"" height=""250px""></img></td>
    <td width=300 height=300><img src=""static/images/cards/back_of_red_moons.svg"" width=""175px"" height=""250px""></img></td>
  </tr>
  <tr height=200>
    <td width=300><img src=""static/images/keys/z.svg"" width=""35%"" height=""75%""></img></td>
    <td width=300><img src=""static/images/keys/m.svg"" width=""35%"" height=""75%""></img></td>
  </tr>
</table>
  ",,,,,,,,,,,,,,,,,,,,,,,,,,,,
220,0,,html-keyboard-response,220,577974,0.0-7.13-3.13,x93rz45vuyc,2022-09-19 13:29:30.668,5d1a69d8f97a18001977e0d7,1,37,35,22,20,45,Male,,,"<p style=""font-size:50px"">You Lose!
No points this round.</p>",,,,,,,,,,,,,,,,,,,,,,,,,,,,
221,0,,html-keyboard-response,221,578484,0.0-7.13-4.13,x93rz45vuyc,2022-09-19 13:29:30.668,5d1a69d8f97a18001977e0d7,1,37,35,22,20,45,Male,,,,,,1.0,choice,13.0,A,D,red,black,moons,stars,A,D,A,red,moons,1004.6000000238,1.0,1.0,NA,left,559.3000000119,3.0,0.0,0.0,,,
222,0,,html-keyboard-response,222,579707,0.0-7.14-0.14,x93rz45vuyc,2022-09-19 13:29:30.668,5d1a69d8f97a18001977e0d7,1,37,35,22,20,45,Male,1220.0999999642,,"
  <table>
  <tr height=300>
    <td width=300 height=300><img src=""static/images/cards/stack_of_black_moons.svg"" width=""175px"" height=""250px""></img></td>
    <td width=300 height=300><img src=""static/images/cards/stack_of_black_stars.svg"" width=""175px"" height=""250px""></img></td>
  </tr>
  <tr height=200>
    <td width=300><img src=""static/images/keys/w.svg"" width=""35%"" height=""75%""></img></td>
    <td width=300><img src=""static/images/keys/o.svg"" width=""35%"" height=""75%""></img></td>
  </tr>
</table>
  ",87.0,1.0,,,,,,,,,,,,,,,,,,,,,,,,,,
223,0,,html-keyboard-response,223,580973,0.0-7.14-1.14,x93rz45vuyc,2022-09-19 13:29:30.668,5d1a69d8f97a18001977e0d7,1,37,35,22,20,45,Male,756.7999999523,,"
  <table>
  <tr height=300>
    <td width=300 height=300><img src=""static/images/cards/back_of_black_moons.svg"" width=""175px"" height=""250px""></img></td>
    <td width=300 height=300><img src=""static/images/cards/back_of_black_moons.svg"" width=""175px"" height=""250px""></img></td>
  </tr>
  <tr height=200>
    <td width=300><img src=""static/images/keys/z.svg"" width=""35%"" height=""75%""></img></td>
    <td width=300></td>
  </tr>
</table>
  ",90.0,1.0,,,,,,,,,,,,,,,,,,,,,,,,,,
224,0,,html-keyboard-response,224,582488,0.0-7.14-2.14,x93rz45vuyc,2022-09-19 13:29:30.668,5d1a69d8f97a18001977e0d7,1,37,35,22,20,45,Male,,,"
  <table>
  <tr height=300>
    <td width=300 height=300><img src=""static/images/cards/4_of_black_moons.svg"" width=""175px"" height=""250px""></img></td>
    <td width=300 height=300><img src=""static/images/cards/back_of_black_moons.svg"" width=""175px"" height=""250px""></img></td>
  </tr>
  <tr height=200>
    <td width=300><img src=""static/images/keys/z.svg"" width=""35%"" height=""75%""></img></td>
    <td width=300></td>
  </tr>
</table>
  ",,,,,,,,,,,,,,,,,,,,,,,,,,,,
225,0,,html-keyboard-response,225,583992,0.0-7.14-3.14,x93rz45vuyc,2022-09-19 13:29:30.668,5d1a69d8f97a18001977e0d7,1,37,35,22,20,45,Male,,,"<p style=""font-size:50px"">You Lose!
No points this round.</p>",,,,,,,,,,,,,,,,,,,,,,,,,,,,
226,0,,html-keyboard-response,226,584499,0.0-7.14-4.14,x93rz45vuyc,2022-09-19 13:29:30.668,5d1a69d8f97a18001977e0d7,1,37,35,22,20,45,Male,,,,,,1.0,choice,14.0,B,D,black,black,moons,stars,B,D,B,black,moons,1220.0999999642,0.0,1.0,1,left,756.7999999523,4.0,0.0,0.0,,,
227,0,,html-keyboard-response,227,585374,0.0-7.15-0.15,x93rz45vuyc,2022-09-19 13:29:30.668,5d1a69d8f97a18001977e0d7,1,37,35,22,20,45,Male,872.1000000238,,"
  <table>
  <tr height=300>
    <td width=300 height=300><img src=""static/images/cards/stack_of_red_moons.svg"" width=""175px"" height=""250px""></img></td>
    <td width=300 height=300><img src=""static/images/cards/stack_of_black_stars.svg"" width=""175px"" height=""250px""></img></td>
  </tr>
  <tr height=200>
    <td width=300><img src=""static/images/keys/w.svg"" width=""35%"" height=""75%""></img></td>
    <td width=300><img src=""static/images/keys/o.svg"" width=""35%"" height=""75%""></img></td>
  </tr>
</table>
  ",87.0,1.0,,,,,,,,,,,,,,,,,,,,,,,,,,
228,0,,html-keyboard-response,228,586471,0.0-7.15-1.15,x93rz45vuyc,2022-09-19 13:29:30.668,5d1a69d8f97a18001977e0d7,1,37,35,22,20,45,Male,589.1999999881,,"
  <table>
  <tr height=300>
    <td width=300 height=300><img src=""static/images/cards/back_of_red_moons.svg"" width=""175px"" height=""250px""></img></td>
    <td width=300 height=300><img src=""static/images/cards/back_of_red_moons.svg"" width=""175px"" height=""250px""></img></td>
  </tr>
  <tr height=200>
    <td width=300><img src=""static/images/keys/z.svg"" width=""35%"" height=""75%""></img></td>
    <td width=300><img src=""static/images/keys/m.svg"" width=""35%"" height=""75%""></img></td>
  </tr>
</table>
  ",77.0,1.0,,,,,,,,,,,,,,,,,,,,,,,,,,
229,0,,html-keyboard-response,229,587977,0.0-7.15-2.15,x93rz45vuyc,2022-09-19 13:29:30.668,5d1a69d8f97a18001977e0d7,1,37,35,22,20,45,Male,,,"
  <table>
  <tr height=300>
    <td width=300 height=300><img src=""static/images/cards/back_of_red_moons.svg"" width=""175px"" height=""250px""></img></td>
    <td width=300 height=300><img src=""static/images/cards/10_of_red_moons.svg"" width=""175px"" height=""250px""></img></td>
  </tr>
  <tr height=200>
    <td width=300><img src=""static/images/keys/z.svg"" width=""35%"" height=""75%""></img></td>
    <td width=300><img src=""static/images/keys/m.svg"" width=""35%"" height=""75%""></img></td>
  </tr>
</table>
  ",,,,,,,,,,,,,,,,,,,,,,,,,,,,
230,0,,html-keyboard-response,230,589488,0.0-7.15-3.15,x93rz45vuyc,2022-09-19 13:29:30.668,5d1a69d8f97a18001977e0d7,1,37,35,22,20,45,Male,,,"<p style=""font-size:50px"">You win!
+10 points this round!</p>",,,,,,,,,,,,,,,,,,,,,,,,,,,,
231,0,,html-keyboard-response,231,589996,0.0-7.15-4.15,x93rz45vuyc,2022-09-19 13:29:30.668,5d1a69d8f97a18001977e0d7,1,37,35,22,20,45,Male,,,,,,1.0,choice,15.0,A,D,red,black,moons,stars,A,D,A,red,moons,872.1000000238,1.0,1.0,NA,right,589.1999999881,10.0,1.0,1.0,,,
232,0,,html-keyboard-response,232,591078,0.0-7.16-0.16,x93rz45vuyc,2022-09-19 13:29:30.668,5d1a69d8f97a18001977e0d7,1,37,35,22,20,45,Male,1079.6999999881,,"
  <table>
  <tr height=300>
    <td width=300 height=300><img src=""static/images/cards/stack_of_red_stars.svg"" width=""175px"" height=""250px""></img></td>
    <td width=300 height=300><img src=""static/images/cards/stack_of_black_moons.svg"" width=""175px"" height=""250px""></img></td>
  </tr>
  <tr height=200>
    <td width=300><img src=""static/images/keys/w.svg"" width=""35%"" height=""75%""></img></td>
    <td width=300><img src=""static/images/keys/o.svg"" width=""35%"" height=""75%""></img></td>
  </tr>
</table>
  ",79.0,1.0,,,,,,,,,,,,,,,,,,,,,,,,,,
233,0,,html-keyboard-response,233,592211,0.0-7.16-1.16,x93rz45vuyc,2022-09-19 13:29:30.668,5d1a69d8f97a18001977e0d7,1,37,35,22,20,45,Male,630.0,,"
  <table>
  <tr height=300>
    <td width=300 height=300><img src=""static/images/cards/back_of_black_moons.svg"" width=""175px"" height=""250px""></img></td>
    <td width=300 height=300><img src=""static/images/cards/back_of_black_moons.svg"" width=""175px"" height=""250px""></img></td>
  </tr>
  <tr height=200>
    <td width=300><img src=""static/images/keys/z.svg"" width=""35%"" height=""75%""></img></td>
    <td width=300></td>
  </tr>
</table>
  ",90.0,1.0,,,,,,,,,,,,,,,,,,,,,,,,,,
234,0,,html-keyboard-response,234,593717,0.0-7.16-2.16,x93rz45vuyc,2022-09-19 13:29:30.668,5d1a69d8f97a18001977e0d7,1,37,35,22,20,45,Male,,,"
  <table>
  <tr height=300>
    <td width=300 height=300><img src=""static/images/cards/1_of_black_moons.svg"" width=""175px"" height=""250px""></img></td>
    <td width=300 height=300><img src=""static/images/cards/back_of_black_moons.svg"" width=""175px"" height=""250px""></img></td>
  </tr>
  <tr height=200>
    <td width=300><img src=""static/images/keys/z.svg"" width=""35%"" height=""75%""></img></td>
    <td width=300></td>
  </tr>
</table>
  ",,,,,,,,,,,,,,,,,,,,,,,,,,,,
