,index,success,trial_type,trial_index,time_elapsed,internal_node_id,subject,date,prol_id,ctbl,sense_of_control_A,sense_of_control_B,sense_of_control_C,sense_of_control_D,age,gender,rt,url,stimulus,key_press,npress,is_data_trial,phase,trial,deck1,deck2,col1,col2,sym1,sym2,deck_l,deck_r,chosen_deck,chosen_col,chosen_sym,deck_rt,choose_choice,mutual_info,hidden_key,chosen_card,card_rt,player_num,win_card,outcome,mock_rating,response,responses
0,0,1.0,fullscreen,0,2312,0.0-0.0,xh4ipu9oru7,2022-09-19 16:21:48.717,5d5a8cbeeb68e00018d85fb7,2,66,70,64,70,25,female,,,,,,,,,,,,,,,,,,,,,,,,,,,,,,,
1,0,,external-html,1,5332,0.0-1.0,xh4ipu9oru7,2022-09-19 16:21:48.717,5d5a8cbeeb68e00018d85fb7,2,66,70,64,70,25,female,2879.900000006,static/js/sub/consent.html,,,,,,,,,,,,,,,,,,,,,,,,,,,,,
2,0,,call-function,2,5341,0.0-2.0,xh4ipu9oru7,2022-09-19 16:21:48.717,5d5a8cbeeb68e00018d85fb7,2,66,70,64,70,25,female,,,,,,,,,,,,,,,,,,,,,,,,,,,,,,,
3,0,,image-keyboard-response,3,8711,0.0-3.0-0.0,xh4ipu9oru7,2022-09-19 16:21:48.717,5d5a8cbeeb68e00018d85fb7,2,66,70,64,70,25,female,3369.400000006,,static/images/instructions_CB_2/Slide1.png,39.0,,,,,,,,,,,,,,,,,,,,,,,,,,,
4,0,,image-keyboard-response,4,13115,0.0-3.1-0.1,xh4ipu9oru7,2022-09-19 16:21:48.717,5d5a8cbeeb68e00018d85fb7,2,66,70,64,70,25,female,4401.5,,static/images/instructions_CB_2/Slide2.png,39.0,,,,,,,,,,,,,,,,,,,,,,,,,,,
5,0,,image-keyboard-response,5,14863,0.0-3.2-0.2,xh4ipu9oru7,2022-09-19 16:21:48.717,5d5a8cbeeb68e00018d85fb7,2,66,70,64,70,25,female,1746.900000006,,static/images/instructions_CB_2/Slide3.png,39.0,,,,,,,,,,,,,,,,,,,,,,,,,,,
6,0,,image-keyboard-response,6,17158,0.0-3.3-0.3,xh4ipu9oru7,2022-09-19 16:21:48.717,5d5a8cbeeb68e00018d85fb7,2,66,70,64,70,25,female,2293.099999994,,static/images/instructions_CB_2/Slide4.png,39.0,,,,,,,,,,,,,,,,,,,,,,,,,,,
7,0,,image-keyboard-response,7,20510,0.0-3.4-0.4,xh4ipu9oru7,2022-09-19 16:21:48.717,5d5a8cbeeb68e00018d85fb7,2,66,70,64,70,25,female,3350.6999999881,,static/images/instructions_CB_2/Slide5.png,39.0,,,,,,,,,,,,,,,,,,,,,,,,,,,
8,0,,image-keyboard-response,8,21499,0.0-3.5-0.5,xh4ipu9oru7,2022-09-19 16:21:48.717,5d5a8cbeeb68e00018d85fb7,2,66,70,64,70,25,female,987.6999999881,,static/images/instructions_CB_2/Slide6.png,39.0,,,,,,,,,,,,,,,,,,,,,,,,,,,
9,0,,image-keyboard-response,9,23384,0.0-3.6-0.6,xh4ipu9oru7,2022-09-19 16:21:48.717,5d5a8cbeeb68e00018d85fb7,2,66,70,64,70,25,female,1884.0,,static/images/instructions_CB_2/Slide7.png,39.0,,,,,,,,,,,,,,,,,,,,,,,,,,,
10,0,,image-keyboard-response,10,30197,0.0-3.7-0.7,xh4ipu9oru7,2022-09-19 16:21:48.717,5d5a8cbeeb68e00018d85fb7,2,66,70,64,70,25,female,6811.3999999911,,static/images/instructions_CB_2/Slide8.png,39.0,,,,,,,,,,,,,,,,,,,,,,,,,,,
11,0,,image-keyboard-response,11,32371,0.0-3.8-0.8,xh4ipu9oru7,2022-09-19 16:21:48.717,5d5a8cbeeb68e00018d85fb7,2,66,70,64,70,25,female,2173.3000000119,,static/images/instructions_CB_2/Slide9.png,39.0,,,,,,,,,,,,,,,,,,,,,,,,,,,
12,0,,image-keyboard-response,12,38813,0.0-3.9-0.9,xh4ipu9oru7,2022-09-19 16:21:48.717,5d5a8cbeeb68e00018d85fb7,2,66,70,64,70,25,female,6440.200000003,,static/images/instructions_CB_2/Slide10.png,39.0,,,,,,,,,,,,,,,,,,,,,,,,,,,
13,0,,image-keyboard-response,13,42197,0.0-3.10-0.10,xh4ipu9oru7,2022-09-19 16:21:48.717,5d5a8cbeeb68e00018d85fb7,2,66,70,64,70,25,female,3383.200000003,,static/images/instructions_CB_2/Slide11.png,39.0,,,,,,,,,,,,,,,,,,,,,,,,,,,
14,0,,image-keyboard-response,14,45949,0.0-3.11-0.11,xh4ipu9oru7,2022-09-19 16:21:48.717,5d5a8cbeeb68e00018d85fb7,2,66,70,64,70,25,female,3750.3000000119,,static/images/instructions_CB_2/Slide12.png,39.0,,,,,,,,,,,,,,,,,,,,,,,,,,,
15,0,,image-keyboard-response,15,52079,0.0-3.12-0.12,xh4ipu9oru7,2022-09-19 16:21:48.717,5d5a8cbeeb68e00018d85fb7,2,66,70,64,70,25,female,6129.200000003,,static/images/instructions_CB_2/Slide13.png,39.0,,,,,,,,,,,,,,,,,,,,,,,,,,,
16,0,,image-keyboard-response,16,55456,0.0-3.13-0.13,xh4ipu9oru7,2022-09-19 16:21:48.717,5d5a8cbeeb68e00018d85fb7,2,66,70,64,70,25,female,3375.900000006,,static/images/instructions_CB_2/Slide14.png,39.0,,,,,,,,,,,,,,,,,,,,,,,,,,,
17,0,,image-keyboard-response,17,59963,0.0-3.14-0.14,xh4ipu9oru7,2022-09-19 16:21:48.717,5d5a8cbeeb68e00018d85fb7,2,66,70,64,70,25,female,4505.900000006,,static/images/instructions_CB_2/Slide15.png,39.0,,,,,,,,,,,,,,,,,,,,,,,,,,,
18,0,,image-keyboard-response,18,65393,0.0-3.15-0.15,xh4ipu9oru7,2022-09-19 16:21:48.717,5d5a8cbeeb68e00018d85fb7,2,66,70,64,70,25,female,5429.0,,static/images/instructions_CB_2/Slide16.png,39.0,,,,,,,,,,,,,,,,,,,,,,,,,,,
19,0,,image-keyboard-response,19,70782,0.0-3.16-0.16,xh4ipu9oru7,2022-09-19 16:21:48.717,5d5a8cbeeb68e00018d85fb7,2,66,70,64,70,25,female,5387.200000003,,static/images/instructions_CB_2/Slide17.png,39.0,,,,,,,,,,,,,,,,,,,,,,,,,,,
20,0,,image-keyboard-response,20,76689,0.0-3.17-0.17,xh4ipu9oru7,2022-09-19 16:21:48.717,5d5a8cbeeb68e00018d85fb7,2,66,70,64,70,25,female,5906.200000003,,static/images/instructions_CB_2/Slide18.png,39.0,,,,,,,,,,,,,,,,,,,,,,,,,,,
21,0,,image-keyboard-response,21,81626,0.0-3.18-0.18,xh4ipu9oru7,2022-09-19 16:21:48.717,5d5a8cbeeb68e00018d85fb7,2,66,70,64,70,25,female,4936.599999994,,static/images/instructions_CB_2/Slide19.png,39.0,,,,,,,,,,,,,,,,,,,,,,,,,,,
22,0,,html-keyboard-response,22,83131,0.0-4.0-0.0,xh4ipu9oru7,2022-09-19 16:21:48.717,5d5a8cbeeb68e00018d85fb7,2,66,70,64,70,25,female,,,"<img src=""static/images/cards/stack_of_black_stars.svg"" width=""175px"" height=""250px""></img>",,,,,,,,,,,,,,,,,,,,,,,,,,,,
23,0,,html-keyboard-response,23,84326,0.0-4.0-1.0,xh4ipu9oru7,2022-09-19 16:21:48.717,5d5a8cbeeb68e00018d85fb7,2,66,70,64,70,25,female,681.400000006,,"
  <table>
  <tr height=300>
    <td width=300 height=300><img src=""static/images/cards/back_of_black_stars.svg"" width=""175px"" height=""250px""></img></td>
    <td width=300 height=300><img src=""static/images/cards/back_of_black_stars.svg"" width=""175px"" height=""250px""></img></td>
  </tr>
  <tr height=200>
    <td width=300><img src=""static/images/keys/z.svg"" width=""35%"" height=""75%""></img></td>
    <td width=300><img src=""static/images/keys/m.svg"" width=""35%"" height=""75%""></img></td>
  </tr>
</table>
  ",77.0,1.0,,,,,,,,,,,,,,,,,,,,,,,,,,
24,0,,html-keyboard-response,24,85853,0.0-4.0-2.0,xh4ipu9oru7,2022-09-19 16:21:48.717,5d5a8cbeeb68e00018d85fb7,2,66,70,64,70,25,female,,,"
  <table>
  <tr height=300>
    <td width=300 height=300><img src=""static/images/cards/back_of_black_stars.svg"" width=""175px"" height=""250px""></img></td>
    <td width=300 height=300><img src=""static/images/cards/4_of_black_stars.svg"" width=""175px"" height=""250px""></img></td>
  </tr>
  <tr height=200>
    <td width=300><img src=""static/images/keys/z.svg"" width=""35%"" height=""75%""></img></td>
    <td width=300><img src=""static/images/keys/m.svg"" width=""35%"" height=""75%""></img></td>
  </tr>
</table>
  ",,,,,,,,,,,,,,,,,,,,,,,,,,,,
25,0,,html-keyboard-response,25,87361,0.0-4.0-3.0,xh4ipu9oru7,2022-09-19 16:21:48.717,5d5a8cbeeb68e00018d85fb7,2,66,70,64,70,25,female,,,"<p style=""font-size:50px"">You Lose!
No points this round.</p>",,,,,,,,,,,,,,,,,,,,,,,,,,,,
26,0,,html-keyboard-response,26,87883,0.0-4.0-4.0,xh4ipu9oru7,2022-09-19 16:21:48.717,5d5a8cbeeb68e00018d85fb7,2,66,70,64,70,25,female,,,,,,1.0,learning,0.0,A,,black,,stars,,,,A,black,stars,,1.0,1.0,NA,right,681.400000006,4.0,0.0,0.0,,,
27,0,,html-keyboard-response,27,89393,0.0-4.1-0.1,xh4ipu9oru7,2022-09-19 16:21:48.717,5d5a8cbeeb68e00018d85fb7,2,66,70,64,70,25,female,,,"<img src=""static/images/cards/stack_of_red_stars.svg"" width=""175px"" height=""250px""></img>",,,,,,,,,,,,,,,,,,,,,,,,,,,,
28,0,,html-keyboard-response,28,90656,0.0-4.1-1.1,xh4ipu9oru7,2022-09-19 16:21:48.717,5d5a8cbeeb68e00018d85fb7,2,66,70,64,70,25,female,752.700000003,,"
  <table>
  <tr height=300>
    <td width=300 height=300><img src=""static/images/cards/back_of_red_stars.svg"" width=""175px"" height=""250px""></img></td>
    <td width=300 height=300><img src=""static/images/cards/back_of_red_stars.svg"" width=""175px"" height=""250px""></img></td>
  </tr>
  <tr height=200>
    <td width=300></td>
    <td width=300><img src=""static/images/keys/m.svg"" width=""35%"" height=""75%""></img></td>
  </tr>
</table>
  ",77.0,1.0,,,,,,,,,,,,,,,,,,,,,,,,,,
29,0,,html-keyboard-response,29,92173,0.0-4.1-2.1,xh4ipu9oru7,2022-09-19 16:21:48.717,5d5a8cbeeb68e00018d85fb7,2,66,70,64,70,25,female,,,"
  <table>
  <tr height=300>
    <td width=300 height=300><img src=""static/images/cards/back_of_red_stars.svg"" width=""175px"" height=""250px""></img></td>
    <td width=300 height=300><img src=""static/images/cards/2_of_red_stars.svg"" width=""175px"" height=""250px""></img></td>
  </tr>
  <tr height=200>
    <td width=300></td>
    <td width=300><img src=""static/images/keys/m.svg"" width=""35%"" height=""75%""></img></td>
  </tr>
</table>
  ",,,,,,,,,,,,,,,,,,,,,,,,,,,,
30,0,,html-keyboard-response,30,93692,0.0-4.1-3.1,xh4ipu9oru7,2022-09-19 16:21:48.717,5d5a8cbeeb68e00018d85fb7,2,66,70,64,70,25,female,,,"<p style=""font-size:50px"">You Lose!
No points this round.</p>",,,,,,,,,,,,,,,,,,,,,,,,,,,,
31,0,,html-keyboard-response,31,94219,0.0-4.1-4.1,xh4ipu9oru7,2022-09-19 16:21:48.717,5d5a8cbeeb68e00018d85fb7,2,66,70,64,70,25,female,,,,,,1.0,learning,1.0,B,,red,,stars,,,,B,red,stars,,0.0,1.0,0,right,752.700000003,2.0,0.0,0.0,,,
32,0,,html-keyboard-response,32,95728,0.0-4.2-0.2,xh4ipu9oru7,2022-09-19 16:21:48.717,5d5a8cbeeb68e00018d85fb7,2,66,70,64,70,25,female,,,"<img src=""static/images/cards/stack_of_black_moons.svg"" width=""175px"" height=""250px""></img>",,,,,,,,,,,,,,,,,,,,,,,,,,,,
33,0,,html-keyboard-response,33,96701,0.0-4.2-1.2,xh4ipu9oru7,2022-09-19 16:21:48.717,5d5a8cbeeb68e00018d85fb7,2,66,70,64,70,25,female,461.700000003,,"
  <table>
  <tr height=300>
    <td width=300 height=300><img src=""static/images/cards/back_of_black_moons.svg"" width=""175px"" height=""250px""></img></td>
    <td width=300 height=300><img src=""static/images/cards/back_of_black_moons.svg"" width=""175px"" height=""250px""></img></td>
  </tr>
  <tr height=200>
    <td width=300><img src=""static/images/keys/z.svg"" width=""35%"" height=""75%""></img></td>
    <td width=300><img src=""static/images/keys/m.svg"" width=""35%"" height=""75%""></img></td>
  </tr>
</table>
  ",90.0,1.0,,,,,,,,,,,,,,,,,,,,,,,,,,
34,0,,html-keyboard-response,34,98207,0.0-4.2-2.2,xh4ipu9oru7,2022-09-19 16:21:48.717,5d5a8cbeeb68e00018d85fb7,2,66,70,64,70,25,female,,,"
  <table>
  <tr height=300>
    <td width=300 height=300><img src=""static/images/cards/7_of_black_moons.svg"" width=""175px"" height=""250px""></img></td>
    <td width=300 height=300><img src=""static/images/cards/back_of_black_moons.svg"" width=""175px"" height=""250px""></img></td>
  </tr>
  <tr height=200>
    <td width=300><img src=""static/images/keys/z.svg"" width=""35%"" height=""75%""></img></td>
    <td width=300><img src=""static/images/keys/m.svg"" width=""35%"" height=""75%""></img></td>
  </tr>
</table>
  ",,,,,,,,,,,,,,,,,,,,,,,,,,,,
35,0,,html-keyboard-response,35,99731,0.0-4.2-3.2,xh4ipu9oru7,2022-09-19 16:21:48.717,5d5a8cbeeb68e00018d85fb7,2,66,70,64,70,25,female,,,"<p style=""font-size:50px"">You win!
+10 points this round!</p>",,,,,,,,,,,,,,,,,,,,,,,,,,,,
36,0,,html-keyboard-response,36,100254,0.0-4.2-4.2,xh4ipu9oru7,2022-09-19 16:21:48.717,5d5a8cbeeb68e00018d85fb7,2,66,70,64,70,25,female,,,,,,1.0,learning,2.0,C,,black,,moons,,,,C,black,moons,,1.0,0.0,NA,left,461.700000003,7.0,1.0,1.0,,,
37,0,,html-keyboard-response,37,101772,0.0-4.3-0.3,xh4ipu9oru7,2022-09-19 16:21:48.717,5d5a8cbeeb68e00018d85fb7,2,66,70,64,70,25,female,,,"<img src=""static/images/cards/stack_of_red_moons.svg"" width=""175px"" height=""250px""></img>",,,,,,,,,,,,,,,,,,,,,,,,,,,,
38,0,,html-keyboard-response,38,102643,0.0-4.3-1.3,xh4ipu9oru7,2022-09-19 16:21:48.717,5d5a8cbeeb68e00018d85fb7,2,66,70,64,70,25,female,350.0,,"
  <table>
  <tr height=300>
    <td width=300 height=300><img src=""static/images/cards/back_of_red_moons.svg"" width=""175px"" height=""250px""></img></td>
    <td width=300 height=300><img src=""static/images/cards/back_of_red_moons.svg"" width=""175px"" height=""250px""></img></td>
  </tr>
  <tr height=200>
    <td width=300></td>
    <td width=300><img src=""static/images/keys/m.svg"" width=""35%"" height=""75%""></img></td>
  </tr>
</table>
  ",77.0,1.0,,,,,,,,,,,,,,,,,,,,,,,,,,
39,0,,html-keyboard-response,39,104155,0.0-4.3-2.3,xh4ipu9oru7,2022-09-19 16:21:48.717,5d5a8cbeeb68e00018d85fb7,2,66,70,64,70,25,female,,,"
  <table>
  <tr height=300>
    <td width=300 height=300><img src=""static/images/cards/back_of_red_moons.svg"" width=""175px"" height=""250px""></img></td>
    <td width=300 height=300><img src=""static/images/cards/4_of_red_moons.svg"" width=""175px"" height=""250px""></img></td>
  </tr>
  <tr height=200>
    <td width=300></td>
    <td width=300><img src=""static/images/keys/m.svg"" width=""35%"" height=""75%""></img></td>
  </tr>
</table>
  ",,,,,,,,,,,,,,,,,,,,,,,,,,,,
40,0,,html-keyboard-response,40,105671,0.0-4.3-3.3,xh4ipu9oru7,2022-09-19 16:21:48.717,5d5a8cbeeb68e00018d85fb7,2,66,70,64,70,25,female,,,"<p style=""font-size:50px"">You win!
+10 points this round!</p>",,,,,,,,,,,,,,,,,,,,,,,,,,,,
41,0,,html-keyboard-response,41,106189,0.0-4.3-4.3,xh4ipu9oru7,2022-09-19 16:21:48.717,5d5a8cbeeb68e00018d85fb7,2,66,70,64,70,25,female,,,,,,1.0,learning,3.0,D,,red,,moons,,,,D,red,moons,,0.0,0.0,0,right,350.0,4.0,0.0,1.0,,,
42,0,,html-keyboard-response,42,107701,0.0-4.4-0.4,xh4ipu9oru7,2022-09-19 16:21:48.717,5d5a8cbeeb68e00018d85fb7,2,66,70,64,70,25,female,,,"<img src=""static/images/cards/stack_of_red_bolts.svg"" width=""175px"" height=""250px""></img>",,,,,,,,,,,,,,,,,,,,,,,,,,,,
43,0,,html-keyboard-response,43,108919,0.0-4.4-1.4,xh4ipu9oru7,2022-09-19 16:21:48.717,5d5a8cbeeb68e00018d85fb7,2,66,70,64,70,25,female,699.700000003,,"
  <table>
  <tr height=300>
    <td width=300 height=300><img src=""static/images/cards/back_of_red_bolts.svg"" width=""175px"" height=""250px""></img></td>
    <td width=300 height=300><img src=""static/images/cards/back_of_red_bolts.svg"" width=""175px"" height=""250px""></img></td>
  </tr>
  <tr height=200>
    <td width=300><img src=""static/images/keys/z.svg"" width=""35%"" height=""75%""></img></td>
    <td width=300><img src=""static/images/keys/m.svg"" width=""35%"" height=""75%""></img></td>
  </tr>
</table>
  ",77.0,1.0,,,,,,,,,,,,,,,,,,,,,,,,,,
44,0,,html-keyboard-response,44,110429,0.0-4.4-2.4,xh4ipu9oru7,2022-09-19 16:21:48.717,5d5a8cbeeb68e00018d85fb7,2,66,70,64,70,25,female,,,"
  <table>
  <tr height=300>
    <td width=300 height=300><img src=""static/images/cards/back_of_red_bolts.svg"" width=""175px"" height=""250px""></img></td>
    <td width=300 height=300><img src=""static/images/cards/2_of_red_bolts.svg"" width=""175px"" height=""250px""></img></td>
  </tr>
  <tr height=200>
    <td width=300><img src=""static/images/keys/z.svg"" width=""35%"" height=""75%""></img></td>
    <td width=300><img src=""static/images/keys/m.svg"" width=""35%"" height=""75%""></img></td>
  </tr>
</table>
  ",,,,,,,,,,,,,,,,,,,,,,,,,,,,
45,0,,html-keyboard-response,45,111948,0.0-4.4-3.4,xh4ipu9oru7,2022-09-19 16:21:48.717,5d5a8cbeeb68e00018d85fb7,2,66,70,64,70,25,female,,,"<p style=""font-size:50px"">You win!
+10 points this round!</p>",,,,,,,,,,,,,,,,,,,,,,,,,,,,
46,0,,html-keyboard-response,46,112458,0.0-4.4-4.4,xh4ipu9oru7,2022-09-19 16:21:48.717,5d5a8cbeeb68e00018d85fb7,2,66,70,64,70,25,female,,,,,,1.0,learning,4.0,Xc,,red,,bolts,,,,Xc,red,bolts,,1.0,0.0,NA,right,699.700000003,2.0,0.0,1.0,,,
47,0,,html-keyboard-response,47,113962,0.0-4.5-0.5,xh4ipu9oru7,2022-09-19 16:21:48.717,5d5a8cbeeb68e00018d85fb7,2,66,70,64,70,25,female,,,"<img src=""static/images/cards/stack_of_black_bolts.svg"" width=""175px"" height=""250px""></img>",,,,,,,,,,,,,,,,,,,,,,,,,,,,
48,0,,html-keyboard-response,48,114891,0.0-4.5-1.5,xh4ipu9oru7,2022-09-19 16:21:48.717,5d5a8cbeeb68e00018d85fb7,2,66,70,64,70,25,female,423.299999997,,"
  <table>
  <tr height=300>
    <td width=300 height=300><img src=""static/images/cards/back_of_black_bolts.svg"" width=""175px"" height=""250px""></img></td>
    <td width=300 height=300><img src=""static/images/cards/back_of_black_bolts.svg"" width=""175px"" height=""250px""></img></td>
  </tr>
  <tr height=200>
    <td width=300><img src=""static/images/keys/z.svg"" width=""35%"" height=""75%""></img></td>
    <td width=300></td>
  </tr>
</table>
  ",90.0,1.0,,,,,,,,,,,,,,,,,,,,,,,,,,
49,0,,html-keyboard-response,49,116402,0.0-4.5-2.5,xh4ipu9oru7,2022-09-19 16:21:48.717,5d5a8cbeeb68e00018d85fb7,2,66,70,64,70,25,female,,,"
  <table>
  <tr height=300>
    <td width=300 height=300><img src=""static/images/cards/7_of_black_bolts.svg"" width=""175px"" height=""250px""></img></td>
    <td width=300 height=300><img src=""static/images/cards/back_of_black_bolts.svg"" width=""175px"" height=""250px""></img></td>
  </tr>
  <tr height=200>
    <td width=300><img src=""static/images/keys/z.svg"" width=""35%"" height=""75%""></img></td>
    <td width=300></td>
  </tr>
</table>
  ",,,,,,,,,,,,,,,,,,,,,,,,,,,,
50,0,,html-keyboard-response,50,117918,0.0-4.5-3.5,xh4ipu9oru7,2022-09-19 16:21:48.717,5d5a8cbeeb68e00018d85fb7,2,66,70,64,70,25,female,,,"<p style=""font-size:50px"">You win!
+10 points this round!</p>",,,,,,,,,,,,,,,,,,,,,,,,,,,,
51,0,,html-keyboard-response,51,118436,0.0-4.5-4.5,xh4ipu9oru7,2022-09-19 16:21:48.717,5d5a8cbeeb68e00018d85fb7,2,66,70,64,70,25,female,,,,,,1.0,learning,5.0,Xnc,,black,,bolts,,,,Xnc,black,bolts,,0.0,0.0,1,left,423.299999997,7.0,1.0,1.0,,,
52,0,,html-keyboard-response,52,119938,0.0-4.6-0.6,xh4ipu9oru7,2022-09-19 16:21:48.717,5d5a8cbeeb68e00018d85fb7,2,66,70,64,70,25,female,,,"<img src=""static/images/cards/stack_of_black_stars.svg"" width=""175px"" height=""250px""></img>",,,,,,,,,,,,,,,,,,,,,,,,,,,,
53,0,,html-keyboard-response,53,120924,0.0-4.6-1.6,xh4ipu9oru7,2022-09-19 16:21:48.717,5d5a8cbeeb68e00018d85fb7,2,66,70,64,70,25,female,478.200000003,,"
  <table>
  <tr height=300>
    <td width=300 height=300><img src=""static/images/cards/back_of_black_stars.svg"" width=""175px"" height=""250px""></img></td>
    <td width=300 height=300><img src=""static/images/cards/back_of_black_stars.svg"" width=""175px"" height=""250px""></img></td>
  </tr>
  <tr height=200>
    <td width=300><img src=""static/images/keys/z.svg"" width=""35%"" height=""75%""></img></td>
    <td width=300><img src=""static/images/keys/m.svg"" width=""35%"" height=""75%""></img></td>
  </tr>
</table>
  ",77.0,1.0,,,,,,,,,,,,,,,,,,,,,,,,,,
54,0,,html-keyboard-response,54,122437,0.0-4.6-2.6,xh4ipu9oru7,2022-09-19 16:21:48.717,5d5a8cbeeb68e00018d85fb7,2,66,70,64,70,25,female,,,"
  <table>
  <tr height=300>
    <td width=300 height=300><img src=""static/images/cards/back_of_black_stars.svg"" width=""175px"" height=""250px""></img></td>
    <td width=300 height=300><img src=""static/images/cards/9_of_black_stars.svg"" width=""175px"" height=""250px""></img></td>
  </tr>
  <tr height=200>
    <td width=300><img src=""static/images/keys/z.svg"" width=""35%"" height=""75%""></img></td>
    <td width=300><img src=""static/images/keys/m.svg"" width=""35%"" height=""75%""></img></td>
  </tr>
</table>
  ",,,,,,,,,,,,,,,,,,,,,,,,,,,,
55,0,,html-keyboard-response,55,123954,0.0-4.6-3.6,xh4ipu9oru7,2022-09-19 16:21:48.717,5d5a8cbeeb68e00018d85fb7,2,66,70,64,70,25,female,,,"<p style=""font-size:50px"">You win!
+10 points this round!</p>",,,,,,,,,,,,,,,,,,,,,,,,,,,,
56,0,,html-keyboard-response,56,124474,0.0-4.6-4.6,xh4ipu9oru7,2022-09-19 16:21:48.717,5d5a8cbeeb68e00018d85fb7,2,66,70,64,70,25,female,,,,,,1.0,learning,6.0,A,,black,,stars,,,,A,black,stars,,1.0,1.0,NA,right,478.200000003,9.0,1.0,1.0,,,
57,0,,html-keyboard-response,57,125984,0.0-4.7-0.7,xh4ipu9oru7,2022-09-19 16:21:48.717,5d5a8cbeeb68e00018d85fb7,2,66,70,64,70,25,female,,,"<img src=""static/images/cards/stack_of_red_stars.svg"" width=""175px"" height=""250px""></img>",,,,,,,,,,,,,,,,,,,,,,,,,,,,
58,0,,html-keyboard-response,58,126850,0.0-4.7-1.7,xh4ipu9oru7,2022-09-19 16:21:48.717,5d5a8cbeeb68e00018d85fb7,2,66,70,64,70,25,female,355.0,,"
  <table>
  <tr height=300>
    <td width=300 height=300><img src=""static/images/cards/back_of_red_stars.svg"" width=""175px"" height=""250px""></img></td>
    <td width=300 height=300><img src=""static/images/cards/back_of_red_stars.svg"" width=""175px"" height=""250px""></img></td>
  </tr>
  <tr height=200>
    <td width=300><img src=""static/images/keys/z.svg"" width=""35%"" height=""75%""></img></td>
    <td width=300></td>
  </tr>
</table>
  ",90.0,1.0,,,,,,,,,,,,,,,,,,,,,,,,,,
59,0,,html-keyboard-response,59,128370,0.0-4.7-2.7,xh4ipu9oru7,2022-09-19 16:21:48.717,5d5a8cbeeb68e00018d85fb7,2,66,70,64,70,25,female,,,"
  <table>
  <tr height=300>
    <td width=300 height=300><img src=""static/images/cards/9_of_red_stars.svg"" width=""175px"" height=""250px""></img></td>
    <td width=300 height=300><img src=""static/images/cards/back_of_red_stars.svg"" width=""175px"" height=""250px""></img></td>
  </tr>
  <tr height=200>
    <td width=300><img src=""static/images/keys/z.svg"" width=""35%"" height=""75%""></img></td>
    <td width=300></td>
  </tr>
</table>
  ",,,,,,,,,,,,,,,,,,,,,,,,,,,,
60,0,,html-keyboard-response,60,129889,0.0-4.7-3.7,xh4ipu9oru7,2022-09-19 16:21:48.717,5d5a8cbeeb68e00018d85fb7,2,66,70,64,70,25,female,,,"<p style=""font-size:50px"">You win!
+10 points this round!</p>",,,,,,,,,,,,,,,,,,,,,,,,,,,,
61,0,,html-keyboard-response,61,130415,0.0-4.7-4.7,xh4ipu9oru7,2022-09-19 16:21:48.717,5d5a8cbeeb68e00018d85fb7,2,66,70,64,70,25,female,,,,,,1.0,learning,7.0,B,,red,,stars,,,,B,red,stars,,0.0,1.0,1,left,355.0,9.0,1.0,1.0,,,
62,0,,html-keyboard-response,62,131932,0.0-4.8-0.8,xh4ipu9oru7,2022-09-19 16:21:48.717,5d5a8cbeeb68e00018d85fb7,2,66,70,64,70,25,female,,,"<img src=""static/images/cards/stack_of_black_moons.svg"" width=""175px"" height=""250px""></img>",,,,,,,,,,,,,,,,,,,,,,,,,,,,
63,0,,html-keyboard-response,63,132934,0.0-4.8-1.8,xh4ipu9oru7,2022-09-19 16:21:48.717,5d5a8cbeeb68e00018d85fb7,2,66,70,64,70,25,female,482.5,,"
  <table>
  <tr height=300>
    <td width=300 height=300><img src=""static/images/cards/back_of_black_moons.svg"" width=""175px"" height=""250px""></img></td>
    <td width=300 height=300><img src=""static/images/cards/back_of_black_moons.svg"" width=""175px"" height=""250px""></img></td>
  </tr>
  <tr height=200>
    <td width=300><img src=""static/images/keys/z.svg"" width=""35%"" height=""75%""></img></td>
    <td width=300><img src=""static/images/keys/m.svg"" width=""35%"" height=""75%""></img></td>
  </tr>
</table>
  ",90.0,1.0,,,,,,,,,,,,,,,,,,,,,,,,,,
64,0,,html-keyboard-response,64,134449,0.0-4.8-2.8,xh4ipu9oru7,2022-09-19 16:21:48.717,5d5a8cbeeb68e00018d85fb7,2,66,70,64,70,25,female,,,"
  <table>
  <tr height=300>
    <td width=300 height=300><img src=""static/images/cards/4_of_black_moons.svg"" width=""175px"" height=""250px""></img></td>
    <td width=300 height=300><img src=""static/images/cards/back_of_black_moons.svg"" width=""175px"" height=""250px""></img></td>
  </tr>
  <tr height=200>
    <td width=300><img src=""static/images/keys/z.svg"" width=""35%"" height=""75%""></img></td>
    <td width=300><img src=""static/images/keys/m.svg"" width=""35%"" height=""75%""></img></td>
  </tr>
</table>
  ",,,,,,,,,,,,,,,,,,,,,,,,,,,,
65,0,,html-keyboard-response,65,135970,0.0-4.8-3.8,xh4ipu9oru7,2022-09-19 16:21:48.717,5d5a8cbeeb68e00018d85fb7,2,66,70,64,70,25,female,,,"<p style=""font-size:50px"">You Lose!
No points this round.</p>",,,,,,,,,,,,,,,,,,,,,,,,,,,,
66,0,,html-keyboard-response,66,136496,0.0-4.8-4.8,xh4ipu9oru7,2022-09-19 16:21:48.717,5d5a8cbeeb68e00018d85fb7,2,66,70,64,70,25,female,,,,,,1.0,learning,8.0,C,,black,,moons,,,,C,black,moons,,1.0,0.0,NA,left,482.5,4.0,0.0,0.0,,,
67,0,,html-keyboard-response,67,138004,0.0-4.9-0.9,xh4ipu9oru7,2022-09-19 16:21:48.717,5d5a8cbeeb68e00018d85fb7,2,66,70,64,70,25,female,,,"<img src=""static/images/cards/stack_of_red_moons.svg"" width=""175px"" height=""250px""></img>",,,,,,,,,,,,,,,,,,,,,,,,,,,,
68,0,,html-keyboard-response,68,138880,0.0-4.9-1.9,xh4ipu9oru7,2022-09-19 16:21:48.717,5d5a8cbeeb68e00018d85fb7,2,66,70,64,70,25,female,364.8999999911,,"
  <table>
  <tr height=300>
    <td width=300 height=300><img src=""static/images/cards/back_of_red_moons.svg"" width=""175px"" height=""250px""></img></td>
    <td width=300 height=300><img src=""static/images/cards/back_of_red_moons.svg"" width=""175px"" height=""250px""></img></td>
  </tr>
  <tr height=200>
    <td width=300></td>
    <td width=300><img src=""static/images/keys/m.svg"" width=""35%"" height=""75%""></img></td>
  </tr>
</table>
  ",77.0,1.0,,,,,,,,,,,,,,,,,,,,,,,,,,
69,0,,html-keyboard-response,69,140399,0.0-4.9-2.9,xh4ipu9oru7,2022-09-19 16:21:48.717,5d5a8cbeeb68e00018d85fb7,2,66,70,64,70,25,female,,,"
  <table>
  <tr height=300>
    <td width=300 height=300><img src=""static/images/cards/back_of_red_moons.svg"" width=""175px"" height=""250px""></img></td>
    <td width=300 height=300><img src=""static/images/cards/2_of_red_moons.svg"" width=""175px"" height=""250px""></img></td>
  </tr>
  <tr height=200>
    <td width=300></td>
    <td width=300><img src=""static/images/keys/m.svg"" width=""35%"" height=""75%""></img></td>
  </tr>
</table>
  ",,,,,,,,,,,,,,,,,,,,,,,,,,,,
70,0,,html-keyboard-response,70,141913,0.0-4.9-3.9,xh4ipu9oru7,2022-09-19 16:21:48.717,5d5a8cbeeb68e00018d85fb7,2,66,70,64,70,25,female,,,"<p style=""font-size:50px"">You Lose!
No points this round.</p>",,,,,,,,,,,,,,,,,,,,,,,,,,,,
71,0,,html-keyboard-response,71,142431,0.0-4.9-4.9,xh4ipu9oru7,2022-09-19 16:21:48.717,5d5a8cbeeb68e00018d85fb7,2,66,70,64,70,25,female,,,,,,1.0,learning,9.0,D,,red,,moons,,,,D,red,moons,,0.0,0.0,0,right,364.8999999911,2.0,0.0,0.0,,,
72,0,,html-keyboard-response,72,143940,0.0-4.10-0.10,xh4ipu9oru7,2022-09-19 16:21:48.717,5d5a8cbeeb68e00018d85fb7,2,66,70,64,70,25,female,,,"<img src=""static/images/cards/stack_of_red_bolts.svg"" width=""175px"" height=""250px""></img>",,,,,,,,,,,,,,,,,,,,,,,,,,,,
73,0,,html-keyboard-response,73,144880,0.0-4.10-1.10,xh4ipu9oru7,2022-09-19 16:21:48.717,5d5a8cbeeb68e00018d85fb7,2,66,70,64,70,25,female,425.0,,"
  <table>
  <tr height=300>
    <td width=300 height=300><img src=""static/images/cards/back_of_red_bolts.svg"" width=""175px"" height=""250px""></img></td>
    <td width=300 height=300><img src=""static/images/cards/back_of_red_bolts.svg"" width=""175px"" height=""250px""></img></td>
  </tr>
  <tr height=200>
    <td width=300><img src=""static/images/keys/z.svg"" width=""35%"" height=""75%""></img></td>
    <td width=300><img src=""static/images/keys/m.svg"" width=""35%"" height=""75%""></img></td>
  </tr>
</table>
  ",77.0,1.0,,,,,,,,,,,,,,,,,,,,,,,,,,
74,0,,html-keyboard-response,74,146385,0.0-4.10-2.10,xh4ipu9oru7,2022-09-19 16:21:48.717,5d5a8cbeeb68e00018d85fb7,2,66,70,64,70,25,female,,,"
  <table>
  <tr height=300>
    <td width=300 height=300><img src=""static/images/cards/back_of_red_bolts.svg"" width=""175px"" height=""250px""></img></td>
    <td width=300 height=300><img src=""static/images/cards/8_of_red_bolts.svg"" width=""175px"" height=""250px""></img></td>
  </tr>
  <tr height=200>
    <td width=300><img src=""static/images/keys/z.svg"" width=""35%"" height=""75%""></img></td>
    <td width=300><img src=""static/images/keys/m.svg"" width=""35%"" height=""75%""></img></td>
  </tr>
</table>
  ",,,,,,,,,,,,,,,,,,,,,,,,,,,,
75,0,,html-keyboard-response,75,147906,0.0-4.10-3.10,xh4ipu9oru7,2022-09-19 16:21:48.717,5d5a8cbeeb68e00018d85fb7,2,66,70,64,70,25,female,,,"<p style=""font-size:50px"">You win!
+10 points this round!</p>",,,,,,,,,,,,,,,,,,,,,,,,,,,,
76,0,,html-keyboard-response,76,148432,0.0-4.10-4.10,xh4ipu9oru7,2022-09-19 16:21:48.717,5d5a8cbeeb68e00018d85fb7,2,66,70,64,70,25,female,,,,,,1.0,learning,10.0,Xc,,red,,bolts,,,,Xc,red,bolts,,1.0,0.0,NA,right,425.0,8.0,1.0,1.0,,,
77,0,,html-keyboard-response,77,149949,0.0-4.11-0.11,xh4ipu9oru7,2022-09-19 16:21:48.717,5d5a8cbeeb68e00018d85fb7,2,66,70,64,70,25,female,,,"<img src=""static/images/cards/stack_of_black_bolts.svg"" width=""175px"" height=""250px""></img>",,,,,,,,,,,,,,,,,,,,,,,,,,,,
78,0,,html-keyboard-response,78,150812,0.0-4.11-1.11,xh4ipu9oru7,2022-09-19 16:21:48.717,5d5a8cbeeb68e00018d85fb7,2,66,70,64,70,25,female,355.099999994,,"
  <table>
  <tr height=300>
    <td width=300 height=300><img src=""static/images/cards/back_of_black_bolts.svg"" width=""175px"" height=""250px""></img></td>
    <td width=300 height=300><img src=""static/images/cards/back_of_black_bolts.svg"" width=""175px"" height=""250px""></img></td>
  </tr>
  <tr height=200>
    <td width=300><img src=""static/images/keys/z.svg"" width=""35%"" height=""75%""></img></td>
    <td width=300></td>
  </tr>
</table>
  ",90.0,1.0,,,,,,,,,,,,,,,,,,,,,,,,,,
79,0,,html-keyboard-response,79,152332,0.0-4.11-2.11,xh4ipu9oru7,2022-09-19 16:21:48.717,5d5a8cbeeb68e00018d85fb7,2,66,70,64,70,25,female,,,"
  <table>
  <tr height=300>
    <td width=300 height=300><img src=""static/images/cards/2_of_black_bolts.svg"" width=""175px"" height=""250px""></img></td>
    <td width=300 height=300><img src=""static/images/cards/back_of_black_bolts.svg"" width=""175px"" height=""250px""></img></td>
  </tr>
  <tr height=200>
    <td width=300><img src=""static/images/keys/z.svg"" width=""35%"" height=""75%""></img></td>
    <td width=300></td>
  </tr>
</table>
  ",,,,,,,,,,,,,,,,,,,,,,,,,,,,
80,0,,html-keyboard-response,80,153863,0.0-4.11-3.11,xh4ipu9oru7,2022-09-19 16:21:48.717,5d5a8cbeeb68e00018d85fb7,2,66,70,64,70,25,female,,,"<p style=""font-size:50px"">You win!
+10 points this round!</p>",,,,,,,,,,,,,,,,,,,,,,,,,,,,
81,0,,html-keyboard-response,81,154384,0.0-4.11-4.11,xh4ipu9oru7,2022-09-19 16:21:48.717,5d5a8cbeeb68e00018d85fb7,2,66,70,64,70,25,female,,,,,,1.0,learning,11.0,Xnc,,black,,bolts,,,,Xnc,black,bolts,,0.0,0.0,1,left,355.099999994,2.0,0.0,1.0,,,
82,0,,html-keyboard-response,82,155896,0.0-4.12-0.12,xh4ipu9oru7,2022-09-19 16:21:48.717,5d5a8cbeeb68e00018d85fb7,2,66,70,64,70,25,female,,,"<img src=""static/images/cards/stack_of_black_stars.svg"" width=""175px"" height=""250px""></img>",,,,,,,,,,,,,,,,,,,,,,,,,,,,
83,0,,html-keyboard-response,83,156759,0.0-4.12-1.12,xh4ipu9oru7,2022-09-19 16:21:48.717,5d5a8cbeeb68e00018d85fb7,2,66,70,64,70,25,female,344.1999999881,,"
  <table>
  <tr height=300>
    <td width=300 height=300><img src=""static/images/cards/back_of_black_stars.svg"" width=""175px"" height=""250px""></img></td>
    <td width=300 height=300><img src=""static/images/cards/back_of_black_stars.svg"" width=""175px"" height=""250px""></img></td>
  </tr>
  <tr height=200>
    <td width=300><img src=""static/images/keys/z.svg"" width=""35%"" height=""75%""></img></td>
    <td width=300><img src=""static/images/keys/m.svg"" width=""35%"" height=""75%""></img></td>
  </tr>
</table>
  ",77.0,1.0,,,,,,,,,,,,,,,,,,,,,,,,,,
84,0,,html-keyboard-response,84,158286,0.0-4.12-2.12,xh4ipu9oru7,2022-09-19 16:21:48.717,5d5a8cbeeb68e00018d85fb7,2,66,70,64,70,25,female,,,"
  <table>
  <tr height=300>
    <td width=300 height=300><img src=""static/images/cards/back_of_black_stars.svg"" width=""175px"" height=""250px""></img></td>
    <td width=300 height=300><img src=""static/images/cards/10_of_black_stars.svg"" width=""175px"" height=""250px""></img></td>
  </tr>
  <tr height=200>
    <td width=300><img src=""static/images/keys/z.svg"" width=""35%"" height=""75%""></img></td>
    <td width=300><img src=""static/images/keys/m.svg"" width=""35%"" height=""75%""></img></td>
  </tr>
</table>
  ",,,,,,,,,,,,,,,,,,,,,,,,,,,,
85,0,,html-keyboard-response,85,159792,0.0-4.12-3.12,xh4ipu9oru7,2022-09-19 16:21:48.717,5d5a8cbeeb68e00018d85fb7,2,66,70,64,70,25,female,,,"<p style=""font-size:50px"">You win!
+10 points this round!</p>",,,,,,,,,,,,,,,,,,,,,,,,,,,,
86,0,,html-keyboard-response,86,160311,0.0-4.12-4.12,xh4ipu9oru7,2022-09-19 16:21:48.717,5d5a8cbeeb68e00018d85fb7,2,66,70,64,70,25,female,,,,,,1.0,learning,12.0,A,,black,,stars,,,,A,black,stars,,1.0,1.0,NA,right,344.1999999881,10.0,1.0,1.0,,,
87,0,,html-keyboard-response,87,161826,0.0-4.13-0.13,xh4ipu9oru7,2022-09-19 16:21:48.717,5d5a8cbeeb68e00018d85fb7,2,66,70,64,70,25,female,,,"<img src=""static/images/cards/stack_of_red_stars.svg"" width=""175px"" height=""250px""></img>",,,,,,,,,,,,,,,,,,,,,,,,,,,,
88,0,,html-keyboard-response,88,162686,0.0-4.13-1.13,xh4ipu9oru7,2022-09-19 16:21:48.717,5d5a8cbeeb68e00018d85fb7,2,66,70,64,70,25,female,352.0,,"
  <table>
  <tr height=300>
    <td width=300 height=300><img src=""static/images/cards/back_of_red_stars.svg"" width=""175px"" height=""250px""></img></td>
    <td width=300 height=300><img src=""static/images/cards/back_of_red_stars.svg"" width=""175px"" height=""250px""></img></td>
  </tr>
  <tr height=200>
    <td width=300><img src=""static/images/keys/z.svg"" width=""35%"" height=""75%""></img></td>
    <td width=300></td>
  </tr>
</table>
  ",90.0,1.0,,,,,,,,,,,,,,,,,,,,,,,,,,
89,0,,html-keyboard-response,89,164202,0.0-4.13-2.13,xh4ipu9oru7,2022-09-19 16:21:48.717,5d5a8cbeeb68e00018d85fb7,2,66,70,64,70,25,female,,,"
  <table>
  <tr height=300>
    <td width=300 height=300><img src=""static/images/cards/2_of_red_stars.svg"" width=""175px"" height=""250px""></img></td>
    <td width=300 height=300><img src=""static/images/cards/back_of_red_stars.svg"" width=""175px"" height=""250px""></img></td>
  </tr>
  <tr height=200>
    <td width=300><img src=""static/images/keys/z.svg"" width=""35%"" height=""75%""></img></td>
    <td width=300></td>
  </tr>
</table>
  ",,,,,,,,,,,,,,,,,,,,,,,,,,,,
90,0,,html-keyboard-response,90,165715,0.0-4.13-3.13,xh4ipu9oru7,2022-09-19 16:21:48.717,5d5a8cbeeb68e00018d85fb7,2,66,70,64,70,25,female,,,"<p style=""font-size:50px"">You Lose!
No points this round.</p>",,,,,,,,,,,,,,,,,,,,,,,,,,,,
91,0,,html-keyboard-response,91,166230,0.0-4.13-4.13,xh4ipu9oru7,2022-09-19 16:21:48.717,5d5a8cbeeb68e00018d85fb7,2,66,70,64,70,25,female,,,,,,1.0,learning,13.0,B,,red,,stars,,,,B,red,stars,,0.0,1.0,1,left,352.0,2.0,0.0,0.0,,,
92,0,,html-keyboard-response,92,167748,0.0-4.14-0.14,xh4ipu9oru7,2022-09-19 16:21:48.717,5d5a8cbeeb68e00018d85fb7,2,66,70,64,70,25,female,,,"<img src=""static/images/cards/stack_of_black_moons.svg"" width=""175px"" height=""250px""></img>",,,,,,,,,,,,,,,,,,,,,,,,,,,,
93,0,,html-keyboard-response,93,168625,0.0-4.14-1.14,xh4ipu9oru7,2022-09-19 16:21:48.717,5d5a8cbeeb68e00018d85fb7,2,66,70,64,70,25,female,372.200000003,,"
  <table>
  <tr height=300>
    <td width=300 height=300><img src=""static/images/cards/back_of_black_moons.svg"" width=""175px"" height=""250px""></img></td>
    <td width=300 height=300><img src=""static/images/cards/back_of_black_moons.svg"" width=""175px"" height=""250px""></img></td>
  </tr>
  <tr height=200>
    <td width=300><img src=""static/images/keys/z.svg"" width=""35%"" height=""75%""></img></td>
    <td width=300><img src=""static/images/keys/m.svg"" width=""35%"" height=""75%""></img></td>
  </tr>
</table>
  ",77.0,1.0,,,,,,,,,,,,,,,,,,,,,,,,,,
94,0,,html-keyboard-response,94,170142,0.0-4.14-2.14,xh4ipu9oru7,2022-09-19 16:21:48.717,5d5a8cbeeb68e00018d85fb7,2,66,70,64,70,25,female,,,"
  <table>
  <tr height=300>
    <td width=300 height=300><img src=""static/images/cards/back_of_black_moons.svg"" width=""175px"" height=""250px""></img></td>
    <td width=300 height=300><img src=""static/images/cards/3_of_black_moons.svg"" width=""175px"" height=""250px""></img></td>
  </tr>
  <tr height=200>
    <td width=300><img src=""static/images/keys/z.svg"" width=""35%"" height=""75%""></img></td>
    <td width=300><img src=""static/images/keys/m.svg"" width=""35%"" height=""75%""></img></td>
  </tr>
</table>
  ",,,,,,,,,,,,,,,,,,,,,,,,,,,,
95,0,,html-keyboard-response,95,171665,0.0-4.14-3.14,xh4ipu9oru7,2022-09-19 16:21:48.717,5d5a8cbeeb68e00018d85fb7,2,66,70,64,70,25,female,,,"<p style=""font-size:50px"">You win!
+10 points this round!</p>",,,,,,,,,,,,,,,,,,,,,,,,,,,,
96,0,,html-keyboard-response,96,172181,0.0-4.14-4.14,xh4ipu9oru7,2022-09-19 16:21:48.717,5d5a8cbeeb68e00018d85fb7,2,66,70,64,70,25,female,,,,,,1.0,learning,14.0,C,,black,,moons,,,,C,black,moons,,1.0,0.0,NA,right,372.200000003,3.0,0.0,1.0,,,
97,0,,html-keyboard-response,97,173685,0.0-4.15-0.15,xh4ipu9oru7,2022-09-19 16:21:48.717,5d5a8cbeeb68e00018d85fb7,2,66,70,64,70,25,female,,,"<img src=""static/images/cards/stack_of_red_moons.svg"" width=""175px"" height=""250px""></img>",,,,,,,,,,,,,,,,,,,,,,,,,,,,
98,0,,html-keyboard-response,98,174596,0.0-4.15-1.15,xh4ipu9oru7,2022-09-19 16:21:48.717,5d5a8cbeeb68e00018d85fb7,2,66,70,64,70,25,female,397.0,,"
  <table>
  <tr height=300>
    <td width=300 height=300><img src=""static/images/cards/back_of_red_moons.svg"" width=""175px"" height=""250px""></img></td>
    <td width=300 height=300><img src=""static/images/cards/back_of_red_moons.svg"" width=""175px"" height=""250px""></img></td>
  </tr>
  <tr height=200>
    <td width=300><img src=""static/images/keys/z.svg"" width=""35%"" height=""75%""></img></td>
    <td width=300></td>
  </tr>
</table>
  ",90.0,1.0,,,,,,,,,,,,,,,,,,,,,,,,,,
99,0,,html-keyboard-response,99,176101,0.0-4.15-2.15,xh4ipu9oru7,2022-09-19 16:21:48.717,5d5a8cbeeb68e00018d85fb7,2,66,70,64,70,25,female,,,"
  <table>
  <tr height=300>
    <td width=300 height=300><img src=""static/images/cards/9_of_red_moons.svg"" width=""175px"" height=""250px""></img></td>
    <td width=300 height=300><img src=""static/images/cards/back_of_red_moons.svg"" width=""175px"" height=""250px""></img></td>
  </tr>
  <tr height=200>
    <td width=300><img src=""static/images/keys/z.svg"" width=""35%"" height=""75%""></img></td>
    <td width=300></td>
  </tr>
</table>
  ",,,,,,,,,,,,,,,,,,,,,,,,,,,,
100,0,,html-keyboard-response,100,177605,0.0-4.15-3.15,xh4ipu9oru7,2022-09-19 16:21:48.717,5d5a8cbeeb68e00018d85fb7,2,66,70,64,70,25,female,,,"<p style=""font-size:50px"">You Lose!
No points this round.</p>",,,,,,,,,,,,,,,,,,,,,,,,,,,,
101,0,,html-keyboard-response,101,178129,0.0-4.15-4.15,xh4ipu9oru7,2022-09-19 16:21:48.717,5d5a8cbeeb68e00018d85fb7,2,66,70,64,70,25,female,,,,,,1.0,learning,15.0,D,,red,,moons,,,,D,red,moons,,0.0,0.0,1,left,397.0,9.0,1.0,0.0,,,
102,0,,html-keyboard-response,102,179639,0.0-4.16-0.16,xh4ipu9oru7,2022-09-19 16:21:48.717,5d5a8cbeeb68e00018d85fb7,2,66,70,64,70,25,female,,,"<img src=""static/images/cards/stack_of_red_bolts.svg"" width=""175px"" height=""250px""></img>",,,,,,,,,,,,,,,,,,,,,,,,,,,,
103,0,,html-keyboard-response,103,180577,0.0-4.16-1.16,xh4ipu9oru7,2022-09-19 16:21:48.717,5d5a8cbeeb68e00018d85fb7,2,66,70,64,70,25,female,434.299999997,,"
  <table>
  <tr height=300>
    <td width=300 height=300><img src=""static/images/cards/back_of_red_bolts.svg"" width=""175px"" height=""250px""></img></td>
    <td width=300 height=300><img src=""static/images/cards/back_of_red_bolts.svg"" width=""175px"" height=""250px""></img></td>
  </tr>
  <tr height=200>
    <td width=300><img src=""static/images/keys/z.svg"" width=""35%"" height=""75%""></img></td>
    <td width=300><img src=""static/images/keys/m.svg"" width=""35%"" height=""75%""></img></td>
  </tr>
</table>
  ",77.0,1.0,,,,,,,,,,,,,,,,,,,,,,,,,,
104,0,,html-keyboard-response,104,182080,0.0-4.16-2.16,xh4ipu9oru7,2022-09-19 16:21:48.717,5d5a8cbeeb68e00018d85fb7,2,66,70,64,70,25,female,,,"
  <table>
  <tr height=300>
    <td width=300 height=300><img src=""static/images/cards/back_of_red_bolts.svg"" width=""175px"" height=""250px""></img></td>
    <td width=300 height=300><img src=""static/images/cards/7_of_red_bolts.svg"" width=""175px"" height=""250px""></img></td>
  </tr>
  <tr height=200>
    <td width=300><img src=""static/images/keys/z.svg"" width=""35%"" height=""75%""></img></td>
    <td width=300><img src=""static/images/keys/m.svg"" width=""35%"" height=""75%""></img></td>
  </tr>
</table>
  ",,,,,,,,,,,,,,,,,,,,,,,,,,,,
105,0,,html-keyboard-response,105,183585,0.0-4.16-3.16,xh4ipu9oru7,2022-09-19 16:21:48.717,5d5a8cbeeb68e00018d85fb7,2,66,70,64,70,25,female,,,"<p style=""font-size:50px"">You win!
+10 points this round!</p>",,,,,,,,,,,,,,,,,,,,,,,,,,,,
106,0,,html-keyboard-response,106,184105,0.0-4.16-4.16,xh4ipu9oru7,2022-09-19 16:21:48.717,5d5a8cbeeb68e00018d85fb7,2,66,70,64,70,25,female,,,,,,1.0,learning,16.0,Xc,,red,,bolts,,,,Xc,red,bolts,,1.0,0.0,NA,right,434.299999997,7.0,1.0,1.0,,,
107,0,,html-keyboard-response,107,185607,0.0-4.17-0.17,xh4ipu9oru7,2022-09-19 16:21:48.717,5d5a8cbeeb68e00018d85fb7,2,66,70,64,70,25,female,,,"<img src=""static/images/cards/stack_of_black_bolts.svg"" width=""175px"" height=""250px""></img>",,,,,,,,,,,,,,,,,,,,,,,,,,,,
108,0,,html-keyboard-response,108,186486,0.0-4.17-1.17,xh4ipu9oru7,2022-09-19 16:21:48.717,5d5a8cbeeb68e00018d85fb7,2,66,70,64,70,25,female,367.5,,"
  <table>
  <tr height=300>
    <td width=300 height=300><img src=""static/images/cards/back_of_black_bolts.svg"" width=""175px"" height=""250px""></img></td>
    <td width=300 height=300><img src=""static/images/cards/back_of_black_bolts.svg"" width=""175px"" height=""250px""></img></td>
  </tr>
  <tr height=200>
    <td width=300></td>
    <td width=300><img src=""static/images/keys/m.svg"" width=""35%"" height=""75%""></img></td>
  </tr>
</table>
  ",77.0,1.0,,,,,,,,,,,,,,,,,,,,,,,,,,
109,0,,html-keyboard-response,109,188004,0.0-4.17-2.17,xh4ipu9oru7,2022-09-19 16:21:48.717,5d5a8cbeeb68e00018d85fb7,2,66,70,64,70,25,female,,,"
  <table>
  <tr height=300>
    <td width=300 height=300><img src=""static/images/cards/back_of_black_bolts.svg"" width=""175px"" height=""250px""></img></td>
    <td width=300 height=300><img src=""static/images/cards/10_of_black_bolts.svg"" width=""175px"" height=""250px""></img></td>
  </tr>
  <tr height=200>
    <td width=300></td>
    <td width=300><img src=""static/images/keys/m.svg"" width=""35%"" height=""75%""></img></td>
  </tr>
</table>
  ",,,,,,,,,,,,,,,,,,,,,,,,,,,,
110,0,,html-keyboard-response,110,189513,0.0-4.17-3.17,xh4ipu9oru7,2022-09-19 16:21:48.717,5d5a8cbeeb68e00018d85fb7,2,66,70,64,70,25,female,,,"<p style=""font-size:50px"">You win!
+10 points this round!</p>",,,,,,,,,,,,,,,,,,,,,,,,,,,,
111,0,,html-keyboard-response,111,190031,0.0-4.17-4.17,xh4ipu9oru7,2022-09-19 16:21:48.717,5d5a8cbeeb68e00018d85fb7,2,66,70,64,70,25,female,,,,,,1.0,learning,17.0,Xnc,,black,,bolts,,,,Xnc,black,bolts,,0.0,0.0,0,right,367.5,10.0,1.0,1.0,,,
112,0,,html-keyboard-response,112,191536,0.0-4.18-0.18,xh4ipu9oru7,2022-09-19 16:21:48.717,5d5a8cbeeb68e00018d85fb7,2,66,70,64,70,25,female,,,"<img src=""static/images/cards/stack_of_black_stars.svg"" width=""175px"" height=""250px""></img>",,,,,,,,,,,,,,,,,,,,,,,,,,,,
113,0,,html-keyboard-response,113,192485,0.0-4.18-1.18,xh4ipu9oru7,2022-09-19 16:21:48.717,5d5a8cbeeb68e00018d85fb7,2,66,70,64,70,25,female,446.6999999881,,"
  <table>
  <tr height=300>
    <td width=300 height=300><img src=""static/images/cards/back_of_black_stars.svg"" width=""175px"" height=""250px""></img></td>
    <td width=300 height=300><img src=""static/images/cards/back_of_black_stars.svg"" width=""175px"" height=""250px""></img></td>
  </tr>
  <tr height=200>
    <td width=300><img src=""static/images/keys/z.svg"" width=""35%"" height=""75%""></img></td>
    <td width=300><img src=""static/images/keys/m.svg"" width=""35%"" height=""75%""></img></td>
  </tr>
</table>
  ",90.0,1.0,,,,,,,,,,,,,,,,,,,,,,,,,,
114,0,,html-keyboard-response,114,194002,0.0-4.18-2.18,xh4ipu9oru7,2022-09-19 16:21:48.717,5d5a8cbeeb68e00018d85fb7,2,66,70,64,70,25,female,,,"
  <table>
  <tr height=300>
    <td width=300 height=300><img src=""static/images/cards/2_of_black_stars.svg"" width=""175px"" height=""250px""></img></td>
    <td width=300 height=300><img src=""static/images/cards/back_of_black_stars.svg"" width=""175px"" height=""250px""></img></td>
  </tr>
  <tr height=200>
    <td width=300><img src=""static/images/keys/z.svg"" width=""35%"" height=""75%""></img></td>
    <td width=300><img src=""static/images/keys/m.svg"" width=""35%"" height=""75%""></img></td>
  </tr>
</table>
  ",,,,,,,,,,,,,,,,,,,,,,,,,,,,
115,0,,html-keyboard-response,115,195520,0.0-4.18-3.18,xh4ipu9oru7,2022-09-19 16:21:48.717,5d5a8cbeeb68e00018d85fb7,2,66,70,64,70,25,female,,,"<p style=""font-size:50px"">You Lose!
No points this round.</p>",,,,,,,,,,,,,,,,,,,,,,,,,,,,
116,0,,html-keyboard-response,116,196034,0.0-4.18-4.18,xh4ipu9oru7,2022-09-19 16:21:48.717,5d5a8cbeeb68e00018d85fb7,2,66,70,64,70,25,female,,,,,,1.0,learning,18.0,A,,black,,stars,,,,A,black,stars,,1.0,1.0,NA,left,446.6999999881,2.0,0.0,0.0,,,
117,0,,html-keyboard-response,117,197546,0.0-4.19-0.19,xh4ipu9oru7,2022-09-19 16:21:48.717,5d5a8cbeeb68e00018d85fb7,2,66,70,64,70,25,female,,,"<img src=""static/images/cards/stack_of_red_stars.svg"" width=""175px"" height=""250px""></img>",,,,,,,,,,,,,,,,,,,,,,,,,,,,
118,0,,html-keyboard-response,118,198396,0.0-4.19-1.19,xh4ipu9oru7,2022-09-19 16:21:48.717,5d5a8cbeeb68e00018d85fb7,2,66,70,64,70,25,female,339.700000003,,"
  <table>
  <tr height=300>
    <td width=300 height=300><img src=""static/images/cards/back_of_red_stars.svg"" width=""175px"" height=""250px""></img></td>
    <td width=300 height=300><img src=""static/images/cards/back_of_red_stars.svg"" width=""175px"" height=""250px""></img></td>
  </tr>
  <tr height=200>
    <td width=300><img src=""static/images/keys/z.svg"" width=""35%"" height=""75%""></img></td>
    <td width=300></td>
  </tr>
</table>
  ",90.0,1.0,,,,,,,,,,,,,,,,,,,,,,,,,,
119,0,,html-keyboard-response,119,199912,0.0-4.19-2.19,xh4ipu9oru7,2022-09-19 16:21:48.717,5d5a8cbeeb68e00018d85fb7,2,66,70,64,70,25,female,,,"
  <table>
  <tr height=300>
    <td width=300 height=300><img src=""static/images/cards/9_of_red_stars.svg"" width=""175px"" height=""250px""></img></td>
    <td width=300 height=300><img src=""static/images/cards/back_of_red_stars.svg"" width=""175px"" height=""250px""></img></td>
  </tr>
  <tr height=200>
    <td width=300><img src=""static/images/keys/z.svg"" width=""35%"" height=""75%""></img></td>
    <td width=300></td>
  </tr>
</table>
  ",,,,,,,,,,,,,,,,,,,,,,,,,,,,
120,0,,html-keyboard-response,120,201426,0.0-4.19-3.19,xh4ipu9oru7,2022-09-19 16:21:48.717,5d5a8cbeeb68e00018d85fb7,2,66,70,64,70,25,female,,,"<p style=""font-size:50px"">You win!
+10 points this round!</p>",,,,,,,,,,,,,,,,,,,,,,,,,,,,
121,0,,html-keyboard-response,121,201943,0.0-4.19-4.19,xh4ipu9oru7,2022-09-19 16:21:48.717,5d5a8cbeeb68e00018d85fb7,2,66,70,64,70,25,female,,,,,,1.0,learning,19.0,B,,red,,stars,,,,B,red,stars,,0.0,1.0,1,left,339.700000003,9.0,1.0,1.0,,,
122,0,,html-keyboard-response,122,203446,0.0-4.20-0.20,xh4ipu9oru7,2022-09-19 16:21:48.717,5d5a8cbeeb68e00018d85fb7,2,66,70,64,70,25,female,,,"<img src=""static/images/cards/stack_of_black_moons.svg"" width=""175px"" height=""250px""></img>",,,,,,,,,,,,,,,,,,,,,,,,,,,,
123,0,,html-keyboard-response,123,204265,0.0-4.20-1.20,xh4ipu9oru7,2022-09-19 16:21:48.717,5d5a8cbeeb68e00018d85fb7,2,66,70,64,70,25,female,311.0,,"
  <table>
  <tr height=300>
    <td width=300 height=300><img src=""static/images/cards/back_of_black_moons.svg"" width=""175px"" height=""250px""></img></td>
    <td width=300 height=300><img src=""static/images/cards/back_of_black_moons.svg"" width=""175px"" height=""250px""></img></td>
  </tr>
  <tr height=200>
    <td width=300><img src=""static/images/keys/z.svg"" width=""35%"" height=""75%""></img></td>
    <td width=300><img src=""static/images/keys/m.svg"" width=""35%"" height=""75%""></img></td>
  </tr>
</table>
  ",77.0,1.0,,,,,,,,,,,,,,,,,,,,,,,,,,
124,0,,html-keyboard-response,124,205773,0.0-4.20-2.20,xh4ipu9oru7,2022-09-19 16:21:48.717,5d5a8cbeeb68e00018d85fb7,2,66,70,64,70,25,female,,,"
  <table>
  <tr height=300>
    <td width=300 height=300><img src=""static/images/cards/back_of_black_moons.svg"" width=""175px"" height=""250px""></img></td>
    <td width=300 height=300><img src=""static/images/cards/6_of_black_moons.svg"" width=""175px"" height=""250px""></img></td>
  </tr>
  <tr height=200>
    <td width=300><img src=""static/images/keys/z.svg"" width=""35%"" height=""75%""></img></td>
    <td width=300><img src=""static/images/keys/m.svg"" width=""35%"" height=""75%""></img></td>
  </tr>
</table>
  ",,,,,,,,,,,,,,,,,,,,,,,,,,,,
125,0,,html-keyboard-response,125,207298,0.0-4.20-3.20,xh4ipu9oru7,2022-09-19 16:21:48.717,5d5a8cbeeb68e00018d85fb7,2,66,70,64,70,25,female,,,"<p style=""font-size:50px"">You Lose!
No points this round.</p>",,,,,,,,,,,,,,,,,,,,,,,,,,,,
126,0,,html-keyboard-response,126,207824,0.0-4.20-4.20,xh4ipu9oru7,2022-09-19 16:21:48.717,5d5a8cbeeb68e00018d85fb7,2,66,70,64,70,25,female,,,,,,1.0,learning,20.0,C,,black,,moons,,,,C,black,moons,,1.0,0.0,NA,right,311.0,6.0,1.0,0.0,,,
127,0,,html-keyboard-response,127,209337,0.0-4.21-0.21,xh4ipu9oru7,2022-09-19 16:21:48.717,5d5a8cbeeb68e00018d85fb7,2,66,70,64,70,25,female,,,"<img src=""static/images/cards/stack_of_red_moons.svg"" width=""175px"" height=""250px""></img>",,,,,,,,,,,,,,,,,,,,,,,,,,,,
128,0,,html-keyboard-response,128,210196,0.0-4.21-1.21,xh4ipu9oru7,2022-09-19 16:21:48.717,5d5a8cbeeb68e00018d85fb7,2,66,70,64,70,25,female,349.3000000119,,"
  <table>
  <tr height=300>
    <td width=300 height=300><img src=""static/images/cards/back_of_red_moons.svg"" width=""175px"" height=""250px""></img></td>
    <td width=300 height=300><img src=""static/images/cards/back_of_red_moons.svg"" width=""175px"" height=""250px""></img></td>
  </tr>
  <tr height=200>
    <td width=300><img src=""static/images/keys/z.svg"" width=""35%"" height=""75%""></img></td>
    <td width=300></td>
  </tr>
</table>
  ",90.0,1.0,,,,,,,,,,,,,,,,,,,,,,,,,,
129,0,,html-keyboard-response,129,211709,0.0-4.21-2.21,xh4ipu9oru7,2022-09-19 16:21:48.717,5d5a8cbeeb68e00018d85fb7,2,66,70,64,70,25,female,,,"
  <table>
  <tr height=300>
    <td width=300 height=300><img src=""static/images/cards/9_of_red_moons.svg"" width=""175px"" height=""250px""></img></td>
    <td width=300 height=300><img src=""static/images/cards/back_of_red_moons.svg"" width=""175px"" height=""250px""></img></td>
  </tr>
  <tr height=200>
    <td width=300><img src=""static/images/keys/z.svg"" width=""35%"" height=""75%""></img></td>
    <td width=300></td>
  </tr>
</table>
  ",,,,,,,,,,,,,,,,,,,,,,,,,,,,
130,0,,html-keyboard-response,130,213236,0.0-4.21-3.21,xh4ipu9oru7,2022-09-19 16:21:48.717,5d5a8cbeeb68e00018d85fb7,2,66,70,64,70,25,female,,,"<p style=""font-size:50px"">You win!
+10 points this round!</p>",,,,,,,,,,,,,,,,,,,,,,,,,,,,
131,0,,html-keyboard-response,131,213748,0.0-4.21-4.21,xh4ipu9oru7,2022-09-19 16:21:48.717,5d5a8cbeeb68e00018d85fb7,2,66,70,64,70,25,female,,,,,,1.0,learning,21.0,D,,red,,moons,,,,D,red,moons,,0.0,0.0,1,left,349.3000000119,9.0,1.0,1.0,,,
132,0,,html-keyboard-response,132,215253,0.0-4.22-0.22,xh4ipu9oru7,2022-09-19 16:21:48.717,5d5a8cbeeb68e00018d85fb7,2,66,70,64,70,25,female,,,"<img src=""static/images/cards/stack_of_red_bolts.svg"" width=""175px"" height=""250px""></img>",,,,,,,,,,,,,,,,,,,,,,,,,,,,
133,0,,html-keyboard-response,133,216134,0.0-4.22-1.22,xh4ipu9oru7,2022-09-19 16:21:48.717,5d5a8cbeeb68e00018d85fb7,2,66,70,64,70,25,female,376.599999994,,"
  <table>
  <tr height=300>
    <td width=300 height=300><img src=""static/images/cards/back_of_red_bolts.svg"" width=""175px"" height=""250px""></img></td>
    <td width=300 height=300><img src=""static/images/cards/back_of_red_bolts.svg"" width=""175px"" height=""250px""></img></td>
  </tr>
  <tr height=200>
    <td width=300><img src=""static/images/keys/z.svg"" width=""35%"" height=""75%""></img></td>
    <td width=300><img src=""static/images/keys/m.svg"" width=""35%"" height=""75%""></img></td>
  </tr>
</table>
  ",77.0,1.0,,,,,,,,,,,,,,,,,,,,,,,,,,
134,0,,html-keyboard-response,134,217647,0.0-4.22-2.22,xh4ipu9oru7,2022-09-19 16:21:48.717,5d5a8cbeeb68e00018d85fb7,2,66,70,64,70,25,female,,,"
  <table>
  <tr height=300>
    <td width=300 height=300><img src=""static/images/cards/back_of_red_bolts.svg"" width=""175px"" height=""250px""></img></td>
    <td width=300 height=300><img src=""static/images/cards/3_of_red_bolts.svg"" width=""175px"" height=""250px""></img></td>
  </tr>
  <tr height=200>
    <td width=300><img src=""static/images/keys/z.svg"" width=""35%"" height=""75%""></img></td>
    <td width=300><img src=""static/images/keys/m.svg"" width=""35%"" height=""75%""></img></td>
  </tr>
</table>
  ",,,,,,,,,,,,,,,,,,,,,,,,,,,,
135,0,,html-keyboard-response,135,219169,0.0-4.22-3.22,xh4ipu9oru7,2022-09-19 16:21:48.717,5d5a8cbeeb68e00018d85fb7,2,66,70,64,70,25,female,,,"<p style=""font-size:50px"">You win!
+10 points this round!</p>",,,,,,,,,,,,,,,,,,,,,,,,,,,,
136,0,,html-keyboard-response,136,219693,0.0-4.22-4.22,xh4ipu9oru7,2022-09-19 16:21:48.717,5d5a8cbeeb68e00018d85fb7,2,66,70,64,70,25,female,,,,,,1.0,learning,22.0,Xc,,red,,bolts,,,,Xc,red,bolts,,1.0,0.0,NA,right,376.599999994,3.0,0.0,1.0,,,
137,0,,html-keyboard-response,137,221204,0.0-4.23-0.23,xh4ipu9oru7,2022-09-19 16:21:48.717,5d5a8cbeeb68e00018d85fb7,2,66,70,64,70,25,female,,,"<img src=""static/images/cards/stack_of_black_bolts.svg"" width=""175px"" height=""250px""></img>",,,,,,,,,,,,,,,,,,,,,,,,,,,,
138,0,,html-keyboard-response,138,222045,0.0-4.23-1.23,xh4ipu9oru7,2022-09-19 16:21:48.717,5d5a8cbeeb68e00018d85fb7,2,66,70,64,70,25,female,334.299999997,,"
  <table>
  <tr height=300>
    <td width=300 height=300><img src=""static/images/cards/back_of_black_bolts.svg"" width=""175px"" height=""250px""></img></td>
    <td width=300 height=300><img src=""static/images/cards/back_of_black_bolts.svg"" width=""175px"" height=""250px""></img></td>
  </tr>
  <tr height=200>
    <td width=300></td>
    <td width=300><img src=""static/images/keys/m.svg"" width=""35%"" height=""75%""></img></td>
  </tr>
</table>
  ",77.0,1.0,,,,,,,,,,,,,,,,,,,,,,,,,,
139,0,,html-keyboard-response,139,223549,0.0-4.23-2.23,xh4ipu9oru7,2022-09-19 16:21:48.717,5d5a8cbeeb68e00018d85fb7,2,66,70,64,70,25,female,,,"
  <table>
  <tr height=300>
    <td width=300 height=300><img src=""static/images/cards/back_of_black_bolts.svg"" width=""175px"" height=""250px""></img></td>
    <td width=300 height=300><img src=""static/images/cards/1_of_black_bolts.svg"" width=""175px"" height=""250px""></img></td>
  </tr>
  <tr height=200>
    <td width=300></td>
    <td width=300><img src=""static/images/keys/m.svg"" width=""35%"" height=""75%""></img></td>
  </tr>
</table>
  ",,,,,,,,,,,,,,,,,,,,,,,,,,,,
140,0,,html-keyboard-response,140,225072,0.0-4.23-3.23,xh4ipu9oru7,2022-09-19 16:21:48.717,5d5a8cbeeb68e00018d85fb7,2,66,70,64,70,25,female,,,"<p style=""font-size:50px"">You win!
+10 points this round!</p>",,,,,,,,,,,,,,,,,,,,,,,,,,,,
141,0,,html-keyboard-response,141,225599,0.0-4.23-4.23,xh4ipu9oru7,2022-09-19 16:21:48.717,5d5a8cbeeb68e00018d85fb7,2,66,70,64,70,25,female,,,,,,1.0,learning,23.0,Xnc,,black,,bolts,,,,Xnc,black,bolts,,0.0,0.0,0,right,334.299999997,1.0,0.0,1.0,,,
142,0,,call-function,142,225606,0.0-5.0,xh4ipu9oru7,2022-09-19 16:21:48.717,5d5a8cbeeb68e00018d85fb7,2,66,70,64,70,25,female,,,,,,,,,,,,,,,,,,,,,,,,,,,,,,,
143,0,,image-keyboard-response,143,228598,0.0-6.0-0.0,xh4ipu9oru7,2022-09-19 16:21:48.717,5d5a8cbeeb68e00018d85fb7,2,66,70,64,70,25,female,2991.299999997,,static/images/instructions_CB_2/Slide20.png,39.0,,,,,,,,,,,,,,,,,,,,,,,,,,,
144,0,,image-keyboard-response,144,235569,0.0-6.1-0.1,xh4ipu9oru7,2022-09-19 16:21:48.717,5d5a8cbeeb68e00018d85fb7,2,66,70,64,70,25,female,6969.400000006,,static/images/instructions_CB_2/Slide21.png,39.0,,,,,,,,,,,,,,,,,,,,,,,,,,,
145,0,,image-keyboard-response,145,239110,0.0-6.2-0.2,xh4ipu9oru7,2022-09-19 16:21:48.717,5d5a8cbeeb68e00018d85fb7,2,66,70,64,70,25,female,3540.1000000089,,static/images/instructions_CB_2/Slide22.png,39.0,,,,,,,,,,,,,,,,,,,,,,,,,,,
146,0,,image-keyboard-response,146,251715,0.0-6.3-0.3,xh4ipu9oru7,2022-09-19 16:21:48.717,5d5a8cbeeb68e00018d85fb7,2,66,70,64,70,25,female,12604.0,,static/images/instructions_CB_2/Slide23.png,39.0,,,,,,,,,,,,,,,,,,,,,,,,,,,
147,0,,image-keyboard-response,147,254223,0.0-6.4-0.4,xh4ipu9oru7,2022-09-19 16:21:48.717,5d5a8cbeeb68e00018d85fb7,2,66,70,64,70,25,female,2507.0,,static/images/instructions_CB_2/Slide24.png,37.0,,,,,,,,,,,,,,,,,,,,,,,,,,,
148,0,,image-keyboard-response,148,257272,0.0-6.5-0.5,xh4ipu9oru7,2022-09-19 16:21:48.717,5d5a8cbeeb68e00018d85fb7,2,66,70,64,70,25,female,3047.799999997,,static/images/instructions_CB_2/Slide23.png,39.0,,,,,,,,,,,,,,,,,,,,,,,,,,,
149,0,,image-keyboard-response,149,260577,0.0-6.6-0.6,xh4ipu9oru7,2022-09-19 16:21:48.717,5d5a8cbeeb68e00018d85fb7,2,66,70,64,70,25,female,3303.8000000119,,static/images/instructions_CB_2/Slide24.png,39.0,,,,,,,,,,,,,,,,,,,,,,,,,,,
150,0,,html-keyboard-response,150,264657,0.0-7.0-0.0,xh4ipu9oru7,2022-09-19 16:21:48.717,5d5a8cbeeb68e00018d85fb7,2,66,70,64,70,25,female,4077.8999999911,,"
  <table>
  <tr height=300>
    <td width=300 height=300><img src=""static/images/cards/stack_of_black_stars.svg"" width=""175px"" height=""250px""></img></td>
    <td width=300 height=300><img src=""static/images/cards/stack_of_red_moons.svg"" width=""175px"" height=""250px""></img></td>
  </tr>
  <tr height=200>
    <td width=300><img src=""static/images/keys/w.svg"" width=""35%"" height=""75%""></img></td>
    <td width=300><img src=""static/images/keys/o.svg"" width=""35%"" height=""75%""></img></td>
  </tr>
</table>
  ",79.0,1.0,,,,,,,,,,,,,,,,,,,,,,,,,,
151,0,,html-keyboard-response,151,265832,0.0-7.0-1.0,xh4ipu9oru7,2022-09-19 16:21:48.717,5d5a8cbeeb68e00018d85fb7,2,66,70,64,70,25,female,661.0,,"
  <table>
  <tr height=300>
    <td width=300 height=300><img src=""static/images/cards/back_of_red_moons.svg"" width=""175px"" height=""250px""></img></td>
    <td width=300 height=300><img src=""static/images/cards/back_of_red_moons.svg"" width=""175px"" height=""250px""></img></td>
  </tr>
  <tr height=200>
    <td width=300><img src=""static/images/keys/z.svg"" width=""35%"" height=""75%""></img></td>
    <td width=300></td>
  </tr>
</table>
  ",90.0,1.0,,,,,,,,,,,,,,,,,,,,,,,,,,
152,0,,html-keyboard-response,152,267349,0.0-7.0-2.0,xh4ipu9oru7,2022-09-19 16:21:48.717,5d5a8cbeeb68e00018d85fb7,2,66,70,64,70,25,female,,,"
  <table>
  <tr height=300>
    <td width=300 height=300><img src=""static/images/cards/4_of_red_moons.svg"" width=""175px"" height=""250px""></img></td>
    <td width=300 height=300><img src=""static/images/cards/back_of_red_moons.svg"" width=""175px"" height=""250px""></img></td>
  </tr>
  <tr height=200>
    <td width=300><img src=""static/images/keys/z.svg"" width=""35%"" height=""75%""></img></td>
    <td width=300></td>
  </tr>
</table>
  ",,,,,,,,,,,,,,,,,,,,,,,,,,,,
153,0,,html-keyboard-response,153,268863,0.0-7.0-3.0,xh4ipu9oru7,2022-09-19 16:21:48.717,5d5a8cbeeb68e00018d85fb7,2,66,70,64,70,25,female,,,"<p style=""font-size:50px"">You win!
+10 points this round!</p>",,,,,,,,,,,,,,,,,,,,,,,,,,,,
154,0,,html-keyboard-response,154,269379,0.0-7.0-4.0,xh4ipu9oru7,2022-09-19 16:21:48.717,5d5a8cbeeb68e00018d85fb7,2,66,70,64,70,25,female,,,,,,1.0,choice,0.0,A,D,black,red,stars,moons,A,D,D,red,moons,4077.8999999911,0.0,0.0,1,left,661.0,4.0,0.0,1.0,,,
155,0,,html-keyboard-response,155,272757,0.0-7.1-0.1,xh4ipu9oru7,2022-09-19 16:21:48.717,5d5a8cbeeb68e00018d85fb7,2,66,70,64,70,25,female,3375.900000006,,"
  <table>
  <tr height=300>
    <td width=300 height=300><img src=""static/images/cards/stack_of_black_bolts.svg"" width=""175px"" height=""250px""></img></td>
    <td width=300 height=300><img src=""static/images/cards/stack_of_red_stars.svg"" width=""175px"" height=""250px""></img></td>
  </tr>
  <tr height=200>
    <td width=300><img src=""static/images/keys/w.svg"" width=""35%"" height=""75%""></img></td>
    <td width=300><img src=""static/images/keys/o.svg"" width=""35%"" height=""75%""></img></td>
  </tr>
</table>
  ",87.0,2.0,,,,,,,,,,,,,,,,,,,,,,,,,,
156,0,,html-keyboard-response,156,273917,0.0-7.1-1.1,xh4ipu9oru7,2022-09-19 16:21:48.717,5d5a8cbeeb68e00018d85fb7,2,66,70,64,70,25,female,651.5,,"
  <table>
  <tr height=300>
    <td width=300 height=300><img src=""static/images/cards/back_of_black_bolts.svg"" width=""175px"" height=""250px""></img></td>
    <td width=300 height=300><img src=""static/images/cards/back_of_black_bolts.svg"" width=""175px"" height=""250px""></img></td>
  </tr>
  <tr height=200>
    <td width=300><img src=""static/images/keys/z.svg"" width=""35%"" height=""75%""></img></td>
    <td width=300></td>
  </tr>
</table>
  ",90.0,1.0,,,,,,,,,,,,,,,,,,,,,,,,,,
157,0,,html-keyboard-response,157,275435,0.0-7.1-2.1,xh4ipu9oru7,2022-09-19 16:21:48.717,5d5a8cbeeb68e00018d85fb7,2,66,70,64,70,25,female,,,"
  <table>
  <tr height=300>
    <td width=300 height=300><img src=""static/images/cards/7_of_black_bolts.svg"" width=""175px"" height=""250px""></img></td>
    <td width=300 height=300><img src=""static/images/cards/back_of_black_bolts.svg"" width=""175px"" height=""250px""></img></td>
  </tr>
  <tr height=200>
    <td width=300><img src=""static/images/keys/z.svg"" width=""35%"" height=""75%""></img></td>
    <td width=300></td>
  </tr>
</table>
  ",,,,,,,,,,,,,,,,,,,,,,,,,,,,
158,0,,html-keyboard-response,158,276951,0.0-7.1-3.1,xh4ipu9oru7,2022-09-19 16:21:48.717,5d5a8cbeeb68e00018d85fb7,2,66,70,64,70,25,female,,,"<p style=""font-size:50px"">You win!
+10 points this round!</p>",,,,,,,,,,,,,,,,,,,,,,,,,,,,
159,0,,html-keyboard-response,159,277471,0.0-7.1-4.1,xh4ipu9oru7,2022-09-19 16:21:48.717,5d5a8cbeeb68e00018d85fb7,2,66,70,64,70,25,female,,,,,,1.0,choice,1.0,B,Xnc,black,red,bolts,stars,Xnc,B,Xnc,black,bolts,3375.900000006,0.0,0.0,1,left,651.5,7.0,1.0,1.0,,,
160,0,,html-keyboard-response,160,279822,0.0-7.2-0.2,xh4ipu9oru7,2022-09-19 16:21:48.717,5d5a8cbeeb68e00018d85fb7,2,66,70,64,70,25,female,2348.400000006,,"
  <table>
  <tr height=300>
    <td width=300 height=300><img src=""static/images/cards/stack_of_red_moons.svg"" width=""175px"" height=""250px""></img></td>
    <td width=300 height=300><img src=""static/images/cards/stack_of_red_stars.svg"" width=""175px"" height=""250px""></img></td>
  </tr>
  <tr height=200>
    <td width=300><img src=""static/images/keys/w.svg"" width=""35%"" height=""75%""></img></td>
    <td width=300><img src=""static/images/keys/o.svg"" width=""35%"" height=""75%""></img></td>
  </tr>
</table>
  ",87.0,1.0,,,,,,,,,,,,,,,,,,,,,,,,,,
161,0,,html-keyboard-response,161,280874,0.0-7.2-1.2,xh4ipu9oru7,2022-09-19 16:21:48.717,5d5a8cbeeb68e00018d85fb7,2,66,70,64,70,25,female,535.700000003,,"
  <table>
  <tr height=300>
    <td width=300 height=300><img src=""static/images/cards/back_of_red_moons.svg"" width=""175px"" height=""250px""></img></td>
    <td width=300 height=300><img src=""static/images/cards/back_of_red_moons.svg"" width=""175px"" height=""250px""></img></td>
  </tr>
  <tr height=200>
    <td width=300></td>
    <td width=300><img src=""static/images/keys/m.svg"" width=""35%"" height=""75%""></img></td>
  </tr>
</table>
  ",77.0,1.0,,,,,,,,,,,,,,,,,,,,,,,,,,
162,0,,html-keyboard-response,162,282382,0.0-7.2-2.2,xh4ipu9oru7,2022-09-19 16:21:48.717,5d5a8cbeeb68e00018d85fb7,2,66,70,64,70,25,female,,,"
  <table>
  <tr height=300>
    <td width=300 height=300><img src=""static/images/cards/back_of_red_moons.svg"" width=""175px"" height=""250px""></img></td>
    <td width=300 height=300><img src=""static/images/cards/3_of_red_moons.svg"" width=""175px"" height=""250px""></img></td>
  </tr>
  <tr height=200>
    <td width=300></td>
    <td width=300><img src=""static/images/keys/m.svg"" width=""35%"" height=""75%""></img></td>
  </tr>
</table>
  ",,,,,,,,,,,,,,,,,,,,,,,,,,,,
163,0,,html-keyboard-response,163,283888,0.0-7.2-3.2,xh4ipu9oru7,2022-09-19 16:21:48.717,5d5a8cbeeb68e00018d85fb7,2,66,70,64,70,25,female,,,"<p style=""font-size:50px"">You win!
+10 points this round!</p>",,,,,,,,,,,,,,,,,,,,,,,,,,,,
164,0,,html-keyboard-response,164,284417,0.0-7.2-4.2,xh4ipu9oru7,2022-09-19 16:21:48.717,5d5a8cbeeb68e00018d85fb7,2,66,70,64,70,25,female,,,,,,1.0,choice,2.0,B,D,red,red,moons,stars,D,B,D,red,moons,2348.400000006,0.0,0.0,0,right,535.700000003,3.0,0.0,1.0,,,
165,0,,html-keyboard-response,165,285998,0.0-7.3-0.3,xh4ipu9oru7,2022-09-19 16:21:48.717,5d5a8cbeeb68e00018d85fb7,2,66,70,64,70,25,female,1579.1000000089,,"
  <table>
  <tr height=300>
    <td width=300 height=300><img src=""static/images/cards/stack_of_red_bolts.svg"" width=""175px"" height=""250px""></img></td>
    <td width=300 height=300><img src=""static/images/cards/stack_of_red_stars.svg"" width=""175px"" height=""250px""></img></td>
  </tr>
  <tr height=200>
    <td width=300><img src=""static/images/keys/w.svg"" width=""35%"" height=""75%""></img></td>
    <td width=300><img src=""static/images/keys/o.svg"" width=""35%"" height=""75%""></img></td>
  </tr>
</table>
  ",87.0,1.0,,,,,,,,,,,,,,,,,,,,,,,,,,
166,0,,html-keyboard-response,166,287708,0.0-7.3-1.3,xh4ipu9oru7,2022-09-19 16:21:48.717,5d5a8cbeeb68e00018d85fb7,2,66,70,64,70,25,female,1194.299999997,,"
  <table>
  <tr height=300>
    <td width=300 height=300><img src=""static/images/cards/back_of_red_bolts.svg"" width=""175px"" height=""250px""></img></td>
    <td width=300 height=300><img src=""static/images/cards/back_of_red_bolts.svg"" width=""175px"" height=""250px""></img></td>
  </tr>
  <tr height=200>
    <td width=300><img src=""static/images/keys/z.svg"" width=""35%"" height=""75%""></img></td>
    <td width=300><img src=""static/images/keys/m.svg"" width=""35%"" height=""75%""></img></td>
  </tr>
</table>
  ",77.0,1.0,,,,,,,,,,,,,,,,,,,,,,,,,,
167,0,,html-keyboard-response,167,289224,0.0-7.3-2.3,xh4ipu9oru7,2022-09-19 16:21:48.717,5d5a8cbeeb68e00018d85fb7,2,66,70,64,70,25,female,,,"
  <table>
  <tr height=300>
    <td width=300 height=300><img src=""static/images/cards/back_of_red_bolts.svg"" width=""175px"" height=""250px""></img></td>
    <td width=300 height=300><img src=""static/images/cards/6_of_red_bolts.svg"" width=""175px"" height=""250px""></img></td>
  </tr>
  <tr height=200>
    <td width=300><img src=""static/images/keys/z.svg"" width=""35%"" height=""75%""></img></td>
    <td width=300><img src=""static/images/keys/m.svg"" width=""35%"" height=""75%""></img></td>
  </tr>
</table>
  ",,,,,,,,,,,,,,,,,,,,,,,,,,,,
168,0,,html-keyboard-response,168,290746,0.0-7.3-3.3,xh4ipu9oru7,2022-09-19 16:21:48.717,5d5a8cbeeb68e00018d85fb7,2,66,70,64,70,25,female,,,"<p style=""font-size:50px"">You win!
+10 points this round!</p>",,,,,,,,,,,,,,,,,,,,,,,,,,,,
169,0,,html-keyboard-response,169,291262,0.0-7.3-4.3,xh4ipu9oru7,2022-09-19 16:21:48.717,5d5a8cbeeb68e00018d85fb7,2,66,70,64,70,25,female,,,,,,1.0,choice,3.0,B,Xc,red,red,bolts,stars,Xc,B,Xc,red,bolts,1579.1000000089,1.0,0.0,NA,right,1194.299999997,6.0,1.0,1.0,,,
170,0,,html-keyboard-response,170,292657,0.0-7.4-0.4,xh4ipu9oru7,2022-09-19 16:21:48.717,5d5a8cbeeb68e00018d85fb7,2,66,70,64,70,25,female,1393.3000000119,,"
  <table>
  <tr height=300>
    <td width=300 height=300><img src=""static/images/cards/stack_of_black_moons.svg"" width=""175px"" height=""250px""></img></td>
    <td width=300 height=300><img src=""static/images/cards/stack_of_red_moons.svg"" width=""175px"" height=""250px""></img></td>
  </tr>
  <tr height=200>
    <td width=300><img src=""static/images/keys/w.svg"" width=""35%"" height=""75%""></img></td>
    <td width=300><img src=""static/images/keys/o.svg"" width=""35%"" height=""75%""></img></td>
  </tr>
</table>
  ",79.0,1.0,,,,,,,,,,,,,,,,,,,,,,,,,,
171,0,,html-keyboard-response,171,293601,0.0-7.4-1.4,xh4ipu9oru7,2022-09-19 16:21:48.717,5d5a8cbeeb68e00018d85fb7,2,66,70,64,70,25,female,438.900000006,,"
  <table>
  <tr height=300>
    <td width=300 height=300><img src=""static/images/cards/back_of_red_moons.svg"" width=""175px"" height=""250px""></img></td>
    <td width=300 height=300><img src=""static/images/cards/back_of_red_moons.svg"" width=""175px"" height=""250px""></img></td>
  </tr>
  <tr height=200>
    <td width=300></td>
    <td width=300><img src=""static/images/keys/m.svg"" width=""35%"" height=""75%""></img></td>
  </tr>
</table>
  ",77.0,1.0,,,,,,,,,,,,,,,,,,,,,,,,,,
172,0,,html-keyboard-response,172,295112,0.0-7.4-2.4,xh4ipu9oru7,2022-09-19 16:21:48.717,5d5a8cbeeb68e00018d85fb7,2,66,70,64,70,25,female,,,"
  <table>
  <tr height=300>
    <td width=300 height=300><img src=""static/images/cards/back_of_red_moons.svg"" width=""175px"" height=""250px""></img></td>
    <td width=300 height=300><img src=""static/images/cards/3_of_red_moons.svg"" width=""175px"" height=""250px""></img></td>
  </tr>
  <tr height=200>
    <td width=300></td>
    <td width=300><img src=""static/images/keys/m.svg"" width=""35%"" height=""75%""></img></td>
  </tr>
</table>
  ",,,,,,,,,,,,,,,,,,,,,,,,,,,,
173,0,,html-keyboard-response,173,296643,0.0-7.4-3.4,xh4ipu9oru7,2022-09-19 16:21:48.717,5d5a8cbeeb68e00018d85fb7,2,66,70,64,70,25,female,,,"<p style=""font-size:50px"">You win!
+10 points this round!</p>",,,,,,,,,,,,,,,,,,,,,,,,,,,,
174,0,,html-keyboard-response,174,297155,0.0-7.4-4.4,xh4ipu9oru7,2022-09-19 16:21:48.717,5d5a8cbeeb68e00018d85fb7,2,66,70,64,70,25,female,,,,,,1.0,choice,4.0,C,D,black,red,moons,moons,C,D,D,red,moons,1393.3000000119,0.0,0.0,0,right,438.900000006,3.0,0.0,1.0,,,
175,0,,html-keyboard-response,175,298018,0.0-7.5-0.5,xh4ipu9oru7,2022-09-19 16:21:48.717,5d5a8cbeeb68e00018d85fb7,2,66,70,64,70,25,female,861.5,,"
  <table>
  <tr height=300>
    <td width=300 height=300><img src=""static/images/cards/stack_of_black_stars.svg"" width=""175px"" height=""250px""></img></td>
    <td width=300 height=300><img src=""static/images/cards/stack_of_red_moons.svg"" width=""175px"" height=""250px""></img></td>
  </tr>
  <tr height=200>
    <td width=300><img src=""static/images/keys/w.svg"" width=""35%"" height=""75%""></img></td>
    <td width=300><img src=""static/images/keys/o.svg"" width=""35%"" height=""75%""></img></td>
  </tr>
</table>
  ",79.0,1.0,,,,,,,,,,,,,,,,,,,,,,,,,,
176,0,,html-keyboard-response,176,298894,0.0-7.5-1.5,xh4ipu9oru7,2022-09-19 16:21:48.717,5d5a8cbeeb68e00018d85fb7,2,66,70,64,70,25,female,362.5,,"
  <table>
  <tr height=300>
    <td width=300 height=300><img src=""static/images/cards/back_of_red_moons.svg"" width=""175px"" height=""250px""></img></td>
    <td width=300 height=300><img src=""static/images/cards/back_of_red_moons.svg"" width=""175px"" height=""250px""></img></td>
  </tr>
  <tr height=200>
    <td width=300><img src=""static/images/keys/z.svg"" width=""35%"" height=""75%""></img></td>
    <td width=300></td>
  </tr>
</table>
  ",90.0,1.0,,,,,,,,,,,,,,,,,,,,,,,,,,
177,0,,html-keyboard-response,177,300412,0.0-7.5-2.5,xh4ipu9oru7,2022-09-19 16:21:48.717,5d5a8cbeeb68e00018d85fb7,2,66,70,64,70,25,female,,,"
  <table>
  <tr height=300>
    <td width=300 height=300><img src=""static/images/cards/9_of_red_moons.svg"" width=""175px"" height=""250px""></img></td>
    <td width=300 height=300><img src=""static/images/cards/back_of_red_moons.svg"" width=""175px"" height=""250px""></img></td>
  </tr>
  <tr height=200>
    <td width=300><img src=""static/images/keys/z.svg"" width=""35%"" height=""75%""></img></td>
    <td width=300></td>
  </tr>
</table>
  ",,,,,,,,,,,,,,,,,,,,,,,,,,,,
178,0,,html-keyboard-response,178,301931,0.0-7.5-3.5,xh4ipu9oru7,2022-09-19 16:21:48.717,5d5a8cbeeb68e00018d85fb7,2,66,70,64,70,25,female,,,"<p style=""font-size:50px"">You win!
+10 points this round!</p>",,,,,,,,,,,,,,,,,,,,,,,,,,,,
179,0,,html-keyboard-response,179,302448,0.0-7.5-4.5,xh4ipu9oru7,2022-09-19 16:21:48.717,5d5a8cbeeb68e00018d85fb7,2,66,70,64,70,25,female,,,,,,1.0,choice,5.0,A,D,black,red,stars,moons,A,D,D,red,moons,861.5,0.0,0.0,1,left,362.5,9.0,1.0,1.0,,,
180,0,,html-keyboard-response,180,303890,0.0-7.6-0.6,xh4ipu9oru7,2022-09-19 16:21:48.717,5d5a8cbeeb68e00018d85fb7,2,66,70,64,70,25,female,1440.0,,"
  <table>
  <tr height=300>
    <td width=300 height=300><img src=""static/images/cards/stack_of_black_moons.svg"" width=""175px"" height=""250px""></img></td>
    <td width=300 height=300><img src=""static/images/cards/stack_of_red_stars.svg"" width=""175px"" height=""250px""></img></td>
  </tr>
  <tr height=200>
    <td width=300><img src=""static/images/keys/w.svg"" width=""35%"" height=""75%""></img></td>
    <td width=300><img src=""static/images/keys/o.svg"" width=""35%"" height=""75%""></img></td>
  </tr>
</table>
  ",87.0,1.0,,,,,,,,,,,,,,,,,,,,,,,,,,
181,0,,html-keyboard-response,181,304707,0.0-7.6-1.6,xh4ipu9oru7,2022-09-19 16:21:48.717,5d5a8cbeeb68e00018d85fb7,2,66,70,64,70,25,female,303.8000000119,,"
  <table>
  <tr height=300>
    <td width=300 height=300><img src=""static/images/cards/back_of_black_moons.svg"" width=""175px"" height=""250px""></img></td>
    <td width=300 height=300><img src=""static/images/cards/back_of_black_moons.svg"" width=""175px"" height=""250px""></img></td>
  </tr>
  <tr height=200>
    <td width=300><img src=""static/images/keys/z.svg"" width=""35%"" height=""75%""></img></td>
    <td width=300><img src=""static/images/keys/m.svg"" width=""35%"" height=""75%""></img></td>
  </tr>
</table>
  ",77.0,1.0,,,,,,,,,,,,,,,,,,,,,,,,,,
182,0,,html-keyboard-response,182,306216,0.0-7.6-2.6,xh4ipu9oru7,2022-09-19 16:21:48.717,5d5a8cbeeb68e00018d85fb7,2,66,70,64,70,25,female,,,"
  <table>
  <tr height=300>
    <td width=300 height=300><img src=""static/images/cards/back_of_black_moons.svg"" width=""175px"" height=""250px""></img></td>
    <td width=300 height=300><img src=""static/images/cards/1_of_black_moons.svg"" width=""175px"" height=""250px""></img></td>
  </tr>
  <tr height=200>
    <td width=300><img src=""static/images/keys/z.svg"" width=""35%"" height=""75%""></img></td>
    <td width=300><img src=""static/images/keys/m.svg"" width=""35%"" height=""75%""></img></td>
  </tr>
</table>
  ",,,,,,,,,,,,,,,,,,,,,,,,,,,,
183,0,,html-keyboard-response,183,307734,0.0-7.6-3.6,xh4ipu9oru7,2022-09-19 16:21:48.717,5d5a8cbeeb68e00018d85fb7,2,66,70,64,70,25,female,,,"<p style=""font-size:50px"">You win!
+10 points this round!</p>",,,,,,,,,,,,,,,,,,,,,,,,,,,,
184,0,,html-keyboard-response,184,308250,0.0-7.6-4.6,xh4ipu9oru7,2022-09-19 16:21:48.717,5d5a8cbeeb68e00018d85fb7,2,66,70,64,70,25,female,,,,,,1.0,choice,6.0,B,C,black,red,moons,stars,C,B,C,black,moons,1440.0,1.0,0.0,NA,right,303.8000000119,1.0,0.0,1.0,,,
185,0,,html-keyboard-response,185,309099,0.0-7.7-0.7,xh4ipu9oru7,2022-09-19 16:21:48.717,5d5a8cbeeb68e00018d85fb7,2,66,70,64,70,25,female,847.299999997,,"
  <table>
  <tr height=300>
    <td width=300 height=300><img src=""static/images/cards/stack_of_red_moons.svg"" width=""175px"" height=""250px""></img></td>
    <td width=300 height=300><img src=""static/images/cards/stack_of_red_stars.svg"" width=""175px"" height=""250px""></img></td>
  </tr>
  <tr height=200>
    <td width=300><img src=""static/images/keys/w.svg"" width=""35%"" height=""75%""></img></td>
    <td width=300><img src=""static/images/keys/o.svg"" width=""35%"" height=""75%""></img></td>
  </tr>
</table>
  ",87.0,1.0,,,,,,,,,,,,,,,,,,,,,,,,,,
186,0,,html-keyboard-response,186,309993,0.0-7.7-1.7,xh4ipu9oru7,2022-09-19 16:21:48.717,5d5a8cbeeb68e00018d85fb7,2,66,70,64,70,25,female,380.200000003,,"
  <table>
  <tr height=300>
    <td width=300 height=300><img src=""static/images/cards/back_of_red_moons.svg"" width=""175px"" height=""250px""></img></td>
    <td width=300 height=300><img src=""static/images/cards/back_of_red_moons.svg"" width=""175px"" height=""250px""></img></td>
  </tr>
  <tr height=200>
    <td width=300></td>
    <td width=300><img src=""static/images/keys/m.svg"" width=""35%"" height=""75%""></img></td>
  </tr>
</table>
  ",77.0,1.0,,,,,,,,,,,,,,,,,,,,,,,,,,
187,0,,html-keyboard-response,187,311504,0.0-7.7-2.7,xh4ipu9oru7,2022-09-19 16:21:48.717,5d5a8cbeeb68e00018d85fb7,2,66,70,64,70,25,female,,,"
  <table>
  <tr height=300>
    <td width=300 height=300><img src=""static/images/cards/back_of_red_moons.svg"" width=""175px"" height=""250px""></img></td>
    <td width=300 height=300><img src=""static/images/cards/2_of_red_moons.svg"" width=""175px"" height=""250px""></img></td>
  </tr>
  <tr height=200>
    <td width=300></td>
    <td width=300><img src=""static/images/keys/m.svg"" width=""35%"" height=""75%""></img></td>
  </tr>
</table>
  ",,,,,,,,,,,,,,,,,,,,,,,,,,,,
188,0,,html-keyboard-response,188,313023,0.0-7.7-3.7,xh4ipu9oru7,2022-09-19 16:21:48.717,5d5a8cbeeb68e00018d85fb7,2,66,70,64,70,25,female,,,"<p style=""font-size:50px"">You win!
+10 points this round!</p>",,,,,,,,,,,,,,,,,,,,,,,,,,,,
189,0,,html-keyboard-response,189,313548,0.0-7.7-4.7,xh4ipu9oru7,2022-09-19 16:21:48.717,5d5a8cbeeb68e00018d85fb7,2,66,70,64,70,25,female,,,,,,1.0,choice,7.0,B,D,red,red,moons,stars,D,B,D,red,moons,847.299999997,0.0,0.0,0,right,380.200000003,2.0,0.0,1.0,,,
190,0,,html-keyboard-response,190,314361,0.0-7.8-0.8,xh4ipu9oru7,2022-09-19 16:21:48.717,5d5a8cbeeb68e00018d85fb7,2,66,70,64,70,25,female,811.1999999881,,"
  <table>
  <tr height=300>
    <td width=300 height=300><img src=""static/images/cards/stack_of_black_stars.svg"" width=""175px"" height=""250px""></img></td>
    <td width=300 height=300><img src=""static/images/cards/stack_of_red_bolts.svg"" width=""175px"" height=""250px""></img></td>
  </tr>
  <tr height=200>
    <td width=300><img src=""static/images/keys/w.svg"" width=""35%"" height=""75%""></img></td>
    <td width=300><img src=""static/images/keys/o.svg"" width=""35%"" height=""75%""></img></td>
  </tr>
</table>
  ",79.0,1.0,,,,,,,,,,,,,,,,,,,,,,,,,,
191,0,,html-keyboard-response,191,315462,0.0-7.8-1.8,xh4ipu9oru7,2022-09-19 16:21:48.717,5d5a8cbeeb68e00018d85fb7,2,66,70,64,70,25,female,590.099999994,,"
  <table>
  <tr height=300>
    <td width=300 height=300><img src=""static/images/cards/back_of_red_bolts.svg"" width=""175px"" height=""250px""></img></td>
    <td width=300 height=300><img src=""static/images/cards/back_of_red_bolts.svg"" width=""175px"" height=""250px""></img></td>
  </tr>
  <tr height=200>
    <td width=300><img src=""static/images/keys/z.svg"" width=""35%"" height=""75%""></img></td>
    <td width=300><img src=""static/images/keys/m.svg"" width=""35%"" height=""75%""></img></td>
  </tr>
</table>
  ",90.0,1.0,,,,,,,,,,,,,,,,,,,,,,,,,,
192,0,,html-keyboard-response,192,316966,0.0-7.8-2.8,xh4ipu9oru7,2022-09-19 16:21:48.717,5d5a8cbeeb68e00018d85fb7,2,66,70,64,70,25,female,,,"
  <table>
  <tr height=300>
    <td width=300 height=300><img src=""static/images/cards/4_of_red_bolts.svg"" width=""175px"" height=""250px""></img></td>
    <td width=300 height=300><img src=""static/images/cards/back_of_red_bolts.svg"" width=""175px"" height=""250px""></img></td>
  </tr>
  <tr height=200>
    <td width=300><img src=""static/images/keys/z.svg"" width=""35%"" height=""75%""></img></td>
    <td width=300><img src=""static/images/keys/m.svg"" width=""35%"" height=""75%""></img></td>
  </tr>
</table>
  ",,,,,,,,,,,,,,,,,,,,,,,,,,,,
193,0,,html-keyboard-response,193,318482,0.0-7.8-3.8,xh4ipu9oru7,2022-09-19 16:21:48.717,5d5a8cbeeb68e00018d85fb7,2,66,70,64,70,25,female,,,"<p style=""font-size:50px"">You win!
+10 points this round!</p>",,,,,,,,,,,,,,,,,,,,,,,,,,,,
194,0,,html-keyboard-response,194,319004,0.0-7.8-4.8,xh4ipu9oru7,2022-09-19 16:21:48.717,5d5a8cbeeb68e00018d85fb7,2,66,70,64,70,25,female,,,,,,1.0,choice,8.0,A,Xc,black,red,stars,bolts,A,Xc,Xc,red,bolts,811.1999999881,1.0,0.0,NA,left,590.099999994,4.0,0.0,1.0,,,
195,0,,html-keyboard-response,195,319871,0.0-7.9-0.9,xh4ipu9oru7,2022-09-19 16:21:48.717,5d5a8cbeeb68e00018d85fb7,2,66,70,64,70,25,female,865.200000003,,"
  <table>
  <tr height=300>
    <td width=300 height=300><img src=""static/images/cards/stack_of_black_stars.svg"" width=""175px"" height=""250px""></img></td>
    <td width=300 height=300><img src=""static/images/cards/stack_of_red_moons.svg"" width=""175px"" height=""250px""></img></td>
  </tr>
  <tr height=200>
    <td width=300><img src=""static/images/keys/w.svg"" width=""35%"" height=""75%""></img></td>
    <td width=300><img src=""static/images/keys/o.svg"" width=""35%"" height=""75%""></img></td>
  </tr>
</table>
  ",79.0,1.0,,,,,,,,,,,,,,,,,,,,,,,,,,
196,0,,html-keyboard-response,196,320721,0.0-7.9-1.9,xh4ipu9oru7,2022-09-19 16:21:48.717,5d5a8cbeeb68e00018d85fb7,2,66,70,64,70,25,female,346.299999997,,"
  <table>
  <tr height=300>
    <td width=300 height=300><img src=""static/images/cards/back_of_red_moons.svg"" width=""175px"" height=""250px""></img></td>
    <td width=300 height=300><img src=""static/images/cards/back_of_red_moons.svg"" width=""175px"" height=""250px""></img></td>
  </tr>
  <tr height=200>
    <td width=300></td>
    <td width=300><img src=""static/images/keys/m.svg"" width=""35%"" height=""75%""></img></td>
  </tr>
</table>
  ",77.0,1.0,,,,,,,,,,,,,,,,,,,,,,,,,,
197,0,,html-keyboard-response,197,322237,0.0-7.9-2.9,xh4ipu9oru7,2022-09-19 16:21:48.717,5d5a8cbeeb68e00018d85fb7,2,66,70,64,70,25,female,,,"
  <table>
  <tr height=300>
    <td width=300 height=300><img src=""static/images/cards/back_of_red_moons.svg"" width=""175px"" height=""250px""></img></td>
    <td width=300 height=300><img src=""static/images/cards/2_of_red_moons.svg"" width=""175px"" height=""250px""></img></td>
  </tr>
  <tr height=200>
    <td width=300></td>
    <td width=300><img src=""static/images/keys/m.svg"" width=""35%"" height=""75%""></img></td>
  </tr>
</table>
  ",,,,,,,,,,,,,,,,,,,,,,,,,,,,
198,0,,html-keyboard-response,198,323753,0.0-7.9-3.9,xh4ipu9oru7,2022-09-19 16:21:48.717,5d5a8cbeeb68e00018d85fb7,2,66,70,64,70,25,female,,,"<p style=""font-size:50px"">You win!
+10 points this round!</p>",,,,,,,,,,,,,,,,,,,,,,,,,,,,
199,0,,html-keyboard-response,199,324267,0.0-7.9-4.9,xh4ipu9oru7,2022-09-19 16:21:48.717,5d5a8cbeeb68e00018d85fb7,2,66,70,64,70,25,female,,,,,,1.0,choice,9.0,A,D,black,red,stars,moons,A,D,D,red,moons,865.200000003,0.0,0.0,0,right,346.299999997,2.0,0.0,1.0,,,
200,0,,html-keyboard-response,200,324903,0.0-7.10-0.10,xh4ipu9oru7,2022-09-19 16:21:48.717,5d5a8cbeeb68e00018d85fb7,2,66,70,64,70,25,female,634.599999994,,"
  <table>
  <tr height=300>
    <td width=300 height=300><img src=""static/images/cards/stack_of_black_stars.svg"" width=""175px"" height=""250px""></img></td>
    <td width=300 height=300><img src=""static/images/cards/stack_of_red_stars.svg"" width=""175px"" height=""250px""></img></td>
  </tr>
  <tr height=200>
    <td width=300><img src=""static/images/keys/w.svg"" width=""35%"" height=""75%""></img></td>
    <td width=300><img src=""static/images/keys/o.svg"" width=""35%"" height=""75%""></img></td>
  </tr>
</table>
  ",79.0,1.0,,,,,,,,,,,,,,,,,,,,,,,,,,
201,0,,html-keyboard-response,201,325743,0.0-7.10-1.10,xh4ipu9oru7,2022-09-19 16:21:48.717,5d5a8cbeeb68e00018d85fb7,2,66,70,64,70,25,female,329.200000003,,"
  <table>
  <tr height=300>
    <td width=300 height=300><img src=""static/images/cards/back_of_red_stars.svg"" width=""175px"" height=""250px""></img></td>
    <td width=300 height=300><img src=""static/images/cards/back_of_red_stars.svg"" width=""175px"" height=""250px""></img></td>
  </tr>
  <tr height=200>
    <td width=300></td>
    <td width=300><img src=""static/images/keys/m.svg"" width=""35%"" height=""75%""></img></td>
  </tr>
</table>
  ",77.0,1.0,,,,,,,,,,,,,,,,,,,,,,,,,,
202,0,,html-keyboard-response,202,327254,0.0-7.10-2.10,xh4ipu9oru7,2022-09-19 16:21:48.717,5d5a8cbeeb68e00018d85fb7,2,66,70,64,70,25,female,,,"
  <table>
  <tr height=300>
    <td width=300 height=300><img src=""static/images/cards/back_of_red_stars.svg"" width=""175px"" height=""250px""></img></td>
    <td width=300 height=300><img src=""static/images/cards/6_of_red_stars.svg"" width=""175px"" height=""250px""></img></td>
  </tr>
  <tr height=200>
    <td width=300></td>
    <td width=300><img src=""static/images/keys/m.svg"" width=""35%"" height=""75%""></img></td>
  </tr>
</table>
  ",,,,,,,,,,,,,,,,,,,,,,,,,,,,
203,0,,html-keyboard-response,203,328775,0.0-7.10-3.10,xh4ipu9oru7,2022-09-19 16:21:48.717,5d5a8cbeeb68e00018d85fb7,2,66,70,64,70,25,female,,,"<p style=""font-size:50px"">You win!
+10 points this round!</p>",,,,,,,,,,,,,,,,,,,,,,,,,,,,
204,0,,html-keyboard-response,204,329288,0.0-7.10-4.10,xh4ipu9oru7,2022-09-19 16:21:48.717,5d5a8cbeeb68e00018d85fb7,2,66,70,64,70,25,female,,,,,,1.0,choice,10.0,A,B,black,red,stars,stars,A,B,B,red,stars,634.599999994,0.0,1.0,0,right,329.200000003,6.0,1.0,1.0,,,
205,0,,html-keyboard-response,205,330231,0.0-7.11-0.11,xh4ipu9oru7,2022-09-19 16:21:48.717,5d5a8cbeeb68e00018d85fb7,2,66,70,64,70,25,female,940.200000003,,"
  <table>
  <tr height=300>
    <td width=300 height=300><img src=""static/images/cards/stack_of_red_stars.svg"" width=""175px"" height=""250px""></img></td>
    <td width=300 height=300><img src=""static/images/cards/stack_of_red_moons.svg"" width=""175px"" height=""250px""></img></td>
  </tr>
  <tr height=200>
    <td width=300><img src=""static/images/keys/w.svg"" width=""35%"" height=""75%""></img></td>
    <td width=300><img src=""static/images/keys/o.svg"" width=""35%"" height=""75%""></img></td>
  </tr>
</table>
  ",79.0,1.0,,,,,,,,,,,,,,,,,,,,,,,,,,
206,0,,html-keyboard-response,206,331134,0.0-7.11-1.11,xh4ipu9oru7,2022-09-19 16:21:48.717,5d5a8cbeeb68e00018d85fb7,2,66,70,64,70,25,female,392.099999994,,"
  <table>
  <tr height=300>
    <td width=300 height=300><img src=""static/images/cards/back_of_red_moons.svg"" width=""175px"" height=""250px""></img></td>
    <td width=300 height=300><img src=""static/images/cards/back_of_red_moons.svg"" width=""175px"" height=""250px""></img></td>
  </tr>
  <tr height=200>
    <td width=300></td>
    <td width=300><img src=""static/images/keys/m.svg"" width=""35%"" height=""75%""></img></td>
  </tr>
</table>
  ",77.0,1.0,,,,,,,,,,,,,,,,,,,,,,,,,,
207,0,,html-keyboard-response,207,332650,0.0-7.11-2.11,xh4ipu9oru7,2022-09-19 16:21:48.717,5d5a8cbeeb68e00018d85fb7,2,66,70,64,70,25,female,,,"
  <table>
  <tr height=300>
    <td width=300 height=300><img src=""static/images/cards/back_of_red_moons.svg"" width=""175px"" height=""250px""></img></td>
    <td width=300 height=300><img src=""static/images/cards/3_of_red_moons.svg"" width=""175px"" height=""250px""></img></td>
  </tr>
  <tr height=200>
    <td width=300></td>
    <td width=300><img src=""static/images/keys/m.svg"" width=""35%"" height=""75%""></img></td>
  </tr>
</table>
  ",,,,,,,,,,,,,,,,,,,,,,,,,,,,
208,0,,html-keyboard-response,208,334158,0.0-7.11-3.11,xh4ipu9oru7,2022-09-19 16:21:48.717,5d5a8cbeeb68e00018d85fb7,2,66,70,64,70,25,female,,,"<p style=""font-size:50px"">You Lose!
No points this round.</p>",,,,,,,,,,,,,,,,,,,,,,,,,,,,
209,0,,html-keyboard-response,209,334675,0.0-7.11-4.11,xh4ipu9oru7,2022-09-19 16:21:48.717,5d5a8cbeeb68e00018d85fb7,2,66,70,64,70,25,female,,,,,,1.0,choice,11.0,B,D,red,red,stars,moons,B,D,D,red,moons,940.200000003,0.0,0.0,0,right,392.099999994,3.0,0.0,0.0,,,
210,0,,html-keyboard-response,210,335213,0.0-7.12-0.12,xh4ipu9oru7,2022-09-19 16:21:48.717,5d5a8cbeeb68e00018d85fb7,2,66,70,64,70,25,female,535.900000006,,"
  <table>
  <tr height=300>
    <td width=300 height=300><img src=""static/images/cards/stack_of_black_moons.svg"" width=""175px"" height=""250px""></img></td>
    <td width=300 height=300><img src=""static/images/cards/stack_of_red_moons.svg"" width=""175px"" height=""250px""></img></td>
  </tr>
  <tr height=200>
    <td width=300><img src=""static/images/keys/w.svg"" width=""35%"" height=""75%""></img></td>
    <td width=300><img src=""static/images/keys/o.svg"" width=""35%"" height=""75%""></img></td>
  </tr>
</table>
  ",79.0,1.0,,,,,,,,,,,,,,,,,,,,,,,,,,
211,0,,html-keyboard-response,211,336065,0.0-7.12-1.12,xh4ipu9oru7,2022-09-19 16:21:48.717,5d5a8cbeeb68e00018d85fb7,2,66,70,64,70,25,female,336.299999997,,"
  <table>
  <tr height=300>
    <td width=300 height=300><img src=""static/images/cards/back_of_red_moons.svg"" width=""175px"" height=""250px""></img></td>
    <td width=300 height=300><img src=""static/images/cards/back_of_red_moons.svg"" width=""175px"" height=""250px""></img></td>
  </tr>
  <tr height=200>
    <td width=300></td>
    <td width=300><img src=""static/images/keys/m.svg"" width=""35%"" height=""75%""></img></td>
  </tr>
</table>
  ",77.0,1.0,,,,,,,,,,,,,,,,,,,,,,,,,,
212,0,,html-keyboard-response,212,337579,0.0-7.12-2.12,xh4ipu9oru7,2022-09-19 16:21:48.717,5d5a8cbeeb68e00018d85fb7,2,66,70,64,70,25,female,,,"
  <table>
  <tr height=300>
    <td width=300 height=300><img src=""static/images/cards/back_of_red_moons.svg"" width=""175px"" height=""250px""></img></td>
    <td width=300 height=300><img src=""static/images/cards/7_of_red_moons.svg"" width=""175px"" height=""250px""></img></td>
  </tr>
  <tr height=200>
    <td width=300></td>
    <td width=300><img src=""static/images/keys/m.svg"" width=""35%"" height=""75%""></img></td>
  </tr>
</table>
  ",,,,,,,,,,,,,,,,,,,,,,,,,,,,
213,0,,html-keyboard-response,213,339097,0.0-7.12-3.12,xh4ipu9oru7,2022-09-19 16:21:48.717,5d5a8cbeeb68e00018d85fb7,2,66,70,64,70,25,female,,,"<p style=""font-size:50px"">You win!
+10 points this round!</p>",,,,,,,,,,,,,,,,,,,,,,,,,,,,
214,0,,html-keyboard-response,214,339622,0.0-7.12-4.12,xh4ipu9oru7,2022-09-19 16:21:48.717,5d5a8cbeeb68e00018d85fb7,2,66,70,64,70,25,female,,,,,,1.0,choice,12.0,C,D,black,red,moons,moons,C,D,D,red,moons,535.900000006,0.0,0.0,0,right,336.299999997,7.0,1.0,1.0,,,
215,0,,html-keyboard-response,215,340434,0.0-7.13-0.13,xh4ipu9oru7,2022-09-19 16:21:48.717,5d5a8cbeeb68e00018d85fb7,2,66,70,64,70,25,female,809.700000003,,"
  <table>
  <tr height=300>
    <td width=300 height=300><img src=""static/images/cards/stack_of_black_stars.svg"" width=""175px"" height=""250px""></img></td>
    <td width=300 height=300><img src=""static/images/cards/stack_of_red_moons.svg"" width=""175px"" height=""250px""></img></td>
  </tr>
  <tr height=200>
    <td width=300><img src=""static/images/keys/w.svg"" width=""35%"" height=""75%""></img></td>
    <td width=300><img src=""static/images/keys/o.svg"" width=""35%"" height=""75%""></img></td>
  </tr>
</table>
  ",79.0,1.0,,,,,,,,,,,,,,,,,,,,,,,,,,
216,0,,html-keyboard-response,216,341269,0.0-7.13-1.13,xh4ipu9oru7,2022-09-19 16:21:48.717,5d5a8cbeeb68e00018d85fb7,2,66,70,64,70,25,female,328.200000003,,"
  <table>
  <tr height=300>
    <td width=300 height=300><img src=""static/images/cards/back_of_red_moons.svg"" width=""175px"" height=""250px""></img></td>
    <td width=300 height=300><img src=""static/images/cards/back_of_red_moons.svg"" width=""175px"" height=""250px""></img></td>
  </tr>
  <tr height=200>
    <td width=300><img src=""static/images/keys/z.svg"" width=""35%"" height=""75%""></img></td>
    <td width=300></td>
  </tr>
</table>
  ",90.0,1.0,,,,,,,,,,,,,,,,,,,,,,,,,,
217,0,,html-keyboard-response,217,342779,0.0-7.13-2.13,xh4ipu9oru7,2022-09-19 16:21:48.717,5d5a8cbeeb68e00018d85fb7,2,66,70,64,70,25,female,,,"
  <table>
  <tr height=300>
    <td width=300 height=300><img src=""static/images/cards/4_of_red_moons.svg"" width=""175px"" height=""250px""></img></td>
    <td width=300 height=300><img src=""static/images/cards/back_of_red_moons.svg"" width=""175px"" height=""250px""></img></td>
  </tr>
  <tr height=200>
    <td width=300><img src=""static/images/keys/z.svg"" width=""35%"" height=""75%""></img></td>
    <td width=300></td>
  </tr>
</table>
  ",,,,,,,,,,,,,,,,,,,,,,,,,,,,
218,0,,html-keyboard-response,218,344290,0.0-7.13-3.13,xh4ipu9oru7,2022-09-19 16:21:48.717,5d5a8cbeeb68e00018d85fb7,2,66,70,64,70,25,female,,,"<p style=""font-size:50px"">You Lose!
No points this round.</p>",,,,,,,,,,,,,,,,,,,,,,,,,,,,
219,0,,html-keyboard-response,219,344807,0.0-7.13-4.13,xh4ipu9oru7,2022-09-19 16:21:48.717,5d5a8cbeeb68e00018d85fb7,2,66,70,64,70,25,female,,,,,,1.0,choice,13.0,A,D,black,red,stars,moons,A,D,D,red,moons,809.700000003,0.0,0.0,1,left,328.200000003,4.0,0.0,0.0,,,
220,0,,html-keyboard-response,220,345327,0.0-7.14-0.14,xh4ipu9oru7,2022-09-19 16:21:48.717,5d5a8cbeeb68e00018d85fb7,2,66,70,64,70,25,female,519.1999999881,,"
  <table>
  <tr height=300>
    <td width=300 height=300><img src=""static/images/cards/stack_of_black_stars.svg"" width=""175px"" height=""250px""></img></td>
    <td width=300 height=300><img src=""static/images/cards/stack_of_red_stars.svg"" width=""175px"" height=""250px""></img></td>
  </tr>
  <tr height=200>
    <td width=300><img src=""static/images/keys/w.svg"" width=""35%"" height=""75%""></img></td>
    <td width=300><img src=""static/images/keys/o.svg"" width=""35%"" height=""75%""></img></td>
  </tr>
</table>
  ",79.0,1.0,,,,,,,,,,,,,,,,,,,,,,,,,,
221,0,,html-keyboard-response,221,346180,0.0-7.14-1.14,xh4ipu9oru7,2022-09-19 16:21:48.717,5d5a8cbeeb68e00018d85fb7,2,66,70,64,70,25,female,350.099999994,,"
  <table>
  <tr height=300>
    <td width=300 height=300><img src=""static/images/cards/back_of_red_stars.svg"" width=""175px"" height=""250px""></img></td>
    <td width=300 height=300><img src=""static/images/cards/back_of_red_stars.svg"" width=""175px"" height=""250px""></img></td>
  </tr>
  <tr height=200>
    <td width=300><img src=""static/images/keys/z.svg"" width=""35%"" height=""75%""></img></td>
    <td width=300></td>
  </tr>
</table>
  ",90.0,1.0,,,,,,,,,,,,,,,,,,,,,,,,,,
222,0,,html-keyboard-response,222,347682,0.0-7.14-2.14,xh4ipu9oru7,2022-09-19 16:21:48.717,5d5a8cbeeb68e00018d85fb7,2,66,70,64,70,25,female,,,"
  <table>
  <tr height=300>
    <td width=300 height=300><img src=""static/images/cards/8_of_red_stars.svg"" width=""175px"" height=""250px""></img></td>
    <td width=300 height=300><img src=""static/images/cards/back_of_red_stars.svg"" width=""175px"" height=""250px""></img></td>
  </tr>
  <tr height=200>
    <td width=300><img src=""static/images/keys/z.svg"" width=""35%"" height=""75%""></img></td>
    <td width=300></td>
  </tr>
</table>
  ",,,,,,,,,,,,,,,,,,,,,,,,,,,,
223,0,,html-keyboard-response,223,349211,0.0-7.14-3.14,xh4ipu9oru7,2022-09-19 16:21:48.717,5d5a8cbeeb68e00018d85fb7,2,66,70,64,70,25,female,,,"<p style=""font-size:50px"">You win!
+10 points this round!</p>",,,,,,,,,,,,,,,,,,,,,,,,,,,,
224,0,,html-keyboard-response,224,349733,0.0-7.14-4.14,xh4ipu9oru7,2022-09-19 16:21:48.717,5d5a8cbeeb68e00018d85fb7,2,66,70,64,70,25,female,,,,,,1.0,choice,14.0,A,B,black,red,stars,stars,A,B,B,red,stars,519.1999999881,0.0,1.0,1,left,350.099999994,8.0,1.0,1.0,,,
225,0,,html-keyboard-response,225,350702,0.0-7.15-0.15,xh4ipu9oru7,2022-09-19 16:21:48.717,5d5a8cbeeb68e00018d85fb7,2,66,70,64,70,25,female,966.599999994,,"
  <table>
  <tr height=300>
    <td width=300 height=300><img src=""static/images/cards/stack_of_red_bolts.svg"" width=""175px"" height=""250px""></img></td>
    <td width=300 height=300><img src=""static/images/cards/stack_of_red_moons.svg"" width=""175px"" height=""250px""></img></td>
  </tr>
  <tr height=200>
    <td width=300><img src=""static/images/keys/w.svg"" width=""35%"" height=""75%""></img></td>
    <td width=300><img src=""static/images/keys/o.svg"" width=""35%"" height=""75%""></img></td>
  </tr>
</table>
  ",87.0,1.0,,,,,,,,,,,,,,,,,,,,,,,,,,
226,0,,html-keyboard-response,226,351714,0.0-7.15-1.15,xh4ipu9oru7,2022-09-19 16:21:48.717,5d5a8cbeeb68e00018d85fb7,2,66,70,64,70,25,female,496.5,,"
  <table>
  <tr height=300>
    <td width=300 height=300><img src=""static/images/cards/back_of_red_bolts.svg"" width=""175px"" height=""250px""></img></td>
    <td width=300 height=300><img src=""static/images/cards/back_of_red_bolts.svg"" width=""175px"" height=""250px""></img></td>
  </tr>
  <tr height=200>
    <td width=300><img src=""static/images/keys/z.svg"" width=""35%"" height=""75%""></img></td>
    <td width=300><img src=""static/images/keys/m.svg"" width=""35%"" height=""75%""></img></td>
  </tr>
</table>
  ",77.0,1.0,,,,,,,,,,,,,,,,,,,,,,,,,,
227,0,,html-keyboard-response,227,353228,0.0-7.15-2.15,xh4ipu9oru7,2022-09-19 16:21:48.717,5d5a8cbeeb68e00018d85fb7,2,66,70,64,70,25,female,,,"
  <table>
  <tr height=300>
    <td width=300 height=300><img src=""static/images/cards/back_of_red_bolts.svg"" width=""175px"" height=""250px""></img></td>
    <td width=300 height=300><img src=""static/images/cards/2_of_red_bolts.svg"" width=""175px"" height=""250px""></img></td>
  </tr>
  <tr height=200>
    <td width=300><img src=""static/images/keys/z.svg"" width=""35%"" height=""75%""></img></td>
    <td width=300><img src=""static/images/keys/m.svg"" width=""35%"" height=""75%""></img></td>
  </tr>
</table>
  ",,,,,,,,,,,,,,,,,,,,,,,,,,,,
228,0,,html-keyboard-response,228,354738,0.0-7.15-3.15,xh4ipu9oru7,2022-09-19 16:21:48.717,5d5a8cbeeb68e00018d85fb7,2,66,70,64,70,25,female,,,"<p style=""font-size:50px"">You win!
+10 points this round!</p>",,,,,,,,,,,,,,,,,,,,,,,,,,,,
229,0,,html-keyboard-response,229,355250,0.0-7.15-4.15,xh4ipu9oru7,2022-09-19 16:21:48.717,5d5a8cbeeb68e00018d85fb7,2,66,70,64,70,25,female,,,,,,1.0,choice,15.0,D,Xc,red,red,bolts,moons,Xc,D,Xc,red,bolts,966.599999994,1.0,0.0,NA,right,496.5,2.0,0.0,1.0,,,
230,0,,html-keyboard-response,230,356048,0.0-7.16-0.16,xh4ipu9oru7,2022-09-19 16:21:48.717,5d5a8cbeeb68e00018d85fb7,2,66,70,64,70,25,female,795.6000000089,,"
  <table>
  <tr height=300>
    <td width=300 height=300><img src=""static/images/cards/stack_of_black_stars.svg"" width=""175px"" height=""250px""></img></td>
    <td width=300 height=300><img src=""static/images/cards/stack_of_red_moons.svg"" width=""175px"" height=""250px""></img></td>
  </tr>
  <tr height=200>
    <td width=300><img src=""static/images/keys/w.svg"" width=""35%"" height=""75%""></img></td>
    <td width=300><img src=""static/images/keys/o.svg"" width=""35%"" height=""75%""></img></td>
  </tr>
</table>
  ",79.0,1.0,,,,,,,,,,,,,,,,,,,,,,,,,,
231,0,,html-keyboard-response,231,356938,0.0-7.16-1.16,xh4ipu9oru7,2022-09-19 16:21:48.717,5d5a8cbeeb68e00018d85fb7,2,66,70,64,70,25,female,379.8000000119,,"
  <table>
  <tr height=300>
    <td width=300 height=300><img src=""static/images/cards/back_of_red_moons.svg"" width=""175px"" height=""250px""></img></td>
    <td width=300 height=300><img src=""static/images/cards/back_of_red_moons.svg"" width=""175px"" height=""250px""></img></td>
  </tr>
  <tr height=200>
    <td width=300><img src=""static/images/keys/z.svg"" width=""35%"" height=""75%""></img></td>
    <td width=300></td>
  </tr>
</table>
  ",90.0,1.0,,,,,,,,,,,,,,,,,,,,,,,,,,
232,0,,html-keyboard-response,232,358452,0.0-7.16-2.16,xh4ipu9oru7,2022-09-19 16:21:48.717,5d5a8cbeeb68e00018d85fb7,2,66,70,64,70,25,female,,,"
  <table>
  <tr height=300>
    <td width=300 height=300><img src=""static/images/cards/3_of_red_moons.svg"" width=""175px"" height=""250px""></img></td>
    <td width=300 height=300><img src=""static/images/cards/back_of_red_moons.svg"" width=""175px"" height=""250px""></img></td>
  </tr>
  <tr height=200>
    <td width=300><img src=""static/images/keys/z.svg"" width=""35%"" height=""75%""></img></td>
    <td width=300></td>
  </tr>
</table>
  ",,,,,,,,,,,,,,,,,,,,,,,,,,,,
233,0,,html-keyboard-response,233,359976,0.0-7.16-3.16,xh4ipu9oru7,2022-09-19 16:21:48.717,5d5a8cbeeb68e00018d85fb7,2,66,70,64,70,25,female,,,"<p style=""font-size:50px"">You win!
+10 points this round!</p>",,,,,,,,,,,,,,,,,,,,,,,,,,,,
234,0,,html-keyboard-response,234,360496,0.0-7.16-4.16,xh4ipu9oru7,2022-09-19 16:21:48.717,5d5a8cbeeb68e00018d85fb7,2,66,70,64,70,25,female,,,,,,1.0,choice,16.0,A,D,black,red,stars,moons,A,D,D,red,moons,795.6000000089,0.0,0.0,1,left,379.8000000119,3.0,0.0,1.0,,,
235,0,,html-keyboard-response,235,361204,0.0-7.17-0.17,xh4ipu9oru7,2022-09-19 16:21:48.717,5d5a8cbeeb68e00018d85fb7,2,66,70,64,70,25,female,706.5,,"
  <table>
  <tr height=300>
    <td width=300 height=300><img src=""static/images/cards/stack_of_red_moons.svg"" width=""175px"" height=""250px""></img></td>
