,index,success,trial_type,trial_index,time_elapsed,internal_node_id,subject,date,prol_id,ctbl,sense_of_control_A,sense_of_control_B,sense_of_control_C,sense_of_control_D,age,gender,rt,url,stimulus,key_press,npress,is_data_trial,phase,trial,deck1,deck2,col1,col2,sym1,sym2,deck_l,deck_r,chosen_deck,chosen_col,chosen_sym,deck_rt,choose_choice,mutual_info,hidden_key,chosen_card,card_rt,player_num,win_card,outcome,mock_rating,response,responses
0,0,1.0,fullscreen,0,3382,0.0-0.0,8vji570cqd9,2022-09-19 16:45:04.584,55b2d3f2fdf99b525bc839aa,1,78,23,24,70,35,male,,,,,,,,,,,,,,,,,,,,,,,,,,,,,,,
1,0,,external-html,1,48666,0.0-1.0,8vji570cqd9,2022-09-19 16:45:04.584,55b2d3f2fdf99b525bc839aa,1,78,23,24,70,35,male,45190.3000000007,static/js/sub/consent.html,,,,,,,,,,,,,,,,,,,,,,,,,,,,,
2,0,,call-function,2,48667,0.0-2.0,8vji570cqd9,2022-09-19 16:45:04.584,55b2d3f2fdf99b525bc839aa,1,78,23,24,70,35,male,,,,,,,,,,,,,,,,,,,,,,,,,,,,,,,
3,0,,image-keyboard-response,3,80209,0.0-3.0-0.0,8vji570cqd9,2022-09-19 16:45:04.584,55b2d3f2fdf99b525bc839aa,1,78,23,24,70,35,male,31541.3000000007,,static/images/instructions_CB_1/Slide1.png,39.0,,,,,,,,,,,,,,,,,,,,,,,,,,,
4,0,,image-keyboard-response,4,82979,0.0-3.1-0.1,8vji570cqd9,2022-09-19 16:45:04.584,55b2d3f2fdf99b525bc839aa,1,78,23,24,70,35,male,2768.7000000011,,static/images/instructions_CB_1/Slide2.png,39.0,,,,,,,,,,,,,,,,,,,,,,,,,,,
5,0,,image-keyboard-response,5,85345,0.0-3.2-0.2,8vji570cqd9,2022-09-19 16:45:04.584,55b2d3f2fdf99b525bc839aa,1,78,23,24,70,35,male,2365.3000000007,,static/images/instructions_CB_1/Slide3.png,39.0,,,,,,,,,,,,,,,,,,,,,,,,,,,
6,0,,image-keyboard-response,6,109398,0.0-3.3-0.3,8vji570cqd9,2022-09-19 16:45:04.584,55b2d3f2fdf99b525bc839aa,1,78,23,24,70,35,male,24052.3000000007,,static/images/instructions_CB_1/Slide4.png,39.0,,,,,,,,,,,,,,,,,,,,,,,,,,,
7,0,,image-keyboard-response,7,143500,0.0-3.4-0.4,8vji570cqd9,2022-09-19 16:45:04.584,55b2d3f2fdf99b525bc839aa,1,78,23,24,70,35,male,34101.5999999996,,static/images/instructions_CB_1/Slide5.png,39.0,,,,,,,,,,,,,,,,,,,,,,,,,,,
8,0,,image-keyboard-response,8,175376,0.0-3.5-0.5,8vji570cqd9,2022-09-19 16:45:04.584,55b2d3f2fdf99b525bc839aa,1,78,23,24,70,35,male,31875.2000000011,,static/images/instructions_CB_1/Slide6.png,39.0,,,,,,,,,,,,,,,,,,,,,,,,,,,
9,0,,image-keyboard-response,9,188549,0.0-3.6-0.6,8vji570cqd9,2022-09-19 16:45:04.584,55b2d3f2fdf99b525bc839aa,1,78,23,24,70,35,male,13172.1999999993,,static/images/instructions_CB_1/Slide7.png,39.0,,,,,,,,,,,,,,,,,,,,,,,,,,,
10,0,,image-keyboard-response,10,202145,0.0-3.7-0.7,8vji570cqd9,2022-09-19 16:45:04.584,55b2d3f2fdf99b525bc839aa,1,78,23,24,70,35,male,13595.5,,static/images/instructions_CB_1/Slide8.png,39.0,,,,,,,,,,,,,,,,,,,,,,,,,,,
11,0,,image-keyboard-response,11,326095,0.0-3.8-0.8,8vji570cqd9,2022-09-19 16:45:04.584,55b2d3f2fdf99b525bc839aa,1,78,23,24,70,35,male,123949.5,,static/images/instructions_CB_1/Slide9.png,39.0,,,,,,,,,,,,,,,,,,,,,,,,,,,
12,0,,image-keyboard-response,12,333449,0.0-3.9-0.9,8vji570cqd9,2022-09-19 16:45:04.584,55b2d3f2fdf99b525bc839aa,1,78,23,24,70,35,male,7353.3000000007,,static/images/instructions_CB_1/Slide10.png,39.0,,,,,,,,,,,,,,,,,,,,,,,,,,,
13,0,,image-keyboard-response,13,336835,0.0-3.10-0.10,8vji570cqd9,2022-09-19 16:45:04.584,55b2d3f2fdf99b525bc839aa,1,78,23,24,70,35,male,3385.5,,static/images/instructions_CB_1/Slide11.png,39.0,,,,,,,,,,,,,,,,,,,,,,,,,,,
14,0,,image-keyboard-response,14,353623,0.0-3.11-0.11,8vji570cqd9,2022-09-19 16:45:04.584,55b2d3f2fdf99b525bc839aa,1,78,23,24,70,35,male,16787.4000000004,,static/images/instructions_CB_1/Slide12.png,39.0,,,,,,,,,,,,,,,,,,,,,,,,,,,
15,0,,image-keyboard-response,15,398264,0.0-3.12-0.12,8vji570cqd9,2022-09-19 16:45:04.584,55b2d3f2fdf99b525bc839aa,1,78,23,24,70,35,male,44639.4000000004,,static/images/instructions_CB_1/Slide13.png,39.0,,,,,,,,,,,,,,,,,,,,,,,,,,,
16,0,,image-keyboard-response,16,402121,0.0-3.13-0.13,8vji570cqd9,2022-09-19 16:45:04.584,55b2d3f2fdf99b525bc839aa,1,78,23,24,70,35,male,3856.4000000004,,static/images/instructions_CB_1/Slide14.png,37.0,,,,,,,,,,,,,,,,,,,,,,,,,,,
17,0,,image-keyboard-response,17,412642,0.0-3.14-0.14,8vji570cqd9,2022-09-19 16:45:04.584,55b2d3f2fdf99b525bc839aa,1,78,23,24,70,35,male,10520.5999999996,,static/images/instructions_CB_1/Slide13.png,39.0,,,,,,,,,,,,,,,,,,,,,,,,,,,
18,0,,image-keyboard-response,18,419743,0.0-3.15-0.15,8vji570cqd9,2022-09-19 16:45:04.584,55b2d3f2fdf99b525bc839aa,1,78,23,24,70,35,male,7100.3000000007,,static/images/instructions_CB_1/Slide14.png,39.0,,,,,,,,,,,,,,,,,,,,,,,,,,,
19,0,,image-keyboard-response,19,474895,0.0-3.16-0.16,8vji570cqd9,2022-09-19 16:45:04.584,55b2d3f2fdf99b525bc839aa,1,78,23,24,70,35,male,55152.5,,static/images/instructions_CB_1/Slide15.png,39.0,,,,,,,,,,,,,,,,,,,,,,,,,,,
20,0,,image-keyboard-response,20,476441,0.0-3.17-0.17,8vji570cqd9,2022-09-19 16:45:04.584,55b2d3f2fdf99b525bc839aa,1,78,23,24,70,35,male,1545.4000000004,,static/images/instructions_CB_1/Slide16.png,39.0,,,,,,,,,,,,,,,,,,,,,,,,,,,
21,0,,image-keyboard-response,21,477066,0.0-3.18-0.18,8vji570cqd9,2022-09-19 16:45:04.584,55b2d3f2fdf99b525bc839aa,1,78,23,24,70,35,male,624.5,,static/images/instructions_CB_1/Slide17.png,39.0,,,,,,,,,,,,,,,,,,,,,,,,,,,
22,0,,image-keyboard-response,22,482438,0.0-3.19-0.19,8vji570cqd9,2022-09-19 16:45:04.584,55b2d3f2fdf99b525bc839aa,1,78,23,24,70,35,male,5371.4000000004,,static/images/instructions_CB_1/Slide18.png,39.0,,,,,,,,,,,,,,,,,,,,,,,,,,,
23,0,,image-keyboard-response,23,484416,0.0-3.20-0.20,8vji570cqd9,2022-09-19 16:45:04.584,55b2d3f2fdf99b525bc839aa,1,78,23,24,70,35,male,1977.5,,static/images/instructions_CB_1/Slide19.png,39.0,,,,,,,,,,,,,,,,,,,,,,,,,,,
24,0,,html-keyboard-response,24,485932,0.0-4.0-0.0,8vji570cqd9,2022-09-19 16:45:04.584,55b2d3f2fdf99b525bc839aa,1,78,23,24,70,35,male,,,"<img src=""static/images/cards/stack_of_red_moons.svg"" width=""175px"" height=""250px""></img>",,,,,,,,,,,,,,,,,,,,,,,,,,,,
25,0,,html-keyboard-response,25,487340,0.0-4.0-1.0,8vji570cqd9,2022-09-19 16:45:04.584,55b2d3f2fdf99b525bc839aa,1,78,23,24,70,35,male,900.3000000007,,"
  <table>
  <tr height=300>
    <td width=300 height=300><img src=""static/images/cards/back_of_red_moons.svg"" width=""175px"" height=""250px""></img></td>
    <td width=300 height=300><img src=""static/images/cards/back_of_red_moons.svg"" width=""175px"" height=""250px""></img></td>
  </tr>
  <tr height=200>
    <td width=300><img src=""static/images/keys/z.svg"" width=""35%"" height=""75%""></img></td>
    <td width=300><img src=""static/images/keys/m.svg"" width=""35%"" height=""75%""></img></td>
  </tr>
</table>
  ",77.0,1.0,,,,,,,,,,,,,,,,,,,,,,,,,,
26,0,,html-keyboard-response,26,488848,0.0-4.0-2.0,8vji570cqd9,2022-09-19 16:45:04.584,55b2d3f2fdf99b525bc839aa,1,78,23,24,70,35,male,,,"
  <table>
  <tr height=300>
    <td width=300 height=300><img src=""static/images/cards/back_of_red_moons.svg"" width=""175px"" height=""250px""></img></td>
    <td width=300 height=300><img src=""static/images/cards/2_of_red_moons.svg"" width=""175px"" height=""250px""></img></td>
  </tr>
  <tr height=200>
    <td width=300><img src=""static/images/keys/z.svg"" width=""35%"" height=""75%""></img></td>
    <td width=300><img src=""static/images/keys/m.svg"" width=""35%"" height=""75%""></img></td>
  </tr>
</table>
  ",,,,,,,,,,,,,,,,,,,,,,,,,,,,
27,0,,html-keyboard-response,27,490360,0.0-4.0-3.0,8vji570cqd9,2022-09-19 16:45:04.584,55b2d3f2fdf99b525bc839aa,1,78,23,24,70,35,male,,,"<p style=""font-size:50px"">You Lose!
No points this round.</p>",,,,,,,,,,,,,,,,,,,,,,,,,,,,
28,0,,html-keyboard-response,28,490872,0.0-4.0-4.0,8vji570cqd9,2022-09-19 16:45:04.584,55b2d3f2fdf99b525bc839aa,1,78,23,24,70,35,male,,,,,,1.0,learning,0.0,A,,red,,moons,,,,A,red,moons,,1.0,1.0,NA,right,900.3000000007,2.0,0.0,0.0,,,
29,0,,html-keyboard-response,29,492379,0.0-4.1-0.1,8vji570cqd9,2022-09-19 16:45:04.584,55b2d3f2fdf99b525bc839aa,1,78,23,24,70,35,male,,,"<img src=""static/images/cards/stack_of_black_moons.svg"" width=""175px"" height=""250px""></img>",,,,,,,,,,,,,,,,,,,,,,,,,,,,
30,0,,html-keyboard-response,30,493341,0.0-4.1-1.1,8vji570cqd9,2022-09-19 16:45:04.584,55b2d3f2fdf99b525bc839aa,1,78,23,24,70,35,male,451.9000000004,,"
  <table>
  <tr height=300>
    <td width=300 height=300><img src=""static/images/cards/back_of_black_moons.svg"" width=""175px"" height=""250px""></img></td>
    <td width=300 height=300><img src=""static/images/cards/back_of_black_moons.svg"" width=""175px"" height=""250px""></img></td>
  </tr>
  <tr height=200>
    <td width=300><img src=""static/images/keys/z.svg"" width=""35%"" height=""75%""></img></td>
    <td width=300></td>
  </tr>
</table>
  ",90.0,1.0,,,,,,,,,,,,,,,,,,,,,,,,,,
31,0,,html-keyboard-response,31,494847,0.0-4.1-2.1,8vji570cqd9,2022-09-19 16:45:04.584,55b2d3f2fdf99b525bc839aa,1,78,23,24,70,35,male,,,"
  <table>
  <tr height=300>
    <td width=300 height=300><img src=""static/images/cards/4_of_black_moons.svg"" width=""175px"" height=""250px""></img></td>
    <td width=300 height=300><img src=""static/images/cards/back_of_black_moons.svg"" width=""175px"" height=""250px""></img></td>
  </tr>
  <tr height=200>
    <td width=300><img src=""static/images/keys/z.svg"" width=""35%"" height=""75%""></img></td>
    <td width=300></td>
  </tr>
</table>
  ",,,,,,,,,,,,,,,,,,,,,,,,,,,,
32,0,,html-keyboard-response,32,496362,0.0-4.1-3.1,8vji570cqd9,2022-09-19 16:45:04.584,55b2d3f2fdf99b525bc839aa,1,78,23,24,70,35,male,,,"<p style=""font-size:50px"">You Lose!
No points this round.</p>",,,,,,,,,,,,,,,,,,,,,,,,,,,,
33,0,,html-keyboard-response,33,496876,0.0-4.1-4.1,8vji570cqd9,2022-09-19 16:45:04.584,55b2d3f2fdf99b525bc839aa,1,78,23,24,70,35,male,,,,,,1.0,learning,1.0,B,,black,,moons,,,,B,black,moons,,0.0,1.0,1,left,451.9000000004,4.0,0.0,0.0,,,
34,0,,html-keyboard-response,34,498378,0.0-4.2-0.2,8vji570cqd9,2022-09-19 16:45:04.584,55b2d3f2fdf99b525bc839aa,1,78,23,24,70,35,male,,,"<img src=""static/images/cards/stack_of_red_stars.svg"" width=""175px"" height=""250px""></img>",,,,,,,,,,,,,,,,,,,,,,,,,,,,
35,0,,html-keyboard-response,35,499340,0.0-4.2-1.2,8vji570cqd9,2022-09-19 16:45:04.584,55b2d3f2fdf99b525bc839aa,1,78,23,24,70,35,male,445.3000000007,,"
  <table>
  <tr height=300>
    <td width=300 height=300><img src=""static/images/cards/back_of_red_stars.svg"" width=""175px"" height=""250px""></img></td>
    <td width=300 height=300><img src=""static/images/cards/back_of_red_stars.svg"" width=""175px"" height=""250px""></img></td>
  </tr>
  <tr height=200>
    <td width=300><img src=""static/images/keys/z.svg"" width=""35%"" height=""75%""></img></td>
    <td width=300><img src=""static/images/keys/m.svg"" width=""35%"" height=""75%""></img></td>
  </tr>
</table>
  ",77.0,1.0,,,,,,,,,,,,,,,,,,,,,,,,,,
36,0,,html-keyboard-response,36,500841,0.0-4.2-2.2,8vji570cqd9,2022-09-19 16:45:04.584,55b2d3f2fdf99b525bc839aa,1,78,23,24,70,35,male,,,"
  <table>
  <tr height=300>
    <td width=300 height=300><img src=""static/images/cards/back_of_red_stars.svg"" width=""175px"" height=""250px""></img></td>
    <td width=300 height=300><img src=""static/images/cards/3_of_red_stars.svg"" width=""175px"" height=""250px""></img></td>
  </tr>
  <tr height=200>
    <td width=300><img src=""static/images/keys/z.svg"" width=""35%"" height=""75%""></img></td>
    <td width=300><img src=""static/images/keys/m.svg"" width=""35%"" height=""75%""></img></td>
  </tr>
</table>
  ",,,,,,,,,,,,,,,,,,,,,,,,,,,,
37,0,,html-keyboard-response,37,502349,0.0-4.2-3.2,8vji570cqd9,2022-09-19 16:45:04.584,55b2d3f2fdf99b525bc839aa,1,78,23,24,70,35,male,,,"<p style=""font-size:50px"">You win!
+10 points this round!</p>",,,,,,,,,,,,,,,,,,,,,,,,,,,,
38,0,,html-keyboard-response,38,502864,0.0-4.2-4.2,8vji570cqd9,2022-09-19 16:45:04.584,55b2d3f2fdf99b525bc839aa,1,78,23,24,70,35,male,,,,,,1.0,learning,2.0,C,,red,,stars,,,,C,red,stars,,1.0,0.0,NA,right,445.3000000007,3.0,0.0,1.0,,,
39,0,,html-keyboard-response,39,504375,0.0-4.3-0.3,8vji570cqd9,2022-09-19 16:45:04.584,55b2d3f2fdf99b525bc839aa,1,78,23,24,70,35,male,,,"<img src=""static/images/cards/stack_of_black_stars.svg"" width=""175px"" height=""250px""></img>",,,,,,,,,,,,,,,,,,,,,,,,,,,,
40,0,,html-keyboard-response,40,505269,0.0-4.3-1.3,8vji570cqd9,2022-09-19 16:45:04.584,55b2d3f2fdf99b525bc839aa,1,78,23,24,70,35,male,381.1999999993,,"
  <table>
  <tr height=300>
    <td width=300 height=300><img src=""static/images/cards/back_of_black_stars.svg"" width=""175px"" height=""250px""></img></td>
    <td width=300 height=300><img src=""static/images/cards/back_of_black_stars.svg"" width=""175px"" height=""250px""></img></td>
  </tr>
  <tr height=200>
    <td width=300><img src=""static/images/keys/z.svg"" width=""35%"" height=""75%""></img></td>
    <td width=300></td>
  </tr>
</table>
  ",90.0,1.0,,,,,,,,,,,,,,,,,,,,,,,,,,
41,0,,html-keyboard-response,41,506784,0.0-4.3-2.3,8vji570cqd9,2022-09-19 16:45:04.584,55b2d3f2fdf99b525bc839aa,1,78,23,24,70,35,male,,,"
  <table>
  <tr height=300>
    <td width=300 height=300><img src=""static/images/cards/8_of_black_stars.svg"" width=""175px"" height=""250px""></img></td>
    <td width=300 height=300><img src=""static/images/cards/back_of_black_stars.svg"" width=""175px"" height=""250px""></img></td>
  </tr>
  <tr height=200>
    <td width=300><img src=""static/images/keys/z.svg"" width=""35%"" height=""75%""></img></td>
    <td width=300></td>
  </tr>
</table>
  ",,,,,,,,,,,,,,,,,,,,,,,,,,,,
42,0,,html-keyboard-response,42,508295,0.0-4.3-3.3,8vji570cqd9,2022-09-19 16:45:04.584,55b2d3f2fdf99b525bc839aa,1,78,23,24,70,35,male,,,"<p style=""font-size:50px"">You Lose!
No points this round.</p>",,,,,,,,,,,,,,,,,,,,,,,,,,,,
43,0,,html-keyboard-response,43,508801,0.0-4.3-4.3,8vji570cqd9,2022-09-19 16:45:04.584,55b2d3f2fdf99b525bc839aa,1,78,23,24,70,35,male,,,,,,1.0,learning,3.0,D,,black,,stars,,,,D,black,stars,,0.0,0.0,1,left,381.1999999993,8.0,1.0,0.0,,,
44,0,,html-keyboard-response,44,510304,0.0-4.4-0.4,8vji570cqd9,2022-09-19 16:45:04.584,55b2d3f2fdf99b525bc839aa,1,78,23,24,70,35,male,,,"<img src=""static/images/cards/stack_of_red_bolts.svg"" width=""175px"" height=""250px""></img>",,,,,,,,,,,,,,,,,,,,,,,,,,,,
45,0,,html-keyboard-response,45,511127,0.0-4.4-1.4,8vji570cqd9,2022-09-19 16:45:04.584,55b2d3f2fdf99b525bc839aa,1,78,23,24,70,35,male,312.8000000007,,"
  <table>
  <tr height=300>
    <td width=300 height=300><img src=""static/images/cards/back_of_red_bolts.svg"" width=""175px"" height=""250px""></img></td>
    <td width=300 height=300><img src=""static/images/cards/back_of_red_bolts.svg"" width=""175px"" height=""250px""></img></td>
  </tr>
  <tr height=200>
    <td width=300><img src=""static/images/keys/z.svg"" width=""35%"" height=""75%""></img></td>
    <td width=300><img src=""static/images/keys/m.svg"" width=""35%"" height=""75%""></img></td>
  </tr>
</table>
  ",90.0,1.0,,,,,,,,,,,,,,,,,,,,,,,,,,
46,0,,html-keyboard-response,46,512638,0.0-4.4-2.4,8vji570cqd9,2022-09-19 16:45:04.584,55b2d3f2fdf99b525bc839aa,1,78,23,24,70,35,male,,,"
  <table>
  <tr height=300>
    <td width=300 height=300><img src=""static/images/cards/7_of_red_bolts.svg"" width=""175px"" height=""250px""></img></td>
    <td width=300 height=300><img src=""static/images/cards/back_of_red_bolts.svg"" width=""175px"" height=""250px""></img></td>
  </tr>
  <tr height=200>
    <td width=300><img src=""static/images/keys/z.svg"" width=""35%"" height=""75%""></img></td>
    <td width=300><img src=""static/images/keys/m.svg"" width=""35%"" height=""75%""></img></td>
  </tr>
</table>
  ",,,,,,,,,,,,,,,,,,,,,,,,,,,,
47,0,,html-keyboard-response,47,514156,0.0-4.4-3.4,8vji570cqd9,2022-09-19 16:45:04.584,55b2d3f2fdf99b525bc839aa,1,78,23,24,70,35,male,,,"<p style=""font-size:50px"">You win!
+10 points this round!</p>",,,,,,,,,,,,,,,,,,,,,,,,,,,,
48,0,,html-keyboard-response,48,514672,0.0-4.4-4.4,8vji570cqd9,2022-09-19 16:45:04.584,55b2d3f2fdf99b525bc839aa,1,78,23,24,70,35,male,,,,,,1.0,learning,4.0,Xc,,red,,bolts,,,,Xc,red,bolts,,1.0,0.0,NA,left,312.8000000007,7.0,1.0,1.0,,,
49,0,,html-keyboard-response,49,516180,0.0-4.5-0.5,8vji570cqd9,2022-09-19 16:45:04.584,55b2d3f2fdf99b525bc839aa,1,78,23,24,70,35,male,,,"<img src=""static/images/cards/stack_of_black_bolts.svg"" width=""175px"" height=""250px""></img>",,,,,,,,,,,,,,,,,,,,,,,,,,,,
50,0,,html-keyboard-response,50,517379,0.0-4.5-1.5,8vji570cqd9,2022-09-19 16:45:04.584,55b2d3f2fdf99b525bc839aa,1,78,23,24,70,35,male,694.5,,"
  <table>
  <tr height=300>
    <td width=300 height=300><img src=""static/images/cards/back_of_black_bolts.svg"" width=""175px"" height=""250px""></img></td>
    <td width=300 height=300><img src=""static/images/cards/back_of_black_bolts.svg"" width=""175px"" height=""250px""></img></td>
  </tr>
  <tr height=200>
    <td width=300></td>
    <td width=300><img src=""static/images/keys/m.svg"" width=""35%"" height=""75%""></img></td>
  </tr>
</table>
  ",77.0,1.0,,,,,,,,,,,,,,,,,,,,,,,,,,
51,0,,html-keyboard-response,51,518881,0.0-4.5-2.5,8vji570cqd9,2022-09-19 16:45:04.584,55b2d3f2fdf99b525bc839aa,1,78,23,24,70,35,male,,,"
  <table>
  <tr height=300>
    <td width=300 height=300><img src=""static/images/cards/back_of_black_bolts.svg"" width=""175px"" height=""250px""></img></td>
    <td width=300 height=300><img src=""static/images/cards/2_of_black_bolts.svg"" width=""175px"" height=""250px""></img></td>
  </tr>
  <tr height=200>
    <td width=300></td>
    <td width=300><img src=""static/images/keys/m.svg"" width=""35%"" height=""75%""></img></td>
  </tr>
</table>
  ",,,,,,,,,,,,,,,,,,,,,,,,,,,,
52,0,,html-keyboard-response,52,520397,0.0-4.5-3.5,8vji570cqd9,2022-09-19 16:45:04.584,55b2d3f2fdf99b525bc839aa,1,78,23,24,70,35,male,,,"<p style=""font-size:50px"">You win!
+10 points this round!</p>",,,,,,,,,,,,,,,,,,,,,,,,,,,,
53,0,,html-keyboard-response,53,520910,0.0-4.5-4.5,8vji570cqd9,2022-09-19 16:45:04.584,55b2d3f2fdf99b525bc839aa,1,78,23,24,70,35,male,,,,,,1.0,learning,5.0,Xnc,,black,,bolts,,,,Xnc,black,bolts,,0.0,0.0,0,right,694.5,2.0,0.0,1.0,,,
54,0,,html-keyboard-response,54,522412,0.0-4.6-0.6,8vji570cqd9,2022-09-19 16:45:04.584,55b2d3f2fdf99b525bc839aa,1,78,23,24,70,35,male,,,"<img src=""static/images/cards/stack_of_red_moons.svg"" width=""175px"" height=""250px""></img>",,,,,,,,,,,,,,,,,,,,,,,,,,,,
55,0,,html-keyboard-response,55,523398,0.0-4.6-1.6,8vji570cqd9,2022-09-19 16:45:04.584,55b2d3f2fdf99b525bc839aa,1,78,23,24,70,35,male,475.6999999993,,"
  <table>
  <tr height=300>
    <td width=300 height=300><img src=""static/images/cards/back_of_red_moons.svg"" width=""175px"" height=""250px""></img></td>
    <td width=300 height=300><img src=""static/images/cards/back_of_red_moons.svg"" width=""175px"" height=""250px""></img></td>
  </tr>
  <tr height=200>
    <td width=300><img src=""static/images/keys/z.svg"" width=""35%"" height=""75%""></img></td>
    <td width=300><img src=""static/images/keys/m.svg"" width=""35%"" height=""75%""></img></td>
  </tr>
</table>
  ",90.0,1.0,,,,,,,,,,,,,,,,,,,,,,,,,,
56,0,,html-keyboard-response,56,524908,0.0-4.6-2.6,8vji570cqd9,2022-09-19 16:45:04.584,55b2d3f2fdf99b525bc839aa,1,78,23,24,70,35,male,,,"
  <table>
  <tr height=300>
    <td width=300 height=300><img src=""static/images/cards/1_of_red_moons.svg"" width=""175px"" height=""250px""></img></td>
    <td width=300 height=300><img src=""static/images/cards/back_of_red_moons.svg"" width=""175px"" height=""250px""></img></td>
  </tr>
  <tr height=200>
    <td width=300><img src=""static/images/keys/z.svg"" width=""35%"" height=""75%""></img></td>
    <td width=300><img src=""static/images/keys/m.svg"" width=""35%"" height=""75%""></img></td>
  </tr>
</table>
  ",,,,,,,,,,,,,,,,,,,,,,,,,,,,
57,0,,html-keyboard-response,57,526438,0.0-4.6-3.6,8vji570cqd9,2022-09-19 16:45:04.584,55b2d3f2fdf99b525bc839aa,1,78,23,24,70,35,male,,,"<p style=""font-size:50px"">You Lose!
No points this round.</p>",,,,,,,,,,,,,,,,,,,,,,,,,,,,
58,0,,html-keyboard-response,58,526944,0.0-4.6-4.6,8vji570cqd9,2022-09-19 16:45:04.584,55b2d3f2fdf99b525bc839aa,1,78,23,24,70,35,male,,,,,,1.0,learning,6.0,A,,red,,moons,,,,A,red,moons,,1.0,1.0,NA,left,475.6999999993,1.0,0.0,0.0,,,
59,0,,html-keyboard-response,59,528445,0.0-4.7-0.7,8vji570cqd9,2022-09-19 16:45:04.584,55b2d3f2fdf99b525bc839aa,1,78,23,24,70,35,male,,,"<img src=""static/images/cards/stack_of_black_moons.svg"" width=""175px"" height=""250px""></img>",,,,,,,,,,,,,,,,,,,,,,,,,,,,
60,0,,html-keyboard-response,60,529463,0.0-4.7-1.7,8vji570cqd9,2022-09-19 16:45:04.584,55b2d3f2fdf99b525bc839aa,1,78,23,24,70,35,male,515.8000000007,,"
  <table>
  <tr height=300>
    <td width=300 height=300><img src=""static/images/cards/back_of_black_moons.svg"" width=""175px"" height=""250px""></img></td>
    <td width=300 height=300><img src=""static/images/cards/back_of_black_moons.svg"" width=""175px"" height=""250px""></img></td>
  </tr>
  <tr height=200>
    <td width=300></td>
    <td width=300><img src=""static/images/keys/m.svg"" width=""35%"" height=""75%""></img></td>
  </tr>
</table>
  ",77.0,1.0,,,,,,,,,,,,,,,,,,,,,,,,,,
61,0,,html-keyboard-response,61,530971,0.0-4.7-2.7,8vji570cqd9,2022-09-19 16:45:04.584,55b2d3f2fdf99b525bc839aa,1,78,23,24,70,35,male,,,"
  <table>
  <tr height=300>
    <td width=300 height=300><img src=""static/images/cards/back_of_black_moons.svg"" width=""175px"" height=""250px""></img></td>
    <td width=300 height=300><img src=""static/images/cards/8_of_black_moons.svg"" width=""175px"" height=""250px""></img></td>
  </tr>
  <tr height=200>
    <td width=300></td>
    <td width=300><img src=""static/images/keys/m.svg"" width=""35%"" height=""75%""></img></td>
  </tr>
</table>
  ",,,,,,,,,,,,,,,,,,,,,,,,,,,,
62,0,,html-keyboard-response,62,532490,0.0-4.7-3.7,8vji570cqd9,2022-09-19 16:45:04.584,55b2d3f2fdf99b525bc839aa,1,78,23,24,70,35,male,,,"<p style=""font-size:50px"">You win!
+10 points this round!</p>",,,,,,,,,,,,,,,,,,,,,,,,,,,,
63,0,,html-keyboard-response,63,533004,0.0-4.7-4.7,8vji570cqd9,2022-09-19 16:45:04.584,55b2d3f2fdf99b525bc839aa,1,78,23,24,70,35,male,,,,,,1.0,learning,7.0,B,,black,,moons,,,,B,black,moons,,0.0,1.0,0,right,515.8000000007,8.0,1.0,1.0,,,
64,0,,html-keyboard-response,64,534509,0.0-4.8-0.8,8vji570cqd9,2022-09-19 16:45:04.584,55b2d3f2fdf99b525bc839aa,1,78,23,24,70,35,male,,,"<img src=""static/images/cards/stack_of_red_stars.svg"" width=""175px"" height=""250px""></img>",,,,,,,,,,,,,,,,,,,,,,,,,,,,
65,0,,html-keyboard-response,65,535672,0.0-4.8-1.8,8vji570cqd9,2022-09-19 16:45:04.584,55b2d3f2fdf99b525bc839aa,1,78,23,24,70,35,male,654.4000000004,,"
  <table>
  <tr height=300>
    <td width=300 height=300><img src=""static/images/cards/back_of_red_stars.svg"" width=""175px"" height=""250px""></img></td>
    <td width=300 height=300><img src=""static/images/cards/back_of_red_stars.svg"" width=""175px"" height=""250px""></img></td>
  </tr>
  <tr height=200>
    <td width=300><img src=""static/images/keys/z.svg"" width=""35%"" height=""75%""></img></td>
    <td width=300><img src=""static/images/keys/m.svg"" width=""35%"" height=""75%""></img></td>
  </tr>
</table>
  ",90.0,1.0,,,,,,,,,,,,,,,,,,,,,,,,,,
66,0,,html-keyboard-response,66,537174,0.0-4.8-2.8,8vji570cqd9,2022-09-19 16:45:04.584,55b2d3f2fdf99b525bc839aa,1,78,23,24,70,35,male,,,"
  <table>
  <tr height=300>
    <td width=300 height=300><img src=""static/images/cards/8_of_red_stars.svg"" width=""175px"" height=""250px""></img></td>
    <td width=300 height=300><img src=""static/images/cards/back_of_red_stars.svg"" width=""175px"" height=""250px""></img></td>
  </tr>
  <tr height=200>
    <td width=300><img src=""static/images/keys/z.svg"" width=""35%"" height=""75%""></img></td>
    <td width=300><img src=""static/images/keys/m.svg"" width=""35%"" height=""75%""></img></td>
  </tr>
</table>
  ",,,,,,,,,,,,,,,,,,,,,,,,,,,,
67,0,,html-keyboard-response,67,538683,0.0-4.8-3.8,8vji570cqd9,2022-09-19 16:45:04.584,55b2d3f2fdf99b525bc839aa,1,78,23,24,70,35,male,,,"<p style=""font-size:50px"">You win!
+10 points this round!</p>",,,,,,,,,,,,,,,,,,,,,,,,,,,,
68,0,,html-keyboard-response,68,539198,0.0-4.8-4.8,8vji570cqd9,2022-09-19 16:45:04.584,55b2d3f2fdf99b525bc839aa,1,78,23,24,70,35,male,,,,,,1.0,learning,8.0,C,,red,,stars,,,,C,red,stars,,1.0,0.0,NA,left,654.4000000004,8.0,1.0,1.0,,,
69,0,,html-keyboard-response,69,540708,0.0-4.9-0.9,8vji570cqd9,2022-09-19 16:45:04.584,55b2d3f2fdf99b525bc839aa,1,78,23,24,70,35,male,,,"<img src=""static/images/cards/stack_of_black_stars.svg"" width=""175px"" height=""250px""></img>",,,,,,,,,,,,,,,,,,,,,,,,,,,,
70,0,,html-keyboard-response,70,542228,0.0-4.9-1.9,8vji570cqd9,2022-09-19 16:45:04.584,55b2d3f2fdf99b525bc839aa,1,78,23,24,70,35,male,1012.0999999996,,"
  <table>
  <tr height=300>
    <td width=300 height=300><img src=""static/images/cards/back_of_black_stars.svg"" width=""175px"" height=""250px""></img></td>
    <td width=300 height=300><img src=""static/images/cards/back_of_black_stars.svg"" width=""175px"" height=""250px""></img></td>
  </tr>
  <tr height=200>
    <td width=300></td>
    <td width=300><img src=""static/images/keys/m.svg"" width=""35%"" height=""75%""></img></td>
  </tr>
</table>
  ",77.0,1.0,,,,,,,,,,,,,,,,,,,,,,,,,,
71,0,,html-keyboard-response,71,543742,0.0-4.9-2.9,8vji570cqd9,2022-09-19 16:45:04.584,55b2d3f2fdf99b525bc839aa,1,78,23,24,70,35,male,,,"
  <table>
  <tr height=300>
    <td width=300 height=300><img src=""static/images/cards/back_of_black_stars.svg"" width=""175px"" height=""250px""></img></td>
    <td width=300 height=300><img src=""static/images/cards/8_of_black_stars.svg"" width=""175px"" height=""250px""></img></td>
  </tr>
  <tr height=200>
    <td width=300></td>
    <td width=300><img src=""static/images/keys/m.svg"" width=""35%"" height=""75%""></img></td>
  </tr>
</table>
  ",,,,,,,,,,,,,,,,,,,,,,,,,,,,
72,0,,html-keyboard-response,72,545260,0.0-4.9-3.9,8vji570cqd9,2022-09-19 16:45:04.584,55b2d3f2fdf99b525bc839aa,1,78,23,24,70,35,male,,,"<p style=""font-size:50px"">You Lose!
No points this round.</p>",,,,,,,,,,,,,,,,,,,,,,,,,,,,
73,0,,html-keyboard-response,73,545777,0.0-4.9-4.9,8vji570cqd9,2022-09-19 16:45:04.584,55b2d3f2fdf99b525bc839aa,1,78,23,24,70,35,male,,,,,,1.0,learning,9.0,D,,black,,stars,,,,D,black,stars,,0.0,0.0,0,right,1012.0999999996,8.0,1.0,0.0,,,
74,0,,html-keyboard-response,74,547278,0.0-4.10-0.10,8vji570cqd9,2022-09-19 16:45:04.584,55b2d3f2fdf99b525bc839aa,1,78,23,24,70,35,male,,,"<img src=""static/images/cards/stack_of_red_bolts.svg"" width=""175px"" height=""250px""></img>",,,,,,,,,,,,,,,,,,,,,,,,,,,,
75,0,,html-keyboard-response,75,548355,0.0-4.10-1.10,8vji570cqd9,2022-09-19 16:45:04.584,55b2d3f2fdf99b525bc839aa,1,78,23,24,70,35,male,575.5999999996,,"
  <table>
  <tr height=300>
    <td width=300 height=300><img src=""static/images/cards/back_of_red_bolts.svg"" width=""175px"" height=""250px""></img></td>
    <td width=300 height=300><img src=""static/images/cards/back_of_red_bolts.svg"" width=""175px"" height=""250px""></img></td>
  </tr>
  <tr height=200>
    <td width=300><img src=""static/images/keys/z.svg"" width=""35%"" height=""75%""></img></td>
    <td width=300><img src=""static/images/keys/m.svg"" width=""35%"" height=""75%""></img></td>
  </tr>
</table>
  ",90.0,3.0,,,,,,,,,,,,,,,,,,,,,,,,,,
76,0,,html-keyboard-response,76,549858,0.0-4.10-2.10,8vji570cqd9,2022-09-19 16:45:04.584,55b2d3f2fdf99b525bc839aa,1,78,23,24,70,35,male,,,"
  <table>
  <tr height=300>
    <td width=300 height=300><img src=""static/images/cards/10_of_red_bolts.svg"" width=""175px"" height=""250px""></img></td>
    <td width=300 height=300><img src=""static/images/cards/back_of_red_bolts.svg"" width=""175px"" height=""250px""></img></td>
  </tr>
  <tr height=200>
    <td width=300><img src=""static/images/keys/z.svg"" width=""35%"" height=""75%""></img></td>
    <td width=300><img src=""static/images/keys/m.svg"" width=""35%"" height=""75%""></img></td>
  </tr>
</table>
  ",,,,,,,,,,,,,,,,,,,,,,,,,,,,
77,0,,html-keyboard-response,77,551369,0.0-4.10-3.10,8vji570cqd9,2022-09-19 16:45:04.584,55b2d3f2fdf99b525bc839aa,1,78,23,24,70,35,male,,,"<p style=""font-size:50px"">You win!
+10 points this round!</p>",,,,,,,,,,,,,,,,,,,,,,,,,,,,
78,0,,html-keyboard-response,78,551890,0.0-4.10-4.10,8vji570cqd9,2022-09-19 16:45:04.584,55b2d3f2fdf99b525bc839aa,1,78,23,24,70,35,male,,,,,,1.0,learning,10.0,Xc,,red,,bolts,,,,Xc,red,bolts,,1.0,0.0,NA,left,575.5999999996,10.0,1.0,1.0,,,
79,0,,html-keyboard-response,79,553401,0.0-4.11-0.11,8vji570cqd9,2022-09-19 16:45:04.584,55b2d3f2fdf99b525bc839aa,1,78,23,24,70,35,male,,,"<img src=""static/images/cards/stack_of_black_bolts.svg"" width=""175px"" height=""250px""></img>",,,,,,,,,,,,,,,,,,,,,,,,,,,,
80,0,,html-keyboard-response,80,554460,0.0-4.11-1.11,8vji570cqd9,2022-09-19 16:45:04.584,55b2d3f2fdf99b525bc839aa,1,78,23,24,70,35,male,547.2999999989,,"
  <table>
  <tr height=300>
    <td width=300 height=300><img src=""static/images/cards/back_of_black_bolts.svg"" width=""175px"" height=""250px""></img></td>
    <td width=300 height=300><img src=""static/images/cards/back_of_black_bolts.svg"" width=""175px"" height=""250px""></img></td>
  </tr>
  <tr height=200>
    <td width=300><img src=""static/images/keys/z.svg"" width=""35%"" height=""75%""></img></td>
    <td width=300></td>
  </tr>
</table>
  ",90.0,1.0,,,,,,,,,,,,,,,,,,,,,,,,,,
81,0,,html-keyboard-response,81,555961,0.0-4.11-2.11,8vji570cqd9,2022-09-19 16:45:04.584,55b2d3f2fdf99b525bc839aa,1,78,23,24,70,35,male,,,"
  <table>
  <tr height=300>
    <td width=300 height=300><img src=""static/images/cards/8_of_black_bolts.svg"" width=""175px"" height=""250px""></img></td>
    <td width=300 height=300><img src=""static/images/cards/back_of_black_bolts.svg"" width=""175px"" height=""250px""></img></td>
  </tr>
  <tr height=200>
    <td width=300><img src=""static/images/keys/z.svg"" width=""35%"" height=""75%""></img></td>
    <td width=300></td>
  </tr>
</table>
  ",,,,,,,,,,,,,,,,,,,,,,,,,,,,
82,0,,html-keyboard-response,82,557479,0.0-4.11-3.11,8vji570cqd9,2022-09-19 16:45:04.584,55b2d3f2fdf99b525bc839aa,1,78,23,24,70,35,male,,,"<p style=""font-size:50px"">You win!
+10 points this round!</p>",,,,,,,,,,,,,,,,,,,,,,,,,,,,
83,0,,html-keyboard-response,83,557993,0.0-4.11-4.11,8vji570cqd9,2022-09-19 16:45:04.584,55b2d3f2fdf99b525bc839aa,1,78,23,24,70,35,male,,,,,,1.0,learning,11.0,Xnc,,black,,bolts,,,,Xnc,black,bolts,,0.0,0.0,1,left,547.2999999989,8.0,1.0,1.0,,,
84,0,,html-keyboard-response,84,559494,0.0-4.12-0.12,8vji570cqd9,2022-09-19 16:45:04.584,55b2d3f2fdf99b525bc839aa,1,78,23,24,70,35,male,,,"<img src=""static/images/cards/stack_of_red_moons.svg"" width=""175px"" height=""250px""></img>",,,,,,,,,,,,,,,,,,,,,,,,,,,,
85,0,,html-keyboard-response,85,560711,0.0-4.12-1.12,8vji570cqd9,2022-09-19 16:45:04.584,55b2d3f2fdf99b525bc839aa,1,78,23,24,70,35,male,714.7000000011,,"
  <table>
  <tr height=300>
    <td width=300 height=300><img src=""static/images/cards/back_of_red_moons.svg"" width=""175px"" height=""250px""></img></td>
    <td width=300 height=300><img src=""static/images/cards/back_of_red_moons.svg"" width=""175px"" height=""250px""></img></td>
  </tr>
  <tr height=200>
    <td width=300><img src=""static/images/keys/z.svg"" width=""35%"" height=""75%""></img></td>
    <td width=300><img src=""static/images/keys/m.svg"" width=""35%"" height=""75%""></img></td>
  </tr>
</table>
  ",77.0,1.0,,,,,,,,,,,,,,,,,,,,,,,,,,
86,0,,html-keyboard-response,86,562224,0.0-4.12-2.12,8vji570cqd9,2022-09-19 16:45:04.584,55b2d3f2fdf99b525bc839aa,1,78,23,24,70,35,male,,,"
  <table>
  <tr height=300>
    <td width=300 height=300><img src=""static/images/cards/back_of_red_moons.svg"" width=""175px"" height=""250px""></img></td>
    <td width=300 height=300><img src=""static/images/cards/10_of_red_moons.svg"" width=""175px"" height=""250px""></img></td>
  </tr>
  <tr height=200>
    <td width=300><img src=""static/images/keys/z.svg"" width=""35%"" height=""75%""></img></td>
    <td width=300><img src=""static/images/keys/m.svg"" width=""35%"" height=""75%""></img></td>
  </tr>
</table>
  ",,,,,,,,,,,,,,,,,,,,,,,,,,,,
87,0,,html-keyboard-response,87,563725,0.0-4.12-3.12,8vji570cqd9,2022-09-19 16:45:04.584,55b2d3f2fdf99b525bc839aa,1,78,23,24,70,35,male,,,"<p style=""font-size:50px"">You win!
+10 points this round!</p>",,,,,,,,,,,,,,,,,,,,,,,,,,,,
88,0,,html-keyboard-response,88,564239,0.0-4.12-4.12,8vji570cqd9,2022-09-19 16:45:04.584,55b2d3f2fdf99b525bc839aa,1,78,23,24,70,35,male,,,,,,1.0,learning,12.0,A,,red,,moons,,,,A,red,moons,,1.0,1.0,NA,right,714.7000000011,10.0,1.0,1.0,,,
89,0,,html-keyboard-response,89,565749,0.0-4.13-0.13,8vji570cqd9,2022-09-19 16:45:04.584,55b2d3f2fdf99b525bc839aa,1,78,23,24,70,35,male,,,"<img src=""static/images/cards/stack_of_black_moons.svg"" width=""175px"" height=""250px""></img>",,,,,,,,,,,,,,,,,,,,,,,,,,,,
90,0,,html-keyboard-response,90,566673,0.0-4.13-1.13,8vji570cqd9,2022-09-19 16:45:04.584,55b2d3f2fdf99b525bc839aa,1,78,23,24,70,35,male,412.2999999989,,"
  <table>
  <tr height=300>
    <td width=300 height=300><img src=""static/images/cards/back_of_black_moons.svg"" width=""175px"" height=""250px""></img></td>
    <td width=300 height=300><img src=""static/images/cards/back_of_black_moons.svg"" width=""175px"" height=""250px""></img></td>
  </tr>
  <tr height=200>
    <td width=300><img src=""static/images/keys/z.svg"" width=""35%"" height=""75%""></img></td>
    <td width=300></td>
  </tr>
</table>
  ",90.0,1.0,,,,,,,,,,,,,,,,,,,,,,,,,,
91,0,,html-keyboard-response,91,568176,0.0-4.13-2.13,8vji570cqd9,2022-09-19 16:45:04.584,55b2d3f2fdf99b525bc839aa,1,78,23,24,70,35,male,,,"
  <table>
  <tr height=300>
    <td width=300 height=300><img src=""static/images/cards/8_of_black_moons.svg"" width=""175px"" height=""250px""></img></td>
    <td width=300 height=300><img src=""static/images/cards/back_of_black_moons.svg"" width=""175px"" height=""250px""></img></td>
  </tr>
  <tr height=200>
    <td width=300><img src=""static/images/keys/z.svg"" width=""35%"" height=""75%""></img></td>
    <td width=300></td>
  </tr>
</table>
  ",,,,,,,,,,,,,,,,,,,,,,,,,,,,
92,0,,html-keyboard-response,92,569692,0.0-4.13-3.13,8vji570cqd9,2022-09-19 16:45:04.584,55b2d3f2fdf99b525bc839aa,1,78,23,24,70,35,male,,,"<p style=""font-size:50px"">You win!
+10 points this round!</p>",,,,,,,,,,,,,,,,,,,,,,,,,,,,
93,0,,html-keyboard-response,93,570206,0.0-4.13-4.13,8vji570cqd9,2022-09-19 16:45:04.584,55b2d3f2fdf99b525bc839aa,1,78,23,24,70,35,male,,,,,,1.0,learning,13.0,B,,black,,moons,,,,B,black,moons,,0.0,1.0,1,left,412.2999999989,8.0,1.0,1.0,,,
94,0,,html-keyboard-response,94,571713,0.0-4.14-0.14,8vji570cqd9,2022-09-19 16:45:04.584,55b2d3f2fdf99b525bc839aa,1,78,23,24,70,35,male,,,"<img src=""static/images/cards/stack_of_red_stars.svg"" width=""175px"" height=""250px""></img>",,,,,,,,,,,,,,,,,,,,,,,,,,,,
95,0,,html-keyboard-response,95,572752,0.0-4.14-1.14,8vji570cqd9,2022-09-19 16:45:04.584,55b2d3f2fdf99b525bc839aa,1,78,23,24,70,35,male,533.4000000004,,"
  <table>
  <tr height=300>
    <td width=300 height=300><img src=""static/images/cards/back_of_red_stars.svg"" width=""175px"" height=""250px""></img></td>
    <td width=300 height=300><img src=""static/images/cards/back_of_red_stars.svg"" width=""175px"" height=""250px""></img></td>
  </tr>
  <tr height=200>
    <td width=300><img src=""static/images/keys/z.svg"" width=""35%"" height=""75%""></img></td>
    <td width=300><img src=""static/images/keys/m.svg"" width=""35%"" height=""75%""></img></td>
  </tr>
</table>
  ",77.0,1.0,,,,,,,,,,,,,,,,,,,,,,,,,,
96,0,,html-keyboard-response,96,574262,0.0-4.14-2.14,8vji570cqd9,2022-09-19 16:45:04.584,55b2d3f2fdf99b525bc839aa,1,78,23,24,70,35,male,,,"
  <table>
  <tr height=300>
    <td width=300 height=300><img src=""static/images/cards/back_of_red_stars.svg"" width=""175px"" height=""250px""></img></td>
    <td width=300 height=300><img src=""static/images/cards/4_of_red_stars.svg"" width=""175px"" height=""250px""></img></td>
  </tr>
  <tr height=200>
    <td width=300><img src=""static/images/keys/z.svg"" width=""35%"" height=""75%""></img></td>
    <td width=300><img src=""static/images/keys/m.svg"" width=""35%"" height=""75%""></img></td>
  </tr>
</table>
  ",,,,,,,,,,,,,,,,,,,,,,,,,,,,
97,0,,html-keyboard-response,97,575777,0.0-4.14-3.14,8vji570cqd9,2022-09-19 16:45:04.584,55b2d3f2fdf99b525bc839aa,1,78,23,24,70,35,male,,,"<p style=""font-size:50px"">You win!
+10 points this round!</p>",,,,,,,,,,,,,,,,,,,,,,,,,,,,
98,0,,html-keyboard-response,98,576290,0.0-4.14-4.14,8vji570cqd9,2022-09-19 16:45:04.584,55b2d3f2fdf99b525bc839aa,1,78,23,24,70,35,male,,,,,,1.0,learning,14.0,C,,red,,stars,,,,C,red,stars,,1.0,0.0,NA,right,533.4000000004,4.0,0.0,1.0,,,
99,0,,html-keyboard-response,99,577791,0.0-4.15-0.15,8vji570cqd9,2022-09-19 16:45:04.584,55b2d3f2fdf99b525bc839aa,1,78,23,24,70,35,male,,,"<img src=""static/images/cards/stack_of_black_stars.svg"" width=""175px"" height=""250px""></img>",,,,,,,,,,,,,,,,,,,,,,,,,,,,
100,0,,html-keyboard-response,100,578777,0.0-4.15-1.15,8vji570cqd9,2022-09-19 16:45:04.584,55b2d3f2fdf99b525bc839aa,1,78,23,24,70,35,male,479.6999999993,,"
  <table>
  <tr height=300>
    <td width=300 height=300><img src=""static/images/cards/back_of_black_stars.svg"" width=""175px"" height=""250px""></img></td>
    <td width=300 height=300><img src=""static/images/cards/back_of_black_stars.svg"" width=""175px"" height=""250px""></img></td>
  </tr>
  <tr height=200>
    <td width=300></td>
    <td width=300><img src=""static/images/keys/m.svg"" width=""35%"" height=""75%""></img></td>
  </tr>
</table>
  ",77.0,1.0,,,,,,,,,,,,,,,,,,,,,,,,,,
101,0,,html-keyboard-response,101,580288,0.0-4.15-2.15,8vji570cqd9,2022-09-19 16:45:04.584,55b2d3f2fdf99b525bc839aa,1,78,23,24,70,35,male,,,"
  <table>
  <tr height=300>
    <td width=300 height=300><img src=""static/images/cards/back_of_black_stars.svg"" width=""175px"" height=""250px""></img></td>
    <td width=300 height=300><img src=""static/images/cards/3_of_black_stars.svg"" width=""175px"" height=""250px""></img></td>
  </tr>
  <tr height=200>
    <td width=300></td>
    <td width=300><img src=""static/images/keys/m.svg"" width=""35%"" height=""75%""></img></td>
  </tr>
</table>
  ",,,,,,,,,,,,,,,,,,,,,,,,,,,,
102,0,,html-keyboard-response,102,581804,0.0-4.15-3.15,8vji570cqd9,2022-09-19 16:45:04.584,55b2d3f2fdf99b525bc839aa,1,78,23,24,70,35,male,,,"<p style=""font-size:50px"">You Lose!
No points this round.</p>",,,,,,,,,,,,,,,,,,,,,,,,,,,,
103,0,,html-keyboard-response,103,582314,0.0-4.15-4.15,8vji570cqd9,2022-09-19 16:45:04.584,55b2d3f2fdf99b525bc839aa,1,78,23,24,70,35,male,,,,,,1.0,learning,15.0,D,,black,,stars,,,,D,black,stars,,0.0,0.0,0,right,479.6999999993,3.0,0.0,0.0,,,
104,0,,html-keyboard-response,104,583829,0.0-4.16-0.16,8vji570cqd9,2022-09-19 16:45:04.584,55b2d3f2fdf99b525bc839aa,1,78,23,24,70,35,male,,,"<img src=""static/images/cards/stack_of_red_bolts.svg"" width=""175px"" height=""250px""></img>",,,,,,,,,,,,,,,,,,,,,,,,,,,,
105,0,,html-keyboard-response,105,585007,0.0-4.16-1.16,8vji570cqd9,2022-09-19 16:45:04.584,55b2d3f2fdf99b525bc839aa,1,78,23,24,70,35,male,667.2999999989,,"
  <table>
  <tr height=300>
    <td width=300 height=300><img src=""static/images/cards/back_of_red_bolts.svg"" width=""175px"" height=""250px""></img></td>
    <td width=300 height=300><img src=""static/images/cards/back_of_red_bolts.svg"" width=""175px"" height=""250px""></img></td>
  </tr>
  <tr height=200>
    <td width=300><img src=""static/images/keys/z.svg"" width=""35%"" height=""75%""></img></td>
    <td width=300><img src=""static/images/keys/m.svg"" width=""35%"" height=""75%""></img></td>
  </tr>
</table>
  ",77.0,1.0,,,,,,,,,,,,,,,,,,,,,,,,,,
106,0,,html-keyboard-response,106,586515,0.0-4.16-2.16,8vji570cqd9,2022-09-19 16:45:04.584,55b2d3f2fdf99b525bc839aa,1,78,23,24,70,35,male,,,"
  <table>
  <tr height=300>
    <td width=300 height=300><img src=""static/images/cards/back_of_red_bolts.svg"" width=""175px"" height=""250px""></img></td>
    <td width=300 height=300><img src=""static/images/cards/4_of_red_bolts.svg"" width=""175px"" height=""250px""></img></td>
  </tr>
  <tr height=200>
    <td width=300><img src=""static/images/keys/z.svg"" width=""35%"" height=""75%""></img></td>
    <td width=300><img src=""static/images/keys/m.svg"" width=""35%"" height=""75%""></img></td>
  </tr>
</table>
  ",,,,,,,,,,,,,,,,,,,,,,,,,,,,
107,0,,html-keyboard-response,107,588035,0.0-4.16-3.16,8vji570cqd9,2022-09-19 16:45:04.584,55b2d3f2fdf99b525bc839aa,1,78,23,24,70,35,male,,,"<p style=""font-size:50px"">You win!
+10 points this round!</p>",,,,,,,,,,,,,,,,,,,,,,,,,,,,
108,0,,html-keyboard-response,108,588547,0.0-4.16-4.16,8vji570cqd9,2022-09-19 16:45:04.584,55b2d3f2fdf99b525bc839aa,1,78,23,24,70,35,male,,,,,,1.0,learning,16.0,Xc,,red,,bolts,,,,Xc,red,bolts,,1.0,0.0,NA,right,667.2999999989,4.0,0.0,1.0,,,
109,0,,html-keyboard-response,109,590060,0.0-4.17-0.17,8vji570cqd9,2022-09-19 16:45:04.584,55b2d3f2fdf99b525bc839aa,1,78,23,24,70,35,male,,,"<img src=""static/images/cards/stack_of_black_bolts.svg"" width=""175px"" height=""250px""></img>",,,,,,,,,,,,,,,,,,,,,,,,,,,,
110,0,,html-keyboard-response,110,591025,0.0-4.17-1.17,8vji570cqd9,2022-09-19 16:45:04.584,55b2d3f2fdf99b525bc839aa,1,78,23,24,70,35,male,454.0,,"
  <table>
  <tr height=300>
    <td width=300 height=300><img src=""static/images/cards/back_of_black_bolts.svg"" width=""175px"" height=""250px""></img></td>
    <td width=300 height=300><img src=""static/images/cards/back_of_black_bolts.svg"" width=""175px"" height=""250px""></img></td>
  </tr>
  <tr height=200>
    <td width=300></td>
    <td width=300><img src=""static/images/keys/m.svg"" width=""35%"" height=""75%""></img></td>
  </tr>
</table>
  ",77.0,1.0,,,,,,,,,,,,,,,,,,,,,,,,,,
111,0,,html-keyboard-response,111,592541,0.0-4.17-2.17,8vji570cqd9,2022-09-19 16:45:04.584,55b2d3f2fdf99b525bc839aa,1,78,23,24,70,35,male,,,"
  <table>
  <tr height=300>
    <td width=300 height=300><img src=""static/images/cards/back_of_black_bolts.svg"" width=""175px"" height=""250px""></img></td>
    <td width=300 height=300><img src=""static/images/cards/3_of_black_bolts.svg"" width=""175px"" height=""250px""></img></td>
  </tr>
  <tr height=200>
    <td width=300></td>
    <td width=300><img src=""static/images/keys/m.svg"" width=""35%"" height=""75%""></img></td>
  </tr>
</table>
  ",,,,,,,,,,,,,,,,,,,,,,,,,,,,
112,0,,html-keyboard-response,112,594059,0.0-4.17-3.17,8vji570cqd9,2022-09-19 16:45:04.584,55b2d3f2fdf99b525bc839aa,1,78,23,24,70,35,male,,,"<p style=""font-size:50px"">You win!
+10 points this round!</p>",,,,,,,,,,,,,,,,,,,,,,,,,,,,
113,0,,html-keyboard-response,113,594574,0.0-4.17-4.17,8vji570cqd9,2022-09-19 16:45:04.584,55b2d3f2fdf99b525bc839aa,1,78,23,24,70,35,male,,,,,,1.0,learning,17.0,Xnc,,black,,bolts,,,,Xnc,black,bolts,,0.0,0.0,0,right,454.0,3.0,0.0,1.0,,,
114,0,,html-keyboard-response,114,596079,0.0-4.18-0.18,8vji570cqd9,2022-09-19 16:45:04.584,55b2d3f2fdf99b525bc839aa,1,78,23,24,70,35,male,,,"<img src=""static/images/cards/stack_of_red_moons.svg"" width=""175px"" height=""250px""></img>",,,,,,,,,,,,,,,,,,,,,,,,,,,,
115,0,,html-keyboard-response,115,597127,0.0-4.18-1.18,8vji570cqd9,2022-09-19 16:45:04.584,55b2d3f2fdf99b525bc839aa,1,78,23,24,70,35,male,542.6999999993,,"
  <table>
  <tr height=300>
    <td width=300 height=300><img src=""static/images/cards/back_of_red_moons.svg"" width=""175px"" height=""250px""></img></td>
    <td width=300 height=300><img src=""static/images/cards/back_of_red_moons.svg"" width=""175px"" height=""250px""></img></td>
  </tr>
  <tr height=200>
    <td width=300><img src=""static/images/keys/z.svg"" width=""35%"" height=""75%""></img></td>
    <td width=300><img src=""static/images/keys/m.svg"" width=""35%"" height=""75%""></img></td>
  </tr>
</table>
  ",90.0,1.0,,,,,,,,,,,,,,,,,,,,,,,,,,
116,0,,html-keyboard-response,116,598638,0.0-4.18-2.18,8vji570cqd9,2022-09-19 16:45:04.584,55b2d3f2fdf99b525bc839aa,1,78,23,24,70,35,male,,,"
  <table>
  <tr height=300>
    <td width=300 height=300><img src=""static/images/cards/9_of_red_moons.svg"" width=""175px"" height=""250px""></img></td>
    <td width=300 height=300><img src=""static/images/cards/back_of_red_moons.svg"" width=""175px"" height=""250px""></img></td>
  </tr>
  <tr height=200>
    <td width=300><img src=""static/images/keys/z.svg"" width=""35%"" height=""75%""></img></td>
    <td width=300><img src=""static/images/keys/m.svg"" width=""35%"" height=""75%""></img></td>
  </tr>
</table>
  ",,,,,,,,,,,,,,,,,,,,,,,,,,,,
117,0,,html-keyboard-response,117,600151,0.0-4.18-3.18,8vji570cqd9,2022-09-19 16:45:04.584,55b2d3f2fdf99b525bc839aa,1,78,23,24,70,35,male,,,"<p style=""font-size:50px"">You win!
+10 points this round!</p>",,,,,,,,,,,,,,,,,,,,,,,,,,,,
118,0,,html-keyboard-response,118,600668,0.0-4.18-4.18,8vji570cqd9,2022-09-19 16:45:04.584,55b2d3f2fdf99b525bc839aa,1,78,23,24,70,35,male,,,,,,1.0,learning,18.0,A,,red,,moons,,,,A,red,moons,,1.0,1.0,NA,left,542.6999999993,9.0,1.0,1.0,,,
119,0,,html-keyboard-response,119,602177,0.0-4.19-0.19,8vji570cqd9,2022-09-19 16:45:04.584,55b2d3f2fdf99b525bc839aa,1,78,23,24,70,35,male,,,"<img src=""static/images/cards/stack_of_black_moons.svg"" width=""175px"" height=""250px""></img>",,,,,,,,,,,,,,,,,,,,,,,,,,,,
120,0,,html-keyboard-response,120,603119,0.0-4.19-1.19,8vji570cqd9,2022-09-19 16:45:04.584,55b2d3f2fdf99b525bc839aa,1,78,23,24,70,35,male,433.7999999989,,"
  <table>
  <tr height=300>
    <td width=300 height=300><img src=""static/images/cards/back_of_black_moons.svg"" width=""175px"" height=""250px""></img></td>
    <td width=300 height=300><img src=""static/images/cards/back_of_black_moons.svg"" width=""175px"" height=""250px""></img></td>
  </tr>
  <tr height=200>
    <td width=300><img src=""static/images/keys/z.svg"" width=""35%"" height=""75%""></img></td>
    <td width=300></td>
  </tr>
</table>
  ",90.0,1.0,,,,,,,,,,,,,,,,,,,,,,,,,,
121,0,,html-keyboard-response,121,604629,0.0-4.19-2.19,8vji570cqd9,2022-09-19 16:45:04.584,55b2d3f2fdf99b525bc839aa,1,78,23,24,70,35,male,,,"
  <table>
  <tr height=300>
    <td width=300 height=300><img src=""static/images/cards/1_of_black_moons.svg"" width=""175px"" height=""250px""></img></td>
    <td width=300 height=300><img src=""static/images/cards/back_of_black_moons.svg"" width=""175px"" height=""250px""></img></td>
  </tr>
  <tr height=200>
    <td width=300><img src=""static/images/keys/z.svg"" width=""35%"" height=""75%""></img></td>
    <td width=300></td>
  </tr>
</table>
  ",,,,,,,,,,,,,,,,,,,,,,,,,,,,
122,0,,html-keyboard-response,122,606145,0.0-4.19-3.19,8vji570cqd9,2022-09-19 16:45:04.584,55b2d3f2fdf99b525bc839aa,1,78,23,24,70,35,male,,,"<p style=""font-size:50px"">You Lose!
No points this round.</p>",,,,,,,,,,,,,,,,,,,,,,,,,,,,
123,0,,html-keyboard-response,123,606659,0.0-4.19-4.19,8vji570cqd9,2022-09-19 16:45:04.584,55b2d3f2fdf99b525bc839aa,1,78,23,24,70,35,male,,,,,,1.0,learning,19.0,B,,black,,moons,,,,B,black,moons,,0.0,1.0,1,left,433.7999999989,1.0,0.0,0.0,,,
124,0,,html-keyboard-response,124,608174,0.0-4.20-0.20,8vji570cqd9,2022-09-19 16:45:04.584,55b2d3f2fdf99b525bc839aa,1,78,23,24,70,35,male,,,"<img src=""static/images/cards/stack_of_red_stars.svg"" width=""175px"" height=""250px""></img>",,,,,,,,,,,,,,,,,,,,,,,,,,,,
125,0,,html-keyboard-response,125,609193,0.0-4.20-1.20,8vji570cqd9,2022-09-19 16:45:04.584,55b2d3f2fdf99b525bc839aa,1,78,23,24,70,35,male,507.4000000004,,"
  <table>
  <tr height=300>
    <td width=300 height=300><img src=""static/images/cards/back_of_red_stars.svg"" width=""175px"" height=""250px""></img></td>
    <td width=300 height=300><img src=""static/images/cards/back_of_red_stars.svg"" width=""175px"" height=""250px""></img></td>
  </tr>
  <tr height=200>
    <td width=300><img src=""static/images/keys/z.svg"" width=""35%"" height=""75%""></img></td>
    <td width=300><img src=""static/images/keys/m.svg"" width=""35%"" height=""75%""></img></td>
  </tr>
</table>
  ",77.0,1.0,,,,,,,,,,,,,,,,,,,,,,,,,,
126,0,,html-keyboard-response,126,610702,0.0-4.20-2.20,8vji570cqd9,2022-09-19 16:45:04.584,55b2d3f2fdf99b525bc839aa,1,78,23,24,70,35,male,,,"
  <table>
  <tr height=300>
    <td width=300 height=300><img src=""static/images/cards/back_of_red_stars.svg"" width=""175px"" height=""250px""></img></td>
    <td width=300 height=300><img src=""static/images/cards/6_of_red_stars.svg"" width=""175px"" height=""250px""></img></td>
  </tr>
  <tr height=200>
    <td width=300><img src=""static/images/keys/z.svg"" width=""35%"" height=""75%""></img></td>
    <td width=300><img src=""static/images/keys/m.svg"" width=""35%"" height=""75%""></img></td>
  </tr>
</table>
  ",,,,,,,,,,,,,,,,,,,,,,,,,,,,
127,0,,html-keyboard-response,127,612211,0.0-4.20-3.20,8vji570cqd9,2022-09-19 16:45:04.584,55b2d3f2fdf99b525bc839aa,1,78,23,24,70,35,male,,,"<p style=""font-size:50px"">You win!
+10 points this round!</p>",,,,,,,,,,,,,,,,,,,,,,,,,,,,
128,0,,html-keyboard-response,128,612726,0.0-4.20-4.20,8vji570cqd9,2022-09-19 16:45:04.584,55b2d3f2fdf99b525bc839aa,1,78,23,24,70,35,male,,,,,,1.0,learning,20.0,C,,red,,stars,,,,C,red,stars,,1.0,0.0,NA,right,507.4000000004,6.0,1.0,1.0,,,
129,0,,html-keyboard-response,129,614239,0.0-4.21-0.21,8vji570cqd9,2022-09-19 16:45:04.584,55b2d3f2fdf99b525bc839aa,1,78,23,24,70,35,male,,,"<img src=""static/images/cards/stack_of_black_stars.svg"" width=""175px"" height=""250px""></img>",,,,,,,,,,,,,,,,,,,,,,,,,,,,
130,0,,html-keyboard-response,130,615147,0.0-4.21-1.21,8vji570cqd9,2022-09-19 16:45:04.584,55b2d3f2fdf99b525bc839aa,1,78,23,24,70,35,male,397.4000000004,,"
  <table>
  <tr height=300>
    <td width=300 height=300><img src=""static/images/cards/back_of_black_stars.svg"" width=""175px"" height=""250px""></img></td>
    <td width=300 height=300><img src=""static/images/cards/back_of_black_stars.svg"" width=""175px"" height=""250px""></img></td>
  </tr>
  <tr height=200>
    <td width=300></td>
    <td width=300><img src=""static/images/keys/m.svg"" width=""35%"" height=""75%""></img></td>
  </tr>
</table>
  ",77.0,1.0,,,,,,,,,,,,,,,,,,,,,,,,,,
131,0,,html-keyboard-response,131,616649,0.0-4.21-2.21,8vji570cqd9,2022-09-19 16:45:04.584,55b2d3f2fdf99b525bc839aa,1,78,23,24,70,35,male,,,"
  <table>
  <tr height=300>
    <td width=300 height=300><img src=""static/images/cards/back_of_black_stars.svg"" width=""175px"" height=""250px""></img></td>
    <td width=300 height=300><img src=""static/images/cards/3_of_black_stars.svg"" width=""175px"" height=""250px""></img></td>
  </tr>
  <tr height=200>
    <td width=300></td>
    <td width=300><img src=""static/images/keys/m.svg"" width=""35%"" height=""75%""></img></td>
  </tr>
</table>
  ",,,,,,,,,,,,,,,,,,,,,,,,,,,,
132,0,,html-keyboard-response,132,618173,0.0-4.21-3.21,8vji570cqd9,2022-09-19 16:45:04.584,55b2d3f2fdf99b525bc839aa,1,78,23,24,70,35,male,,,"<p style=""font-size:50px"">You Lose!
No points this round.</p>",,,,,,,,,,,,,,,,,,,,,,,,,,,,
133,0,,html-keyboard-response,133,618684,0.0-4.21-4.21,8vji570cqd9,2022-09-19 16:45:04.584,55b2d3f2fdf99b525bc839aa,1,78,23,24,70,35,male,,,,,,1.0,learning,21.0,D,,black,,stars,,,,D,black,stars,,0.0,0.0,0,right,397.4000000004,3.0,0.0,0.0,,,
134,0,,html-keyboard-response,134,620192,0.0-4.22-0.22,8vji570cqd9,2022-09-19 16:45:04.584,55b2d3f2fdf99b525bc839aa,1,78,23,24,70,35,male,,,"<img src=""static/images/cards/stack_of_red_bolts.svg"" width=""175px"" height=""250px""></img>",,,,,,,,,,,,,,,,,,,,,,,,,,,,
135,0,,html-keyboard-response,135,621310,0.0-4.22-1.22,8vji570cqd9,2022-09-19 16:45:04.584,55b2d3f2fdf99b525bc839aa,1,78,23,24,70,35,male,608.2000000011,,"
  <table>
  <tr height=300>
    <td width=300 height=300><img src=""static/images/cards/back_of_red_bolts.svg"" width=""175px"" height=""250px""></img></td>
    <td width=300 height=300><img src=""static/images/cards/back_of_red_bolts.svg"" width=""175px"" height=""250px""></img></td>
  </tr>
  <tr height=200>
    <td width=300><img src=""static/images/keys/z.svg"" width=""35%"" height=""75%""></img></td>
    <td width=300><img src=""static/images/keys/m.svg"" width=""35%"" height=""75%""></img></td>
  </tr>
</table>
  ",90.0,1.0,,,,,,,,,,,,,,,,,,,,,,,,,,
136,0,,html-keyboard-response,136,622824,0.0-4.22-2.22,8vji570cqd9,2022-09-19 16:45:04.584,55b2d3f2fdf99b525bc839aa,1,78,23,24,70,35,male,,,"
  <table>
  <tr height=300>
    <td width=300 height=300><img src=""static/images/cards/2_of_red_bolts.svg"" width=""175px"" height=""250px""></img></td>
    <td width=300 height=300><img src=""static/images/cards/back_of_red_bolts.svg"" width=""175px"" height=""250px""></img></td>
  </tr>
  <tr height=200>
    <td width=300><img src=""static/images/keys/z.svg"" width=""35%"" height=""75%""></img></td>
    <td width=300><img src=""static/images/keys/m.svg"" width=""35%"" height=""75%""></img></td>
  </tr>
</table>
  ",,,,,,,,,,,,,,,,,,,,,,,,,,,,
137,0,,html-keyboard-response,137,624338,0.0-4.22-3.22,8vji570cqd9,2022-09-19 16:45:04.584,55b2d3f2fdf99b525bc839aa,1,78,23,24,70,35,male,,,"<p style=""font-size:50px"">You win!
+10 points this round!</p>",,,,,,,,,,,,,,,,,,,,,,,,,,,,
138,0,,html-keyboard-response,138,624853,0.0-4.22-4.22,8vji570cqd9,2022-09-19 16:45:04.584,55b2d3f2fdf99b525bc839aa,1,78,23,24,70,35,male,,,,,,1.0,learning,22.0,Xc,,red,,bolts,,,,Xc,red,bolts,,1.0,0.0,NA,left,608.2000000011,2.0,0.0,1.0,,,
139,0,,html-keyboard-response,139,626366,0.0-4.23-0.23,8vji570cqd9,2022-09-19 16:45:04.584,55b2d3f2fdf99b525bc839aa,1,78,23,24,70,35,male,,,"<img src=""static/images/cards/stack_of_black_bolts.svg"" width=""175px"" height=""250px""></img>",,,,,,,,,,,,,,,,,,,,,,,,,,,,
140,0,,html-keyboard-response,140,627692,0.0-4.23-1.23,8vji570cqd9,2022-09-19 16:45:04.584,55b2d3f2fdf99b525bc839aa,1,78,23,24,70,35,male,815.6999999993,,"
  <table>
  <tr height=300>
    <td width=300 height=300><img src=""static/images/cards/back_of_black_bolts.svg"" width=""175px"" height=""250px""></img></td>
    <td width=300 height=300><img src=""static/images/cards/back_of_black_bolts.svg"" width=""175px"" height=""250px""></img></td>
  </tr>
  <tr height=200>
    <td width=300></td>
    <td width=300><img src=""static/images/keys/m.svg"" width=""35%"" height=""75%""></img></td>
  </tr>
</table>
  ",77.0,1.0,,,,,,,,,,,,,,,,,,,,,,,,,,
141,0,,html-keyboard-response,141,629194,0.0-4.23-2.23,8vji570cqd9,2022-09-19 16:45:04.584,55b2d3f2fdf99b525bc839aa,1,78,23,24,70,35,male,,,"
  <table>
  <tr height=300>
    <td width=300 height=300><img src=""static/images/cards/back_of_black_bolts.svg"" width=""175px"" height=""250px""></img></td>
    <td width=300 height=300><img src=""static/images/cards/8_of_black_bolts.svg"" width=""175px"" height=""250px""></img></td>
  </tr>
  <tr height=200>
    <td width=300></td>
    <td width=300><img src=""static/images/keys/m.svg"" width=""35%"" height=""75%""></img></td>
  </tr>
</table>
  ",,,,,,,,,,,,,,,,,,,,,,,,,,,,
142,0,,html-keyboard-response,142,630705,0.0-4.23-3.23,8vji570cqd9,2022-09-19 16:45:04.584,55b2d3f2fdf99b525bc839aa,1,78,23,24,70,35,male,,,"<p style=""font-size:50px"">You win!
+10 points this round!</p>",,,,,,,,,,,,,,,,,,,,,,,,,,,,
143,0,,html-keyboard-response,143,631221,0.0-4.23-4.23,8vji570cqd9,2022-09-19 16:45:04.584,55b2d3f2fdf99b525bc839aa,1,78,23,24,70,35,male,,,,,,1.0,learning,23.0,Xnc,,black,,bolts,,,,Xnc,black,bolts,,0.0,0.0,0,right,815.6999999993,8.0,1.0,1.0,,,
144,0,,call-function,144,631225,0.0-5.0,8vji570cqd9,2022-09-19 16:45:04.584,55b2d3f2fdf99b525bc839aa,1,78,23,24,70,35,male,,,,,,,,,,,,,,,,,,,,,,,,,,,,,,,
145,0,,image-keyboard-response,145,633912,0.0-6.0-0.0,8vji570cqd9,2022-09-19 16:45:04.584,55b2d3f2fdf99b525bc839aa,1,78,23,24,70,35,male,2687.1999999993,,static/images/instructions_CB_1/Slide20.png,39.0,,,,,,,,,,,,,,,,,,,,,,,,,,,
146,0,,image-keyboard-response,146,653595,0.0-6.1-0.1,8vji570cqd9,2022-09-19 16:45:04.584,55b2d3f2fdf99b525bc839aa,1,78,23,24,70,35,male,19681.4000000004,,static/images/instructions_CB_1/Slide21.png,39.0,,,,,,,,,,,,,,,,,,,,,,,,,,,
147,0,,image-keyboard-response,147,654499,0.0-6.2-0.2,8vji570cqd9,2022-09-19 16:45:04.584,55b2d3f2fdf99b525bc839aa,1,78,23,24,70,35,male,903.4000000004,,static/images/instructions_CB_1/Slide22.png,39.0,,,,,,,,,,,,,,,,,,,,,,,,,,,
148,0,,image-keyboard-response,148,682581,0.0-6.3-0.3,8vji570cqd9,2022-09-19 16:45:04.584,55b2d3f2fdf99b525bc839aa,1,78,23,24,70,35,male,28081.4000000004,,static/images/instructions_CB_1/Slide23.png,39.0,,,,,,,,,,,,,,,,,,,,,,,,,,,
149,0,,image-keyboard-response,149,684045,0.0-6.4-0.4,8vji570cqd9,2022-09-19 16:45:04.584,55b2d3f2fdf99b525bc839aa,1,78,23,24,70,35,male,1463.5,,static/images/instructions_CB_1/Slide24.png,39.0,,,,,,,,,,,,,,,,,,,,,,,,,,,
150,0,,html-keyboard-response,150,687490,0.0-7.0-0.0,8vji570cqd9,2022-09-19 16:45:04.584,55b2d3f2fdf99b525bc839aa,1,78,23,24,70,35,male,3444.5,,"
  <table>
  <tr height=300>
    <td width=300 height=300><img src=""static/images/cards/stack_of_red_stars.svg"" width=""175px"" height=""250px""></img></td>
    <td width=300 height=300><img src=""static/images/cards/stack_of_black_moons.svg"" width=""175px"" height=""250px""></img></td>
  </tr>
  <tr height=200>
    <td width=300><img src=""static/images/keys/w.svg"" width=""35%"" height=""75%""></img></td>
    <td width=300><img src=""static/images/keys/o.svg"" width=""35%"" height=""75%""></img></td>
  </tr>
</table>
  ",79.0,2.0,,,,,,,,,,,,,,,,,,,,,,,,,,
151,0,,html-keyboard-response,151,690385,0.0-7.0-1.0,8vji570cqd9,2022-09-19 16:45:04.584,55b2d3f2fdf99b525bc839aa,1,78,23,24,70,35,male,2393.5,,"
  <table>
  <tr height=300>
    <td width=300 height=300><img src=""static/images/cards/back_of_black_moons.svg"" width=""175px"" height=""250px""></img></td>
    <td width=300 height=300><img src=""static/images/cards/back_of_black_moons.svg"" width=""175px"" height=""250px""></img></td>
  </tr>
  <tr height=200>
    <td width=300></td>
    <td width=300><img src=""static/images/keys/m.svg"" width=""35%"" height=""75%""></img></td>
  </tr>
</table>
  ",77.0,1.0,,,,,,,,,,,,,,,,,,,,,,,,,,
152,0,,html-keyboard-response,152,691894,0.0-7.0-2.0,8vji570cqd9,2022-09-19 16:45:04.584,55b2d3f2fdf99b525bc839aa,1,78,23,24,70,35,male,,,"
  <table>
  <tr height=300>
    <td width=300 height=300><img src=""static/images/cards/back_of_black_moons.svg"" width=""175px"" height=""250px""></img></td>
    <td width=300 height=300><img src=""static/images/cards/7_of_black_moons.svg"" width=""175px"" height=""250px""></img></td>
  </tr>
  <tr height=200>
    <td width=300></td>
    <td width=300><img src=""static/images/keys/m.svg"" width=""35%"" height=""75%""></img></td>
  </tr>
</table>
  ",,,,,,,,,,,,,,,,,,,,,,,,,,,,
153,0,,html-keyboard-response,153,693413,0.0-7.0-3.0,8vji570cqd9,2022-09-19 16:45:04.584,55b2d3f2fdf99b525bc839aa,1,78,23,24,70,35,male,,,"<p style=""font-size:50px"">You win!
+10 points this round!</p>",,,,,,,,,,,,,,,,,,,,,,,,,,,,
154,0,,html-keyboard-response,154,693918,0.0-7.0-4.0,8vji570cqd9,2022-09-19 16:45:04.584,55b2d3f2fdf99b525bc839aa,1,78,23,24,70,35,male,,,,,,1.0,choice,0.0,B,C,red,black,stars,moons,C,B,B,black,moons,3444.5,0.0,1.0,0,right,2393.5,7.0,1.0,1.0,,,
155,0,,html-keyboard-response,155,696984,0.0-7.1-0.1,8vji570cqd9,2022-09-19 16:45:04.584,55b2d3f2fdf99b525bc839aa,1,78,23,24,70,35,male,3065.0,,"
  <table>
  <tr height=300>
    <td width=300 height=300><img src=""static/images/cards/stack_of_black_moons.svg"" width=""175px"" height=""250px""></img></td>
    <td width=300 height=300><img src=""static/images/cards/stack_of_red_stars.svg"" width=""175px"" height=""250px""></img></td>
  </tr>
  <tr height=200>
    <td width=300><img src=""static/images/keys/w.svg"" width=""35%"" height=""75%""></img></td>
    <td width=300><img src=""static/images/keys/o.svg"" width=""35%"" height=""75%""></img></td>
  </tr>
</table>
  ",87.0,2.0,,,,,,,,,,,,,,,,,,,,,,,,,,
156,0,,html-keyboard-response,156,698591,0.0-7.1-1.1,8vji570cqd9,2022-09-19 16:45:04.584,55b2d3f2fdf99b525bc839aa,1,78,23,24,70,35,male,1105.4000000004,,"
  <table>
  <tr height=300>
    <td width=300 height=300><img src=""static/images/cards/back_of_black_moons.svg"" width=""175px"" height=""250px""></img></td>
    <td width=300 height=300><img src=""static/images/cards/back_of_black_moons.svg"" width=""175px"" height=""250px""></img></td>
  </tr>
  <tr height=200>
    <td width=300></td>
    <td width=300><img src=""static/images/keys/m.svg"" width=""35%"" height=""75%""></img></td>
  </tr>
</table>
  ",77.0,1.0,,,,,,,,,,,,,,,,,,,,,,,,,,
157,0,,html-keyboard-response,157,700091,0.0-7.1-2.1,8vji570cqd9,2022-09-19 16:45:04.584,55b2d3f2fdf99b525bc839aa,1,78,23,24,70,35,male,,,"
  <table>
  <tr height=300>
    <td width=300 height=300><img src=""static/images/cards/back_of_black_moons.svg"" width=""175px"" height=""250px""></img></td>
    <td width=300 height=300><img src=""static/images/cards/6_of_black_moons.svg"" width=""175px"" height=""250px""></img></td>
  </tr>
  <tr height=200>
    <td width=300></td>
    <td width=300><img src=""static/images/keys/m.svg"" width=""35%"" height=""75%""></img></td>
  </tr>
</table>
  ",,,,,,,,,,,,,,,,,,,,,,,,,,,,
158,0,,html-keyboard-response,158,701594,0.0-7.1-3.1,8vji570cqd9,2022-09-19 16:45:04.584,55b2d3f2fdf99b525bc839aa,1,78,23,24,70,35,male,,,"<p style=""font-size:50px"">You win!
+10 points this round!</p>",,,,,,,,,,,,,,,,,,,,,,,,,,,,
159,0,,html-keyboard-response,159,702107,0.0-7.1-4.1,8vji570cqd9,2022-09-19 16:45:04.584,55b2d3f2fdf99b525bc839aa,1,78,23,24,70,35,male,,,,,,1.0,choice,1.0,B,C,black,red,moons,stars,B,C,B,black,moons,3065.0,0.0,1.0,0,right,1105.4000000004,6.0,1.0,1.0,,,
160,0,,html-keyboard-response,160,704190,0.0-7.2-0.2,8vji570cqd9,2022-09-19 16:45:04.584,55b2d3f2fdf99b525bc839aa,1,78,23,24,70,35,male,2082.1999999993,,"
  <table>
  <tr height=300>
    <td width=300 height=300><img src=""static/images/cards/stack_of_black_moons.svg"" width=""175px"" height=""250px""></img></td>
    <td width=300 height=300><img src=""static/images/cards/stack_of_red_moons.svg"" width=""175px"" height=""250px""></img></td>
  </tr>
  <tr height=200>
    <td width=300><img src=""static/images/keys/w.svg"" width=""35%"" height=""75%""></img></td>
    <td width=300><img src=""static/images/keys/o.svg"" width=""35%"" height=""75%""></img></td>
  </tr>
</table>
  ",79.0,1.0,,,,,,,,,,,,,,,,,,,,,,,,,,
161,0,,html-keyboard-response,161,705461,0.0-7.2-1.2,8vji570cqd9,2022-09-19 16:45:04.584,55b2d3f2fdf99b525bc839aa,1,78,23,24,70,35,male,764.6999999993,,"
  <table>
  <tr height=300>
    <td width=300 height=300><img src=""static/images/cards/back_of_red_moons.svg"" width=""175px"" height=""250px""></img></td>
    <td width=300 height=300><img src=""static/images/cards/back_of_red_moons.svg"" width=""175px"" height=""250px""></img></td>
  </tr>
  <tr height=200>
    <td width=300><img src=""static/images/keys/z.svg"" width=""35%"" height=""75%""></img></td>
    <td width=300><img src=""static/images/keys/m.svg"" width=""35%"" height=""75%""></img></td>
  </tr>
</table>
  ",77.0,1.0,,,,,,,,,,,,,,,,,,,,,,,,,,
162,0,,html-keyboard-response,162,706964,0.0-7.2-2.2,8vji570cqd9,2022-09-19 16:45:04.584,55b2d3f2fdf99b525bc839aa,1,78,23,24,70,35,male,,,"
  <table>
  <tr height=300>
    <td width=300 height=300><img src=""static/images/cards/back_of_red_moons.svg"" width=""175px"" height=""250px""></img></td>
    <td width=300 height=300><img src=""static/images/cards/6_of_red_moons.svg"" width=""175px"" height=""250px""></img></td>
  </tr>
  <tr height=200>
    <td width=300><img src=""static/images/keys/z.svg"" width=""35%"" height=""75%""></img></td>
    <td width=300><img src=""static/images/keys/m.svg"" width=""35%"" height=""75%""></img></td>
  </tr>
</table>
  ",,,,,,,,,,,,,,,,,,,,,,,,,,,,
163,0,,html-keyboard-response,163,708470,0.0-7.2-3.2,8vji570cqd9,2022-09-19 16:45:04.584,55b2d3f2fdf99b525bc839aa,1,78,23,24,70,35,male,,,"<p style=""font-size:50px"">You win!
+10 points this round!</p>",,,,,,,,,,,,,,,,,,,,,,,,,,,,
164,0,,html-keyboard-response,164,708986,0.0-7.2-4.2,8vji570cqd9,2022-09-19 16:45:04.584,55b2d3f2fdf99b525bc839aa,1,78,23,24,70,35,male,,,,,,1.0,choice,2.0,A,B,black,red,moons,moons,B,A,A,red,moons,2082.1999999993,1.0,1.0,NA,right,764.6999999993,6.0,1.0,1.0,,,
165,0,,html-keyboard-response,165,711003,0.0-7.3-0.3,8vji570cqd9,2022-09-19 16:45:04.584,55b2d3f2fdf99b525bc839aa,1,78,23,24,70,35,male,2015.4000000004,,"
  <table>
  <tr height=300>
    <td width=300 height=300><img src=""static/images/cards/stack_of_black_stars.svg"" width=""175px"" height=""250px""></img></td>
    <td width=300 height=300><img src=""static/images/cards/stack_of_red_moons.svg"" width=""175px"" height=""250px""></img></td>
  </tr>
  <tr height=200>
    <td width=300><img src=""static/images/keys/w.svg"" width=""35%"" height=""75%""></img></td>
    <td width=300><img src=""static/images/keys/o.svg"" width=""35%"" height=""75%""></img></td>
  </tr>
</table>
  ",79.0,2.0,,,,,,,,,,,,,,,,,,,,,,,,,,
166,0,,html-keyboard-response,166,713005,0.0-7.3-1.3,8vji570cqd9,2022-09-19 16:45:04.584,55b2d3f2fdf99b525bc839aa,1,78,23,24,70,35,male,1494.8000000007,,"
  <table>
  <tr height=300>
    <td width=300 height=300><img src=""static/images/cards/back_of_red_moons.svg"" width=""175px"" height=""250px""></img></td>
    <td width=300 height=300><img src=""static/images/cards/back_of_red_moons.svg"" width=""175px"" height=""250px""></img></td>
  </tr>
  <tr height=200>
    <td width=300><img src=""static/images/keys/z.svg"" width=""35%"" height=""75%""></img></td>
    <td width=300><img src=""static/images/keys/m.svg"" width=""35%"" height=""75%""></img></td>
  </tr>
</table>
  ",90.0,1.0,,,,,,,,,,,,,,,,,,,,,,,,,,
167,0,,html-keyboard-response,167,714517,0.0-7.3-2.3,8vji570cqd9,2022-09-19 16:45:04.584,55b2d3f2fdf99b525bc839aa,1,78,23,24,70,35,male,,,"
  <table>
  <tr height=300>
    <td width=300 height=300><img src=""static/images/cards/4_of_red_moons.svg"" width=""175px"" height=""250px""></img></td>
    <td width=300 height=300><img src=""static/images/cards/back_of_red_moons.svg"" width=""175px"" height=""250px""></img></td>
  </tr>
  <tr height=200>
    <td width=300><img src=""static/images/keys/z.svg"" width=""35%"" height=""75%""></img></td>
    <td width=300><img src=""static/images/keys/m.svg"" width=""35%"" height=""75%""></img></td>
  </tr>
</table>
  ",,,,,,,,,,,,,,,,,,,,,,,,,,,,
168,0,,html-keyboard-response,168,716030,0.0-7.3-3.3,8vji570cqd9,2022-09-19 16:45:04.584,55b2d3f2fdf99b525bc839aa,1,78,23,24,70,35,male,,,"<p style=""font-size:50px"">You Lose!
No points this round.</p>",,,,,,,,,,,,,,,,,,,,,,,,,,,,
169,0,,html-keyboard-response,169,716536,0.0-7.3-4.3,8vji570cqd9,2022-09-19 16:45:04.584,55b2d3f2fdf99b525bc839aa,1,78,23,24,70,35,male,,,,,,1.0,choice,3.0,A,D,black,red,stars,moons,D,A,A,red,moons,2015.4000000004,1.0,1.0,NA,left,1494.8000000007,4.0,0.0,0.0,,,
170,0,,html-keyboard-response,170,717706,0.0-7.4-0.4,8vji570cqd9,2022-09-19 16:45:04.584,55b2d3f2fdf99b525bc839aa,1,78,23,24,70,35,male,1168.8000000007,,"
  <table>
  <tr height=300>
    <td width=300 height=300><img src=""static/images/cards/stack_of_black_moons.svg"" width=""175px"" height=""250px""></img></td>
    <td width=300 height=300><img src=""static/images/cards/stack_of_red_moons.svg"" width=""175px"" height=""250px""></img></td>
  </tr>
  <tr height=200>
    <td width=300><img src=""static/images/keys/w.svg"" width=""35%"" height=""75%""></img></td>
    <td width=300><img src=""static/images/keys/o.svg"" width=""35%"" height=""75%""></img></td>
  </tr>
</table>
  ",87.0,1.0,,,,,,,,,,,,,,,,,,,,,,,,,,
171,0,,html-keyboard-response,171,719605,0.0-7.4-1.4,8vji570cqd9,2022-09-19 16:45:04.584,55b2d3f2fdf99b525bc839aa,1,78,23,24,70,35,male,1395.5999999996,,"
  <table>
  <tr height=300>
    <td width=300 height=300><img src=""static/images/cards/back_of_black_moons.svg"" width=""175px"" height=""250px""></img></td>
    <td width=300 height=300><img src=""static/images/cards/back_of_black_moons.svg"" width=""175px"" height=""250px""></img></td>
  </tr>
  <tr height=200>
    <td width=300></td>
    <td width=300><img src=""static/images/keys/m.svg"" width=""35%"" height=""75%""></img></td>
  </tr>
</table>
  ",77.0,1.0,,,,,,,,,,,,,,,,,,,,,,,,,,
172,0,,html-keyboard-response,172,721119,0.0-7.4-2.4,8vji570cqd9,2022-09-19 16:45:04.584,55b2d3f2fdf99b525bc839aa,1,78,23,24,70,35,male,,,"
  <table>
  <tr height=300>
    <td width=300 height=300><img src=""static/images/cards/back_of_black_moons.svg"" width=""175px"" height=""250px""></img></td>
    <td width=300 height=300><img src=""static/images/cards/3_of_black_moons.svg"" width=""175px"" height=""250px""></img></td>
  </tr>
  <tr height=200>
    <td width=300></td>
    <td width=300><img src=""static/images/keys/m.svg"" width=""35%"" height=""75%""></img></td>
  </tr>
</table>
  ",,,,,,,,,,,,,,,,,,,,,,,,,,,,
173,0,,html-keyboard-response,173,722643,0.0-7.4-3.4,8vji570cqd9,2022-09-19 16:45:04.584,55b2d3f2fdf99b525bc839aa,1,78,23,24,70,35,male,,,"<p style=""font-size:50px"">You Lose!
No points this round.</p>",,,,,,,,,,,,,,,,,,,,,,,,,,,,
174,0,,html-keyboard-response,174,723150,0.0-7.4-4.4,8vji570cqd9,2022-09-19 16:45:04.584,55b2d3f2fdf99b525bc839aa,1,78,23,24,70,35,male,,,,,,1.0,choice,4.0,A,B,black,red,moons,moons,B,A,B,black,moons,1168.8000000007,0.0,1.0,0,right,1395.5999999996,3.0,0.0,0.0,,,
175,0,,html-keyboard-response,175,728154,0.0-7.5-0.5,8vji570cqd9,2022-09-19 16:45:04.584,55b2d3f2fdf99b525bc839aa,1,78,23,24,70,35,male,,,"
  <table>
  <tr height=300>
    <td width=300 height=300><img src=""static/images/cards/stack_of_red_stars.svg"" width=""175px"" height=""250px""></img></td>
    <td width=300 height=300><img src=""static/images/cards/stack_of_black_bolts.svg"" width=""175px"" height=""250px""></img></td>
  </tr>
  <tr height=200>
    <td width=300><img src=""static/images/keys/w.svg"" width=""35%"" height=""75%""></img></td>
    <td width=300><img src=""static/images/keys/o.svg"" width=""35%"" height=""75%""></img></td>
  </tr>
</table>
  ",,,,,,,,,,,,,,,,,,,,,,,,,,,,
176,0,,html-keyboard-response,176,728670,0.0-7.5-1.5,8vji570cqd9,2022-09-19 16:45:04.584,55b2d3f2fdf99b525bc839aa,1,78,23,24,70,35,male,,,,,,,,,,,,,,,,,,,,,,,,,,,,,,,
177,0,,html-keyboard-response,177,728675,0.0-7.5-2.5,8vji570cqd9,2022-09-19 16:45:04.584,55b2d3f2fdf99b525bc839aa,1,78,23,24,70,35,male,,,,,,,,,,,,,,,,,,,,,,,,,,,,,,,
178,0,,html-keyboard-response,178,730180,0.0-7.5-3.5,8vji570cqd9,2022-09-19 16:45:04.584,55b2d3f2fdf99b525bc839aa,1,78,23,24,70,35,male,,,"<p style=""font-size:50px"">Too slow!</p>",,,,,,,,,,,,,,,,,,,,,,,,,,,,
179,0,,html-keyboard-response,179,730693,0.0-7.5-4.5,8vji570cqd9,2022-09-19 16:45:04.584,55b2d3f2fdf99b525bc839aa,1,78,23,24,70,35,male,,,,,,1.0,choice,5.0,C,Xnc,red,black,stars,bolts,C,Xnc,,,,,0.0,1.0,0,,,3.0,0.0,0.0,,,
180,0,,html-keyboard-response,180,731467,0.0-7.6-0.6,8vji570cqd9,2022-09-19 16:45:04.584,55b2d3f2fdf99b525bc839aa,1,78,23,24,70,35,male,773.0999999996,,"
  <table>
  <tr height=300>
    <td width=300 height=300><img src=""static/images/cards/stack_of_red_moons.svg"" width=""175px"" height=""250px""></img></td>
    <td width=300 height=300><img src=""static/images/cards/stack_of_black_moons.svg"" width=""175px"" height=""250px""></img></td>
  </tr>
  <tr height=200>
    <td width=300><img src=""static/images/keys/w.svg"" width=""35%"" height=""75%""></img></td>
    <td width=300><img src=""static/images/keys/o.svg"" width=""35%"" height=""75%""></img></td>
  </tr>
</table>
  ",87.0,1.0,,,,,,,,,,,,,,,,,,,,,,,,,,
181,0,,html-keyboard-response,181,733174,0.0-7.6-1.6,8vji570cqd9,2022-09-19 16:45:04.584,55b2d3f2fdf99b525bc839aa,1,78,23,24,70,35,male,1197.9000000004,,"
  <table>
  <tr height=300>
    <td width=300 height=300><img src=""static/images/cards/back_of_red_moons.svg"" width=""175px"" height=""250px""></img></td>
    <td width=300 height=300><img src=""static/images/cards/back_of_red_moons.svg"" width=""175px"" height=""250px""></img></td>
  </tr>
  <tr height=200>
    <td width=300><img src=""static/images/keys/z.svg"" width=""35%"" height=""75%""></img></td>
    <td width=300><img src=""static/images/keys/m.svg"" width=""35%"" height=""75%""></img></td>
  </tr>
</table>
  ",90.0,1.0,,,,,,,,,,,,,,,,,,,,,,,,,,
182,0,,html-keyboard-response,182,734675,0.0-7.6-2.6,8vji570cqd9,2022-09-19 16:45:04.584,55b2d3f2fdf99b525bc839aa,1,78,23,24,70,35,male,,,"
  <table>
  <tr height=300>
    <td width=300 height=300><img src=""static/images/cards/8_of_red_moons.svg"" width=""175px"" height=""250px""></img></td>
    <td width=300 height=300><img src=""static/images/cards/back_of_red_moons.svg"" width=""175px"" height=""250px""></img></td>
  </tr>
  <tr height=200>
    <td width=300><img src=""static/images/keys/z.svg"" width=""35%"" height=""75%""></img></td>
    <td width=300><img src=""static/images/keys/m.svg"" width=""35%"" height=""75%""></img></td>
  </tr>
</table>
  ",,,,,,,,,,,,,,,,,,,,,,,,,,,,
183,0,,html-keyboard-response,183,736183,0.0-7.6-3.6,8vji570cqd9,2022-09-19 16:45:04.584,55b2d3f2fdf99b525bc839aa,1,78,23,24,70,35,male,,,"<p style=""font-size:50px"">You win!
+10 points this round!</p>",,,,,,,,,,,,,,,,,,,,,,,,,,,,
184,0,,html-keyboard-response,184,736699,0.0-7.6-4.6,8vji570cqd9,2022-09-19 16:45:04.584,55b2d3f2fdf99b525bc839aa,1,78,23,24,70,35,male,,,,,,1.0,choice,6.0,A,B,red,black,moons,moons,A,B,A,red,moons,773.0999999996,1.0,1.0,NA,left,1197.9000000004,8.0,1.0,1.0,,,
185,0,,html-keyboard-response,185,737915,0.0-7.7-0.7,8vji570cqd9,2022-09-19 16:45:04.584,55b2d3f2fdf99b525bc839aa,1,78,23,24,70,35,male,1215.3000000007,,"
  <table>
  <tr height=300>
    <td width=300 height=300><img src=""static/images/cards/stack_of_red_bolts.svg"" width=""175px"" height=""250px""></img></td>
    <td width=300 height=300><img src=""static/images/cards/stack_of_red_stars.svg"" width=""175px"" height=""250px""></img></td>
  </tr>
  <tr height=200>
    <td width=300><img src=""static/images/keys/w.svg"" width=""35%"" height=""75%""></img></td>
    <td width=300><img src=""static/images/keys/o.svg"" width=""35%"" height=""75%""></img></td>
  </tr>
</table>
  ",79.0,1.0,,,,,,,,,,,,,,,,,,,,,,,,,,
186,0,,html-keyboard-response,186,740636,0.0-7.7-1.7,8vji570cqd9,2022-09-19 16:45:04.584,55b2d3f2fdf99b525bc839aa,1,78,23,24,70,35,male,2215.4000000004,,"
  <table>
  <tr height=300>
    <td width=300 height=300><img src=""static/images/cards/back_of_red_stars.svg"" width=""175px"" height=""250px""></img></td>
    <td width=300 height=300><img src=""static/images/cards/back_of_red_stars.svg"" width=""175px"" height=""250px""></img></td>
  </tr>
  <tr height=200>
    <td width=300><img src=""static/images/keys/z.svg"" width=""35%"" height=""75%""></img></td>
    <td width=300><img src=""static/images/keys/m.svg"" width=""35%"" height=""75%""></img></td>
  </tr>
</table>
  ",90.0,1.0,,,,,,,,,,,,,,,,,,,,,,,,,,
187,0,,html-keyboard-response,187,742138,0.0-7.7-2.7,8vji570cqd9,2022-09-19 16:45:04.584,55b2d3f2fdf99b525bc839aa,1,78,23,24,70,35,male,,,"
  <table>
  <tr height=300>
    <td width=300 height=300><img src=""static/images/cards/9_of_red_stars.svg"" width=""175px"" height=""250px""></img></td>
    <td width=300 height=300><img src=""static/images/cards/back_of_red_stars.svg"" width=""175px"" height=""250px""></img></td>
  </tr>
  <tr height=200>
    <td width=300><img src=""static/images/keys/z.svg"" width=""35%"" height=""75%""></img></td>
    <td width=300><img src=""static/images/keys/m.svg"" width=""35%"" height=""75%""></img></td>
  </tr>
</table>
  ",,,,,,,,,,,,,,,,,,,,,,,,,,,,
188,0,,html-keyboard-response,188,743645,0.0-7.7-3.7,8vji570cqd9,2022-09-19 16:45:04.584,55b2d3f2fdf99b525bc839aa,1,78,23,24,70,35,male,,,"<p style=""font-size:50px"">You Lose!
No points this round.</p>",,,,,,,,,,,,,,,,,,,,,,,,,,,,
189,0,,html-keyboard-response,189,744161,0.0-7.7-4.7,8vji570cqd9,2022-09-19 16:45:04.584,55b2d3f2fdf99b525bc839aa,1,78,23,24,70,35,male,,,,,,1.0,choice,7.0,C,Xc,red,red,bolts,stars,Xc,C,C,red,stars,1215.3000000007,1.0,0.0,NA,left,2215.4000000004,9.0,1.0,0.0,,,
190,0,,html-keyboard-response,190,744697,0.0-7.8-0.8,8vji570cqd9,2022-09-19 16:45:04.584,55b2d3f2fdf99b525bc839aa,1,78,23,24,70,35,male,535.0999999996,,"
  <table>
  <tr height=300>
    <td width=300 height=300><img src=""static/images/cards/stack_of_red_stars.svg"" width=""175px"" height=""250px""></img></td>
    <td width=300 height=300><img src=""static/images/cards/stack_of_black_stars.svg"" width=""175px"" height=""250px""></img></td>
  </tr>
  <tr height=200>
    <td width=300><img src=""static/images/keys/w.svg"" width=""35%"" height=""75%""></img></td>
    <td width=300><img src=""static/images/keys/o.svg"" width=""35%"" height=""75%""></img></td>
  </tr>
</table>
  ",87.0,1.0,,,,,,,,,,,,,,,,,,,,,,,,,,
191,0,,html-keyboard-response,191,746884,0.0-7.8-1.8,8vji570cqd9,2022-09-19 16:45:04.584,55b2d3f2fdf99b525bc839aa,1,78,23,24,70,35,male,1672.9000000004,,"
  <table>
  <tr height=300>
    <td width=300 height=300><img src=""static/images/cards/back_of_red_stars.svg"" width=""175px"" height=""250px""></img></td>
    <td width=300 height=300><img src=""static/images/cards/back_of_red_stars.svg"" width=""175px"" height=""250px""></img></td>
  </tr>
  <tr height=200>
    <td width=300><img src=""static/images/keys/z.svg"" width=""35%"" height=""75%""></img></td>
    <td width=300><img src=""static/images/keys/m.svg"" width=""35%"" height=""75%""></img></td>
  </tr>
</table>
  ",90.0,1.0,,,,,,,,,,,,,,,,,,,,,,,,,,
192,0,,html-keyboard-response,192,748385,0.0-7.8-2.8,8vji570cqd9,2022-09-19 16:45:04.584,55b2d3f2fdf99b525bc839aa,1,78,23,24,70,35,male,,,"
  <table>
  <tr height=300>
    <td width=300 height=300><img src=""static/images/cards/8_of_red_stars.svg"" width=""175px"" height=""250px""></img></td>
    <td width=300 height=300><img src=""static/images/cards/back_of_red_stars.svg"" width=""175px"" height=""250px""></img></td>
  </tr>
  <tr height=200>
    <td width=300><img src=""static/images/keys/z.svg"" width=""35%"" height=""75%""></img></td>
    <td width=300><img src=""static/images/keys/m.svg"" width=""35%"" height=""75%""></img></td>
  </tr>
</table>
  ",,,,,,,,,,,,,,,,,,,,,,,,,,,,
193,0,,html-keyboard-response,193,749902,0.0-7.8-3.8,8vji570cqd9,2022-09-19 16:45:04.584,55b2d3f2fdf99b525bc839aa,1,78,23,24,70,35,male,,,"<p style=""font-size:50px"">You win!
+10 points this round!</p>",,,,,,,,,,,,,,,,,,,,,,,,,,,,
194,0,,html-keyboard-response,194,750417,0.0-7.8-4.8,8vji570cqd9,2022-09-19 16:45:04.584,55b2d3f2fdf99b525bc839aa,1,78,23,24,70,35,male,,,,,,1.0,choice,8.0,C,D,red,black,stars,stars,C,D,C,red,stars,535.0999999996,1.0,0.0,NA,left,1672.9000000004,8.0,1.0,1.0,,,
195,0,,html-keyboard-response,195,751604,0.0-7.9-0.9,8vji570cqd9,2022-09-19 16:45:04.584,55b2d3f2fdf99b525bc839aa,1,78,23,24,70,35,male,1186.0,,"
  <table>
  <tr height=300>
    <td width=300 height=300><img src=""static/images/cards/stack_of_black_moons.svg"" width=""175px"" height=""250px""></img></td>
    <td width=300 height=300><img src=""static/images/cards/stack_of_red_stars.svg"" width=""175px"" height=""250px""></img></td>
  </tr>
  <tr height=200>
    <td width=300><img src=""static/images/keys/w.svg"" width=""35%"" height=""75%""></img></td>
    <td width=300><img src=""static/images/keys/o.svg"" width=""35%"" height=""75%""></img></td>
  </tr>
</table>
  ",79.0,1.0,,,,,,,,,,,,,,,,,,,,,,,,,,
196,0,,html-keyboard-response,196,753765,0.0-7.9-1.9,8vji570cqd9,2022-09-19 16:45:04.584,55b2d3f2fdf99b525bc839aa,1,78,23,24,70,35,male,1644.5,,"
  <table>
  <tr height=300>
    <td width=300 height=300><img src=""static/images/cards/back_of_red_stars.svg"" width=""175px"" height=""250px""></img></td>
    <td width=300 height=300><img src=""static/images/cards/back_of_red_stars.svg"" width=""175px"" height=""250px""></img></td>
  </tr>
  <tr height=200>
    <td width=300><img src=""static/images/keys/z.svg"" width=""35%"" height=""75%""></img></td>
    <td width=300><img src=""static/images/keys/m.svg"" width=""35%"" height=""75%""></img></td>
  </tr>
</table>
  ",77.0,1.0,,,,,,,,,,,,,,,,,,,,,,,,,,
197,0,,html-keyboard-response,197,755270,0.0-7.9-2.9,8vji570cqd9,2022-09-19 16:45:04.584,55b2d3f2fdf99b525bc839aa,1,78,23,24,70,35,male,,,"
  <table>
  <tr height=300>
    <td width=300 height=300><img src=""static/images/cards/back_of_red_stars.svg"" width=""175px"" height=""250px""></img></td>
    <td width=300 height=300><img src=""static/images/cards/9_of_red_stars.svg"" width=""175px"" height=""250px""></img></td>
  </tr>
  <tr height=200>
    <td width=300><img src=""static/images/keys/z.svg"" width=""35%"" height=""75%""></img></td>
    <td width=300><img src=""static/images/keys/m.svg"" width=""35%"" height=""75%""></img></td>
  </tr>
</table>
  ",,,,,,,,,,,,,,,,,,,,,,,,,,,,
198,0,,html-keyboard-response,198,756786,0.0-7.9-3.9,8vji570cqd9,2022-09-19 16:45:04.584,55b2d3f2fdf99b525bc839aa,1,78,23,24,70,35,male,,,"<p style=""font-size:50px"">You Lose!
No points this round.</p>",,,,,,,,,,,,,,,,,,,,,,,,,,,,
199,0,,html-keyboard-response,199,757299,0.0-7.9-4.9,8vji570cqd9,2022-09-19 16:45:04.584,55b2d3f2fdf99b525bc839aa,1,78,23,24,70,35,male,,,,,,1.0,choice,9.0,B,C,black,red,moons,stars,B,C,C,red,stars,1186.0,1.0,0.0,NA,right,1644.5,9.0,1.0,0.0,,,
200,0,,html-keyboard-response,200,758292,0.0-7.10-0.10,8vji570cqd9,2022-09-19 16:45:04.584,55b2d3f2fdf99b525bc839aa,1,78,23,24,70,35,male,993.0999999996,,"
  <table>
  <tr height=300>
    <td width=300 height=300><img src=""static/images/cards/stack_of_red_moons.svg"" width=""175px"" height=""250px""></img></td>
    <td width=300 height=300><img src=""static/images/cards/stack_of_black_moons.svg"" width=""175px"" height=""250px""></img></td>
  </tr>
  <tr height=200>
    <td width=300><img src=""static/images/keys/w.svg"" width=""35%"" height=""75%""></img></td>
    <td width=300><img src=""static/images/keys/o.svg"" width=""35%"" height=""75%""></img></td>
  </tr>
</table>
  ",87.0,1.0,,,,,,,,,,,,,,,,,,,,,,,,,,
201,0,,html-keyboard-response,201,760058,0.0-7.10-1.10,8vji570cqd9,2022-09-19 16:45:04.584,55b2d3f2fdf99b525bc839aa,1,78,23,24,70,35,male,1251.9000000004,,"
  <table>
  <tr height=300>
    <td width=300 height=300><img src=""static/images/cards/back_of_red_moons.svg"" width=""175px"" height=""250px""></img></td>
    <td width=300 height=300><img src=""static/images/cards/back_of_red_moons.svg"" width=""175px"" height=""250px""></img></td>
  </tr>
  <tr height=200>
    <td width=300><img src=""static/images/keys/z.svg"" width=""35%"" height=""75%""></img></td>
    <td width=300><img src=""static/images/keys/m.svg"" width=""35%"" height=""75%""></img></td>
  </tr>
</table>
  ",90.0,1.0,,,,,,,,,,,,,,,,,,,,,,,,,,
202,0,,html-keyboard-response,202,761574,0.0-7.10-2.10,8vji570cqd9,2022-09-19 16:45:04.584,55b2d3f2fdf99b525bc839aa,1,78,23,24,70,35,male,,,"
  <table>
  <tr height=300>
    <td width=300 height=300><img src=""static/images/cards/2_of_red_moons.svg"" width=""175px"" height=""250px""></img></td>
    <td width=300 height=300><img src=""static/images/cards/back_of_red_moons.svg"" width=""175px"" height=""250px""></img></td>
  </tr>
  <tr height=200>
    <td width=300><img src=""static/images/keys/z.svg"" width=""35%"" height=""75%""></img></td>
    <td width=300><img src=""static/images/keys/m.svg"" width=""35%"" height=""75%""></img></td>
  </tr>
</table>
  ",,,,,,,,,,,,,,,,,,,,,,,,,,,,
203,0,,html-keyboard-response,203,763097,0.0-7.10-3.10,8vji570cqd9,2022-09-19 16:45:04.584,55b2d3f2fdf99b525bc839aa,1,78,23,24,70,35,male,,,"<p style=""font-size:50px"">You Lose!
No points this round.</p>",,,,,,,,,,,,,,,,,,,,,,,,,,,,
204,0,,html-keyboard-response,204,763613,0.0-7.10-4.10,8vji570cqd9,2022-09-19 16:45:04.584,55b2d3f2fdf99b525bc839aa,1,78,23,24,70,35,male,,,,,,1.0,choice,10.0,A,B,red,black,moons,moons,A,B,A,red,moons,993.0999999996,1.0,1.0,NA,left,1251.9000000004,2.0,0.0,0.0,,,
205,0,,html-keyboard-response,205,764442,0.0-7.11-0.11,8vji570cqd9,2022-09-19 16:45:04.584,55b2d3f2fdf99b525bc839aa,1,78,23,24,70,35,male,828.1000000015,,"
  <table>
  <tr height=300>
    <td width=300 height=300><img src=""static/images/cards/stack_of_black_moons.svg"" width=""175px"" height=""250px""></img></td>
    <td width=300 height=300><img src=""static/images/cards/stack_of_black_stars.svg"" width=""175px"" height=""250px""></img></td>
  </tr>
  <tr height=200>
    <td width=300><img src=""static/images/keys/w.svg"" width=""35%"" height=""75%""></img></td>
    <td width=300><img src=""static/images/keys/o.svg"" width=""35%"" height=""75%""></img></td>
  </tr>
</table>
  ",87.0,1.0,,,,,,,,,,,,,,,,,,,,,,,,,,
206,0,,html-keyboard-response,206,767271,0.0-7.11-1.11,8vji570cqd9,2022-09-19 16:45:04.584,55b2d3f2fdf99b525bc839aa,1,78,23,24,70,35,male,2323.6999999993,,"
  <table>
  <tr height=300>
    <td width=300 height=300><img src=""static/images/cards/back_of_black_moons.svg"" width=""175px"" height=""250px""></img></td>
    <td width=300 height=300><img src=""static/images/cards/back_of_black_moons.svg"" width=""175px"" height=""250px""></img></td>
  </tr>
  <tr height=200>
    <td width=300><img src=""static/images/keys/z.svg"" width=""35%"" height=""75%""></img></td>
    <td width=300></td>
  </tr>
</table>
  ",90.0,1.0,,,,,,,,,,,,,,,,,,,,,,,,,,
207,0,,html-keyboard-response,207,768786,0.0-7.11-2.11,8vji570cqd9,2022-09-19 16:45:04.584,55b2d3f2fdf99b525bc839aa,1,78,23,24,70,35,male,,,"
  <table>
  <tr height=300>
    <td width=300 height=300><img src=""static/images/cards/9_of_black_moons.svg"" width=""175px"" height=""250px""></img></td>
    <td width=300 height=300><img src=""static/images/cards/back_of_black_moons.svg"" width=""175px"" height=""250px""></img></td>
  </tr>
  <tr height=200>
    <td width=300><img src=""static/images/keys/z.svg"" width=""35%"" height=""75%""></img></td>
    <td width=300></td>
  </tr>
</table>
  ",,,,,,,,,,,,,,,,,,,,,,,,,,,,
208,0,,html-keyboard-response,208,770298,0.0-7.11-3.11,8vji570cqd9,2022-09-19 16:45:04.584,55b2d3f2fdf99b525bc839aa,1,78,23,24,70,35,male,,,"<p style=""font-size:50px"">You win!
+10 points this round!</p>",,,,,,,,,,,,,,,,,,,,,,,,,,,,
209,0,,html-keyboard-response,209,770810,0.0-7.11-4.11,8vji570cqd9,2022-09-19 16:45:04.584,55b2d3f2fdf99b525bc839aa,1,78,23,24,70,35,male,,,,,,1.0,choice,11.0,B,D,black,black,moons,stars,B,D,B,black,moons,828.1000000015,0.0,1.0,1,left,2323.6999999993,9.0,1.0,1.0,,,
210,0,,html-keyboard-response,210,771843,0.0-7.12-0.12,8vji570cqd9,2022-09-19 16:45:04.584,55b2d3f2fdf99b525bc839aa,1,78,23,24,70,35,male,1032.1999999993,,"
  <table>
  <tr height=300>
    <td width=300 height=300><img src=""static/images/cards/stack_of_red_bolts.svg"" width=""175px"" height=""250px""></img></td>
    <td width=300 height=300><img src=""static/images/cards/stack_of_red_moons.svg"" width=""175px"" height=""250px""></img></td>
  </tr>
  <tr height=200>
    <td width=300><img src=""static/images/keys/w.svg"" width=""35%"" height=""75%""></img></td>
    <td width=300><img src=""static/images/keys/o.svg"" width=""35%"" height=""75%""></img></td>
  </tr>
</table>
  ",87.0,1.0,,,,,,,,,,,,,,,,,,,,,,,,,,
211,0,,html-keyboard-response,211,774001,0.0-7.12-1.12,8vji570cqd9,2022-09-19 16:45:04.584,55b2d3f2fdf99b525bc839aa,1,78,23,24,70,35,male,1646.8000000007,,"
  <table>
  <tr height=300>
    <td width=300 height=300><img src=""static/images/cards/back_of_red_bolts.svg"" width=""175px"" height=""250px""></img></td>
    <td width=300 height=300><img src=""static/images/cards/back_of_red_bolts.svg"" width=""175px"" height=""250px""></img></td>
  </tr>
  <tr height=200>
    <td width=300><img src=""static/images/keys/z.svg"" width=""35%"" height=""75%""></img></td>
    <td width=300><img src=""static/images/keys/m.svg"" width=""35%"" height=""75%""></img></td>
  </tr>
</table>
  ",90.0,1.0,,,,,,,,,,,,,,,,,,,,,,,,,,
212,0,,html-keyboard-response,212,775508,0.0-7.12-2.12,8vji570cqd9,2022-09-19 16:45:04.584,55b2d3f2fdf99b525bc839aa,1,78,23,24,70,35,male,,,"
  <table>
  <tr height=300>
    <td width=300 height=300><img src=""static/images/cards/3_of_red_bolts.svg"" width=""175px"" height=""250px""></img></td>
    <td width=300 height=300><img src=""static/images/cards/back_of_red_bolts.svg"" width=""175px"" height=""250px""></img></td>
  </tr>
  <tr height=200>
    <td width=300><img src=""static/images/keys/z.svg"" width=""35%"" height=""75%""></img></td>
    <td width=300><img src=""static/images/keys/m.svg"" width=""35%"" height=""75%""></img></td>
  </tr>
</table>
  ",,,,,,,,,,,,,,,,,,,,,,,,,,,,
213,0,,html-keyboard-response,213,777025,0.0-7.12-3.12,8vji570cqd9,2022-09-19 16:45:04.584,55b2d3f2fdf99b525bc839aa,1,78,23,24,70,35,male,,,"<p style=""font-size:50px"">You win!
+10 points this round!</p>",,,,,,,,,,,,,,,,,,,,,,,,,,,,
214,0,,html-keyboard-response,214,777537,0.0-7.12-4.12,8vji570cqd9,2022-09-19 16:45:04.584,55b2d3f2fdf99b525bc839aa,1,78,23,24,70,35,male,,,,,,1.0,choice,12.0,A,Xc,red,red,bolts,moons,Xc,A,Xc,red,bolts,1032.1999999993,1.0,0.0,NA,left,1646.8000000007,3.0,0.0,1.0,,,
215,0,,html-keyboard-response,215,778475,0.0-7.13-0.13,8vji570cqd9,2022-09-19 16:45:04.584,55b2d3f2fdf99b525bc839aa,1,78,23,24,70,35,male,936.5999999996,,"
  <table>
  <tr height=300>
    <td width=300 height=300><img src=""static/images/cards/stack_of_black_bolts.svg"" width=""175px"" height=""250px""></img></td>
    <td width=300 height=300><img src=""static/images/cards/stack_of_red_moons.svg"" width=""175px"" height=""250px""></img></td>
  </tr>
  <tr height=200>
    <td width=300><img src=""static/images/keys/w.svg"" width=""35%"" height=""75%""></img></td>
    <td width=300><img src=""static/images/keys/o.svg"" width=""35%"" height=""75%""></img></td>
  </tr>
</table>
  ",87.0,1.0,,,,,,,,,,,,,,,,,,,,,,,,,,
216,0,,html-keyboard-response,216,781420,0.0-7.13-1.13,8vji570cqd9,2022-09-19 16:45:04.584,55b2d3f2fdf99b525bc839aa,1,78,23,24,70,35,male,2429.4000000004,,"
  <table>
  <tr height=300>
    <td width=300 height=300><img src=""static/images/cards/back_of_black_bolts.svg"" width=""175px"" height=""250px""></img></td>
    <td width=300 height=300><img src=""static/images/cards/back_of_black_bolts.svg"" width=""175px"" height=""250px""></img></td>
  </tr>
  <tr height=200>
    <td width=300></td>
    <td width=300><img src=""static/images/keys/m.svg"" width=""35%"" height=""75%""></img></td>
  </tr>
</table>
  ",77.0,1.0,,,,,,,,,,,,,,,,,,,,,,,,,,
217,0,,html-keyboard-response,217,782923,0.0-7.13-2.13,8vji570cqd9,2022-09-19 16:45:04.584,55b2d3f2fdf99b525bc839aa,1,78,23,24,70,35,male,,,"
  <table>
  <tr height=300>
    <td width=300 height=300><img src=""static/images/cards/back_of_black_bolts.svg"" width=""175px"" height=""250px""></img></td>
    <td width=300 height=300><img src=""static/images/cards/10_of_black_bolts.svg"" width=""175px"" height=""250px""></img></td>
  </tr>
  <tr height=200>
    <td width=300></td>
    <td width=300><img src=""static/images/keys/m.svg"" width=""35%"" height=""75%""></img></td>
  </tr>
</table>
  ",,,,,,,,,,,,,,,,,,,,,,,,,,,,
218,0,,html-keyboard-response,218,784439,0.0-7.13-3.13,8vji570cqd9,2022-09-19 16:45:04.584,55b2d3f2fdf99b525bc839aa,1,78,23,24,70,35,male,,,"<p style=""font-size:50px"">You win!
+10 points this round!</p>",,,,,,,,,,,,,,,,,,,,,,,,,,,,
219,0,,html-keyboard-response,219,784955,0.0-7.13-4.13,8vji570cqd9,2022-09-19 16:45:04.584,55b2d3f2fdf99b525bc839aa,1,78,23,24,70,35,male,,,,,,1.0,choice,13.0,A,Xnc,black,red,bolts,moons,Xnc,A,Xnc,black,bolts,936.5999999996,0.0,0.0,0,right,2429.4000000004,10.0,1.0,1.0,,,
220,0,,html-keyboard-response,220,786329,0.0-7.14-0.14,8vji570cqd9,2022-09-19 16:45:04.584,55b2d3f2fdf99b525bc839aa,1,78,23,24,70,35,male,1373.0,,"
  <table>
  <tr height=300>
    <td width=300 height=300><img src=""static/images/cards/stack_of_red_moons.svg"" width=""175px"" height=""250px""></img></td>
    <td width=300 height=300><img src=""static/images/cards/stack_of_black_moons.svg"" width=""175px"" height=""250px""></img></td>
  </tr>
  <tr height=200>
    <td width=300><img src=""static/images/keys/w.svg"" width=""35%"" height=""75%""></img></td>
    <td width=300><img src=""static/images/keys/o.svg"" width=""35%"" height=""75%""></img></td>
  </tr>
</table>
  ",87.0,1.0,,,,,,,,,,,,,,,,,,,,,,,,,,
221,0,,html-keyboard-response,221,788885,0.0-7.14-1.14,8vji570cqd9,2022-09-19 16:45:04.584,55b2d3f2fdf99b525bc839aa,1,78,23,24,70,35,male,2053.5999999996,,"
  <table>
  <tr height=300>
    <td width=300 height=300><img src=""static/images/cards/back_of_red_moons.svg"" width=""175px"" height=""250px""></img></td>
    <td width=300 height=300><img src=""static/images/cards/back_of_red_moons.svg"" width=""175px"" height=""250px""></img></td>
  </tr>
  <tr height=200>
    <td width=300><img src=""static/images/keys/z.svg"" width=""35%"" height=""75%""></img></td>
    <td width=300><img src=""static/images/keys/m.svg"" width=""35%"" height=""75%""></img></td>
  </tr>
</table>
  ",90.0,2.0,,,,,,,,,,,,,,,,,,,,,,,,,,
222,0,,html-keyboard-response,222,790387,0.0-7.14-2.14,8vji570cqd9,2022-09-19 16:45:04.584,55b2d3f2fdf99b525bc839aa,1,78,23,24,70,35,male,,,"
  <table>
  <tr height=300>
    <td width=300 height=300><img src=""static/images/cards/6_of_red_moons.svg"" width=""175px"" height=""250px""></img></td>
    <td width=300 height=300><img src=""static/images/cards/back_of_red_moons.svg"" width=""175px"" height=""250px""></img></td>
  </tr>
  <tr height=200>
    <td width=300><img src=""static/images/keys/z.svg"" width=""35%"" height=""75%""></img></td>
    <td width=300><img src=""static/images/keys/m.svg"" width=""35%"" height=""75%""></img></td>
  </tr>
</table>
  ",,,,,,,,,,,,,,,,,,,,,,,,,,,,
223,0,,html-keyboard-response,223,791898,0.0-7.14-3.14,8vji570cqd9,2022-09-19 16:45:04.584,55b2d3f2fdf99b525bc839aa,1,78,23,24,70,35,male,,,"<p style=""font-size:50px"">You win!
+10 points this round!</p>",,,,,,,,,,,,,,,,,,,,,,,,,,,,
224,0,,html-keyboard-response,224,792412,0.0-7.14-4.14,8vji570cqd9,2022-09-19 16:45:04.584,55b2d3f2fdf99b525bc839aa,1,78,23,24,70,35,male,,,,,,1.0,choice,14.0,A,B,red,black,moons,moons,A,B,A,red,moons,1373.0,1.0,1.0,NA,left,2053.5999999996,6.0,1.0,1.0,,,
225,0,,html-keyboard-response,225,793349,0.0-7.15-0.15,8vji570cqd9,2022-09-19 16:45:04.584,55b2d3f2fdf99b525bc839aa,1,78,23,24,70,35,male,936.5,,"
  <table>
  <tr height=300>
    <td width=300 height=300><img src=""static/images/cards/stack_of_black_stars.svg"" width=""175px"" height=""250px""></img></td>
    <td width=300 height=300><img src=""static/images/cards/stack_of_red_stars.svg"" width=""175px"" height=""250px""></img></td>
  </tr>
  <tr height=200>
    <td width=300><img src=""static/images/keys/w.svg"" width=""35%"" height=""75%""></img></td>
    <td width=300><img src=""static/images/keys/o.svg"" width=""35%"" height=""75%""></img></td>
  </tr>
</table>
  ",87.0,1.0,,,,,,,,,,,,,,,,,,,,,,,,,,
226,0,,html-keyboard-response,226,796002,0.0-7.15-1.15,8vji570cqd9,2022-09-19 16:45:04.584,55b2d3f2fdf99b525bc839aa,1,78,23,24,70,35,male,2148.0999999996,,"
  <table>
  <tr height=300>
    <td width=300 height=300><img src=""static/images/cards/back_of_black_stars.svg"" width=""175px"" height=""250px""></img></td>
    <td width=300 height=300><img src=""static/images/cards/back_of_black_stars.svg"" width=""175px"" height=""250px""></img></td>
  </tr>
  <tr height=200>
    <td width=300><img src=""static/images/keys/z.svg"" width=""35%"" height=""75%""></img></td>
    <td width=300></td>
  </tr>
</table>
  ",90.0,2.0,,,,,,,,,,,,,,,,,,,,,,,,,,
227,0,,html-keyboard-response,227,797506,0.0-7.15-2.15,8vji570cqd9,2022-09-19 16:45:04.584,55b2d3f2fdf99b525bc839aa,1,78,23,24,70,35,male,,,"
  <table>
  <tr height=300>
    <td width=300 height=300><img src=""static/images/cards/4_of_black_stars.svg"" width=""175px"" height=""250px""></img></td>
    <td width=300 height=300><img src=""static/images/cards/back_of_black_stars.svg"" width=""175px"" height=""250px""></img></td>
  </tr>
  <tr height=200>
    <td width=300><img src=""static/images/keys/z.svg"" width=""35%"" height=""75%""></img></td>
    <td width=300></td>
  </tr>
</table>
  ",,,,,,,,,,,,,,,,,,,,,,,,,,,,
228,0,,html-keyboard-response,228,799014,0.0-7.15-3.15,8vji570cqd9,2022-09-19 16:45:04.584,55b2d3f2fdf99b525bc839aa,1,78,23,24,70,35,male,,,"<p style=""font-size:50px"">You win!
+10 points this round!</p>",,,,,,,,,,,,,,,,,,,,,,,,,,,,
229,0,,html-keyboard-response,229,799528,0.0-7.15-4.15,8vji570cqd9,2022-09-19 16:45:04.584,55b2d3f2fdf99b525bc839aa,1,78,23,24,70,35,male,,,,,,1.0,choice,15.0,C,D,black,red,stars,stars,D,C,D,black,stars,936.5,0.0,0.0,1,left,2148.0999999996,4.0,0.0,1.0,,,
230,0,,html-keyboard-response,230,800388,0.0-7.16-0.16,8vji570cqd9,2022-09-19 16:45:04.584,55b2d3f2fdf99b525bc839aa,1,78,23,24,70,35,male,858.5999999996,,"
  <table>
  <tr height=300>
    <td width=300 height=300><img src=""static/images/cards/stack_of_black_bolts.svg"" width=""175px"" height=""250px""></img></td>
    <td width=300 height=300><img src=""static/images/cards/stack_of_black_stars.svg"" width=""175px"" height=""250px""></img></td>
  </tr>
  <tr height=200>
    <td width=300><img src=""static/images/keys/w.svg"" width=""35%"" height=""75%""></img></td>
    <td width=300><img src=""static/images/keys/o.svg"" width=""35%"" height=""75%""></img></td>
  </tr>
</table>
  ",87.0,1.0,,,,,,,,,,,,,,,,,,,,,,,,,,
231,0,,html-keyboard-response,231,802528,0.0-7.16-1.16,8vji570cqd9,2022-09-19 16:45:04.584,55b2d3f2fdf99b525bc839aa,1,78,23,24,70,35,male,1639.2000000011,,"
  <table>
  <tr height=300>
    <td width=300 height=300><img src=""static/images/cards/back_of_black_bolts.svg"" width=""175px"" height=""250px""></img></td>
    <td width=300 height=300><img src=""static/images/cards/back_of_black_bolts.svg"" width=""175px"" height=""250px""></img></td>
  </tr>
  <tr height=200>
    <td width=300></td>
    <td width=300><img src=""static/images/keys/m.svg"" width=""35%"" height=""75%""></img></td>
  </tr>
</table>
  ",77.0,1.0,,,,,,,,,,,,,,,,,,,,,,,,,,
232,0,,html-keyboard-response,232,804034,0.0-7.16-2.16,8vji570cqd9,2022-09-19 16:45:04.584,55b2d3f2fdf99b525bc839aa,1,78,23,24,70,35,male,,,"
  <table>
  <tr height=300>
    <td width=300 height=300><img src=""static/images/cards/back_of_black_bolts.svg"" width=""175px"" height=""250px""></img></td>
    <td width=300 height=300><img src=""static/images/cards/4_of_black_bolts.svg"" width=""175px"" height=""250px""></img></td>
  </tr>
  <tr height=200>
    <td width=300></td>
    <td width=300><img src=""static/images/keys/m.svg"" width=""35%"" height=""75%""></img></td>
  </tr>
</table>
  ",,,,,,,,,,,,,,,,,,,,,,,,,,,,
233,0,,html-keyboard-response,233,805557,0.0-7.16-3.16,8vji570cqd9,2022-09-19 16:45:04.584,55b2d3f2fdf99b525bc839aa,1,78,23,24,70,35,male,,,"<p style=""font-size:50px"">You win!
+10 points this round!</p>",,,,,,,,,,,,,,,,,,,,,,,,,,,,
234,0,,html-keyboard-response,234,806071,0.0-7.16-4.16,8vji570cqd9,2022-09-19 16:45:04.584,55b2d3f2fdf99b525bc839aa,1,78,23,24,70,35,male,,,,,,1.0,choice,16.0,D,Xnc,black,black,bolts,stars,Xnc,D,Xnc,black,bolts,858.5999999996,0.0,0.0,0,right,1639.2000000011,4.0,0.0,1.0,,,
235,0,,html-keyboard-response,235,807131,0.0-7.17-0.17,8vji570cqd9,2022-09-19 16:45:04.584,55b2d3f2fdf99b525bc839aa,1,78,23,24,70,35,male,1059.1999999993,,"
  <table>
  <tr height=300>
    <td width=300 height=300><img src=""static/images/cards/stack_of_black_stars.svg"" width=""175px"" height=""250px""></img></td>
    <td width=300 height=300><img src=""static/images/cards/stack_of_red_stars.svg"" width=""175px"" height=""250px""></img></td>
  </tr>
  <tr height=200>
    <td width=300><img src=""static/images/keys/w.svg"" width=""35%"" height=""75%""></img></td>
    <td width=300><img src=""static/images/keys/o.svg"" width=""35%"" height=""75%""></img></td>
  </tr>
</table>
  ",87.0,1.0,,,,,,,,,,,,,,,,,,,,,,,,,,
236,0,,html-keyboard-response,236,808827,0.0-7.17-1.17,8vji570cqd9,2022-09-19 16:45:04.584,55b2d3f2fdf99b525bc839aa,1,78,23,24,70,35,male,1184.0,,"
