,index,success,trial_type,trial_index,time_elapsed,internal_node_id,subject,date,prol_id,ctbl,sense_of_control_A,sense_of_control_B,sense_of_control_C,sense_of_control_D,age,gender,rt,url,stimulus,key_press,is_data_trial,phase,trial,deck1,deck2,col1,col2,sym1,sym2,deck_l,deck_r,chosen_deck,chosen_col,chosen_sym,deck_rt,choose_choice,mutual_info,hidden_key,chosen_card,card_rt,player_num,win_card,outcome,mock_rating,npress,response,responses
0,0,1.0,fullscreen,0,4140,0.0-0.0,ifgq393xvo,2022-09-19 17:10:24.553,605f64ae5862018ec5eb9370,3,38,63,61,28,23,male,,,,,,,,,,,,,,,,,,,,,,,,,,,,,,,
1,0,,external-html,1,15555,0.0-1.0,ifgq393xvo,2022-09-19 17:10:24.553,605f64ae5862018ec5eb9370,3,38,63,61,28,23,male,11274.0,static/js/sub/consent.html,,,,,,,,,,,,,,,,,,,,,,,,,,,,,
2,0,,call-function,2,15556,0.0-2.0,ifgq393xvo,2022-09-19 17:10:24.553,605f64ae5862018ec5eb9370,3,38,63,61,28,23,male,,,,,,,,,,,,,,,,,,,,,,,,,,,,,,,
3,0,,image-keyboard-response,3,22254,0.0-3.0-0.0,ifgq393xvo,2022-09-19 17:10:24.553,605f64ae5862018ec5eb9370,3,38,63,61,28,23,male,6697.1000000089,,static/images/instructions_CB_3/Slide1.png,39.0,,,,,,,,,,,,,,,,,,,,,,,,,,,
4,0,,image-keyboard-response,4,29730,0.0-3.1-0.1,ifgq393xvo,2022-09-19 17:10:24.553,605f64ae5862018ec5eb9370,3,38,63,61,28,23,male,7474.3999999911,,static/images/instructions_CB_3/Slide2.png,39.0,,,,,,,,,,,,,,,,,,,,,,,,,,,
5,0,,image-keyboard-response,5,33212,0.0-3.2-0.2,ifgq393xvo,2022-09-19 17:10:24.553,605f64ae5862018ec5eb9370,3,38,63,61,28,23,male,3480.0,,static/images/instructions_CB_3/Slide3.png,39.0,,,,,,,,,,,,,,,,,,,,,,,,,,,
6,0,,image-keyboard-response,6,36943,0.0-3.3-0.3,ifgq393xvo,2022-09-19 17:10:24.553,605f64ae5862018ec5eb9370,3,38,63,61,28,23,male,3730.099999994,,static/images/instructions_CB_3/Slide4.png,39.0,,,,,,,,,,,,,,,,,,,,,,,,,,,
7,0,,image-keyboard-response,7,41585,0.0-3.4-0.4,ifgq393xvo,2022-09-19 17:10:24.553,605f64ae5862018ec5eb9370,3,38,63,61,28,23,male,4639.5,,static/images/instructions_CB_3/Slide5.png,39.0,,,,,,,,,,,,,,,,,,,,,,,,,,,
8,0,,image-keyboard-response,8,43891,0.0-3.5-0.5,ifgq393xvo,2022-09-19 17:10:24.553,605f64ae5862018ec5eb9370,3,38,63,61,28,23,male,2298.8999999911,,static/images/instructions_CB_3/Slide6.png,39.0,,,,,,,,,,,,,,,,,,,,,,,,,,,
9,0,,image-keyboard-response,9,49468,0.0-3.6-0.6,ifgq393xvo,2022-09-19 17:10:24.553,605f64ae5862018ec5eb9370,3,38,63,61,28,23,male,5575.200000003,,static/images/instructions_CB_3/Slide7.png,39.0,,,,,,,,,,,,,,,,,,,,,,,,,,,
10,0,,image-keyboard-response,10,63343,0.0-3.7-0.7,ifgq393xvo,2022-09-19 17:10:24.553,605f64ae5862018ec5eb9370,3,38,63,61,28,23,male,13873.700000003,,static/images/instructions_CB_3/Slide8.png,39.0,,,,,,,,,,,,,,,,,,,,,,,,,,,
11,0,,image-keyboard-response,11,71257,0.0-3.8-0.8,ifgq393xvo,2022-09-19 17:10:24.553,605f64ae5862018ec5eb9370,3,38,63,61,28,23,male,7912.799999997,,static/images/instructions_CB_3/Slide9.png,39.0,,,,,,,,,,,,,,,,,,,,,,,,,,,
12,0,,image-keyboard-response,12,81506,0.0-3.9-0.9,ifgq393xvo,2022-09-19 17:10:24.553,605f64ae5862018ec5eb9370,3,38,63,61,28,23,male,10248.0,,static/images/instructions_CB_3/Slide10.png,39.0,,,,,,,,,,,,,,,,,,,,,,,,,,,
13,0,,image-keyboard-response,13,87432,0.0-3.10-0.10,ifgq393xvo,2022-09-19 17:10:24.553,605f64ae5862018ec5eb9370,3,38,63,61,28,23,male,5925.099999994,,static/images/instructions_CB_3/Slide11.png,39.0,,,,,,,,,,,,,,,,,,,,,,,,,,,
14,0,,image-keyboard-response,14,102984,0.0-3.11-0.11,ifgq393xvo,2022-09-19 17:10:24.553,605f64ae5862018ec5eb9370,3,38,63,61,28,23,male,15549.799999997,,static/images/instructions_CB_3/Slide12.png,39.0,,,,,,,,,,,,,,,,,,,,,,,,,,,
15,0,,image-keyboard-response,15,112484,0.0-3.12-0.12,ifgq393xvo,2022-09-19 17:10:24.553,605f64ae5862018ec5eb9370,3,38,63,61,28,23,male,9511.400000006,,static/images/instructions_CB_3/Slide13.png,39.0,,,,,,,,,,,,,,,,,,,,,,,,,,,
16,0,,image-keyboard-response,16,116907,0.0-3.13-0.13,ifgq393xvo,2022-09-19 17:10:24.553,605f64ae5862018ec5eb9370,3,38,63,61,28,23,male,4421.5,,static/images/instructions_CB_3/Slide14.png,39.0,,,,,,,,,,,,,,,,,,,,,,,,,,,
17,0,,image-keyboard-response,17,124550,0.0-3.14-0.14,ifgq393xvo,2022-09-19 17:10:24.553,605f64ae5862018ec5eb9370,3,38,63,61,28,23,male,7641.6000000089,,static/images/instructions_CB_3/Slide15.png,39.0,,,,,,,,,,,,,,,,,,,,,,,,,,,
18,0,,image-keyboard-response,18,132949,0.0-3.15-0.15,ifgq393xvo,2022-09-19 17:10:24.553,605f64ae5862018ec5eb9370,3,38,63,61,28,23,male,8397.6000000089,,static/images/instructions_CB_3/Slide16.png,39.0,,,,,,,,,,,,,,,,,,,,,,,,,,,
19,0,,image-keyboard-response,19,144469,0.0-3.16-0.16,ifgq393xvo,2022-09-19 17:10:24.553,605f64ae5862018ec5eb9370,3,38,63,61,28,23,male,11519.5,,static/images/instructions_CB_3/Slide17.png,39.0,,,,,,,,,,,,,,,,,,,,,,,,,,,
20,0,,image-keyboard-response,20,171866,0.0-3.17-0.17,ifgq393xvo,2022-09-19 17:10:24.553,605f64ae5862018ec5eb9370,3,38,63,61,28,23,male,27395.700000003,,static/images/instructions_CB_3/Slide18.png,39.0,,,,,,,,,,,,,,,,,,,,,,,,,,,
21,0,,image-keyboard-response,21,175531,0.0-3.18-0.18,ifgq393xvo,2022-09-19 17:10:24.553,605f64ae5862018ec5eb9370,3,38,63,61,28,23,male,3654.299999997,,static/images/instructions_CB_3/Slide19.png,39.0,,,,,,,,,,,,,,,,,,,,,,,,,,,
22,0,,html-keyboard-response,22,177044,0.0-4.0-0.0,ifgq393xvo,2022-09-19 17:10:24.553,605f64ae5862018ec5eb9370,3,38,63,61,28,23,male,,,"<img src=""static/images/cards/stack_of_black_moons.svg"" width=""175px"" height=""250px""></img>",,,,,,,,,,,,,,,,,,,,,,,,,,,,
23,0,,html-keyboard-response,23,180554,0.0-4.0-1.0,ifgq393xvo,2022-09-19 17:10:24.553,605f64ae5862018ec5eb9370,3,38,63,61,28,23,male,,,"
  <table>
  <tr height=300>
    <td width=300 height=300><img src=""static/images/cards/back_of_black_moons.svg"" width=""175px"" height=""250px""></img></td>
    <td width=300 height=300><img src=""static/images/cards/back_of_black_moons.svg"" width=""175px"" height=""250px""></img></td>
  </tr>
  <tr height=200>
    <td width=300><img src=""static/images/keys/z.svg"" width=""35%"" height=""75%""></img></td>
    <td width=300><img src=""static/images/keys/m.svg"" width=""35%"" height=""75%""></img></td>
  </tr>
</table>
  ",,,,,,,,,,,,,,,,,,,,,,,,,,,,
24,0,,html-keyboard-response,24,180556,0.0-4.0-2.0,ifgq393xvo,2022-09-19 17:10:24.553,605f64ae5862018ec5eb9370,3,38,63,61,28,23,male,,,,,,,,,,,,,,,,,,,,,,,,,,,,,,,
25,0,,html-keyboard-response,25,182087,0.0-4.0-3.0,ifgq393xvo,2022-09-19 17:10:24.553,605f64ae5862018ec5eb9370,3,38,63,61,28,23,male,,,"<p style=""font-size:50px"">Too slow!</p>",,,,,,,,,,,,,,,,,,,,,,,,,,,,
26,0,,html-keyboard-response,26,182611,0.0-4.0-4.0,ifgq393xvo,2022-09-19 17:10:24.553,605f64ae5862018ec5eb9370,3,38,63,61,28,23,male,,,,,1.0,learning,0.0,A,,black,,moons,,,,A,black,moons,,1.0,1.0,NA,,,,,,,,,
27,0,,html-keyboard-response,27,184122,0.0-4.1-0.1,ifgq393xvo,2022-09-19 17:10:24.553,605f64ae5862018ec5eb9370,3,38,63,61,28,23,male,,,"<img src=""static/images/cards/stack_of_red_moons.svg"" width=""175px"" height=""250px""></img>",,,,,,,,,,,,,,,,,,,,,,,,,,,,
28,0,,html-keyboard-response,28,185636,0.0-4.1-1.1,ifgq393xvo,2022-09-19 17:10:24.553,605f64ae5862018ec5eb9370,3,38,63,61,28,23,male,997.599999994,,"
  <table>
  <tr height=300>
    <td width=300 height=300><img src=""static/images/cards/back_of_red_moons.svg"" width=""175px"" height=""250px""></img></td>
    <td width=300 height=300><img src=""static/images/cards/back_of_red_moons.svg"" width=""175px"" height=""250px""></img></td>
  </tr>
  <tr height=200>
    <td width=300></td>
    <td width=300><img src=""static/images/keys/m.svg"" width=""35%"" height=""75%""></img></td>
  </tr>
</table>
  ",77.0,,,,,,,,,,,,,,,,,,,,,,,,,1.0,,
29,0,,html-keyboard-response,29,187152,0.0-4.1-2.1,ifgq393xvo,2022-09-19 17:10:24.553,605f64ae5862018ec5eb9370,3,38,63,61,28,23,male,,,"
  <table>
  <tr height=300>
    <td width=300 height=300><img src=""static/images/cards/back_of_red_moons.svg"" width=""175px"" height=""250px""></img></td>
    <td width=300 height=300><img src=""static/images/cards/1_of_red_moons.svg"" width=""175px"" height=""250px""></img></td>
  </tr>
  <tr height=200>
    <td width=300></td>
    <td width=300><img src=""static/images/keys/m.svg"" width=""35%"" height=""75%""></img></td>
  </tr>
</table>
  ",,,,,,,,,,,,,,,,,,,,,,,,,,,,
30,0,,html-keyboard-response,30,188677,0.0-4.1-3.1,ifgq393xvo,2022-09-19 17:10:24.553,605f64ae5862018ec5eb9370,3,38,63,61,28,23,male,,,"<p style=""font-size:50px"">You Lose!
No points this round.</p>",,,,,,,,,,,,,,,,,,,,,,,,,,,,
31,0,,html-keyboard-response,31,189189,0.0-4.1-4.1,ifgq393xvo,2022-09-19 17:10:24.553,605f64ae5862018ec5eb9370,3,38,63,61,28,23,male,,,,,1.0,learning,1.0,B,,red,,moons,,,,B,red,moons,,0.0,1.0,0,right,997.599999994,1.0,0.0,0.0,,,,
32,0,,html-keyboard-response,32,190697,0.0-4.2-0.2,ifgq393xvo,2022-09-19 17:10:24.553,605f64ae5862018ec5eb9370,3,38,63,61,28,23,male,,,"<img src=""static/images/cards/stack_of_black_stars.svg"" width=""175px"" height=""250px""></img>",,,,,,,,,,,,,,,,,,,,,,,,,,,,
33,0,,html-keyboard-response,33,192309,0.0-4.2-1.2,ifgq393xvo,2022-09-19 17:10:24.553,605f64ae5862018ec5eb9370,3,38,63,61,28,23,male,1107.799999997,,"
  <table>
  <tr height=300>
    <td width=300 height=300><img src=""static/images/cards/back_of_black_stars.svg"" width=""175px"" height=""250px""></img></td>
    <td width=300 height=300><img src=""static/images/cards/back_of_black_stars.svg"" width=""175px"" height=""250px""></img></td>
  </tr>
  <tr height=200>
    <td width=300><img src=""static/images/keys/z.svg"" width=""35%"" height=""75%""></img></td>
    <td width=300><img src=""static/images/keys/m.svg"" width=""35%"" height=""75%""></img></td>
  </tr>
</table>
  ",90.0,,,,,,,,,,,,,,,,,,,,,,,,,1.0,,
34,0,,html-keyboard-response,34,193821,0.0-4.2-2.2,ifgq393xvo,2022-09-19 17:10:24.553,605f64ae5862018ec5eb9370,3,38,63,61,28,23,male,,,"
  <table>
  <tr height=300>
    <td width=300 height=300><img src=""static/images/cards/1_of_black_stars.svg"" width=""175px"" height=""250px""></img></td>
    <td width=300 height=300><img src=""static/images/cards/back_of_black_stars.svg"" width=""175px"" height=""250px""></img></td>
  </tr>
  <tr height=200>
    <td width=300><img src=""static/images/keys/z.svg"" width=""35%"" height=""75%""></img></td>
    <td width=300><img src=""static/images/keys/m.svg"" width=""35%"" height=""75%""></img></td>
  </tr>
</table>
  ",,,,,,,,,,,,,,,,,,,,,,,,,,,,
35,0,,html-keyboard-response,35,195350,0.0-4.2-3.2,ifgq393xvo,2022-09-19 17:10:24.553,605f64ae5862018ec5eb9370,3,38,63,61,28,23,male,,,"<p style=""font-size:50px"">You win!
+10 points this round!</p>",,,,,,,,,,,,,,,,,,,,,,,,,,,,
36,0,,html-keyboard-response,36,195866,0.0-4.2-4.2,ifgq393xvo,2022-09-19 17:10:24.553,605f64ae5862018ec5eb9370,3,38,63,61,28,23,male,,,,,1.0,learning,2.0,C,,black,,stars,,,,C,black,stars,,1.0,0.0,NA,left,1107.799999997,1.0,0.0,1.0,,,,
37,0,,html-keyboard-response,37,197376,0.0-4.3-0.3,ifgq393xvo,2022-09-19 17:10:24.553,605f64ae5862018ec5eb9370,3,38,63,61,28,23,male,,,"<img src=""static/images/cards/stack_of_red_stars.svg"" width=""175px"" height=""250px""></img>",,,,,,,,,,,,,,,,,,,,,,,,,,,,
38,0,,html-keyboard-response,38,198732,0.0-4.3-1.3,ifgq393xvo,2022-09-19 17:10:24.553,605f64ae5862018ec5eb9370,3,38,63,61,28,23,male,852.6999999881,,"
  <table>
  <tr height=300>
    <td width=300 height=300><img src=""static/images/cards/back_of_red_stars.svg"" width=""175px"" height=""250px""></img></td>
    <td width=300 height=300><img src=""static/images/cards/back_of_red_stars.svg"" width=""175px"" height=""250px""></img></td>
  </tr>
  <tr height=200>
    <td width=300><img src=""static/images/keys/z.svg"" width=""35%"" height=""75%""></img></td>
    <td width=300></td>
  </tr>
</table>
  ",90.0,,,,,,,,,,,,,,,,,,,,,,,,,1.0,,
39,0,,html-keyboard-response,39,200234,0.0-4.3-2.3,ifgq393xvo,2022-09-19 17:10:24.553,605f64ae5862018ec5eb9370,3,38,63,61,28,23,male,,,"
  <table>
  <tr height=300>
    <td width=300 height=300><img src=""static/images/cards/8_of_red_stars.svg"" width=""175px"" height=""250px""></img></td>
    <td width=300 height=300><img src=""static/images/cards/back_of_red_stars.svg"" width=""175px"" height=""250px""></img></td>
  </tr>
  <tr height=200>
    <td width=300><img src=""static/images/keys/z.svg"" width=""35%"" height=""75%""></img></td>
    <td width=300></td>
  </tr>
</table>
  ",,,,,,,,,,,,,,,,,,,,,,,,,,,,
40,0,,html-keyboard-response,40,201752,0.0-4.3-3.3,ifgq393xvo,2022-09-19 17:10:24.553,605f64ae5862018ec5eb9370,3,38,63,61,28,23,male,,,"<p style=""font-size:50px"">You Lose!
No points this round.</p>",,,,,,,,,,,,,,,,,,,,,,,,,,,,
41,0,,html-keyboard-response,41,202272,0.0-4.3-4.3,ifgq393xvo,2022-09-19 17:10:24.553,605f64ae5862018ec5eb9370,3,38,63,61,28,23,male,,,,,1.0,learning,3.0,D,,red,,stars,,,,D,red,stars,,0.0,0.0,1,left,852.6999999881,8.0,1.0,0.0,,,,
42,0,,html-keyboard-response,42,203779,0.0-4.4-0.4,ifgq393xvo,2022-09-19 17:10:24.553,605f64ae5862018ec5eb9370,3,38,63,61,28,23,male,,,"<img src=""static/images/cards/stack_of_red_bolts.svg"" width=""175px"" height=""250px""></img>",,,,,,,,,,,,,,,,,,,,,,,,,,,,
43,0,,html-keyboard-response,43,204793,0.0-4.4-1.4,ifgq393xvo,2022-09-19 17:10:24.553,605f64ae5862018ec5eb9370,3,38,63,61,28,23,male,502.099999994,,"
  <table>
  <tr height=300>
    <td width=300 height=300><img src=""static/images/cards/back_of_red_bolts.svg"" width=""175px"" height=""250px""></img></td>
    <td width=300 height=300><img src=""static/images/cards/back_of_red_bolts.svg"" width=""175px"" height=""250px""></img></td>
  </tr>
  <tr height=200>
    <td width=300><img src=""static/images/keys/z.svg"" width=""35%"" height=""75%""></img></td>
    <td width=300><img src=""static/images/keys/m.svg"" width=""35%"" height=""75%""></img></td>
  </tr>
</table>
  ",77.0,,,,,,,,,,,,,,,,,,,,,,,,,1.0,,
44,0,,html-keyboard-response,44,206304,0.0-4.4-2.4,ifgq393xvo,2022-09-19 17:10:24.553,605f64ae5862018ec5eb9370,3,38,63,61,28,23,male,,,"
  <table>
  <tr height=300>
    <td width=300 height=300><img src=""static/images/cards/back_of_red_bolts.svg"" width=""175px"" height=""250px""></img></td>
    <td width=300 height=300><img src=""static/images/cards/2_of_red_bolts.svg"" width=""175px"" height=""250px""></img></td>
  </tr>
  <tr height=200>
    <td width=300><img src=""static/images/keys/z.svg"" width=""35%"" height=""75%""></img></td>
    <td width=300><img src=""static/images/keys/m.svg"" width=""35%"" height=""75%""></img></td>
  </tr>
</table>
  ",,,,,,,,,,,,,,,,,,,,,,,,,,,,
45,0,,html-keyboard-response,45,207818,0.0-4.4-3.4,ifgq393xvo,2022-09-19 17:10:24.553,605f64ae5862018ec5eb9370,3,38,63,61,28,23,male,,,"<p style=""font-size:50px"">You win!
+10 points this round!</p>",,,,,,,,,,,,,,,,,,,,,,,,,,,,
46,0,,html-keyboard-response,46,208336,0.0-4.4-4.4,ifgq393xvo,2022-09-19 17:10:24.553,605f64ae5862018ec5eb9370,3,38,63,61,28,23,male,,,,,1.0,learning,4.0,Xc,,red,,bolts,,,,Xc,red,bolts,,1.0,0.0,NA,right,502.099999994,2.0,0.0,1.0,,,,
47,0,,html-keyboard-response,47,209845,0.0-4.5-0.5,ifgq393xvo,2022-09-19 17:10:24.553,605f64ae5862018ec5eb9370,3,38,63,61,28,23,male,,,"<img src=""static/images/cards/stack_of_black_bolts.svg"" width=""175px"" height=""250px""></img>",,,,,,,,,,,,,,,,,,,,,,,,,,,,
48,0,,html-keyboard-response,48,211566,0.0-4.5-1.5,ifgq393xvo,2022-09-19 17:10:24.553,605f64ae5862018ec5eb9370,3,38,63,61,28,23,male,1218.5,,"
  <table>
  <tr height=300>
    <td width=300 height=300><img src=""static/images/cards/back_of_black_bolts.svg"" width=""175px"" height=""250px""></img></td>
    <td width=300 height=300><img src=""static/images/cards/back_of_black_bolts.svg"" width=""175px"" height=""250px""></img></td>
  </tr>
  <tr height=200>
    <td width=300><img src=""static/images/keys/z.svg"" width=""35%"" height=""75%""></img></td>
    <td width=300></td>
  </tr>
</table>
  ",90.0,,,,,,,,,,,,,,,,,,,,,,,,,1.0,,
49,0,,html-keyboard-response,49,213080,0.0-4.5-2.5,ifgq393xvo,2022-09-19 17:10:24.553,605f64ae5862018ec5eb9370,3,38,63,61,28,23,male,,,"
  <table>
  <tr height=300>
    <td width=300 height=300><img src=""static/images/cards/4_of_black_bolts.svg"" width=""175px"" height=""250px""></img></td>
    <td width=300 height=300><img src=""static/images/cards/back_of_black_bolts.svg"" width=""175px"" height=""250px""></img></td>
  </tr>
  <tr height=200>
    <td width=300><img src=""static/images/keys/z.svg"" width=""35%"" height=""75%""></img></td>
    <td width=300></td>
  </tr>
</table>
  ",,,,,,,,,,,,,,,,,,,,,,,,,,,,
50,0,,html-keyboard-response,50,214608,0.0-4.5-3.5,ifgq393xvo,2022-09-19 17:10:24.553,605f64ae5862018ec5eb9370,3,38,63,61,28,23,male,,,"<p style=""font-size:50px"">You win!
+10 points this round!</p>",,,,,,,,,,,,,,,,,,,,,,,,,,,,
51,0,,html-keyboard-response,51,215119,0.0-4.5-4.5,ifgq393xvo,2022-09-19 17:10:24.553,605f64ae5862018ec5eb9370,3,38,63,61,28,23,male,,,,,1.0,learning,5.0,Xnc,,black,,bolts,,,,Xnc,black,bolts,,0.0,0.0,1,left,1218.5,4.0,0.0,1.0,,,,
52,0,,html-keyboard-response,52,216631,0.0-4.6-0.6,ifgq393xvo,2022-09-19 17:10:24.553,605f64ae5862018ec5eb9370,3,38,63,61,28,23,male,,,"<img src=""static/images/cards/stack_of_black_moons.svg"" width=""175px"" height=""250px""></img>",,,,,,,,,,,,,,,,,,,,,,,,,,,,
53,0,,html-keyboard-response,53,218188,0.0-4.6-1.6,ifgq393xvo,2022-09-19 17:10:24.553,605f64ae5862018ec5eb9370,3,38,63,61,28,23,male,1050.0,,"
  <table>
  <tr height=300>
    <td width=300 height=300><img src=""static/images/cards/back_of_black_moons.svg"" width=""175px"" height=""250px""></img></td>
    <td width=300 height=300><img src=""static/images/cards/back_of_black_moons.svg"" width=""175px"" height=""250px""></img></td>
  </tr>
  <tr height=200>
    <td width=300><img src=""static/images/keys/z.svg"" width=""35%"" height=""75%""></img></td>
    <td width=300><img src=""static/images/keys/m.svg"" width=""35%"" height=""75%""></img></td>
  </tr>
</table>
  ",77.0,,,,,,,,,,,,,,,,,,,,,,,,,1.0,,
54,0,,html-keyboard-response,54,219703,0.0-4.6-2.6,ifgq393xvo,2022-09-19 17:10:24.553,605f64ae5862018ec5eb9370,3,38,63,61,28,23,male,,,"
  <table>
  <tr height=300>
    <td width=300 height=300><img src=""static/images/cards/back_of_black_moons.svg"" width=""175px"" height=""250px""></img></td>
    <td width=300 height=300><img src=""static/images/cards/6_of_black_moons.svg"" width=""175px"" height=""250px""></img></td>
  </tr>
  <tr height=200>
    <td width=300><img src=""static/images/keys/z.svg"" width=""35%"" height=""75%""></img></td>
    <td width=300><img src=""static/images/keys/m.svg"" width=""35%"" height=""75%""></img></td>
  </tr>
</table>
  ",,,,,,,,,,,,,,,,,,,,,,,,,,,,
55,0,,html-keyboard-response,55,221209,0.0-4.6-3.6,ifgq393xvo,2022-09-19 17:10:24.553,605f64ae5862018ec5eb9370,3,38,63,61,28,23,male,,,"<p style=""font-size:50px"">You win!
+10 points this round!</p>",,,,,,,,,,,,,,,,,,,,,,,,,,,,
56,0,,html-keyboard-response,56,221728,0.0-4.6-4.6,ifgq393xvo,2022-09-19 17:10:24.553,605f64ae5862018ec5eb9370,3,38,63,61,28,23,male,,,,,1.0,learning,6.0,A,,black,,moons,,,,A,black,moons,,1.0,1.0,NA,right,1050.0,6.0,1.0,1.0,,,,
57,0,,html-keyboard-response,57,223238,0.0-4.7-0.7,ifgq393xvo,2022-09-19 17:10:24.553,605f64ae5862018ec5eb9370,3,38,63,61,28,23,male,,,"<img src=""static/images/cards/stack_of_red_moons.svg"" width=""175px"" height=""250px""></img>",,,,,,,,,,,,,,,,,,,,,,,,,,,,
58,0,,html-keyboard-response,58,224221,0.0-4.7-1.7,ifgq393xvo,2022-09-19 17:10:24.553,605f64ae5862018ec5eb9370,3,38,63,61,28,23,male,475.700000003,,"
  <table>
  <tr height=300>
    <td width=300 height=300><img src=""static/images/cards/back_of_red_moons.svg"" width=""175px"" height=""250px""></img></td>
    <td width=300 height=300><img src=""static/images/cards/back_of_red_moons.svg"" width=""175px"" height=""250px""></img></td>
  </tr>
  <tr height=200>
    <td width=300><img src=""static/images/keys/z.svg"" width=""35%"" height=""75%""></img></td>
    <td width=300></td>
  </tr>
</table>
  ",90.0,,,,,,,,,,,,,,,,,,,,,,,,,1.0,,
59,0,,html-keyboard-response,59,225730,0.0-4.7-2.7,ifgq393xvo,2022-09-19 17:10:24.553,605f64ae5862018ec5eb9370,3,38,63,61,28,23,male,,,"
  <table>
  <tr height=300>
    <td width=300 height=300><img src=""static/images/cards/8_of_red_moons.svg"" width=""175px"" height=""250px""></img></td>
    <td width=300 height=300><img src=""static/images/cards/back_of_red_moons.svg"" width=""175px"" height=""250px""></img></td>
  </tr>
  <tr height=200>
    <td width=300><img src=""static/images/keys/z.svg"" width=""35%"" height=""75%""></img></td>
    <td width=300></td>
  </tr>
</table>
  ",,,,,,,,,,,,,,,,,,,,,,,,,,,,
60,0,,html-keyboard-response,60,227237,0.0-4.7-3.7,ifgq393xvo,2022-09-19 17:10:24.553,605f64ae5862018ec5eb9370,3,38,63,61,28,23,male,,,"<p style=""font-size:50px"">You win!
+10 points this round!</p>",,,,,,,,,,,,,,,,,,,,,,,,,,,,
61,0,,html-keyboard-response,61,227755,0.0-4.7-4.7,ifgq393xvo,2022-09-19 17:10:24.553,605f64ae5862018ec5eb9370,3,38,63,61,28,23,male,,,,,1.0,learning,7.0,B,,red,,moons,,,,B,red,moons,,0.0,1.0,1,left,475.700000003,8.0,1.0,1.0,,,,
62,0,,html-keyboard-response,62,229259,0.0-4.8-0.8,ifgq393xvo,2022-09-19 17:10:24.553,605f64ae5862018ec5eb9370,3,38,63,61,28,23,male,,,"<img src=""static/images/cards/stack_of_black_stars.svg"" width=""175px"" height=""250px""></img>",,,,,,,,,,,,,,,,,,,,,,,,,,,,
63,0,,html-keyboard-response,63,230633,0.0-4.8-1.8,ifgq393xvo,2022-09-19 17:10:24.553,605f64ae5862018ec5eb9370,3,38,63,61,28,23,male,867.0,,"
  <table>
  <tr height=300>
    <td width=300 height=300><img src=""static/images/cards/back_of_black_stars.svg"" width=""175px"" height=""250px""></img></td>
    <td width=300 height=300><img src=""static/images/cards/back_of_black_stars.svg"" width=""175px"" height=""250px""></img></td>
  </tr>
  <tr height=200>
    <td width=300><img src=""static/images/keys/z.svg"" width=""35%"" height=""75%""></img></td>
    <td width=300><img src=""static/images/keys/m.svg"" width=""35%"" height=""75%""></img></td>
  </tr>
</table>
  ",90.0,,,,,,,,,,,,,,,,,,,,,,,,,1.0,,
64,0,,html-keyboard-response,64,232138,0.0-4.8-2.8,ifgq393xvo,2022-09-19 17:10:24.553,605f64ae5862018ec5eb9370,3,38,63,61,28,23,male,,,"
  <table>
  <tr height=300>
    <td width=300 height=300><img src=""static/images/cards/8_of_black_stars.svg"" width=""175px"" height=""250px""></img></td>
    <td width=300 height=300><img src=""static/images/cards/back_of_black_stars.svg"" width=""175px"" height=""250px""></img></td>
  </tr>
  <tr height=200>
    <td width=300><img src=""static/images/keys/z.svg"" width=""35%"" height=""75%""></img></td>
    <td width=300><img src=""static/images/keys/m.svg"" width=""35%"" height=""75%""></img></td>
  </tr>
</table>
  ",,,,,,,,,,,,,,,,,,,,,,,,,,,,
65,0,,html-keyboard-response,65,233656,0.0-4.8-3.8,ifgq393xvo,2022-09-19 17:10:24.553,605f64ae5862018ec5eb9370,3,38,63,61,28,23,male,,,"<p style=""font-size:50px"">You win!
+10 points this round!</p>",,,,,,,,,,,,,,,,,,,,,,,,,,,,
66,0,,html-keyboard-response,66,234168,0.0-4.8-4.8,ifgq393xvo,2022-09-19 17:10:24.553,605f64ae5862018ec5eb9370,3,38,63,61,28,23,male,,,,,1.0,learning,8.0,C,,black,,stars,,,,C,black,stars,,1.0,0.0,NA,left,867.0,8.0,1.0,1.0,,,,
67,0,,html-keyboard-response,67,235673,0.0-4.9-0.9,ifgq393xvo,2022-09-19 17:10:24.553,605f64ae5862018ec5eb9370,3,38,63,61,28,23,male,,,"<img src=""static/images/cards/stack_of_red_stars.svg"" width=""175px"" height=""250px""></img>",,,,,,,,,,,,,,,,,,,,,,,,,,,,
68,0,,html-keyboard-response,68,236975,0.0-4.9-1.9,ifgq393xvo,2022-09-19 17:10:24.553,605f64ae5862018ec5eb9370,3,38,63,61,28,23,male,778.200000003,,"
  <table>
  <tr height=300>
    <td width=300 height=300><img src=""static/images/cards/back_of_red_stars.svg"" width=""175px"" height=""250px""></img></td>
    <td width=300 height=300><img src=""static/images/cards/back_of_red_stars.svg"" width=""175px"" height=""250px""></img></td>
  </tr>
  <tr height=200>
    <td width=300></td>
    <td width=300><img src=""static/images/keys/m.svg"" width=""35%"" height=""75%""></img></td>
  </tr>
</table>
  ",77.0,,,,,,,,,,,,,,,,,,,,,,,,,1.0,,
69,0,,html-keyboard-response,69,238482,0.0-4.9-2.9,ifgq393xvo,2022-09-19 17:10:24.553,605f64ae5862018ec5eb9370,3,38,63,61,28,23,male,,,"
  <table>
  <tr height=300>
    <td width=300 height=300><img src=""static/images/cards/back_of_red_stars.svg"" width=""175px"" height=""250px""></img></td>
    <td width=300 height=300><img src=""static/images/cards/4_of_red_stars.svg"" width=""175px"" height=""250px""></img></td>
  </tr>
  <tr height=200>
    <td width=300></td>
    <td width=300><img src=""static/images/keys/m.svg"" width=""35%"" height=""75%""></img></td>
  </tr>
</table>
  ",,,,,,,,,,,,,,,,,,,,,,,,,,,,
70,0,,html-keyboard-response,70,239994,0.0-4.9-3.9,ifgq393xvo,2022-09-19 17:10:24.553,605f64ae5862018ec5eb9370,3,38,63,61,28,23,male,,,"<p style=""font-size:50px"">You Lose!
No points this round.</p>",,,,,,,,,,,,,,,,,,,,,,,,,,,,
71,0,,html-keyboard-response,71,240510,0.0-4.9-4.9,ifgq393xvo,2022-09-19 17:10:24.553,605f64ae5862018ec5eb9370,3,38,63,61,28,23,male,,,,,1.0,learning,9.0,D,,red,,stars,,,,D,red,stars,,0.0,0.0,0,right,778.200000003,4.0,0.0,0.0,,,,
72,0,,html-keyboard-response,72,242014,0.0-4.10-0.10,ifgq393xvo,2022-09-19 17:10:24.553,605f64ae5862018ec5eb9370,3,38,63,61,28,23,male,,,"<img src=""static/images/cards/stack_of_red_bolts.svg"" width=""175px"" height=""250px""></img>",,,,,,,,,,,,,,,,,,,,,,,,,,,,
73,0,,html-keyboard-response,73,243770,0.0-4.10-1.10,ifgq393xvo,2022-09-19 17:10:24.553,605f64ae5862018ec5eb9370,3,38,63,61,28,23,male,1238.6000000089,,"
  <table>
  <tr height=300>
    <td width=300 height=300><img src=""static/images/cards/back_of_red_bolts.svg"" width=""175px"" height=""250px""></img></td>
    <td width=300 height=300><img src=""static/images/cards/back_of_red_bolts.svg"" width=""175px"" height=""250px""></img></td>
  </tr>
  <tr height=200>
    <td width=300><img src=""static/images/keys/z.svg"" width=""35%"" height=""75%""></img></td>
    <td width=300><img src=""static/images/keys/m.svg"" width=""35%"" height=""75%""></img></td>
  </tr>
</table>
  ",77.0,,,,,,,,,,,,,,,,,,,,,,,,,1.0,,
74,0,,html-keyboard-response,74,245281,0.0-4.10-2.10,ifgq393xvo,2022-09-19 17:10:24.553,605f64ae5862018ec5eb9370,3,38,63,61,28,23,male,,,"
  <table>
  <tr height=300>
    <td width=300 height=300><img src=""static/images/cards/back_of_red_bolts.svg"" width=""175px"" height=""250px""></img></td>
    <td width=300 height=300><img src=""static/images/cards/1_of_red_bolts.svg"" width=""175px"" height=""250px""></img></td>
  </tr>
  <tr height=200>
    <td width=300><img src=""static/images/keys/z.svg"" width=""35%"" height=""75%""></img></td>
    <td width=300><img src=""static/images/keys/m.svg"" width=""35%"" height=""75%""></img></td>
  </tr>
</table>
  ",,,,,,,,,,,,,,,,,,,,,,,,,,,,
75,0,,html-keyboard-response,75,246794,0.0-4.10-3.10,ifgq393xvo,2022-09-19 17:10:24.553,605f64ae5862018ec5eb9370,3,38,63,61,28,23,male,,,"<p style=""font-size:50px"">You win!
+10 points this round!</p>",,,,,,,,,,,,,,,,,,,,,,,,,,,,
76,0,,html-keyboard-response,76,247305,0.0-4.10-4.10,ifgq393xvo,2022-09-19 17:10:24.553,605f64ae5862018ec5eb9370,3,38,63,61,28,23,male,,,,,1.0,learning,10.0,Xc,,red,,bolts,,,,Xc,red,bolts,,1.0,0.0,NA,right,1238.6000000089,1.0,0.0,1.0,,,,
77,0,,html-keyboard-response,77,248812,0.0-4.11-0.11,ifgq393xvo,2022-09-19 17:10:24.553,605f64ae5862018ec5eb9370,3,38,63,61,28,23,male,,,"<img src=""static/images/cards/stack_of_black_bolts.svg"" width=""175px"" height=""250px""></img>",,,,,,,,,,,,,,,,,,,,,,,,,,,,
78,0,,html-keyboard-response,78,249975,0.0-4.11-1.11,ifgq393xvo,2022-09-19 17:10:24.553,605f64ae5862018ec5eb9370,3,38,63,61,28,23,male,649.1000000089,,"
  <table>
  <tr height=300>
    <td width=300 height=300><img src=""static/images/cards/back_of_black_bolts.svg"" width=""175px"" height=""250px""></img></td>
    <td width=300 height=300><img src=""static/images/cards/back_of_black_bolts.svg"" width=""175px"" height=""250px""></img></td>
  </tr>
  <tr height=200>
    <td width=300><img src=""static/images/keys/z.svg"" width=""35%"" height=""75%""></img></td>
    <td width=300></td>
  </tr>
</table>
  ",90.0,,,,,,,,,,,,,,,,,,,,,,,,,1.0,,
79,0,,html-keyboard-response,79,251488,0.0-4.11-2.11,ifgq393xvo,2022-09-19 17:10:24.553,605f64ae5862018ec5eb9370,3,38,63,61,28,23,male,,,"
  <table>
  <tr height=300>
    <td width=300 height=300><img src=""static/images/cards/6_of_black_bolts.svg"" width=""175px"" height=""250px""></img></td>
    <td width=300 height=300><img src=""static/images/cards/back_of_black_bolts.svg"" width=""175px"" height=""250px""></img></td>
  </tr>
  <tr height=200>
    <td width=300><img src=""static/images/keys/z.svg"" width=""35%"" height=""75%""></img></td>
    <td width=300></td>
  </tr>
</table>
  ",,,,,,,,,,,,,,,,,,,,,,,,,,,,
80,0,,html-keyboard-response,80,253008,0.0-4.11-3.11,ifgq393xvo,2022-09-19 17:10:24.553,605f64ae5862018ec5eb9370,3,38,63,61,28,23,male,,,"<p style=""font-size:50px"">You win!
+10 points this round!</p>",,,,,,,,,,,,,,,,,,,,,,,,,,,,
81,0,,html-keyboard-response,81,253522,0.0-4.11-4.11,ifgq393xvo,2022-09-19 17:10:24.553,605f64ae5862018ec5eb9370,3,38,63,61,28,23,male,,,,,1.0,learning,11.0,Xnc,,black,,bolts,,,,Xnc,black,bolts,,0.0,0.0,1,left,649.1000000089,6.0,1.0,1.0,,,,
82,0,,html-keyboard-response,82,255026,0.0-4.12-0.12,ifgq393xvo,2022-09-19 17:10:24.553,605f64ae5862018ec5eb9370,3,38,63,61,28,23,male,,,"<img src=""static/images/cards/stack_of_black_moons.svg"" width=""175px"" height=""250px""></img>",,,,,,,,,,,,,,,,,,,,,,,,,,,,
83,0,,html-keyboard-response,83,257206,0.0-4.12-1.12,ifgq393xvo,2022-09-19 17:10:24.553,605f64ae5862018ec5eb9370,3,38,63,61,28,23,male,1673.0,,"
  <table>
  <tr height=300>
    <td width=300 height=300><img src=""static/images/cards/back_of_black_moons.svg"" width=""175px"" height=""250px""></img></td>
    <td width=300 height=300><img src=""static/images/cards/back_of_black_moons.svg"" width=""175px"" height=""250px""></img></td>
  </tr>
  <tr height=200>
    <td width=300><img src=""static/images/keys/z.svg"" width=""35%"" height=""75%""></img></td>
    <td width=300><img src=""static/images/keys/m.svg"" width=""35%"" height=""75%""></img></td>
  </tr>
</table>
  ",77.0,,,,,,,,,,,,,,,,,,,,,,,,,1.0,,
84,0,,html-keyboard-response,84,258718,0.0-4.12-2.12,ifgq393xvo,2022-09-19 17:10:24.553,605f64ae5862018ec5eb9370,3,38,63,61,28,23,male,,,"
  <table>
  <tr height=300>
    <td width=300 height=300><img src=""static/images/cards/back_of_black_moons.svg"" width=""175px"" height=""250px""></img></td>
    <td width=300 height=300><img src=""static/images/cards/6_of_black_moons.svg"" width=""175px"" height=""250px""></img></td>
  </tr>
  <tr height=200>
    <td width=300><img src=""static/images/keys/z.svg"" width=""35%"" height=""75%""></img></td>
    <td width=300><img src=""static/images/keys/m.svg"" width=""35%"" height=""75%""></img></td>
  </tr>
</table>
  ",,,,,,,,,,,,,,,,,,,,,,,,,,,,
85,0,,html-keyboard-response,85,260245,0.0-4.12-3.12,ifgq393xvo,2022-09-19 17:10:24.553,605f64ae5862018ec5eb9370,3,38,63,61,28,23,male,,,"<p style=""font-size:50px"">You win!
+10 points this round!</p>",,,,,,,,,,,,,,,,,,,,,,,,,,,,
86,0,,html-keyboard-response,86,260762,0.0-4.12-4.12,ifgq393xvo,2022-09-19 17:10:24.553,605f64ae5862018ec5eb9370,3,38,63,61,28,23,male,,,,,1.0,learning,12.0,A,,black,,moons,,,,A,black,moons,,1.0,1.0,NA,right,1673.0,6.0,1.0,1.0,,,,
87,0,,html-keyboard-response,87,262273,0.0-4.13-0.13,ifgq393xvo,2022-09-19 17:10:24.553,605f64ae5862018ec5eb9370,3,38,63,61,28,23,male,,,"<img src=""static/images/cards/stack_of_red_moons.svg"" width=""175px"" height=""250px""></img>",,,,,,,,,,,,,,,,,,,,,,,,,,,,
88,0,,html-keyboard-response,88,263310,0.0-4.13-1.13,ifgq393xvo,2022-09-19 17:10:24.553,605f64ae5862018ec5eb9370,3,38,63,61,28,23,male,525.6999999881,,"
  <table>
  <tr height=300>
    <td width=300 height=300><img src=""static/images/cards/back_of_red_moons.svg"" width=""175px"" height=""250px""></img></td>
    <td width=300 height=300><img src=""static/images/cards/back_of_red_moons.svg"" width=""175px"" height=""250px""></img></td>
  </tr>
  <tr height=200>
    <td width=300></td>
    <td width=300><img src=""static/images/keys/m.svg"" width=""35%"" height=""75%""></img></td>
  </tr>
</table>
  ",77.0,,,,,,,,,,,,,,,,,,,,,,,,,1.0,,
89,0,,html-keyboard-response,89,264823,0.0-4.13-2.13,ifgq393xvo,2022-09-19 17:10:24.553,605f64ae5862018ec5eb9370,3,38,63,61,28,23,male,,,"
  <table>
  <tr height=300>
    <td width=300 height=300><img src=""static/images/cards/back_of_red_moons.svg"" width=""175px"" height=""250px""></img></td>
    <td width=300 height=300><img src=""static/images/cards/4_of_red_moons.svg"" width=""175px"" height=""250px""></img></td>
  </tr>
  <tr height=200>
    <td width=300></td>
    <td width=300><img src=""static/images/keys/m.svg"" width=""35%"" height=""75%""></img></td>
  </tr>
</table>
  ",,,,,,,,,,,,,,,,,,,,,,,,,,,,
90,0,,html-keyboard-response,90,266345,0.0-4.13-3.13,ifgq393xvo,2022-09-19 17:10:24.553,605f64ae5862018ec5eb9370,3,38,63,61,28,23,male,,,"<p style=""font-size:50px"">You Lose!
No points this round.</p>",,,,,,,,,,,,,,,,,,,,,,,,,,,,
91,0,,html-keyboard-response,91,266857,0.0-4.13-4.13,ifgq393xvo,2022-09-19 17:10:24.553,605f64ae5862018ec5eb9370,3,38,63,61,28,23,male,,,,,1.0,learning,13.0,B,,red,,moons,,,,B,red,moons,,0.0,1.0,0,right,525.6999999881,4.0,0.0,0.0,,,,
92,0,,html-keyboard-response,92,268365,0.0-4.14-0.14,ifgq393xvo,2022-09-19 17:10:24.553,605f64ae5862018ec5eb9370,3,38,63,61,28,23,male,,,"<img src=""static/images/cards/stack_of_black_stars.svg"" width=""175px"" height=""250px""></img>",,,,,,,,,,,,,,,,,,,,,,,,,,,,
93,0,,html-keyboard-response,93,270410,0.0-4.14-1.14,ifgq393xvo,2022-09-19 17:10:24.553,605f64ae5862018ec5eb9370,3,38,63,61,28,23,male,1534.299999997,,"
  <table>
  <tr height=300>
    <td width=300 height=300><img src=""static/images/cards/back_of_black_stars.svg"" width=""175px"" height=""250px""></img></td>
    <td width=300 height=300><img src=""static/images/cards/back_of_black_stars.svg"" width=""175px"" height=""250px""></img></td>
  </tr>
  <tr height=200>
    <td width=300><img src=""static/images/keys/z.svg"" width=""35%"" height=""75%""></img></td>
    <td width=300><img src=""static/images/keys/m.svg"" width=""35%"" height=""75%""></img></td>
  </tr>
</table>
  ",90.0,,,,,,,,,,,,,,,,,,,,,,,,,1.0,,
94,0,,html-keyboard-response,94,271912,0.0-4.14-2.14,ifgq393xvo,2022-09-19 17:10:24.553,605f64ae5862018ec5eb9370,3,38,63,61,28,23,male,,,"
  <table>
  <tr height=300>
    <td width=300 height=300><img src=""static/images/cards/4_of_black_stars.svg"" width=""175px"" height=""250px""></img></td>
    <td width=300 height=300><img src=""static/images/cards/back_of_black_stars.svg"" width=""175px"" height=""250px""></img></td>
  </tr>
  <tr height=200>
    <td width=300><img src=""static/images/keys/z.svg"" width=""35%"" height=""75%""></img></td>
    <td width=300><img src=""static/images/keys/m.svg"" width=""35%"" height=""75%""></img></td>
  </tr>
</table>
  ",,,,,,,,,,,,,,,,,,,,,,,,,,,,
95,0,,html-keyboard-response,95,273425,0.0-4.14-3.14,ifgq393xvo,2022-09-19 17:10:24.553,605f64ae5862018ec5eb9370,3,38,63,61,28,23,male,,,"<p style=""font-size:50px"">You Lose!
No points this round.</p>",,,,,,,,,,,,,,,,,,,,,,,,,,,,
96,0,,html-keyboard-response,96,273936,0.0-4.14-4.14,ifgq393xvo,2022-09-19 17:10:24.553,605f64ae5862018ec5eb9370,3,38,63,61,28,23,male,,,,,1.0,learning,14.0,C,,black,,stars,,,,C,black,stars,,1.0,0.0,NA,left,1534.299999997,4.0,0.0,0.0,,,,
97,0,,html-keyboard-response,97,275447,0.0-4.15-0.15,ifgq393xvo,2022-09-19 17:10:24.553,605f64ae5862018ec5eb9370,3,38,63,61,28,23,male,,,"<img src=""static/images/cards/stack_of_red_stars.svg"" width=""175px"" height=""250px""></img>",,,,,,,,,,,,,,,,,,,,,,,,,,,,
98,0,,html-keyboard-response,98,276438,0.0-4.15-1.15,ifgq393xvo,2022-09-19 17:10:24.553,605f64ae5862018ec5eb9370,3,38,63,61,28,23,male,486.0,,"
  <table>
  <tr height=300>
    <td width=300 height=300><img src=""static/images/cards/back_of_red_stars.svg"" width=""175px"" height=""250px""></img></td>
    <td width=300 height=300><img src=""static/images/cards/back_of_red_stars.svg"" width=""175px"" height=""250px""></img></td>
  </tr>
  <tr height=200>
    <td width=300></td>
    <td width=300><img src=""static/images/keys/m.svg"" width=""35%"" height=""75%""></img></td>
  </tr>
</table>
  ",77.0,,,,,,,,,,,,,,,,,,,,,,,,,1.0,,
99,0,,html-keyboard-response,99,277949,0.0-4.15-2.15,ifgq393xvo,2022-09-19 17:10:24.553,605f64ae5862018ec5eb9370,3,38,63,61,28,23,male,,,"
  <table>
  <tr height=300>
    <td width=300 height=300><img src=""static/images/cards/back_of_red_stars.svg"" width=""175px"" height=""250px""></img></td>
    <td width=300 height=300><img src=""static/images/cards/1_of_red_stars.svg"" width=""175px"" height=""250px""></img></td>
  </tr>
  <tr height=200>
    <td width=300></td>
    <td width=300><img src=""static/images/keys/m.svg"" width=""35%"" height=""75%""></img></td>
  </tr>
</table>
  ",,,,,,,,,,,,,,,,,,,,,,,,,,,,
100,0,,html-keyboard-response,100,279464,0.0-4.15-3.15,ifgq393xvo,2022-09-19 17:10:24.553,605f64ae5862018ec5eb9370,3,38,63,61,28,23,male,,,"<p style=""font-size:50px"">You win!
+10 points this round!</p>",,,,,,,,,,,,,,,,,,,,,,,,,,,,
101,0,,html-keyboard-response,101,279981,0.0-4.15-4.15,ifgq393xvo,2022-09-19 17:10:24.553,605f64ae5862018ec5eb9370,3,38,63,61,28,23,male,,,,,1.0,learning,15.0,D,,red,,stars,,,,D,red,stars,,0.0,0.0,0,right,486.0,1.0,0.0,1.0,,,,
102,0,,html-keyboard-response,102,281489,0.0-4.16-0.16,ifgq393xvo,2022-09-19 17:10:24.553,605f64ae5862018ec5eb9370,3,38,63,61,28,23,male,,,"<img src=""static/images/cards/stack_of_red_bolts.svg"" width=""175px"" height=""250px""></img>",,,,,,,,,,,,,,,,,,,,,,,,,,,,
103,0,,html-keyboard-response,103,283338,0.0-4.16-1.16,ifgq393xvo,2022-09-19 17:10:24.553,605f64ae5862018ec5eb9370,3,38,63,61,28,23,male,1341.200000003,,"
  <table>
  <tr height=300>
    <td width=300 height=300><img src=""static/images/cards/back_of_red_bolts.svg"" width=""175px"" height=""250px""></img></td>
    <td width=300 height=300><img src=""static/images/cards/back_of_red_bolts.svg"" width=""175px"" height=""250px""></img></td>
  </tr>
  <tr height=200>
    <td width=300><img src=""static/images/keys/z.svg"" width=""35%"" height=""75%""></img></td>
    <td width=300><img src=""static/images/keys/m.svg"" width=""35%"" height=""75%""></img></td>
  </tr>
</table>
  ",77.0,,,,,,,,,,,,,,,,,,,,,,,,,1.0,,
104,0,,html-keyboard-response,104,284853,0.0-4.16-2.16,ifgq393xvo,2022-09-19 17:10:24.553,605f64ae5862018ec5eb9370,3,38,63,61,28,23,male,,,"
  <table>
  <tr height=300>
    <td width=300 height=300><img src=""static/images/cards/back_of_red_bolts.svg"" width=""175px"" height=""250px""></img></td>
    <td width=300 height=300><img src=""static/images/cards/8_of_red_bolts.svg"" width=""175px"" height=""250px""></img></td>
  </tr>
  <tr height=200>
    <td width=300><img src=""static/images/keys/z.svg"" width=""35%"" height=""75%""></img></td>
    <td width=300><img src=""static/images/keys/m.svg"" width=""35%"" height=""75%""></img></td>
  </tr>
</table>
  ",,,,,,,,,,,,,,,,,,,,,,,,,,,,
105,0,,html-keyboard-response,105,286362,0.0-4.16-3.16,ifgq393xvo,2022-09-19 17:10:24.553,605f64ae5862018ec5eb9370,3,38,63,61,28,23,male,,,"<p style=""font-size:50px"">You win!
+10 points this round!</p>",,,,,,,,,,,,,,,,,,,,,,,,,,,,
106,0,,html-keyboard-response,106,286873,0.0-4.16-4.16,ifgq393xvo,2022-09-19 17:10:24.553,605f64ae5862018ec5eb9370,3,38,63,61,28,23,male,,,,,1.0,learning,16.0,Xc,,red,,bolts,,,,Xc,red,bolts,,1.0,0.0,NA,right,1341.200000003,8.0,1.0,1.0,,,,
107,0,,html-keyboard-response,107,288379,0.0-4.17-0.17,ifgq393xvo,2022-09-19 17:10:24.553,605f64ae5862018ec5eb9370,3,38,63,61,28,23,male,,,"<img src=""static/images/cards/stack_of_black_bolts.svg"" width=""175px"" height=""250px""></img>",,,,,,,,,,,,,,,,,,,,,,,,,,,,
108,0,,html-keyboard-response,108,289284,0.0-4.17-1.17,ifgq393xvo,2022-09-19 17:10:24.553,605f64ae5862018ec5eb9370,3,38,63,61,28,23,male,394.700000003,,"
  <table>
  <tr height=300>
    <td width=300 height=300><img src=""static/images/cards/back_of_black_bolts.svg"" width=""175px"" height=""250px""></img></td>
    <td width=300 height=300><img src=""static/images/cards/back_of_black_bolts.svg"" width=""175px"" height=""250px""></img></td>
  </tr>
  <tr height=200>
    <td width=300><img src=""static/images/keys/z.svg"" width=""35%"" height=""75%""></img></td>
    <td width=300></td>
  </tr>
</table>
  ",90.0,,,,,,,,,,,,,,,,,,,,,,,,,1.0,,
109,0,,html-keyboard-response,109,290793,0.0-4.17-2.17,ifgq393xvo,2022-09-19 17:10:24.553,605f64ae5862018ec5eb9370,3,38,63,61,28,23,male,,,"
  <table>
  <tr height=300>
    <td width=300 height=300><img src=""static/images/cards/8_of_black_bolts.svg"" width=""175px"" height=""250px""></img></td>
    <td width=300 height=300><img src=""static/images/cards/back_of_black_bolts.svg"" width=""175px"" height=""250px""></img></td>
  </tr>
  <tr height=200>
    <td width=300><img src=""static/images/keys/z.svg"" width=""35%"" height=""75%""></img></td>
    <td width=300></td>
  </tr>
</table>
  ",,,,,,,,,,,,,,,,,,,,,,,,,,,,
110,0,,html-keyboard-response,110,292306,0.0-4.17-3.17,ifgq393xvo,2022-09-19 17:10:24.553,605f64ae5862018ec5eb9370,3,38,63,61,28,23,male,,,"<p style=""font-size:50px"">You win!
+10 points this round!</p>",,,,,,,,,,,,,,,,,,,,,,,,,,,,
111,0,,html-keyboard-response,111,292830,0.0-4.17-4.17,ifgq393xvo,2022-09-19 17:10:24.553,605f64ae5862018ec5eb9370,3,38,63,61,28,23,male,,,,,1.0,learning,17.0,Xnc,,black,,bolts,,,,Xnc,black,bolts,,0.0,0.0,1,left,394.700000003,8.0,1.0,1.0,,,,
112,0,,html-keyboard-response,112,294333,0.0-4.18-0.18,ifgq393xvo,2022-09-19 17:10:24.553,605f64ae5862018ec5eb9370,3,38,63,61,28,23,male,,,"<img src=""static/images/cards/stack_of_black_moons.svg"" width=""175px"" height=""250px""></img>",,,,,,,,,,,,,,,,,,,,,,,,,,,,
113,0,,html-keyboard-response,113,296196,0.0-4.18-1.18,ifgq393xvo,2022-09-19 17:10:24.553,605f64ae5862018ec5eb9370,3,38,63,61,28,23,male,1360.6000000089,,"
  <table>
  <tr height=300>
    <td width=300 height=300><img src=""static/images/cards/back_of_black_moons.svg"" width=""175px"" height=""250px""></img></td>
    <td width=300 height=300><img src=""static/images/cards/back_of_black_moons.svg"" width=""175px"" height=""250px""></img></td>
  </tr>
  <tr height=200>
    <td width=300><img src=""static/images/keys/z.svg"" width=""35%"" height=""75%""></img></td>
    <td width=300><img src=""static/images/keys/m.svg"" width=""35%"" height=""75%""></img></td>
  </tr>
</table>
  ",90.0,,,,,,,,,,,,,,,,,,,,,,,,,1.0,,
114,0,,html-keyboard-response,114,297718,0.0-4.18-2.18,ifgq393xvo,2022-09-19 17:10:24.553,605f64ae5862018ec5eb9370,3,38,63,61,28,23,male,,,"
  <table>
  <tr height=300>
    <td width=300 height=300><img src=""static/images/cards/2_of_black_moons.svg"" width=""175px"" height=""250px""></img></td>
    <td width=300 height=300><img src=""static/images/cards/back_of_black_moons.svg"" width=""175px"" height=""250px""></img></td>
  </tr>
  <tr height=200>
    <td width=300><img src=""static/images/keys/z.svg"" width=""35%"" height=""75%""></img></td>
    <td width=300><img src=""static/images/keys/m.svg"" width=""35%"" height=""75%""></img></td>
  </tr>
</table>
  ",,,,,,,,,,,,,,,,,,,,,,,,,,,,
115,0,,html-keyboard-response,115,299237,0.0-4.18-3.18,ifgq393xvo,2022-09-19 17:10:24.553,605f64ae5862018ec5eb9370,3,38,63,61,28,23,male,,,"<p style=""font-size:50px"">You Lose!
No points this round.</p>",,,,,,,,,,,,,,,,,,,,,,,,,,,,
116,0,,html-keyboard-response,116,299751,0.0-4.18-4.18,ifgq393xvo,2022-09-19 17:10:24.553,605f64ae5862018ec5eb9370,3,38,63,61,28,23,male,,,,,1.0,learning,18.0,A,,black,,moons,,,,A,black,moons,,1.0,1.0,NA,left,1360.6000000089,2.0,0.0,0.0,,,,
117,0,,html-keyboard-response,117,301265,0.0-4.19-0.19,ifgq393xvo,2022-09-19 17:10:24.553,605f64ae5862018ec5eb9370,3,38,63,61,28,23,male,,,"<img src=""static/images/cards/stack_of_red_moons.svg"" width=""175px"" height=""250px""></img>",,,,,,,,,,,,,,,,,,,,,,,,,,,,
118,0,,html-keyboard-response,118,302222,0.0-4.19-1.19,ifgq393xvo,2022-09-19 17:10:24.553,605f64ae5862018ec5eb9370,3,38,63,61,28,23,male,452.5,,"
  <table>
  <tr height=300>
    <td width=300 height=300><img src=""static/images/cards/back_of_red_moons.svg"" width=""175px"" height=""250px""></img></td>
    <td width=300 height=300><img src=""static/images/cards/back_of_red_moons.svg"" width=""175px"" height=""250px""></img></td>
  </tr>
  <tr height=200>
    <td width=300><img src=""static/images/keys/z.svg"" width=""35%"" height=""75%""></img></td>
    <td width=300></td>
  </tr>
</table>
  ",90.0,,,,,,,,,,,,,,,,,,,,,,,,,1.0,,
119,0,,html-keyboard-response,119,303723,0.0-4.19-2.19,ifgq393xvo,2022-09-19 17:10:24.553,605f64ae5862018ec5eb9370,3,38,63,61,28,23,male,,,"
  <table>
  <tr height=300>
    <td width=300 height=300><img src=""static/images/cards/6_of_red_moons.svg"" width=""175px"" height=""250px""></img></td>
    <td width=300 height=300><img src=""static/images/cards/back_of_red_moons.svg"" width=""175px"" height=""250px""></img></td>
  </tr>
  <tr height=200>
    <td width=300><img src=""static/images/keys/z.svg"" width=""35%"" height=""75%""></img></td>
    <td width=300></td>
  </tr>
</table>
  ",,,,,,,,,,,,,,,,,,,,,,,,,,,,
120,0,,html-keyboard-response,120,305242,0.0-4.19-3.19,ifgq393xvo,2022-09-19 17:10:24.553,605f64ae5862018ec5eb9370,3,38,63,61,28,23,male,,,"<p style=""font-size:50px"">You win!
+10 points this round!</p>",,,,,,,,,,,,,,,,,,,,,,,,,,,,
121,0,,html-keyboard-response,121,305766,0.0-4.19-4.19,ifgq393xvo,2022-09-19 17:10:24.553,605f64ae5862018ec5eb9370,3,38,63,61,28,23,male,,,,,1.0,learning,19.0,B,,red,,moons,,,,B,red,moons,,0.0,1.0,1,left,452.5,6.0,1.0,1.0,,,,
122,0,,html-keyboard-response,122,307281,0.0-4.20-0.20,ifgq393xvo,2022-09-19 17:10:24.553,605f64ae5862018ec5eb9370,3,38,63,61,28,23,male,,,"<img src=""static/images/cards/stack_of_black_stars.svg"" width=""175px"" height=""250px""></img>",,,,,,,,,,,,,,,,,,,,,,,,,,,,
123,0,,html-keyboard-response,123,308595,0.0-4.20-1.20,ifgq393xvo,2022-09-19 17:10:24.553,605f64ae5862018ec5eb9370,3,38,63,61,28,23,male,800.3000000119,,"
  <table>
  <tr height=300>
    <td width=300 height=300><img src=""static/images/cards/back_of_black_stars.svg"" width=""175px"" height=""250px""></img></td>
    <td width=300 height=300><img src=""static/images/cards/back_of_black_stars.svg"" width=""175px"" height=""250px""></img></td>
  </tr>
  <tr height=200>
    <td width=300><img src=""static/images/keys/z.svg"" width=""35%"" height=""75%""></img></td>
    <td width=300><img src=""static/images/keys/m.svg"" width=""35%"" height=""75%""></img></td>
  </tr>
</table>
  ",77.0,,,,,,,,,,,,,,,,,,,,,,,,,1.0,,
124,0,,html-keyboard-response,124,310099,0.0-4.20-2.20,ifgq393xvo,2022-09-19 17:10:24.553,605f64ae5862018ec5eb9370,3,38,63,61,28,23,male,,,"
  <table>
  <tr height=300>
    <td width=300 height=300><img src=""static/images/cards/back_of_black_stars.svg"" width=""175px"" height=""250px""></img></td>
    <td width=300 height=300><img src=""static/images/cards/6_of_black_stars.svg"" width=""175px"" height=""250px""></img></td>
  </tr>
  <tr height=200>
    <td width=300><img src=""static/images/keys/z.svg"" width=""35%"" height=""75%""></img></td>
    <td width=300><img src=""static/images/keys/m.svg"" width=""35%"" height=""75%""></img></td>
  </tr>
</table>
  ",,,,,,,,,,,,,,,,,,,,,,,,,,,,
125,0,,html-keyboard-response,125,311619,0.0-4.20-3.20,ifgq393xvo,2022-09-19 17:10:24.553,605f64ae5862018ec5eb9370,3,38,63,61,28,23,male,,,"<p style=""font-size:50px"">You Lose!
No points this round.</p>",,,,,,,,,,,,,,,,,,,,,,,,,,,,
126,0,,html-keyboard-response,126,312137,0.0-4.20-4.20,ifgq393xvo,2022-09-19 17:10:24.553,605f64ae5862018ec5eb9370,3,38,63,61,28,23,male,,,,,1.0,learning,20.0,C,,black,,stars,,,,C,black,stars,,1.0,0.0,NA,right,800.3000000119,6.0,1.0,0.0,,,,
127,0,,html-keyboard-response,127,313651,0.0-4.21-0.21,ifgq393xvo,2022-09-19 17:10:24.553,605f64ae5862018ec5eb9370,3,38,63,61,28,23,male,,,"<img src=""static/images/cards/stack_of_red_stars.svg"" width=""175px"" height=""250px""></img>",,,,,,,,,,,,,,,,,,,,,,,,,,,,
128,0,,html-keyboard-response,128,314616,0.0-4.21-1.21,ifgq393xvo,2022-09-19 17:10:24.553,605f64ae5862018ec5eb9370,3,38,63,61,28,23,male,457.799999997,,"
  <table>
  <tr height=300>
    <td width=300 height=300><img src=""static/images/cards/back_of_red_stars.svg"" width=""175px"" height=""250px""></img></td>
    <td width=300 height=300><img src=""static/images/cards/back_of_red_stars.svg"" width=""175px"" height=""250px""></img></td>
  </tr>
  <tr height=200>
    <td width=300></td>
    <td width=300><img src=""static/images/keys/m.svg"" width=""35%"" height=""75%""></img></td>
  </tr>
</table>
  ",77.0,,,,,,,,,,,,,,,,,,,,,,,,,1.0,,
129,0,,html-keyboard-response,129,316125,0.0-4.21-2.21,ifgq393xvo,2022-09-19 17:10:24.553,605f64ae5862018ec5eb9370,3,38,63,61,28,23,male,,,"
  <table>
  <tr height=300>
    <td width=300 height=300><img src=""static/images/cards/back_of_red_stars.svg"" width=""175px"" height=""250px""></img></td>
    <td width=300 height=300><img src=""static/images/cards/10_of_red_stars.svg"" width=""175px"" height=""250px""></img></td>
  </tr>
  <tr height=200>
    <td width=300></td>
    <td width=300><img src=""static/images/keys/m.svg"" width=""35%"" height=""75%""></img></td>
  </tr>
</table>
  ",,,,,,,,,,,,,,,,,,,,,,,,,,,,
130,0,,html-keyboard-response,130,317640,0.0-4.21-3.21,ifgq393xvo,2022-09-19 17:10:24.553,605f64ae5862018ec5eb9370,3,38,63,61,28,23,male,,,"<p style=""font-size:50px"">You win!
+10 points this round!</p>",,,,,,,,,,,,,,,,,,,,,,,,,,,,
131,0,,html-keyboard-response,131,318160,0.0-4.21-4.21,ifgq393xvo,2022-09-19 17:10:24.553,605f64ae5862018ec5eb9370,3,38,63,61,28,23,male,,,,,1.0,learning,21.0,D,,red,,stars,,,,D,red,stars,,0.0,0.0,0,right,457.799999997,10.0,1.0,1.0,,,,
132,0,,html-keyboard-response,132,319676,0.0-4.22-0.22,ifgq393xvo,2022-09-19 17:10:24.553,605f64ae5862018ec5eb9370,3,38,63,61,28,23,male,,,"<img src=""static/images/cards/stack_of_red_bolts.svg"" width=""175px"" height=""250px""></img>",,,,,,,,,,,,,,,,,,,,,,,,,,,,
133,0,,html-keyboard-response,133,321205,0.0-4.22-1.22,ifgq393xvo,2022-09-19 17:10:24.553,605f64ae5862018ec5eb9370,3,38,63,61,28,23,male,1019.900000006,,"
  <table>
  <tr height=300>
    <td width=300 height=300><img src=""static/images/cards/back_of_red_bolts.svg"" width=""175px"" height=""250px""></img></td>
    <td width=300 height=300><img src=""static/images/cards/back_of_red_bolts.svg"" width=""175px"" height=""250px""></img></td>
  </tr>
  <tr height=200>
    <td width=300><img src=""static/images/keys/z.svg"" width=""35%"" height=""75%""></img></td>
    <td width=300><img src=""static/images/keys/m.svg"" width=""35%"" height=""75%""></img></td>
  </tr>
</table>
  ",77.0,,,,,,,,,,,,,,,,,,,,,,,,,1.0,,
134,0,,html-keyboard-response,134,322717,0.0-4.22-2.22,ifgq393xvo,2022-09-19 17:10:24.553,605f64ae5862018ec5eb9370,3,38,63,61,28,23,male,,,"
  <table>
  <tr height=300>
    <td width=300 height=300><img src=""static/images/cards/back_of_red_bolts.svg"" width=""175px"" height=""250px""></img></td>
    <td width=300 height=300><img src=""static/images/cards/6_of_red_bolts.svg"" width=""175px"" height=""250px""></img></td>
  </tr>
  <tr height=200>
    <td width=300><img src=""static/images/keys/z.svg"" width=""35%"" height=""75%""></img></td>
    <td width=300><img src=""static/images/keys/m.svg"" width=""35%"" height=""75%""></img></td>
  </tr>
</table>
  ",,,,,,,,,,,,,,,,,,,,,,,,,,,,
135,0,,html-keyboard-response,135,324232,0.0-4.22-3.22,ifgq393xvo,2022-09-19 17:10:24.553,605f64ae5862018ec5eb9370,3,38,63,61,28,23,male,,,"<p style=""font-size:50px"">You win!
+10 points this round!</p>",,,,,,,,,,,,,,,,,,,,,,,,,,,,
136,0,,html-keyboard-response,136,324753,0.0-4.22-4.22,ifgq393xvo,2022-09-19 17:10:24.553,605f64ae5862018ec5eb9370,3,38,63,61,28,23,male,,,,,1.0,learning,22.0,Xc,,red,,bolts,,,,Xc,red,bolts,,1.0,0.0,NA,right,1019.900000006,6.0,1.0,1.0,,,,
137,0,,html-keyboard-response,137,326261,0.0-4.23-0.23,ifgq393xvo,2022-09-19 17:10:24.553,605f64ae5862018ec5eb9370,3,38,63,61,28,23,male,,,"<img src=""static/images/cards/stack_of_black_bolts.svg"" width=""175px"" height=""250px""></img>",,,,,,,,,,,,,,,,,,,,,,,,,,,,
138,0,,html-keyboard-response,138,327254,0.0-4.23-1.23,ifgq393xvo,2022-09-19 17:10:24.553,605f64ae5862018ec5eb9370,3,38,63,61,28,23,male,488.799999997,,"
  <table>
  <tr height=300>
    <td width=300 height=300><img src=""static/images/cards/back_of_black_bolts.svg"" width=""175px"" height=""250px""></img></td>
    <td width=300 height=300><img src=""static/images/cards/back_of_black_bolts.svg"" width=""175px"" height=""250px""></img></td>
  </tr>
  <tr height=200>
    <td width=300></td>
    <td width=300><img src=""static/images/keys/m.svg"" width=""35%"" height=""75%""></img></td>
  </tr>
</table>
  ",77.0,,,,,,,,,,,,,,,,,,,,,,,,,1.0,,
139,0,,html-keyboard-response,139,328761,0.0-4.23-2.23,ifgq393xvo,2022-09-19 17:10:24.553,605f64ae5862018ec5eb9370,3,38,63,61,28,23,male,,,"
  <table>
  <tr height=300>
    <td width=300 height=300><img src=""static/images/cards/back_of_black_bolts.svg"" width=""175px"" height=""250px""></img></td>
    <td width=300 height=300><img src=""static/images/cards/3_of_black_bolts.svg"" width=""175px"" height=""250px""></img></td>
  </tr>
  <tr height=200>
    <td width=300></td>
    <td width=300><img src=""static/images/keys/m.svg"" width=""35%"" height=""75%""></img></td>
  </tr>
</table>
  ",,,,,,,,,,,,,,,,,,,,,,,,,,,,
140,0,,html-keyboard-response,140,330276,0.0-4.23-3.23,ifgq393xvo,2022-09-19 17:10:24.553,605f64ae5862018ec5eb9370,3,38,63,61,28,23,male,,,"<p style=""font-size:50px"">You win!
+10 points this round!</p>",,,,,,,,,,,,,,,,,,,,,,,,,,,,
141,0,,html-keyboard-response,141,330793,0.0-4.23-4.23,ifgq393xvo,2022-09-19 17:10:24.553,605f64ae5862018ec5eb9370,3,38,63,61,28,23,male,,,,,1.0,learning,23.0,Xnc,,black,,bolts,,,,Xnc,black,bolts,,0.0,0.0,0,right,488.799999997,3.0,0.0,1.0,,,,
142,0,,call-function,142,330807,0.0-5.0,ifgq393xvo,2022-09-19 17:10:24.553,605f64ae5862018ec5eb9370,3,38,63,61,28,23,male,,,,,,,,,,,,,,,,,,,,,,,,,,,,,,,
143,0,,image-keyboard-response,143,335934,0.0-6.0-0.0,ifgq393xvo,2022-09-19 17:10:24.553,605f64ae5862018ec5eb9370,3,38,63,61,28,23,male,5127.0,,static/images/instructions_CB_3/Slide20.png,39.0,,,,,,,,,,,,,,,,,,,,,,,,,,,
144,0,,image-keyboard-response,144,354569,0.0-6.1-0.1,ifgq393xvo,2022-09-19 17:10:24.553,605f64ae5862018ec5eb9370,3,38,63,61,28,23,male,18633.8999999911,,static/images/instructions_CB_3/Slide21.png,39.0,,,,,,,,,,,,,,,,,,,,,,,,,,,
145,0,,image-keyboard-response,145,436513,0.0-6.2-0.2,ifgq393xvo,2022-09-19 17:10:24.553,605f64ae5862018ec5eb9370,3,38,63,61,28,23,male,81932.0,,static/images/instructions_CB_3/Slide22.png,39.0,,,,,,,,,,,,,,,,,,,,,,,,,,,
146,0,,image-keyboard-response,146,446800,0.0-6.3-0.3,ifgq393xvo,2022-09-19 17:10:24.553,605f64ae5862018ec5eb9370,3,38,63,61,28,23,male,10285.900000006,,static/images/instructions_CB_3/Slide23.png,39.0,,,,,,,,,,,,,,,,,,,,,,,,,,,
147,0,,image-keyboard-response,147,453485,0.0-6.4-0.4,ifgq393xvo,2022-09-19 17:10:24.553,605f64ae5862018ec5eb9370,3,38,63,61,28,23,male,6683.5,,static/images/instructions_CB_3/Slide24.png,39.0,,,,,,,,,,,,,,,,,,,,,,,,,,,
148,0,,html-keyboard-response,148,456661,0.0-7.0-0.0,ifgq393xvo,2022-09-19 17:10:24.553,605f64ae5862018ec5eb9370,3,38,63,61,28,23,male,3173.900000006,,"
  <table>
  <tr height=300>
    <td width=300 height=300><img src=""static/images/cards/stack_of_black_stars.svg"" width=""175px"" height=""250px""></img></td>
    <td width=300 height=300><img src=""static/images/cards/stack_of_red_stars.svg"" width=""175px"" height=""250px""></img></td>
  </tr>
  <tr height=200>
    <td width=300><img src=""static/images/keys/w.svg"" width=""35%"" height=""75%""></img></td>
    <td width=300><img src=""static/images/keys/o.svg"" width=""35%"" height=""75%""></img></td>
  </tr>
</table>
  ",87.0,,,,,,,,,,,,,,,,,,,,,,,,,1.0,,
149,0,,html-keyboard-response,149,459463,0.0-7.0-1.0,ifgq393xvo,2022-09-19 17:10:24.553,605f64ae5862018ec5eb9370,3,38,63,61,28,23,male,2290.900000006,,"
  <table>
  <tr height=300>
    <td width=300 height=300><img src=""static/images/cards/back_of_black_stars.svg"" width=""175px"" height=""250px""></img></td>
    <td width=300 height=300><img src=""static/images/cards/back_of_black_stars.svg"" width=""175px"" height=""250px""></img></td>
  </tr>
  <tr height=200>
    <td width=300><img src=""static/images/keys/z.svg"" width=""35%"" height=""75%""></img></td>
    <td width=300><img src=""static/images/keys/m.svg"" width=""35%"" height=""75%""></img></td>
  </tr>
</table>
  ",90.0,,,,,,,,,,,,,,,,,,,,,,,,,1.0,,
150,0,,html-keyboard-response,150,460979,0.0-7.0-2.0,ifgq393xvo,2022-09-19 17:10:24.553,605f64ae5862018ec5eb9370,3,38,63,61,28,23,male,,,"
  <table>
  <tr height=300>
    <td width=300 height=300><img src=""static/images/cards/9_of_black_stars.svg"" width=""175px"" height=""250px""></img></td>
    <td width=300 height=300><img src=""static/images/cards/back_of_black_stars.svg"" width=""175px"" height=""250px""></img></td>
  </tr>
  <tr height=200>
    <td width=300><img src=""static/images/keys/z.svg"" width=""35%"" height=""75%""></img></td>
    <td width=300><img src=""static/images/keys/m.svg"" width=""35%"" height=""75%""></img></td>
  </tr>
</table>
  ",,,,,,,,,,,,,,,,,,,,,,,,,,,,
151,0,,html-keyboard-response,151,462491,0.0-7.0-3.0,ifgq393xvo,2022-09-19 17:10:24.553,605f64ae5862018ec5eb9370,3,38,63,61,28,23,male,,,"<p style=""font-size:50px"">You Lose!
No points this round.</p>",,,,,,,,,,,,,,,,,,,,,,,,,,,,
152,0,,html-keyboard-response,152,463006,0.0-7.0-4.0,ifgq393xvo,2022-09-19 17:10:24.553,605f64ae5862018ec5eb9370,3,38,63,61,28,23,male,,,,,1.0,choice,0.0,C,D,black,red,stars,stars,C,D,C,black,stars,3173.900000006,1.0,0.0,NA,left,2290.900000006,9.0,1.0,0.0,,,,
153,0,,html-keyboard-response,153,465071,0.0-7.1-0.1,ifgq393xvo,2022-09-19 17:10:24.553,605f64ae5862018ec5eb9370,3,38,63,61,28,23,male,2062.8999999911,,"
  <table>
  <tr height=300>
    <td width=300 height=300><img src=""static/images/cards/stack_of_black_moons.svg"" width=""175px"" height=""250px""></img></td>
    <td width=300 height=300><img src=""static/images/cards/stack_of_black_stars.svg"" width=""175px"" height=""250px""></img></td>
  </tr>
  <tr height=200>
    <td width=300><img src=""static/images/keys/w.svg"" width=""35%"" height=""75%""></img></td>
    <td width=300><img src=""static/images/keys/o.svg"" width=""35%"" height=""75%""></img></td>
  </tr>
</table>
  ",79.0,,,,,,,,,,,,,,,,,,,,,,,,,1.0,,
154,0,,html-keyboard-response,154,468451,0.0-7.1-1.1,ifgq393xvo,2022-09-19 17:10:24.553,605f64ae5862018ec5eb9370,3,38,63,61,28,23,male,2863.099999994,,"
  <table>
  <tr height=300>
    <td width=300 height=300><img src=""static/images/cards/back_of_black_stars.svg"" width=""175px"" height=""250px""></img></td>
    <td width=300 height=300><img src=""static/images/cards/back_of_black_stars.svg"" width=""175px"" height=""250px""></img></td>
  </tr>
  <tr height=200>
    <td width=300><img src=""static/images/keys/z.svg"" width=""35%"" height=""75%""></img></td>
    <td width=300><img src=""static/images/keys/m.svg"" width=""35%"" height=""75%""></img></td>
  </tr>
</table>
  ",90.0,,,,,,,,,,,,,,,,,,,,,,,,,1.0,,
155,0,,html-keyboard-response,155,469961,0.0-7.1-2.1,ifgq393xvo,2022-09-19 17:10:24.553,605f64ae5862018ec5eb9370,3,38,63,61,28,23,male,,,"
  <table>
  <tr height=300>
    <td width=300 height=300><img src=""static/images/cards/2_of_black_stars.svg"" width=""175px"" height=""250px""></img></td>
    <td width=300 height=300><img src=""static/images/cards/back_of_black_stars.svg"" width=""175px"" height=""250px""></img></td>
  </tr>
  <tr height=200>
    <td width=300><img src=""static/images/keys/z.svg"" width=""35%"" height=""75%""></img></td>
    <td width=300><img src=""static/images/keys/m.svg"" width=""35%"" height=""75%""></img></td>
  </tr>
</table>
  ",,,,,,,,,,,,,,,,,,,,,,,,,,,,
156,0,,html-keyboard-response,156,471470,0.0-7.1-3.1,ifgq393xvo,2022-09-19 17:10:24.553,605f64ae5862018ec5eb9370,3,38,63,61,28,23,male,,,"<p style=""font-size:50px"">You win!
+10 points this round!</p>",,,,,,,,,,,,,,,,,,,,,,,,,,,,
157,0,,html-keyboard-response,157,471982,0.0-7.1-4.1,ifgq393xvo,2022-09-19 17:10:24.553,605f64ae5862018ec5eb9370,3,38,63,61,28,23,male,,,,,1.0,choice,1.0,A,C,black,black,moons,stars,A,C,C,black,stars,2062.8999999911,1.0,0.0,NA,left,2863.099999994,2.0,0.0,1.0,,,,
158,0,,html-keyboard-response,158,473679,0.0-7.2-0.2,ifgq393xvo,2022-09-19 17:10:24.553,605f64ae5862018ec5eb9370,3,38,63,61,28,23,male,1695.6999999881,,"
  <table>
  <tr height=300>
    <td width=300 height=300><img src=""static/images/cards/stack_of_black_moons.svg"" width=""175px"" height=""250px""></img></td>
    <td width=300 height=300><img src=""static/images/cards/stack_of_red_stars.svg"" width=""175px"" height=""250px""></img></td>
  </tr>
  <tr height=200>
    <td width=300><img src=""static/images/keys/w.svg"" width=""35%"" height=""75%""></img></td>
    <td width=300><img src=""static/images/keys/o.svg"" width=""35%"" height=""75%""></img></td>
  </tr>
</table>
  ",87.0,,,,,,,,,,,,,,,,,,,,,,,,,1.0,,
159,0,,html-keyboard-response,159,475621,0.0-7.2-1.2,ifgq393xvo,2022-09-19 17:10:24.553,605f64ae5862018ec5eb9370,3,38,63,61,28,23,male,1425.0,,"
  <table>
  <tr height=300>
    <td width=300 height=300><img src=""static/images/cards/back_of_black_moons.svg"" width=""175px"" height=""250px""></img></td>
    <td width=300 height=300><img src=""static/images/cards/back_of_black_moons.svg"" width=""175px"" height=""250px""></img></td>
  </tr>
  <tr height=200>
    <td width=300><img src=""static/images/keys/z.svg"" width=""35%"" height=""75%""></img></td>
    <td width=300><img src=""static/images/keys/m.svg"" width=""35%"" height=""75%""></img></td>
  </tr>
</table>
  ",77.0,,,,,,,,,,,,,,,,,,,,,,,,,1.0,,
160,0,,html-keyboard-response,160,477127,0.0-7.2-2.2,ifgq393xvo,2022-09-19 17:10:24.553,605f64ae5862018ec5eb9370,3,38,63,61,28,23,male,,,"
  <table>
  <tr height=300>
    <td width=300 height=300><img src=""static/images/cards/back_of_black_moons.svg"" width=""175px"" height=""250px""></img></td>
    <td width=300 height=300><img src=""static/images/cards/1_of_black_moons.svg"" width=""175px"" height=""250px""></img></td>
  </tr>
  <tr height=200>
    <td width=300><img src=""static/images/keys/z.svg"" width=""35%"" height=""75%""></img></td>
    <td width=300><img src=""static/images/keys/m.svg"" width=""35%"" height=""75%""></img></td>
  </tr>
</table>
  ",,,,,,,,,,,,,,,,,,,,,,,,,,,,
161,0,,html-keyboard-response,161,478635,0.0-7.2-3.2,ifgq393xvo,2022-09-19 17:10:24.553,605f64ae5862018ec5eb9370,3,38,63,61,28,23,male,,,"<p style=""font-size:50px"">You Lose!
No points this round.</p>",,,,,,,,,,,,,,,,,,,,,,,,,,,,
162,0,,html-keyboard-response,162,479147,0.0-7.2-4.2,ifgq393xvo,2022-09-19 17:10:24.553,605f64ae5862018ec5eb9370,3,38,63,61,28,23,male,,,,,1.0,choice,2.0,A,D,black,red,moons,stars,A,D,A,black,moons,1695.6999999881,1.0,1.0,NA,right,1425.0,1.0,0.0,0.0,,,,
163,0,,html-keyboard-response,163,481721,0.0-7.3-0.3,ifgq393xvo,2022-09-19 17:10:24.553,605f64ae5862018ec5eb9370,3,38,63,61,28,23,male,2571.700000003,,"
  <table>
  <tr height=300>
    <td width=300 height=300><img src=""static/images/cards/stack_of_black_stars.svg"" width=""175px"" height=""250px""></img></td>
    <td width=300 height=300><img src=""static/images/cards/stack_of_black_moons.svg"" width=""175px"" height=""250px""></img></td>
  </tr>
  <tr height=200>
    <td width=300><img src=""static/images/keys/w.svg"" width=""35%"" height=""75%""></img></td>
    <td width=300><img src=""static/images/keys/o.svg"" width=""35%"" height=""75%""></img></td>
  </tr>
</table>
  ",87.0,,,,,,,,,,,,,,,,,,,,,,,,,1.0,,
164,0,,html-keyboard-response,164,484293,0.0-7.3-1.3,ifgq393xvo,2022-09-19 17:10:24.553,605f64ae5862018ec5eb9370,3,38,63,61,28,23,male,2064.599999994,,"
  <table>
  <tr height=300>
    <td width=300 height=300><img src=""static/images/cards/back_of_black_stars.svg"" width=""175px"" height=""250px""></img></td>
    <td width=300 height=300><img src=""static/images/cards/back_of_black_stars.svg"" width=""175px"" height=""250px""></img></td>
  </tr>
  <tr height=200>
    <td width=300><img src=""static/images/keys/z.svg"" width=""35%"" height=""75%""></img></td>
    <td width=300><img src=""static/images/keys/m.svg"" width=""35%"" height=""75%""></img></td>
  </tr>
</table>
  ",90.0,,,,,,,,,,,,,,,,,,,,,,,,,1.0,,
165,0,,html-keyboard-response,165,485797,0.0-7.3-2.3,ifgq393xvo,2022-09-19 17:10:24.553,605f64ae5862018ec5eb9370,3,38,63,61,28,23,male,,,"
  <table>
  <tr height=300>
    <td width=300 height=300><img src=""static/images/cards/1_of_black_stars.svg"" width=""175px"" height=""250px""></img></td>
    <td width=300 height=300><img src=""static/images/cards/back_of_black_stars.svg"" width=""175px"" height=""250px""></img></td>
  </tr>
  <tr height=200>
    <td width=300><img src=""static/images/keys/z.svg"" width=""35%"" height=""75%""></img></td>
    <td width=300><img src=""static/images/keys/m.svg"" width=""35%"" height=""75%""></img></td>
  </tr>
</table>
  ",,,,,,,,,,,,,,,,,,,,,,,,,,,,
166,0,,html-keyboard-response,166,487305,0.0-7.3-3.3,ifgq393xvo,2022-09-19 17:10:24.553,605f64ae5862018ec5eb9370,3,38,63,61,28,23,male,,,"<p style=""font-size:50px"">You win!
+10 points this round!</p>",,,,,,,,,,,,,,,,,,,,,,,,,,,,
167,0,,html-keyboard-response,167,487817,0.0-7.3-4.3,ifgq393xvo,2022-09-19 17:10:24.553,605f64ae5862018ec5eb9370,3,38,63,61,28,23,male,,,,,1.0,choice,3.0,A,C,black,black,stars,moons,C,A,C,black,stars,2571.700000003,1.0,0.0,NA,left,2064.599999994,1.0,0.0,1.0,,,,
168,0,,html-keyboard-response,168,489798,0.0-7.4-0.4,ifgq393xvo,2022-09-19 17:10:24.553,605f64ae5862018ec5eb9370,3,38,63,61,28,23,male,1978.900000006,,"
  <table>
  <tr height=300>
    <td width=300 height=300><img src=""static/images/cards/stack_of_black_moons.svg"" width=""175px"" height=""250px""></img></td>
    <td width=300 height=300><img src=""static/images/cards/stack_of_red_stars.svg"" width=""175px"" height=""250px""></img></td>
  </tr>
  <tr height=200>
    <td width=300><img src=""static/images/keys/w.svg"" width=""35%"" height=""75%""></img></td>
    <td width=300><img src=""static/images/keys/o.svg"" width=""35%"" height=""75%""></img></td>
  </tr>
</table>
  ",79.0,,,,,,,,,,,,,,,,,,,,,,,,,1.0,,
169,0,,html-keyboard-response,169,491323,0.0-7.4-1.4,ifgq393xvo,2022-09-19 17:10:24.553,605f64ae5862018ec5eb9370,3,38,63,61,28,23,male,1016.799999997,,"
  <table>
  <tr height=300>
    <td width=300 height=300><img src=""static/images/cards/back_of_red_stars.svg"" width=""175px"" height=""250px""></img></td>
    <td width=300 height=300><img src=""static/images/cards/back_of_red_stars.svg"" width=""175px"" height=""250px""></img></td>
  </tr>
  <tr height=200>
    <td width=300></td>
    <td width=300><img src=""static/images/keys/m.svg"" width=""35%"" height=""75%""></img></td>
  </tr>
</table>
  ",77.0,,,,,,,,,,,,,,,,,,,,,,,,,1.0,,
170,0,,html-keyboard-response,170,492838,0.0-7.4-2.4,ifgq393xvo,2022-09-19 17:10:24.553,605f64ae5862018ec5eb9370,3,38,63,61,28,23,male,,,"
  <table>
  <tr height=300>
    <td width=300 height=300><img src=""static/images/cards/back_of_red_stars.svg"" width=""175px"" height=""250px""></img></td>
    <td width=300 height=300><img src=""static/images/cards/1_of_red_stars.svg"" width=""175px"" height=""250px""></img></td>
  </tr>
  <tr height=200>
    <td width=300></td>
    <td width=300><img src=""static/images/keys/m.svg"" width=""35%"" height=""75%""></img></td>
  </tr>
</table>
  ",,,,,,,,,,,,,,,,,,,,,,,,,,,,
171,0,,html-keyboard-response,171,494355,0.0-7.4-3.4,ifgq393xvo,2022-09-19 17:10:24.553,605f64ae5862018ec5eb9370,3,38,63,61,28,23,male,,,"<p style=""font-size:50px"">You win!
+10 points this round!</p>",,,,,,,,,,,,,,,,,,,,,,,,,,,,
172,0,,html-keyboard-response,172,494876,0.0-7.4-4.4,ifgq393xvo,2022-09-19 17:10:24.553,605f64ae5862018ec5eb9370,3,38,63,61,28,23,male,,,,,1.0,choice,4.0,A,D,black,red,moons,stars,A,D,D,red,stars,1978.900000006,0.0,0.0,0,right,1016.799999997,1.0,0.0,1.0,,,,
173,0,,html-keyboard-response,173,497067,0.0-7.5-0.5,ifgq393xvo,2022-09-19 17:10:24.553,605f64ae5862018ec5eb9370,3,38,63,61,28,23,male,2186.8999999911,,"
  <table>
  <tr height=300>
    <td width=300 height=300><img src=""static/images/cards/stack_of_red_moons.svg"" width=""175px"" height=""250px""></img></td>
    <td width=300 height=300><img src=""static/images/cards/stack_of_black_stars.svg"" width=""175px"" height=""250px""></img></td>
  </tr>
  <tr height=200>
    <td width=300><img src=""static/images/keys/w.svg"" width=""35%"" height=""75%""></img></td>
    <td width=300><img src=""static/images/keys/o.svg"" width=""35%"" height=""75%""></img></td>
  </tr>
</table>
  ",79.0,,,,,,,,,,,,,,,,,,,,,,,,,1.0,,
174,0,,html-keyboard-response,174,498769,0.0-7.5-1.5,ifgq393xvo,2022-09-19 17:10:24.553,605f64ae5862018ec5eb9370,3,38,63,61,28,23,male,1199.200000003,,"
  <table>
  <tr height=300>
    <td width=300 height=300><img src=""static/images/cards/back_of_black_stars.svg"" width=""175px"" height=""250px""></img></td>
    <td width=300 height=300><img src=""static/images/cards/back_of_black_stars.svg"" width=""175px"" height=""250px""></img></td>
  </tr>
  <tr height=200>
    <td width=300><img src=""static/images/keys/z.svg"" width=""35%"" height=""75%""></img></td>
    <td width=300><img src=""static/images/keys/m.svg"" width=""35%"" height=""75%""></img></td>
  </tr>
</table>
  ",77.0,,,,,,,,,,,,,,,,,,,,,,,,,1.0,,
175,0,,html-keyboard-response,175,500279,0.0-7.5-2.5,ifgq393xvo,2022-09-19 17:10:24.553,605f64ae5862018ec5eb9370,3,38,63,61,28,23,male,,,"
  <table>
  <tr height=300>
    <td width=300 height=300><img src=""static/images/cards/back_of_black_stars.svg"" width=""175px"" height=""250px""></img></td>
    <td width=300 height=300><img src=""static/images/cards/4_of_black_stars.svg"" width=""175px"" height=""250px""></img></td>
  </tr>
  <tr height=200>
    <td width=300><img src=""static/images/keys/z.svg"" width=""35%"" height=""75%""></img></td>
    <td width=300><img src=""static/images/keys/m.svg"" width=""35%"" height=""75%""></img></td>
  </tr>
</table>
  ",,,,,,,,,,,,,,,,,,,,,,,,,,,,
176,0,,html-keyboard-response,176,501801,0.0-7.5-3.5,ifgq393xvo,2022-09-19 17:10:24.553,605f64ae5862018ec5eb9370,3,38,63,61,28,23,male,,,"<p style=""font-size:50px"">You win!
+10 points this round!</p>",,,,,,,,,,,,,,,,,,,,,,,,,,,,
177,0,,html-keyboard-response,177,502315,0.0-7.5-4.5,ifgq393xvo,2022-09-19 17:10:24.553,605f64ae5862018ec5eb9370,3,38,63,61,28,23,male,,,,,1.0,choice,5.0,B,C,red,black,moons,stars,B,C,C,black,stars,2186.8999999911,1.0,0.0,NA,right,1199.200000003,4.0,0.0,1.0,,,,
178,0,,html-keyboard-response,178,503170,0.0-7.6-0.6,ifgq393xvo,2022-09-19 17:10:24.553,605f64ae5862018ec5eb9370,3,38,63,61,28,23,male,853.3999999911,,"
  <table>
  <tr height=300>
    <td width=300 height=300><img src=""static/images/cards/stack_of_red_stars.svg"" width=""175px"" height=""250px""></img></td>
    <td width=300 height=300><img src=""static/images/cards/stack_of_red_moons.svg"" width=""175px"" height=""250px""></img></td>
  </tr>
  <tr height=200>
    <td width=300><img src=""static/images/keys/w.svg"" width=""35%"" height=""75%""></img></td>
    <td width=300><img src=""static/images/keys/o.svg"" width=""35%"" height=""75%""></img></td>
  </tr>
</table>
  ",87.0,,,,,,,,,,,,,,,,,,,,,,,,,1.0,,
179,0,,html-keyboard-response,179,504535,0.0-7.6-1.6,ifgq393xvo,2022-09-19 17:10:24.553,605f64ae5862018ec5eb9370,3,38,63,61,28,23,male,854.599999994,,"
  <table>
  <tr height=300>
    <td width=300 height=300><img src=""static/images/cards/back_of_red_stars.svg"" width=""175px"" height=""250px""></img></td>
    <td width=300 height=300><img src=""static/images/cards/back_of_red_stars.svg"" width=""175px"" height=""250px""></img></td>
  </tr>
  <tr height=200>
    <td width=300><img src=""static/images/keys/z.svg"" width=""35%"" height=""75%""></img></td>
    <td width=300></td>
  </tr>
</table>
  ",90.0,,,,,,,,,,,,,,,,,,,,,,,,,1.0,,
180,0,,html-keyboard-response,180,506049,0.0-7.6-2.6,ifgq393xvo,2022-09-19 17:10:24.553,605f64ae5862018ec5eb9370,3,38,63,61,28,23,male,,,"
  <table>
  <tr height=300>
    <td width=300 height=300><img src=""static/images/cards/1_of_red_stars.svg"" width=""175px"" height=""250px""></img></td>
    <td width=300 height=300><img src=""static/images/cards/back_of_red_stars.svg"" width=""175px"" height=""250px""></img></td>
  </tr>
  <tr height=200>
    <td width=300><img src=""static/images/keys/z.svg"" width=""35%"" height=""75%""></img></td>
    <td width=300></td>
  </tr>
</table>
  ",,,,,,,,,,,,,,,,,,,,,,,,,,,,
181,0,,html-keyboard-response,181,507569,0.0-7.6-3.6,ifgq393xvo,2022-09-19 17:10:24.553,605f64ae5862018ec5eb9370,3,38,63,61,28,23,male,,,"<p style=""font-size:50px"">You win!
+10 points this round!</p>",,,,,,,,,,,,,,,,,,,,,,,,,,,,
182,0,,html-keyboard-response,182,508081,0.0-7.6-4.6,ifgq393xvo,2022-09-19 17:10:24.553,605f64ae5862018ec5eb9370,3,38,63,61,28,23,male,,,,,1.0,choice,6.0,B,D,red,red,stars,moons,D,B,D,red,stars,853.3999999911,0.0,0.0,1,left,854.599999994,1.0,0.0,1.0,,,,
183,0,,html-keyboard-response,183,508959,0.0-7.7-0.7,ifgq393xvo,2022-09-19 17:10:24.553,605f64ae5862018ec5eb9370,3,38,63,61,28,23,male,876.1000000089,,"
  <table>
  <tr height=300>
    <td width=300 height=300><img src=""static/images/cards/stack_of_red_moons.svg"" width=""175px"" height=""250px""></img></td>
    <td width=300 height=300><img src=""static/images/cards/stack_of_black_stars.svg"" width=""175px"" height=""250px""></img></td>
  </tr>
  <tr height=200>
    <td width=300><img src=""static/images/keys/w.svg"" width=""35%"" height=""75%""></img></td>
    <td width=300><img src=""static/images/keys/o.svg"" width=""35%"" height=""75%""></img></td>
  </tr>
</table>
  ",79.0,,,,,,,,,,,,,,,,,,,,,,,,,1.0,,
184,0,,html-keyboard-response,184,511078,0.0-7.7-1.7,ifgq393xvo,2022-09-19 17:10:24.553,605f64ae5862018ec5eb9370,3,38,63,61,28,23,male,1616.6999999881,,"
  <table>
  <tr height=300>
    <td width=300 height=300><img src=""static/images/cards/back_of_black_stars.svg"" width=""175px"" height=""250px""></img></td>
    <td width=300 height=300><img src=""static/images/cards/back_of_black_stars.svg"" width=""175px"" height=""250px""></img></td>
  </tr>
  <tr height=200>
    <td width=300><img src=""static/images/keys/z.svg"" width=""35%"" height=""75%""></img></td>
    <td width=300><img src=""static/images/keys/m.svg"" width=""35%"" height=""75%""></img></td>
  </tr>
</table>
  ",77.0,,,,,,,,,,,,,,,,,,,,,,,,,1.0,,
185,0,,html-keyboard-response,185,512588,0.0-7.7-2.7,ifgq393xvo,2022-09-19 17:10:24.553,605f64ae5862018ec5eb9370,3,38,63,61,28,23,male,,,"
  <table>
  <tr height=300>
    <td width=300 height=300><img src=""static/images/cards/back_of_black_stars.svg"" width=""175px"" height=""250px""></img></td>
    <td width=300 height=300><img src=""static/images/cards/4_of_black_stars.svg"" width=""175px"" height=""250px""></img></td>
  </tr>
  <tr height=200>
    <td width=300><img src=""static/images/keys/z.svg"" width=""35%"" height=""75%""></img></td>
    <td width=300><img src=""static/images/keys/m.svg"" width=""35%"" height=""75%""></img></td>
  </tr>
</table>
  ",,,,,,,,,,,,,,,,,,,,,,,,,,,,
186,0,,html-keyboard-response,186,514102,0.0-7.7-3.7,ifgq393xvo,2022-09-19 17:10:24.553,605f64ae5862018ec5eb9370,3,38,63,61,28,23,male,,,"<p style=""font-size:50px"">You win!
+10 points this round!</p>",,,,,,,,,,,,,,,,,,,,,,,,,,,,
187,0,,html-keyboard-response,187,514616,0.0-7.7-4.7,ifgq393xvo,2022-09-19 17:10:24.553,605f64ae5862018ec5eb9370,3,38,63,61,28,23,male,,,,,1.0,choice,7.0,B,C,red,black,moons,stars,B,C,C,black,stars,876.1000000089,1.0,0.0,NA,right,1616.6999999881,4.0,0.0,1.0,,,,
188,0,,html-keyboard-response,188,516325,0.0-7.8-0.8,ifgq393xvo,2022-09-19 17:10:24.553,605f64ae5862018ec5eb9370,3,38,63,61,28,23,male,1707.299999997,,"
  <table>
  <tr height=300>
    <td width=300 height=300><img src=""static/images/cards/stack_of_red_bolts.svg"" width=""175px"" height=""250px""></img></td>
    <td width=300 height=300><img src=""static/images/cards/stack_of_black_stars.svg"" width=""175px"" height=""250px""></img></td>
  </tr>
  <tr height=200>
    <td width=300><img src=""static/images/keys/w.svg"" width=""35%"" height=""75%""></img></td>
    <td width=300><img src=""static/images/keys/o.svg"" width=""35%"" height=""75%""></img></td>
  </tr>
</table>
  ",87.0,,,,,,,,,,,,,,,,,,,,,,,,,1.0,,
189,0,,html-keyboard-response,189,518420,0.0-7.8-1.8,ifgq393xvo,2022-09-19 17:10:24.553,605f64ae5862018ec5eb9370,3,38,63,61,28,23,male,1584.0,,"
  <table>
  <tr height=300>
    <td width=300 height=300><img src=""static/images/cards/back_of_red_bolts.svg"" width=""175px"" height=""250px""></img></td>
    <td width=300 height=300><img src=""static/images/cards/back_of_red_bolts.svg"" width=""175px"" height=""250px""></img></td>
  </tr>
  <tr height=200>
    <td width=300><img src=""static/images/keys/z.svg"" width=""35%"" height=""75%""></img></td>
    <td width=300><img src=""static/images/keys/m.svg"" width=""35%"" height=""75%""></img></td>
  </tr>
</table>
  ",77.0,,,,,,,,,,,,,,,,,,,,,,,,,1.0,,
190,0,,html-keyboard-response,190,519924,0.0-7.8-2.8,ifgq393xvo,2022-09-19 17:10:24.553,605f64ae5862018ec5eb9370,3,38,63,61,28,23,male,,,"
  <table>
  <tr height=300>
    <td width=300 height=300><img src=""static/images/cards/back_of_red_bolts.svg"" width=""175px"" height=""250px""></img></td>
    <td width=300 height=300><img src=""static/images/cards/2_of_red_bolts.svg"" width=""175px"" height=""250px""></img></td>
  </tr>
  <tr height=200>
    <td width=300><img src=""static/images/keys/z.svg"" width=""35%"" height=""75%""></img></td>
    <td width=300><img src=""static/images/keys/m.svg"" width=""35%"" height=""75%""></img></td>
  </tr>
</table>
  ",,,,,,,,,,,,,,,,,,,,,,,,,,,,
191,0,,html-keyboard-response,191,521439,0.0-7.8-3.8,ifgq393xvo,2022-09-19 17:10:24.553,605f64ae5862018ec5eb9370,3,38,63,61,28,23,male,,,"<p style=""font-size:50px"">You win!
+10 points this round!</p>",,,,,,,,,,,,,,,,,,,,,,,,,,,,
192,0,,html-keyboard-response,192,521951,0.0-7.8-4.8,ifgq393xvo,2022-09-19 17:10:24.553,605f64ae5862018ec5eb9370,3,38,63,61,28,23,male,,,,,1.0,choice,8.0,C,Xc,red,black,bolts,stars,Xc,C,Xc,red,bolts,1707.299999997,1.0,0.0,NA,right,1584.0,2.0,0.0,1.0,,,,
193,0,,html-keyboard-response,193,523524,0.0-7.9-0.9,ifgq393xvo,2022-09-19 17:10:24.553,605f64ae5862018ec5eb9370,3,38,63,61,28,23,male,1570.8999999911,,"
  <table>
  <tr height=300>
    <td width=300 height=300><img src=""static/images/cards/stack_of_red_stars.svg"" width=""175px"" height=""250px""></img></td>
    <td width=300 height=300><img src=""static/images/cards/stack_of_red_moons.svg"" width=""175px"" height=""250px""></img></td>
  </tr>
  <tr height=200>
    <td width=300><img src=""static/images/keys/w.svg"" width=""35%"" height=""75%""></img></td>
    <td width=300><img src=""static/images/keys/o.svg"" width=""35%"" height=""75%""></img></td>
  </tr>
</table>
  ",87.0,,,,,,,,,,,,,,,,,,,,,,,,,1.0,,
194,0,,html-keyboard-response,194,525170,0.0-7.9-1.9,ifgq393xvo,2022-09-19 17:10:24.553,605f64ae5862018ec5eb9370,3,38,63,61,28,23,male,1143.299999997,,"
  <table>
  <tr height=300>
    <td width=300 height=300><img src=""static/images/cards/back_of_red_stars.svg"" width=""175px"" height=""250px""></img></td>
    <td width=300 height=300><img src=""static/images/cards/back_of_red_stars.svg"" width=""175px"" height=""250px""></img></td>
  </tr>
  <tr height=200>
    <td width=300></td>
    <td width=300><img src=""static/images/keys/m.svg"" width=""35%"" height=""75%""></img></td>
  </tr>
</table>
  ",77.0,,,,,,,,,,,,,,,,,,,,,,,,,1.0,,
195,0,,html-keyboard-response,195,526683,0.0-7.9-2.9,ifgq393xvo,2022-09-19 17:10:24.553,605f64ae5862018ec5eb9370,3,38,63,61,28,23,male,,,"
  <table>
  <tr height=300>
    <td width=300 height=300><img src=""static/images/cards/back_of_red_stars.svg"" width=""175px"" height=""250px""></img></td>
    <td width=300 height=300><img src=""static/images/cards/6_of_red_stars.svg"" width=""175px"" height=""250px""></img></td>
  </tr>
  <tr height=200>
    <td width=300></td>
    <td width=300><img src=""static/images/keys/m.svg"" width=""35%"" height=""75%""></img></td>
  </tr>
</table>
  ",,,,,,,,,,,,,,,,,,,,,,,,,,,,
196,0,,html-keyboard-response,196,528193,0.0-7.9-3.9,ifgq393xvo,2022-09-19 17:10:24.553,605f64ae5862018ec5eb9370,3,38,63,61,28,23,male,,,"<p style=""font-size:50px"">You Lose!
No points this round.</p>",,,,,,,,,,,,,,,,,,,,,,,,,,,,
197,0,,html-keyboard-response,197,528708,0.0-7.9-4.9,ifgq393xvo,2022-09-19 17:10:24.553,605f64ae5862018ec5eb9370,3,38,63,61,28,23,male,,,,,1.0,choice,9.0,B,D,red,red,stars,moons,D,B,D,red,stars,1570.8999999911,0.0,0.0,0,right,1143.299999997,6.0,1.0,0.0,,,,
198,0,,html-keyboard-response,198,530093,0.0-7.10-0.10,ifgq393xvo,2022-09-19 17:10:24.553,605f64ae5862018ec5eb9370,3,38,63,61,28,23,male,1383.8000000119,,"
  <table>
  <tr height=300>
    <td width=300 height=300><img src=""static/images/cards/stack_of_red_stars.svg"" width=""175px"" height=""250px""></img></td>
    <td width=300 height=300><img src=""static/images/cards/stack_of_black_moons.svg"" width=""175px"" height=""250px""></img></td>
  </tr>
  <tr height=200>
    <td width=300><img src=""static/images/keys/w.svg"" width=""35%"" height=""75%""></img></td>
    <td width=300><img src=""static/images/keys/o.svg"" width=""35%"" height=""75%""></img></td>
  </tr>
</table>
  ",87.0,,,,,,,,,,,,,,,,,,,,,,,,,1.0,,
199,0,,html-keyboard-response,199,531468,0.0-7.10-1.10,ifgq393xvo,2022-09-19 17:10:24.553,605f64ae5862018ec5eb9370,3,38,63,61,28,23,male,872.299999997,,"
  <table>
  <tr height=300>
    <td width=300 height=300><img src=""static/images/cards/back_of_red_stars.svg"" width=""175px"" height=""250px""></img></td>
    <td width=300 height=300><img src=""static/images/cards/back_of_red_stars.svg"" width=""175px"" height=""250px""></img></td>
  </tr>
  <tr height=200>
    <td width=300></td>
    <td width=300><img src=""static/images/keys/m.svg"" width=""35%"" height=""75%""></img></td>
  </tr>
</table>
  ",77.0,,,,,,,,,,,,,,,,,,,,,,,,,1.0,,
200,0,,html-keyboard-response,200,532981,0.0-7.10-2.10,ifgq393xvo,2022-09-19 17:10:24.553,605f64ae5862018ec5eb9370,3,38,63,61,28,23,male,,,"
  <table>
  <tr height=300>
    <td width=300 height=300><img src=""static/images/cards/back_of_red_stars.svg"" width=""175px"" height=""250px""></img></td>
    <td width=300 height=300><img src=""static/images/cards/2_of_red_stars.svg"" width=""175px"" height=""250px""></img></td>
  </tr>
  <tr height=200>
    <td width=300></td>
    <td width=300><img src=""static/images/keys/m.svg"" width=""35%"" height=""75%""></img></td>
  </tr>
</table>
  ",,,,,,,,,,,,,,,,,,,,,,,,,,,,
201,0,,html-keyboard-response,201,534495,0.0-7.10-3.10,ifgq393xvo,2022-09-19 17:10:24.553,605f64ae5862018ec5eb9370,3,38,63,61,28,23,male,,,"<p style=""font-size:50px"">You Lose!
No points this round.</p>",,,,,,,,,,,,,,,,,,,,,,,,,,,,
202,0,,html-keyboard-response,202,535005,0.0-7.10-4.10,ifgq393xvo,2022-09-19 17:10:24.553,605f64ae5862018ec5eb9370,3,38,63,61,28,23,male,,,,,1.0,choice,10.0,A,D,red,black,stars,moons,D,A,D,red,stars,1383.8000000119,0.0,0.0,0,right,872.299999997,2.0,0.0,0.0,,,,
203,0,,html-keyboard-response,203,536288,0.0-7.11-0.11,ifgq393xvo,2022-09-19 17:10:24.553,605f64ae5862018ec5eb9370,3,38,63,61,28,23,male,1280.900000006,,"
  <table>
  <tr height=300>
    <td width=300 height=300><img src=""static/images/cards/stack_of_red_stars.svg"" width=""175px"" height=""250px""></img></td>
    <td width=300 height=300><img src=""static/images/cards/stack_of_red_moons.svg"" width=""175px"" height=""250px""></img></td>
  </tr>
  <tr height=200>
    <td width=300><img src=""static/images/keys/w.svg"" width=""35%"" height=""75%""></img></td>
    <td width=300><img src=""static/images/keys/o.svg"" width=""35%"" height=""75%""></img></td>
  </tr>
</table>
  ",87.0,,,,,,,,,,,,,,,,,,,,,,,,,1.0,,
204,0,,html-keyboard-response,204,537893,0.0-7.11-1.11,ifgq393xvo,2022-09-19 17:10:24.553,605f64ae5862018ec5eb9370,3,38,63,61,28,23,male,1094.200000003,,"
  <table>
  <tr height=300>
    <td width=300 height=300><img src=""static/images/cards/back_of_red_stars.svg"" width=""175px"" height=""250px""></img></td>
    <td width=300 height=300><img src=""static/images/cards/back_of_red_stars.svg"" width=""175px"" height=""250px""></img></td>
  </tr>
  <tr height=200>
    <td width=300></td>
    <td width=300><img src=""static/images/keys/m.svg"" width=""35%"" height=""75%""></img></td>
  </tr>
</table>
  ",77.0,,,,,,,,,,,,,,,,,,,,,,,,,1.0,,
205,0,,html-keyboard-response,205,539404,0.0-7.11-2.11,ifgq393xvo,2022-09-19 17:10:24.553,605f64ae5862018ec5eb9370,3,38,63,61,28,23,male,,,"
  <table>
  <tr height=300>
    <td width=300 height=300><img src=""static/images/cards/back_of_red_stars.svg"" width=""175px"" height=""250px""></img></td>
    <td width=300 height=300><img src=""static/images/cards/1_of_red_stars.svg"" width=""175px"" height=""250px""></img></td>
  </tr>
  <tr height=200>
    <td width=300></td>
    <td width=300><img src=""static/images/keys/m.svg"" width=""35%"" height=""75%""></img></td>
  </tr>
</table>
  ",,,,,,,,,,,,,,,,,,,,,,,,,,,,
206,0,,html-keyboard-response,206,540921,0.0-7.11-3.11,ifgq393xvo,2022-09-19 17:10:24.553,605f64ae5862018ec5eb9370,3,38,63,61,28,23,male,,,"<p style=""font-size:50px"">You Lose!
No points this round.</p>",,,,,,,,,,,,,,,,,,,,,,,,,,,,
207,0,,html-keyboard-response,207,541432,0.0-7.11-4.11,ifgq393xvo,2022-09-19 17:10:24.553,605f64ae5862018ec5eb9370,3,38,63,61,28,23,male,,,,,1.0,choice,11.0,B,D,red,red,stars,moons,D,B,D,red,stars,1280.900000006,0.0,0.0,0,right,1094.200000003,1.0,0.0,0.0,,,,
208,0,,html-keyboard-response,208,542681,0.0-7.12-0.12,ifgq393xvo,2022-09-19 17:10:24.553,605f64ae5862018ec5eb9370,3,38,63,61,28,23,male,1247.1000000089,,"
  <table>
  <tr height=300>
    <td width=300 height=300><img src=""static/images/cards/stack_of_red_stars.svg"" width=""175px"" height=""250px""></img></td>
    <td width=300 height=300><img src=""static/images/cards/stack_of_black_stars.svg"" width=""175px"" height=""250px""></img></td>
  </tr>
  <tr height=200>
    <td width=300><img src=""static/images/keys/w.svg"" width=""35%"" height=""75%""></img></td>
    <td width=300><img src=""static/images/keys/o.svg"" width=""35%"" height=""75%""></img></td>
  </tr>
</table>
  ",79.0,,,,,,,,,,,,,,,,,,,,,,,,,1.0,,
209,0,,html-keyboard-response,209,544513,0.0-7.12-1.12,ifgq393xvo,2022-09-19 17:10:24.553,605f64ae5862018ec5eb9370,3,38,63,61,28,23,male,1322.0,,"
  <table>
  <tr height=300>
    <td width=300 height=300><img src=""static/images/cards/back_of_black_stars.svg"" width=""175px"" height=""250px""></img></td>
    <td width=300 height=300><img src=""static/images/cards/back_of_black_stars.svg"" width=""175px"" height=""250px""></img></td>
  </tr>
  <tr height=200>
    <td width=300><img src=""static/images/keys/z.svg"" width=""35%"" height=""75%""></img></td>
    <td width=300><img src=""static/images/keys/m.svg"" width=""35%"" height=""75%""></img></td>
  </tr>
</table>
  ",77.0,,,,,,,,,,,,,,,,,,,,,,,,,1.0,,
210,0,,html-keyboard-response,210,546019,0.0-7.12-2.12,ifgq393xvo,2022-09-19 17:10:24.553,605f64ae5862018ec5eb9370,3,38,63,61,28,23,male,,,"
  <table>
  <tr height=300>
    <td width=300 height=300><img src=""static/images/cards/back_of_black_stars.svg"" width=""175px"" height=""250px""></img></td>
    <td width=300 height=300><img src=""static/images/cards/3_of_black_stars.svg"" width=""175px"" height=""250px""></img></td>
  </tr>
  <tr height=200>
    <td width=300><img src=""static/images/keys/z.svg"" width=""35%"" height=""75%""></img></td>
    <td width=300><img src=""static/images/keys/m.svg"" width=""35%"" height=""75%""></img></td>
  </tr>
</table>
  ",,,,,,,,,,,,,,,,,,,,,,,,,,,,
211,0,,html-keyboard-response,211,547532,0.0-7.12-3.12,ifgq393xvo,2022-09-19 17:10:24.553,605f64ae5862018ec5eb9370,3,38,63,61,28,23,male,,,"<p style=""font-size:50px"">You Lose!
No points this round.</p>",,,,,,,,,,,,,,,,,,,,,,,,,,,,
212,0,,html-keyboard-response,212,548044,0.0-7.12-4.12,ifgq393xvo,2022-09-19 17:10:24.553,605f64ae5862018ec5eb9370,3,38,63,61,28,23,male,,,,,1.0,choice,12.0,C,D,red,black,stars,stars,D,C,C,black,stars,1247.1000000089,1.0,0.0,NA,right,1322.0,3.0,0.0,0.0,,,,
213,0,,html-keyboard-response,213,550302,0.0-7.13-0.13,ifgq393xvo,2022-09-19 17:10:24.553,605f64ae5862018ec5eb9370,3,38,63,61,28,23,male,2256.0,,"
  <table>
  <tr height=300>
    <td width=300 height=300><img src=""static/images/cards/stack_of_red_moons.svg"" width=""175px"" height=""250px""></img></td>
    <td width=300 height=300><img src=""static/images/cards/stack_of_black_stars.svg"" width=""175px"" height=""250px""></img></td>
  </tr>
  <tr height=200>
    <td width=300><img src=""static/images/keys/w.svg"" width=""35%"" height=""75%""></img></td>
    <td width=300><img src=""static/images/keys/o.svg"" width=""35%"" height=""75%""></img></td>
  </tr>
</table>
  ",87.0,,,,,,,,,,,,,,,,,,,,,,,,,1.0,,
214,0,,html-keyboard-response,214,551574,0.0-7.13-1.13,ifgq393xvo,2022-09-19 17:10:24.553,605f64ae5862018ec5eb9370,3,38,63,61,28,23,male,760.299999997,,"
  <table>
  <tr height=300>
    <td width=300 height=300><img src=""static/images/cards/back_of_red_moons.svg"" width=""175px"" height=""250px""></img></td>
    <td width=300 height=300><img src=""static/images/cards/back_of_red_moons.svg"" width=""175px"" height=""250px""></img></td>
  </tr>
  <tr height=200>
    <td width=300></td>
    <td width=300><img src=""static/images/keys/m.svg"" width=""35%"" height=""75%""></img></td>
  </tr>
</table>
  ",77.0,,,,,,,,,,,,,,,,,,,,,,,,,1.0,,
215,0,,html-keyboard-response,215,553088,0.0-7.13-2.13,ifgq393xvo,2022-09-19 17:10:24.553,605f64ae5862018ec5eb9370,3,38,63,61,28,23,male,,,"
  <table>
  <tr height=300>
    <td width=300 height=300><img src=""static/images/cards/back_of_red_moons.svg"" width=""175px"" height=""250px""></img></td>
    <td width=300 height=300><img src=""static/images/cards/4_of_red_moons.svg"" width=""175px"" height=""250px""></img></td>
  </tr>
  <tr height=200>
    <td width=300></td>
    <td width=300><img src=""static/images/keys/m.svg"" width=""35%"" height=""75%""></img></td>
  </tr>
</table>
  ",,,,,,,,,,,,,,,,,,,,,,,,,,,,
216,0,,html-keyboard-response,216,554602,0.0-7.13-3.13,ifgq393xvo,2022-09-19 17:10:24.553,605f64ae5862018ec5eb9370,3,38,63,61,28,23,male,,,"<p style=""font-size:50px"">You Lose!
No points this round.</p>",,,,,,,,,,,,,,,,,,,,,,,,,,,,
217,0,,html-keyboard-response,217,555129,0.0-7.13-4.13,ifgq393xvo,2022-09-19 17:10:24.553,605f64ae5862018ec5eb9370,3,38,63,61,28,23,male,,,,,1.0,choice,13.0,B,C,red,black,moons,stars,B,C,B,red,moons,2256.0,0.0,1.0,0,right,760.299999997,4.0,0.0,0.0,,,,
218,0,,html-keyboard-response,218,557570,0.0-7.14-0.14,ifgq393xvo,2022-09-19 17:10:24.553,605f64ae5862018ec5eb9370,3,38,63,61,28,23,male,2452.700000003,,"
  <table>
  <tr height=300>
    <td width=300 height=300><img src=""static/images/cards/stack_of_black_moons.svg"" width=""175px"" height=""250px""></img></td>
    <td width=300 height=300><img src=""static/images/cards/stack_of_black_stars.svg"" width=""175px"" height=""250px""></img></td>
  </tr>
  <tr height=200>
    <td width=300><img src=""static/images/keys/w.svg"" width=""35%"" height=""75%""></img></td>
    <td width=300><img src=""static/images/keys/o.svg"" width=""35%"" height=""75%""></img></td>
  </tr>
</table>
  ",79.0,,,,,,,,,,,,,,,,,,,,,,,,,1.0,,
219,0,,html-keyboard-response,219,558929,0.0-7.14-1.14,ifgq393xvo,2022-09-19 17:10:24.553,605f64ae5862018ec5eb9370,3,38,63,61,28,23,male,846.3999999911,,"
  <table>
  <tr height=300>
    <td width=300 height=300><img src=""static/images/cards/back_of_black_stars.svg"" width=""175px"" height=""250px""></img></td>
    <td width=300 height=300><img src=""static/images/cards/back_of_black_stars.svg"" width=""175px"" height=""250px""></img></td>
  </tr>
  <tr height=200>
    <td width=300><img src=""static/images/keys/z.svg"" width=""35%"" height=""75%""></img></td>
    <td width=300><img src=""static/images/keys/m.svg"" width=""35%"" height=""75%""></img></td>
  </tr>
</table>
  ",90.0,,,,,,,,,,,,,,,,,,,,,,,,,1.0,,
220,0,,html-keyboard-response,220,560444,0.0-7.14-2.14,ifgq393xvo,2022-09-19 17:10:24.553,605f64ae5862018ec5eb9370,3,38,63,61,28,23,male,,,"
  <table>
  <tr height=300>
    <td width=300 height=300><img src=""static/images/cards/9_of_black_stars.svg"" width=""175px"" height=""250px""></img></td>
    <td width=300 height=300><img src=""static/images/cards/back_of_black_stars.svg"" width=""175px"" height=""250px""></img></td>
  </tr>
  <tr height=200>
    <td width=300><img src=""static/images/keys/z.svg"" width=""35%"" height=""75%""></img></td>
    <td width=300><img src=""static/images/keys/m.svg"" width=""35%"" height=""75%""></img></td>
  </tr>
</table>
  ",,,,,,,,,,,,,,,,,,,,,,,,,,,,
221,0,,html-keyboard-response,221,561958,0.0-7.14-3.14,ifgq393xvo,2022-09-19 17:10:24.553,605f64ae5862018ec5eb9370,3,38,63,61,28,23,male,,,"<p style=""font-size:50px"">You win!
+10 points this round!</p>",,,,,,,,,,,,,,,,,,,,,,,,,,,,
222,0,,html-keyboard-response,222,562471,0.0-7.14-4.14,ifgq393xvo,2022-09-19 17:10:24.553,605f64ae5862018ec5eb9370,3,38,63,61,28,23,male,,,,,1.0,choice,14.0,A,C,black,black,moons,stars,A,C,C,black,stars,2452.700000003,1.0,0.0,NA,left,846.3999999911,9.0,1.0,1.0,,,,
223,0,,html-keyboard-response,223,563850,0.0-7.15-0.15,ifgq393xvo,2022-09-19 17:10:24.553,605f64ae5862018ec5eb9370,3,38,63,61,28,23,male,1376.799999997,,"
  <table>
  <tr height=300>
    <td width=300 height=300><img src=""static/images/cards/stack_of_black_stars.svg"" width=""175px"" height=""250px""></img></td>
    <td width=300 height=300><img src=""static/images/cards/stack_of_red_stars.svg"" width=""175px"" height=""250px""></img></td>
  </tr>
  <tr height=200>
    <td width=300><img src=""static/images/keys/w.svg"" width=""35%"" height=""75%""></img></td>
    <td width=300><img src=""static/images/keys/o.svg"" width=""35%"" height=""75%""></img></td>
  </tr>
</table>
  ",87.0,,,,,,,,,,,,,,,,,,,,,,,,,1.0,,
224,0,,html-keyboard-response,224,565210,0.0-7.15-1.15,ifgq393xvo,2022-09-19 17:10:24.553,605f64ae5862018ec5eb9370,3,38,63,61,28,23,male,847.599999994,,"
  <table>
  <tr height=300>
    <td width=300 height=300><img src=""static/images/cards/back_of_black_stars.svg"" width=""175px"" height=""250px""></img></td>
    <td width=300 height=300><img src=""static/images/cards/back_of_black_stars.svg"" width=""175px"" height=""250px""></img></td>
  </tr>
  <tr height=200>
    <td width=300><img src=""static/images/keys/z.svg"" width=""35%"" height=""75%""></img></td>
    <td width=300><img src=""static/images/keys/m.svg"" width=""35%"" height=""75%""></img></td>
  </tr>
</table>
  ",90.0,,,,,,,,,,,,,,,,,,,,,,,,,1.0,,
225,0,,html-keyboard-response,225,566725,0.0-7.15-2.15,ifgq393xvo,2022-09-19 17:10:24.553,605f64ae5862018ec5eb9370,3,38,63,61,28,23,male,,,"
  <table>
  <tr height=300>
    <td width=300 height=300><img src=""static/images/cards/9_of_black_stars.svg"" width=""175px"" height=""250px""></img></td>
    <td width=300 height=300><img src=""static/images/cards/back_of_black_stars.svg"" width=""175px"" height=""250px""></img></td>
  </tr>
  <tr height=200>
    <td width=300><img src=""static/images/keys/z.svg"" width=""35%"" height=""75%""></img></td>
    <td width=300><img src=""static/images/keys/m.svg"" width=""35%"" height=""75%""></img></td>
  </tr>
</table>
  ",,,,,,,,,,,,,,,,,,,,,,,,,,,,
226,0,,html-keyboard-response,226,568246,0.0-7.15-3.15,ifgq393xvo,2022-09-19 17:10:24.553,605f64ae5862018ec5eb9370,3,38,63,61,28,23,male,,,"<p style=""font-size:50px"">You Lose!
No points this round.</p>",,,,,,,,,,,,,,,,,,,,,,,,,,,,
227,0,,html-keyboard-response,227,568765,0.0-7.15-4.15,ifgq393xvo,2022-09-19 17:10:24.553,605f64ae5862018ec5eb9370,3,38,63,61,28,23,male,,,,,1.0,choice,15.0,C,D,black,red,stars,stars,C,D,C,black,stars,1376.799999997,1.0,0.0,NA,left,847.599999994,9.0,1.0,0.0,,,,
228,0,,html-keyboard-response,228,570157,0.0-7.16-0.16,ifgq393xvo,2022-09-19 17:10:24.553,605f64ae5862018ec5eb9370,3,38,63,61,28,23,male,1390.299999997,,"
  <table>
  <tr height=300>
    <td width=300 height=300><img src=""static/images/cards/stack_of_red_moons.svg"" width=""175px"" height=""250px""></img></td>
    <td width=300 height=300><img src=""static/images/cards/stack_of_black_moons.svg"" width=""175px"" height=""250px""></img></td>
  </tr>
  <tr height=200>
    <td width=300><img src=""static/images/keys/w.svg"" width=""35%"" height=""75%""></img></td>
    <td width=300><img src=""static/images/keys/o.svg"" width=""35%"" height=""75%""></img></td>
  </tr>
</table>
  ",79.0,,,,,,,,,,,,,,,,,,,,,,,,,1.0,,
229,0,,html-keyboard-response,229,571626,0.0-7.16-1.16,ifgq393xvo,2022-09-19 17:10:24.553,605f64ae5862018ec5eb9370,3,38,63,61,28,23,male,957.900000006,,"
  <table>
  <tr height=300>
    <td width=300 height=300><img src=""static/images/cards/back_of_black_moons.svg"" width=""175px"" height=""250px""></img></td>
    <td width=300 height=300><img src=""static/images/cards/back_of_black_moons.svg"" width=""175px"" height=""250px""></img></td>
  </tr>
  <tr height=200>
    <td width=300><img src=""static/images/keys/z.svg"" width=""35%"" height=""75%""></img></td>
    <td width=300><img src=""static/images/keys/m.svg"" width=""35%"" height=""75%""></img></td>
  </tr>
</table>
  ",77.0,,,,,,,,,,,,,,,,,,,,,,,,,1.0,,
230,0,,html-keyboard-response,230,573136,0.0-7.16-2.16,ifgq393xvo,2022-09-19 17:10:24.553,605f64ae5862018ec5eb9370,3,38,63,61,28,23,male,,,"
  <table>
  <tr height=300>
    <td width=300 height=300><img src=""static/images/cards/back_of_black_moons.svg"" width=""175px"" height=""250px""></img></td>
    <td width=300 height=300><img src=""static/images/cards/4_of_black_moons.svg"" width=""175px"" height=""250px""></img></td>
  </tr>
  <tr height=200>
    <td width=300><img src=""static/images/keys/z.svg"" width=""35%"" height=""75%""></img></td>
    <td width=300><img src=""static/images/keys/m.svg"" width=""35%"" height=""75%""></img></td>
  </tr>
</table>
  ",,,,,,,,,,,,,,,,,,,,,,,,,,,,
231,0,,html-keyboard-response,231,574653,0.0-7.16-3.16,ifgq393xvo,2022-09-19 17:10:24.553,605f64ae5862018ec5eb9370,3,38,63,61,28,23,male,,,"<p style=""font-size:50px"">You Lose!
No points this round.</p>",,,,,,,,,,,,,,,,,,,,,,,,,,,,
232,0,,html-keyboard-response,232,575169,0.0-7.16-4.16,ifgq393xvo,2022-09-19 17:10:24.553,605f64ae5862018ec5eb9370,3,38,63,61,28,23,male,,,,,1.0,choice,16.0,A,B,red,black,moons,moons,B,A,A,black,moons,1390.299999997,1.0,1.0,NA,right,957.900000006,4.0,0.0,0.0,,,,
233,0,,html-keyboard-response,233,576101,0.0-7.17-0.17,ifgq393xvo,2022-09-19 17:10:24.553,605f64ae5862018ec5eb9370,3,38,63,61,28,23,male,930.200000003,,"
  <table>
  <tr height=300>
    <td width=300 height=300><img src=""static/images/cards/stack_of_black_moons.svg"" width=""175px"" height=""250px""></img></td>
    <td width=300 height=300><img src=""static/images/cards/stack_of_black_stars.svg"" width=""175px"" height=""250px""></img></td>
  </tr>
  <tr height=200>
    <td width=300><img src=""static/images/keys/w.svg"" width=""35%"" height=""75%""></img></td>
    <td width=300><img src=""static/images/keys/o.svg"" width=""35%"" height=""75%""></img></td>
  </tr>
</table>
  ",79.0,,,,,,,,,,,,,,,,,,,,,,,,,1.0,,
234,0,,html-keyboard-response,234,577477,0.0-7.17-1.17,ifgq393xvo,2022-09-19 17:10:24.553,605f64ae5862018ec5eb9370,3,38,63,61,28,23,male,864.8999999911,,"
  <table>
  <tr height=300>
