,index,success,trial_type,trial_index,time_elapsed,internal_node_id,subject,date,prol_id,ctbl,sense_of_control_A,sense_of_control_B,sense_of_control_C,sense_of_control_D,age,gender,rt,url,stimulus,key_press,npress,is_data_trial,phase,trial,deck1,deck2,col1,col2,sym1,sym2,deck_l,deck_r,chosen_deck,chosen_col,chosen_sym,deck_rt,choose_choice,mutual_info,hidden_key,chosen_card,card_rt,player_num,win_card,outcome,mock_rating,response,responses
0,0,1.0,fullscreen,0,3684,0.0-0.0,5pnlyk629hr,2022-09-19 14:52:44.739,5f8b4560fc6686262722efdb,3,35,39,24,22,41,female,,,,,,,,,,,,,,,,,,,,,,,,,,,,,,,
1,0,,external-html,1,15535,0.0-1.0,5pnlyk629hr,2022-09-19 14:52:44.739,5f8b4560fc6686262722efdb,3,35,39,24,22,41,female,11714.6999999993,static/js/sub/consent.html,,,,,,,,,,,,,,,,,,,,,,,,,,,,,
2,0,,call-function,2,15536,0.0-2.0,5pnlyk629hr,2022-09-19 14:52:44.739,5f8b4560fc6686262722efdb,3,35,39,24,22,41,female,,,,,,,,,,,,,,,,,,,,,,,,,,,,,,,
3,0,,image-keyboard-response,3,28335,0.0-3.0-0.0,5pnlyk629hr,2022-09-19 14:52:44.739,5f8b4560fc6686262722efdb,3,35,39,24,22,41,female,12797.6000000015,,static/images/instructions_CB_3/Slide1.png,39.0,,,,,,,,,,,,,,,,,,,,,,,,,,,
4,0,,image-keyboard-response,4,45271,0.0-3.1-0.1,5pnlyk629hr,2022-09-19 14:52:44.739,5f8b4560fc6686262722efdb,3,35,39,24,22,41,female,16934.6999999993,,static/images/instructions_CB_3/Slide2.png,39.0,,,,,,,,,,,,,,,,,,,,,,,,,,,
5,0,,image-keyboard-response,5,61813,0.0-3.2-0.2,5pnlyk629hr,2022-09-19 14:52:44.739,5f8b4560fc6686262722efdb,3,35,39,24,22,41,female,16541.5,,static/images/instructions_CB_3/Slide3.png,39.0,,,,,,,,,,,,,,,,,,,,,,,,,,,
6,0,,image-keyboard-response,6,74752,0.0-3.3-0.3,5pnlyk629hr,2022-09-19 14:52:44.739,5f8b4560fc6686262722efdb,3,35,39,24,22,41,female,12937.8000000007,,static/images/instructions_CB_3/Slide4.png,39.0,,,,,,,,,,,,,,,,,,,,,,,,,,,
7,0,,image-keyboard-response,7,87779,0.0-3.4-0.4,5pnlyk629hr,2022-09-19 14:52:44.739,5f8b4560fc6686262722efdb,3,35,39,24,22,41,female,13024.700000003,,static/images/instructions_CB_3/Slide5.png,39.0,,,,,,,,,,,,,,,,,,,,,,,,,,,
8,0,,image-keyboard-response,8,92125,0.0-3.5-0.5,5pnlyk629hr,2022-09-19 14:52:44.739,5f8b4560fc6686262722efdb,3,35,39,24,22,41,female,4345.3999999985,,static/images/instructions_CB_3/Slide6.png,39.0,,,,,,,,,,,,,,,,,,,,,,,,,,,
9,0,,image-keyboard-response,9,99674,0.0-3.6-0.6,5pnlyk629hr,2022-09-19 14:52:44.739,5f8b4560fc6686262722efdb,3,35,39,24,22,41,female,7548.6000000015,,static/images/instructions_CB_3/Slide7.png,39.0,,,,,,,,,,,,,,,,,,,,,,,,,,,
10,0,,image-keyboard-response,10,127613,0.0-3.7-0.7,5pnlyk629hr,2022-09-19 14:52:44.739,5f8b4560fc6686262722efdb,3,35,39,24,22,41,female,27938.3000000007,,static/images/instructions_CB_3/Slide8.png,39.0,,,,,,,,,,,,,,,,,,,,,,,,,,,
11,0,,image-keyboard-response,11,142097,0.0-3.8-0.8,5pnlyk629hr,2022-09-19 14:52:44.739,5f8b4560fc6686262722efdb,3,35,39,24,22,41,female,14482.1999999993,,static/images/instructions_CB_3/Slide9.png,39.0,,,,,,,,,,,,,,,,,,,,,,,,,,,
12,0,,image-keyboard-response,12,171308,0.0-3.9-0.9,5pnlyk629hr,2022-09-19 14:52:44.739,5f8b4560fc6686262722efdb,3,35,39,24,22,41,female,29209.6999999993,,static/images/instructions_CB_3/Slide10.png,39.0,,,,,,,,,,,,,,,,,,,,,,,,,,,
13,0,,image-keyboard-response,13,180816,0.0-3.10-0.10,5pnlyk629hr,2022-09-19 14:52:44.739,5f8b4560fc6686262722efdb,3,35,39,24,22,41,female,9506.6999999993,,static/images/instructions_CB_3/Slide11.png,39.0,,,,,,,,,,,,,,,,,,,,,,,,,,,
14,0,,image-keyboard-response,14,201264,0.0-3.11-0.11,5pnlyk629hr,2022-09-19 14:52:44.739,5f8b4560fc6686262722efdb,3,35,39,24,22,41,female,20447.5999999978,,static/images/instructions_CB_3/Slide12.png,39.0,,,,,,,,,,,,,,,,,,,,,,,,,,,
15,0,,image-keyboard-response,15,202277,0.0-3.12-0.12,5pnlyk629hr,2022-09-19 14:52:44.739,5f8b4560fc6686262722efdb,3,35,39,24,22,41,female,1011.700000003,,static/images/instructions_CB_3/Slide13.png,39.0,,,,,,,,,,,,,,,,,,,,,,,,,,,
16,0,,image-keyboard-response,16,204060,0.0-3.13-0.13,5pnlyk629hr,2022-09-19 14:52:44.739,5f8b4560fc6686262722efdb,3,35,39,24,22,41,female,1781.8999999985,,static/images/instructions_CB_3/Slide14.png,37.0,,,,,,,,,,,,,,,,,,,,,,,,,,,
17,0,,image-keyboard-response,17,227288,0.0-3.14-0.14,5pnlyk629hr,2022-09-19 14:52:44.739,5f8b4560fc6686262722efdb,3,35,39,24,22,41,female,23227.6999999993,,static/images/instructions_CB_3/Slide13.png,39.0,,,,,,,,,,,,,,,,,,,,,,,,,,,
18,0,,image-keyboard-response,18,234526,0.0-3.15-0.15,5pnlyk629hr,2022-09-19 14:52:44.739,5f8b4560fc6686262722efdb,3,35,39,24,22,41,female,7237.3999999985,,static/images/instructions_CB_3/Slide14.png,39.0,,,,,,,,,,,,,,,,,,,,,,,,,,,
19,0,,image-keyboard-response,19,247970,0.0-3.16-0.16,5pnlyk629hr,2022-09-19 14:52:44.739,5f8b4560fc6686262722efdb,3,35,39,24,22,41,female,13443.5,,static/images/instructions_CB_3/Slide15.png,39.0,,,,,,,,,,,,,,,,,,,,,,,,,,,
20,0,,image-keyboard-response,20,259880,0.0-3.17-0.17,5pnlyk629hr,2022-09-19 14:52:44.739,5f8b4560fc6686262722efdb,3,35,39,24,22,41,female,11908.8000000007,,static/images/instructions_CB_3/Slide16.png,39.0,,,,,,,,,,,,,,,,,,,,,,,,,,,
21,0,,image-keyboard-response,21,282717,0.0-3.18-0.18,5pnlyk629hr,2022-09-19 14:52:44.739,5f8b4560fc6686262722efdb,3,35,39,24,22,41,female,22835.8999999985,,static/images/instructions_CB_3/Slide17.png,39.0,,,,,,,,,,,,,,,,,,,,,,,,,,,
22,0,,image-keyboard-response,22,314718,0.0-3.19-0.19,5pnlyk629hr,2022-09-19 14:52:44.739,5f8b4560fc6686262722efdb,3,35,39,24,22,41,female,32000.5,,static/images/instructions_CB_3/Slide18.png,39.0,,,,,,,,,,,,,,,,,,,,,,,,,,,
23,0,,image-keyboard-response,23,342902,0.0-3.20-0.20,5pnlyk629hr,2022-09-19 14:52:44.739,5f8b4560fc6686262722efdb,3,35,39,24,22,41,female,28182.6999999993,,static/images/instructions_CB_3/Slide19.png,39.0,,,,,,,,,,,,,,,,,,,,,,,,,,,
24,0,,html-keyboard-response,24,344413,0.0-4.0-0.0,5pnlyk629hr,2022-09-19 14:52:44.739,5f8b4560fc6686262722efdb,3,35,39,24,22,41,female,,,"<img src=""static/images/cards/stack_of_black_moons.svg"" width=""175px"" height=""250px""></img>",,,,,,,,,,,,,,,,,,,,,,,,,,,,
25,0,,html-keyboard-response,25,346441,0.0-4.0-1.0,5pnlyk629hr,2022-09-19 14:52:44.739,5f8b4560fc6686262722efdb,3,35,39,24,22,41,female,1523.6999999993,,"
  <table>
  <tr height=300>
    <td width=300 height=300><img src=""static/images/cards/back_of_black_moons.svg"" width=""175px"" height=""250px""></img></td>
    <td width=300 height=300><img src=""static/images/cards/back_of_black_moons.svg"" width=""175px"" height=""250px""></img></td>
  </tr>
  <tr height=200>
    <td width=300><img src=""static/images/keys/z.svg"" width=""35%"" height=""75%""></img></td>
    <td width=300><img src=""static/images/keys/m.svg"" width=""35%"" height=""75%""></img></td>
  </tr>
</table>
  ",77.0,1.0,,,,,,,,,,,,,,,,,,,,,,,,,,
26,0,,html-keyboard-response,26,347954,0.0-4.0-2.0,5pnlyk629hr,2022-09-19 14:52:44.739,5f8b4560fc6686262722efdb,3,35,39,24,22,41,female,,,"
  <table>
  <tr height=300>
    <td width=300 height=300><img src=""static/images/cards/back_of_black_moons.svg"" width=""175px"" height=""250px""></img></td>
    <td width=300 height=300><img src=""static/images/cards/9_of_black_moons.svg"" width=""175px"" height=""250px""></img></td>
  </tr>
  <tr height=200>
    <td width=300><img src=""static/images/keys/z.svg"" width=""35%"" height=""75%""></img></td>
    <td width=300><img src=""static/images/keys/m.svg"" width=""35%"" height=""75%""></img></td>
  </tr>
</table>
  ",,,,,,,,,,,,,,,,,,,,,,,,,,,,
27,0,,html-keyboard-response,27,349466,0.0-4.0-3.0,5pnlyk629hr,2022-09-19 14:52:44.739,5f8b4560fc6686262722efdb,3,35,39,24,22,41,female,,,"<p style=""font-size:50px"">You win!
+10 points this round!</p>",,,,,,,,,,,,,,,,,,,,,,,,,,,,
28,0,,html-keyboard-response,28,349975,0.0-4.0-4.0,5pnlyk629hr,2022-09-19 14:52:44.739,5f8b4560fc6686262722efdb,3,35,39,24,22,41,female,,,,,,1.0,learning,0.0,A,,black,,moons,,,,A,black,moons,,1.0,1.0,NA,right,1523.6999999993,9.0,1.0,1.0,,,
29,0,,html-keyboard-response,29,351479,0.0-4.1-0.1,5pnlyk629hr,2022-09-19 14:52:44.739,5f8b4560fc6686262722efdb,3,35,39,24,22,41,female,,,"<img src=""static/images/cards/stack_of_red_moons.svg"" width=""175px"" height=""250px""></img>",,,,,,,,,,,,,,,,,,,,,,,,,,,,
30,0,,html-keyboard-response,30,352940,0.0-4.1-1.1,5pnlyk629hr,2022-09-19 14:52:44.739,5f8b4560fc6686262722efdb,3,35,39,24,22,41,female,944.200000003,,"
  <table>
  <tr height=300>
    <td width=300 height=300><img src=""static/images/cards/back_of_red_moons.svg"" width=""175px"" height=""250px""></img></td>
    <td width=300 height=300><img src=""static/images/cards/back_of_red_moons.svg"" width=""175px"" height=""250px""></img></td>
  </tr>
  <tr height=200>
    <td width=300><img src=""static/images/keys/z.svg"" width=""35%"" height=""75%""></img></td>
    <td width=300></td>
  </tr>
</table>
  ",90.0,1.0,,,,,,,,,,,,,,,,,,,,,,,,,,
31,0,,html-keyboard-response,31,354445,0.0-4.1-2.1,5pnlyk629hr,2022-09-19 14:52:44.739,5f8b4560fc6686262722efdb,3,35,39,24,22,41,female,,,"
  <table>
  <tr height=300>
    <td width=300 height=300><img src=""static/images/cards/10_of_red_moons.svg"" width=""175px"" height=""250px""></img></td>
    <td width=300 height=300><img src=""static/images/cards/back_of_red_moons.svg"" width=""175px"" height=""250px""></img></td>
  </tr>
  <tr height=200>
    <td width=300><img src=""static/images/keys/z.svg"" width=""35%"" height=""75%""></img></td>
    <td width=300></td>
  </tr>
</table>
  ",,,,,,,,,,,,,,,,,,,,,,,,,,,,
32,0,,html-keyboard-response,32,355953,0.0-4.1-3.1,5pnlyk629hr,2022-09-19 14:52:44.739,5f8b4560fc6686262722efdb,3,35,39,24,22,41,female,,,"<p style=""font-size:50px"">You win!
+10 points this round!</p>",,,,,,,,,,,,,,,,,,,,,,,,,,,,
33,0,,html-keyboard-response,33,356462,0.0-4.1-4.1,5pnlyk629hr,2022-09-19 14:52:44.739,5f8b4560fc6686262722efdb,3,35,39,24,22,41,female,,,,,,1.0,learning,1.0,B,,red,,moons,,,,B,red,moons,,0.0,1.0,1,left,944.200000003,10.0,1.0,1.0,,,
34,0,,html-keyboard-response,34,357967,0.0-4.2-0.2,5pnlyk629hr,2022-09-19 14:52:44.739,5f8b4560fc6686262722efdb,3,35,39,24,22,41,female,,,"<img src=""static/images/cards/stack_of_black_stars.svg"" width=""175px"" height=""250px""></img>",,,,,,,,,,,,,,,,,,,,,,,,,,,,
35,0,,html-keyboard-response,35,359577,0.0-4.2-1.2,5pnlyk629hr,2022-09-19 14:52:44.739,5f8b4560fc6686262722efdb,3,35,39,24,22,41,female,1107.0,,"
  <table>
  <tr height=300>
    <td width=300 height=300><img src=""static/images/cards/back_of_black_stars.svg"" width=""175px"" height=""250px""></img></td>
    <td width=300 height=300><img src=""static/images/cards/back_of_black_stars.svg"" width=""175px"" height=""250px""></img></td>
  </tr>
  <tr height=200>
    <td width=300><img src=""static/images/keys/z.svg"" width=""35%"" height=""75%""></img></td>
    <td width=300><img src=""static/images/keys/m.svg"" width=""35%"" height=""75%""></img></td>
  </tr>
</table>
  ",77.0,1.0,,,,,,,,,,,,,,,,,,,,,,,,,,
36,0,,html-keyboard-response,36,361080,0.0-4.2-2.2,5pnlyk629hr,2022-09-19 14:52:44.739,5f8b4560fc6686262722efdb,3,35,39,24,22,41,female,,,"
  <table>
  <tr height=300>
    <td width=300 height=300><img src=""static/images/cards/back_of_black_stars.svg"" width=""175px"" height=""250px""></img></td>
    <td width=300 height=300><img src=""static/images/cards/1_of_black_stars.svg"" width=""175px"" height=""250px""></img></td>
  </tr>
  <tr height=200>
    <td width=300><img src=""static/images/keys/z.svg"" width=""35%"" height=""75%""></img></td>
    <td width=300><img src=""static/images/keys/m.svg"" width=""35%"" height=""75%""></img></td>
  </tr>
</table>
  ",,,,,,,,,,,,,,,,,,,,,,,,,,,,
37,0,,html-keyboard-response,37,362609,0.0-4.2-3.2,5pnlyk629hr,2022-09-19 14:52:44.739,5f8b4560fc6686262722efdb,3,35,39,24,22,41,female,,,"<p style=""font-size:50px"">You win!
+10 points this round!</p>",,,,,,,,,,,,,,,,,,,,,,,,,,,,
38,0,,html-keyboard-response,38,363116,0.0-4.2-4.2,5pnlyk629hr,2022-09-19 14:52:44.739,5f8b4560fc6686262722efdb,3,35,39,24,22,41,female,,,,,,1.0,learning,2.0,C,,black,,stars,,,,C,black,stars,,1.0,0.0,NA,right,1107.0,1.0,0.0,1.0,,,
39,0,,html-keyboard-response,39,364623,0.0-4.3-0.3,5pnlyk629hr,2022-09-19 14:52:44.739,5f8b4560fc6686262722efdb,3,35,39,24,22,41,female,,,"<img src=""static/images/cards/stack_of_red_stars.svg"" width=""175px"" height=""250px""></img>",,,,,,,,,,,,,,,,,,,,,,,,,,,,
40,0,,html-keyboard-response,40,366069,0.0-4.3-1.3,5pnlyk629hr,2022-09-19 14:52:44.739,5f8b4560fc6686262722efdb,3,35,39,24,22,41,female,938.1999999993,,"
  <table>
  <tr height=300>
    <td width=300 height=300><img src=""static/images/cards/back_of_red_stars.svg"" width=""175px"" height=""250px""></img></td>
    <td width=300 height=300><img src=""static/images/cards/back_of_red_stars.svg"" width=""175px"" height=""250px""></img></td>
  </tr>
  <tr height=200>
    <td width=300></td>
    <td width=300><img src=""static/images/keys/m.svg"" width=""35%"" height=""75%""></img></td>
  </tr>
</table>
  ",77.0,1.0,,,,,,,,,,,,,,,,,,,,,,,,,,
41,0,,html-keyboard-response,41,367583,0.0-4.3-2.3,5pnlyk629hr,2022-09-19 14:52:44.739,5f8b4560fc6686262722efdb,3,35,39,24,22,41,female,,,"
  <table>
  <tr height=300>
    <td width=300 height=300><img src=""static/images/cards/back_of_red_stars.svg"" width=""175px"" height=""250px""></img></td>
    <td width=300 height=300><img src=""static/images/cards/1_of_red_stars.svg"" width=""175px"" height=""250px""></img></td>
  </tr>
  <tr height=200>
    <td width=300></td>
    <td width=300><img src=""static/images/keys/m.svg"" width=""35%"" height=""75%""></img></td>
  </tr>
</table>
  ",,,,,,,,,,,,,,,,,,,,,,,,,,,,
42,0,,html-keyboard-response,42,369094,0.0-4.3-3.3,5pnlyk629hr,2022-09-19 14:52:44.739,5f8b4560fc6686262722efdb,3,35,39,24,22,41,female,,,"<p style=""font-size:50px"">You Lose!
No points this round.</p>",,,,,,,,,,,,,,,,,,,,,,,,,,,,
43,0,,html-keyboard-response,43,369605,0.0-4.3-4.3,5pnlyk629hr,2022-09-19 14:52:44.739,5f8b4560fc6686262722efdb,3,35,39,24,22,41,female,,,,,,1.0,learning,3.0,D,,red,,stars,,,,D,red,stars,,0.0,0.0,0,right,938.1999999993,1.0,0.0,0.0,,,
44,0,,html-keyboard-response,44,371117,0.0-4.4-0.4,5pnlyk629hr,2022-09-19 14:52:44.739,5f8b4560fc6686262722efdb,3,35,39,24,22,41,female,,,"<img src=""static/images/cards/stack_of_red_bolts.svg"" width=""175px"" height=""250px""></img>",,,,,,,,,,,,,,,,,,,,,,,,,,,,
45,0,,html-keyboard-response,45,372297,0.0-4.4-1.4,5pnlyk629hr,2022-09-19 14:52:44.739,5f8b4560fc6686262722efdb,3,35,39,24,22,41,female,674.3999999985,,"
  <table>
  <tr height=300>
    <td width=300 height=300><img src=""static/images/cards/back_of_red_bolts.svg"" width=""175px"" height=""250px""></img></td>
    <td width=300 height=300><img src=""static/images/cards/back_of_red_bolts.svg"" width=""175px"" height=""250px""></img></td>
  </tr>
  <tr height=200>
    <td width=300><img src=""static/images/keys/z.svg"" width=""35%"" height=""75%""></img></td>
    <td width=300><img src=""static/images/keys/m.svg"" width=""35%"" height=""75%""></img></td>
  </tr>
</table>
  ",90.0,1.0,,,,,,,,,,,,,,,,,,,,,,,,,,
46,0,,html-keyboard-response,46,373804,0.0-4.4-2.4,5pnlyk629hr,2022-09-19 14:52:44.739,5f8b4560fc6686262722efdb,3,35,39,24,22,41,female,,,"
  <table>
  <tr height=300>
    <td width=300 height=300><img src=""static/images/cards/2_of_red_bolts.svg"" width=""175px"" height=""250px""></img></td>
    <td width=300 height=300><img src=""static/images/cards/back_of_red_bolts.svg"" width=""175px"" height=""250px""></img></td>
  </tr>
  <tr height=200>
    <td width=300><img src=""static/images/keys/z.svg"" width=""35%"" height=""75%""></img></td>
    <td width=300><img src=""static/images/keys/m.svg"" width=""35%"" height=""75%""></img></td>
  </tr>
</table>
  ",,,,,,,,,,,,,,,,,,,,,,,,,,,,
47,0,,html-keyboard-response,47,375315,0.0-4.4-3.4,5pnlyk629hr,2022-09-19 14:52:44.739,5f8b4560fc6686262722efdb,3,35,39,24,22,41,female,,,"<p style=""font-size:50px"">You win!
+10 points this round!</p>",,,,,,,,,,,,,,,,,,,,,,,,,,,,
48,0,,html-keyboard-response,48,375825,0.0-4.4-4.4,5pnlyk629hr,2022-09-19 14:52:44.739,5f8b4560fc6686262722efdb,3,35,39,24,22,41,female,,,,,,1.0,learning,4.0,Xc,,red,,bolts,,,,Xc,red,bolts,,1.0,0.0,NA,left,674.3999999985,2.0,0.0,1.0,,,
49,0,,html-keyboard-response,49,377332,0.0-4.5-0.5,5pnlyk629hr,2022-09-19 14:52:44.739,5f8b4560fc6686262722efdb,3,35,39,24,22,41,female,,,"<img src=""static/images/cards/stack_of_black_bolts.svg"" width=""175px"" height=""250px""></img>",,,,,,,,,,,,,,,,,,,,,,,,,,,,
50,0,,html-keyboard-response,50,378662,0.0-4.5-1.5,5pnlyk629hr,2022-09-19 14:52:44.739,5f8b4560fc6686262722efdb,3,35,39,24,22,41,female,826.6999999993,,"
  <table>
  <tr height=300>
    <td width=300 height=300><img src=""static/images/cards/back_of_black_bolts.svg"" width=""175px"" height=""250px""></img></td>
    <td width=300 height=300><img src=""static/images/cards/back_of_black_bolts.svg"" width=""175px"" height=""250px""></img></td>
  </tr>
  <tr height=200>
    <td width=300><img src=""static/images/keys/z.svg"" width=""35%"" height=""75%""></img></td>
    <td width=300></td>
  </tr>
</table>
  ",90.0,1.0,,,,,,,,,,,,,,,,,,,,,,,,,,
51,0,,html-keyboard-response,51,380168,0.0-4.5-2.5,5pnlyk629hr,2022-09-19 14:52:44.739,5f8b4560fc6686262722efdb,3,35,39,24,22,41,female,,,"
  <table>
  <tr height=300>
    <td width=300 height=300><img src=""static/images/cards/7_of_black_bolts.svg"" width=""175px"" height=""250px""></img></td>
    <td width=300 height=300><img src=""static/images/cards/back_of_black_bolts.svg"" width=""175px"" height=""250px""></img></td>
  </tr>
  <tr height=200>
    <td width=300><img src=""static/images/keys/z.svg"" width=""35%"" height=""75%""></img></td>
    <td width=300></td>
  </tr>
</table>
  ",,,,,,,,,,,,,,,,,,,,,,,,,,,,
52,0,,html-keyboard-response,52,381675,0.0-4.5-3.5,5pnlyk629hr,2022-09-19 14:52:44.739,5f8b4560fc6686262722efdb,3,35,39,24,22,41,female,,,"<p style=""font-size:50px"">You win!
+10 points this round!</p>",,,,,,,,,,,,,,,,,,,,,,,,,,,,
53,0,,html-keyboard-response,53,382185,0.0-4.5-4.5,5pnlyk629hr,2022-09-19 14:52:44.739,5f8b4560fc6686262722efdb,3,35,39,24,22,41,female,,,,,,1.0,learning,5.0,Xnc,,black,,bolts,,,,Xnc,black,bolts,,0.0,0.0,1,left,826.6999999993,7.0,1.0,1.0,,,
54,0,,html-keyboard-response,54,383699,0.0-4.6-0.6,5pnlyk629hr,2022-09-19 14:52:44.739,5f8b4560fc6686262722efdb,3,35,39,24,22,41,female,,,"<img src=""static/images/cards/stack_of_black_moons.svg"" width=""175px"" height=""250px""></img>",,,,,,,,,,,,,,,,,,,,,,,,,,,,
55,0,,html-keyboard-response,55,384955,0.0-4.6-1.6,5pnlyk629hr,2022-09-19 14:52:44.739,5f8b4560fc6686262722efdb,3,35,39,24,22,41,female,752.9000000022,,"
  <table>
  <tr height=300>
    <td width=300 height=300><img src=""static/images/cards/back_of_black_moons.svg"" width=""175px"" height=""250px""></img></td>
    <td width=300 height=300><img src=""static/images/cards/back_of_black_moons.svg"" width=""175px"" height=""250px""></img></td>
  </tr>
  <tr height=200>
    <td width=300><img src=""static/images/keys/z.svg"" width=""35%"" height=""75%""></img></td>
    <td width=300><img src=""static/images/keys/m.svg"" width=""35%"" height=""75%""></img></td>
  </tr>
</table>
  ",77.0,1.0,,,,,,,,,,,,,,,,,,,,,,,,,,
56,0,,html-keyboard-response,56,386462,0.0-4.6-2.6,5pnlyk629hr,2022-09-19 14:52:44.739,5f8b4560fc6686262722efdb,3,35,39,24,22,41,female,,,"
  <table>
  <tr height=300>
    <td width=300 height=300><img src=""static/images/cards/back_of_black_moons.svg"" width=""175px"" height=""250px""></img></td>
    <td width=300 height=300><img src=""static/images/cards/1_of_black_moons.svg"" width=""175px"" height=""250px""></img></td>
  </tr>
  <tr height=200>
    <td width=300><img src=""static/images/keys/z.svg"" width=""35%"" height=""75%""></img></td>
    <td width=300><img src=""static/images/keys/m.svg"" width=""35%"" height=""75%""></img></td>
  </tr>
</table>
  ",,,,,,,,,,,,,,,,,,,,,,,,,,,,
57,0,,html-keyboard-response,57,387969,0.0-4.6-3.6,5pnlyk629hr,2022-09-19 14:52:44.739,5f8b4560fc6686262722efdb,3,35,39,24,22,41,female,,,"<p style=""font-size:50px"">You Lose!
No points this round.</p>",,,,,,,,,,,,,,,,,,,,,,,,,,,,
58,0,,html-keyboard-response,58,388479,0.0-4.6-4.6,5pnlyk629hr,2022-09-19 14:52:44.739,5f8b4560fc6686262722efdb,3,35,39,24,22,41,female,,,,,,1.0,learning,6.0,A,,black,,moons,,,,A,black,moons,,1.0,1.0,NA,right,752.9000000022,1.0,0.0,0.0,,,
59,0,,html-keyboard-response,59,389983,0.0-4.7-0.7,5pnlyk629hr,2022-09-19 14:52:44.739,5f8b4560fc6686262722efdb,3,35,39,24,22,41,female,,,"<img src=""static/images/cards/stack_of_red_moons.svg"" width=""175px"" height=""250px""></img>",,,,,,,,,,,,,,,,,,,,,,,,,,,,
60,0,,html-keyboard-response,60,391138,0.0-4.7-1.7,5pnlyk629hr,2022-09-19 14:52:44.739,5f8b4560fc6686262722efdb,3,35,39,24,22,41,female,649.9000000022,,"
  <table>
  <tr height=300>
    <td width=300 height=300><img src=""static/images/cards/back_of_red_moons.svg"" width=""175px"" height=""250px""></img></td>
    <td width=300 height=300><img src=""static/images/cards/back_of_red_moons.svg"" width=""175px"" height=""250px""></img></td>
  </tr>
  <tr height=200>
    <td width=300><img src=""static/images/keys/z.svg"" width=""35%"" height=""75%""></img></td>
    <td width=300></td>
  </tr>
</table>
  ",90.0,1.0,,,,,,,,,,,,,,,,,,,,,,,,,,
61,0,,html-keyboard-response,61,392654,0.0-4.7-2.7,5pnlyk629hr,2022-09-19 14:52:44.739,5f8b4560fc6686262722efdb,3,35,39,24,22,41,female,,,"
  <table>
  <tr height=300>
    <td width=300 height=300><img src=""static/images/cards/4_of_red_moons.svg"" width=""175px"" height=""250px""></img></td>
    <td width=300 height=300><img src=""static/images/cards/back_of_red_moons.svg"" width=""175px"" height=""250px""></img></td>
  </tr>
  <tr height=200>
    <td width=300><img src=""static/images/keys/z.svg"" width=""35%"" height=""75%""></img></td>
    <td width=300></td>
  </tr>
</table>
  ",,,,,,,,,,,,,,,,,,,,,,,,,,,,
62,0,,html-keyboard-response,62,394179,0.0-4.7-3.7,5pnlyk629hr,2022-09-19 14:52:44.739,5f8b4560fc6686262722efdb,3,35,39,24,22,41,female,,,"<p style=""font-size:50px"">You Lose!
No points this round.</p>",,,,,,,,,,,,,,,,,,,,,,,,,,,,
63,0,,html-keyboard-response,63,394687,0.0-4.7-4.7,5pnlyk629hr,2022-09-19 14:52:44.739,5f8b4560fc6686262722efdb,3,35,39,24,22,41,female,,,,,,1.0,learning,7.0,B,,red,,moons,,,,B,red,moons,,0.0,1.0,1,left,649.9000000022,4.0,0.0,0.0,,,
64,0,,html-keyboard-response,64,396196,0.0-4.8-0.8,5pnlyk629hr,2022-09-19 14:52:44.739,5f8b4560fc6686262722efdb,3,35,39,24,22,41,female,,,"<img src=""static/images/cards/stack_of_black_stars.svg"" width=""175px"" height=""250px""></img>",,,,,,,,,,,,,,,,,,,,,,,,,,,,
65,0,,html-keyboard-response,65,397380,0.0-4.8-1.8,5pnlyk629hr,2022-09-19 14:52:44.739,5f8b4560fc6686262722efdb,3,35,39,24,22,41,female,679.8000000007,,"
  <table>
  <tr height=300>
    <td width=300 height=300><img src=""static/images/cards/back_of_black_stars.svg"" width=""175px"" height=""250px""></img></td>
    <td width=300 height=300><img src=""static/images/cards/back_of_black_stars.svg"" width=""175px"" height=""250px""></img></td>
  </tr>
  <tr height=200>
    <td width=300><img src=""static/images/keys/z.svg"" width=""35%"" height=""75%""></img></td>
    <td width=300><img src=""static/images/keys/m.svg"" width=""35%"" height=""75%""></img></td>
  </tr>
</table>
  ",90.0,1.0,,,,,,,,,,,,,,,,,,,,,,,,,,
66,0,,html-keyboard-response,66,398895,0.0-4.8-2.8,5pnlyk629hr,2022-09-19 14:52:44.739,5f8b4560fc6686262722efdb,3,35,39,24,22,41,female,,,"
  <table>
  <tr height=300>
    <td width=300 height=300><img src=""static/images/cards/8_of_black_stars.svg"" width=""175px"" height=""250px""></img></td>
    <td width=300 height=300><img src=""static/images/cards/back_of_black_stars.svg"" width=""175px"" height=""250px""></img></td>
  </tr>
  <tr height=200>
    <td width=300><img src=""static/images/keys/z.svg"" width=""35%"" height=""75%""></img></td>
    <td width=300><img src=""static/images/keys/m.svg"" width=""35%"" height=""75%""></img></td>
  </tr>
</table>
  ",,,,,,,,,,,,,,,,,,,,,,,,,,,,
67,0,,html-keyboard-response,67,400405,0.0-4.8-3.8,5pnlyk629hr,2022-09-19 14:52:44.739,5f8b4560fc6686262722efdb,3,35,39,24,22,41,female,,,"<p style=""font-size:50px"">You Lose!
No points this round.</p>",,,,,,,,,,,,,,,,,,,,,,,,,,,,
68,0,,html-keyboard-response,68,400914,0.0-4.8-4.8,5pnlyk629hr,2022-09-19 14:52:44.739,5f8b4560fc6686262722efdb,3,35,39,24,22,41,female,,,,,,1.0,learning,8.0,C,,black,,stars,,,,C,black,stars,,1.0,0.0,NA,left,679.8000000007,8.0,1.0,0.0,,,
69,0,,html-keyboard-response,69,402417,0.0-4.9-0.9,5pnlyk629hr,2022-09-19 14:52:44.739,5f8b4560fc6686262722efdb,3,35,39,24,22,41,female,,,"<img src=""static/images/cards/stack_of_red_stars.svg"" width=""175px"" height=""250px""></img>",,,,,,,,,,,,,,,,,,,,,,,,,,,,
70,0,,html-keyboard-response,70,403518,0.0-4.9-1.9,5pnlyk629hr,2022-09-19 14:52:44.739,5f8b4560fc6686262722efdb,3,35,39,24,22,41,female,598.6999999993,,"
  <table>
  <tr height=300>
    <td width=300 height=300><img src=""static/images/cards/back_of_red_stars.svg"" width=""175px"" height=""250px""></img></td>
    <td width=300 height=300><img src=""static/images/cards/back_of_red_stars.svg"" width=""175px"" height=""250px""></img></td>
  </tr>
  <tr height=200>
    <td width=300></td>
    <td width=300><img src=""static/images/keys/m.svg"" width=""35%"" height=""75%""></img></td>
  </tr>
</table>
  ",77.0,1.0,,,,,,,,,,,,,,,,,,,,,,,,,,
71,0,,html-keyboard-response,71,405021,0.0-4.9-2.9,5pnlyk629hr,2022-09-19 14:52:44.739,5f8b4560fc6686262722efdb,3,35,39,24,22,41,female,,,"
  <table>
  <tr height=300>
    <td width=300 height=300><img src=""static/images/cards/back_of_red_stars.svg"" width=""175px"" height=""250px""></img></td>
    <td width=300 height=300><img src=""static/images/cards/10_of_red_stars.svg"" width=""175px"" height=""250px""></img></td>
  </tr>
  <tr height=200>
    <td width=300></td>
    <td width=300><img src=""static/images/keys/m.svg"" width=""35%"" height=""75%""></img></td>
  </tr>
</table>
  ",,,,,,,,,,,,,,,,,,,,,,,,,,,,
72,0,,html-keyboard-response,72,406538,0.0-4.9-3.9,5pnlyk629hr,2022-09-19 14:52:44.739,5f8b4560fc6686262722efdb,3,35,39,24,22,41,female,,,"<p style=""font-size:50px"">You Lose!
No points this round.</p>",,,,,,,,,,,,,,,,,,,,,,,,,,,,
73,0,,html-keyboard-response,73,407046,0.0-4.9-4.9,5pnlyk629hr,2022-09-19 14:52:44.739,5f8b4560fc6686262722efdb,3,35,39,24,22,41,female,,,,,,1.0,learning,9.0,D,,red,,stars,,,,D,red,stars,,0.0,0.0,0,right,598.6999999993,10.0,1.0,0.0,,,
74,0,,html-keyboard-response,74,408552,0.0-4.10-0.10,5pnlyk629hr,2022-09-19 14:52:44.739,5f8b4560fc6686262722efdb,3,35,39,24,22,41,female,,,"<img src=""static/images/cards/stack_of_red_bolts.svg"" width=""175px"" height=""250px""></img>",,,,,,,,,,,,,,,,,,,,,,,,,,,,
75,0,,html-keyboard-response,75,409828,0.0-4.10-1.10,5pnlyk629hr,2022-09-19 14:52:44.739,5f8b4560fc6686262722efdb,3,35,39,24,22,41,female,774.0,,"
  <table>
  <tr height=300>
    <td width=300 height=300><img src=""static/images/cards/back_of_red_bolts.svg"" width=""175px"" height=""250px""></img></td>
    <td width=300 height=300><img src=""static/images/cards/back_of_red_bolts.svg"" width=""175px"" height=""250px""></img></td>
  </tr>
  <tr height=200>
    <td width=300><img src=""static/images/keys/z.svg"" width=""35%"" height=""75%""></img></td>
    <td width=300><img src=""static/images/keys/m.svg"" width=""35%"" height=""75%""></img></td>
  </tr>
</table>
  ",77.0,1.0,,,,,,,,,,,,,,,,,,,,,,,,,,
76,0,,html-keyboard-response,76,411338,0.0-4.10-2.10,5pnlyk629hr,2022-09-19 14:52:44.739,5f8b4560fc6686262722efdb,3,35,39,24,22,41,female,,,"
  <table>
  <tr height=300>
    <td width=300 height=300><img src=""static/images/cards/back_of_red_bolts.svg"" width=""175px"" height=""250px""></img></td>
    <td width=300 height=300><img src=""static/images/cards/10_of_red_bolts.svg"" width=""175px"" height=""250px""></img></td>
  </tr>
  <tr height=200>
    <td width=300><img src=""static/images/keys/z.svg"" width=""35%"" height=""75%""></img></td>
    <td width=300><img src=""static/images/keys/m.svg"" width=""35%"" height=""75%""></img></td>
  </tr>
</table>
  ",,,,,,,,,,,,,,,,,,,,,,,,,,,,
77,0,,html-keyboard-response,77,412859,0.0-4.10-3.10,5pnlyk629hr,2022-09-19 14:52:44.739,5f8b4560fc6686262722efdb,3,35,39,24,22,41,female,,,"<p style=""font-size:50px"">You win!
+10 points this round!</p>",,,,,,,,,,,,,,,,,,,,,,,,,,,,
78,0,,html-keyboard-response,78,413379,0.0-4.10-4.10,5pnlyk629hr,2022-09-19 14:52:44.739,5f8b4560fc6686262722efdb,3,35,39,24,22,41,female,,,,,,1.0,learning,10.0,Xc,,red,,bolts,,,,Xc,red,bolts,,1.0,0.0,NA,right,774.0,10.0,1.0,1.0,,,
79,0,,html-keyboard-response,79,414884,0.0-4.11-0.11,5pnlyk629hr,2022-09-19 14:52:44.739,5f8b4560fc6686262722efdb,3,35,39,24,22,41,female,,,"<img src=""static/images/cards/stack_of_black_bolts.svg"" width=""175px"" height=""250px""></img>",,,,,,,,,,,,,,,,,,,,,,,,,,,,
80,0,,html-keyboard-response,80,415963,0.0-4.11-1.11,5pnlyk629hr,2022-09-19 14:52:44.739,5f8b4560fc6686262722efdb,3,35,39,24,22,41,female,573.5999999978,,"
  <table>
  <tr height=300>
    <td width=300 height=300><img src=""static/images/cards/back_of_black_bolts.svg"" width=""175px"" height=""250px""></img></td>
    <td width=300 height=300><img src=""static/images/cards/back_of_black_bolts.svg"" width=""175px"" height=""250px""></img></td>
  </tr>
  <tr height=200>
    <td width=300><img src=""static/images/keys/z.svg"" width=""35%"" height=""75%""></img></td>
    <td width=300></td>
  </tr>
</table>
  ",90.0,1.0,,,,,,,,,,,,,,,,,,,,,,,,,,
81,0,,html-keyboard-response,81,417477,0.0-4.11-2.11,5pnlyk629hr,2022-09-19 14:52:44.739,5f8b4560fc6686262722efdb,3,35,39,24,22,41,female,,,"
  <table>
  <tr height=300>
    <td width=300 height=300><img src=""static/images/cards/9_of_black_bolts.svg"" width=""175px"" height=""250px""></img></td>
    <td width=300 height=300><img src=""static/images/cards/back_of_black_bolts.svg"" width=""175px"" height=""250px""></img></td>
  </tr>
  <tr height=200>
    <td width=300><img src=""static/images/keys/z.svg"" width=""35%"" height=""75%""></img></td>
    <td width=300></td>
  </tr>
</table>
  ",,,,,,,,,,,,,,,,,,,,,,,,,,,,
82,0,,html-keyboard-response,82,418997,0.0-4.11-3.11,5pnlyk629hr,2022-09-19 14:52:44.739,5f8b4560fc6686262722efdb,3,35,39,24,22,41,female,,,"<p style=""font-size:50px"">You win!
+10 points this round!</p>",,,,,,,,,,,,,,,,,,,,,,,,,,,,
83,0,,html-keyboard-response,83,419506,0.0-4.11-4.11,5pnlyk629hr,2022-09-19 14:52:44.739,5f8b4560fc6686262722efdb,3,35,39,24,22,41,female,,,,,,1.0,learning,11.0,Xnc,,black,,bolts,,,,Xnc,black,bolts,,0.0,0.0,1,left,573.5999999978,9.0,1.0,1.0,,,
84,0,,html-keyboard-response,84,421014,0.0-4.12-0.12,5pnlyk629hr,2022-09-19 14:52:44.739,5f8b4560fc6686262722efdb,3,35,39,24,22,41,female,,,"<img src=""static/images/cards/stack_of_black_moons.svg"" width=""175px"" height=""250px""></img>",,,,,,,,,,,,,,,,,,,,,,,,,,,,
85,0,,html-keyboard-response,85,422319,0.0-4.12-1.12,5pnlyk629hr,2022-09-19 14:52:44.739,5f8b4560fc6686262722efdb,3,35,39,24,22,41,female,801.1000000015,,"
  <table>
  <tr height=300>
    <td width=300 height=300><img src=""static/images/cards/back_of_black_moons.svg"" width=""175px"" height=""250px""></img></td>
    <td width=300 height=300><img src=""static/images/cards/back_of_black_moons.svg"" width=""175px"" height=""250px""></img></td>
  </tr>
  <tr height=200>
    <td width=300><img src=""static/images/keys/z.svg"" width=""35%"" height=""75%""></img></td>
    <td width=300><img src=""static/images/keys/m.svg"" width=""35%"" height=""75%""></img></td>
  </tr>
</table>
  ",77.0,1.0,,,,,,,,,,,,,,,,,,,,,,,,,,
86,0,,html-keyboard-response,86,423828,0.0-4.12-2.12,5pnlyk629hr,2022-09-19 14:52:44.739,5f8b4560fc6686262722efdb,3,35,39,24,22,41,female,,,"
  <table>
  <tr height=300>
    <td width=300 height=300><img src=""static/images/cards/back_of_black_moons.svg"" width=""175px"" height=""250px""></img></td>
    <td width=300 height=300><img src=""static/images/cards/3_of_black_moons.svg"" width=""175px"" height=""250px""></img></td>
  </tr>
  <tr height=200>
    <td width=300><img src=""static/images/keys/z.svg"" width=""35%"" height=""75%""></img></td>
    <td width=300><img src=""static/images/keys/m.svg"" width=""35%"" height=""75%""></img></td>
  </tr>
</table>
  ",,,,,,,,,,,,,,,,,,,,,,,,,,,,
87,0,,html-keyboard-response,87,425342,0.0-4.12-3.12,5pnlyk629hr,2022-09-19 14:52:44.739,5f8b4560fc6686262722efdb,3,35,39,24,22,41,female,,,"<p style=""font-size:50px"">You Lose!
No points this round.</p>",,,,,,,,,,,,,,,,,,,,,,,,,,,,
88,0,,html-keyboard-response,88,425852,0.0-4.12-4.12,5pnlyk629hr,2022-09-19 14:52:44.739,5f8b4560fc6686262722efdb,3,35,39,24,22,41,female,,,,,,1.0,learning,12.0,A,,black,,moons,,,,A,black,moons,,1.0,1.0,NA,right,801.1000000015,3.0,0.0,0.0,,,
89,0,,html-keyboard-response,89,427361,0.0-4.13-0.13,5pnlyk629hr,2022-09-19 14:52:44.739,5f8b4560fc6686262722efdb,3,35,39,24,22,41,female,,,"<img src=""static/images/cards/stack_of_red_moons.svg"" width=""175px"" height=""250px""></img>",,,,,,,,,,,,,,,,,,,,,,,,,,,,
90,0,,html-keyboard-response,90,428406,0.0-4.13-1.13,5pnlyk629hr,2022-09-19 14:52:44.739,5f8b4560fc6686262722efdb,3,35,39,24,22,41,female,541.0999999978,,"
  <table>
  <tr height=300>
    <td width=300 height=300><img src=""static/images/cards/back_of_red_moons.svg"" width=""175px"" height=""250px""></img></td>
    <td width=300 height=300><img src=""static/images/cards/back_of_red_moons.svg"" width=""175px"" height=""250px""></img></td>
  </tr>
  <tr height=200>
    <td width=300><img src=""static/images/keys/z.svg"" width=""35%"" height=""75%""></img></td>
    <td width=300></td>
  </tr>
</table>
  ",90.0,1.0,,,,,,,,,,,,,,,,,,,,,,,,,,
91,0,,html-keyboard-response,91,429912,0.0-4.13-2.13,5pnlyk629hr,2022-09-19 14:52:44.739,5f8b4560fc6686262722efdb,3,35,39,24,22,41,female,,,"
  <table>
  <tr height=300>
    <td width=300 height=300><img src=""static/images/cards/1_of_red_moons.svg"" width=""175px"" height=""250px""></img></td>
    <td width=300 height=300><img src=""static/images/cards/back_of_red_moons.svg"" width=""175px"" height=""250px""></img></td>
  </tr>
  <tr height=200>
    <td width=300><img src=""static/images/keys/z.svg"" width=""35%"" height=""75%""></img></td>
    <td width=300></td>
  </tr>
</table>
  ",,,,,,,,,,,,,,,,,,,,,,,,,,,,
92,0,,html-keyboard-response,92,431440,0.0-4.13-3.13,5pnlyk629hr,2022-09-19 14:52:44.739,5f8b4560fc6686262722efdb,3,35,39,24,22,41,female,,,"<p style=""font-size:50px"">You Lose!
No points this round.</p>",,,,,,,,,,,,,,,,,,,,,,,,,,,,
93,0,,html-keyboard-response,93,431951,0.0-4.13-4.13,5pnlyk629hr,2022-09-19 14:52:44.739,5f8b4560fc6686262722efdb,3,35,39,24,22,41,female,,,,,,1.0,learning,13.0,B,,red,,moons,,,,B,red,moons,,0.0,1.0,1,left,541.0999999978,1.0,0.0,0.0,,,
94,0,,html-keyboard-response,94,433459,0.0-4.14-0.14,5pnlyk629hr,2022-09-19 14:52:44.739,5f8b4560fc6686262722efdb,3,35,39,24,22,41,female,,,"<img src=""static/images/cards/stack_of_black_stars.svg"" width=""175px"" height=""250px""></img>",,,,,,,,,,,,,,,,,,,,,,,,,,,,
95,0,,html-keyboard-response,95,434799,0.0-4.14-1.14,5pnlyk629hr,2022-09-19 14:52:44.739,5f8b4560fc6686262722efdb,3,35,39,24,22,41,female,837.4000000022,,"
  <table>
  <tr height=300>
    <td width=300 height=300><img src=""static/images/cards/back_of_black_stars.svg"" width=""175px"" height=""250px""></img></td>
    <td width=300 height=300><img src=""static/images/cards/back_of_black_stars.svg"" width=""175px"" height=""250px""></img></td>
  </tr>
  <tr height=200>
    <td width=300><img src=""static/images/keys/z.svg"" width=""35%"" height=""75%""></img></td>
    <td width=300><img src=""static/images/keys/m.svg"" width=""35%"" height=""75%""></img></td>
  </tr>
</table>
  ",77.0,1.0,,,,,,,,,,,,,,,,,,,,,,,,,,
96,0,,html-keyboard-response,96,436304,0.0-4.14-2.14,5pnlyk629hr,2022-09-19 14:52:44.739,5f8b4560fc6686262722efdb,3,35,39,24,22,41,female,,,"
  <table>
  <tr height=300>
    <td width=300 height=300><img src=""static/images/cards/back_of_black_stars.svg"" width=""175px"" height=""250px""></img></td>
    <td width=300 height=300><img src=""static/images/cards/4_of_black_stars.svg"" width=""175px"" height=""250px""></img></td>
  </tr>
  <tr height=200>
    <td width=300><img src=""static/images/keys/z.svg"" width=""35%"" height=""75%""></img></td>
    <td width=300><img src=""static/images/keys/m.svg"" width=""35%"" height=""75%""></img></td>
  </tr>
</table>
  ",,,,,,,,,,,,,,,,,,,,,,,,,,,,
97,0,,html-keyboard-response,97,437815,0.0-4.14-3.14,5pnlyk629hr,2022-09-19 14:52:44.739,5f8b4560fc6686262722efdb,3,35,39,24,22,41,female,,,"<p style=""font-size:50px"">You Lose!
No points this round.</p>",,,,,,,,,,,,,,,,,,,,,,,,,,,,
98,0,,html-keyboard-response,98,438324,0.0-4.14-4.14,5pnlyk629hr,2022-09-19 14:52:44.739,5f8b4560fc6686262722efdb,3,35,39,24,22,41,female,,,,,,1.0,learning,14.0,C,,black,,stars,,,,C,black,stars,,1.0,0.0,NA,right,837.4000000022,4.0,0.0,0.0,,,
99,0,,html-keyboard-response,99,439828,0.0-4.15-0.15,5pnlyk629hr,2022-09-19 14:52:44.739,5f8b4560fc6686262722efdb,3,35,39,24,22,41,female,,,"<img src=""static/images/cards/stack_of_red_stars.svg"" width=""175px"" height=""250px""></img>",,,,,,,,,,,,,,,,,,,,,,,,,,,,
100,0,,html-keyboard-response,100,440814,0.0-4.15-1.15,5pnlyk629hr,2022-09-19 14:52:44.739,5f8b4560fc6686262722efdb,3,35,39,24,22,41,female,482.299999997,,"
  <table>
  <tr height=300>
    <td width=300 height=300><img src=""static/images/cards/back_of_red_stars.svg"" width=""175px"" height=""250px""></img></td>
    <td width=300 height=300><img src=""static/images/cards/back_of_red_stars.svg"" width=""175px"" height=""250px""></img></td>
  </tr>
  <tr height=200>
    <td width=300><img src=""static/images/keys/z.svg"" width=""35%"" height=""75%""></img></td>
    <td width=300></td>
  </tr>
</table>
  ",90.0,1.0,,,,,,,,,,,,,,,,,,,,,,,,,,
101,0,,html-keyboard-response,101,442327,0.0-4.15-2.15,5pnlyk629hr,2022-09-19 14:52:44.739,5f8b4560fc6686262722efdb,3,35,39,24,22,41,female,,,"
  <table>
  <tr height=300>
    <td width=300 height=300><img src=""static/images/cards/1_of_red_stars.svg"" width=""175px"" height=""250px""></img></td>
    <td width=300 height=300><img src=""static/images/cards/back_of_red_stars.svg"" width=""175px"" height=""250px""></img></td>
  </tr>
  <tr height=200>
    <td width=300><img src=""static/images/keys/z.svg"" width=""35%"" height=""75%""></img></td>
    <td width=300></td>
  </tr>
</table>
  ",,,,,,,,,,,,,,,,,,,,,,,,,,,,
102,0,,html-keyboard-response,102,443837,0.0-4.15-3.15,5pnlyk629hr,2022-09-19 14:52:44.739,5f8b4560fc6686262722efdb,3,35,39,24,22,41,female,,,"<p style=""font-size:50px"">You Lose!
No points this round.</p>",,,,,,,,,,,,,,,,,,,,,,,,,,,,
103,0,,html-keyboard-response,103,444345,0.0-4.15-4.15,5pnlyk629hr,2022-09-19 14:52:44.739,5f8b4560fc6686262722efdb,3,35,39,24,22,41,female,,,,,,1.0,learning,15.0,D,,red,,stars,,,,D,red,stars,,0.0,0.0,1,left,482.299999997,1.0,0.0,0.0,,,
104,0,,html-keyboard-response,104,445852,0.0-4.16-0.16,5pnlyk629hr,2022-09-19 14:52:44.739,5f8b4560fc6686262722efdb,3,35,39,24,22,41,female,,,"<img src=""static/images/cards/stack_of_red_bolts.svg"" width=""175px"" height=""250px""></img>",,,,,,,,,,,,,,,,,,,,,,,,,,,,
105,0,,html-keyboard-response,105,446805,0.0-4.16-1.16,5pnlyk629hr,2022-09-19 14:52:44.739,5f8b4560fc6686262722efdb,3,35,39,24,22,41,female,446.700000003,,"
  <table>
  <tr height=300>
    <td width=300 height=300><img src=""static/images/cards/back_of_red_bolts.svg"" width=""175px"" height=""250px""></img></td>
    <td width=300 height=300><img src=""static/images/cards/back_of_red_bolts.svg"" width=""175px"" height=""250px""></img></td>
  </tr>
  <tr height=200>
    <td width=300><img src=""static/images/keys/z.svg"" width=""35%"" height=""75%""></img></td>
    <td width=300><img src=""static/images/keys/m.svg"" width=""35%"" height=""75%""></img></td>
  </tr>
</table>
  ",77.0,1.0,,,,,,,,,,,,,,,,,,,,,,,,,,
106,0,,html-keyboard-response,106,448306,0.0-4.16-2.16,5pnlyk629hr,2022-09-19 14:52:44.739,5f8b4560fc6686262722efdb,3,35,39,24,22,41,female,,,"
  <table>
  <tr height=300>
    <td width=300 height=300><img src=""static/images/cards/back_of_red_bolts.svg"" width=""175px"" height=""250px""></img></td>
    <td width=300 height=300><img src=""static/images/cards/9_of_red_bolts.svg"" width=""175px"" height=""250px""></img></td>
  </tr>
  <tr height=200>
    <td width=300><img src=""static/images/keys/z.svg"" width=""35%"" height=""75%""></img></td>
    <td width=300><img src=""static/images/keys/m.svg"" width=""35%"" height=""75%""></img></td>
  </tr>
</table>
  ",,,,,,,,,,,,,,,,,,,,,,,,,,,,
107,0,,html-keyboard-response,107,449817,0.0-4.16-3.16,5pnlyk629hr,2022-09-19 14:52:44.739,5f8b4560fc6686262722efdb,3,35,39,24,22,41,female,,,"<p style=""font-size:50px"">You win!
+10 points this round!</p>",,,,,,,,,,,,,,,,,,,,,,,,,,,,
108,0,,html-keyboard-response,108,450327,0.0-4.16-4.16,5pnlyk629hr,2022-09-19 14:52:44.739,5f8b4560fc6686262722efdb,3,35,39,24,22,41,female,,,,,,1.0,learning,16.0,Xc,,red,,bolts,,,,Xc,red,bolts,,1.0,0.0,NA,right,446.700000003,9.0,1.0,1.0,,,
109,0,,html-keyboard-response,109,451832,0.0-4.17-0.17,5pnlyk629hr,2022-09-19 14:52:44.739,5f8b4560fc6686262722efdb,3,35,39,24,22,41,female,,,"<img src=""static/images/cards/stack_of_black_bolts.svg"" width=""175px"" height=""250px""></img>",,,,,,,,,,,,,,,,,,,,,,,,,,,,
110,0,,html-keyboard-response,110,452921,0.0-4.17-1.17,5pnlyk629hr,2022-09-19 14:52:44.739,5f8b4560fc6686262722efdb,3,35,39,24,22,41,female,587.5,,"
  <table>
  <tr height=300>
    <td width=300 height=300><img src=""static/images/cards/back_of_black_bolts.svg"" width=""175px"" height=""250px""></img></td>
    <td width=300 height=300><img src=""static/images/cards/back_of_black_bolts.svg"" width=""175px"" height=""250px""></img></td>
  </tr>
  <tr height=200>
    <td width=300><img src=""static/images/keys/z.svg"" width=""35%"" height=""75%""></img></td>
    <td width=300></td>
  </tr>
</table>
  ",90.0,1.0,,,,,,,,,,,,,,,,,,,,,,,,,,
111,0,,html-keyboard-response,111,454432,0.0-4.17-2.17,5pnlyk629hr,2022-09-19 14:52:44.739,5f8b4560fc6686262722efdb,3,35,39,24,22,41,female,,,"
  <table>
  <tr height=300>
    <td width=300 height=300><img src=""static/images/cards/1_of_black_bolts.svg"" width=""175px"" height=""250px""></img></td>
    <td width=300 height=300><img src=""static/images/cards/back_of_black_bolts.svg"" width=""175px"" height=""250px""></img></td>
  </tr>
  <tr height=200>
    <td width=300><img src=""static/images/keys/z.svg"" width=""35%"" height=""75%""></img></td>
    <td width=300></td>
  </tr>
</table>
  ",,,,,,,,,,,,,,,,,,,,,,,,,,,,
112,0,,html-keyboard-response,112,455938,0.0-4.17-3.17,5pnlyk629hr,2022-09-19 14:52:44.739,5f8b4560fc6686262722efdb,3,35,39,24,22,41,female,,,"<p style=""font-size:50px"">You win!
+10 points this round!</p>",,,,,,,,,,,,,,,,,,,,,,,,,,,,
113,0,,html-keyboard-response,113,456448,0.0-4.17-4.17,5pnlyk629hr,2022-09-19 14:52:44.739,5f8b4560fc6686262722efdb,3,35,39,24,22,41,female,,,,,,1.0,learning,17.0,Xnc,,black,,bolts,,,,Xnc,black,bolts,,0.0,0.0,1,left,587.5,1.0,0.0,1.0,,,
114,0,,html-keyboard-response,114,457950,0.0-4.18-0.18,5pnlyk629hr,2022-09-19 14:52:44.739,5f8b4560fc6686262722efdb,3,35,39,24,22,41,female,,,"<img src=""static/images/cards/stack_of_black_moons.svg"" width=""175px"" height=""250px""></img>",,,,,,,,,,,,,,,,,,,,,,,,,,,,
115,0,,html-keyboard-response,115,459175,0.0-4.18-1.18,5pnlyk629hr,2022-09-19 14:52:44.739,5f8b4560fc6686262722efdb,3,35,39,24,22,41,female,724.0,,"
  <table>
  <tr height=300>
    <td width=300 height=300><img src=""static/images/cards/back_of_black_moons.svg"" width=""175px"" height=""250px""></img></td>
    <td width=300 height=300><img src=""static/images/cards/back_of_black_moons.svg"" width=""175px"" height=""250px""></img></td>
  </tr>
  <tr height=200>
    <td width=300><img src=""static/images/keys/z.svg"" width=""35%"" height=""75%""></img></td>
    <td width=300><img src=""static/images/keys/m.svg"" width=""35%"" height=""75%""></img></td>
  </tr>
</table>
  ",77.0,1.0,,,,,,,,,,,,,,,,,,,,,,,,,,
116,0,,html-keyboard-response,116,460682,0.0-4.18-2.18,5pnlyk629hr,2022-09-19 14:52:44.739,5f8b4560fc6686262722efdb,3,35,39,24,22,41,female,,,"
  <table>
  <tr height=300>
    <td width=300 height=300><img src=""static/images/cards/back_of_black_moons.svg"" width=""175px"" height=""250px""></img></td>
    <td width=300 height=300><img src=""static/images/cards/6_of_black_moons.svg"" width=""175px"" height=""250px""></img></td>
  </tr>
  <tr height=200>
    <td width=300><img src=""static/images/keys/z.svg"" width=""35%"" height=""75%""></img></td>
    <td width=300><img src=""static/images/keys/m.svg"" width=""35%"" height=""75%""></img></td>
  </tr>
</table>
  ",,,,,,,,,,,,,,,,,,,,,,,,,,,,
117,0,,html-keyboard-response,117,462186,0.0-4.18-3.18,5pnlyk629hr,2022-09-19 14:52:44.739,5f8b4560fc6686262722efdb,3,35,39,24,22,41,female,,,"<p style=""font-size:50px"">You win!
+10 points this round!</p>",,,,,,,,,,,,,,,,,,,,,,,,,,,,
118,0,,html-keyboard-response,118,462695,0.0-4.18-4.18,5pnlyk629hr,2022-09-19 14:52:44.739,5f8b4560fc6686262722efdb,3,35,39,24,22,41,female,,,,,,1.0,learning,18.0,A,,black,,moons,,,,A,black,moons,,1.0,1.0,NA,right,724.0,6.0,1.0,1.0,,,
119,0,,html-keyboard-response,119,464199,0.0-4.19-0.19,5pnlyk629hr,2022-09-19 14:52:44.739,5f8b4560fc6686262722efdb,3,35,39,24,22,41,female,,,"<img src=""static/images/cards/stack_of_red_moons.svg"" width=""175px"" height=""250px""></img>",,,,,,,,,,,,,,,,,,,,,,,,,,,,
120,0,,html-keyboard-response,120,465233,0.0-4.19-1.19,5pnlyk629hr,2022-09-19 14:52:44.739,5f8b4560fc6686262722efdb,3,35,39,24,22,41,female,531.1999999993,,"
  <table>
  <tr height=300>
    <td width=300 height=300><img src=""static/images/cards/back_of_red_moons.svg"" width=""175px"" height=""250px""></img></td>
    <td width=300 height=300><img src=""static/images/cards/back_of_red_moons.svg"" width=""175px"" height=""250px""></img></td>
  </tr>
  <tr height=200>
    <td width=300></td>
    <td width=300><img src=""static/images/keys/m.svg"" width=""35%"" height=""75%""></img></td>
  </tr>
</table>
  ",77.0,1.0,,,,,,,,,,,,,,,,,,,,,,,,,,
121,0,,html-keyboard-response,121,466749,0.0-4.19-2.19,5pnlyk629hr,2022-09-19 14:52:44.739,5f8b4560fc6686262722efdb,3,35,39,24,22,41,female,,,"
  <table>
  <tr height=300>
    <td width=300 height=300><img src=""static/images/cards/back_of_red_moons.svg"" width=""175px"" height=""250px""></img></td>
    <td width=300 height=300><img src=""static/images/cards/7_of_red_moons.svg"" width=""175px"" height=""250px""></img></td>
  </tr>
  <tr height=200>
    <td width=300></td>
    <td width=300><img src=""static/images/keys/m.svg"" width=""35%"" height=""75%""></img></td>
  </tr>
</table>
  ",,,,,,,,,,,,,,,,,,,,,,,,,,,,
122,0,,html-keyboard-response,122,468257,0.0-4.19-3.19,5pnlyk629hr,2022-09-19 14:52:44.739,5f8b4560fc6686262722efdb,3,35,39,24,22,41,female,,,"<p style=""font-size:50px"">You win!
+10 points this round!</p>",,,,,,,,,,,,,,,,,,,,,,,,,,,,
123,0,,html-keyboard-response,123,468764,0.0-4.19-4.19,5pnlyk629hr,2022-09-19 14:52:44.739,5f8b4560fc6686262722efdb,3,35,39,24,22,41,female,,,,,,1.0,learning,19.0,B,,red,,moons,,,,B,red,moons,,0.0,1.0,0,right,531.1999999993,7.0,1.0,1.0,,,
124,0,,html-keyboard-response,124,470266,0.0-4.20-0.20,5pnlyk629hr,2022-09-19 14:52:44.739,5f8b4560fc6686262722efdb,3,35,39,24,22,41,female,,,"<img src=""static/images/cards/stack_of_black_stars.svg"" width=""175px"" height=""250px""></img>",,,,,,,,,,,,,,,,,,,,,,,,,,,,
125,0,,html-keyboard-response,125,471367,0.0-4.20-1.20,5pnlyk629hr,2022-09-19 14:52:44.739,5f8b4560fc6686262722efdb,3,35,39,24,22,41,female,596.799999997,,"
  <table>
  <tr height=300>
    <td width=300 height=300><img src=""static/images/cards/back_of_black_stars.svg"" width=""175px"" height=""250px""></img></td>
    <td width=300 height=300><img src=""static/images/cards/back_of_black_stars.svg"" width=""175px"" height=""250px""></img></td>
  </tr>
  <tr height=200>
    <td width=300><img src=""static/images/keys/z.svg"" width=""35%"" height=""75%""></img></td>
    <td width=300><img src=""static/images/keys/m.svg"" width=""35%"" height=""75%""></img></td>
  </tr>
</table>
  ",77.0,1.0,,,,,,,,,,,,,,,,,,,,,,,,,,
126,0,,html-keyboard-response,126,472869,0.0-4.20-2.20,5pnlyk629hr,2022-09-19 14:52:44.739,5f8b4560fc6686262722efdb,3,35,39,24,22,41,female,,,"
  <table>
  <tr height=300>
    <td width=300 height=300><img src=""static/images/cards/back_of_black_stars.svg"" width=""175px"" height=""250px""></img></td>
    <td width=300 height=300><img src=""static/images/cards/6_of_black_stars.svg"" width=""175px"" height=""250px""></img></td>
  </tr>
  <tr height=200>
    <td width=300><img src=""static/images/keys/z.svg"" width=""35%"" height=""75%""></img></td>
    <td width=300><img src=""static/images/keys/m.svg"" width=""35%"" height=""75%""></img></td>
  </tr>
</table>
  ",,,,,,,,,,,,,,,,,,,,,,,,,,,,
127,0,,html-keyboard-response,127,474384,0.0-4.20-3.20,5pnlyk629hr,2022-09-19 14:52:44.739,5f8b4560fc6686262722efdb,3,35,39,24,22,41,female,,,"<p style=""font-size:50px"">You win!
+10 points this round!</p>",,,,,,,,,,,,,,,,,,,,,,,,,,,,
128,0,,html-keyboard-response,128,474890,0.0-4.20-4.20,5pnlyk629hr,2022-09-19 14:52:44.739,5f8b4560fc6686262722efdb,3,35,39,24,22,41,female,,,,,,1.0,learning,20.0,C,,black,,stars,,,,C,black,stars,,1.0,0.0,NA,right,596.799999997,6.0,1.0,1.0,,,
129,0,,html-keyboard-response,129,476397,0.0-4.21-0.21,5pnlyk629hr,2022-09-19 14:52:44.739,5f8b4560fc6686262722efdb,3,35,39,24,22,41,female,,,"<img src=""static/images/cards/stack_of_red_stars.svg"" width=""175px"" height=""250px""></img>",,,,,,,,,,,,,,,,,,,,,,,,,,,,
130,0,,html-keyboard-response,130,477427,0.0-4.21-1.21,5pnlyk629hr,2022-09-19 14:52:44.739,5f8b4560fc6686262722efdb,3,35,39,24,22,41,female,527.3999999985,,"
  <table>
  <tr height=300>
    <td width=300 height=300><img src=""static/images/cards/back_of_red_stars.svg"" width=""175px"" height=""250px""></img></td>
    <td width=300 height=300><img src=""static/images/cards/back_of_red_stars.svg"" width=""175px"" height=""250px""></img></td>
  </tr>
  <tr height=200>
    <td width=300><img src=""static/images/keys/z.svg"" width=""35%"" height=""75%""></img></td>
    <td width=300></td>
  </tr>
</table>
  ",90.0,1.0,,,,,,,,,,,,,,,,,,,,,,,,,,
131,0,,html-keyboard-response,131,478939,0.0-4.21-2.21,5pnlyk629hr,2022-09-19 14:52:44.739,5f8b4560fc6686262722efdb,3,35,39,24,22,41,female,,,"
  <table>
  <tr height=300>
    <td width=300 height=300><img src=""static/images/cards/7_of_red_stars.svg"" width=""175px"" height=""250px""></img></td>
    <td width=300 height=300><img src=""static/images/cards/back_of_red_stars.svg"" width=""175px"" height=""250px""></img></td>
  </tr>
  <tr height=200>
    <td width=300><img src=""static/images/keys/z.svg"" width=""35%"" height=""75%""></img></td>
    <td width=300></td>
  </tr>
</table>
  ",,,,,,,,,,,,,,,,,,,,,,,,,,,,
132,0,,html-keyboard-response,132,480454,0.0-4.21-3.21,5pnlyk629hr,2022-09-19 14:52:44.739,5f8b4560fc6686262722efdb,3,35,39,24,22,41,female,,,"<p style=""font-size:50px"">You Lose!
No points this round.</p>",,,,,,,,,,,,,,,,,,,,,,,,,,,,
133,0,,html-keyboard-response,133,480962,0.0-4.21-4.21,5pnlyk629hr,2022-09-19 14:52:44.739,5f8b4560fc6686262722efdb,3,35,39,24,22,41,female,,,,,,1.0,learning,21.0,D,,red,,stars,,,,D,red,stars,,0.0,0.0,1,left,527.3999999985,7.0,1.0,0.0,,,
134,0,,html-keyboard-response,134,482471,0.0-4.22-0.22,5pnlyk629hr,2022-09-19 14:52:44.739,5f8b4560fc6686262722efdb,3,35,39,24,22,41,female,,,"<img src=""static/images/cards/stack_of_red_bolts.svg"" width=""175px"" height=""250px""></img>",,,,,,,,,,,,,,,,,,,,,,,,,,,,
135,0,,html-keyboard-response,135,483558,0.0-4.22-1.22,5pnlyk629hr,2022-09-19 14:52:44.739,5f8b4560fc6686262722efdb,3,35,39,24,22,41,female,583.1999999993,,"
  <table>
  <tr height=300>
    <td width=300 height=300><img src=""static/images/cards/back_of_red_bolts.svg"" width=""175px"" height=""250px""></img></td>
    <td width=300 height=300><img src=""static/images/cards/back_of_red_bolts.svg"" width=""175px"" height=""250px""></img></td>
  </tr>
  <tr height=200>
    <td width=300><img src=""static/images/keys/z.svg"" width=""35%"" height=""75%""></img></td>
    <td width=300><img src=""static/images/keys/m.svg"" width=""35%"" height=""75%""></img></td>
  </tr>
</table>
  ",77.0,1.0,,,,,,,,,,,,,,,,,,,,,,,,,,
136,0,,html-keyboard-response,136,485068,0.0-4.22-2.22,5pnlyk629hr,2022-09-19 14:52:44.739,5f8b4560fc6686262722efdb,3,35,39,24,22,41,female,,,"
  <table>
  <tr height=300>
    <td width=300 height=300><img src=""static/images/cards/back_of_red_bolts.svg"" width=""175px"" height=""250px""></img></td>
    <td width=300 height=300><img src=""static/images/cards/1_of_red_bolts.svg"" width=""175px"" height=""250px""></img></td>
  </tr>
  <tr height=200>
    <td width=300><img src=""static/images/keys/z.svg"" width=""35%"" height=""75%""></img></td>
    <td width=300><img src=""static/images/keys/m.svg"" width=""35%"" height=""75%""></img></td>
  </tr>
</table>
  ",,,,,,,,,,,,,,,,,,,,,,,,,,,,
137,0,,html-keyboard-response,137,486590,0.0-4.22-3.22,5pnlyk629hr,2022-09-19 14:52:44.739,5f8b4560fc6686262722efdb,3,35,39,24,22,41,female,,,"<p style=""font-size:50px"">You win!
+10 points this round!</p>",,,,,,,,,,,,,,,,,,,,,,,,,,,,
138,0,,html-keyboard-response,138,487098,0.0-4.22-4.22,5pnlyk629hr,2022-09-19 14:52:44.739,5f8b4560fc6686262722efdb,3,35,39,24,22,41,female,,,,,,1.0,learning,22.0,Xc,,red,,bolts,,,,Xc,red,bolts,,1.0,0.0,NA,right,583.1999999993,1.0,0.0,1.0,,,
139,0,,html-keyboard-response,139,488601,0.0-4.23-0.23,5pnlyk629hr,2022-09-19 14:52:44.739,5f8b4560fc6686262722efdb,3,35,39,24,22,41,female,,,"<img src=""static/images/cards/stack_of_black_bolts.svg"" width=""175px"" height=""250px""></img>",,,,,,,,,,,,,,,,,,,,,,,,,,,,
140,0,,html-keyboard-response,140,489630,0.0-4.23-1.23,5pnlyk629hr,2022-09-19 14:52:44.739,5f8b4560fc6686262722efdb,3,35,39,24,22,41,female,526.3000000007,,"
  <table>
  <tr height=300>
    <td width=300 height=300><img src=""static/images/cards/back_of_black_bolts.svg"" width=""175px"" height=""250px""></img></td>
    <td width=300 height=300><img src=""static/images/cards/back_of_black_bolts.svg"" width=""175px"" height=""250px""></img></td>
  </tr>
  <tr height=200>
    <td width=300></td>
    <td width=300><img src=""static/images/keys/m.svg"" width=""35%"" height=""75%""></img></td>
  </tr>
</table>
  ",77.0,1.0,,,,,,,,,,,,,,,,,,,,,,,,,,
141,0,,html-keyboard-response,141,491133,0.0-4.23-2.23,5pnlyk629hr,2022-09-19 14:52:44.739,5f8b4560fc6686262722efdb,3,35,39,24,22,41,female,,,"
  <table>
  <tr height=300>
    <td width=300 height=300><img src=""static/images/cards/back_of_black_bolts.svg"" width=""175px"" height=""250px""></img></td>
    <td width=300 height=300><img src=""static/images/cards/1_of_black_bolts.svg"" width=""175px"" height=""250px""></img></td>
  </tr>
  <tr height=200>
    <td width=300></td>
    <td width=300><img src=""static/images/keys/m.svg"" width=""35%"" height=""75%""></img></td>
  </tr>
</table>
  ",,,,,,,,,,,,,,,,,,,,,,,,,,,,
142,0,,html-keyboard-response,142,492642,0.0-4.23-3.23,5pnlyk629hr,2022-09-19 14:52:44.739,5f8b4560fc6686262722efdb,3,35,39,24,22,41,female,,,"<p style=""font-size:50px"">You win!
+10 points this round!</p>",,,,,,,,,,,,,,,,,,,,,,,,,,,,
143,0,,html-keyboard-response,143,493156,0.0-4.23-4.23,5pnlyk629hr,2022-09-19 14:52:44.739,5f8b4560fc6686262722efdb,3,35,39,24,22,41,female,,,,,,1.0,learning,23.0,Xnc,,black,,bolts,,,,Xnc,black,bolts,,0.0,0.0,0,right,526.3000000007,1.0,0.0,1.0,,,
144,0,,call-function,144,493160,0.0-5.0,5pnlyk629hr,2022-09-19 14:52:44.739,5f8b4560fc6686262722efdb,3,35,39,24,22,41,female,,,,,,,,,,,,,,,,,,,,,,,,,,,,,,,
145,0,,image-keyboard-response,145,497334,0.0-6.0-0.0,5pnlyk629hr,2022-09-19 14:52:44.739,5f8b4560fc6686262722efdb,3,35,39,24,22,41,female,4173.1000000015,,static/images/instructions_CB_3/Slide20.png,39.0,,,,,,,,,,,,,,,,,,,,,,,,,,,
146,0,,image-keyboard-response,146,528462,0.0-6.1-0.1,5pnlyk629hr,2022-09-19 14:52:44.739,5f8b4560fc6686262722efdb,3,35,39,24,22,41,female,31128.1999999993,,static/images/instructions_CB_3/Slide21.png,37.0,,,,,,,,,,,,,,,,,,,,,,,,,,,
147,0,,image-keyboard-response,147,531979,0.0-6.2-0.2,5pnlyk629hr,2022-09-19 14:52:44.739,5f8b4560fc6686262722efdb,3,35,39,24,22,41,female,3516.1000000015,,static/images/instructions_CB_3/Slide20.png,39.0,,,,,,,,,,,,,,,,,,,,,,,,,,,
148,0,,image-keyboard-response,148,546088,0.0-6.3-0.3,5pnlyk629hr,2022-09-19 14:52:44.739,5f8b4560fc6686262722efdb,3,35,39,24,22,41,female,14108.0,,static/images/instructions_CB_3/Slide21.png,39.0,,,,,,,,,,,,,,,,,,,,,,,,,,,
149,0,,image-keyboard-response,149,555635,0.0-6.4-0.4,5pnlyk629hr,2022-09-19 14:52:44.739,5f8b4560fc6686262722efdb,3,35,39,24,22,41,female,9545.8999999985,,static/images/instructions_CB_3/Slide22.png,39.0,,,,,,,,,,,,,,,,,,,,,,,,,,,
150,0,,image-keyboard-response,150,567854,0.0-6.5-0.5,5pnlyk629hr,2022-09-19 14:52:44.739,5f8b4560fc6686262722efdb,3,35,39,24,22,41,female,12218.1999999993,,static/images/instructions_CB_3/Slide23.png,39.0,,,,,,,,,,,,,,,,,,,,,,,,,,,
151,0,,image-keyboard-response,151,569634,0.0-6.6-0.6,5pnlyk629hr,2022-09-19 14:52:44.739,5f8b4560fc6686262722efdb,3,35,39,24,22,41,female,1779.3999999985,,static/images/instructions_CB_3/Slide24.png,39.0,,,,,,,,,,,,,,,,,,,,,,,,,,,
152,0,,html-keyboard-response,152,571941,0.0-7.0-0.0,5pnlyk629hr,2022-09-19 14:52:44.739,5f8b4560fc6686262722efdb,3,35,39,24,22,41,female,2305.3999999985,,"
  <table>
  <tr height=300>
    <td width=300 height=300><img src=""static/images/cards/stack_of_red_moons.svg"" width=""175px"" height=""250px""></img></td>
    <td width=300 height=300><img src=""static/images/cards/stack_of_red_stars.svg"" width=""175px"" height=""250px""></img></td>
  </tr>
  <tr height=200>
    <td width=300><img src=""static/images/keys/w.svg"" width=""35%"" height=""75%""></img></td>
    <td width=300><img src=""static/images/keys/o.svg"" width=""35%"" height=""75%""></img></td>
  </tr>
</table>
  ",87.0,1.0,,,,,,,,,,,,,,,,,,,,,,,,,,
153,0,,html-keyboard-response,153,573957,0.0-7.0-1.0,5pnlyk629hr,2022-09-19 14:52:44.739,5f8b4560fc6686262722efdb,3,35,39,24,22,41,female,1506.6000000015,,"
  <table>
  <tr height=300>
    <td width=300 height=300><img src=""static/images/cards/back_of_red_moons.svg"" width=""175px"" height=""250px""></img></td>
    <td width=300 height=300><img src=""static/images/cards/back_of_red_moons.svg"" width=""175px"" height=""250px""></img></td>
  </tr>
  <tr height=200>
    <td width=300><img src=""static/images/keys/z.svg"" width=""35%"" height=""75%""></img></td>
    <td width=300></td>
  </tr>
</table>
  ",90.0,1.0,,,,,,,,,,,,,,,,,,,,,,,,,,
154,0,,html-keyboard-response,154,575466,0.0-7.0-2.0,5pnlyk629hr,2022-09-19 14:52:44.739,5f8b4560fc6686262722efdb,3,35,39,24,22,41,female,,,"
  <table>
  <tr height=300>
    <td width=300 height=300><img src=""static/images/cards/10_of_red_moons.svg"" width=""175px"" height=""250px""></img></td>
    <td width=300 height=300><img src=""static/images/cards/back_of_red_moons.svg"" width=""175px"" height=""250px""></img></td>
  </tr>
  <tr height=200>
    <td width=300><img src=""static/images/keys/z.svg"" width=""35%"" height=""75%""></img></td>
    <td width=300></td>
  </tr>
</table>
  ",,,,,,,,,,,,,,,,,,,,,,,,,,,,
155,0,,html-keyboard-response,155,576978,0.0-7.0-3.0,5pnlyk629hr,2022-09-19 14:52:44.739,5f8b4560fc6686262722efdb,3,35,39,24,22,41,female,,,"<p style=""font-size:50px"">You win!
+10 points this round!</p>",,,,,,,,,,,,,,,,,,,,,,,,,,,,
156,0,,html-keyboard-response,156,577484,0.0-7.0-4.0,5pnlyk629hr,2022-09-19 14:52:44.739,5f8b4560fc6686262722efdb,3,35,39,24,22,41,female,,,,,,1.0,choice,0.0,B,D,red,red,moons,stars,B,D,B,red,moons,2305.3999999985,0.0,1.0,1,left,1506.6000000015,10.0,1.0,1.0,,,
157,0,,html-keyboard-response,157,580131,0.0-7.1-0.1,5pnlyk629hr,2022-09-19 14:52:44.739,5f8b4560fc6686262722efdb,3,35,39,24,22,41,female,2645.6999999993,,"
  <table>
  <tr height=300>
    <td width=300 height=300><img src=""static/images/cards/stack_of_red_moons.svg"" width=""175px"" height=""250px""></img></td>
    <td width=300 height=300><img src=""static/images/cards/stack_of_black_stars.svg"" width=""175px"" height=""250px""></img></td>
  </tr>
  <tr height=200>
    <td width=300><img src=""static/images/keys/w.svg"" width=""35%"" height=""75%""></img></td>
    <td width=300><img src=""static/images/keys/o.svg"" width=""35%"" height=""75%""></img></td>
  </tr>
</table>
  ",87.0,1.0,,,,,,,,,,,,,,,,,,,,,,,,,,
158,0,,html-keyboard-response,158,582035,0.0-7.1-1.1,5pnlyk629hr,2022-09-19 14:52:44.739,5f8b4560fc6686262722efdb,3,35,39,24,22,41,female,1396.1999999993,,"
  <table>
  <tr height=300>
    <td width=300 height=300><img src=""static/images/cards/back_of_red_moons.svg"" width=""175px"" height=""250px""></img></td>
    <td width=300 height=300><img src=""static/images/cards/back_of_red_moons.svg"" width=""175px"" height=""250px""></img></td>
  </tr>
  <tr height=200>
    <td width=300></td>
    <td width=300><img src=""static/images/keys/m.svg"" width=""35%"" height=""75%""></img></td>
  </tr>
</table>
  ",77.0,1.0,,,,,,,,,,,,,,,,,,,,,,,,,,
159,0,,html-keyboard-response,159,583540,0.0-7.1-2.1,5pnlyk629hr,2022-09-19 14:52:44.739,5f8b4560fc6686262722efdb,3,35,39,24,22,41,female,,,"
  <table>
  <tr height=300>
    <td width=300 height=300><img src=""static/images/cards/back_of_red_moons.svg"" width=""175px"" height=""250px""></img></td>
    <td width=300 height=300><img src=""static/images/cards/4_of_red_moons.svg"" width=""175px"" height=""250px""></img></td>
  </tr>
  <tr height=200>
    <td width=300></td>
    <td width=300><img src=""static/images/keys/m.svg"" width=""35%"" height=""75%""></img></td>
  </tr>
</table>
  ",,,,,,,,,,,,,,,,,,,,,,,,,,,,
160,0,,html-keyboard-response,160,585057,0.0-7.1-3.1,5pnlyk629hr,2022-09-19 14:52:44.739,5f8b4560fc6686262722efdb,3,35,39,24,22,41,female,,,"<p style=""font-size:50px"">You Lose!
No points this round.</p>",,,,,,,,,,,,,,,,,,,,,,,,,,,,
161,0,,html-keyboard-response,161,585564,0.0-7.1-4.1,5pnlyk629hr,2022-09-19 14:52:44.739,5f8b4560fc6686262722efdb,3,35,39,24,22,41,female,,,,,,1.0,choice,1.0,B,C,red,black,moons,stars,B,C,B,red,moons,2645.6999999993,0.0,1.0,0,right,1396.1999999993,4.0,0.0,0.0,,,
162,0,,html-keyboard-response,162,588344,0.0-7.2-0.2,5pnlyk629hr,2022-09-19 14:52:44.739,5f8b4560fc6686262722efdb,3,35,39,24,22,41,female,2778.1999999993,,"
  <table>
  <tr height=300>
    <td width=300 height=300><img src=""static/images/cards/stack_of_black_stars.svg"" width=""175px"" height=""250px""></img></td>
    <td width=300 height=300><img src=""static/images/cards/stack_of_red_moons.svg"" width=""175px"" height=""250px""></img></td>
  </tr>
  <tr height=200>
    <td width=300><img src=""static/images/keys/w.svg"" width=""35%"" height=""75%""></img></td>
    <td width=300><img src=""static/images/keys/o.svg"" width=""35%"" height=""75%""></img></td>
  </tr>
</table>
  ",87.0,1.0,,,,,,,,,,,,,,,,,,,,,,,,,,
163,0,,html-keyboard-response,163,590674,0.0-7.2-1.2,5pnlyk629hr,2022-09-19 14:52:44.739,5f8b4560fc6686262722efdb,3,35,39,24,22,41,female,1816.5,,"
  <table>
  <tr height=300>
    <td width=300 height=300><img src=""static/images/cards/back_of_black_stars.svg"" width=""175px"" height=""250px""></img></td>
    <td width=300 height=300><img src=""static/images/cards/back_of_black_stars.svg"" width=""175px"" height=""250px""></img></td>
  </tr>
  <tr height=200>
    <td width=300><img src=""static/images/keys/z.svg"" width=""35%"" height=""75%""></img></td>
    <td width=300><img src=""static/images/keys/m.svg"" width=""35%"" height=""75%""></img></td>
  </tr>
</table>
  ",90.0,1.0,,,,,,,,,,,,,,,,,,,,,,,,,,
164,0,,html-keyboard-response,164,592178,0.0-7.2-2.2,5pnlyk629hr,2022-09-19 14:52:44.739,5f8b4560fc6686262722efdb,3,35,39,24,22,41,female,,,"
  <table>
  <tr height=300>
    <td width=300 height=300><img src=""static/images/cards/2_of_black_stars.svg"" width=""175px"" height=""250px""></img></td>
    <td width=300 height=300><img src=""static/images/cards/back_of_black_stars.svg"" width=""175px"" height=""250px""></img></td>
  </tr>
  <tr height=200>
    <td width=300><img src=""static/images/keys/z.svg"" width=""35%"" height=""75%""></img></td>
    <td width=300><img src=""static/images/keys/m.svg"" width=""35%"" height=""75%""></img></td>
  </tr>
</table>
  ",,,,,,,,,,,,,,,,,,,,,,,,,,,,
165,0,,html-keyboard-response,165,593687,0.0-7.2-3.2,5pnlyk629hr,2022-09-19 14:52:44.739,5f8b4560fc6686262722efdb,3,35,39,24,22,41,female,,,"<p style=""font-size:50px"">You Lose!
No points this round.</p>",,,,,,,,,,,,,,,,,,,,,,,,,,,,
166,0,,html-keyboard-response,166,594207,0.0-7.2-4.2,5pnlyk629hr,2022-09-19 14:52:44.739,5f8b4560fc6686262722efdb,3,35,39,24,22,41,female,,,,,,1.0,choice,2.0,B,C,black,red,stars,moons,C,B,C,black,stars,2778.1999999993,1.0,0.0,NA,left,1816.5,2.0,0.0,0.0,,,
167,0,,html-keyboard-response,167,596264,0.0-7.3-0.3,5pnlyk629hr,2022-09-19 14:52:44.739,5f8b4560fc6686262722efdb,3,35,39,24,22,41,female,2055.3000000007,,"
  <table>
  <tr height=300>
    <td width=300 height=300><img src=""static/images/cards/stack_of_red_moons.svg"" width=""175px"" height=""250px""></img></td>
    <td width=300 height=300><img src=""static/images/cards/stack_of_black_moons.svg"" width=""175px"" height=""250px""></img></td>
  </tr>
  <tr height=200>
    <td width=300><img src=""static/images/keys/w.svg"" width=""35%"" height=""75%""></img></td>
    <td width=300><img src=""static/images/keys/o.svg"" width=""35%"" height=""75%""></img></td>
  </tr>
</table>
  ",79.0,1.0,,,,,,,,,,,,,,,,,,,,,,,,,,
168,0,,html-keyboard-response,168,597869,0.0-7.3-1.3,5pnlyk629hr,2022-09-19 14:52:44.739,5f8b4560fc6686262722efdb,3,35,39,24,22,41,female,1098.8000000007,,"
  <table>
  <tr height=300>
    <td width=300 height=300><img src=""static/images/cards/back_of_black_moons.svg"" width=""175px"" height=""250px""></img></td>
    <td width=300 height=300><img src=""static/images/cards/back_of_black_moons.svg"" width=""175px"" height=""250px""></img></td>
  </tr>
  <tr height=200>
    <td width=300><img src=""static/images/keys/z.svg"" width=""35%"" height=""75%""></img></td>
    <td width=300><img src=""static/images/keys/m.svg"" width=""35%"" height=""75%""></img></td>
  </tr>
</table>
  ",77.0,1.0,,,,,,,,,,,,,,,,,,,,,,,,,,
169,0,,html-keyboard-response,169,599385,0.0-7.3-2.3,5pnlyk629hr,2022-09-19 14:52:44.739,5f8b4560fc6686262722efdb,3,35,39,24,22,41,female,,,"
  <table>
  <tr height=300>
    <td width=300 height=300><img src=""static/images/cards/back_of_black_moons.svg"" width=""175px"" height=""250px""></img></td>
    <td width=300 height=300><img src=""static/images/cards/3_of_black_moons.svg"" width=""175px"" height=""250px""></img></td>
  </tr>
  <tr height=200>
    <td width=300><img src=""static/images/keys/z.svg"" width=""35%"" height=""75%""></img></td>
    <td width=300><img src=""static/images/keys/m.svg"" width=""35%"" height=""75%""></img></td>
  </tr>
</table>
  ",,,,,,,,,,,,,,,,,,,,,,,,,,,,
170,0,,html-keyboard-response,170,600892,0.0-7.3-3.3,5pnlyk629hr,2022-09-19 14:52:44.739,5f8b4560fc6686262722efdb,3,35,39,24,22,41,female,,,"<p style=""font-size:50px"">You Lose!
No points this round.</p>",,,,,,,,,,,,,,,,,,,,,,,,,,,,
171,0,,html-keyboard-response,171,601401,0.0-7.3-4.3,5pnlyk629hr,2022-09-19 14:52:44.739,5f8b4560fc6686262722efdb,3,35,39,24,22,41,female,,,,,,1.0,choice,3.0,A,B,red,black,moons,moons,B,A,A,black,moons,2055.3000000007,1.0,1.0,NA,right,1098.8000000007,3.0,0.0,0.0,,,
172,0,,html-keyboard-response,172,603900,0.0-7.4-0.4,5pnlyk629hr,2022-09-19 14:52:44.739,5f8b4560fc6686262722efdb,3,35,39,24,22,41,female,2496.8000000007,,"
  <table>
  <tr height=300>
    <td width=300 height=300><img src=""static/images/cards/stack_of_black_stars.svg"" width=""175px"" height=""250px""></img></td>
    <td width=300 height=300><img src=""static/images/cards/stack_of_red_moons.svg"" width=""175px"" height=""250px""></img></td>
  </tr>
  <tr height=200>
    <td width=300><img src=""static/images/keys/w.svg"" width=""35%"" height=""75%""></img></td>
    <td width=300><img src=""static/images/keys/o.svg"" width=""35%"" height=""75%""></img></td>
  </tr>
</table>
  ",87.0,1.0,,,,,,,,,,,,,,,,,,,,,,,,,,
173,0,,html-keyboard-response,173,606434,0.0-7.4-1.4,5pnlyk629hr,2022-09-19 14:52:44.739,5f8b4560fc6686262722efdb,3,35,39,24,22,41,female,2032.0,,"
  <table>
  <tr height=300>
    <td width=300 height=300><img src=""static/images/cards/back_of_black_stars.svg"" width=""175px"" height=""250px""></img></td>
    <td width=300 height=300><img src=""static/images/cards/back_of_black_stars.svg"" width=""175px"" height=""250px""></img></td>
  </tr>
  <tr height=200>
    <td width=300><img src=""static/images/keys/z.svg"" width=""35%"" height=""75%""></img></td>
    <td width=300><img src=""static/images/keys/m.svg"" width=""35%"" height=""75%""></img></td>
  </tr>
</table>
  ",77.0,1.0,,,,,,,,,,,,,,,,,,,,,,,,,,
174,0,,html-keyboard-response,174,607948,0.0-7.4-2.4,5pnlyk629hr,2022-09-19 14:52:44.739,5f8b4560fc6686262722efdb,3,35,39,24,22,41,female,,,"
  <table>
  <tr height=300>
    <td width=300 height=300><img src=""static/images/cards/back_of_black_stars.svg"" width=""175px"" height=""250px""></img></td>
    <td width=300 height=300><img src=""static/images/cards/4_of_black_stars.svg"" width=""175px"" height=""250px""></img></td>
  </tr>
  <tr height=200>
    <td width=300><img src=""static/images/keys/z.svg"" width=""35%"" height=""75%""></img></td>
    <td width=300><img src=""static/images/keys/m.svg"" width=""35%"" height=""75%""></img></td>
  </tr>
</table>
  ",,,,,,,,,,,,,,,,,,,,,,,,,,,,
175,0,,html-keyboard-response,175,609458,0.0-7.4-3.4,5pnlyk629hr,2022-09-19 14:52:44.739,5f8b4560fc6686262722efdb,3,35,39,24,22,41,female,,,"<p style=""font-size:50px"">You win!
+10 points this round!</p>",,,,,,,,,,,,,,,,,,,,,,,,,,,,
176,0,,html-keyboard-response,176,609965,0.0-7.4-4.4,5pnlyk629hr,2022-09-19 14:52:44.739,5f8b4560fc6686262722efdb,3,35,39,24,22,41,female,,,,,,1.0,choice,4.0,B,C,black,red,stars,moons,C,B,C,black,stars,2496.8000000007,1.0,0.0,NA,right,2032.0,4.0,0.0,1.0,,,
177,0,,html-keyboard-response,177,612453,0.0-7.5-0.5,5pnlyk629hr,2022-09-19 14:52:44.739,5f8b4560fc6686262722efdb,3,35,39,24,22,41,female,2486.8000000007,,"
  <table>
  <tr height=300>
    <td width=300 height=300><img src=""static/images/cards/stack_of_red_moons.svg"" width=""175px"" height=""250px""></img></td>
    <td width=300 height=300><img src=""static/images/cards/stack_of_red_stars.svg"" width=""175px"" height=""250px""></img></td>
  </tr>
  <tr height=200>
    <td width=300><img src=""static/images/keys/w.svg"" width=""35%"" height=""75%""></img></td>
    <td width=300><img src=""static/images/keys/o.svg"" width=""35%"" height=""75%""></img></td>
  </tr>
</table>
  ",79.0,1.0,,,,,,,,,,,,,,,,,,,,,,,,,,
178,0,,html-keyboard-response,178,613901,0.0-7.5-1.5,5pnlyk629hr,2022-09-19 14:52:44.739,5f8b4560fc6686262722efdb,3,35,39,24,22,41,female,931.5999999978,,"
  <table>
  <tr height=300>
    <td width=300 height=300><img src=""static/images/cards/back_of_red_stars.svg"" width=""175px"" height=""250px""></img></td>
    <td width=300 height=300><img src=""static/images/cards/back_of_red_stars.svg"" width=""175px"" height=""250px""></img></td>
  </tr>
  <tr height=200>
    <td width=300></td>
    <td width=300><img src=""static/images/keys/m.svg"" width=""35%"" height=""75%""></img></td>
  </tr>
</table>
  ",77.0,1.0,,,,,,,,,,,,,,,,,,,,,,,,,,
179,0,,html-keyboard-response,179,615410,0.0-7.5-2.5,5pnlyk629hr,2022-09-19 14:52:44.739,5f8b4560fc6686262722efdb,3,35,39,24,22,41,female,,,"
  <table>
  <tr height=300>
    <td width=300 height=300><img src=""static/images/cards/back_of_red_stars.svg"" width=""175px"" height=""250px""></img></td>
    <td width=300 height=300><img src=""static/images/cards/4_of_red_stars.svg"" width=""175px"" height=""250px""></img></td>
  </tr>
  <tr height=200>
    <td width=300></td>
    <td width=300><img src=""static/images/keys/m.svg"" width=""35%"" height=""75%""></img></td>
  </tr>
</table>
  ",,,,,,,,,,,,,,,,,,,,,,,,,,,,
180,0,,html-keyboard-response,180,616924,0.0-7.5-3.5,5pnlyk629hr,2022-09-19 14:52:44.739,5f8b4560fc6686262722efdb,3,35,39,24,22,41,female,,,"<p style=""font-size:50px"">You Lose!
No points this round.</p>",,,,,,,,,,,,,,,,,,,,,,,,,,,,
181,0,,html-keyboard-response,181,617432,0.0-7.5-4.5,5pnlyk629hr,2022-09-19 14:52:44.739,5f8b4560fc6686262722efdb,3,35,39,24,22,41,female,,,,,,1.0,choice,5.0,B,D,red,red,moons,stars,B,D,D,red,stars,2486.8000000007,0.0,0.0,0,right,931.5999999978,4.0,0.0,0.0,,,
182,0,,html-keyboard-response,182,619946,0.0-7.6-0.6,5pnlyk629hr,2022-09-19 14:52:44.739,5f8b4560fc6686262722efdb,3,35,39,24,22,41,female,2513.1000000015,,"
  <table>
  <tr height=300>
    <td width=300 height=300><img src=""static/images/cards/stack_of_black_bolts.svg"" width=""175px"" height=""250px""></img></td>
    <td width=300 height=300><img src=""static/images/cards/stack_of_black_moons.svg"" width=""175px"" height=""250px""></img></td>
  </tr>
  <tr height=200>
    <td width=300><img src=""static/images/keys/w.svg"" width=""35%"" height=""75%""></img></td>
    <td width=300><img src=""static/images/keys/o.svg"" width=""35%"" height=""75%""></img></td>
  </tr>
</table>
  ",87.0,1.0,,,,,,,,,,,,,,,,,,,,,,,,,,
183,0,,html-keyboard-response,183,621608,0.0-7.6-1.6,5pnlyk629hr,2022-09-19 14:52:44.739,5f8b4560fc6686262722efdb,3,35,39,24,22,41,female,1149.5999999978,,"
  <table>
  <tr height=300>
    <td width=300 height=300><img src=""static/images/cards/back_of_black_bolts.svg"" width=""175px"" height=""250px""></img></td>
    <td width=300 height=300><img src=""static/images/cards/back_of_black_bolts.svg"" width=""175px"" height=""250px""></img></td>
  </tr>
  <tr height=200>
    <td width=300></td>
    <td width=300><img src=""static/images/keys/m.svg"" width=""35%"" height=""75%""></img></td>
  </tr>
</table>
  ",77.0,1.0,,,,,,,,,,,,,,,,,,,,,,,,,,
184,0,,html-keyboard-response,184,623118,0.0-7.6-2.6,5pnlyk629hr,2022-09-19 14:52:44.739,5f8b4560fc6686262722efdb,3,35,39,24,22,41,female,,,"
  <table>
  <tr height=300>
    <td width=300 height=300><img src=""static/images/cards/back_of_black_bolts.svg"" width=""175px"" height=""250px""></img></td>
    <td width=300 height=300><img src=""static/images/cards/7_of_black_bolts.svg"" width=""175px"" height=""250px""></img></td>
  </tr>
  <tr height=200>
    <td width=300></td>
    <td width=300><img src=""static/images/keys/m.svg"" width=""35%"" height=""75%""></img></td>
  </tr>
</table>
  ",,,,,,,,,,,,,,,,,,,,,,,,,,,,
185,0,,html-keyboard-response,185,624626,0.0-7.6-3.6,5pnlyk629hr,2022-09-19 14:52:44.739,5f8b4560fc6686262722efdb,3,35,39,24,22,41,female,,,"<p style=""font-size:50px"">You win!
+10 points this round!</p>",,,,,,,,,,,,,,,,,,,,,,,,,,,,
186,0,,html-keyboard-response,186,625136,0.0-7.6-4.6,5pnlyk629hr,2022-09-19 14:52:44.739,5f8b4560fc6686262722efdb,3,35,39,24,22,41,female,,,,,,1.0,choice,6.0,A,Xnc,black,black,bolts,moons,Xnc,A,Xnc,black,bolts,2513.1000000015,0.0,0.0,0,right,1149.5999999978,7.0,1.0,1.0,,,
187,0,,html-keyboard-response,187,627063,0.0-7.7-0.7,5pnlyk629hr,2022-09-19 14:52:44.739,5f8b4560fc6686262722efdb,3,35,39,24,22,41,female,1925.799999997,,"
  <table>
  <tr height=300>
    <td width=300 height=300><img src=""static/images/cards/stack_of_black_moons.svg"" width=""175px"" height=""250px""></img></td>
    <td width=300 height=300><img src=""static/images/cards/stack_of_black_stars.svg"" width=""175px"" height=""250px""></img></td>
  </tr>
  <tr height=200>
    <td width=300><img src=""static/images/keys/w.svg"" width=""35%"" height=""75%""></img></td>
    <td width=300><img src=""static/images/keys/o.svg"" width=""35%"" height=""75%""></img></td>
  </tr>
</table>
  ",79.0,1.0,,,,,,,,,,,,,,,,,,,,,,,,,,
188,0,,html-keyboard-response,188,629233,0.0-7.7-1.7,5pnlyk629hr,2022-09-19 14:52:44.739,5f8b4560fc6686262722efdb,3,35,39,24,22,41,female,1659.1999999993,,"
  <table>
  <tr height=300>
    <td width=300 height=300><img src=""static/images/cards/back_of_black_stars.svg"" width=""175px"" height=""250px""></img></td>
    <td width=300 height=300><img src=""static/images/cards/back_of_black_stars.svg"" width=""175px"" height=""250px""></img></td>
  </tr>
  <tr height=200>
    <td width=300><img src=""static/images/keys/z.svg"" width=""35%"" height=""75%""></img></td>
    <td width=300><img src=""static/images/keys/m.svg"" width=""35%"" height=""75%""></img></td>
  </tr>
</table>
  ",77.0,1.0,,,,,,,,,,,,,,,,,,,,,,,,,,
189,0,,html-keyboard-response,189,630735,0.0-7.7-2.7,5pnlyk629hr,2022-09-19 14:52:44.739,5f8b4560fc6686262722efdb,3,35,39,24,22,41,female,,,"
  <table>
  <tr height=300>
    <td width=300 height=300><img src=""static/images/cards/back_of_black_stars.svg"" width=""175px"" height=""250px""></img></td>
    <td width=300 height=300><img src=""static/images/cards/6_of_black_stars.svg"" width=""175px"" height=""250px""></img></td>
  </tr>
  <tr height=200>
    <td width=300><img src=""static/images/keys/z.svg"" width=""35%"" height=""75%""></img></td>
    <td width=300><img src=""static/images/keys/m.svg"" width=""35%"" height=""75%""></img></td>
  </tr>
</table>
  ",,,,,,,,,,,,,,,,,,,,,,,,,,,,
190,0,,html-keyboard-response,190,632246,0.0-7.7-3.7,5pnlyk629hr,2022-09-19 14:52:44.739,5f8b4560fc6686262722efdb,3,35,39,24,22,41,female,,,"<p style=""font-size:50px"">You Lose!
No points this round.</p>",,,,,,,,,,,,,,,,,,,,,,,,,,,,
191,0,,html-keyboard-response,191,632753,0.0-7.7-4.7,5pnlyk629hr,2022-09-19 14:52:44.739,5f8b4560fc6686262722efdb,3,35,39,24,22,41,female,,,,,,1.0,choice,7.0,A,C,black,black,moons,stars,A,C,C,black,stars,1925.799999997,1.0,0.0,NA,right,1659.1999999993,6.0,1.0,0.0,,,
192,0,,html-keyboard-response,192,634637,0.0-7.8-0.8,5pnlyk629hr,2022-09-19 14:52:44.739,5f8b4560fc6686262722efdb,3,35,39,24,22,41,female,1882.1000000015,,"
  <table>
  <tr height=300>
    <td width=300 height=300><img src=""static/images/cards/stack_of_black_stars.svg"" width=""175px"" height=""250px""></img></td>
    <td width=300 height=300><img src=""static/images/cards/stack_of_black_moons.svg"" width=""175px"" height=""250px""></img></td>
  </tr>
  <tr height=200>
    <td width=300><img src=""static/images/keys/w.svg"" width=""35%"" height=""75%""></img></td>
    <td width=300><img src=""static/images/keys/o.svg"" width=""35%"" height=""75%""></img></td>
  </tr>
</table>
  ",87.0,1.0,,,,,,,,,,,,,,,,,,,,,,,,,,
193,0,,html-keyboard-response,193,636931,0.0-7.8-1.8,5pnlyk629hr,2022-09-19 14:52:44.739,5f8b4560fc6686262722efdb,3,35,39,24,22,41,female,1788.0999999978,,"
  <table>
  <tr height=300>
    <td width=300 height=300><img src=""static/images/cards/back_of_black_stars.svg"" width=""175px"" height=""250px""></img></td>
    <td width=300 height=300><img src=""static/images/cards/back_of_black_stars.svg"" width=""175px"" height=""250px""></img></td>
  </tr>
  <tr height=200>
    <td width=300><img src=""static/images/keys/z.svg"" width=""35%"" height=""75%""></img></td>
    <td width=300><img src=""static/images/keys/m.svg"" width=""35%"" height=""75%""></img></td>
  </tr>
</table>
  ",77.0,1.0,,,,,,,,,,,,,,,,,,,,,,,,,,
194,0,,html-keyboard-response,194,638435,0.0-7.8-2.8,5pnlyk629hr,2022-09-19 14:52:44.739,5f8b4560fc6686262722efdb,3,35,39,24,22,41,female,,,"
  <table>
  <tr height=300>
    <td width=300 height=300><img src=""static/images/cards/back_of_black_stars.svg"" width=""175px"" height=""250px""></img></td>
    <td width=300 height=300><img src=""static/images/cards/1_of_black_stars.svg"" width=""175px"" height=""250px""></img></td>
  </tr>
  <tr height=200>
    <td width=300><img src=""static/images/keys/z.svg"" width=""35%"" height=""75%""></img></td>
    <td width=300><img src=""static/images/keys/m.svg"" width=""35%"" height=""75%""></img></td>
  </tr>
</table>
  ",,,,,,,,,,,,,,,,,,,,,,,,,,,,
195,0,,html-keyboard-response,195,639952,0.0-7.8-3.8,5pnlyk629hr,2022-09-19 14:52:44.739,5f8b4560fc6686262722efdb,3,35,39,24,22,41,female,,,"<p style=""font-size:50px"">You win!
+10 points this round!</p>",,,,,,,,,,,,,,,,,,,,,,,,,,,,
196,0,,html-keyboard-response,196,640466,0.0-7.8-4.8,5pnlyk629hr,2022-09-19 14:52:44.739,5f8b4560fc6686262722efdb,3,35,39,24,22,41,female,,,,,,1.0,choice,8.0,A,C,black,black,stars,moons,C,A,C,black,stars,1882.1000000015,1.0,0.0,NA,right,1788.0999999978,1.0,0.0,1.0,,,
197,0,,html-keyboard-response,197,643198,0.0-7.9-0.9,5pnlyk629hr,2022-09-19 14:52:44.739,5f8b4560fc6686262722efdb,3,35,39,24,22,41,female,2730.1999999993,,"
  <table>
  <tr height=300>
    <td width=300 height=300><img src=""static/images/cards/stack_of_red_stars.svg"" width=""175px"" height=""250px""></img></td>
    <td width=300 height=300><img src=""static/images/cards/stack_of_black_stars.svg"" width=""175px"" height=""250px""></img></td>
  </tr>
  <tr height=200>
    <td width=300><img src=""static/images/keys/w.svg"" width=""35%"" height=""75%""></img></td>
    <td width=300><img src=""static/images/keys/o.svg"" width=""35%"" height=""75%""></img></td>
  </tr>
</table>
  ",79.0,1.0,,,,,,,,,,,,,,,,,,,,,,,,,,
198,0,,html-keyboard-response,198,644860,0.0-7.9-1.9,5pnlyk629hr,2022-09-19 14:52:44.739,5f8b4560fc6686262722efdb,3,35,39,24,22,41,female,1155.8999999985,,"
  <table>
  <tr height=300>
    <td width=300 height=300><img src=""static/images/cards/back_of_black_stars.svg"" width=""175px"" height=""250px""></img></td>
    <td width=300 height=300><img src=""static/images/cards/back_of_black_stars.svg"" width=""175px"" height=""250px""></img></td>
  </tr>
  <tr height=200>
    <td width=300><img src=""static/images/keys/z.svg"" width=""35%"" height=""75%""></img></td>
    <td width=300><img src=""static/images/keys/m.svg"" width=""35%"" height=""75%""></img></td>
  </tr>
</table>
  ",77.0,1.0,,,,,,,,,,,,,,,,,,,,,,,,,,
199,0,,html-keyboard-response,199,646365,0.0-7.9-2.9,5pnlyk629hr,2022-09-19 14:52:44.739,5f8b4560fc6686262722efdb,3,35,39,24,22,41,female,,,"
  <table>
  <tr height=300>
    <td width=300 height=300><img src=""static/images/cards/back_of_black_stars.svg"" width=""175px"" height=""250px""></img></td>
    <td width=300 height=300><img src=""static/images/cards/1_of_black_stars.svg"" width=""175px"" height=""250px""></img></td>
  </tr>
  <tr height=200>
    <td width=300><img src=""static/images/keys/z.svg"" width=""35%"" height=""75%""></img></td>
    <td width=300><img src=""static/images/keys/m.svg"" width=""35%"" height=""75%""></img></td>
  </tr>
</table>
  ",,,,,,,,,,,,,,,,,,,,,,,,,,,,
200,0,,html-keyboard-response,200,647875,0.0-7.9-3.9,5pnlyk629hr,2022-09-19 14:52:44.739,5f8b4560fc6686262722efdb,3,35,39,24,22,41,female,,,"<p style=""font-size:50px"">You win!
+10 points this round!</p>",,,,,,,,,,,,,,,,,,,,,,,,,,,,
201,0,,html-keyboard-response,201,648384,0.0-7.9-4.9,5pnlyk629hr,2022-09-19 14:52:44.739,5f8b4560fc6686262722efdb,3,35,39,24,22,41,female,,,,,,1.0,choice,9.0,C,D,red,black,stars,stars,D,C,C,black,stars,2730.1999999993,1.0,0.0,NA,right,1155.8999999985,1.0,0.0,1.0,,,
202,0,,html-keyboard-response,202,649966,0.0-7.10-0.10,5pnlyk629hr,2022-09-19 14:52:44.739,5f8b4560fc6686262722efdb,3,35,39,24,22,41,female,1579.8999999985,,"
  <table>
  <tr height=300>
    <td width=300 height=300><img src=""static/images/cards/stack_of_red_stars.svg"" width=""175px"" height=""250px""></img></td>
    <td width=300 height=300><img src=""static/images/cards/stack_of_red_moons.svg"" width=""175px"" height=""250px""></img></td>
  </tr>
  <tr height=200>
    <td width=300><img src=""static/images/keys/w.svg"" width=""35%"" height=""75%""></img></td>
    <td width=300><img src=""static/images/keys/o.svg"" width=""35%"" height=""75%""></img></td>
  </tr>
</table>
  ",87.0,1.0,,,,,,,,,,,,,,,,,,,,,,,,,,
203,0,,html-keyboard-response,203,651529,0.0-7.10-1.10,5pnlyk629hr,2022-09-19 14:52:44.739,5f8b4560fc6686262722efdb,3,35,39,24,22,41,female,1047.4000000022,,"
  <table>
  <tr height=300>
    <td width=300 height=300><img src=""static/images/cards/back_of_red_stars.svg"" width=""175px"" height=""250px""></img></td>
    <td width=300 height=300><img src=""static/images/cards/back_of_red_stars.svg"" width=""175px"" height=""250px""></img></td>
  </tr>
  <tr height=200>
    <td width=300><img src=""static/images/keys/z.svg"" width=""35%"" height=""75%""></img></td>
    <td width=300></td>
  </tr>
</table>
  ",90.0,1.0,,,,,,,,,,,,,,,,,,,,,,,,,,
204,0,,html-keyboard-response,204,653037,0.0-7.10-2.10,5pnlyk629hr,2022-09-19 14:52:44.739,5f8b4560fc6686262722efdb,3,35,39,24,22,41,female,,,"
  <table>
  <tr height=300>
    <td width=300 height=300><img src=""static/images/cards/7_of_red_stars.svg"" width=""175px"" height=""250px""></img></td>
    <td width=300 height=300><img src=""static/images/cards/back_of_red_stars.svg"" width=""175px"" height=""250px""></img></td>
  </tr>
  <tr height=200>
    <td width=300><img src=""static/images/keys/z.svg"" width=""35%"" height=""75%""></img></td>
    <td width=300></td>
  </tr>
</table>
  ",,,,,,,,,,,,,,,,,,,,,,,,,,,,
205,0,,html-keyboard-response,205,654551,0.0-7.10-3.10,5pnlyk629hr,2022-09-19 14:52:44.739,5f8b4560fc6686262722efdb,3,35,39,24,22,41,female,,,"<p style=""font-size:50px"">You Lose!
No points this round.</p>",,,,,,,,,,,,,,,,,,,,,,,,,,,,
206,0,,html-keyboard-response,206,655059,0.0-7.10-4.10,5pnlyk629hr,2022-09-19 14:52:44.739,5f8b4560fc6686262722efdb,3,35,39,24,22,41,female,,,,,,1.0,choice,10.0,B,D,red,red,stars,moons,D,B,D,red,stars,1579.8999999985,0.0,0.0,1,left,1047.4000000022,7.0,1.0,0.0,,,
207,0,,html-keyboard-response,207,656975,0.0-7.11-0.11,5pnlyk629hr,2022-09-19 14:52:44.739,5f8b4560fc6686262722efdb,3,35,39,24,22,41,female,1915.1999999993,,"
  <table>
  <tr height=300>
    <td width=300 height=300><img src=""static/images/cards/stack_of_black_stars.svg"" width=""175px"" height=""250px""></img></td>
    <td width=300 height=300><img src=""static/images/cards/stack_of_red_stars.svg"" width=""175px"" height=""250px""></img></td>
  </tr>
  <tr height=200>
    <td width=300><img src=""static/images/keys/w.svg"" width=""35%"" height=""75%""></img></td>
    <td width=300><img src=""static/images/keys/o.svg"" width=""35%"" height=""75%""></img></td>
  </tr>
</table>
  ",79.0,1.0,,,,,,,,,,,,,,,,,,,,,,,,,,
208,0,,html-keyboard-response,208,658496,0.0-7.11-1.11,5pnlyk629hr,2022-09-19 14:52:44.739,5f8b4560fc6686262722efdb,3,35,39,24,22,41,female,1019.5,,"
  <table>
  <tr height=300>
    <td width=300 height=300><img src=""static/images/cards/back_of_red_stars.svg"" width=""175px"" height=""250px""></img></td>
    <td width=300 height=300><img src=""static/images/cards/back_of_red_stars.svg"" width=""175px"" height=""250px""></img></td>
  </tr>
  <tr height=200>
    <td width=300></td>
    <td width=300><img src=""static/images/keys/m.svg"" width=""35%"" height=""75%""></img></td>
  </tr>
</table>
  ",77.0,1.0,,,,,,,,,,,,,,,,,,,,,,,,,,
209,0,,html-keyboard-response,209,660005,0.0-7.11-2.11,5pnlyk629hr,2022-09-19 14:52:44.739,5f8b4560fc6686262722efdb,3,35,39,24,22,41,female,,,"
  <table>
  <tr height=300>
    <td width=300 height=300><img src=""static/images/cards/back_of_red_stars.svg"" width=""175px"" height=""250px""></img></td>
    <td width=300 height=300><img src=""static/images/cards/1_of_red_stars.svg"" width=""175px"" height=""250px""></img></td>
  </tr>
  <tr height=200>
    <td width=300></td>
    <td width=300><img src=""static/images/keys/m.svg"" width=""35%"" height=""75%""></img></td>
  </tr>
</table>
  ",,,,,,,,,,,,,,,,,,,,,,,,,,,,
210,0,,html-keyboard-response,210,661517,0.0-7.11-3.11,5pnlyk629hr,2022-09-19 14:52:44.739,5f8b4560fc6686262722efdb,3,35,39,24,22,41,female,,,"<p style=""font-size:50px"">You win!
+10 points this round!</p>",,,,,,,,,,,,,,,,,,,,,,,,,,,,
211,0,,html-keyboard-response,211,662025,0.0-7.11-4.11,5pnlyk629hr,2022-09-19 14:52:44.739,5f8b4560fc6686262722efdb,3,35,39,24,22,41,female,,,,,,1.0,choice,11.0,C,D,black,red,stars,stars,C,D,D,red,stars,1915.1999999993,0.0,0.0,0,right,1019.5,1.0,0.0,1.0,,,
212,0,,html-keyboard-response,212,665089,0.0-7.12-0.12,5pnlyk629hr,2022-09-19 14:52:44.739,5f8b4560fc6686262722efdb,3,35,39,24,22,41,female,3062.8999999985,,"
  <table>
  <tr height=300>
    <td width=300 height=300><img src=""static/images/cards/stack_of_red_moons.svg"" width=""175px"" height=""250px""></img></td>
    <td width=300 height=300><img src=""static/images/cards/stack_of_black_stars.svg"" width=""175px"" height=""250px""></img></td>
  </tr>
  <tr height=200>
    <td width=300><img src=""static/images/keys/w.svg"" width=""35%"" height=""75%""></img></td>
    <td width=300><img src=""static/images/keys/o.svg"" width=""35%"" height=""75%""></img></td>
  </tr>
</table>
  ",79.0,1.0,,,,,,,,,,,,,,,,,,,,,,,,,,
213,0,,html-keyboard-response,213,666626,0.0-7.12-1.12,5pnlyk629hr,2022-09-19 14:52:44.739,5f8b4560fc6686262722efdb,3,35,39,24,22,41,female,1023.5,,"
  <table>
  <tr height=300>
    <td width=300 height=300><img src=""static/images/cards/back_of_black_stars.svg"" width=""175px"" height=""250px""></img></td>
    <td width=300 height=300><img src=""static/images/cards/back_of_black_stars.svg"" width=""175px"" height=""250px""></img></td>
  </tr>
  <tr height=200>
    <td width=300><img src=""static/images/keys/z.svg"" width=""35%"" height=""75%""></img></td>
    <td width=300><img src=""static/images/keys/m.svg"" width=""35%"" height=""75%""></img></td>
  </tr>
</table>
  ",77.0,1.0,,,,,,,,,,,,,,,,,,,,,,,,,,
214,0,,html-keyboard-response,214,668143,0.0-7.12-2.12,5pnlyk629hr,2022-09-19 14:52:44.739,5f8b4560fc6686262722efdb,3,35,39,24,22,41,female,,,"
  <table>
  <tr height=300>
    <td width=300 height=300><img src=""static/images/cards/back_of_black_stars.svg"" width=""175px"" height=""250px""></img></td>
    <td width=300 height=300><img src=""static/images/cards/3_of_black_stars.svg"" width=""175px"" height=""250px""></img></td>
  </tr>
  <tr height=200>
    <td width=300><img src=""static/images/keys/z.svg"" width=""35%"" height=""75%""></img></td>
    <td width=300><img src=""static/images/keys/m.svg"" width=""35%"" height=""75%""></img></td>
  </tr>
</table>
  ",,,,,,,,,,,,,,,,,,,,,,,,,,,,
215,0,,html-keyboard-response,215,669647,0.0-7.12-3.12,5pnlyk629hr,2022-09-19 14:52:44.739,5f8b4560fc6686262722efdb,3,35,39,24,22,41,female,,,"<p style=""font-size:50px"">You Lose!
No points this round.</p>",,,,,,,,,,,,,,,,,,,,,,,,,,,,
216,0,,html-keyboard-response,216,670167,0.0-7.12-4.12,5pnlyk629hr,2022-09-19 14:52:44.739,5f8b4560fc6686262722efdb,3,35,39,24,22,41,female,,,,,,1.0,choice,12.0,B,C,red,black,moons,stars,B,C,C,black,stars,3062.8999999985,1.0,0.0,NA,right,1023.5,3.0,0.0,0.0,,,
217,0,,html-keyboard-response,217,672238,0.0-7.13-0.13,5pnlyk629hr,2022-09-19 14:52:44.739,5f8b4560fc6686262722efdb,3,35,39,24,22,41,female,2070.0999999978,,"
  <table>
  <tr height=300>
    <td width=300 height=300><img src=""static/images/cards/stack_of_red_stars.svg"" width=""175px"" height=""250px""></img></td>
    <td width=300 height=300><img src=""static/images/cards/stack_of_red_moons.svg"" width=""175px"" height=""250px""></img></td>
  </tr>
  <tr height=200>
    <td width=300><img src=""static/images/keys/w.svg"" width=""35%"" height=""75%""></img></td>
    <td width=300><img src=""static/images/keys/o.svg"" width=""35%"" height=""75%""></img></td>
  </tr>
</table>
  ",79.0,1.0,,,,,,,,,,,,,,,,,,,,,,,,,,
218,0,,html-keyboard-response,218,673820,0.0-7.13-1.13,5pnlyk629hr,2022-09-19 14:52:44.739,5f8b4560fc6686262722efdb,3,35,39,24,22,41,female,1065.0,,"
  <table>
  <tr height=300>
    <td width=300 height=300><img src=""static/images/cards/back_of_red_moons.svg"" width=""175px"" height=""250px""></img></td>
    <td width=300 height=300><img src=""static/images/cards/back_of_red_moons.svg"" width=""175px"" height=""250px""></img></td>
  </tr>
  <tr height=200>
    <td width=300></td>
    <td width=300><img src=""static/images/keys/m.svg"" width=""35%"" height=""75%""></img></td>
  </tr>
</table>
  ",77.0,1.0,,,,,,,,,,,,,,,,,,,,,,,,,,
219,0,,html-keyboard-response,219,675331,0.0-7.13-2.13,5pnlyk629hr,2022-09-19 14:52:44.739,5f8b4560fc6686262722efdb,3,35,39,24,22,41,female,,,"
  <table>
  <tr height=300>
    <td width=300 height=300><img src=""static/images/cards/back_of_red_moons.svg"" width=""175px"" height=""250px""></img></td>
    <td width=300 height=300><img src=""static/images/cards/7_of_red_moons.svg"" width=""175px"" height=""250px""></img></td>
  </tr>
  <tr height=200>
    <td width=300></td>
    <td width=300><img src=""static/images/keys/m.svg"" width=""35%"" height=""75%""></img></td>
  </tr>
</table>
  ",,,,,,,,,,,,,,,,,,,,,,,,,,,,
220,0,,html-keyboard-response,220,676835,0.0-7.13-3.13,5pnlyk629hr,2022-09-19 14:52:44.739,5f8b4560fc6686262722efdb,3,35,39,24,22,41,female,,,"<p style=""font-size:50px"">You win!
+10 points this round!</p>",,,,,,,,,,,,,,,,,,,,,,,,,,,,
221,0,,html-keyboard-response,221,677343,0.0-7.13-4.13,5pnlyk629hr,2022-09-19 14:52:44.739,5f8b4560fc6686262722efdb,3,35,39,24,22,41,female,,,,,,1.0,choice,13.0,B,D,red,red,stars,moons,D,B,B,red,moons,2070.0999999978,0.0,1.0,0,right,1065.0,7.0,1.0,1.0,,,
222,0,,html-keyboard-response,222,678944,0.0-7.14-0.14,5pnlyk629hr,2022-09-19 14:52:44.739,5f8b4560fc6686262722efdb,3,35,39,24,22,41,female,1600.5,,"
  <table>
  <tr height=300>
    <td width=300 height=300><img src=""static/images/cards/stack_of_black_moons.svg"" width=""175px"" height=""250px""></img></td>
    <td width=300 height=300><img src=""static/images/cards/stack_of_red_stars.svg"" width=""175px"" height=""250px""></img></td>
  </tr>
  <tr height=200>
    <td width=300><img src=""static/images/keys/w.svg"" width=""35%"" height=""75%""></img></td>
    <td width=300><img src=""static/images/keys/o.svg"" width=""35%"" height=""75%""></img></td>
  </tr>
</table>
  ",79.0,1.0,,,,,,,,,,,,,,,,,,,,,,,,,,
223,0,,html-keyboard-response,223,680327,0.0-7.14-1.14,5pnlyk629hr,2022-09-19 14:52:44.739,5f8b4560fc6686262722efdb,3,35,39,24,22,41,female,880.3999999985,,"
  <table>
  <tr height=300>
    <td width=300 height=300><img src=""static/images/cards/back_of_red_stars.svg"" width=""175px"" height=""250px""></img></td>
    <td width=300 height=300><img src=""static/images/cards/back_of_red_stars.svg"" width=""175px"" height=""250px""></img></td>
  </tr>
  <tr height=200>
    <td width=300></td>
    <td width=300><img src=""static/images/keys/m.svg"" width=""35%"" height=""75%""></img></td>
  </tr>
</table>
  ",77.0,1.0,,,,,,,,,,,,,,,,,,,,,,,,,,
224,0,,html-keyboard-response,224,681842,0.0-7.14-2.14,5pnlyk629hr,2022-09-19 14:52:44.739,5f8b4560fc6686262722efdb,3,35,39,24,22,41,female,,,"
  <table>
  <tr height=300>
    <td width=300 height=300><img src=""static/images/cards/back_of_red_stars.svg"" width=""175px"" height=""250px""></img></td>
    <td width=300 height=300><img src=""static/images/cards/3_of_red_stars.svg"" width=""175px"" height=""250px""></img></td>
  </tr>
  <tr height=200>
    <td width=300></td>
    <td width=300><img src=""static/images/keys/m.svg"" width=""35%"" height=""75%""></img></td>
  </tr>
</table>
  ",,,,,,,,,,,,,,,,,,,,,,,,,,,,
225,0,,html-keyboard-response,225,683362,0.0-7.14-3.14,5pnlyk629hr,2022-09-19 14:52:44.739,5f8b4560fc6686262722efdb,3,35,39,24,22,41,female,,,"<p style=""font-size:50px"">You win!
+10 points this round!</p>",,,,,,,,,,,,,,,,,,,,,,,,,,,,
226,0,,html-keyboard-response,226,683869,0.0-7.14-4.14,5pnlyk629hr,2022-09-19 14:52:44.739,5f8b4560fc6686262722efdb,3,35,39,24,22,41,female,,,,,,1.0,choice,14.0,A,D,black,red,moons,stars,A,D,D,red,stars,1600.5,0.0,0.0,0,right,880.3999999985,3.0,0.0,1.0,,,
227,0,,html-keyboard-response,227,685604,0.0-7.15-0.15,5pnlyk629hr,2022-09-19 14:52:44.739,5f8b4560fc6686262722efdb,3,35,39,24,22,41,female,1733.3000000007,,"
  <table>
  <tr height=300>
    <td width=300 height=300><img src=""static/images/cards/stack_of_red_stars.svg"" width=""175px"" height=""250px""></img></td>
    <td width=300 height=300><img src=""static/images/cards/stack_of_red_moons.svg"" width=""175px"" height=""250px""></img></td>
  </tr>
  <tr height=200>
    <td width=300><img src=""static/images/keys/w.svg"" width=""35%"" height=""75%""></img></td>
    <td width=300><img src=""static/images/keys/o.svg"" width=""35%"" height=""75%""></img></td>
  </tr>
</table>
  ",87.0,1.0,,,,,,,,,,,,,,,,,,,,,,,,,,
228,0,,html-keyboard-response,228,687194,0.0-7.15-1.15,5pnlyk629hr,2022-09-19 14:52:44.739,5f8b4560fc6686262722efdb,3,35,39,24,22,41,female,1077.6999999993,,"
  <table>
  <tr height=300>
    <td width=300 height=300><img src=""static/images/cards/back_of_red_stars.svg"" width=""175px"" height=""250px""></img></td>
    <td width=300 height=300><img src=""static/images/cards/back_of_red_stars.svg"" width=""175px"" height=""250px""></img></td>
  </tr>
  <tr height=200>
    <td width=300><img src=""static/images/keys/z.svg"" width=""35%"" height=""75%""></img></td>
    <td width=300></td>
  </tr>
</table>
  ",90.0,1.0,,,,,,,,,,,,,,,,,,,,,,,,,,
229,0,,html-keyboard-response,229,688705,0.0-7.15-2.15,5pnlyk629hr,2022-09-19 14:52:44.739,5f8b4560fc6686262722efdb,3,35,39,24,22,41,female,,,"
  <table>
  <tr height=300>
    <td width=300 height=300><img src=""static/images/cards/10_of_red_stars.svg"" width=""175px"" height=""250px""></img></td>
    <td width=300 height=300><img src=""static/images/cards/back_of_red_stars.svg"" width=""175px"" height=""250px""></img></td>
  </tr>
  <tr height=200>
    <td width=300><img src=""static/images/keys/z.svg"" width=""35%"" height=""75%""></img></td>
    <td width=300></td>
  </tr>
</table>
  ",,,,,,,,,,,,,,,,,,,,,,,,,,,,
230,0,,html-keyboard-response,230,690226,0.0-7.15-3.15,5pnlyk629hr,2022-09-19 14:52:44.739,5f8b4560fc6686262722efdb,3,35,39,24,22,41,female,,,"<p style=""font-size:50px"">You win!
+10 points this round!</p>",,,,,,,,,,,,,,,,,,,,,,,,,,,,
231,0,,html-keyboard-response,231,690734,0.0-7.15-4.15,5pnlyk629hr,2022-09-19 14:52:44.739,5f8b4560fc6686262722efdb,3,35,39,24,22,41,female,,,,,,1.0,choice,15.0,B,D,red,red,stars,moons,D,B,D,red,stars,1733.3000000007,0.0,0.0,1,left,1077.6999999993,10.0,1.0,1.0,,,
232,0,,html-keyboard-response,232,692989,0.0-7.16-0.16,5pnlyk629hr,2022-09-19 14:52:44.739,5f8b4560fc6686262722efdb,3,35,39,24,22,41,female,2253.5,,"
  <table>
  <tr height=300>
    <td width=300 height=300><img src=""static/images/cards/stack_of_black_stars.svg"" width=""175px"" height=""250px""></img></td>
    <td width=300 height=300><img src=""static/images/cards/stack_of_red_moons.svg"" width=""175px"" height=""250px""></img></td>
  </tr>
  <tr height=200>
    <td width=300><img src=""static/images/keys/w.svg"" width=""35%"" height=""75%""></img></td>
    <td width=300><img src=""static/images/keys/o.svg"" width=""35%"" height=""75%""></img></td>
  </tr>
</table>
  ",87.0,1.0,,,,,,,,,,,,,,,,,,,,,,,,,,
233,0,,html-keyboard-response,233,695251,0.0-7.16-1.16,5pnlyk629hr,2022-09-19 14:52:44.739,5f8b4560fc6686262722efdb,3,35,39,24,22,41,female,1751.0,,"
  <table>
  <tr height=300>
    <td width=300 height=300><img src=""static/images/cards/back_of_black_stars.svg"" width=""175px"" height=""250px""></img></td>
    <td width=300 height=300><img src=""static/images/cards/back_of_black_stars.svg"" width=""175px"" height=""250px""></img></td>
  </tr>
  <tr height=200>
    <td width=300><img src=""static/images/keys/z.svg"" width=""35%"" height=""75%""></img></td>
    <td width=300><img src=""static/images/keys/m.svg"" width=""35%"" height=""75%""></img></td>
  </tr>
</table>
  ",90.0,1.0,,,,,,,,,,,,,,,,,,,,,,,,,,
234,0,,html-keyboard-response,234,696761,0.0-7.16-2.16,5pnlyk629hr,2022-09-19 14:52:44.739,5f8b4560fc6686262722efdb,3,35,39,24,22,41,female,,,"
  <table>
  <tr height=300>
