,index,success,trial_type,trial_index,time_elapsed,internal_node_id,subject,date,prol_id,ctbl,sense_of_control_A,sense_of_control_B,sense_of_control_C,sense_of_control_D,age,gender,rt,url,stimulus,key_press,npress,is_data_trial,phase,trial,deck1,deck2,col1,col2,sym1,sym2,deck_l,deck_r,chosen_deck,chosen_col,chosen_sym,deck_rt,choose_choice,mutual_info,hidden_key,chosen_card,card_rt,player_num,win_card,outcome,mock_rating,response,responses
0,0,1.0,fullscreen,0,30456,0.0-0.0,kxeii4z319,2022-09-19 17:33:39.885,5d8e154af2858200171fdb95,2,57,32,58,26,36,Female,,,,,,,,,,,,,,,,,,,,,,,,,,,,,,,
1,0,,external-html,1,33974,0.0-1.0,kxeii4z319,2022-09-19 17:33:39.885,5d8e154af2858200171fdb95,2,57,32,58,26,36,Female,3205.6999999881,static/js/sub/consent.html,,,,,,,,,,,,,,,,,,,,,,,,,,,,,
2,0,,call-function,2,33975,0.0-2.0,kxeii4z319,2022-09-19 17:33:39.885,5d8e154af2858200171fdb95,2,57,32,58,26,36,Female,,,,,,,,,,,,,,,,,,,,,,,,,,,,,,,
3,0,,image-keyboard-response,3,38287,0.0-3.0-0.0,kxeii4z319,2022-09-19 17:33:39.885,5d8e154af2858200171fdb95,2,57,32,58,26,36,Female,4310.1000000238,,static/images/instructions_CB_2/Slide1.png,39.0,,,,,,,,,,,,,,,,,,,,,,,,,,,
4,0,,image-keyboard-response,4,45858,0.0-3.1-0.1,kxeii4z319,2022-09-19 17:33:39.885,5d8e154af2858200171fdb95,2,57,32,58,26,36,Female,7568.5,,static/images/instructions_CB_2/Slide2.png,39.0,,,,,,,,,,,,,,,,,,,,,,,,,,,
5,0,,image-keyboard-response,5,50028,0.0-3.2-0.2,kxeii4z319,2022-09-19 17:33:39.885,5d8e154af2858200171fdb95,2,57,32,58,26,36,Female,4166.2000000477,,static/images/instructions_CB_2/Slide3.png,39.0,,,,,,,,,,,,,,,,,,,,,,,,,,,
6,0,,image-keyboard-response,6,55338,0.0-3.3-0.3,kxeii4z319,2022-09-19 17:33:39.885,5d8e154af2858200171fdb95,2,57,32,58,26,36,Female,5307.3999999762,,static/images/instructions_CB_2/Slide4.png,39.0,,,,,,,,,,,,,,,,,,,,,,,,,,,
7,0,,image-keyboard-response,7,64409,0.0-3.4-0.4,kxeii4z319,2022-09-19 17:33:39.885,5d8e154af2858200171fdb95,2,57,32,58,26,36,Female,9068.6000000238,,static/images/instructions_CB_2/Slide5.png,39.0,,,,,,,,,,,,,,,,,,,,,,,,,,,
8,0,,image-keyboard-response,8,66096,0.0-3.5-0.5,kxeii4z319,2022-09-19 17:33:39.885,5d8e154af2858200171fdb95,2,57,32,58,26,36,Female,1684.8999999762,,static/images/instructions_CB_2/Slide6.png,39.0,,,,,,,,,,,,,,,,,,,,,,,,,,,
9,0,,image-keyboard-response,9,70597,0.0-3.6-0.6,kxeii4z319,2022-09-19 17:33:39.885,5d8e154af2858200171fdb95,2,57,32,58,26,36,Female,4499.5,,static/images/instructions_CB_2/Slide7.png,39.0,,,,,,,,,,,,,,,,,,,,,,,,,,,
10,0,,image-keyboard-response,10,77945,0.0-3.7-0.7,kxeii4z319,2022-09-19 17:33:39.885,5d8e154af2858200171fdb95,2,57,32,58,26,36,Female,7347.0,,static/images/instructions_CB_2/Slide8.png,39.0,,,,,,,,,,,,,,,,,,,,,,,,,,,
11,0,,image-keyboard-response,11,87708,0.0-3.8-0.8,kxeii4z319,2022-09-19 17:33:39.885,5d8e154af2858200171fdb95,2,57,32,58,26,36,Female,9761.1000000238,,static/images/instructions_CB_2/Slide9.png,39.0,,,,,,,,,,,,,,,,,,,,,,,,,,,
12,0,,image-keyboard-response,12,99987,0.0-3.9-0.9,kxeii4z319,2022-09-19 17:33:39.885,5d8e154af2858200171fdb95,2,57,32,58,26,36,Female,12277.0,,static/images/instructions_CB_2/Slide10.png,39.0,,,,,,,,,,,,,,,,,,,,,,,,,,,
13,0,,image-keyboard-response,13,103305,0.0-3.10-0.10,kxeii4z319,2022-09-19 17:33:39.885,5d8e154af2858200171fdb95,2,57,32,58,26,36,Female,3317.3000000119,,static/images/instructions_CB_2/Slide11.png,39.0,,,,,,,,,,,,,,,,,,,,,,,,,,,
14,0,,image-keyboard-response,14,110873,0.0-3.11-0.11,kxeii4z319,2022-09-19 17:33:39.885,5d8e154af2858200171fdb95,2,57,32,58,26,36,Female,7570.4000000358,,static/images/instructions_CB_2/Slide12.png,39.0,,,,,,,,,,,,,,,,,,,,,,,,,,,
15,0,,image-keyboard-response,15,123113,0.0-3.12-0.12,kxeii4z319,2022-09-19 17:33:39.885,5d8e154af2858200171fdb95,2,57,32,58,26,36,Female,12238.2000000477,,static/images/instructions_CB_2/Slide13.png,39.0,,,,,,,,,,,,,,,,,,,,,,,,,,,
16,0,,image-keyboard-response,16,129481,0.0-3.13-0.13,kxeii4z319,2022-09-19 17:33:39.885,5d8e154af2858200171fdb95,2,57,32,58,26,36,Female,6366.8000000119,,static/images/instructions_CB_2/Slide14.png,39.0,,,,,,,,,,,,,,,,,,,,,,,,,,,
17,0,,image-keyboard-response,17,137113,0.0-3.14-0.14,kxeii4z319,2022-09-19 17:33:39.885,5d8e154af2858200171fdb95,2,57,32,58,26,36,Female,7631.1999999881,,static/images/instructions_CB_2/Slide15.png,39.0,,,,,,,,,,,,,,,,,,,,,,,,,,,
18,0,,image-keyboard-response,18,141211,0.0-3.15-0.15,kxeii4z319,2022-09-19 17:33:39.885,5d8e154af2858200171fdb95,2,57,32,58,26,36,Female,4096.5,,static/images/instructions_CB_2/Slide16.png,39.0,,,,,,,,,,,,,,,,,,,,,,,,,,,
19,0,,image-keyboard-response,19,147072,0.0-3.16-0.16,kxeii4z319,2022-09-19 17:33:39.885,5d8e154af2858200171fdb95,2,57,32,58,26,36,Female,5859.9000000358,,static/images/instructions_CB_2/Slide17.png,39.0,,,,,,,,,,,,,,,,,,,,,,,,,,,
20,0,,image-keyboard-response,20,159733,0.0-3.17-0.17,kxeii4z319,2022-09-19 17:33:39.885,5d8e154af2858200171fdb95,2,57,32,58,26,36,Female,12659.0999999642,,static/images/instructions_CB_2/Slide18.png,39.0,,,,,,,,,,,,,,,,,,,,,,,,,,,
21,0,,image-keyboard-response,21,168522,0.0-3.18-0.18,kxeii4z319,2022-09-19 17:33:39.885,5d8e154af2858200171fdb95,2,57,32,58,26,36,Female,8787.3999999762,,static/images/instructions_CB_2/Slide19.png,39.0,,,,,,,,,,,,,,,,,,,,,,,,,,,
22,0,,html-keyboard-response,22,170027,0.0-4.0-0.0,kxeii4z319,2022-09-19 17:33:39.885,5d8e154af2858200171fdb95,2,57,32,58,26,36,Female,,,"<img src=""static/images/cards/stack_of_black_stars.svg"" width=""175px"" height=""250px""></img>",,,,,,,,,,,,,,,,,,,,,,,,,,,,
23,0,,html-keyboard-response,23,171705,0.0-4.0-1.0,kxeii4z319,2022-09-19 17:33:39.885,5d8e154af2858200171fdb95,2,57,32,58,26,36,Female,1180.3000000119,,"
  <table>
  <tr height=300>
    <td width=300 height=300><img src=""static/images/cards/back_of_black_stars.svg"" width=""175px"" height=""250px""></img></td>
    <td width=300 height=300><img src=""static/images/cards/back_of_black_stars.svg"" width=""175px"" height=""250px""></img></td>
  </tr>
  <tr height=200>
    <td width=300><img src=""static/images/keys/z.svg"" width=""35%"" height=""75%""></img></td>
    <td width=300><img src=""static/images/keys/m.svg"" width=""35%"" height=""75%""></img></td>
  </tr>
</table>
  ",77.0,1.0,,,,,,,,,,,,,,,,,,,,,,,,,,
24,0,,html-keyboard-response,24,173212,0.0-4.0-2.0,kxeii4z319,2022-09-19 17:33:39.885,5d8e154af2858200171fdb95,2,57,32,58,26,36,Female,,,"
  <table>
  <tr height=300>
    <td width=300 height=300><img src=""static/images/cards/back_of_black_stars.svg"" width=""175px"" height=""250px""></img></td>
    <td width=300 height=300><img src=""static/images/cards/1_of_black_stars.svg"" width=""175px"" height=""250px""></img></td>
  </tr>
  <tr height=200>
    <td width=300><img src=""static/images/keys/z.svg"" width=""35%"" height=""75%""></img></td>
    <td width=300><img src=""static/images/keys/m.svg"" width=""35%"" height=""75%""></img></td>
  </tr>
</table>
  ",,,,,,,,,,,,,,,,,,,,,,,,,,,,
25,0,,html-keyboard-response,25,174730,0.0-4.0-3.0,kxeii4z319,2022-09-19 17:33:39.885,5d8e154af2858200171fdb95,2,57,32,58,26,36,Female,,,"<p style=""font-size:50px"">You Lose!
No points this round.</p>",,,,,,,,,,,,,,,,,,,,,,,,,,,,
26,0,,html-keyboard-response,26,175241,0.0-4.0-4.0,kxeii4z319,2022-09-19 17:33:39.885,5d8e154af2858200171fdb95,2,57,32,58,26,36,Female,,,,,,1.0,learning,0.0,A,,black,,stars,,,,A,black,stars,,1.0,1.0,NA,right,1180.3000000119,1.0,0.0,0.0,,,
27,0,,html-keyboard-response,27,176751,0.0-4.1-0.1,kxeii4z319,2022-09-19 17:33:39.885,5d8e154af2858200171fdb95,2,57,32,58,26,36,Female,,,"<img src=""static/images/cards/stack_of_red_stars.svg"" width=""175px"" height=""250px""></img>",,,,,,,,,,,,,,,,,,,,,,,,,,,,
28,0,,html-keyboard-response,28,177814,0.0-4.1-1.1,kxeii4z319,2022-09-19 17:33:39.885,5d8e154af2858200171fdb95,2,57,32,58,26,36,Female,556.5999999642,,"
  <table>
  <tr height=300>
    <td width=300 height=300><img src=""static/images/cards/back_of_red_stars.svg"" width=""175px"" height=""250px""></img></td>
    <td width=300 height=300><img src=""static/images/cards/back_of_red_stars.svg"" width=""175px"" height=""250px""></img></td>
  </tr>
  <tr height=200>
    <td width=300><img src=""static/images/keys/z.svg"" width=""35%"" height=""75%""></img></td>
    <td width=300></td>
  </tr>
</table>
  ",90.0,1.0,,,,,,,,,,,,,,,,,,,,,,,,,,
29,0,,html-keyboard-response,29,179318,0.0-4.1-2.1,kxeii4z319,2022-09-19 17:33:39.885,5d8e154af2858200171fdb95,2,57,32,58,26,36,Female,,,"
  <table>
  <tr height=300>
    <td width=300 height=300><img src=""static/images/cards/9_of_red_stars.svg"" width=""175px"" height=""250px""></img></td>
    <td width=300 height=300><img src=""static/images/cards/back_of_red_stars.svg"" width=""175px"" height=""250px""></img></td>
  </tr>
  <tr height=200>
    <td width=300><img src=""static/images/keys/z.svg"" width=""35%"" height=""75%""></img></td>
    <td width=300></td>
  </tr>
</table>
  ",,,,,,,,,,,,,,,,,,,,,,,,,,,,
30,0,,html-keyboard-response,30,180837,0.0-4.1-3.1,kxeii4z319,2022-09-19 17:33:39.885,5d8e154af2858200171fdb95,2,57,32,58,26,36,Female,,,"<p style=""font-size:50px"">You win!
+10 points this round!</p>",,,,,,,,,,,,,,,,,,,,,,,,,,,,
31,0,,html-keyboard-response,31,181355,0.0-4.1-4.1,kxeii4z319,2022-09-19 17:33:39.885,5d8e154af2858200171fdb95,2,57,32,58,26,36,Female,,,,,,1.0,learning,1.0,B,,red,,stars,,,,B,red,stars,,0.0,1.0,1,left,556.5999999642,9.0,1.0,1.0,,,
32,0,,html-keyboard-response,32,182868,0.0-4.2-0.2,kxeii4z319,2022-09-19 17:33:39.885,5d8e154af2858200171fdb95,2,57,32,58,26,36,Female,,,"<img src=""static/images/cards/stack_of_black_moons.svg"" width=""175px"" height=""250px""></img>",,,,,,,,,,,,,,,,,,,,,,,,,,,,
33,0,,html-keyboard-response,33,184076,0.0-4.2-1.2,kxeii4z319,2022-09-19 17:33:39.885,5d8e154af2858200171fdb95,2,57,32,58,26,36,Female,688.9000000358,,"
  <table>
  <tr height=300>
    <td width=300 height=300><img src=""static/images/cards/back_of_black_moons.svg"" width=""175px"" height=""250px""></img></td>
    <td width=300 height=300><img src=""static/images/cards/back_of_black_moons.svg"" width=""175px"" height=""250px""></img></td>
  </tr>
  <tr height=200>
    <td width=300><img src=""static/images/keys/z.svg"" width=""35%"" height=""75%""></img></td>
    <td width=300><img src=""static/images/keys/m.svg"" width=""35%"" height=""75%""></img></td>
  </tr>
</table>
  ",77.0,1.0,,,,,,,,,,,,,,,,,,,,,,,,,,
34,0,,html-keyboard-response,34,185583,0.0-4.2-2.2,kxeii4z319,2022-09-19 17:33:39.885,5d8e154af2858200171fdb95,2,57,32,58,26,36,Female,,,"
  <table>
  <tr height=300>
    <td width=300 height=300><img src=""static/images/cards/back_of_black_moons.svg"" width=""175px"" height=""250px""></img></td>
    <td width=300 height=300><img src=""static/images/cards/7_of_black_moons.svg"" width=""175px"" height=""250px""></img></td>
  </tr>
  <tr height=200>
    <td width=300><img src=""static/images/keys/z.svg"" width=""35%"" height=""75%""></img></td>
    <td width=300><img src=""static/images/keys/m.svg"" width=""35%"" height=""75%""></img></td>
  </tr>
</table>
  ",,,,,,,,,,,,,,,,,,,,,,,,,,,,
35,0,,html-keyboard-response,35,187086,0.0-4.2-3.2,kxeii4z319,2022-09-19 17:33:39.885,5d8e154af2858200171fdb95,2,57,32,58,26,36,Female,,,"<p style=""font-size:50px"">You Lose!
No points this round.</p>",,,,,,,,,,,,,,,,,,,,,,,,,,,,
36,0,,html-keyboard-response,36,187605,0.0-4.2-4.2,kxeii4z319,2022-09-19 17:33:39.885,5d8e154af2858200171fdb95,2,57,32,58,26,36,Female,,,,,,1.0,learning,2.0,C,,black,,moons,,,,C,black,moons,,1.0,0.0,NA,right,688.9000000358,7.0,1.0,0.0,,,
37,0,,html-keyboard-response,37,189114,0.0-4.3-0.3,kxeii4z319,2022-09-19 17:33:39.885,5d8e154af2858200171fdb95,2,57,32,58,26,36,Female,,,"<img src=""static/images/cards/stack_of_red_moons.svg"" width=""175px"" height=""250px""></img>",,,,,,,,,,,,,,,,,,,,,,,,,,,,
38,0,,html-keyboard-response,38,190232,0.0-4.3-1.3,kxeii4z319,2022-09-19 17:33:39.885,5d8e154af2858200171fdb95,2,57,32,58,26,36,Female,609.5,,"
  <table>
  <tr height=300>
    <td width=300 height=300><img src=""static/images/cards/back_of_red_moons.svg"" width=""175px"" height=""250px""></img></td>
    <td width=300 height=300><img src=""static/images/cards/back_of_red_moons.svg"" width=""175px"" height=""250px""></img></td>
  </tr>
  <tr height=200>
    <td width=300></td>
    <td width=300><img src=""static/images/keys/m.svg"" width=""35%"" height=""75%""></img></td>
  </tr>
</table>
  ",77.0,1.0,,,,,,,,,,,,,,,,,,,,,,,,,,
39,0,,html-keyboard-response,39,191744,0.0-4.3-2.3,kxeii4z319,2022-09-19 17:33:39.885,5d8e154af2858200171fdb95,2,57,32,58,26,36,Female,,,"
  <table>
  <tr height=300>
    <td width=300 height=300><img src=""static/images/cards/back_of_red_moons.svg"" width=""175px"" height=""250px""></img></td>
    <td width=300 height=300><img src=""static/images/cards/6_of_red_moons.svg"" width=""175px"" height=""250px""></img></td>
  </tr>
  <tr height=200>
    <td width=300></td>
    <td width=300><img src=""static/images/keys/m.svg"" width=""35%"" height=""75%""></img></td>
  </tr>
</table>
  ",,,,,,,,,,,,,,,,,,,,,,,,,,,,
40,0,,html-keyboard-response,40,193259,0.0-4.3-3.3,kxeii4z319,2022-09-19 17:33:39.885,5d8e154af2858200171fdb95,2,57,32,58,26,36,Female,,,"<p style=""font-size:50px"">You Lose!
No points this round.</p>",,,,,,,,,,,,,,,,,,,,,,,,,,,,
41,0,,html-keyboard-response,41,193769,0.0-4.3-4.3,kxeii4z319,2022-09-19 17:33:39.885,5d8e154af2858200171fdb95,2,57,32,58,26,36,Female,,,,,,1.0,learning,3.0,D,,red,,moons,,,,D,red,moons,,0.0,0.0,0,right,609.5,6.0,1.0,0.0,,,
42,0,,html-keyboard-response,42,195276,0.0-4.4-0.4,kxeii4z319,2022-09-19 17:33:39.885,5d8e154af2858200171fdb95,2,57,32,58,26,36,Female,,,"<img src=""static/images/cards/stack_of_red_bolts.svg"" width=""175px"" height=""250px""></img>",,,,,,,,,,,,,,,,,,,,,,,,,,,,
43,0,,html-keyboard-response,43,196953,0.0-4.4-1.4,kxeii4z319,2022-09-19 17:33:39.885,5d8e154af2858200171fdb95,2,57,32,58,26,36,Female,1170.1000000238,,"
  <table>
  <tr height=300>
    <td width=300 height=300><img src=""static/images/cards/back_of_red_bolts.svg"" width=""175px"" height=""250px""></img></td>
    <td width=300 height=300><img src=""static/images/cards/back_of_red_bolts.svg"" width=""175px"" height=""250px""></img></td>
  </tr>
  <tr height=200>
    <td width=300><img src=""static/images/keys/z.svg"" width=""35%"" height=""75%""></img></td>
    <td width=300><img src=""static/images/keys/m.svg"" width=""35%"" height=""75%""></img></td>
  </tr>
</table>
  ",90.0,1.0,,,,,,,,,,,,,,,,,,,,,,,,,,
44,0,,html-keyboard-response,44,198463,0.0-4.4-2.4,kxeii4z319,2022-09-19 17:33:39.885,5d8e154af2858200171fdb95,2,57,32,58,26,36,Female,,,"
  <table>
  <tr height=300>
    <td width=300 height=300><img src=""static/images/cards/3_of_red_bolts.svg"" width=""175px"" height=""250px""></img></td>
    <td width=300 height=300><img src=""static/images/cards/back_of_red_bolts.svg"" width=""175px"" height=""250px""></img></td>
  </tr>
  <tr height=200>
    <td width=300><img src=""static/images/keys/z.svg"" width=""35%"" height=""75%""></img></td>
    <td width=300><img src=""static/images/keys/m.svg"" width=""35%"" height=""75%""></img></td>
  </tr>
</table>
  ",,,,,,,,,,,,,,,,,,,,,,,,,,,,
45,0,,html-keyboard-response,45,199993,0.0-4.4-3.4,kxeii4z319,2022-09-19 17:33:39.885,5d8e154af2858200171fdb95,2,57,32,58,26,36,Female,,,"<p style=""font-size:50px"">You win!
+10 points this round!</p>",,,,,,,,,,,,,,,,,,,,,,,,,,,,
46,0,,html-keyboard-response,46,200502,0.0-4.4-4.4,kxeii4z319,2022-09-19 17:33:39.885,5d8e154af2858200171fdb95,2,57,32,58,26,36,Female,,,,,,1.0,learning,4.0,Xc,,red,,bolts,,,,Xc,red,bolts,,1.0,0.0,NA,left,1170.1000000238,3.0,0.0,1.0,,,
47,0,,html-keyboard-response,47,202005,0.0-4.5-0.5,kxeii4z319,2022-09-19 17:33:39.885,5d8e154af2858200171fdb95,2,57,32,58,26,36,Female,,,"<img src=""static/images/cards/stack_of_black_bolts.svg"" width=""175px"" height=""250px""></img>",,,,,,,,,,,,,,,,,,,,,,,,,,,,
48,0,,html-keyboard-response,48,203465,0.0-4.5-1.5,kxeii4z319,2022-09-19 17:33:39.885,5d8e154af2858200171fdb95,2,57,32,58,26,36,Female,948.1000000238,,"
  <table>
  <tr height=300>
    <td width=300 height=300><img src=""static/images/cards/back_of_black_bolts.svg"" width=""175px"" height=""250px""></img></td>
    <td width=300 height=300><img src=""static/images/cards/back_of_black_bolts.svg"" width=""175px"" height=""250px""></img></td>
  </tr>
  <tr height=200>
    <td width=300><img src=""static/images/keys/z.svg"" width=""35%"" height=""75%""></img></td>
    <td width=300></td>
  </tr>
</table>
  ",90.0,1.0,,,,,,,,,,,,,,,,,,,,,,,,,,
49,0,,html-keyboard-response,49,204980,0.0-4.5-2.5,kxeii4z319,2022-09-19 17:33:39.885,5d8e154af2858200171fdb95,2,57,32,58,26,36,Female,,,"
  <table>
  <tr height=300>
    <td width=300 height=300><img src=""static/images/cards/3_of_black_bolts.svg"" width=""175px"" height=""250px""></img></td>
    <td width=300 height=300><img src=""static/images/cards/back_of_black_bolts.svg"" width=""175px"" height=""250px""></img></td>
  </tr>
  <tr height=200>
    <td width=300><img src=""static/images/keys/z.svg"" width=""35%"" height=""75%""></img></td>
    <td width=300></td>
  </tr>
</table>
  ",,,,,,,,,,,,,,,,,,,,,,,,,,,,
50,0,,html-keyboard-response,50,206498,0.0-4.5-3.5,kxeii4z319,2022-09-19 17:33:39.885,5d8e154af2858200171fdb95,2,57,32,58,26,36,Female,,,"<p style=""font-size:50px"">You win!
+10 points this round!</p>",,,,,,,,,,,,,,,,,,,,,,,,,,,,
51,0,,html-keyboard-response,51,207005,0.0-4.5-4.5,kxeii4z319,2022-09-19 17:33:39.885,5d8e154af2858200171fdb95,2,57,32,58,26,36,Female,,,,,,1.0,learning,5.0,Xnc,,black,,bolts,,,,Xnc,black,bolts,,0.0,0.0,1,left,948.1000000238,3.0,0.0,1.0,,,
52,0,,html-keyboard-response,52,208513,0.0-4.6-0.6,kxeii4z319,2022-09-19 17:33:39.885,5d8e154af2858200171fdb95,2,57,32,58,26,36,Female,,,"<img src=""static/images/cards/stack_of_black_stars.svg"" width=""175px"" height=""250px""></img>",,,,,,,,,,,,,,,,,,,,,,,,,,,,
53,0,,html-keyboard-response,53,210315,0.0-4.6-1.6,kxeii4z319,2022-09-19 17:33:39.885,5d8e154af2858200171fdb95,2,57,32,58,26,36,Female,1291.0,,"
  <table>
  <tr height=300>
    <td width=300 height=300><img src=""static/images/cards/back_of_black_stars.svg"" width=""175px"" height=""250px""></img></td>
    <td width=300 height=300><img src=""static/images/cards/back_of_black_stars.svg"" width=""175px"" height=""250px""></img></td>
  </tr>
  <tr height=200>
    <td width=300><img src=""static/images/keys/z.svg"" width=""35%"" height=""75%""></img></td>
    <td width=300><img src=""static/images/keys/m.svg"" width=""35%"" height=""75%""></img></td>
  </tr>
</table>
  ",90.0,1.0,,,,,,,,,,,,,,,,,,,,,,,,,,
54,0,,html-keyboard-response,54,211828,0.0-4.6-2.6,kxeii4z319,2022-09-19 17:33:39.885,5d8e154af2858200171fdb95,2,57,32,58,26,36,Female,,,"
  <table>
  <tr height=300>
    <td width=300 height=300><img src=""static/images/cards/8_of_black_stars.svg"" width=""175px"" height=""250px""></img></td>
    <td width=300 height=300><img src=""static/images/cards/back_of_black_stars.svg"" width=""175px"" height=""250px""></img></td>
  </tr>
  <tr height=200>
    <td width=300><img src=""static/images/keys/z.svg"" width=""35%"" height=""75%""></img></td>
    <td width=300><img src=""static/images/keys/m.svg"" width=""35%"" height=""75%""></img></td>
  </tr>
</table>
  ",,,,,,,,,,,,,,,,,,,,,,,,,,,,
55,0,,html-keyboard-response,55,213340,0.0-4.6-3.6,kxeii4z319,2022-09-19 17:33:39.885,5d8e154af2858200171fdb95,2,57,32,58,26,36,Female,,,"<p style=""font-size:50px"">You win!
+10 points this round!</p>",,,,,,,,,,,,,,,,,,,,,,,,,,,,
56,0,,html-keyboard-response,56,213851,0.0-4.6-4.6,kxeii4z319,2022-09-19 17:33:39.885,5d8e154af2858200171fdb95,2,57,32,58,26,36,Female,,,,,,1.0,learning,6.0,A,,black,,stars,,,,A,black,stars,,1.0,1.0,NA,left,1291.0,8.0,1.0,1.0,,,
57,0,,html-keyboard-response,57,215359,0.0-4.7-0.7,kxeii4z319,2022-09-19 17:33:39.885,5d8e154af2858200171fdb95,2,57,32,58,26,36,Female,,,"<img src=""static/images/cards/stack_of_red_stars.svg"" width=""175px"" height=""250px""></img>",,,,,,,,,,,,,,,,,,,,,,,,,,,,
58,0,,html-keyboard-response,58,216424,0.0-4.7-1.7,kxeii4z319,2022-09-19 17:33:39.885,5d8e154af2858200171fdb95,2,57,32,58,26,36,Female,556.5,,"
  <table>
  <tr height=300>
    <td width=300 height=300><img src=""static/images/cards/back_of_red_stars.svg"" width=""175px"" height=""250px""></img></td>
    <td width=300 height=300><img src=""static/images/cards/back_of_red_stars.svg"" width=""175px"" height=""250px""></img></td>
  </tr>
  <tr height=200>
    <td width=300><img src=""static/images/keys/z.svg"" width=""35%"" height=""75%""></img></td>
    <td width=300></td>
  </tr>
</table>
  ",90.0,1.0,,,,,,,,,,,,,,,,,,,,,,,,,,
59,0,,html-keyboard-response,59,217939,0.0-4.7-2.7,kxeii4z319,2022-09-19 17:33:39.885,5d8e154af2858200171fdb95,2,57,32,58,26,36,Female,,,"
  <table>
  <tr height=300>
    <td width=300 height=300><img src=""static/images/cards/8_of_red_stars.svg"" width=""175px"" height=""250px""></img></td>
    <td width=300 height=300><img src=""static/images/cards/back_of_red_stars.svg"" width=""175px"" height=""250px""></img></td>
  </tr>
  <tr height=200>
    <td width=300><img src=""static/images/keys/z.svg"" width=""35%"" height=""75%""></img></td>
    <td width=300></td>
  </tr>
</table>
  ",,,,,,,,,,,,,,,,,,,,,,,,,,,,
60,0,,html-keyboard-response,60,219459,0.0-4.7-3.7,kxeii4z319,2022-09-19 17:33:39.885,5d8e154af2858200171fdb95,2,57,32,58,26,36,Female,,,"<p style=""font-size:50px"">You win!
+10 points this round!</p>",,,,,,,,,,,,,,,,,,,,,,,,,,,,
61,0,,html-keyboard-response,61,219968,0.0-4.7-4.7,kxeii4z319,2022-09-19 17:33:39.885,5d8e154af2858200171fdb95,2,57,32,58,26,36,Female,,,,,,1.0,learning,7.0,B,,red,,stars,,,,B,red,stars,,0.0,1.0,1,left,556.5,8.0,1.0,1.0,,,
62,0,,html-keyboard-response,62,221480,0.0-4.8-0.8,kxeii4z319,2022-09-19 17:33:39.885,5d8e154af2858200171fdb95,2,57,32,58,26,36,Female,,,"<img src=""static/images/cards/stack_of_black_moons.svg"" width=""175px"" height=""250px""></img>",,,,,,,,,,,,,,,,,,,,,,,,,,,,
63,0,,html-keyboard-response,63,223334,0.0-4.8-1.8,kxeii4z319,2022-09-19 17:33:39.885,5d8e154af2858200171fdb95,2,57,32,58,26,36,Female,1335.3000000119,,"
  <table>
  <tr height=300>
    <td width=300 height=300><img src=""static/images/cards/back_of_black_moons.svg"" width=""175px"" height=""250px""></img></td>
    <td width=300 height=300><img src=""static/images/cards/back_of_black_moons.svg"" width=""175px"" height=""250px""></img></td>
  </tr>
  <tr height=200>
    <td width=300><img src=""static/images/keys/z.svg"" width=""35%"" height=""75%""></img></td>
    <td width=300><img src=""static/images/keys/m.svg"" width=""35%"" height=""75%""></img></td>
  </tr>
</table>
  ",90.0,1.0,,,,,,,,,,,,,,,,,,,,,,,,,,
64,0,,html-keyboard-response,64,224842,0.0-4.8-2.8,kxeii4z319,2022-09-19 17:33:39.885,5d8e154af2858200171fdb95,2,57,32,58,26,36,Female,,,"
  <table>
  <tr height=300>
    <td width=300 height=300><img src=""static/images/cards/4_of_black_moons.svg"" width=""175px"" height=""250px""></img></td>
    <td width=300 height=300><img src=""static/images/cards/back_of_black_moons.svg"" width=""175px"" height=""250px""></img></td>
  </tr>
  <tr height=200>
    <td width=300><img src=""static/images/keys/z.svg"" width=""35%"" height=""75%""></img></td>
    <td width=300><img src=""static/images/keys/m.svg"" width=""35%"" height=""75%""></img></td>
  </tr>
</table>
  ",,,,,,,,,,,,,,,,,,,,,,,,,,,,
65,0,,html-keyboard-response,65,226370,0.0-4.8-3.8,kxeii4z319,2022-09-19 17:33:39.885,5d8e154af2858200171fdb95,2,57,32,58,26,36,Female,,,"<p style=""font-size:50px"">You win!
+10 points this round!</p>",,,,,,,,,,,,,,,,,,,,,,,,,,,,
66,0,,html-keyboard-response,66,226884,0.0-4.8-4.8,kxeii4z319,2022-09-19 17:33:39.885,5d8e154af2858200171fdb95,2,57,32,58,26,36,Female,,,,,,1.0,learning,8.0,C,,black,,moons,,,,C,black,moons,,1.0,0.0,NA,left,1335.3000000119,4.0,0.0,1.0,,,
67,0,,html-keyboard-response,67,228390,0.0-4.9-0.9,kxeii4z319,2022-09-19 17:33:39.885,5d8e154af2858200171fdb95,2,57,32,58,26,36,Female,,,"<img src=""static/images/cards/stack_of_red_moons.svg"" width=""175px"" height=""250px""></img>",,,,,,,,,,,,,,,,,,,,,,,,,,,,
68,0,,html-keyboard-response,68,229574,0.0-4.9-1.9,kxeii4z319,2022-09-19 17:33:39.885,5d8e154af2858200171fdb95,2,57,32,58,26,36,Female,675.3000000119,,"
  <table>
  <tr height=300>
    <td width=300 height=300><img src=""static/images/cards/back_of_red_moons.svg"" width=""175px"" height=""250px""></img></td>
    <td width=300 height=300><img src=""static/images/cards/back_of_red_moons.svg"" width=""175px"" height=""250px""></img></td>
  </tr>
  <tr height=200>
    <td width=300><img src=""static/images/keys/z.svg"" width=""35%"" height=""75%""></img></td>
    <td width=300></td>
  </tr>
</table>
  ",90.0,1.0,,,,,,,,,,,,,,,,,,,,,,,,,,
69,0,,html-keyboard-response,69,231103,0.0-4.9-2.9,kxeii4z319,2022-09-19 17:33:39.885,5d8e154af2858200171fdb95,2,57,32,58,26,36,Female,,,"
  <table>
  <tr height=300>
    <td width=300 height=300><img src=""static/images/cards/10_of_red_moons.svg"" width=""175px"" height=""250px""></img></td>
    <td width=300 height=300><img src=""static/images/cards/back_of_red_moons.svg"" width=""175px"" height=""250px""></img></td>
  </tr>
  <tr height=200>
    <td width=300><img src=""static/images/keys/z.svg"" width=""35%"" height=""75%""></img></td>
    <td width=300></td>
  </tr>
</table>
  ",,,,,,,,,,,,,,,,,,,,,,,,,,,,
70,0,,html-keyboard-response,70,232624,0.0-4.9-3.9,kxeii4z319,2022-09-19 17:33:39.885,5d8e154af2858200171fdb95,2,57,32,58,26,36,Female,,,"<p style=""font-size:50px"">You win!
+10 points this round!</p>",,,,,,,,,,,,,,,,,,,,,,,,,,,,
71,0,,html-keyboard-response,71,233142,0.0-4.9-4.9,kxeii4z319,2022-09-19 17:33:39.885,5d8e154af2858200171fdb95,2,57,32,58,26,36,Female,,,,,,1.0,learning,9.0,D,,red,,moons,,,,D,red,moons,,0.0,0.0,1,left,675.3000000119,10.0,1.0,1.0,,,
72,0,,html-keyboard-response,72,234649,0.0-4.10-0.10,kxeii4z319,2022-09-19 17:33:39.885,5d8e154af2858200171fdb95,2,57,32,58,26,36,Female,,,"<img src=""static/images/cards/stack_of_red_bolts.svg"" width=""175px"" height=""250px""></img>",,,,,,,,,,,,,,,,,,,,,,,,,,,,
73,0,,html-keyboard-response,73,236275,0.0-4.10-1.10,kxeii4z319,2022-09-19 17:33:39.885,5d8e154af2858200171fdb95,2,57,32,58,26,36,Female,1112.4000000358,,"
  <table>
  <tr height=300>
    <td width=300 height=300><img src=""static/images/cards/back_of_red_bolts.svg"" width=""175px"" height=""250px""></img></td>
    <td width=300 height=300><img src=""static/images/cards/back_of_red_bolts.svg"" width=""175px"" height=""250px""></img></td>
  </tr>
  <tr height=200>
    <td width=300><img src=""static/images/keys/z.svg"" width=""35%"" height=""75%""></img></td>
    <td width=300><img src=""static/images/keys/m.svg"" width=""35%"" height=""75%""></img></td>
  </tr>
</table>
  ",77.0,1.0,,,,,,,,,,,,,,,,,,,,,,,,,,
74,0,,html-keyboard-response,74,237777,0.0-4.10-2.10,kxeii4z319,2022-09-19 17:33:39.885,5d8e154af2858200171fdb95,2,57,32,58,26,36,Female,,,"
  <table>
  <tr height=300>
    <td width=300 height=300><img src=""static/images/cards/back_of_red_bolts.svg"" width=""175px"" height=""250px""></img></td>
    <td width=300 height=300><img src=""static/images/cards/2_of_red_bolts.svg"" width=""175px"" height=""250px""></img></td>
  </tr>
  <tr height=200>
    <td width=300><img src=""static/images/keys/z.svg"" width=""35%"" height=""75%""></img></td>
    <td width=300><img src=""static/images/keys/m.svg"" width=""35%"" height=""75%""></img></td>
  </tr>
</table>
  ",,,,,,,,,,,,,,,,,,,,,,,,,,,,
75,0,,html-keyboard-response,75,239290,0.0-4.10-3.10,kxeii4z319,2022-09-19 17:33:39.885,5d8e154af2858200171fdb95,2,57,32,58,26,36,Female,,,"<p style=""font-size:50px"">You win!
+10 points this round!</p>",,,,,,,,,,,,,,,,,,,,,,,,,,,,
76,0,,html-keyboard-response,76,239803,0.0-4.10-4.10,kxeii4z319,2022-09-19 17:33:39.885,5d8e154af2858200171fdb95,2,57,32,58,26,36,Female,,,,,,1.0,learning,10.0,Xc,,red,,bolts,,,,Xc,red,bolts,,1.0,0.0,NA,right,1112.4000000358,2.0,0.0,1.0,,,
77,0,,html-keyboard-response,77,241310,0.0-4.11-0.11,kxeii4z319,2022-09-19 17:33:39.885,5d8e154af2858200171fdb95,2,57,32,58,26,36,Female,,,"<img src=""static/images/cards/stack_of_black_bolts.svg"" width=""175px"" height=""250px""></img>",,,,,,,,,,,,,,,,,,,,,,,,,,,,
78,0,,html-keyboard-response,78,242595,0.0-4.11-1.11,kxeii4z319,2022-09-19 17:33:39.885,5d8e154af2858200171fdb95,2,57,32,58,26,36,Female,769.8000000119,,"
  <table>
  <tr height=300>
    <td width=300 height=300><img src=""static/images/cards/back_of_black_bolts.svg"" width=""175px"" height=""250px""></img></td>
    <td width=300 height=300><img src=""static/images/cards/back_of_black_bolts.svg"" width=""175px"" height=""250px""></img></td>
  </tr>
  <tr height=200>
    <td width=300></td>
    <td width=300><img src=""static/images/keys/m.svg"" width=""35%"" height=""75%""></img></td>
  </tr>
</table>
  ",77.0,1.0,,,,,,,,,,,,,,,,,,,,,,,,,,
79,0,,html-keyboard-response,79,244104,0.0-4.11-2.11,kxeii4z319,2022-09-19 17:33:39.885,5d8e154af2858200171fdb95,2,57,32,58,26,36,Female,,,"
  <table>
  <tr height=300>
    <td width=300 height=300><img src=""static/images/cards/back_of_black_bolts.svg"" width=""175px"" height=""250px""></img></td>
    <td width=300 height=300><img src=""static/images/cards/4_of_black_bolts.svg"" width=""175px"" height=""250px""></img></td>
  </tr>
  <tr height=200>
    <td width=300></td>
    <td width=300><img src=""static/images/keys/m.svg"" width=""35%"" height=""75%""></img></td>
  </tr>
</table>
  ",,,,,,,,,,,,,,,,,,,,,,,,,,,,
80,0,,html-keyboard-response,80,245620,0.0-4.11-3.11,kxeii4z319,2022-09-19 17:33:39.885,5d8e154af2858200171fdb95,2,57,32,58,26,36,Female,,,"<p style=""font-size:50px"">You win!
+10 points this round!</p>",,,,,,,,,,,,,,,,,,,,,,,,,,,,
81,0,,html-keyboard-response,81,246126,0.0-4.11-4.11,kxeii4z319,2022-09-19 17:33:39.885,5d8e154af2858200171fdb95,2,57,32,58,26,36,Female,,,,,,1.0,learning,11.0,Xnc,,black,,bolts,,,,Xnc,black,bolts,,0.0,0.0,0,right,769.8000000119,4.0,0.0,1.0,,,
82,0,,html-keyboard-response,82,247637,0.0-4.12-0.12,kxeii4z319,2022-09-19 17:33:39.885,5d8e154af2858200171fdb95,2,57,32,58,26,36,Female,,,"<img src=""static/images/cards/stack_of_black_stars.svg"" width=""175px"" height=""250px""></img>",,,,,,,,,,,,,,,,,,,,,,,,,,,,
83,0,,html-keyboard-response,83,248704,0.0-4.12-1.12,kxeii4z319,2022-09-19 17:33:39.885,5d8e154af2858200171fdb95,2,57,32,58,26,36,Female,550.1999999881,,"
  <table>
  <tr height=300>
    <td width=300 height=300><img src=""static/images/cards/back_of_black_stars.svg"" width=""175px"" height=""250px""></img></td>
    <td width=300 height=300><img src=""static/images/cards/back_of_black_stars.svg"" width=""175px"" height=""250px""></img></td>
  </tr>
  <tr height=200>
    <td width=300><img src=""static/images/keys/z.svg"" width=""35%"" height=""75%""></img></td>
    <td width=300><img src=""static/images/keys/m.svg"" width=""35%"" height=""75%""></img></td>
  </tr>
</table>
  ",77.0,1.0,,,,,,,,,,,,,,,,,,,,,,,,,,
84,0,,html-keyboard-response,84,250220,0.0-4.12-2.12,kxeii4z319,2022-09-19 17:33:39.885,5d8e154af2858200171fdb95,2,57,32,58,26,36,Female,,,"
  <table>
  <tr height=300>
    <td width=300 height=300><img src=""static/images/cards/back_of_black_stars.svg"" width=""175px"" height=""250px""></img></td>
    <td width=300 height=300><img src=""static/images/cards/7_of_black_stars.svg"" width=""175px"" height=""250px""></img></td>
  </tr>
  <tr height=200>
    <td width=300><img src=""static/images/keys/z.svg"" width=""35%"" height=""75%""></img></td>
    <td width=300><img src=""static/images/keys/m.svg"" width=""35%"" height=""75%""></img></td>
  </tr>
</table>
  ",,,,,,,,,,,,,,,,,,,,,,,,,,,,
85,0,,html-keyboard-response,85,251731,0.0-4.12-3.12,kxeii4z319,2022-09-19 17:33:39.885,5d8e154af2858200171fdb95,2,57,32,58,26,36,Female,,,"<p style=""font-size:50px"">You win!
+10 points this round!</p>",,,,,,,,,,,,,,,,,,,,,,,,,,,,
86,0,,html-keyboard-response,86,252243,0.0-4.12-4.12,kxeii4z319,2022-09-19 17:33:39.885,5d8e154af2858200171fdb95,2,57,32,58,26,36,Female,,,,,,1.0,learning,12.0,A,,black,,stars,,,,A,black,stars,,1.0,1.0,NA,right,550.1999999881,7.0,1.0,1.0,,,
87,0,,html-keyboard-response,87,253746,0.0-4.13-0.13,kxeii4z319,2022-09-19 17:33:39.885,5d8e154af2858200171fdb95,2,57,32,58,26,36,Female,,,"<img src=""static/images/cards/stack_of_red_stars.svg"" width=""175px"" height=""250px""></img>",,,,,,,,,,,,,,,,,,,,,,,,,,,,
88,0,,html-keyboard-response,88,254814,0.0-4.13-1.13,kxeii4z319,2022-09-19 17:33:39.885,5d8e154af2858200171fdb95,2,57,32,58,26,36,Female,560.8999999762,,"
  <table>
  <tr height=300>
    <td width=300 height=300><img src=""static/images/cards/back_of_red_stars.svg"" width=""175px"" height=""250px""></img></td>
    <td width=300 height=300><img src=""static/images/cards/back_of_red_stars.svg"" width=""175px"" height=""250px""></img></td>
  </tr>
  <tr height=200>
    <td width=300><img src=""static/images/keys/z.svg"" width=""35%"" height=""75%""></img></td>
    <td width=300></td>
  </tr>
</table>
  ",90.0,1.0,,,,,,,,,,,,,,,,,,,,,,,,,,
89,0,,html-keyboard-response,89,256317,0.0-4.13-2.13,kxeii4z319,2022-09-19 17:33:39.885,5d8e154af2858200171fdb95,2,57,32,58,26,36,Female,,,"
  <table>
  <tr height=300>
    <td width=300 height=300><img src=""static/images/cards/2_of_red_stars.svg"" width=""175px"" height=""250px""></img></td>
    <td width=300 height=300><img src=""static/images/cards/back_of_red_stars.svg"" width=""175px"" height=""250px""></img></td>
  </tr>
  <tr height=200>
    <td width=300><img src=""static/images/keys/z.svg"" width=""35%"" height=""75%""></img></td>
    <td width=300></td>
  </tr>
</table>
  ",,,,,,,,,,,,,,,,,,,,,,,,,,,,
90,0,,html-keyboard-response,90,257839,0.0-4.13-3.13,kxeii4z319,2022-09-19 17:33:39.885,5d8e154af2858200171fdb95,2,57,32,58,26,36,Female,,,"<p style=""font-size:50px"">You Lose!
No points this round.</p>",,,,,,,,,,,,,,,,,,,,,,,,,,,,
91,0,,html-keyboard-response,91,258358,0.0-4.13-4.13,kxeii4z319,2022-09-19 17:33:39.885,5d8e154af2858200171fdb95,2,57,32,58,26,36,Female,,,,,,1.0,learning,13.0,B,,red,,stars,,,,B,red,stars,,0.0,1.0,1,left,560.8999999762,2.0,0.0,0.0,,,
92,0,,html-keyboard-response,92,259867,0.0-4.14-0.14,kxeii4z319,2022-09-19 17:33:39.885,5d8e154af2858200171fdb95,2,57,32,58,26,36,Female,,,"<img src=""static/images/cards/stack_of_black_moons.svg"" width=""175px"" height=""250px""></img>",,,,,,,,,,,,,,,,,,,,,,,,,,,,
93,0,,html-keyboard-response,93,260874,0.0-4.14-1.14,kxeii4z319,2022-09-19 17:33:39.885,5d8e154af2858200171fdb95,2,57,32,58,26,36,Female,501.2000000477,,"
  <table>
  <tr height=300>
    <td width=300 height=300><img src=""static/images/cards/back_of_black_moons.svg"" width=""175px"" height=""250px""></img></td>
    <td width=300 height=300><img src=""static/images/cards/back_of_black_moons.svg"" width=""175px"" height=""250px""></img></td>
  </tr>
  <tr height=200>
    <td width=300><img src=""static/images/keys/z.svg"" width=""35%"" height=""75%""></img></td>
    <td width=300><img src=""static/images/keys/m.svg"" width=""35%"" height=""75%""></img></td>
  </tr>
</table>
  ",90.0,1.0,,,,,,,,,,,,,,,,,,,,,,,,,,
94,0,,html-keyboard-response,94,262386,0.0-4.14-2.14,kxeii4z319,2022-09-19 17:33:39.885,5d8e154af2858200171fdb95,2,57,32,58,26,36,Female,,,"
  <table>
  <tr height=300>
    <td width=300 height=300><img src=""static/images/cards/2_of_black_moons.svg"" width=""175px"" height=""250px""></img></td>
    <td width=300 height=300><img src=""static/images/cards/back_of_black_moons.svg"" width=""175px"" height=""250px""></img></td>
  </tr>
  <tr height=200>
    <td width=300><img src=""static/images/keys/z.svg"" width=""35%"" height=""75%""></img></td>
    <td width=300><img src=""static/images/keys/m.svg"" width=""35%"" height=""75%""></img></td>
  </tr>
</table>
  ",,,,,,,,,,,,,,,,,,,,,,,,,,,,
95,0,,html-keyboard-response,95,263903,0.0-4.14-3.14,kxeii4z319,2022-09-19 17:33:39.885,5d8e154af2858200171fdb95,2,57,32,58,26,36,Female,,,"<p style=""font-size:50px"">You Lose!
No points this round.</p>",,,,,,,,,,,,,,,,,,,,,,,,,,,,
96,0,,html-keyboard-response,96,264424,0.0-4.14-4.14,kxeii4z319,2022-09-19 17:33:39.885,5d8e154af2858200171fdb95,2,57,32,58,26,36,Female,,,,,,1.0,learning,14.0,C,,black,,moons,,,,C,black,moons,,1.0,0.0,NA,left,501.2000000477,2.0,0.0,0.0,,,
97,0,,html-keyboard-response,97,265931,0.0-4.15-0.15,kxeii4z319,2022-09-19 17:33:39.885,5d8e154af2858200171fdb95,2,57,32,58,26,36,Female,,,"<img src=""static/images/cards/stack_of_red_moons.svg"" width=""175px"" height=""250px""></img>",,,,,,,,,,,,,,,,,,,,,,,,,,,,
98,0,,html-keyboard-response,98,266934,0.0-4.15-1.15,kxeii4z319,2022-09-19 17:33:39.885,5d8e154af2858200171fdb95,2,57,32,58,26,36,Female,496.2000000477,,"
  <table>
  <tr height=300>
    <td width=300 height=300><img src=""static/images/cards/back_of_red_moons.svg"" width=""175px"" height=""250px""></img></td>
    <td width=300 height=300><img src=""static/images/cards/back_of_red_moons.svg"" width=""175px"" height=""250px""></img></td>
  </tr>
  <tr height=200>
    <td width=300></td>
    <td width=300><img src=""static/images/keys/m.svg"" width=""35%"" height=""75%""></img></td>
  </tr>
</table>
  ",77.0,1.0,,,,,,,,,,,,,,,,,,,,,,,,,,
99,0,,html-keyboard-response,99,268439,0.0-4.15-2.15,kxeii4z319,2022-09-19 17:33:39.885,5d8e154af2858200171fdb95,2,57,32,58,26,36,Female,,,"
  <table>
  <tr height=300>
    <td width=300 height=300><img src=""static/images/cards/back_of_red_moons.svg"" width=""175px"" height=""250px""></img></td>
    <td width=300 height=300><img src=""static/images/cards/1_of_red_moons.svg"" width=""175px"" height=""250px""></img></td>
  </tr>
  <tr height=200>
    <td width=300></td>
    <td width=300><img src=""static/images/keys/m.svg"" width=""35%"" height=""75%""></img></td>
  </tr>
</table>
  ",,,,,,,,,,,,,,,,,,,,,,,,,,,,
100,0,,html-keyboard-response,100,269958,0.0-4.15-3.15,kxeii4z319,2022-09-19 17:33:39.885,5d8e154af2858200171fdb95,2,57,32,58,26,36,Female,,,"<p style=""font-size:50px"">You Lose!
No points this round.</p>",,,,,,,,,,,,,,,,,,,,,,,,,,,,
101,0,,html-keyboard-response,101,270476,0.0-4.15-4.15,kxeii4z319,2022-09-19 17:33:39.885,5d8e154af2858200171fdb95,2,57,32,58,26,36,Female,,,,,,1.0,learning,15.0,D,,red,,moons,,,,D,red,moons,,0.0,0.0,0,right,496.2000000477,1.0,0.0,0.0,,,
102,0,,html-keyboard-response,102,271986,0.0-4.16-0.16,kxeii4z319,2022-09-19 17:33:39.885,5d8e154af2858200171fdb95,2,57,32,58,26,36,Female,,,"<img src=""static/images/cards/stack_of_red_bolts.svg"" width=""175px"" height=""250px""></img>",,,,,,,,,,,,,,,,,,,,,,,,,,,,
103,0,,html-keyboard-response,103,273056,0.0-4.16-1.16,kxeii4z319,2022-09-19 17:33:39.885,5d8e154af2858200171fdb95,2,57,32,58,26,36,Female,553.3000000119,,"
  <table>
  <tr height=300>
    <td width=300 height=300><img src=""static/images/cards/back_of_red_bolts.svg"" width=""175px"" height=""250px""></img></td>
    <td width=300 height=300><img src=""static/images/cards/back_of_red_bolts.svg"" width=""175px"" height=""250px""></img></td>
  </tr>
  <tr height=200>
    <td width=300><img src=""static/images/keys/z.svg"" width=""35%"" height=""75%""></img></td>
    <td width=300><img src=""static/images/keys/m.svg"" width=""35%"" height=""75%""></img></td>
  </tr>
</table>
  ",77.0,1.0,,,,,,,,,,,,,,,,,,,,,,,,,,
104,0,,html-keyboard-response,104,274569,0.0-4.16-2.16,kxeii4z319,2022-09-19 17:33:39.885,5d8e154af2858200171fdb95,2,57,32,58,26,36,Female,,,"
  <table>
  <tr height=300>
    <td width=300 height=300><img src=""static/images/cards/back_of_red_bolts.svg"" width=""175px"" height=""250px""></img></td>
    <td width=300 height=300><img src=""static/images/cards/10_of_red_bolts.svg"" width=""175px"" height=""250px""></img></td>
  </tr>
  <tr height=200>
    <td width=300><img src=""static/images/keys/z.svg"" width=""35%"" height=""75%""></img></td>
    <td width=300><img src=""static/images/keys/m.svg"" width=""35%"" height=""75%""></img></td>
  </tr>
</table>
  ",,,,,,,,,,,,,,,,,,,,,,,,,,,,
105,0,,html-keyboard-response,105,276086,0.0-4.16-3.16,kxeii4z319,2022-09-19 17:33:39.885,5d8e154af2858200171fdb95,2,57,32,58,26,36,Female,,,"<p style=""font-size:50px"">You win!
+10 points this round!</p>",,,,,,,,,,,,,,,,,,,,,,,,,,,,
106,0,,html-keyboard-response,106,276604,0.0-4.16-4.16,kxeii4z319,2022-09-19 17:33:39.885,5d8e154af2858200171fdb95,2,57,32,58,26,36,Female,,,,,,1.0,learning,16.0,Xc,,red,,bolts,,,,Xc,red,bolts,,1.0,0.0,NA,right,553.3000000119,10.0,1.0,1.0,,,
107,0,,html-keyboard-response,107,278107,0.0-4.17-0.17,kxeii4z319,2022-09-19 17:33:39.885,5d8e154af2858200171fdb95,2,57,32,58,26,36,Female,,,"<img src=""static/images/cards/stack_of_black_bolts.svg"" width=""175px"" height=""250px""></img>",,,,,,,,,,,,,,,,,,,,,,,,,,,,
108,0,,html-keyboard-response,108,279205,0.0-4.17-1.17,kxeii4z319,2022-09-19 17:33:39.885,5d8e154af2858200171fdb95,2,57,32,58,26,36,Female,592.8000000119,,"
  <table>
  <tr height=300>
    <td width=300 height=300><img src=""static/images/cards/back_of_black_bolts.svg"" width=""175px"" height=""250px""></img></td>
    <td width=300 height=300><img src=""static/images/cards/back_of_black_bolts.svg"" width=""175px"" height=""250px""></img></td>
  </tr>
  <tr height=200>
    <td width=300><img src=""static/images/keys/z.svg"" width=""35%"" height=""75%""></img></td>
    <td width=300></td>
  </tr>
</table>
  ",90.0,1.0,,,,,,,,,,,,,,,,,,,,,,,,,,
109,0,,html-keyboard-response,109,280720,0.0-4.17-2.17,kxeii4z319,2022-09-19 17:33:39.885,5d8e154af2858200171fdb95,2,57,32,58,26,36,Female,,,"
  <table>
  <tr height=300>
    <td width=300 height=300><img src=""static/images/cards/9_of_black_bolts.svg"" width=""175px"" height=""250px""></img></td>
    <td width=300 height=300><img src=""static/images/cards/back_of_black_bolts.svg"" width=""175px"" height=""250px""></img></td>
  </tr>
  <tr height=200>
    <td width=300><img src=""static/images/keys/z.svg"" width=""35%"" height=""75%""></img></td>
    <td width=300></td>
  </tr>
</table>
  ",,,,,,,,,,,,,,,,,,,,,,,,,,,,
110,0,,html-keyboard-response,110,282236,0.0-4.17-3.17,kxeii4z319,2022-09-19 17:33:39.885,5d8e154af2858200171fdb95,2,57,32,58,26,36,Female,,,"<p style=""font-size:50px"">You win!
+10 points this round!</p>",,,,,,,,,,,,,,,,,,,,,,,,,,,,
111,0,,html-keyboard-response,111,282754,0.0-4.17-4.17,kxeii4z319,2022-09-19 17:33:39.885,5d8e154af2858200171fdb95,2,57,32,58,26,36,Female,,,,,,1.0,learning,17.0,Xnc,,black,,bolts,,,,Xnc,black,bolts,,0.0,0.0,1,left,592.8000000119,9.0,1.0,1.0,,,
112,0,,html-keyboard-response,112,284268,0.0-4.18-0.18,kxeii4z319,2022-09-19 17:33:39.885,5d8e154af2858200171fdb95,2,57,32,58,26,36,Female,,,"<img src=""static/images/cards/stack_of_black_stars.svg"" width=""175px"" height=""250px""></img>",,,,,,,,,,,,,,,,,,,,,,,,,,,,
113,0,,html-keyboard-response,113,285365,0.0-4.18-1.18,kxeii4z319,2022-09-19 17:33:39.885,5d8e154af2858200171fdb95,2,57,32,58,26,36,Female,585.3000000119,,"
  <table>
  <tr height=300>
    <td width=300 height=300><img src=""static/images/cards/back_of_black_stars.svg"" width=""175px"" height=""250px""></img></td>
    <td width=300 height=300><img src=""static/images/cards/back_of_black_stars.svg"" width=""175px"" height=""250px""></img></td>
  </tr>
  <tr height=200>
    <td width=300><img src=""static/images/keys/z.svg"" width=""35%"" height=""75%""></img></td>
    <td width=300><img src=""static/images/keys/m.svg"" width=""35%"" height=""75%""></img></td>
  </tr>
</table>
  ",77.0,1.0,,,,,,,,,,,,,,,,,,,,,,,,,,
114,0,,html-keyboard-response,114,286871,0.0-4.18-2.18,kxeii4z319,2022-09-19 17:33:39.885,5d8e154af2858200171fdb95,2,57,32,58,26,36,Female,,,"
  <table>
  <tr height=300>
    <td width=300 height=300><img src=""static/images/cards/back_of_black_stars.svg"" width=""175px"" height=""250px""></img></td>
    <td width=300 height=300><img src=""static/images/cards/4_of_black_stars.svg"" width=""175px"" height=""250px""></img></td>
  </tr>
  <tr height=200>
    <td width=300><img src=""static/images/keys/z.svg"" width=""35%"" height=""75%""></img></td>
    <td width=300><img src=""static/images/keys/m.svg"" width=""35%"" height=""75%""></img></td>
  </tr>
</table>
  ",,,,,,,,,,,,,,,,,,,,,,,,,,,,
115,0,,html-keyboard-response,115,288384,0.0-4.18-3.18,kxeii4z319,2022-09-19 17:33:39.885,5d8e154af2858200171fdb95,2,57,32,58,26,36,Female,,,"<p style=""font-size:50px"">You Lose!
No points this round.</p>",,,,,,,,,,,,,,,,,,,,,,,,,,,,
116,0,,html-keyboard-response,116,288903,0.0-4.18-4.18,kxeii4z319,2022-09-19 17:33:39.885,5d8e154af2858200171fdb95,2,57,32,58,26,36,Female,,,,,,1.0,learning,18.0,A,,black,,stars,,,,A,black,stars,,1.0,1.0,NA,right,585.3000000119,4.0,0.0,0.0,,,
117,0,,html-keyboard-response,117,290410,0.0-4.19-0.19,kxeii4z319,2022-09-19 17:33:39.885,5d8e154af2858200171fdb95,2,57,32,58,26,36,Female,,,"<img src=""static/images/cards/stack_of_red_stars.svg"" width=""175px"" height=""250px""></img>",,,,,,,,,,,,,,,,,,,,,,,,,,,,
118,0,,html-keyboard-response,118,291305,0.0-4.19-1.19,kxeii4z319,2022-09-19 17:33:39.885,5d8e154af2858200171fdb95,2,57,32,58,26,36,Female,384.8000000119,,"
  <table>
  <tr height=300>
    <td width=300 height=300><img src=""static/images/cards/back_of_red_stars.svg"" width=""175px"" height=""250px""></img></td>
    <td width=300 height=300><img src=""static/images/cards/back_of_red_stars.svg"" width=""175px"" height=""250px""></img></td>
  </tr>
  <tr height=200>
    <td width=300></td>
    <td width=300><img src=""static/images/keys/m.svg"" width=""35%"" height=""75%""></img></td>
  </tr>
</table>
  ",77.0,1.0,,,,,,,,,,,,,,,,,,,,,,,,,,
119,0,,html-keyboard-response,119,292811,0.0-4.19-2.19,kxeii4z319,2022-09-19 17:33:39.885,5d8e154af2858200171fdb95,2,57,32,58,26,36,Female,,,"
  <table>
  <tr height=300>
    <td width=300 height=300><img src=""static/images/cards/back_of_red_stars.svg"" width=""175px"" height=""250px""></img></td>
    <td width=300 height=300><img src=""static/images/cards/2_of_red_stars.svg"" width=""175px"" height=""250px""></img></td>
  </tr>
  <tr height=200>
    <td width=300></td>
    <td width=300><img src=""static/images/keys/m.svg"" width=""35%"" height=""75%""></img></td>
  </tr>
</table>
  ",,,,,,,,,,,,,,,,,,,,,,,,,,,,
120,0,,html-keyboard-response,120,294320,0.0-4.19-3.19,kxeii4z319,2022-09-19 17:33:39.885,5d8e154af2858200171fdb95,2,57,32,58,26,36,Female,,,"<p style=""font-size:50px"">You Lose!
No points this round.</p>",,,,,,,,,,,,,,,,,,,,,,,,,,,,
121,0,,html-keyboard-response,121,294827,0.0-4.19-4.19,kxeii4z319,2022-09-19 17:33:39.885,5d8e154af2858200171fdb95,2,57,32,58,26,36,Female,,,,,,1.0,learning,19.0,B,,red,,stars,,,,B,red,stars,,0.0,1.0,0,right,384.8000000119,2.0,0.0,0.0,,,
122,0,,html-keyboard-response,122,296342,0.0-4.20-0.20,kxeii4z319,2022-09-19 17:33:39.885,5d8e154af2858200171fdb95,2,57,32,58,26,36,Female,,,"<img src=""static/images/cards/stack_of_black_moons.svg"" width=""175px"" height=""250px""></img>",,,,,,,,,,,,,,,,,,,,,,,,,,,,
123,0,,html-keyboard-response,123,297236,0.0-4.20-1.20,kxeii4z319,2022-09-19 17:33:39.885,5d8e154af2858200171fdb95,2,57,32,58,26,36,Female,386.6999999881,,"
  <table>
  <tr height=300>
    <td width=300 height=300><img src=""static/images/cards/back_of_black_moons.svg"" width=""175px"" height=""250px""></img></td>
    <td width=300 height=300><img src=""static/images/cards/back_of_black_moons.svg"" width=""175px"" height=""250px""></img></td>
  </tr>
  <tr height=200>
    <td width=300><img src=""static/images/keys/z.svg"" width=""35%"" height=""75%""></img></td>
    <td width=300><img src=""static/images/keys/m.svg"" width=""35%"" height=""75%""></img></td>
  </tr>
</table>
  ",90.0,1.0,,,,,,,,,,,,,,,,,,,,,,,,,,
124,0,,html-keyboard-response,124,298749,0.0-4.20-2.20,kxeii4z319,2022-09-19 17:33:39.885,5d8e154af2858200171fdb95,2,57,32,58,26,36,Female,,,"
  <table>
  <tr height=300>
    <td width=300 height=300><img src=""static/images/cards/6_of_black_moons.svg"" width=""175px"" height=""250px""></img></td>
    <td width=300 height=300><img src=""static/images/cards/back_of_black_moons.svg"" width=""175px"" height=""250px""></img></td>
  </tr>
  <tr height=200>
    <td width=300><img src=""static/images/keys/z.svg"" width=""35%"" height=""75%""></img></td>
    <td width=300><img src=""static/images/keys/m.svg"" width=""35%"" height=""75%""></img></td>
  </tr>
</table>
  ",,,,,,,,,,,,,,,,,,,,,,,,,,,,
125,0,,html-keyboard-response,125,300278,0.0-4.20-3.20,kxeii4z319,2022-09-19 17:33:39.885,5d8e154af2858200171fdb95,2,57,32,58,26,36,Female,,,"<p style=""font-size:50px"">You win!
+10 points this round!</p>",,,,,,,,,,,,,,,,,,,,,,,,,,,,
126,0,,html-keyboard-response,126,300786,0.0-4.20-4.20,kxeii4z319,2022-09-19 17:33:39.885,5d8e154af2858200171fdb95,2,57,32,58,26,36,Female,,,,,,1.0,learning,20.0,C,,black,,moons,,,,C,black,moons,,1.0,0.0,NA,left,386.6999999881,6.0,1.0,1.0,,,
127,0,,html-keyboard-response,127,302290,0.0-4.21-0.21,kxeii4z319,2022-09-19 17:33:39.885,5d8e154af2858200171fdb95,2,57,32,58,26,36,Female,,,"<img src=""static/images/cards/stack_of_red_moons.svg"" width=""175px"" height=""250px""></img>",,,,,,,,,,,,,,,,,,,,,,,,,,,,
128,0,,html-keyboard-response,128,303286,0.0-4.21-1.21,kxeii4z319,2022-09-19 17:33:39.885,5d8e154af2858200171fdb95,2,57,32,58,26,36,Female,477.5999999642,,"
  <table>
  <tr height=300>
    <td width=300 height=300><img src=""static/images/cards/back_of_red_moons.svg"" width=""175px"" height=""250px""></img></td>
    <td width=300 height=300><img src=""static/images/cards/back_of_red_moons.svg"" width=""175px"" height=""250px""></img></td>
  </tr>
  <tr height=200>
    <td width=300><img src=""static/images/keys/z.svg"" width=""35%"" height=""75%""></img></td>
    <td width=300></td>
  </tr>
</table>
  ",90.0,1.0,,,,,,,,,,,,,,,,,,,,,,,,,,
129,0,,html-keyboard-response,129,304791,0.0-4.21-2.21,kxeii4z319,2022-09-19 17:33:39.885,5d8e154af2858200171fdb95,2,57,32,58,26,36,Female,,,"
  <table>
  <tr height=300>
    <td width=300 height=300><img src=""static/images/cards/3_of_red_moons.svg"" width=""175px"" height=""250px""></img></td>
    <td width=300 height=300><img src=""static/images/cards/back_of_red_moons.svg"" width=""175px"" height=""250px""></img></td>
  </tr>
  <tr height=200>
    <td width=300><img src=""static/images/keys/z.svg"" width=""35%"" height=""75%""></img></td>
    <td width=300></td>
  </tr>
</table>
  ",,,,,,,,,,,,,,,,,,,,,,,,,,,,
130,0,,html-keyboard-response,130,306308,0.0-4.21-3.21,kxeii4z319,2022-09-19 17:33:39.885,5d8e154af2858200171fdb95,2,57,32,58,26,36,Female,,,"<p style=""font-size:50px"">You win!
+10 points this round!</p>",,,,,,,,,,,,,,,,,,,,,,,,,,,,
131,0,,html-keyboard-response,131,306818,0.0-4.21-4.21,kxeii4z319,2022-09-19 17:33:39.885,5d8e154af2858200171fdb95,2,57,32,58,26,36,Female,,,,,,1.0,learning,21.0,D,,red,,moons,,,,D,red,moons,,0.0,0.0,1,left,477.5999999642,3.0,0.0,1.0,,,
132,0,,html-keyboard-response,132,308332,0.0-4.22-0.22,kxeii4z319,2022-09-19 17:33:39.885,5d8e154af2858200171fdb95,2,57,32,58,26,36,Female,,,"<img src=""static/images/cards/stack_of_red_bolts.svg"" width=""175px"" height=""250px""></img>",,,,,,,,,,,,,,,,,,,,,,,,,,,,
133,0,,html-keyboard-response,133,309174,0.0-4.22-1.22,kxeii4z319,2022-09-19 17:33:39.885,5d8e154af2858200171fdb95,2,57,32,58,26,36,Female,327.0,,"
  <table>
  <tr height=300>
    <td width=300 height=300><img src=""static/images/cards/back_of_red_bolts.svg"" width=""175px"" height=""250px""></img></td>
    <td width=300 height=300><img src=""static/images/cards/back_of_red_bolts.svg"" width=""175px"" height=""250px""></img></td>
  </tr>
  <tr height=200>
    <td width=300><img src=""static/images/keys/z.svg"" width=""35%"" height=""75%""></img></td>
    <td width=300><img src=""static/images/keys/m.svg"" width=""35%"" height=""75%""></img></td>
  </tr>
</table>
  ",90.0,1.0,,,,,,,,,,,,,,,,,,,,,,,,,,
134,0,,html-keyboard-response,134,310681,0.0-4.22-2.22,kxeii4z319,2022-09-19 17:33:39.885,5d8e154af2858200171fdb95,2,57,32,58,26,36,Female,,,"
  <table>
  <tr height=300>
    <td width=300 height=300><img src=""static/images/cards/10_of_red_bolts.svg"" width=""175px"" height=""250px""></img></td>
    <td width=300 height=300><img src=""static/images/cards/back_of_red_bolts.svg"" width=""175px"" height=""250px""></img></td>
  </tr>
  <tr height=200>
    <td width=300><img src=""static/images/keys/z.svg"" width=""35%"" height=""75%""></img></td>
    <td width=300><img src=""static/images/keys/m.svg"" width=""35%"" height=""75%""></img></td>
  </tr>
</table>
  ",,,,,,,,,,,,,,,,,,,,,,,,,,,,
135,0,,html-keyboard-response,135,312198,0.0-4.22-3.22,kxeii4z319,2022-09-19 17:33:39.885,5d8e154af2858200171fdb95,2,57,32,58,26,36,Female,,,"<p style=""font-size:50px"">You win!
+10 points this round!</p>",,,,,,,,,,,,,,,,,,,,,,,,,,,,
136,0,,html-keyboard-response,136,312716,0.0-4.22-4.22,kxeii4z319,2022-09-19 17:33:39.885,5d8e154af2858200171fdb95,2,57,32,58,26,36,Female,,,,,,1.0,learning,22.0,Xc,,red,,bolts,,,,Xc,red,bolts,,1.0,0.0,NA,left,327.0,10.0,1.0,1.0,,,
137,0,,html-keyboard-response,137,314229,0.0-4.23-0.23,kxeii4z319,2022-09-19 17:33:39.885,5d8e154af2858200171fdb95,2,57,32,58,26,36,Female,,,"<img src=""static/images/cards/stack_of_black_bolts.svg"" width=""175px"" height=""250px""></img>",,,,,,,,,,,,,,,,,,,,,,,,,,,,
138,0,,html-keyboard-response,138,315346,0.0-4.23-1.23,kxeii4z319,2022-09-19 17:33:39.885,5d8e154af2858200171fdb95,2,57,32,58,26,36,Female,598.5999999642,,"
  <table>
  <tr height=300>
    <td width=300 height=300><img src=""static/images/cards/back_of_black_bolts.svg"" width=""175px"" height=""250px""></img></td>
    <td width=300 height=300><img src=""static/images/cards/back_of_black_bolts.svg"" width=""175px"" height=""250px""></img></td>
  </tr>
  <tr height=200>
    <td width=300></td>
    <td width=300><img src=""static/images/keys/m.svg"" width=""35%"" height=""75%""></img></td>
  </tr>
</table>
  ",77.0,1.0,,,,,,,,,,,,,,,,,,,,,,,,,,
139,0,,html-keyboard-response,139,316861,0.0-4.23-2.23,kxeii4z319,2022-09-19 17:33:39.885,5d8e154af2858200171fdb95,2,57,32,58,26,36,Female,,,"
  <table>
  <tr height=300>
    <td width=300 height=300><img src=""static/images/cards/back_of_black_bolts.svg"" width=""175px"" height=""250px""></img></td>
    <td width=300 height=300><img src=""static/images/cards/8_of_black_bolts.svg"" width=""175px"" height=""250px""></img></td>
  </tr>
  <tr height=200>
    <td width=300></td>
    <td width=300><img src=""static/images/keys/m.svg"" width=""35%"" height=""75%""></img></td>
  </tr>
</table>
  ",,,,,,,,,,,,,,,,,,,,,,,,,,,,
140,0,,html-keyboard-response,140,318379,0.0-4.23-3.23,kxeii4z319,2022-09-19 17:33:39.885,5d8e154af2858200171fdb95,2,57,32,58,26,36,Female,,,"<p style=""font-size:50px"">You win!
+10 points this round!</p>",,,,,,,,,,,,,,,,,,,,,,,,,,,,
141,0,,html-keyboard-response,141,318899,0.0-4.23-4.23,kxeii4z319,2022-09-19 17:33:39.885,5d8e154af2858200171fdb95,2,57,32,58,26,36,Female,,,,,,1.0,learning,23.0,Xnc,,black,,bolts,,,,Xnc,black,bolts,,0.0,0.0,0,right,598.5999999642,8.0,1.0,1.0,,,
142,0,,call-function,142,318907,0.0-5.0,kxeii4z319,2022-09-19 17:33:39.885,5d8e154af2858200171fdb95,2,57,32,58,26,36,Female,,,,,,,,,,,,,,,,,,,,,,,,,,,,,,,
143,0,,image-keyboard-response,143,321724,0.0-6.0-0.0,kxeii4z319,2022-09-19 17:33:39.885,5d8e154af2858200171fdb95,2,57,32,58,26,36,Female,2816.3000000119,,static/images/instructions_CB_2/Slide20.png,39.0,,,,,,,,,,,,,,,,,,,,,,,,,,,
144,0,,image-keyboard-response,144,331005,0.0-6.1-0.1,kxeii4z319,2022-09-19 17:33:39.885,5d8e154af2858200171fdb95,2,57,32,58,26,36,Female,9279.8000000119,,static/images/instructions_CB_2/Slide21.png,37.0,,,,,,,,,,,,,,,,,,,,,,,,,,,
145,0,,image-keyboard-response,145,335794,0.0-6.2-0.2,kxeii4z319,2022-09-19 17:33:39.885,5d8e154af2858200171fdb95,2,57,32,58,26,36,Female,4786.8999999762,,static/images/instructions_CB_2/Slide20.png,39.0,,,,,,,,,,,,,,,,,,,,,,,,,,,
146,0,,image-keyboard-response,146,338364,0.0-6.3-0.3,kxeii4z319,2022-09-19 17:33:39.885,5d8e154af2858200171fdb95,2,57,32,58,26,36,Female,2568.1999999881,,static/images/instructions_CB_2/Slide21.png,39.0,,,,,,,,,,,,,,,,,,,,,,,,,,,
147,0,,image-keyboard-response,147,341594,0.0-6.4-0.4,kxeii4z319,2022-09-19 17:33:39.885,5d8e154af2858200171fdb95,2,57,32,58,26,36,Female,3227.8000000119,,static/images/instructions_CB_2/Slide22.png,39.0,,,,,,,,,,,,,,,,,,,,,,,,,,,
148,0,,image-keyboard-response,148,349744,0.0-6.5-0.5,kxeii4z319,2022-09-19 17:33:39.885,5d8e154af2858200171fdb95,2,57,32,58,26,36,Female,8148.3000000119,,static/images/instructions_CB_2/Slide23.png,39.0,,,,,,,,,,,,,,,,,,,,,,,,,,,
149,0,,image-keyboard-response,149,352415,0.0-6.6-0.6,kxeii4z319,2022-09-19 17:33:39.885,5d8e154af2858200171fdb95,2,57,32,58,26,36,Female,2678.7999999523,,static/images/instructions_CB_2/Slide24.png,39.0,,,,,,,,,,,,,,,,,,,,,,,,,,,
150,0,,html-keyboard-response,150,354414,0.0-7.0-0.0,kxeii4z319,2022-09-19 17:33:39.885,5d8e154af2858200171fdb95,2,57,32,58,26,36,Female,1996.9000000358,,"
  <table>
  <tr height=300>
    <td width=300 height=300><img src=""static/images/cards/stack_of_red_stars.svg"" width=""175px"" height=""250px""></img></td>
    <td width=300 height=300><img src=""static/images/cards/stack_of_black_stars.svg"" width=""175px"" height=""250px""></img></td>
  </tr>
  <tr height=200>
    <td width=300><img src=""static/images/keys/w.svg"" width=""35%"" height=""75%""></img></td>
    <td width=300><img src=""static/images/keys/o.svg"" width=""35%"" height=""75%""></img></td>
  </tr>
</table>
  ",87.0,1.0,,,,,,,,,,,,,,,,,,,,,,,,,,
151,0,,html-keyboard-response,151,355794,0.0-7.0-1.0,kxeii4z319,2022-09-19 17:33:39.885,5d8e154af2858200171fdb95,2,57,32,58,26,36,Female,866.3999999762,,"
  <table>
  <tr height=300>
    <td width=300 height=300><img src=""static/images/cards/back_of_red_stars.svg"" width=""175px"" height=""250px""></img></td>
    <td width=300 height=300><img src=""static/images/cards/back_of_red_stars.svg"" width=""175px"" height=""250px""></img></td>
  </tr>
  <tr height=200>
    <td width=300></td>
    <td width=300><img src=""static/images/keys/m.svg"" width=""35%"" height=""75%""></img></td>
  </tr>
</table>
  ",77.0,1.0,,,,,,,,,,,,,,,,,,,,,,,,,,
152,0,,html-keyboard-response,152,357300,0.0-7.0-2.0,kxeii4z319,2022-09-19 17:33:39.885,5d8e154af2858200171fdb95,2,57,32,58,26,36,Female,,,"
  <table>
  <tr height=300>
    <td width=300 height=300><img src=""static/images/cards/back_of_red_stars.svg"" width=""175px"" height=""250px""></img></td>
    <td width=300 height=300><img src=""static/images/cards/2_of_red_stars.svg"" width=""175px"" height=""250px""></img></td>
  </tr>
  <tr height=200>
    <td width=300></td>
    <td width=300><img src=""static/images/keys/m.svg"" width=""35%"" height=""75%""></img></td>
  </tr>
</table>
  ",,,,,,,,,,,,,,,,,,,,,,,,,,,,
153,0,,html-keyboard-response,153,358815,0.0-7.0-3.0,kxeii4z319,2022-09-19 17:33:39.885,5d8e154af2858200171fdb95,2,57,32,58,26,36,Female,,,"<p style=""font-size:50px"">You Lose!
No points this round.</p>",,,,,,,,,,,,,,,,,,,,,,,,,,,,
154,0,,html-keyboard-response,154,359332,0.0-7.0-4.0,kxeii4z319,2022-09-19 17:33:39.885,5d8e154af2858200171fdb95,2,57,32,58,26,36,Female,,,,,,1.0,choice,0.0,A,B,red,black,stars,stars,B,A,B,red,stars,1996.9000000358,0.0,1.0,0,right,866.3999999762,2.0,0.0,0.0,,,
155,0,,html-keyboard-response,155,361304,0.0-7.1-0.1,kxeii4z319,2022-09-19 17:33:39.885,5d8e154af2858200171fdb95,2,57,32,58,26,36,Female,1968.5999999642,,"
  <table>
  <tr height=300>
    <td width=300 height=300><img src=""static/images/cards/stack_of_red_moons.svg"" width=""175px"" height=""250px""></img></td>
    <td width=300 height=300><img src=""static/images/cards/stack_of_black_moons.svg"" width=""175px"" height=""250px""></img></td>
  </tr>
  <tr height=200>
    <td width=300><img src=""static/images/keys/w.svg"" width=""35%"" height=""75%""></img></td>
    <td width=300><img src=""static/images/keys/o.svg"" width=""35%"" height=""75%""></img></td>
  </tr>
</table>
  ",87.0,1.0,,,,,,,,,,,,,,,,,,,,,,,,,,
156,0,,html-keyboard-response,156,362984,0.0-7.1-1.1,kxeii4z319,2022-09-19 17:33:39.885,5d8e154af2858200171fdb95,2,57,32,58,26,36,Female,1171.3000000119,,"
  <table>
  <tr height=300>
    <td width=300 height=300><img src=""static/images/cards/back_of_red_moons.svg"" width=""175px"" height=""250px""></img></td>
    <td width=300 height=300><img src=""static/images/cards/back_of_red_moons.svg"" width=""175px"" height=""250px""></img></td>
  </tr>
  <tr height=200>
    <td width=300><img src=""static/images/keys/z.svg"" width=""35%"" height=""75%""></img></td>
    <td width=300></td>
  </tr>
</table>
  ",90.0,2.0,,,,,,,,,,,,,,,,,,,,,,,,,,
157,0,,html-keyboard-response,157,364487,0.0-7.1-2.1,kxeii4z319,2022-09-19 17:33:39.885,5d8e154af2858200171fdb95,2,57,32,58,26,36,Female,,,"
  <table>
  <tr height=300>
    <td width=300 height=300><img src=""static/images/cards/1_of_red_moons.svg"" width=""175px"" height=""250px""></img></td>
    <td width=300 height=300><img src=""static/images/cards/back_of_red_moons.svg"" width=""175px"" height=""250px""></img></td>
  </tr>
  <tr height=200>
    <td width=300><img src=""static/images/keys/z.svg"" width=""35%"" height=""75%""></img></td>
    <td width=300></td>
  </tr>
</table>
  ",,,,,,,,,,,,,,,,,,,,,,,,,,,,
158,0,,html-keyboard-response,158,366017,0.0-7.1-3.1,kxeii4z319,2022-09-19 17:33:39.885,5d8e154af2858200171fdb95,2,57,32,58,26,36,Female,,,"<p style=""font-size:50px"">You Lose!
No points this round.</p>",,,,,,,,,,,,,,,,,,,,,,,,,,,,
159,0,,html-keyboard-response,159,366533,0.0-7.1-4.1,kxeii4z319,2022-09-19 17:33:39.885,5d8e154af2858200171fdb95,2,57,32,58,26,36,Female,,,,,,1.0,choice,1.0,C,D,red,black,moons,moons,D,C,D,red,moons,1968.5999999642,0.0,0.0,1,left,1171.3000000119,1.0,0.0,0.0,,,
160,0,,html-keyboard-response,160,368354,0.0-7.2-0.2,kxeii4z319,2022-09-19 17:33:39.885,5d8e154af2858200171fdb95,2,57,32,58,26,36,Female,1818.5999999642,,"
  <table>
  <tr height=300>
    <td width=300 height=300><img src=""static/images/cards/stack_of_black_stars.svg"" width=""175px"" height=""250px""></img></td>
    <td width=300 height=300><img src=""static/images/cards/stack_of_black_moons.svg"" width=""175px"" height=""250px""></img></td>
  </tr>
  <tr height=200>
    <td width=300><img src=""static/images/keys/w.svg"" width=""35%"" height=""75%""></img></td>
    <td width=300><img src=""static/images/keys/o.svg"" width=""35%"" height=""75%""></img></td>
  </tr>
</table>
  ",87.0,1.0,,,,,,,,,,,,,,,,,,,,,,,,,,
161,0,,html-keyboard-response,161,369614,0.0-7.2-1.2,kxeii4z319,2022-09-19 17:33:39.885,5d8e154af2858200171fdb95,2,57,32,58,26,36,Female,754.5999999642,,"
  <table>
  <tr height=300>
    <td width=300 height=300><img src=""static/images/cards/back_of_black_stars.svg"" width=""175px"" height=""250px""></img></td>
    <td width=300 height=300><img src=""static/images/cards/back_of_black_stars.svg"" width=""175px"" height=""250px""></img></td>
  </tr>
  <tr height=200>
    <td width=300><img src=""static/images/keys/z.svg"" width=""35%"" height=""75%""></img></td>
    <td width=300><img src=""static/images/keys/m.svg"" width=""35%"" height=""75%""></img></td>
  </tr>
</table>
  ",77.0,1.0,,,,,,,,,,,,,,,,,,,,,,,,,,
162,0,,html-keyboard-response,162,371125,0.0-7.2-2.2,kxeii4z319,2022-09-19 17:33:39.885,5d8e154af2858200171fdb95,2,57,32,58,26,36,Female,,,"
  <table>
  <tr height=300>
    <td width=300 height=300><img src=""static/images/cards/back_of_black_stars.svg"" width=""175px"" height=""250px""></img></td>
    <td width=300 height=300><img src=""static/images/cards/9_of_black_stars.svg"" width=""175px"" height=""250px""></img></td>
  </tr>
  <tr height=200>
    <td width=300><img src=""static/images/keys/z.svg"" width=""35%"" height=""75%""></img></td>
    <td width=300><img src=""static/images/keys/m.svg"" width=""35%"" height=""75%""></img></td>
  </tr>
</table>
  ",,,,,,,,,,,,,,,,,,,,,,,,,,,,
163,0,,html-keyboard-response,163,372639,0.0-7.2-3.2,kxeii4z319,2022-09-19 17:33:39.885,5d8e154af2858200171fdb95,2,57,32,58,26,36,Female,,,"<p style=""font-size:50px"">You win!
+10 points this round!</p>",,,,,,,,,,,,,,,,,,,,,,,,,,,,
164,0,,html-keyboard-response,164,373152,0.0-7.2-4.2,kxeii4z319,2022-09-19 17:33:39.885,5d8e154af2858200171fdb95,2,57,32,58,26,36,Female,,,,,,1.0,choice,2.0,A,C,black,black,stars,moons,A,C,A,black,stars,1818.5999999642,1.0,1.0,NA,right,754.5999999642,9.0,1.0,1.0,,,
165,0,,html-keyboard-response,165,374115,0.0-7.3-0.3,kxeii4z319,2022-09-19 17:33:39.885,5d8e154af2858200171fdb95,2,57,32,58,26,36,Female,959.3000000119,,"
  <table>
  <tr height=300>
    <td width=300 height=300><img src=""static/images/cards/stack_of_red_stars.svg"" width=""175px"" height=""250px""></img></td>
    <td width=300 height=300><img src=""static/images/cards/stack_of_red_moons.svg"" width=""175px"" height=""250px""></img></td>
  </tr>
  <tr height=200>
    <td width=300><img src=""static/images/keys/w.svg"" width=""35%"" height=""75%""></img></td>
    <td width=300><img src=""static/images/keys/o.svg"" width=""35%"" height=""75%""></img></td>
  </tr>
</table>
  ",87.0,1.0,,,,,,,,,,,,,,,,,,,,,,,,,,
166,0,,html-keyboard-response,166,375124,0.0-7.3-1.3,kxeii4z319,2022-09-19 17:33:39.885,5d8e154af2858200171fdb95,2,57,32,58,26,36,Female,494.1999999881,,"
  <table>
  <tr height=300>
    <td width=300 height=300><img src=""static/images/cards/back_of_red_stars.svg"" width=""175px"" height=""250px""></img></td>
    <td width=300 height=300><img src=""static/images/cards/back_of_red_stars.svg"" width=""175px"" height=""250px""></img></td>
  </tr>
  <tr height=200>
    <td width=300></td>
    <td width=300><img src=""static/images/keys/m.svg"" width=""35%"" height=""75%""></img></td>
  </tr>
</table>
  ",77.0,1.0,,,,,,,,,,,,,,,,,,,,,,,,,,
167,0,,html-keyboard-response,167,376638,0.0-7.3-2.3,kxeii4z319,2022-09-19 17:33:39.885,5d8e154af2858200171fdb95,2,57,32,58,26,36,Female,,,"
  <table>
  <tr height=300>
    <td width=300 height=300><img src=""static/images/cards/back_of_red_stars.svg"" width=""175px"" height=""250px""></img></td>
    <td width=300 height=300><img src=""static/images/cards/1_of_red_stars.svg"" width=""175px"" height=""250px""></img></td>
  </tr>
  <tr height=200>
    <td width=300></td>
    <td width=300><img src=""static/images/keys/m.svg"" width=""35%"" height=""75%""></img></td>
  </tr>
</table>
  ",,,,,,,,,,,,,,,,,,,,,,,,,,,,
168,0,,html-keyboard-response,168,378152,0.0-7.3-3.3,kxeii4z319,2022-09-19 17:33:39.885,5d8e154af2858200171fdb95,2,57,32,58,26,36,Female,,,"<p style=""font-size:50px"">You Lose!
No points this round.</p>",,,,,,,,,,,,,,,,,,,,,,,,,,,,
169,0,,html-keyboard-response,169,378663,0.0-7.3-4.3,kxeii4z319,2022-09-19 17:33:39.885,5d8e154af2858200171fdb95,2,57,32,58,26,36,Female,,,,,,1.0,choice,3.0,B,D,red,red,stars,moons,B,D,B,red,stars,959.3000000119,0.0,1.0,0,right,494.1999999881,1.0,0.0,0.0,,,
170,0,,html-keyboard-response,170,379634,0.0-7.4-0.4,kxeii4z319,2022-09-19 17:33:39.885,5d8e154af2858200171fdb95,2,57,32,58,26,36,Female,967.7999999523,,"
  <table>
  <tr height=300>
    <td width=300 height=300><img src=""static/images/cards/stack_of_black_moons.svg"" width=""175px"" height=""250px""></img></td>
    <td width=300 height=300><img src=""static/images/cards/stack_of_red_moons.svg"" width=""175px"" height=""250px""></img></td>
  </tr>
  <tr height=200>
    <td width=300><img src=""static/images/keys/w.svg"" width=""35%"" height=""75%""></img></td>
    <td width=300><img src=""static/images/keys/o.svg"" width=""35%"" height=""75%""></img></td>
  </tr>
</table>
  ",87.0,1.0,,,,,,,,,,,,,,,,,,,,,,,,,,
171,0,,html-keyboard-response,171,381134,0.0-7.4-1.4,kxeii4z319,2022-09-19 17:33:39.885,5d8e154af2858200171fdb95,2,57,32,58,26,36,Female,994.3999999762,,"
  <table>
  <tr height=300>
    <td width=300 height=300><img src=""static/images/cards/back_of_black_moons.svg"" width=""175px"" height=""250px""></img></td>
    <td width=300 height=300><img src=""static/images/cards/back_of_black_moons.svg"" width=""175px"" height=""250px""></img></td>
  </tr>
  <tr height=200>
    <td width=300><img src=""static/images/keys/z.svg"" width=""35%"" height=""75%""></img></td>
    <td width=300><img src=""static/images/keys/m.svg"" width=""35%"" height=""75%""></img></td>
  </tr>
</table>
  ",77.0,1.0,,,,,,,,,,,,,,,,,,,,,,,,,,
172,0,,html-keyboard-response,172,382638,0.0-7.4-2.4,kxeii4z319,2022-09-19 17:33:39.885,5d8e154af2858200171fdb95,2,57,32,58,26,36,Female,,,"
  <table>
  <tr height=300>
    <td width=300 height=300><img src=""static/images/cards/back_of_black_moons.svg"" width=""175px"" height=""250px""></img></td>
    <td width=300 height=300><img src=""static/images/cards/8_of_black_moons.svg"" width=""175px"" height=""250px""></img></td>
  </tr>
  <tr height=200>
    <td width=300><img src=""static/images/keys/z.svg"" width=""35%"" height=""75%""></img></td>
    <td width=300><img src=""static/images/keys/m.svg"" width=""35%"" height=""75%""></img></td>
  </tr>
</table>
  ",,,,,,,,,,,,,,,,,,,,,,,,,,,,
173,0,,html-keyboard-response,173,384153,0.0-7.4-3.4,kxeii4z319,2022-09-19 17:33:39.885,5d8e154af2858200171fdb95,2,57,32,58,26,36,Female,,,"<p style=""font-size:50px"">You Lose!
No points this round.</p>",,,,,,,,,,,,,,,,,,,,,,,,,,,,
174,0,,html-keyboard-response,174,384667,0.0-7.4-4.4,kxeii4z319,2022-09-19 17:33:39.885,5d8e154af2858200171fdb95,2,57,32,58,26,36,Female,,,,,,1.0,choice,4.0,C,D,black,red,moons,moons,C,D,C,black,moons,967.7999999523,1.0,0.0,NA,right,994.3999999762,8.0,1.0,0.0,,,
175,0,,html-keyboard-response,175,386213,0.0-7.5-0.5,kxeii4z319,2022-09-19 17:33:39.885,5d8e154af2858200171fdb95,2,57,32,58,26,36,Female,1544.1999999881,,"
  <table>
  <tr height=300>
    <td width=300 height=300><img src=""static/images/cards/stack_of_red_stars.svg"" width=""175px"" height=""250px""></img></td>
    <td width=300 height=300><img src=""static/images/cards/stack_of_black_stars.svg"" width=""175px"" height=""250px""></img></td>
  </tr>
  <tr height=200>
    <td width=300><img src=""static/images/keys/w.svg"" width=""35%"" height=""75%""></img></td>
    <td width=300><img src=""static/images/keys/o.svg"" width=""35%"" height=""75%""></img></td>
  </tr>
</table>
  ",79.0,1.0,,,,,,,,,,,,,,,,,,,,,,,,,,
176,0,,html-keyboard-response,176,387204,0.0-7.5-1.5,kxeii4z319,2022-09-19 17:33:39.885,5d8e154af2858200171fdb95,2,57,32,58,26,36,Female,481.6999999881,,"
  <table>
  <tr height=300>
    <td width=300 height=300><img src=""static/images/cards/back_of_black_stars.svg"" width=""175px"" height=""250px""></img></td>
    <td width=300 height=300><img src=""static/images/cards/back_of_black_stars.svg"" width=""175px"" height=""250px""></img></td>
  </tr>
  <tr height=200>
    <td width=300><img src=""static/images/keys/z.svg"" width=""35%"" height=""75%""></img></td>
    <td width=300><img src=""static/images/keys/m.svg"" width=""35%"" height=""75%""></img></td>
  </tr>
</table>
  ",77.0,1.0,,,,,,,,,,,,,,,,,,,,,,,,,,
177,0,,html-keyboard-response,177,388709,0.0-7.5-2.5,kxeii4z319,2022-09-19 17:33:39.885,5d8e154af2858200171fdb95,2,57,32,58,26,36,Female,,,"
  <table>
  <tr height=300>
    <td width=300 height=300><img src=""static/images/cards/back_of_black_stars.svg"" width=""175px"" height=""250px""></img></td>
    <td width=300 height=300><img src=""static/images/cards/4_of_black_stars.svg"" width=""175px"" height=""250px""></img></td>
  </tr>
  <tr height=200>
    <td width=300><img src=""static/images/keys/z.svg"" width=""35%"" height=""75%""></img></td>
    <td width=300><img src=""static/images/keys/m.svg"" width=""35%"" height=""75%""></img></td>
  </tr>
</table>
  ",,,,,,,,,,,,,,,,,,,,,,,,,,,,
178,0,,html-keyboard-response,178,390234,0.0-7.5-3.5,kxeii4z319,2022-09-19 17:33:39.885,5d8e154af2858200171fdb95,2,57,32,58,26,36,Female,,,"<p style=""font-size:50px"">You Lose!
No points this round.</p>",,,,,,,,,,,,,,,,,,,,,,,,,,,,
179,0,,html-keyboard-response,179,390748,0.0-7.5-4.5,kxeii4z319,2022-09-19 17:33:39.885,5d8e154af2858200171fdb95,2,57,32,58,26,36,Female,,,,,,1.0,choice,5.0,A,B,red,black,stars,stars,B,A,A,black,stars,1544.1999999881,1.0,1.0,NA,right,481.6999999881,4.0,0.0,0.0,,,
180,0,,html-keyboard-response,180,392165,0.0-7.6-0.6,kxeii4z319,2022-09-19 17:33:39.885,5d8e154af2858200171fdb95,2,57,32,58,26,36,Female,1414.6000000238,,"
  <table>
  <tr height=300>
    <td width=300 height=300><img src=""static/images/cards/stack_of_red_moons.svg"" width=""175px"" height=""250px""></img></td>
    <td width=300 height=300><img src=""static/images/cards/stack_of_red_stars.svg"" width=""175px"" height=""250px""></img></td>
  </tr>
  <tr height=200>
    <td width=300><img src=""static/images/keys/w.svg"" width=""35%"" height=""75%""></img></td>
    <td width=300><img src=""static/images/keys/o.svg"" width=""35%"" height=""75%""></img></td>
  </tr>
</table>
  ",79.0,1.0,,,,,,,,,,,,,,,,,,,,,,,,,,
181,0,,html-keyboard-response,181,393434,0.0-7.6-1.6,kxeii4z319,2022-09-19 17:33:39.885,5d8e154af2858200171fdb95,2,57,32,58,26,36,Female,766.5999999642,,"
  <table>
  <tr height=300>
    <td width=300 height=300><img src=""static/images/cards/back_of_red_stars.svg"" width=""175px"" height=""250px""></img></td>
    <td width=300 height=300><img src=""static/images/cards/back_of_red_stars.svg"" width=""175px"" height=""250px""></img></td>
  </tr>
  <tr height=200>
    <td width=300><img src=""static/images/keys/z.svg"" width=""35%"" height=""75%""></img></td>
    <td width=300></td>
  </tr>
</table>
  ",90.0,1.0,,,,,,,,,,,,,,,,,,,,,,,,,,
182,0,,html-keyboard-response,182,394938,0.0-7.6-2.6,kxeii4z319,2022-09-19 17:33:39.885,5d8e154af2858200171fdb95,2,57,32,58,26,36,Female,,,"
  <table>
  <tr height=300>
    <td width=300 height=300><img src=""static/images/cards/10_of_red_stars.svg"" width=""175px"" height=""250px""></img></td>
    <td width=300 height=300><img src=""static/images/cards/back_of_red_stars.svg"" width=""175px"" height=""250px""></img></td>
  </tr>
  <tr height=200>
    <td width=300><img src=""static/images/keys/z.svg"" width=""35%"" height=""75%""></img></td>
    <td width=300></td>
  </tr>
</table>
  ",,,,,,,,,,,,,,,,,,,,,,,,,,,,
183,0,,html-keyboard-response,183,396456,0.0-7.6-3.6,kxeii4z319,2022-09-19 17:33:39.885,5d8e154af2858200171fdb95,2,57,32,58,26,36,Female,,,"<p style=""font-size:50px"">You win!
+10 points this round!</p>",,,,,,,,,,,,,,,,,,,,,,,,,,,,
184,0,,html-keyboard-response,184,396966,0.0-7.6-4.6,kxeii4z319,2022-09-19 17:33:39.885,5d8e154af2858200171fdb95,2,57,32,58,26,36,Female,,,,,,1.0,choice,6.0,B,D,red,red,moons,stars,D,B,B,red,stars,1414.6000000238,0.0,1.0,1,left,766.5999999642,10.0,1.0,1.0,,,
185,0,,html-keyboard-response,185,398333,0.0-7.7-0.7,kxeii4z319,2022-09-19 17:33:39.885,5d8e154af2858200171fdb95,2,57,32,58,26,36,Female,1364.6999999881,,"
  <table>
  <tr height=300>
    <td width=300 height=300><img src=""static/images/cards/stack_of_black_stars.svg"" width=""175px"" height=""250px""></img></td>
    <td width=300 height=300><img src=""static/images/cards/stack_of_black_moons.svg"" width=""175px"" height=""250px""></img></td>
  </tr>
  <tr height=200>
    <td width=300><img src=""static/images/keys/w.svg"" width=""35%"" height=""75%""></img></td>
    <td width=300><img src=""static/images/keys/o.svg"" width=""35%"" height=""75%""></img></td>
  </tr>
</table>
  ",87.0,1.0,,,,,,,,,,,,,,,,,,,,,,,,,,
186,0,,html-keyboard-response,186,399644,0.0-7.7-1.7,kxeii4z319,2022-09-19 17:33:39.885,5d8e154af2858200171fdb95,2,57,32,58,26,36,Female,799.5,,"
  <table>
  <tr height=300>
    <td width=300 height=300><img src=""static/images/cards/back_of_black_stars.svg"" width=""175px"" height=""250px""></img></td>
    <td width=300 height=300><img src=""static/images/cards/back_of_black_stars.svg"" width=""175px"" height=""250px""></img></td>
  </tr>
  <tr height=200>
    <td width=300><img src=""static/images/keys/z.svg"" width=""35%"" height=""75%""></img></td>
    <td width=300><img src=""static/images/keys/m.svg"" width=""35%"" height=""75%""></img></td>
  </tr>
</table>
  ",90.0,1.0,,,,,,,,,,,,,,,,,,,,,,,,,,
187,0,,html-keyboard-response,187,401159,0.0-7.7-2.7,kxeii4z319,2022-09-19 17:33:39.885,5d8e154af2858200171fdb95,2,57,32,58,26,36,Female,,,"
  <table>
  <tr height=300>
    <td width=300 height=300><img src=""static/images/cards/6_of_black_stars.svg"" width=""175px"" height=""250px""></img></td>
    <td width=300 height=300><img src=""static/images/cards/back_of_black_stars.svg"" width=""175px"" height=""250px""></img></td>
  </tr>
  <tr height=200>
    <td width=300><img src=""static/images/keys/z.svg"" width=""35%"" height=""75%""></img></td>
    <td width=300><img src=""static/images/keys/m.svg"" width=""35%"" height=""75%""></img></td>
  </tr>
</table>
  ",,,,,,,,,,,,,,,,,,,,,,,,,,,,
188,0,,html-keyboard-response,188,402673,0.0-7.7-3.7,kxeii4z319,2022-09-19 17:33:39.885,5d8e154af2858200171fdb95,2,57,32,58,26,36,Female,,,"<p style=""font-size:50px"">You win!
+10 points this round!</p>",,,,,,,,,,,,,,,,,,,,,,,,,,,,
189,0,,html-keyboard-response,189,403194,0.0-7.7-4.7,kxeii4z319,2022-09-19 17:33:39.885,5d8e154af2858200171fdb95,2,57,32,58,26,36,Female,,,,,,1.0,choice,7.0,A,C,black,black,stars,moons,A,C,A,black,stars,1364.6999999881,1.0,1.0,NA,left,799.5,6.0,1.0,1.0,,,
190,0,,html-keyboard-response,190,404314,0.0-7.8-0.8,kxeii4z319,2022-09-19 17:33:39.885,5d8e154af2858200171fdb95,2,57,32,58,26,36,Female,1117.6000000238,,"
  <table>
  <tr height=300>
    <td width=300 height=300><img src=""static/images/cards/stack_of_red_stars.svg"" width=""175px"" height=""250px""></img></td>
    <td width=300 height=300><img src=""static/images/cards/stack_of_black_moons.svg"" width=""175px"" height=""250px""></img></td>
  </tr>
  <tr height=200>
    <td width=300><img src=""static/images/keys/w.svg"" width=""35%"" height=""75%""></img></td>
    <td width=300><img src=""static/images/keys/o.svg"" width=""35%"" height=""75%""></img></td>
  </tr>
</table>
  ",79.0,1.0,,,,,,,,,,,,,,,,,,,,,,,,,,
191,0,,html-keyboard-response,191,405394,0.0-7.8-1.8,kxeii4z319,2022-09-19 17:33:39.885,5d8e154af2858200171fdb95,2,57,32,58,26,36,Female,561.9000000358,,"
  <table>
  <tr height=300>
    <td width=300 height=300><img src=""static/images/cards/back_of_black_moons.svg"" width=""175px"" height=""250px""></img></td>
    <td width=300 height=300><img src=""static/images/cards/back_of_black_moons.svg"" width=""175px"" height=""250px""></img></td>
  </tr>
  <tr height=200>
    <td width=300><img src=""static/images/keys/z.svg"" width=""35%"" height=""75%""></img></td>
    <td width=300><img src=""static/images/keys/m.svg"" width=""35%"" height=""75%""></img></td>
  </tr>
</table>
  ",90.0,1.0,,,,,,,,,,,,,,,,,,,,,,,,,,
192,0,,html-keyboard-response,192,406910,0.0-7.8-2.8,kxeii4z319,2022-09-19 17:33:39.885,5d8e154af2858200171fdb95,2,57,32,58,26,36,Female,,,"
  <table>
  <tr height=300>
    <td width=300 height=300><img src=""static/images/cards/9_of_black_moons.svg"" width=""175px"" height=""250px""></img></td>
    <td width=300 height=300><img src=""static/images/cards/back_of_black_moons.svg"" width=""175px"" height=""250px""></img></td>
  </tr>
  <tr height=200>
    <td width=300><img src=""static/images/keys/z.svg"" width=""35%"" height=""75%""></img></td>
    <td width=300><img src=""static/images/keys/m.svg"" width=""35%"" height=""75%""></img></td>
  </tr>
</table>
  ",,,,,,,,,,,,,,,,,,,,,,,,,,,,
193,0,,html-keyboard-response,193,408427,0.0-7.8-3.8,kxeii4z319,2022-09-19 17:33:39.885,5d8e154af2858200171fdb95,2,57,32,58,26,36,Female,,,"<p style=""font-size:50px"">You win!
+10 points this round!</p>",,,,,,,,,,,,,,,,,,,,,,,,,,,,
194,0,,html-keyboard-response,194,408944,0.0-7.8-4.8,kxeii4z319,2022-09-19 17:33:39.885,5d8e154af2858200171fdb95,2,57,32,58,26,36,Female,,,,,,1.0,choice,8.0,B,C,red,black,stars,moons,B,C,C,black,moons,1117.6000000238,1.0,0.0,NA,left,561.9000000358,9.0,1.0,1.0,,,
195,0,,html-keyboard-response,195,409735,0.0-7.9-0.9,kxeii4z319,2022-09-19 17:33:39.885,5d8e154af2858200171fdb95,2,57,32,58,26,36,Female,788.1999999881,,"
  <table>
  <tr height=300>
    <td width=300 height=300><img src=""static/images/cards/stack_of_red_stars.svg"" width=""175px"" height=""250px""></img></td>
    <td width=300 height=300><img src=""static/images/cards/stack_of_black_stars.svg"" width=""175px"" height=""250px""></img></td>
  </tr>
  <tr height=200>
    <td width=300><img src=""static/images/keys/w.svg"" width=""35%"" height=""75%""></img></td>
    <td width=300><img src=""static/images/keys/o.svg"" width=""35%"" height=""75%""></img></td>
  </tr>
</table>
  ",79.0,1.0,,,,,,,,,,,,,,,,,,,,,,,,,,
196,0,,html-keyboard-response,196,410664,0.0-7.9-1.9,kxeii4z319,2022-09-19 17:33:39.885,5d8e154af2858200171fdb95,2,57,32,58,26,36,Female,423.0,,"
  <table>
  <tr height=300>
    <td width=300 height=300><img src=""static/images/cards/back_of_black_stars.svg"" width=""175px"" height=""250px""></img></td>
    <td width=300 height=300><img src=""static/images/cards/back_of_black_stars.svg"" width=""175px"" height=""250px""></img></td>
  </tr>
  <tr height=200>
    <td width=300><img src=""static/images/keys/z.svg"" width=""35%"" height=""75%""></img></td>
    <td width=300><img src=""static/images/keys/m.svg"" width=""35%"" height=""75%""></img></td>
  </tr>
</table>
  ",90.0,1.0,,,,,,,,,,,,,,,,,,,,,,,,,,
197,0,,html-keyboard-response,197,412181,0.0-7.9-2.9,kxeii4z319,2022-09-19 17:33:39.885,5d8e154af2858200171fdb95,2,57,32,58,26,36,Female,,,"
  <table>
  <tr height=300>
    <td width=300 height=300><img src=""static/images/cards/10_of_black_stars.svg"" width=""175px"" height=""250px""></img></td>
    <td width=300 height=300><img src=""static/images/cards/back_of_black_stars.svg"" width=""175px"" height=""250px""></img></td>
  </tr>
  <tr height=200>
    <td width=300><img src=""static/images/keys/z.svg"" width=""35%"" height=""75%""></img></td>
    <td width=300><img src=""static/images/keys/m.svg"" width=""35%"" height=""75%""></img></td>
  </tr>
</table>
  ",,,,,,,,,,,,,,,,,,,,,,,,,,,,
198,0,,html-keyboard-response,198,413705,0.0-7.9-3.9,kxeii4z319,2022-09-19 17:33:39.885,5d8e154af2858200171fdb95,2,57,32,58,26,36,Female,,,"<p style=""font-size:50px"">You win!
+10 points this round!</p>",,,,,,,,,,,,,,,,,,,,,,,,,,,,
199,0,,html-keyboard-response,199,414212,0.0-7.9-4.9,kxeii4z319,2022-09-19 17:33:39.885,5d8e154af2858200171fdb95,2,57,32,58,26,36,Female,,,,,,1.0,choice,9.0,A,B,red,black,stars,stars,B,A,A,black,stars,788.1999999881,1.0,1.0,NA,left,423.0,10.0,1.0,1.0,,,
200,0,,html-keyboard-response,200,415775,0.0-7.10-0.10,kxeii4z319,2022-09-19 17:33:39.885,5d8e154af2858200171fdb95,2,57,32,58,26,36,Female,1560.6000000238,,"
  <table>
  <tr height=300>
    <td width=300 height=300><img src=""static/images/cards/stack_of_black_moons.svg"" width=""175px"" height=""250px""></img></td>
    <td width=300 height=300><img src=""static/images/cards/stack_of_red_moons.svg"" width=""175px"" height=""250px""></img></td>
  </tr>
  <tr height=200>
    <td width=300><img src=""static/images/keys/w.svg"" width=""35%"" height=""75%""></img></td>
    <td width=300><img src=""static/images/keys/o.svg"" width=""35%"" height=""75%""></img></td>
  </tr>
</table>
  ",87.0,1.0,,,,,,,,,,,,,,,,,,,,,,,,,,
201,0,,html-keyboard-response,201,416875,0.0-7.10-1.10,kxeii4z319,2022-09-19 17:33:39.885,5d8e154af2858200171fdb95,2,57,32,58,26,36,Female,592.0,,"
  <table>
  <tr height=300>
    <td width=300 height=300><img src=""static/images/cards/back_of_black_moons.svg"" width=""175px"" height=""250px""></img></td>
    <td width=300 height=300><img src=""static/images/cards/back_of_black_moons.svg"" width=""175px"" height=""250px""></img></td>
  </tr>
  <tr height=200>
    <td width=300><img src=""static/images/keys/z.svg"" width=""35%"" height=""75%""></img></td>
    <td width=300><img src=""static/images/keys/m.svg"" width=""35%"" height=""75%""></img></td>
  </tr>
</table>
  ",90.0,1.0,,,,,,,,,,,,,,,,,,,,,,,,,,
202,0,,html-keyboard-response,202,418386,0.0-7.10-2.10,kxeii4z319,2022-09-19 17:33:39.885,5d8e154af2858200171fdb95,2,57,32,58,26,36,Female,,,"
  <table>
  <tr height=300>
    <td width=300 height=300><img src=""static/images/cards/2_of_black_moons.svg"" width=""175px"" height=""250px""></img></td>
    <td width=300 height=300><img src=""static/images/cards/back_of_black_moons.svg"" width=""175px"" height=""250px""></img></td>
  </tr>
  <tr height=200>
    <td width=300><img src=""static/images/keys/z.svg"" width=""35%"" height=""75%""></img></td>
    <td width=300><img src=""static/images/keys/m.svg"" width=""35%"" height=""75%""></img></td>
  </tr>
</table>
  ",,,,,,,,,,,,,,,,,,,,,,,,,,,,
203,0,,html-keyboard-response,203,419912,0.0-7.10-3.10,kxeii4z319,2022-09-19 17:33:39.885,5d8e154af2858200171fdb95,2,57,32,58,26,36,Female,,,"<p style=""font-size:50px"">You win!
+10 points this round!</p>",,,,,,,,,,,,,,,,,,,,,,,,,,,,
204,0,,html-keyboard-response,204,420421,0.0-7.10-4.10,kxeii4z319,2022-09-19 17:33:39.885,5d8e154af2858200171fdb95,2,57,32,58,26,36,Female,,,,,,1.0,choice,10.0,C,D,black,red,moons,moons,C,D,C,black,moons,1560.6000000238,1.0,0.0,NA,left,592.0,2.0,0.0,1.0,,,
205,0,,html-keyboard-response,205,421546,0.0-7.11-0.11,kxeii4z319,2022-09-19 17:33:39.885,5d8e154af2858200171fdb95,2,57,32,58,26,36,Female,1121.6000000238,,"
  <table>
  <tr height=300>
    <td width=300 height=300><img src=""static/images/cards/stack_of_red_moons.svg"" width=""175px"" height=""250px""></img></td>
    <td width=300 height=300><img src=""static/images/cards/stack_of_black_stars.svg"" width=""175px"" height=""250px""></img></td>
  </tr>
  <tr height=200>
    <td width=300><img src=""static/images/keys/w.svg"" width=""35%"" height=""75%""></img></td>
    <td width=300><img src=""static/images/keys/o.svg"" width=""35%"" height=""75%""></img></td>
  </tr>
</table>
  ",79.0,1.0,,,,,,,,,,,,,,,,,,,,,,,,,,
206,0,,html-keyboard-response,206,422335,0.0-7.11-1.11,kxeii4z319,2022-09-19 17:33:39.885,5d8e154af2858200171fdb95,2,57,32,58,26,36,Female,279.2000000477,,"
  <table>
  <tr height=300>
    <td width=300 height=300><img src=""static/images/cards/back_of_black_stars.svg"" width=""175px"" height=""250px""></img></td>
    <td width=300 height=300><img src=""static/images/cards/back_of_black_stars.svg"" width=""175px"" height=""250px""></img></td>
  </tr>
  <tr height=200>
    <td width=300><img src=""static/images/keys/z.svg"" width=""35%"" height=""75%""></img></td>
    <td width=300><img src=""static/images/keys/m.svg"" width=""35%"" height=""75%""></img></td>
  </tr>
</table>
  ",90.0,1.0,,,,,,,,,,,,,,,,,,,,,,,,,,
207,0,,html-keyboard-response,207,423843,0.0-7.11-2.11,kxeii4z319,2022-09-19 17:33:39.885,5d8e154af2858200171fdb95,2,57,32,58,26,36,Female,,,"
  <table>
  <tr height=300>
    <td width=300 height=300><img src=""static/images/cards/3_of_black_stars.svg"" width=""175px"" height=""250px""></img></td>
    <td width=300 height=300><img src=""static/images/cards/back_of_black_stars.svg"" width=""175px"" height=""250px""></img></td>
  </tr>
  <tr height=200>
    <td width=300><img src=""static/images/keys/z.svg"" width=""35%"" height=""75%""></img></td>
    <td width=300><img src=""static/images/keys/m.svg"" width=""35%"" height=""75%""></img></td>
  </tr>
</table>
  ",,,,,,,,,,,,,,,,,,,,,,,,,,,,
208,0,,html-keyboard-response,208,425358,0.0-7.11-3.11,kxeii4z319,2022-09-19 17:33:39.885,5d8e154af2858200171fdb95,2,57,32,58,26,36,Female,,,"<p style=""font-size:50px"">You Lose!
No points this round.</p>",,,,,,,,,,,,,,,,,,,,,,,,,,,,
209,0,,html-keyboard-response,209,425875,0.0-7.11-4.11,kxeii4z319,2022-09-19 17:33:39.885,5d8e154af2858200171fdb95,2,57,32,58,26,36,Female,,,,,,1.0,choice,11.0,A,D,red,black,moons,stars,D,A,A,black,stars,1121.6000000238,1.0,1.0,NA,left,279.2000000477,3.0,0.0,0.0,,,
210,0,,html-keyboard-response,210,427805,0.0-7.12-0.12,kxeii4z319,2022-09-19 17:33:39.885,5d8e154af2858200171fdb95,2,57,32,58,26,36,Female,1926.5999999642,,"
  <table>
  <tr height=300>
    <td width=300 height=300><img src=""static/images/cards/stack_of_black_stars.svg"" width=""175px"" height=""250px""></img></td>
    <td width=300 height=300><img src=""static/images/cards/stack_of_black_moons.svg"" width=""175px"" height=""250px""></img></td>
  </tr>
  <tr height=200>
    <td width=300><img src=""static/images/keys/w.svg"" width=""35%"" height=""75%""></img></td>
    <td width=300><img src=""static/images/keys/o.svg"" width=""35%"" height=""75%""></img></td>
  </tr>
</table>
  ",79.0,1.0,,,,,,,,,,,,,,,,,,,,,,,,,,
211,0,,html-keyboard-response,211,428545,0.0-7.12-1.12,kxeii4z319,2022-09-19 17:33:39.885,5d8e154af2858200171fdb95,2,57,32,58,26,36,Female,236.0,,"
  <table>
  <tr height=300>
    <td width=300 height=300><img src=""static/images/cards/back_of_black_moons.svg"" width=""175px"" height=""250px""></img></td>
    <td width=300 height=300><img src=""static/images/cards/back_of_black_moons.svg"" width=""175px"" height=""250px""></img></td>
  </tr>
  <tr height=200>
    <td width=300><img src=""static/images/keys/z.svg"" width=""35%"" height=""75%""></img></td>
    <td width=300><img src=""static/images/keys/m.svg"" width=""35%"" height=""75%""></img></td>
  </tr>
</table>
  ",90.0,1.0,,,,,,,,,,,,,,,,,,,,,,,,,,
212,0,,html-keyboard-response,212,430062,0.0-7.12-2.12,kxeii4z319,2022-09-19 17:33:39.885,5d8e154af2858200171fdb95,2,57,32,58,26,36,Female,,,"
  <table>
  <tr height=300>
    <td width=300 height=300><img src=""static/images/cards/3_of_black_moons.svg"" width=""175px"" height=""250px""></img></td>
    <td width=300 height=300><img src=""static/images/cards/back_of_black_moons.svg"" width=""175px"" height=""250px""></img></td>
  </tr>
  <tr height=200>
    <td width=300><img src=""static/images/keys/z.svg"" width=""35%"" height=""75%""></img></td>
    <td width=300><img src=""static/images/keys/m.svg"" width=""35%"" height=""75%""></img></td>
  </tr>
</table>
  ",,,,,,,,,,,,,,,,,,,,,,,,,,,,
213,0,,html-keyboard-response,213,431594,0.0-7.12-3.12,kxeii4z319,2022-09-19 17:33:39.885,5d8e154af2858200171fdb95,2,57,32,58,26,36,Female,,,"<p style=""font-size:50px"">You win!
+10 points this round!</p>",,,,,,,,,,,,,,,,,,,,,,,,,,,,
214,0,,html-keyboard-response,214,432103,0.0-7.12-4.12,kxeii4z319,2022-09-19 17:33:39.885,5d8e154af2858200171fdb95,2,57,32,58,26,36,Female,,,,,,1.0,choice,12.0,A,C,black,black,stars,moons,A,C,C,black,moons,1926.5999999642,1.0,0.0,NA,left,236.0,3.0,0.0,1.0,,,
215,0,,html-keyboard-response,215,433355,0.0-7.13-0.13,kxeii4z319,2022-09-19 17:33:39.885,5d8e154af2858200171fdb95,2,57,32,58,26,36,Female,1249.4000000358,,"
  <table>
  <tr height=300>
    <td width=300 height=300><img src=""static/images/cards/stack_of_red_stars.svg"" width=""175px"" height=""250px""></img></td>
    <td width=300 height=300><img src=""static/images/cards/stack_of_red_moons.svg"" width=""175px"" height=""250px""></img></td>
  </tr>
  <tr height=200>
    <td width=300><img src=""static/images/keys/w.svg"" width=""35%"" height=""75%""></img></td>
    <td width=300><img src=""static/images/keys/o.svg"" width=""35%"" height=""75%""></img></td>
  </tr>
</table>
  ",79.0,1.0,,,,,,,,,,,,,,,,,,,,,,,,,,
216,0,,html-keyboard-response,216,434555,0.0-7.13-1.13,kxeii4z319,2022-09-19 17:33:39.885,5d8e154af2858200171fdb95,2,57,32,58,26,36,Female,692.8999999762,,"
  <table>
  <tr height=300>
    <td width=300 height=300><img src=""static/images/cards/back_of_red_moons.svg"" width=""175px"" height=""250px""></img></td>
    <td width=300 height=300><img src=""static/images/cards/back_of_red_moons.svg"" width=""175px"" height=""250px""></img></td>
  </tr>
  <tr height=200>
    <td width=300></td>
    <td width=300><img src=""static/images/keys/m.svg"" width=""35%"" height=""75%""></img></td>
  </tr>
</table>
  ",77.0,1.0,,,,,,,,,,,,,,,,,,,,,,,,,,
217,0,,html-keyboard-response,217,436060,0.0-7.13-2.13,kxeii4z319,2022-09-19 17:33:39.885,5d8e154af2858200171fdb95,2,57,32,58,26,36,Female,,,"
  <table>
  <tr height=300>
    <td width=300 height=300><img src=""static/images/cards/back_of_red_moons.svg"" width=""175px"" height=""250px""></img></td>
    <td width=300 height=300><img src=""static/images/cards/4_of_red_moons.svg"" width=""175px"" height=""250px""></img></td>
  </tr>
  <tr height=200>
    <td width=300></td>
    <td width=300><img src=""static/images/keys/m.svg"" width=""35%"" height=""75%""></img></td>
  </tr>
</table>
  ",,,,,,,,,,,,,,,,,,,,,,,,,,,,
218,0,,html-keyboard-response,218,437589,0.0-7.13-3.13,kxeii4z319,2022-09-19 17:33:39.885,5d8e154af2858200171fdb95,2,57,32,58,26,36,Female,,,"<p style=""font-size:50px"">You win!
+10 points this round!</p>",,,,,,,,,,,,,,,,,,,,,,,,,,,,
219,0,,html-keyboard-response,219,438098,0.0-7.13-4.13,kxeii4z319,2022-09-19 17:33:39.885,5d8e154af2858200171fdb95,2,57,32,58,26,36,Female,,,,,,1.0,choice,13.0,B,D,red,red,stars,moons,B,D,D,red,moons,1249.4000000358,0.0,0.0,0,right,692.8999999762,4.0,0.0,1.0,,,
220,0,,html-keyboard-response,220,439494,0.0-7.14-0.14,kxeii4z319,2022-09-19 17:33:39.885,5d8e154af2858200171fdb95,2,57,32,58,26,36,Female,1392.8000000119,,"
  <table>
  <tr height=300>
    <td width=300 height=300><img src=""static/images/cards/stack_of_red_stars.svg"" width=""175px"" height=""250px""></img></td>
    <td width=300 height=300><img src=""static/images/cards/stack_of_red_moons.svg"" width=""175px"" height=""250px""></img></td>
  </tr>
  <tr height=200>
    <td width=300><img src=""static/images/keys/w.svg"" width=""35%"" height=""75%""></img></td>
    <td width=300><img src=""static/images/keys/o.svg"" width=""35%"" height=""75%""></img></td>
  </tr>
</table>
  ",87.0,1.0,,,,,,,,,,,,,,,,,,,,,,,,,,
221,0,,html-keyboard-response,221,440704,0.0-7.14-1.14,kxeii4z319,2022-09-19 17:33:39.885,5d8e154af2858200171fdb95,2,57,32,58,26,36,Female,706.3000000119,,"
  <table>
  <tr height=300>
    <td width=300 height=300><img src=""static/images/cards/back_of_red_stars.svg"" width=""175px"" height=""250px""></img></td>
    <td width=300 height=300><img src=""static/images/cards/back_of_red_stars.svg"" width=""175px"" height=""250px""></img></td>
  </tr>
  <tr height=200>
    <td width=300><img src=""static/images/keys/z.svg"" width=""35%"" height=""75%""></img></td>
    <td width=300></td>
  </tr>
</table>
  ",90.0,1.0,,,,,,,,,,,,,,,,,,,,,,,,,,
222,0,,html-keyboard-response,222,442208,0.0-7.14-2.14,kxeii4z319,2022-09-19 17:33:39.885,5d8e154af2858200171fdb95,2,57,32,58,26,36,Female,,,"
  <table>
  <tr height=300>
    <td width=300 height=300><img src=""static/images/cards/2_of_red_stars.svg"" width=""175px"" height=""250px""></img></td>
    <td width=300 height=300><img src=""static/images/cards/back_of_red_stars.svg"" width=""175px"" height=""250px""></img></td>
  </tr>
  <tr height=200>
    <td width=300><img src=""static/images/keys/z.svg"" width=""35%"" height=""75%""></img></td>
    <td width=300></td>
  </tr>
</table>
  ",,,,,,,,,,,,,,,,,,,,,,,,,,,,
223,0,,html-keyboard-response,223,443726,0.0-7.14-3.14,kxeii4z319,2022-09-19 17:33:39.885,5d8e154af2858200171fdb95,2,57,32,58,26,36,Female,,,"<p style=""font-size:50px"">You Lose!
No points this round.</p>",,,,,,,,,,,,,,,,,,,,,,,,,,,,
224,0,,html-keyboard-response,224,444241,0.0-7.14-4.14,kxeii4z319,2022-09-19 17:33:39.885,5d8e154af2858200171fdb95,2,57,32,58,26,36,Female,,,,,,1.0,choice,14.0,B,D,red,red,stars,moons,B,D,B,red,stars,1392.8000000119,0.0,1.0,1,left,706.3000000119,2.0,0.0,0.0,,,
225,0,,html-keyboard-response,225,445395,0.0-7.15-0.15,kxeii4z319,2022-09-19 17:33:39.885,5d8e154af2858200171fdb95,2,57,32,58,26,36,Female,1151.1000000238,,"
  <table>
  <tr height=300>
    <td width=300 height=300><img src=""static/images/cards/stack_of_red_stars.svg"" width=""175px"" height=""250px""></img></td>
    <td width=300 height=300><img src=""static/images/cards/stack_of_black_stars.svg"" width=""175px"" height=""250px""></img></td>
  </tr>
  <tr height=200>
    <td width=300><img src=""static/images/keys/w.svg"" width=""35%"" height=""75%""></img></td>
    <td width=300><img src=""static/images/keys/o.svg"" width=""35%"" height=""75%""></img></td>
  </tr>
</table>
  ",79.0,1.0,,,,,,,,,,,,,,,,,,,,,,,,,,
226,0,,html-keyboard-response,226,446364,0.0-7.15-1.15,kxeii4z319,2022-09-19 17:33:39.885,5d8e154af2858200171fdb95,2,57,32,58,26,36,Female,450.3000000119,,"
  <table>
  <tr height=300>
    <td width=300 height=300><img src=""static/images/cards/back_of_black_stars.svg"" width=""175px"" height=""250px""></img></td>
    <td width=300 height=300><img src=""static/images/cards/back_of_black_stars.svg"" width=""175px"" height=""250px""></img></td>
  </tr>
  <tr height=200>
    <td width=300><img src=""static/images/keys/z.svg"" width=""35%"" height=""75%""></img></td>
    <td width=300><img src=""static/images/keys/m.svg"" width=""35%"" height=""75%""></img></td>
  </tr>
</table>
  ",90.0,1.0,,,,,,,,,,,,,,,,,,,,,,,,,,
227,0,,html-keyboard-response,227,447879,0.0-7.15-2.15,kxeii4z319,2022-09-19 17:33:39.885,5d8e154af2858200171fdb95,2,57,32,58,26,36,Female,,,"
  <table>
  <tr height=300>
    <td width=300 height=300><img src=""static/images/cards/10_of_black_stars.svg"" width=""175px"" height=""250px""></img></td>
    <td width=300 height=300><img src=""static/images/cards/back_of_black_stars.svg"" width=""175px"" height=""250px""></img></td>
  </tr>
  <tr height=200>
    <td width=300><img src=""static/images/keys/z.svg"" width=""35%"" height=""75%""></img></td>
    <td width=300><img src=""static/images/keys/m.svg"" width=""35%"" height=""75%""></img></td>
  </tr>
</table>
  ",,,,,,,,,,,,,,,,,,,,,,,,,,,,
228,0,,html-keyboard-response,228,449396,0.0-7.15-3.15,kxeii4z319,2022-09-19 17:33:39.885,5d8e154af2858200171fdb95,2,57,32,58,26,36,Female,,,"<p style=""font-size:50px"">You win!
+10 points this round!</p>",,,,,,,,,,,,,,,,,,,,,,,,,,,,
229,0,,html-keyboard-response,229,449916,0.0-7.15-4.15,kxeii4z319,2022-09-19 17:33:39.885,5d8e154af2858200171fdb95,2,57,32,58,26,36,Female,,,,,,1.0,choice,15.0,A,B,red,black,stars,stars,B,A,A,black,stars,1151.1000000238,1.0,1.0,NA,left,450.3000000119,10.0,1.0,1.0,,,
230,0,,html-keyboard-response,230,450415,0.0-7.16-0.16,kxeii4z319,2022-09-19 17:33:39.885,5d8e154af2858200171fdb95,2,57,32,58,26,36,Female,496.3999999762,,"
  <table>
  <tr height=300>
    <td width=300 height=300><img src=""static/images/cards/stack_of_black_moons.svg"" width=""175px"" height=""250px""></img></td>
    <td width=300 height=300><img src=""static/images/cards/stack_of_black_stars.svg"" width=""175px"" height=""250px""></img></td>
  </tr>
  <tr height=200>
    <td width=300><img src=""static/images/keys/w.svg"" width=""35%"" height=""75%""></img></td>
    <td width=300><img src=""static/images/keys/o.svg"" width=""35%"" height=""75%""></img></td>
  </tr>
</table>
  ",79.0,1.0,,,,,,,,,,,,,,,,,,,,,,,,,,
231,0,,html-keyboard-response,231,451195,0.0-7.16-1.16,kxeii4z319,2022-09-19 17:33:39.885,5d8e154af2858200171fdb95,2,57,32,58,26,36,Female,268.3000000119,,"
  <table>
  <tr height=300>
    <td width=300 height=300><img src=""static/images/cards/back_of_black_stars.svg"" width=""175px"" height=""250px""></img></td>
    <td width=300 height=300><img src=""static/images/cards/back_of_black_stars.svg"" width=""175px"" height=""250px""></img></td>
  </tr>
  <tr height=200>
    <td width=300><img src=""static/images/keys/z.svg"" width=""35%"" height=""75%""></img></td>
    <td width=300><img src=""static/images/keys/m.svg"" width=""35%"" height=""75%""></img></td>
  </tr>
</table>
  ",90.0,1.0,,,,,,,,,,,,,,,,,,,,,,,,,,
232,0,,html-keyboard-response,232,452711,0.0-7.16-2.16,kxeii4z319,2022-09-19 17:33:39.885,5d8e154af2858200171fdb95,2,57,32,58,26,36,Female,,,"
  <table>
  <tr height=300>
    <td width=300 height=300><img src=""static/images/cards/3_of_black_stars.svg"" width=""175px"" height=""250px""></img></td>
    <td width=300 height=300><img src=""static/images/cards/back_of_black_stars.svg"" width=""175px"" height=""250px""></img></td>
  </tr>
  <tr height=200>
