,index,success,trial_type,trial_index,time_elapsed,internal_node_id,subject,date,prol_id,ctbl,sense_of_control_A,sense_of_control_B,sense_of_control_C,sense_of_control_D,age,gender,rt,url,stimulus,key_press,npress,is_data_trial,phase,trial,deck1,deck2,col1,col2,sym1,sym2,deck_l,deck_r,chosen_deck,chosen_col,chosen_sym,deck_rt,choose_choice,mutual_info,hidden_key,chosen_card,card_rt,player_num,win_card,outcome,mock_rating,response,responses
0,0,1.0,fullscreen,0,24072,0.0-0.0,4emcdige0g1,2022-09-16 18:27:43.642,6111ad7c064a7c16eeb2fb77,1,60,17,30,10,21,Female,,,,,,,,,,,,,,,,,,,,,,,,,,,,,,,
1,0,,external-html,1,26976,0.0-1.0,4emcdige0g1,2022-09-16 18:27:43.642,6111ad7c064a7c16eeb2fb77,1,60,17,30,10,21,Female,2795.1000000238,static/js/sub/consent.html,,,,,,,,,,,,,,,,,,,,,,,,,,,,,
2,0,,call-function,2,26981,0.0-2.0,4emcdige0g1,2022-09-16 18:27:43.642,6111ad7c064a7c16eeb2fb77,1,60,17,30,10,21,Female,,,,,,,,,,,,,,,,,,,,,,,,,,,,,,,
3,0,,image-keyboard-response,3,33288,0.0-3.0-0.0,4emcdige0g1,2022-09-16 18:27:43.642,6111ad7c064a7c16eeb2fb77,1,60,17,30,10,21,Female,6305.5,,static/images/instructions_CB_1/Slide1.png,39.0,,,,,,,,,,,,,,,,,,,,,,,,,,,
4,0,,image-keyboard-response,4,35112,0.0-3.1-0.1,4emcdige0g1,2022-09-16 18:27:43.642,6111ad7c064a7c16eeb2fb77,1,60,17,30,10,21,Female,1822.7000000477,,static/images/instructions_CB_1/Slide2.png,37.0,,,,,,,,,,,,,,,,,,,,,,,,,,,
5,0,,image-keyboard-response,5,35508,0.0-3.2-0.2,4emcdige0g1,2022-09-16 18:27:43.642,6111ad7c064a7c16eeb2fb77,1,60,17,30,10,21,Female,395.6999999285,,static/images/instructions_CB_1/Slide1.png,39.0,,,,,,,,,,,,,,,,,,,,,,,,,,,
6,0,,image-keyboard-response,6,41150,0.0-3.3-0.3,4emcdige0g1,2022-09-16 18:27:43.642,6111ad7c064a7c16eeb2fb77,1,60,17,30,10,21,Female,5640.6000000238,,static/images/instructions_CB_1/Slide2.png,39.0,,,,,,,,,,,,,,,,,,,,,,,,,,,
7,0,,image-keyboard-response,7,45099,0.0-3.4-0.4,4emcdige0g1,2022-09-16 18:27:43.642,6111ad7c064a7c16eeb2fb77,1,60,17,30,10,21,Female,3949.0999999046,,static/images/instructions_CB_1/Slide3.png,39.0,,,,,,,,,,,,,,,,,,,,,,,,,,,
8,0,,image-keyboard-response,8,49440,0.0-3.5-0.5,4emcdige0g1,2022-09-16 18:27:43.642,6111ad7c064a7c16eeb2fb77,1,60,17,30,10,21,Female,4340.1000000238,,static/images/instructions_CB_1/Slide4.png,39.0,,,,,,,,,,,,,,,,,,,,,,,,,,,
9,0,,image-keyboard-response,9,55101,0.0-3.6-0.6,4emcdige0g1,2022-09-16 18:27:43.642,6111ad7c064a7c16eeb2fb77,1,60,17,30,10,21,Female,5660.1000000238,,static/images/instructions_CB_1/Slide5.png,39.0,,,,,,,,,,,,,,,,,,,,,,,,,,,
10,0,,image-keyboard-response,10,56629,0.0-3.7-0.7,4emcdige0g1,2022-09-16 18:27:43.642,6111ad7c064a7c16eeb2fb77,1,60,17,30,10,21,Female,1527.8999999762,,static/images/instructions_CB_1/Slide6.png,39.0,,,,,,,,,,,,,,,,,,,,,,,,,,,
11,0,,image-keyboard-response,11,60574,0.0-3.8-0.8,4emcdige0g1,2022-09-16 18:27:43.642,6111ad7c064a7c16eeb2fb77,1,60,17,30,10,21,Female,3944.5999999046,,static/images/instructions_CB_1/Slide7.png,39.0,,,,,,,,,,,,,,,,,,,,,,,,,,,
12,0,,image-keyboard-response,12,72480,0.0-3.9-0.9,4emcdige0g1,2022-09-16 18:27:43.642,6111ad7c064a7c16eeb2fb77,1,60,17,30,10,21,Female,11904.8000000715,,static/images/instructions_CB_1/Slide8.png,39.0,,,,,,,,,,,,,,,,,,,,,,,,,,,
13,0,,image-keyboard-response,13,79191,0.0-3.10-0.10,4emcdige0g1,2022-09-16 18:27:43.642,6111ad7c064a7c16eeb2fb77,1,60,17,30,10,21,Female,6710.6000000238,,static/images/instructions_CB_1/Slide9.png,39.0,,,,,,,,,,,,,,,,,,,,,,,,,,,
14,0,,image-keyboard-response,14,91766,0.0-3.11-0.11,4emcdige0g1,2022-09-16 18:27:43.642,6111ad7c064a7c16eeb2fb77,1,60,17,30,10,21,Female,12574.6000000238,,static/images/instructions_CB_1/Slide10.png,39.0,,,,,,,,,,,,,,,,,,,,,,,,,,,
15,0,,image-keyboard-response,15,98363,0.0-3.12-0.12,4emcdige0g1,2022-09-16 18:27:43.642,6111ad7c064a7c16eeb2fb77,1,60,17,30,10,21,Female,6596.5999999046,,static/images/instructions_CB_1/Slide11.png,39.0,,,,,,,,,,,,,,,,,,,,,,,,,,,
16,0,,image-keyboard-response,16,113992,0.0-3.13-0.13,4emcdige0g1,2022-09-16 18:27:43.642,6111ad7c064a7c16eeb2fb77,1,60,17,30,10,21,Female,15628.2000000477,,static/images/instructions_CB_1/Slide12.png,39.0,,,,,,,,,,,,,,,,,,,,,,,,,,,
17,0,,image-keyboard-response,17,129398,0.0-3.14-0.14,4emcdige0g1,2022-09-16 18:27:43.642,6111ad7c064a7c16eeb2fb77,1,60,17,30,10,21,Female,15405.5,,static/images/instructions_CB_1/Slide13.png,39.0,,,,,,,,,,,,,,,,,,,,,,,,,,,
18,0,,image-keyboard-response,18,135226,0.0-3.15-0.15,4emcdige0g1,2022-09-16 18:27:43.642,6111ad7c064a7c16eeb2fb77,1,60,17,30,10,21,Female,5827.6999999285,,static/images/instructions_CB_1/Slide14.png,39.0,,,,,,,,,,,,,,,,,,,,,,,,,,,
19,0,,image-keyboard-response,19,142348,0.0-3.16-0.16,4emcdige0g1,2022-09-16 18:27:43.642,6111ad7c064a7c16eeb2fb77,1,60,17,30,10,21,Female,7120.7000000477,,static/images/instructions_CB_1/Slide15.png,39.0,,,,,,,,,,,,,,,,,,,,,,,,,,,
20,0,,image-keyboard-response,20,143441,0.0-3.17-0.17,4emcdige0g1,2022-09-16 18:27:43.642,6111ad7c064a7c16eeb2fb77,1,60,17,30,10,21,Female,1093.0,,static/images/instructions_CB_1/Slide16.png,37.0,,,,,,,,,,,,,,,,,,,,,,,,,,,
21,0,,image-keyboard-response,21,143590,0.0-3.18-0.18,4emcdige0g1,2022-09-16 18:27:43.642,6111ad7c064a7c16eeb2fb77,1,60,17,30,10,21,Female,147.8000000715,,static/images/instructions_CB_1/Slide15.png,37.0,,,,,,,,,,,,,,,,,,,,,,,,,,,
22,0,,image-keyboard-response,22,144217,0.0-3.19-0.19,4emcdige0g1,2022-09-16 18:27:43.642,6111ad7c064a7c16eeb2fb77,1,60,17,30,10,21,Female,626.3999999762,,static/images/instructions_CB_1/Slide14.png,37.0,,,,,,,,,,,,,,,,,,,,,,,,,,,
23,0,,image-keyboard-response,23,165399,0.0-3.20-0.20,4emcdige0g1,2022-09-16 18:27:43.642,6111ad7c064a7c16eeb2fb77,1,60,17,30,10,21,Female,21182.2999999523,,static/images/instructions_CB_1/Slide13.png,39.0,,,,,,,,,,,,,,,,,,,,,,,,,,,
24,0,,image-keyboard-response,24,178941,0.0-3.21-0.21,4emcdige0g1,2022-09-16 18:27:43.642,6111ad7c064a7c16eeb2fb77,1,60,17,30,10,21,Female,13540.8999999762,,static/images/instructions_CB_1/Slide14.png,39.0,,,,,,,,,,,,,,,,,,,,,,,,,,,
25,0,,image-keyboard-response,25,194040,0.0-3.22-0.22,4emcdige0g1,2022-09-16 18:27:43.642,6111ad7c064a7c16eeb2fb77,1,60,17,30,10,21,Female,15098.5,,static/images/instructions_CB_1/Slide15.png,39.0,,,,,,,,,,,,,,,,,,,,,,,,,,,
26,0,,image-keyboard-response,26,211488,0.0-3.23-0.23,4emcdige0g1,2022-09-16 18:27:43.642,6111ad7c064a7c16eeb2fb77,1,60,17,30,10,21,Female,17448.0,,static/images/instructions_CB_1/Slide16.png,39.0,,,,,,,,,,,,,,,,,,,,,,,,,,,
27,0,,image-keyboard-response,27,222304,0.0-3.24-0.24,4emcdige0g1,2022-09-16 18:27:43.642,6111ad7c064a7c16eeb2fb77,1,60,17,30,10,21,Female,10815.5999999046,,static/images/instructions_CB_1/Slide17.png,39.0,,,,,,,,,,,,,,,,,,,,,,,,,,,
28,0,,image-keyboard-response,28,236328,0.0-3.25-0.25,4emcdige0g1,2022-09-16 18:27:43.642,6111ad7c064a7c16eeb2fb77,1,60,17,30,10,21,Female,14023.1000000238,,static/images/instructions_CB_1/Slide18.png,39.0,,,,,,,,,,,,,,,,,,,,,,,,,,,
29,0,,image-keyboard-response,29,245976,0.0-3.26-0.26,4emcdige0g1,2022-09-16 18:27:43.642,6111ad7c064a7c16eeb2fb77,1,60,17,30,10,21,Female,9647.2000000477,,static/images/instructions_CB_1/Slide19.png,39.0,,,,,,,,,,,,,,,,,,,,,,,,,,,
30,0,,html-keyboard-response,30,247482,0.0-4.0-0.0,4emcdige0g1,2022-09-16 18:27:43.642,6111ad7c064a7c16eeb2fb77,1,60,17,30,10,21,Female,,,"<img src=""static/images/cards/stack_of_red_moons.svg"" width=""175px"" height=""250px""></img>",,,,,,,,,,,,,,,,,,,,,,,,,,,,
31,0,,html-keyboard-response,31,249303,0.0-4.0-1.0,4emcdige0g1,2022-09-16 18:27:43.642,6111ad7c064a7c16eeb2fb77,1,60,17,30,10,21,Female,1319.2000000477,,"
  <table>
  <tr height=300>
    <td width=300 height=300><img src=""static/images/cards/back_of_red_moons.svg"" width=""175px"" height=""250px""></img></td>
    <td width=300 height=300><img src=""static/images/cards/back_of_red_moons.svg"" width=""175px"" height=""250px""></img></td>
  </tr>
  <tr height=200>
    <td width=300><img src=""static/images/keys/z.svg"" width=""35%"" height=""75%""></img></td>
    <td width=300><img src=""static/images/keys/m.svg"" width=""35%"" height=""75%""></img></td>
  </tr>
</table>
  ",77.0,1.0,,,,,,,,,,,,,,,,,,,,,,,,,,
32,0,,html-keyboard-response,32,250809,0.0-4.0-2.0,4emcdige0g1,2022-09-16 18:27:43.642,6111ad7c064a7c16eeb2fb77,1,60,17,30,10,21,Female,,,"
  <table>
  <tr height=300>
    <td width=300 height=300><img src=""static/images/cards/back_of_red_moons.svg"" width=""175px"" height=""250px""></img></td>
    <td width=300 height=300><img src=""static/images/cards/6_of_red_moons.svg"" width=""175px"" height=""250px""></img></td>
  </tr>
  <tr height=200>
    <td width=300><img src=""static/images/keys/z.svg"" width=""35%"" height=""75%""></img></td>
    <td width=300><img src=""static/images/keys/m.svg"" width=""35%"" height=""75%""></img></td>
  </tr>
</table>
  ",,,,,,,,,,,,,,,,,,,,,,,,,,,,
33,0,,html-keyboard-response,33,252317,0.0-4.0-3.0,4emcdige0g1,2022-09-16 18:27:43.642,6111ad7c064a7c16eeb2fb77,1,60,17,30,10,21,Female,,,"<p style=""font-size:50px"">You win!
+10 points this round!</p>",,,,,,,,,,,,,,,,,,,,,,,,,,,,
34,0,,html-keyboard-response,34,252828,0.0-4.0-4.0,4emcdige0g1,2022-09-16 18:27:43.642,6111ad7c064a7c16eeb2fb77,1,60,17,30,10,21,Female,,,,,,1.0,learning,0.0,A,,red,,moons,,,,A,red,moons,,1.0,1.0,NA,right,1319.2000000477,6.0,1.0,1.0,,,
35,0,,html-keyboard-response,35,254329,0.0-4.1-0.1,4emcdige0g1,2022-09-16 18:27:43.642,6111ad7c064a7c16eeb2fb77,1,60,17,30,10,21,Female,,,"<img src=""static/images/cards/stack_of_black_moons.svg"" width=""175px"" height=""250px""></img>",,,,,,,,,,,,,,,,,,,,,,,,,,,,
36,0,,html-keyboard-response,36,255520,0.0-4.1-1.1,4emcdige0g1,2022-09-16 18:27:43.642,6111ad7c064a7c16eeb2fb77,1,60,17,30,10,21,Female,686.3000000715,,"
  <table>
  <tr height=300>
    <td width=300 height=300><img src=""static/images/cards/back_of_black_moons.svg"" width=""175px"" height=""250px""></img></td>
    <td width=300 height=300><img src=""static/images/cards/back_of_black_moons.svg"" width=""175px"" height=""250px""></img></td>
  </tr>
  <tr height=200>
    <td width=300><img src=""static/images/keys/z.svg"" width=""35%"" height=""75%""></img></td>
    <td width=300></td>
  </tr>
</table>
  ",90.0,1.0,,,,,,,,,,,,,,,,,,,,,,,,,,
37,0,,html-keyboard-response,37,257025,0.0-4.1-2.1,4emcdige0g1,2022-09-16 18:27:43.642,6111ad7c064a7c16eeb2fb77,1,60,17,30,10,21,Female,,,"
  <table>
  <tr height=300>
    <td width=300 height=300><img src=""static/images/cards/3_of_black_moons.svg"" width=""175px"" height=""250px""></img></td>
    <td width=300 height=300><img src=""static/images/cards/back_of_black_moons.svg"" width=""175px"" height=""250px""></img></td>
  </tr>
  <tr height=200>
    <td width=300><img src=""static/images/keys/z.svg"" width=""35%"" height=""75%""></img></td>
    <td width=300></td>
  </tr>
</table>
  ",,,,,,,,,,,,,,,,,,,,,,,,,,,,
38,0,,html-keyboard-response,38,258535,0.0-4.1-3.1,4emcdige0g1,2022-09-16 18:27:43.642,6111ad7c064a7c16eeb2fb77,1,60,17,30,10,21,Female,,,"<p style=""font-size:50px"">You Lose!
No points this round.</p>",,,,,,,,,,,,,,,,,,,,,,,,,,,,
39,0,,html-keyboard-response,39,259045,0.0-4.1-4.1,4emcdige0g1,2022-09-16 18:27:43.642,6111ad7c064a7c16eeb2fb77,1,60,17,30,10,21,Female,,,,,,1.0,learning,1.0,B,,black,,moons,,,,B,black,moons,,0.0,1.0,1,left,686.3000000715,3.0,0.0,0.0,,,
40,0,,html-keyboard-response,40,260546,0.0-4.2-0.2,4emcdige0g1,2022-09-16 18:27:43.642,6111ad7c064a7c16eeb2fb77,1,60,17,30,10,21,Female,,,"<img src=""static/images/cards/stack_of_red_stars.svg"" width=""175px"" height=""250px""></img>",,,,,,,,,,,,,,,,,,,,,,,,,,,,
41,0,,html-keyboard-response,41,262080,0.0-4.2-1.2,4emcdige0g1,2022-09-16 18:27:43.642,6111ad7c064a7c16eeb2fb77,1,60,17,30,10,21,Female,1027.3000000715,,"
  <table>
  <tr height=300>
    <td width=300 height=300><img src=""static/images/cards/back_of_red_stars.svg"" width=""175px"" height=""250px""></img></td>
    <td width=300 height=300><img src=""static/images/cards/back_of_red_stars.svg"" width=""175px"" height=""250px""></img></td>
  </tr>
  <tr height=200>
    <td width=300><img src=""static/images/keys/z.svg"" width=""35%"" height=""75%""></img></td>
    <td width=300><img src=""static/images/keys/m.svg"" width=""35%"" height=""75%""></img></td>
  </tr>
</table>
  ",90.0,1.0,,,,,,,,,,,,,,,,,,,,,,,,,,
42,0,,html-keyboard-response,42,263586,0.0-4.2-2.2,4emcdige0g1,2022-09-16 18:27:43.642,6111ad7c064a7c16eeb2fb77,1,60,17,30,10,21,Female,,,"
  <table>
  <tr height=300>
    <td width=300 height=300><img src=""static/images/cards/3_of_red_stars.svg"" width=""175px"" height=""250px""></img></td>
    <td width=300 height=300><img src=""static/images/cards/back_of_red_stars.svg"" width=""175px"" height=""250px""></img></td>
  </tr>
  <tr height=200>
    <td width=300><img src=""static/images/keys/z.svg"" width=""35%"" height=""75%""></img></td>
    <td width=300><img src=""static/images/keys/m.svg"" width=""35%"" height=""75%""></img></td>
  </tr>
</table>
  ",,,,,,,,,,,,,,,,,,,,,,,,,,,,
43,0,,html-keyboard-response,43,265093,0.0-4.2-3.2,4emcdige0g1,2022-09-16 18:27:43.642,6111ad7c064a7c16eeb2fb77,1,60,17,30,10,21,Female,,,"<p style=""font-size:50px"">You win!
+10 points this round!</p>",,,,,,,,,,,,,,,,,,,,,,,,,,,,
44,0,,html-keyboard-response,44,265604,0.0-4.2-4.2,4emcdige0g1,2022-09-16 18:27:43.642,6111ad7c064a7c16eeb2fb77,1,60,17,30,10,21,Female,,,,,,1.0,learning,2.0,C,,red,,stars,,,,C,red,stars,,1.0,0.0,NA,left,1027.3000000715,3.0,0.0,1.0,,,
45,0,,html-keyboard-response,45,267105,0.0-4.3-0.3,4emcdige0g1,2022-09-16 18:27:43.642,6111ad7c064a7c16eeb2fb77,1,60,17,30,10,21,Female,,,"<img src=""static/images/cards/stack_of_black_stars.svg"" width=""175px"" height=""250px""></img>",,,,,,,,,,,,,,,,,,,,,,,,,,,,
46,0,,html-keyboard-response,46,268311,0.0-4.3-1.3,4emcdige0g1,2022-09-16 18:27:43.642,6111ad7c064a7c16eeb2fb77,1,60,17,30,10,21,Female,699.6999999285,,"
  <table>
  <tr height=300>
    <td width=300 height=300><img src=""static/images/cards/back_of_black_stars.svg"" width=""175px"" height=""250px""></img></td>
    <td width=300 height=300><img src=""static/images/cards/back_of_black_stars.svg"" width=""175px"" height=""250px""></img></td>
  </tr>
  <tr height=200>
    <td width=300></td>
    <td width=300><img src=""static/images/keys/m.svg"" width=""35%"" height=""75%""></img></td>
  </tr>
</table>
  ",77.0,2.0,,,,,,,,,,,,,,,,,,,,,,,,,,
47,0,,html-keyboard-response,47,269814,0.0-4.3-2.3,4emcdige0g1,2022-09-16 18:27:43.642,6111ad7c064a7c16eeb2fb77,1,60,17,30,10,21,Female,,,"
  <table>
  <tr height=300>
    <td width=300 height=300><img src=""static/images/cards/back_of_black_stars.svg"" width=""175px"" height=""250px""></img></td>
    <td width=300 height=300><img src=""static/images/cards/4_of_black_stars.svg"" width=""175px"" height=""250px""></img></td>
  </tr>
  <tr height=200>
    <td width=300></td>
    <td width=300><img src=""static/images/keys/m.svg"" width=""35%"" height=""75%""></img></td>
  </tr>
</table>
  ",,,,,,,,,,,,,,,,,,,,,,,,,,,,
48,0,,html-keyboard-response,48,271321,0.0-4.3-3.3,4emcdige0g1,2022-09-16 18:27:43.642,6111ad7c064a7c16eeb2fb77,1,60,17,30,10,21,Female,,,"<p style=""font-size:50px"">You win!
+10 points this round!</p>",,,,,,,,,,,,,,,,,,,,,,,,,,,,
49,0,,html-keyboard-response,49,271831,0.0-4.3-4.3,4emcdige0g1,2022-09-16 18:27:43.642,6111ad7c064a7c16eeb2fb77,1,60,17,30,10,21,Female,,,,,,1.0,learning,3.0,D,,black,,stars,,,,D,black,stars,,0.0,0.0,0,right,699.6999999285,4.0,0.0,1.0,,,
50,0,,html-keyboard-response,50,273332,0.0-4.4-0.4,4emcdige0g1,2022-09-16 18:27:43.642,6111ad7c064a7c16eeb2fb77,1,60,17,30,10,21,Female,,,"<img src=""static/images/cards/stack_of_red_bolts.svg"" width=""175px"" height=""250px""></img>",,,,,,,,,,,,,,,,,,,,,,,,,,,,
51,0,,html-keyboard-response,51,274394,0.0-4.4-1.4,4emcdige0g1,2022-09-16 18:27:43.642,6111ad7c064a7c16eeb2fb77,1,60,17,30,10,21,Female,556.5,,"
  <table>
  <tr height=300>
    <td width=300 height=300><img src=""static/images/cards/back_of_red_bolts.svg"" width=""175px"" height=""250px""></img></td>
    <td width=300 height=300><img src=""static/images/cards/back_of_red_bolts.svg"" width=""175px"" height=""250px""></img></td>
  </tr>
  <tr height=200>
    <td width=300><img src=""static/images/keys/z.svg"" width=""35%"" height=""75%""></img></td>
    <td width=300><img src=""static/images/keys/m.svg"" width=""35%"" height=""75%""></img></td>
  </tr>
</table>
  ",77.0,1.0,,,,,,,,,,,,,,,,,,,,,,,,,,
52,0,,html-keyboard-response,52,275898,0.0-4.4-2.4,4emcdige0g1,2022-09-16 18:27:43.642,6111ad7c064a7c16eeb2fb77,1,60,17,30,10,21,Female,,,"
  <table>
  <tr height=300>
    <td width=300 height=300><img src=""static/images/cards/back_of_red_bolts.svg"" width=""175px"" height=""250px""></img></td>
    <td width=300 height=300><img src=""static/images/cards/3_of_red_bolts.svg"" width=""175px"" height=""250px""></img></td>
  </tr>
  <tr height=200>
    <td width=300><img src=""static/images/keys/z.svg"" width=""35%"" height=""75%""></img></td>
    <td width=300><img src=""static/images/keys/m.svg"" width=""35%"" height=""75%""></img></td>
  </tr>
</table>
  ",,,,,,,,,,,,,,,,,,,,,,,,,,,,
53,0,,html-keyboard-response,53,277406,0.0-4.4-3.4,4emcdige0g1,2022-09-16 18:27:43.642,6111ad7c064a7c16eeb2fb77,1,60,17,30,10,21,Female,,,"<p style=""font-size:50px"">You win!
+10 points this round!</p>",,,,,,,,,,,,,,,,,,,,,,,,,,,,
54,0,,html-keyboard-response,54,277916,0.0-4.4-4.4,4emcdige0g1,2022-09-16 18:27:43.642,6111ad7c064a7c16eeb2fb77,1,60,17,30,10,21,Female,,,,,,1.0,learning,4.0,Xc,,red,,bolts,,,,Xc,red,bolts,,1.0,0.0,NA,right,556.5,3.0,0.0,1.0,,,
55,0,,html-keyboard-response,55,279417,0.0-4.5-0.5,4emcdige0g1,2022-09-16 18:27:43.642,6111ad7c064a7c16eeb2fb77,1,60,17,30,10,21,Female,,,"<img src=""static/images/cards/stack_of_black_bolts.svg"" width=""175px"" height=""250px""></img>",,,,,,,,,,,,,,,,,,,,,,,,,,,,
56,0,,html-keyboard-response,56,280232,0.0-4.5-1.5,4emcdige0g1,2022-09-16 18:27:43.642,6111ad7c064a7c16eeb2fb77,1,60,17,30,10,21,Female,308.7999999523,,"
  <table>
  <tr height=300>
    <td width=300 height=300><img src=""static/images/cards/back_of_black_bolts.svg"" width=""175px"" height=""250px""></img></td>
    <td width=300 height=300><img src=""static/images/cards/back_of_black_bolts.svg"" width=""175px"" height=""250px""></img></td>
  </tr>
  <tr height=200>
    <td width=300></td>
    <td width=300><img src=""static/images/keys/m.svg"" width=""35%"" height=""75%""></img></td>
  </tr>
</table>
  ",77.0,1.0,,,,,,,,,,,,,,,,,,,,,,,,,,
57,0,,html-keyboard-response,57,281738,0.0-4.5-2.5,4emcdige0g1,2022-09-16 18:27:43.642,6111ad7c064a7c16eeb2fb77,1,60,17,30,10,21,Female,,,"
  <table>
  <tr height=300>
    <td width=300 height=300><img src=""static/images/cards/back_of_black_bolts.svg"" width=""175px"" height=""250px""></img></td>
    <td width=300 height=300><img src=""static/images/cards/9_of_black_bolts.svg"" width=""175px"" height=""250px""></img></td>
  </tr>
  <tr height=200>
    <td width=300></td>
    <td width=300><img src=""static/images/keys/m.svg"" width=""35%"" height=""75%""></img></td>
  </tr>
</table>
  ",,,,,,,,,,,,,,,,,,,,,,,,,,,,
58,0,,html-keyboard-response,58,283249,0.0-4.5-3.5,4emcdige0g1,2022-09-16 18:27:43.642,6111ad7c064a7c16eeb2fb77,1,60,17,30,10,21,Female,,,"<p style=""font-size:50px"">You win!
+10 points this round!</p>",,,,,,,,,,,,,,,,,,,,,,,,,,,,
59,0,,html-keyboard-response,59,283758,0.0-4.5-4.5,4emcdige0g1,2022-09-16 18:27:43.642,6111ad7c064a7c16eeb2fb77,1,60,17,30,10,21,Female,,,,,,1.0,learning,5.0,Xnc,,black,,bolts,,,,Xnc,black,bolts,,0.0,0.0,0,right,308.7999999523,9.0,1.0,1.0,,,
60,0,,html-keyboard-response,60,285260,0.0-4.6-0.6,4emcdige0g1,2022-09-16 18:27:43.642,6111ad7c064a7c16eeb2fb77,1,60,17,30,10,21,Female,,,"<img src=""static/images/cards/stack_of_red_moons.svg"" width=""175px"" height=""250px""></img>",,,,,,,,,,,,,,,,,,,,,,,,,,,,
61,0,,html-keyboard-response,61,286111,0.0-4.6-1.6,4emcdige0g1,2022-09-16 18:27:43.642,6111ad7c064a7c16eeb2fb77,1,60,17,30,10,21,Female,347.8999999762,,"
  <table>
  <tr height=300>
    <td width=300 height=300><img src=""static/images/cards/back_of_red_moons.svg"" width=""175px"" height=""250px""></img></td>
    <td width=300 height=300><img src=""static/images/cards/back_of_red_moons.svg"" width=""175px"" height=""250px""></img></td>
  </tr>
  <tr height=200>
    <td width=300><img src=""static/images/keys/z.svg"" width=""35%"" height=""75%""></img></td>
    <td width=300><img src=""static/images/keys/m.svg"" width=""35%"" height=""75%""></img></td>
  </tr>
</table>
  ",90.0,1.0,,,,,,,,,,,,,,,,,,,,,,,,,,
62,0,,html-keyboard-response,62,287616,0.0-4.6-2.6,4emcdige0g1,2022-09-16 18:27:43.642,6111ad7c064a7c16eeb2fb77,1,60,17,30,10,21,Female,,,"
  <table>
  <tr height=300>
    <td width=300 height=300><img src=""static/images/cards/6_of_red_moons.svg"" width=""175px"" height=""250px""></img></td>
    <td width=300 height=300><img src=""static/images/cards/back_of_red_moons.svg"" width=""175px"" height=""250px""></img></td>
  </tr>
  <tr height=200>
    <td width=300><img src=""static/images/keys/z.svg"" width=""35%"" height=""75%""></img></td>
    <td width=300><img src=""static/images/keys/m.svg"" width=""35%"" height=""75%""></img></td>
  </tr>
</table>
  ",,,,,,,,,,,,,,,,,,,,,,,,,,,,
63,0,,html-keyboard-response,63,289123,0.0-4.6-3.6,4emcdige0g1,2022-09-16 18:27:43.642,6111ad7c064a7c16eeb2fb77,1,60,17,30,10,21,Female,,,"<p style=""font-size:50px"">You win!
+10 points this round!</p>",,,,,,,,,,,,,,,,,,,,,,,,,,,,
64,0,,html-keyboard-response,64,289633,0.0-4.6-4.6,4emcdige0g1,2022-09-16 18:27:43.642,6111ad7c064a7c16eeb2fb77,1,60,17,30,10,21,Female,,,,,,1.0,learning,6.0,A,,red,,moons,,,,A,red,moons,,1.0,1.0,NA,left,347.8999999762,6.0,1.0,1.0,,,
65,0,,html-keyboard-response,65,291135,0.0-4.7-0.7,4emcdige0g1,2022-09-16 18:27:43.642,6111ad7c064a7c16eeb2fb77,1,60,17,30,10,21,Female,,,"<img src=""static/images/cards/stack_of_black_moons.svg"" width=""175px"" height=""250px""></img>",,,,,,,,,,,,,,,,,,,,,,,,,,,,
66,0,,html-keyboard-response,66,291915,0.0-4.7-1.7,4emcdige0g1,2022-09-16 18:27:43.642,6111ad7c064a7c16eeb2fb77,1,60,17,30,10,21,Female,273.1000000238,,"
  <table>
  <tr height=300>
    <td width=300 height=300><img src=""static/images/cards/back_of_black_moons.svg"" width=""175px"" height=""250px""></img></td>
    <td width=300 height=300><img src=""static/images/cards/back_of_black_moons.svg"" width=""175px"" height=""250px""></img></td>
  </tr>
  <tr height=200>
    <td width=300></td>
    <td width=300><img src=""static/images/keys/m.svg"" width=""35%"" height=""75%""></img></td>
  </tr>
</table>
  ",77.0,1.0,,,,,,,,,,,,,,,,,,,,,,,,,,
67,0,,html-keyboard-response,67,293421,0.0-4.7-2.7,4emcdige0g1,2022-09-16 18:27:43.642,6111ad7c064a7c16eeb2fb77,1,60,17,30,10,21,Female,,,"
  <table>
  <tr height=300>
    <td width=300 height=300><img src=""static/images/cards/back_of_black_moons.svg"" width=""175px"" height=""250px""></img></td>
    <td width=300 height=300><img src=""static/images/cards/2_of_black_moons.svg"" width=""175px"" height=""250px""></img></td>
  </tr>
  <tr height=200>
    <td width=300></td>
    <td width=300><img src=""static/images/keys/m.svg"" width=""35%"" height=""75%""></img></td>
  </tr>
</table>
  ",,,,,,,,,,,,,,,,,,,,,,,,,,,,
68,0,,html-keyboard-response,68,294929,0.0-4.7-3.7,4emcdige0g1,2022-09-16 18:27:43.642,6111ad7c064a7c16eeb2fb77,1,60,17,30,10,21,Female,,,"<p style=""font-size:50px"">You Lose!
No points this round.</p>",,,,,,,,,,,,,,,,,,,,,,,,,,,,
69,0,,html-keyboard-response,69,295439,0.0-4.7-4.7,4emcdige0g1,2022-09-16 18:27:43.642,6111ad7c064a7c16eeb2fb77,1,60,17,30,10,21,Female,,,,,,1.0,learning,7.0,B,,black,,moons,,,,B,black,moons,,0.0,1.0,0,right,273.1000000238,2.0,0.0,0.0,,,
70,0,,html-keyboard-response,70,296941,0.0-4.8-0.8,4emcdige0g1,2022-09-16 18:27:43.642,6111ad7c064a7c16eeb2fb77,1,60,17,30,10,21,Female,,,"<img src=""static/images/cards/stack_of_red_stars.svg"" width=""175px"" height=""250px""></img>",,,,,,,,,,,,,,,,,,,,,,,,,,,,
71,0,,html-keyboard-response,71,297839,0.0-4.8-1.8,4emcdige0g1,2022-09-16 18:27:43.642,6111ad7c064a7c16eeb2fb77,1,60,17,30,10,21,Female,393.5,,"
  <table>
  <tr height=300>
    <td width=300 height=300><img src=""static/images/cards/back_of_red_stars.svg"" width=""175px"" height=""250px""></img></td>
    <td width=300 height=300><img src=""static/images/cards/back_of_red_stars.svg"" width=""175px"" height=""250px""></img></td>
  </tr>
  <tr height=200>
    <td width=300><img src=""static/images/keys/z.svg"" width=""35%"" height=""75%""></img></td>
    <td width=300><img src=""static/images/keys/m.svg"" width=""35%"" height=""75%""></img></td>
  </tr>
</table>
  ",77.0,1.0,,,,,,,,,,,,,,,,,,,,,,,,,,
72,0,,html-keyboard-response,72,299345,0.0-4.8-2.8,4emcdige0g1,2022-09-16 18:27:43.642,6111ad7c064a7c16eeb2fb77,1,60,17,30,10,21,Female,,,"
  <table>
  <tr height=300>
    <td width=300 height=300><img src=""static/images/cards/back_of_red_stars.svg"" width=""175px"" height=""250px""></img></td>
    <td width=300 height=300><img src=""static/images/cards/7_of_red_stars.svg"" width=""175px"" height=""250px""></img></td>
  </tr>
  <tr height=200>
    <td width=300><img src=""static/images/keys/z.svg"" width=""35%"" height=""75%""></img></td>
    <td width=300><img src=""static/images/keys/m.svg"" width=""35%"" height=""75%""></img></td>
  </tr>
</table>
  ",,,,,,,,,,,,,,,,,,,,,,,,,,,,
73,0,,html-keyboard-response,73,300853,0.0-4.8-3.8,4emcdige0g1,2022-09-16 18:27:43.642,6111ad7c064a7c16eeb2fb77,1,60,17,30,10,21,Female,,,"<p style=""font-size:50px"">You Lose!
No points this round.</p>",,,,,,,,,,,,,,,,,,,,,,,,,,,,
74,0,,html-keyboard-response,74,301363,0.0-4.8-4.8,4emcdige0g1,2022-09-16 18:27:43.642,6111ad7c064a7c16eeb2fb77,1,60,17,30,10,21,Female,,,,,,1.0,learning,8.0,C,,red,,stars,,,,C,red,stars,,1.0,0.0,NA,right,393.5,7.0,1.0,0.0,,,
75,0,,html-keyboard-response,75,302865,0.0-4.9-0.9,4emcdige0g1,2022-09-16 18:27:43.642,6111ad7c064a7c16eeb2fb77,1,60,17,30,10,21,Female,,,"<img src=""static/images/cards/stack_of_black_stars.svg"" width=""175px"" height=""250px""></img>",,,,,,,,,,,,,,,,,,,,,,,,,,,,
76,0,,html-keyboard-response,76,303651,0.0-4.9-1.9,4emcdige0g1,2022-09-16 18:27:43.642,6111ad7c064a7c16eeb2fb77,1,60,17,30,10,21,Female,280.1000000238,,"
  <table>
  <tr height=300>
    <td width=300 height=300><img src=""static/images/cards/back_of_black_stars.svg"" width=""175px"" height=""250px""></img></td>
    <td width=300 height=300><img src=""static/images/cards/back_of_black_stars.svg"" width=""175px"" height=""250px""></img></td>
  </tr>
  <tr height=200>
    <td width=300></td>
    <td width=300><img src=""static/images/keys/m.svg"" width=""35%"" height=""75%""></img></td>
  </tr>
</table>
  ",77.0,1.0,,,,,,,,,,,,,,,,,,,,,,,,,,
77,0,,html-keyboard-response,77,305155,0.0-4.9-2.9,4emcdige0g1,2022-09-16 18:27:43.642,6111ad7c064a7c16eeb2fb77,1,60,17,30,10,21,Female,,,"
  <table>
  <tr height=300>
    <td width=300 height=300><img src=""static/images/cards/back_of_black_stars.svg"" width=""175px"" height=""250px""></img></td>
    <td width=300 height=300><img src=""static/images/cards/7_of_black_stars.svg"" width=""175px"" height=""250px""></img></td>
  </tr>
  <tr height=200>
    <td width=300></td>
    <td width=300><img src=""static/images/keys/m.svg"" width=""35%"" height=""75%""></img></td>
  </tr>
</table>
  ",,,,,,,,,,,,,,,,,,,,,,,,,,,,
78,0,,html-keyboard-response,78,306662,0.0-4.9-3.9,4emcdige0g1,2022-09-16 18:27:43.642,6111ad7c064a7c16eeb2fb77,1,60,17,30,10,21,Female,,,"<p style=""font-size:50px"">You Lose!
No points this round.</p>",,,,,,,,,,,,,,,,,,,,,,,,,,,,
79,0,,html-keyboard-response,79,307169,0.0-4.9-4.9,4emcdige0g1,2022-09-16 18:27:43.642,6111ad7c064a7c16eeb2fb77,1,60,17,30,10,21,Female,,,,,,1.0,learning,9.0,D,,black,,stars,,,,D,black,stars,,0.0,0.0,0,right,280.1000000238,7.0,1.0,0.0,,,
80,0,,html-keyboard-response,80,308670,0.0-4.10-0.10,4emcdige0g1,2022-09-16 18:27:43.642,6111ad7c064a7c16eeb2fb77,1,60,17,30,10,21,Female,,,"<img src=""static/images/cards/stack_of_red_bolts.svg"" width=""175px"" height=""250px""></img>",,,,,,,,,,,,,,,,,,,,,,,,,,,,
81,0,,html-keyboard-response,81,309469,0.0-4.10-1.10,4emcdige0g1,2022-09-16 18:27:43.642,6111ad7c064a7c16eeb2fb77,1,60,17,30,10,21,Female,292.7999999523,,"
  <table>
  <tr height=300>
    <td width=300 height=300><img src=""static/images/cards/back_of_red_bolts.svg"" width=""175px"" height=""250px""></img></td>
    <td width=300 height=300><img src=""static/images/cards/back_of_red_bolts.svg"" width=""175px"" height=""250px""></img></td>
  </tr>
  <tr height=200>
    <td width=300><img src=""static/images/keys/z.svg"" width=""35%"" height=""75%""></img></td>
    <td width=300><img src=""static/images/keys/m.svg"" width=""35%"" height=""75%""></img></td>
  </tr>
</table>
  ",77.0,1.0,,,,,,,,,,,,,,,,,,,,,,,,,,
82,0,,html-keyboard-response,82,310973,0.0-4.10-2.10,4emcdige0g1,2022-09-16 18:27:43.642,6111ad7c064a7c16eeb2fb77,1,60,17,30,10,21,Female,,,"
  <table>
  <tr height=300>
    <td width=300 height=300><img src=""static/images/cards/back_of_red_bolts.svg"" width=""175px"" height=""250px""></img></td>
    <td width=300 height=300><img src=""static/images/cards/2_of_red_bolts.svg"" width=""175px"" height=""250px""></img></td>
  </tr>
  <tr height=200>
    <td width=300><img src=""static/images/keys/z.svg"" width=""35%"" height=""75%""></img></td>
    <td width=300><img src=""static/images/keys/m.svg"" width=""35%"" height=""75%""></img></td>
  </tr>
</table>
  ",,,,,,,,,,,,,,,,,,,,,,,,,,,,
83,0,,html-keyboard-response,83,312479,0.0-4.10-3.10,4emcdige0g1,2022-09-16 18:27:43.642,6111ad7c064a7c16eeb2fb77,1,60,17,30,10,21,Female,,,"<p style=""font-size:50px"">You win!
+10 points this round!</p>",,,,,,,,,,,,,,,,,,,,,,,,,,,,
84,0,,html-keyboard-response,84,312986,0.0-4.10-4.10,4emcdige0g1,2022-09-16 18:27:43.642,6111ad7c064a7c16eeb2fb77,1,60,17,30,10,21,Female,,,,,,1.0,learning,10.0,Xc,,red,,bolts,,,,Xc,red,bolts,,1.0,0.0,NA,right,292.7999999523,2.0,0.0,1.0,,,
85,0,,html-keyboard-response,85,314489,0.0-4.11-0.11,4emcdige0g1,2022-09-16 18:27:43.642,6111ad7c064a7c16eeb2fb77,1,60,17,30,10,21,Female,,,"<img src=""static/images/cards/stack_of_black_bolts.svg"" width=""175px"" height=""250px""></img>",,,,,,,,,,,,,,,,,,,,,,,,,,,,
86,0,,html-keyboard-response,86,315422,0.0-4.11-1.11,4emcdige0g1,2022-09-16 18:27:43.642,6111ad7c064a7c16eeb2fb77,1,60,17,30,10,21,Female,429.6999999285,,"
  <table>
  <tr height=300>
    <td width=300 height=300><img src=""static/images/cards/back_of_black_bolts.svg"" width=""175px"" height=""250px""></img></td>
    <td width=300 height=300><img src=""static/images/cards/back_of_black_bolts.svg"" width=""175px"" height=""250px""></img></td>
  </tr>
  <tr height=200>
    <td width=300><img src=""static/images/keys/z.svg"" width=""35%"" height=""75%""></img></td>
    <td width=300></td>
  </tr>
</table>
  ",90.0,1.0,,,,,,,,,,,,,,,,,,,,,,,,,,
87,0,,html-keyboard-response,87,316928,0.0-4.11-2.11,4emcdige0g1,2022-09-16 18:27:43.642,6111ad7c064a7c16eeb2fb77,1,60,17,30,10,21,Female,,,"
  <table>
  <tr height=300>
    <td width=300 height=300><img src=""static/images/cards/8_of_black_bolts.svg"" width=""175px"" height=""250px""></img></td>
    <td width=300 height=300><img src=""static/images/cards/back_of_black_bolts.svg"" width=""175px"" height=""250px""></img></td>
  </tr>
  <tr height=200>
    <td width=300><img src=""static/images/keys/z.svg"" width=""35%"" height=""75%""></img></td>
    <td width=300></td>
  </tr>
</table>
  ",,,,,,,,,,,,,,,,,,,,,,,,,,,,
88,0,,html-keyboard-response,88,318439,0.0-4.11-3.11,4emcdige0g1,2022-09-16 18:27:43.642,6111ad7c064a7c16eeb2fb77,1,60,17,30,10,21,Female,,,"<p style=""font-size:50px"">You win!
+10 points this round!</p>",,,,,,,,,,,,,,,,,,,,,,,,,,,,
89,0,,html-keyboard-response,89,318948,0.0-4.11-4.11,4emcdige0g1,2022-09-16 18:27:43.642,6111ad7c064a7c16eeb2fb77,1,60,17,30,10,21,Female,,,,,,1.0,learning,11.0,Xnc,,black,,bolts,,,,Xnc,black,bolts,,0.0,0.0,1,left,429.6999999285,8.0,1.0,1.0,,,
90,0,,html-keyboard-response,90,320450,0.0-4.12-0.12,4emcdige0g1,2022-09-16 18:27:43.642,6111ad7c064a7c16eeb2fb77,1,60,17,30,10,21,Female,,,"<img src=""static/images/cards/stack_of_red_moons.svg"" width=""175px"" height=""250px""></img>",,,,,,,,,,,,,,,,,,,,,,,,,,,,
91,0,,html-keyboard-response,91,321254,0.0-4.12-1.12,4emcdige0g1,2022-09-16 18:27:43.642,6111ad7c064a7c16eeb2fb77,1,60,17,30,10,21,Female,302.3999999762,,"
  <table>
  <tr height=300>
    <td width=300 height=300><img src=""static/images/cards/back_of_red_moons.svg"" width=""175px"" height=""250px""></img></td>
    <td width=300 height=300><img src=""static/images/cards/back_of_red_moons.svg"" width=""175px"" height=""250px""></img></td>
  </tr>
  <tr height=200>
    <td width=300><img src=""static/images/keys/z.svg"" width=""35%"" height=""75%""></img></td>
    <td width=300><img src=""static/images/keys/m.svg"" width=""35%"" height=""75%""></img></td>
  </tr>
</table>
  ",77.0,1.0,,,,,,,,,,,,,,,,,,,,,,,,,,
92,0,,html-keyboard-response,92,322756,0.0-4.12-2.12,4emcdige0g1,2022-09-16 18:27:43.642,6111ad7c064a7c16eeb2fb77,1,60,17,30,10,21,Female,,,"
  <table>
  <tr height=300>
    <td width=300 height=300><img src=""static/images/cards/back_of_red_moons.svg"" width=""175px"" height=""250px""></img></td>
    <td width=300 height=300><img src=""static/images/cards/2_of_red_moons.svg"" width=""175px"" height=""250px""></img></td>
  </tr>
  <tr height=200>
    <td width=300><img src=""static/images/keys/z.svg"" width=""35%"" height=""75%""></img></td>
    <td width=300><img src=""static/images/keys/m.svg"" width=""35%"" height=""75%""></img></td>
  </tr>
</table>
  ",,,,,,,,,,,,,,,,,,,,,,,,,,,,
93,0,,html-keyboard-response,93,324267,0.0-4.12-3.12,4emcdige0g1,2022-09-16 18:27:43.642,6111ad7c064a7c16eeb2fb77,1,60,17,30,10,21,Female,,,"<p style=""font-size:50px"">You Lose!
No points this round.</p>",,,,,,,,,,,,,,,,,,,,,,,,,,,,
94,0,,html-keyboard-response,94,324774,0.0-4.12-4.12,4emcdige0g1,2022-09-16 18:27:43.642,6111ad7c064a7c16eeb2fb77,1,60,17,30,10,21,Female,,,,,,1.0,learning,12.0,A,,red,,moons,,,,A,red,moons,,1.0,1.0,NA,right,302.3999999762,2.0,0.0,0.0,,,
95,0,,html-keyboard-response,95,326276,0.0-4.13-0.13,4emcdige0g1,2022-09-16 18:27:43.642,6111ad7c064a7c16eeb2fb77,1,60,17,30,10,21,Female,,,"<img src=""static/images/cards/stack_of_black_moons.svg"" width=""175px"" height=""250px""></img>",,,,,,,,,,,,,,,,,,,,,,,,,,,,
96,0,,html-keyboard-response,96,327199,0.0-4.13-1.13,4emcdige0g1,2022-09-16 18:27:43.642,6111ad7c064a7c16eeb2fb77,1,60,17,30,10,21,Female,416.3999999762,,"
  <table>
  <tr height=300>
    <td width=300 height=300><img src=""static/images/cards/back_of_black_moons.svg"" width=""175px"" height=""250px""></img></td>
    <td width=300 height=300><img src=""static/images/cards/back_of_black_moons.svg"" width=""175px"" height=""250px""></img></td>
  </tr>
  <tr height=200>
    <td width=300><img src=""static/images/keys/z.svg"" width=""35%"" height=""75%""></img></td>
    <td width=300></td>
  </tr>
</table>
  ",90.0,1.0,,,,,,,,,,,,,,,,,,,,,,,,,,
97,0,,html-keyboard-response,97,328702,0.0-4.13-2.13,4emcdige0g1,2022-09-16 18:27:43.642,6111ad7c064a7c16eeb2fb77,1,60,17,30,10,21,Female,,,"
  <table>
  <tr height=300>
    <td width=300 height=300><img src=""static/images/cards/7_of_black_moons.svg"" width=""175px"" height=""250px""></img></td>
    <td width=300 height=300><img src=""static/images/cards/back_of_black_moons.svg"" width=""175px"" height=""250px""></img></td>
  </tr>
  <tr height=200>
    <td width=300><img src=""static/images/keys/z.svg"" width=""35%"" height=""75%""></img></td>
    <td width=300></td>
  </tr>
</table>
  ",,,,,,,,,,,,,,,,,,,,,,,,,,,,
98,0,,html-keyboard-response,98,330208,0.0-4.13-3.13,4emcdige0g1,2022-09-16 18:27:43.642,6111ad7c064a7c16eeb2fb77,1,60,17,30,10,21,Female,,,"<p style=""font-size:50px"">You win!
+10 points this round!</p>",,,,,,,,,,,,,,,,,,,,,,,,,,,,
99,0,,html-keyboard-response,99,330715,0.0-4.13-4.13,4emcdige0g1,2022-09-16 18:27:43.642,6111ad7c064a7c16eeb2fb77,1,60,17,30,10,21,Female,,,,,,1.0,learning,13.0,B,,black,,moons,,,,B,black,moons,,0.0,1.0,1,left,416.3999999762,7.0,1.0,1.0,,,
100,0,,html-keyboard-response,100,332218,0.0-4.14-0.14,4emcdige0g1,2022-09-16 18:27:43.642,6111ad7c064a7c16eeb2fb77,1,60,17,30,10,21,Female,,,"<img src=""static/images/cards/stack_of_red_stars.svg"" width=""175px"" height=""250px""></img>",,,,,,,,,,,,,,,,,,,,,,,,,,,,
101,0,,html-keyboard-response,101,333133,0.0-4.14-1.14,4emcdige0g1,2022-09-16 18:27:43.642,6111ad7c064a7c16eeb2fb77,1,60,17,30,10,21,Female,408.8999999762,,"
  <table>
  <tr height=300>
    <td width=300 height=300><img src=""static/images/cards/back_of_red_stars.svg"" width=""175px"" height=""250px""></img></td>
    <td width=300 height=300><img src=""static/images/cards/back_of_red_stars.svg"" width=""175px"" height=""250px""></img></td>
  </tr>
  <tr height=200>
    <td width=300><img src=""static/images/keys/z.svg"" width=""35%"" height=""75%""></img></td>
    <td width=300><img src=""static/images/keys/m.svg"" width=""35%"" height=""75%""></img></td>
  </tr>
</table>
  ",77.0,1.0,,,,,,,,,,,,,,,,,,,,,,,,,,
102,0,,html-keyboard-response,102,334640,0.0-4.14-2.14,4emcdige0g1,2022-09-16 18:27:43.642,6111ad7c064a7c16eeb2fb77,1,60,17,30,10,21,Female,,,"
  <table>
  <tr height=300>
    <td width=300 height=300><img src=""static/images/cards/back_of_red_stars.svg"" width=""175px"" height=""250px""></img></td>
    <td width=300 height=300><img src=""static/images/cards/1_of_red_stars.svg"" width=""175px"" height=""250px""></img></td>
  </tr>
  <tr height=200>
    <td width=300><img src=""static/images/keys/z.svg"" width=""35%"" height=""75%""></img></td>
    <td width=300><img src=""static/images/keys/m.svg"" width=""35%"" height=""75%""></img></td>
  </tr>
</table>
  ",,,,,,,,,,,,,,,,,,,,,,,,,,,,
103,0,,html-keyboard-response,103,336144,0.0-4.14-3.14,4emcdige0g1,2022-09-16 18:27:43.642,6111ad7c064a7c16eeb2fb77,1,60,17,30,10,21,Female,,,"<p style=""font-size:50px"">You Lose!
No points this round.</p>",,,,,,,,,,,,,,,,,,,,,,,,,,,,
104,0,,html-keyboard-response,104,336654,0.0-4.14-4.14,4emcdige0g1,2022-09-16 18:27:43.642,6111ad7c064a7c16eeb2fb77,1,60,17,30,10,21,Female,,,,,,1.0,learning,14.0,C,,red,,stars,,,,C,red,stars,,1.0,0.0,NA,right,408.8999999762,1.0,0.0,0.0,,,
105,0,,html-keyboard-response,105,338156,0.0-4.15-0.15,4emcdige0g1,2022-09-16 18:27:43.642,6111ad7c064a7c16eeb2fb77,1,60,17,30,10,21,Female,,,"<img src=""static/images/cards/stack_of_black_stars.svg"" width=""175px"" height=""250px""></img>",,,,,,,,,,,,,,,,,,,,,,,,,,,,
106,0,,html-keyboard-response,106,339130,0.0-4.15-1.15,4emcdige0g1,2022-09-16 18:27:43.642,6111ad7c064a7c16eeb2fb77,1,60,17,30,10,21,Female,468.0,,"
  <table>
  <tr height=300>
    <td width=300 height=300><img src=""static/images/cards/back_of_black_stars.svg"" width=""175px"" height=""250px""></img></td>
    <td width=300 height=300><img src=""static/images/cards/back_of_black_stars.svg"" width=""175px"" height=""250px""></img></td>
  </tr>
  <tr height=200>
    <td width=300></td>
    <td width=300><img src=""static/images/keys/m.svg"" width=""35%"" height=""75%""></img></td>
  </tr>
</table>
  ",77.0,1.0,,,,,,,,,,,,,,,,,,,,,,,,,,
107,0,,html-keyboard-response,107,340636,0.0-4.15-2.15,4emcdige0g1,2022-09-16 18:27:43.642,6111ad7c064a7c16eeb2fb77,1,60,17,30,10,21,Female,,,"
  <table>
  <tr height=300>
    <td width=300 height=300><img src=""static/images/cards/back_of_black_stars.svg"" width=""175px"" height=""250px""></img></td>
    <td width=300 height=300><img src=""static/images/cards/6_of_black_stars.svg"" width=""175px"" height=""250px""></img></td>
  </tr>
  <tr height=200>
    <td width=300></td>
    <td width=300><img src=""static/images/keys/m.svg"" width=""35%"" height=""75%""></img></td>
  </tr>
</table>
  ",,,,,,,,,,,,,,,,,,,,,,,,,,,,
108,0,,html-keyboard-response,108,342143,0.0-4.15-3.15,4emcdige0g1,2022-09-16 18:27:43.642,6111ad7c064a7c16eeb2fb77,1,60,17,30,10,21,Female,,,"<p style=""font-size:50px"">You win!
+10 points this round!</p>",,,,,,,,,,,,,,,,,,,,,,,,,,,,
109,0,,html-keyboard-response,109,342651,0.0-4.15-4.15,4emcdige0g1,2022-09-16 18:27:43.642,6111ad7c064a7c16eeb2fb77,1,60,17,30,10,21,Female,,,,,,1.0,learning,15.0,D,,black,,stars,,,,D,black,stars,,0.0,0.0,0,right,468.0,6.0,1.0,1.0,,,
110,0,,html-keyboard-response,110,344153,0.0-4.16-0.16,4emcdige0g1,2022-09-16 18:27:43.642,6111ad7c064a7c16eeb2fb77,1,60,17,30,10,21,Female,,,"<img src=""static/images/cards/stack_of_red_bolts.svg"" width=""175px"" height=""250px""></img>",,,,,,,,,,,,,,,,,,,,,,,,,,,,
111,0,,html-keyboard-response,111,344940,0.0-4.16-1.16,4emcdige0g1,2022-09-16 18:27:43.642,6111ad7c064a7c16eeb2fb77,1,60,17,30,10,21,Female,281.6000000238,,"
  <table>
  <tr height=300>
    <td width=300 height=300><img src=""static/images/cards/back_of_red_bolts.svg"" width=""175px"" height=""250px""></img></td>
    <td width=300 height=300><img src=""static/images/cards/back_of_red_bolts.svg"" width=""175px"" height=""250px""></img></td>
  </tr>
  <tr height=200>
    <td width=300><img src=""static/images/keys/z.svg"" width=""35%"" height=""75%""></img></td>
    <td width=300><img src=""static/images/keys/m.svg"" width=""35%"" height=""75%""></img></td>
  </tr>
</table>
  ",77.0,1.0,,,,,,,,,,,,,,,,,,,,,,,,,,
112,0,,html-keyboard-response,112,346447,0.0-4.16-2.16,4emcdige0g1,2022-09-16 18:27:43.642,6111ad7c064a7c16eeb2fb77,1,60,17,30,10,21,Female,,,"
  <table>
  <tr height=300>
    <td width=300 height=300><img src=""static/images/cards/back_of_red_bolts.svg"" width=""175px"" height=""250px""></img></td>
    <td width=300 height=300><img src=""static/images/cards/6_of_red_bolts.svg"" width=""175px"" height=""250px""></img></td>
  </tr>
  <tr height=200>
    <td width=300><img src=""static/images/keys/z.svg"" width=""35%"" height=""75%""></img></td>
    <td width=300><img src=""static/images/keys/m.svg"" width=""35%"" height=""75%""></img></td>
  </tr>
</table>
  ",,,,,,,,,,,,,,,,,,,,,,,,,,,,
113,0,,html-keyboard-response,113,347952,0.0-4.16-3.16,4emcdige0g1,2022-09-16 18:27:43.642,6111ad7c064a7c16eeb2fb77,1,60,17,30,10,21,Female,,,"<p style=""font-size:50px"">You win!
+10 points this round!</p>",,,,,,,,,,,,,,,,,,,,,,,,,,,,
114,0,,html-keyboard-response,114,348457,0.0-4.16-4.16,4emcdige0g1,2022-09-16 18:27:43.642,6111ad7c064a7c16eeb2fb77,1,60,17,30,10,21,Female,,,,,,1.0,learning,16.0,Xc,,red,,bolts,,,,Xc,red,bolts,,1.0,0.0,NA,right,281.6000000238,6.0,1.0,1.0,,,
115,0,,html-keyboard-response,115,349961,0.0-4.17-0.17,4emcdige0g1,2022-09-16 18:27:43.642,6111ad7c064a7c16eeb2fb77,1,60,17,30,10,21,Female,,,"<img src=""static/images/cards/stack_of_black_bolts.svg"" width=""175px"" height=""250px""></img>",,,,,,,,,,,,,,,,,,,,,,,,,,,,
116,0,,html-keyboard-response,116,350841,0.0-4.17-1.17,4emcdige0g1,2022-09-16 18:27:43.642,6111ad7c064a7c16eeb2fb77,1,60,17,30,10,21,Female,373.6999999285,,"
  <table>
  <tr height=300>
    <td width=300 height=300><img src=""static/images/cards/back_of_black_bolts.svg"" width=""175px"" height=""250px""></img></td>
    <td width=300 height=300><img src=""static/images/cards/back_of_black_bolts.svg"" width=""175px"" height=""250px""></img></td>
  </tr>
  <tr height=200>
    <td width=300></td>
    <td width=300><img src=""static/images/keys/m.svg"" width=""35%"" height=""75%""></img></td>
  </tr>
</table>
  ",77.0,1.0,,,,,,,,,,,,,,,,,,,,,,,,,,
117,0,,html-keyboard-response,117,352343,0.0-4.17-2.17,4emcdige0g1,2022-09-16 18:27:43.642,6111ad7c064a7c16eeb2fb77,1,60,17,30,10,21,Female,,,"
  <table>
  <tr height=300>
    <td width=300 height=300><img src=""static/images/cards/back_of_black_bolts.svg"" width=""175px"" height=""250px""></img></td>
    <td width=300 height=300><img src=""static/images/cards/3_of_black_bolts.svg"" width=""175px"" height=""250px""></img></td>
  </tr>
  <tr height=200>
    <td width=300></td>
    <td width=300><img src=""static/images/keys/m.svg"" width=""35%"" height=""75%""></img></td>
  </tr>
</table>
  ",,,,,,,,,,,,,,,,,,,,,,,,,,,,
118,0,,html-keyboard-response,118,353849,0.0-4.17-3.17,4emcdige0g1,2022-09-16 18:27:43.642,6111ad7c064a7c16eeb2fb77,1,60,17,30,10,21,Female,,,"<p style=""font-size:50px"">You win!
+10 points this round!</p>",,,,,,,,,,,,,,,,,,,,,,,,,,,,
119,0,,html-keyboard-response,119,354360,0.0-4.17-4.17,4emcdige0g1,2022-09-16 18:27:43.642,6111ad7c064a7c16eeb2fb77,1,60,17,30,10,21,Female,,,,,,1.0,learning,17.0,Xnc,,black,,bolts,,,,Xnc,black,bolts,,0.0,0.0,0,right,373.6999999285,3.0,0.0,1.0,,,
120,0,,html-keyboard-response,120,355862,0.0-4.18-0.18,4emcdige0g1,2022-09-16 18:27:43.642,6111ad7c064a7c16eeb2fb77,1,60,17,30,10,21,Female,,,"<img src=""static/images/cards/stack_of_red_moons.svg"" width=""175px"" height=""250px""></img>",,,,,,,,,,,,,,,,,,,,,,,,,,,,
121,0,,html-keyboard-response,121,356676,0.0-4.18-1.18,4emcdige0g1,2022-09-16 18:27:43.642,6111ad7c064a7c16eeb2fb77,1,60,17,30,10,21,Female,307.0999999046,,"
  <table>
  <tr height=300>
    <td width=300 height=300><img src=""static/images/cards/back_of_red_moons.svg"" width=""175px"" height=""250px""></img></td>
    <td width=300 height=300><img src=""static/images/cards/back_of_red_moons.svg"" width=""175px"" height=""250px""></img></td>
  </tr>
  <tr height=200>
    <td width=300><img src=""static/images/keys/z.svg"" width=""35%"" height=""75%""></img></td>
    <td width=300><img src=""static/images/keys/m.svg"" width=""35%"" height=""75%""></img></td>
  </tr>
</table>
  ",77.0,1.0,,,,,,,,,,,,,,,,,,,,,,,,,,
122,0,,html-keyboard-response,122,358178,0.0-4.18-2.18,4emcdige0g1,2022-09-16 18:27:43.642,6111ad7c064a7c16eeb2fb77,1,60,17,30,10,21,Female,,,"
  <table>
  <tr height=300>
    <td width=300 height=300><img src=""static/images/cards/back_of_red_moons.svg"" width=""175px"" height=""250px""></img></td>
    <td width=300 height=300><img src=""static/images/cards/1_of_red_moons.svg"" width=""175px"" height=""250px""></img></td>
  </tr>
  <tr height=200>
    <td width=300><img src=""static/images/keys/z.svg"" width=""35%"" height=""75%""></img></td>
    <td width=300><img src=""static/images/keys/m.svg"" width=""35%"" height=""75%""></img></td>
  </tr>
</table>
  ",,,,,,,,,,,,,,,,,,,,,,,,,,,,
123,0,,html-keyboard-response,123,359688,0.0-4.18-3.18,4emcdige0g1,2022-09-16 18:27:43.642,6111ad7c064a7c16eeb2fb77,1,60,17,30,10,21,Female,,,"<p style=""font-size:50px"">You Lose!
No points this round.</p>",,,,,,,,,,,,,,,,,,,,,,,,,,,,
124,0,,html-keyboard-response,124,360199,0.0-4.18-4.18,4emcdige0g1,2022-09-16 18:27:43.642,6111ad7c064a7c16eeb2fb77,1,60,17,30,10,21,Female,,,,,,1.0,learning,18.0,A,,red,,moons,,,,A,red,moons,,1.0,1.0,NA,right,307.0999999046,1.0,0.0,0.0,,,
125,0,,html-keyboard-response,125,361701,0.0-4.19-0.19,4emcdige0g1,2022-09-16 18:27:43.642,6111ad7c064a7c16eeb2fb77,1,60,17,30,10,21,Female,,,"<img src=""static/images/cards/stack_of_black_moons.svg"" width=""175px"" height=""250px""></img>",,,,,,,,,,,,,,,,,,,,,,,,,,,,
126,0,,html-keyboard-response,126,362613,0.0-4.19-1.19,4emcdige0g1,2022-09-16 18:27:43.642,6111ad7c064a7c16eeb2fb77,1,60,17,30,10,21,Female,406.6000000238,,"
  <table>
  <tr height=300>
    <td width=300 height=300><img src=""static/images/cards/back_of_black_moons.svg"" width=""175px"" height=""250px""></img></td>
    <td width=300 height=300><img src=""static/images/cards/back_of_black_moons.svg"" width=""175px"" height=""250px""></img></td>
  </tr>
  <tr height=200>
    <td width=300><img src=""static/images/keys/z.svg"" width=""35%"" height=""75%""></img></td>
    <td width=300></td>
  </tr>
</table>
  ",90.0,1.0,,,,,,,,,,,,,,,,,,,,,,,,,,
127,0,,html-keyboard-response,127,364118,0.0-4.19-2.19,4emcdige0g1,2022-09-16 18:27:43.642,6111ad7c064a7c16eeb2fb77,1,60,17,30,10,21,Female,,,"
  <table>
  <tr height=300>
    <td width=300 height=300><img src=""static/images/cards/6_of_black_moons.svg"" width=""175px"" height=""250px""></img></td>
    <td width=300 height=300><img src=""static/images/cards/back_of_black_moons.svg"" width=""175px"" height=""250px""></img></td>
  </tr>
  <tr height=200>
    <td width=300><img src=""static/images/keys/z.svg"" width=""35%"" height=""75%""></img></td>
    <td width=300></td>
  </tr>
</table>
  ",,,,,,,,,,,,,,,,,,,,,,,,,,,,
128,0,,html-keyboard-response,128,365629,0.0-4.19-3.19,4emcdige0g1,2022-09-16 18:27:43.642,6111ad7c064a7c16eeb2fb77,1,60,17,30,10,21,Female,,,"<p style=""font-size:50px"">You win!
+10 points this round!</p>",,,,,,,,,,,,,,,,,,,,,,,,,,,,
129,0,,html-keyboard-response,129,366139,0.0-4.19-4.19,4emcdige0g1,2022-09-16 18:27:43.642,6111ad7c064a7c16eeb2fb77,1,60,17,30,10,21,Female,,,,,,1.0,learning,19.0,B,,black,,moons,,,,B,black,moons,,0.0,1.0,1,left,406.6000000238,6.0,1.0,1.0,,,
130,0,,html-keyboard-response,130,367640,0.0-4.20-0.20,4emcdige0g1,2022-09-16 18:27:43.642,6111ad7c064a7c16eeb2fb77,1,60,17,30,10,21,Female,,,"<img src=""static/images/cards/stack_of_red_stars.svg"" width=""175px"" height=""250px""></img>",,,,,,,,,,,,,,,,,,,,,,,,,,,,
131,0,,html-keyboard-response,131,368527,0.0-4.20-1.20,4emcdige0g1,2022-09-16 18:27:43.642,6111ad7c064a7c16eeb2fb77,1,60,17,30,10,21,Female,382.7999999523,,"
  <table>
  <tr height=300>
    <td width=300 height=300><img src=""static/images/cards/back_of_red_stars.svg"" width=""175px"" height=""250px""></img></td>
    <td width=300 height=300><img src=""static/images/cards/back_of_red_stars.svg"" width=""175px"" height=""250px""></img></td>
  </tr>
  <tr height=200>
    <td width=300><img src=""static/images/keys/z.svg"" width=""35%"" height=""75%""></img></td>
    <td width=300><img src=""static/images/keys/m.svg"" width=""35%"" height=""75%""></img></td>
  </tr>
</table>
  ",90.0,1.0,,,,,,,,,,,,,,,,,,,,,,,,,,
132,0,,html-keyboard-response,132,370031,0.0-4.20-2.20,4emcdige0g1,2022-09-16 18:27:43.642,6111ad7c064a7c16eeb2fb77,1,60,17,30,10,21,Female,,,"
  <table>
  <tr height=300>
    <td width=300 height=300><img src=""static/images/cards/6_of_red_stars.svg"" width=""175px"" height=""250px""></img></td>
    <td width=300 height=300><img src=""static/images/cards/back_of_red_stars.svg"" width=""175px"" height=""250px""></img></td>
  </tr>
  <tr height=200>
    <td width=300><img src=""static/images/keys/z.svg"" width=""35%"" height=""75%""></img></td>
    <td width=300><img src=""static/images/keys/m.svg"" width=""35%"" height=""75%""></img></td>
  </tr>
</table>
  ",,,,,,,,,,,,,,,,,,,,,,,,,,,,
133,0,,html-keyboard-response,133,371534,0.0-4.20-3.20,4emcdige0g1,2022-09-16 18:27:43.642,6111ad7c064a7c16eeb2fb77,1,60,17,30,10,21,Female,,,"<p style=""font-size:50px"">You win!
+10 points this round!</p>",,,,,,,,,,,,,,,,,,,,,,,,,,,,
134,0,,html-keyboard-response,134,372040,0.0-4.20-4.20,4emcdige0g1,2022-09-16 18:27:43.642,6111ad7c064a7c16eeb2fb77,1,60,17,30,10,21,Female,,,,,,1.0,learning,20.0,C,,red,,stars,,,,C,red,stars,,1.0,0.0,NA,left,382.7999999523,6.0,1.0,1.0,,,
135,0,,html-keyboard-response,135,373541,0.0-4.21-0.21,4emcdige0g1,2022-09-16 18:27:43.642,6111ad7c064a7c16eeb2fb77,1,60,17,30,10,21,Female,,,"<img src=""static/images/cards/stack_of_black_stars.svg"" width=""175px"" height=""250px""></img>",,,,,,,,,,,,,,,,,,,,,,,,,,,,
136,0,,html-keyboard-response,136,374577,0.0-4.21-1.21,4emcdige0g1,2022-09-16 18:27:43.642,6111ad7c064a7c16eeb2fb77,1,60,17,30,10,21,Female,531.8000000715,,"
  <table>
  <tr height=300>
    <td width=300 height=300><img src=""static/images/cards/back_of_black_stars.svg"" width=""175px"" height=""250px""></img></td>
    <td width=300 height=300><img src=""static/images/cards/back_of_black_stars.svg"" width=""175px"" height=""250px""></img></td>
  </tr>
  <tr height=200>
    <td width=300></td>
    <td width=300><img src=""static/images/keys/m.svg"" width=""35%"" height=""75%""></img></td>
  </tr>
</table>
  ",77.0,1.0,,,,,,,,,,,,,,,,,,,,,,,,,,
137,0,,html-keyboard-response,137,376083,0.0-4.21-2.21,4emcdige0g1,2022-09-16 18:27:43.642,6111ad7c064a7c16eeb2fb77,1,60,17,30,10,21,Female,,,"
  <table>
  <tr height=300>
    <td width=300 height=300><img src=""static/images/cards/back_of_black_stars.svg"" width=""175px"" height=""250px""></img></td>
    <td width=300 height=300><img src=""static/images/cards/2_of_black_stars.svg"" width=""175px"" height=""250px""></img></td>
  </tr>
  <tr height=200>
    <td width=300></td>
    <td width=300><img src=""static/images/keys/m.svg"" width=""35%"" height=""75%""></img></td>
  </tr>
</table>
  ",,,,,,,,,,,,,,,,,,,,,,,,,,,,
138,0,,html-keyboard-response,138,377593,0.0-4.21-3.21,4emcdige0g1,2022-09-16 18:27:43.642,6111ad7c064a7c16eeb2fb77,1,60,17,30,10,21,Female,,,"<p style=""font-size:50px"">You Lose!
No points this round.</p>",,,,,,,,,,,,,,,,,,,,,,,,,,,,
139,0,,html-keyboard-response,139,378104,0.0-4.21-4.21,4emcdige0g1,2022-09-16 18:27:43.642,6111ad7c064a7c16eeb2fb77,1,60,17,30,10,21,Female,,,,,,1.0,learning,21.0,D,,black,,stars,,,,D,black,stars,,0.0,0.0,0,right,531.8000000715,2.0,0.0,0.0,,,
140,0,,html-keyboard-response,140,379605,0.0-4.22-0.22,4emcdige0g1,2022-09-16 18:27:43.642,6111ad7c064a7c16eeb2fb77,1,60,17,30,10,21,Female,,,"<img src=""static/images/cards/stack_of_red_bolts.svg"" width=""175px"" height=""250px""></img>",,,,,,,,,,,,,,,,,,,,,,,,,,,,
141,0,,html-keyboard-response,141,380253,0.0-4.22-1.22,4emcdige0g1,2022-09-16 18:27:43.642,6111ad7c064a7c16eeb2fb77,1,60,17,30,10,21,Female,141.3999999762,,"
  <table>
  <tr height=300>
    <td width=300 height=300><img src=""static/images/cards/back_of_red_bolts.svg"" width=""175px"" height=""250px""></img></td>
    <td width=300 height=300><img src=""static/images/cards/back_of_red_bolts.svg"" width=""175px"" height=""250px""></img></td>
  </tr>
  <tr height=200>
    <td width=300><img src=""static/images/keys/z.svg"" width=""35%"" height=""75%""></img></td>
    <td width=300><img src=""static/images/keys/m.svg"" width=""35%"" height=""75%""></img></td>
  </tr>
</table>
  ",77.0,1.0,,,,,,,,,,,,,,,,,,,,,,,,,,
142,0,,html-keyboard-response,142,381754,0.0-4.22-2.22,4emcdige0g1,2022-09-16 18:27:43.642,6111ad7c064a7c16eeb2fb77,1,60,17,30,10,21,Female,,,"
  <table>
  <tr height=300>
    <td width=300 height=300><img src=""static/images/cards/back_of_red_bolts.svg"" width=""175px"" height=""250px""></img></td>
    <td width=300 height=300><img src=""static/images/cards/10_of_red_bolts.svg"" width=""175px"" height=""250px""></img></td>
  </tr>
  <tr height=200>
    <td width=300><img src=""static/images/keys/z.svg"" width=""35%"" height=""75%""></img></td>
    <td width=300><img src=""static/images/keys/m.svg"" width=""35%"" height=""75%""></img></td>
  </tr>
</table>
  ",,,,,,,,,,,,,,,,,,,,,,,,,,,,
143,0,,html-keyboard-response,143,383264,0.0-4.22-3.22,4emcdige0g1,2022-09-16 18:27:43.642,6111ad7c064a7c16eeb2fb77,1,60,17,30,10,21,Female,,,"<p style=""font-size:50px"">You win!
+10 points this round!</p>",,,,,,,,,,,,,,,,,,,,,,,,,,,,
144,0,,html-keyboard-response,144,383775,0.0-4.22-4.22,4emcdige0g1,2022-09-16 18:27:43.642,6111ad7c064a7c16eeb2fb77,1,60,17,30,10,21,Female,,,,,,1.0,learning,22.0,Xc,,red,,bolts,,,,Xc,red,bolts,,1.0,0.0,NA,right,141.3999999762,10.0,1.0,1.0,,,
145,0,,html-keyboard-response,145,385276,0.0-4.23-0.23,4emcdige0g1,2022-09-16 18:27:43.642,6111ad7c064a7c16eeb2fb77,1,60,17,30,10,21,Female,,,"<img src=""static/images/cards/stack_of_black_bolts.svg"" width=""175px"" height=""250px""></img>",,,,,,,,,,,,,,,,,,,,,,,,,,,,
146,0,,html-keyboard-response,146,386124,0.0-4.23-1.23,4emcdige0g1,2022-09-16 18:27:43.642,6111ad7c064a7c16eeb2fb77,1,60,17,30,10,21,Female,341.7999999523,,"
  <table>
  <tr height=300>
    <td width=300 height=300><img src=""static/images/cards/back_of_black_bolts.svg"" width=""175px"" height=""250px""></img></td>
    <td width=300 height=300><img src=""static/images/cards/back_of_black_bolts.svg"" width=""175px"" height=""250px""></img></td>
  </tr>
  <tr height=200>
    <td width=300></td>
    <td width=300><img src=""static/images/keys/m.svg"" width=""35%"" height=""75%""></img></td>
  </tr>
</table>
  ",77.0,1.0,,,,,,,,,,,,,,,,,,,,,,,,,,
147,0,,html-keyboard-response,147,387628,0.0-4.23-2.23,4emcdige0g1,2022-09-16 18:27:43.642,6111ad7c064a7c16eeb2fb77,1,60,17,30,10,21,Female,,,"
  <table>
  <tr height=300>
    <td width=300 height=300><img src=""static/images/cards/back_of_black_bolts.svg"" width=""175px"" height=""250px""></img></td>
    <td width=300 height=300><img src=""static/images/cards/4_of_black_bolts.svg"" width=""175px"" height=""250px""></img></td>
  </tr>
  <tr height=200>
    <td width=300></td>
    <td width=300><img src=""static/images/keys/m.svg"" width=""35%"" height=""75%""></img></td>
  </tr>
</table>
  ",,,,,,,,,,,,,,,,,,,,,,,,,,,,
148,0,,html-keyboard-response,148,389139,0.0-4.23-3.23,4emcdige0g1,2022-09-16 18:27:43.642,6111ad7c064a7c16eeb2fb77,1,60,17,30,10,21,Female,,,"<p style=""font-size:50px"">You win!
+10 points this round!</p>",,,,,,,,,,,,,,,,,,,,,,,,,,,,
149,0,,html-keyboard-response,149,389647,0.0-4.23-4.23,4emcdige0g1,2022-09-16 18:27:43.642,6111ad7c064a7c16eeb2fb77,1,60,17,30,10,21,Female,,,,,,1.0,learning,23.0,Xnc,,black,,bolts,,,,Xnc,black,bolts,,0.0,0.0,0,right,341.7999999523,4.0,0.0,1.0,,,
150,0,,call-function,150,389652,0.0-5.0,4emcdige0g1,2022-09-16 18:27:43.642,6111ad7c064a7c16eeb2fb77,1,60,17,30,10,21,Female,,,,,,,,,,,,,,,,,,,,,,,,,,,,,,,
151,0,,image-keyboard-response,151,398720,0.0-6.0-0.0,4emcdige0g1,2022-09-16 18:27:43.642,6111ad7c064a7c16eeb2fb77,1,60,17,30,10,21,Female,9067.7000000477,,static/images/instructions_CB_1/Slide20.png,39.0,,,,,,,,,,,,,,,,,,,,,,,,,,,
152,0,,image-keyboard-response,152,423924,0.0-6.1-0.1,4emcdige0g1,2022-09-16 18:27:43.642,6111ad7c064a7c16eeb2fb77,1,60,17,30,10,21,Female,25202.8999999762,,static/images/instructions_CB_1/Slide21.png,39.0,,,,,,,,,,,,,,,,,,,,,,,,,,,
153,0,,image-keyboard-response,153,431168,0.0-6.2-0.2,4emcdige0g1,2022-09-16 18:27:43.642,6111ad7c064a7c16eeb2fb77,1,60,17,30,10,21,Female,7243.5,,static/images/instructions_CB_1/Slide22.png,39.0,,,,,,,,,,,,,,,,,,,,,,,,,,,
154,0,,image-keyboard-response,154,445178,0.0-6.3-0.3,4emcdige0g1,2022-09-16 18:27:43.642,6111ad7c064a7c16eeb2fb77,1,60,17,30,10,21,Female,14009.6999999285,,static/images/instructions_CB_1/Slide23.png,39.0,,,,,,,,,,,,,,,,,,,,,,,,,,,
155,0,,image-keyboard-response,155,446672,0.0-6.4-0.4,4emcdige0g1,2022-09-16 18:27:43.642,6111ad7c064a7c16eeb2fb77,1,60,17,30,10,21,Female,1493.8999999762,,static/images/instructions_CB_1/Slide24.png,39.0,,,,,,,,,,,,,,,,,,,,,,,,,,,
156,0,,html-keyboard-response,156,451481,0.0-7.0-0.0,4emcdige0g1,2022-09-16 18:27:43.642,6111ad7c064a7c16eeb2fb77,1,60,17,30,10,21,Female,4807.8999999762,,"
  <table>
  <tr height=300>
    <td width=300 height=300><img src=""static/images/cards/stack_of_red_stars.svg"" width=""175px"" height=""250px""></img></td>
    <td width=300 height=300><img src=""static/images/cards/stack_of_black_moons.svg"" width=""175px"" height=""250px""></img></td>
  </tr>
  <tr height=200>
    <td width=300><img src=""static/images/keys/w.svg"" width=""35%"" height=""75%""></img></td>
    <td width=300><img src=""static/images/keys/o.svg"" width=""35%"" height=""75%""></img></td>
  </tr>
</table>
  ",87.0,1.0,,,,,,,,,,,,,,,,,,,,,,,,,,
157,0,,html-keyboard-response,157,454987,0.0-7.0-1.0,4emcdige0g1,2022-09-16 18:27:43.642,6111ad7c064a7c16eeb2fb77,1,60,17,30,10,21,Female,3000.1000000238,,"
  <table>
  <tr height=300>
    <td width=300 height=300><img src=""static/images/cards/back_of_red_stars.svg"" width=""175px"" height=""250px""></img></td>
    <td width=300 height=300><img src=""static/images/cards/back_of_red_stars.svg"" width=""175px"" height=""250px""></img></td>
  </tr>
  <tr height=200>
    <td width=300><img src=""static/images/keys/z.svg"" width=""35%"" height=""75%""></img></td>
    <td width=300><img src=""static/images/keys/m.svg"" width=""35%"" height=""75%""></img></td>
  </tr>
</table>
  ",77.0,2.0,,,,,,,,,,,,,,,,,,,,,,,,,,
158,0,,html-keyboard-response,158,456490,0.0-7.0-2.0,4emcdige0g1,2022-09-16 18:27:43.642,6111ad7c064a7c16eeb2fb77,1,60,17,30,10,21,Female,,,"
  <table>
  <tr height=300>
    <td width=300 height=300><img src=""static/images/cards/back_of_red_stars.svg"" width=""175px"" height=""250px""></img></td>
    <td width=300 height=300><img src=""static/images/cards/2_of_red_stars.svg"" width=""175px"" height=""250px""></img></td>
  </tr>
  <tr height=200>
    <td width=300><img src=""static/images/keys/z.svg"" width=""35%"" height=""75%""></img></td>
    <td width=300><img src=""static/images/keys/m.svg"" width=""35%"" height=""75%""></img></td>
  </tr>
</table>
  ",,,,,,,,,,,,,,,,,,,,,,,,,,,,
159,0,,html-keyboard-response,159,457999,0.0-7.0-3.0,4emcdige0g1,2022-09-16 18:27:43.642,6111ad7c064a7c16eeb2fb77,1,60,17,30,10,21,Female,,,"<p style=""font-size:50px"">You Lose!
No points this round.</p>",,,,,,,,,,,,,,,,,,,,,,,,,,,,
160,0,,html-keyboard-response,160,458506,0.0-7.0-4.0,4emcdige0g1,2022-09-16 18:27:43.642,6111ad7c064a7c16eeb2fb77,1,60,17,30,10,21,Female,,,,,,1.0,choice,0.0,B,C,red,black,stars,moons,C,B,C,red,stars,4807.8999999762,1.0,0.0,NA,right,3000.1000000238,2.0,0.0,0.0,,,
161,0,,html-keyboard-response,161,463508,0.0-7.1-0.1,4emcdige0g1,2022-09-16 18:27:43.642,6111ad7c064a7c16eeb2fb77,1,60,17,30,10,21,Female,,,"
  <table>
  <tr height=300>
    <td width=300 height=300><img src=""static/images/cards/stack_of_red_moons.svg"" width=""175px"" height=""250px""></img></td>
    <td width=300 height=300><img src=""static/images/cards/stack_of_black_stars.svg"" width=""175px"" height=""250px""></img></td>
  </tr>
  <tr height=200>
    <td width=300><img src=""static/images/keys/w.svg"" width=""35%"" height=""75%""></img></td>
    <td width=300><img src=""static/images/keys/o.svg"" width=""35%"" height=""75%""></img></td>
  </tr>
</table>
  ",,,,,,,,,,,,,,,,,,,,,,,,,,,,
162,0,,html-keyboard-response,162,464015,0.0-7.1-1.1,4emcdige0g1,2022-09-16 18:27:43.642,6111ad7c064a7c16eeb2fb77,1,60,17,30,10,21,Female,,,,,,,,,,,,,,,,,,,,,,,,,,,,,,,
163,0,,html-keyboard-response,163,464020,0.0-7.1-2.1,4emcdige0g1,2022-09-16 18:27:43.642,6111ad7c064a7c16eeb2fb77,1,60,17,30,10,21,Female,,,,,,,,,,,,,,,,,,,,,,,,,,,,,,,
164,0,,html-keyboard-response,164,465528,0.0-7.1-3.1,4emcdige0g1,2022-09-16 18:27:43.642,6111ad7c064a7c16eeb2fb77,1,60,17,30,10,21,Female,,,"<p style=""font-size:50px"">Too slow!</p>",,,,,,,,,,,,,,,,,,,,,,,,,,,,
165,0,,html-keyboard-response,165,466035,0.0-7.1-4.1,4emcdige0g1,2022-09-16 18:27:43.642,6111ad7c064a7c16eeb2fb77,1,60,17,30,10,21,Female,,,,,,1.0,choice,1.0,A,D,red,black,moons,stars,A,D,,,,,1.0,0.0,NA,,,2.0,0.0,0.0,,,
166,0,,html-keyboard-response,166,467875,0.0-7.2-0.2,4emcdige0g1,2022-09-16 18:27:43.642,6111ad7c064a7c16eeb2fb77,1,60,17,30,10,21,Female,1838.7999999523,,"
  <table>
  <tr height=300>
    <td width=300 height=300><img src=""static/images/cards/stack_of_red_moons.svg"" width=""175px"" height=""250px""></img></td>
    <td width=300 height=300><img src=""static/images/cards/stack_of_red_stars.svg"" width=""175px"" height=""250px""></img></td>
  </tr>
  <tr height=200>
    <td width=300><img src=""static/images/keys/w.svg"" width=""35%"" height=""75%""></img></td>
    <td width=300><img src=""static/images/keys/o.svg"" width=""35%"" height=""75%""></img></td>
  </tr>
</table>
  ",87.0,1.0,,,,,,,,,,,,,,,,,,,,,,,,,,
167,0,,html-keyboard-response,167,469438,0.0-7.2-1.2,4emcdige0g1,2022-09-16 18:27:43.642,6111ad7c064a7c16eeb2fb77,1,60,17,30,10,21,Female,1056.8999999762,,"
  <table>
  <tr height=300>
    <td width=300 height=300><img src=""static/images/cards/back_of_red_moons.svg"" width=""175px"" height=""250px""></img></td>
    <td width=300 height=300><img src=""static/images/cards/back_of_red_moons.svg"" width=""175px"" height=""250px""></img></td>
  </tr>
  <tr height=200>
    <td width=300><img src=""static/images/keys/z.svg"" width=""35%"" height=""75%""></img></td>
    <td width=300><img src=""static/images/keys/m.svg"" width=""35%"" height=""75%""></img></td>
  </tr>
</table>
  ",77.0,1.0,,,,,,,,,,,,,,,,,,,,,,,,,,
168,0,,html-keyboard-response,168,470944,0.0-7.2-2.2,4emcdige0g1,2022-09-16 18:27:43.642,6111ad7c064a7c16eeb2fb77,1,60,17,30,10,21,Female,,,"
  <table>
  <tr height=300>
    <td width=300 height=300><img src=""static/images/cards/back_of_red_moons.svg"" width=""175px"" height=""250px""></img></td>
    <td width=300 height=300><img src=""static/images/cards/10_of_red_moons.svg"" width=""175px"" height=""250px""></img></td>
  </tr>
  <tr height=200>
    <td width=300><img src=""static/images/keys/z.svg"" width=""35%"" height=""75%""></img></td>
    <td width=300><img src=""static/images/keys/m.svg"" width=""35%"" height=""75%""></img></td>
  </tr>
</table>
  ",,,,,,,,,,,,,,,,,,,,,,,,,,,,
169,0,,html-keyboard-response,169,472453,0.0-7.2-3.2,4emcdige0g1,2022-09-16 18:27:43.642,6111ad7c064a7c16eeb2fb77,1,60,17,30,10,21,Female,,,"<p style=""font-size:50px"">You win!
+10 points this round!</p>",,,,,,,,,,,,,,,,,,,,,,,,,,,,
170,0,,html-keyboard-response,170,472964,0.0-7.2-4.2,4emcdige0g1,2022-09-16 18:27:43.642,6111ad7c064a7c16eeb2fb77,1,60,17,30,10,21,Female,,,,,,1.0,choice,2.0,A,C,red,red,moons,stars,A,C,A,red,moons,1838.7999999523,1.0,1.0,NA,right,1056.8999999762,10.0,1.0,1.0,,,
171,0,,html-keyboard-response,171,474149,0.0-7.3-0.3,4emcdige0g1,2022-09-16 18:27:43.642,6111ad7c064a7c16eeb2fb77,1,60,17,30,10,21,Female,1183.9000000954,,"
  <table>
  <tr height=300>
    <td width=300 height=300><img src=""static/images/cards/stack_of_red_bolts.svg"" width=""175px"" height=""250px""></img></td>
    <td width=300 height=300><img src=""static/images/cards/stack_of_red_stars.svg"" width=""175px"" height=""250px""></img></td>
  </tr>
  <tr height=200>
    <td width=300><img src=""static/images/keys/w.svg"" width=""35%"" height=""75%""></img></td>
    <td width=300><img src=""static/images/keys/o.svg"" width=""35%"" height=""75%""></img></td>
  </tr>
</table>
  ",87.0,1.0,,,,,,,,,,,,,,,,,,,,,,,,,,
172,0,,html-keyboard-response,172,475283,0.0-7.3-1.3,4emcdige0g1,2022-09-16 18:27:43.642,6111ad7c064a7c16eeb2fb77,1,60,17,30,10,21,Female,628.1000000238,,"
  <table>
  <tr height=300>
    <td width=300 height=300><img src=""static/images/cards/back_of_red_bolts.svg"" width=""175px"" height=""250px""></img></td>
    <td width=300 height=300><img src=""static/images/cards/back_of_red_bolts.svg"" width=""175px"" height=""250px""></img></td>
  </tr>
  <tr height=200>
    <td width=300><img src=""static/images/keys/z.svg"" width=""35%"" height=""75%""></img></td>
    <td width=300><img src=""static/images/keys/m.svg"" width=""35%"" height=""75%""></img></td>
  </tr>
</table>
  ",90.0,1.0,,,,,,,,,,,,,,,,,,,,,,,,,,
173,0,,html-keyboard-response,173,476786,0.0-7.3-2.3,4emcdige0g1,2022-09-16 18:27:43.642,6111ad7c064a7c16eeb2fb77,1,60,17,30,10,21,Female,,,"
  <table>
  <tr height=300>
    <td width=300 height=300><img src=""static/images/cards/4_of_red_bolts.svg"" width=""175px"" height=""250px""></img></td>
    <td width=300 height=300><img src=""static/images/cards/back_of_red_bolts.svg"" width=""175px"" height=""250px""></img></td>
  </tr>
  <tr height=200>
    <td width=300><img src=""static/images/keys/z.svg"" width=""35%"" height=""75%""></img></td>
    <td width=300><img src=""static/images/keys/m.svg"" width=""35%"" height=""75%""></img></td>
  </tr>
</table>
  ",,,,,,,,,,,,,,,,,,,,,,,,,,,,
174,0,,html-keyboard-response,174,478297,0.0-7.3-3.3,4emcdige0g1,2022-09-16 18:27:43.642,6111ad7c064a7c16eeb2fb77,1,60,17,30,10,21,Female,,,"<p style=""font-size:50px"">You win!
+10 points this round!</p>",,,,,,,,,,,,,,,,,,,,,,,,,,,,
175,0,,html-keyboard-response,175,478805,0.0-7.3-4.3,4emcdige0g1,2022-09-16 18:27:43.642,6111ad7c064a7c16eeb2fb77,1,60,17,30,10,21,Female,,,,,,1.0,choice,3.0,C,Xc,red,red,bolts,stars,Xc,C,Xc,red,bolts,1183.9000000954,1.0,0.0,NA,left,628.1000000238,4.0,0.0,1.0,,,
176,0,,html-keyboard-response,176,480281,0.0-7.4-0.4,4emcdige0g1,2022-09-16 18:27:43.642,6111ad7c064a7c16eeb2fb77,1,60,17,30,10,21,Female,1474.2000000477,,"
  <table>
  <tr height=300>
    <td width=300 height=300><img src=""static/images/cards/stack_of_black_stars.svg"" width=""175px"" height=""250px""></img></td>
    <td width=300 height=300><img src=""static/images/cards/stack_of_black_moons.svg"" width=""175px"" height=""250px""></img></td>
  </tr>
  <tr height=200>
    <td width=300><img src=""static/images/keys/w.svg"" width=""35%"" height=""75%""></img></td>
    <td width=300><img src=""static/images/keys/o.svg"" width=""35%"" height=""75%""></img></td>
  </tr>
</table>
  ",79.0,1.0,,,,,,,,,,,,,,,,,,,,,,,,,,
177,0,,html-keyboard-response,177,481744,0.0-7.4-1.4,4emcdige0g1,2022-09-16 18:27:43.642,6111ad7c064a7c16eeb2fb77,1,60,17,30,10,21,Female,959.9000000954,,"
  <table>
  <tr height=300>
    <td width=300 height=300><img src=""static/images/cards/back_of_black_moons.svg"" width=""175px"" height=""250px""></img></td>
    <td width=300 height=300><img src=""static/images/cards/back_of_black_moons.svg"" width=""175px"" height=""250px""></img></td>
  </tr>
  <tr height=200>
    <td width=300></td>
    <td width=300><img src=""static/images/keys/m.svg"" width=""35%"" height=""75%""></img></td>
  </tr>
</table>
  ",77.0,1.0,,,,,,,,,,,,,,,,,,,,,,,,,,
178,0,,html-keyboard-response,178,483247,0.0-7.4-2.4,4emcdige0g1,2022-09-16 18:27:43.642,6111ad7c064a7c16eeb2fb77,1,60,17,30,10,21,Female,,,"
  <table>
  <tr height=300>
    <td width=300 height=300><img src=""static/images/cards/back_of_black_moons.svg"" width=""175px"" height=""250px""></img></td>
    <td width=300 height=300><img src=""static/images/cards/4_of_black_moons.svg"" width=""175px"" height=""250px""></img></td>
  </tr>
  <tr height=200>
    <td width=300></td>
    <td width=300><img src=""static/images/keys/m.svg"" width=""35%"" height=""75%""></img></td>
  </tr>
</table>
  ",,,,,,,,,,,,,,,,,,,,,,,,,,,,
179,0,,html-keyboard-response,179,484753,0.0-7.4-3.4,4emcdige0g1,2022-09-16 18:27:43.642,6111ad7c064a7c16eeb2fb77,1,60,17,30,10,21,Female,,,"<p style=""font-size:50px"">You Lose!
No points this round.</p>",,,,,,,,,,,,,,,,,,,,,,,,,,,,
180,0,,html-keyboard-response,180,485263,0.0-7.4-4.4,4emcdige0g1,2022-09-16 18:27:43.642,6111ad7c064a7c16eeb2fb77,1,60,17,30,10,21,Female,,,,,,1.0,choice,4.0,B,D,black,black,stars,moons,D,B,B,black,moons,1474.2000000477,0.0,1.0,0,right,959.9000000954,4.0,0.0,0.0,,,
181,0,,html-keyboard-response,181,486755,0.0-7.5-0.5,4emcdige0g1,2022-09-16 18:27:43.642,6111ad7c064a7c16eeb2fb77,1,60,17,30,10,21,Female,1490.0999999046,,"
  <table>
  <tr height=300>
    <td width=300 height=300><img src=""static/images/cards/stack_of_red_stars.svg"" width=""175px"" height=""250px""></img></td>
    <td width=300 height=300><img src=""static/images/cards/stack_of_black_stars.svg"" width=""175px"" height=""250px""></img></td>
  </tr>
  <tr height=200>
    <td width=300><img src=""static/images/keys/w.svg"" width=""35%"" height=""75%""></img></td>
    <td width=300><img src=""static/images/keys/o.svg"" width=""35%"" height=""75%""></img></td>
  </tr>
</table>
  ",87.0,1.0,,,,,,,,,,,,,,,,,,,,,,,,,,
182,0,,html-keyboard-response,182,487900,0.0-7.5-1.5,4emcdige0g1,2022-09-16 18:27:43.642,6111ad7c064a7c16eeb2fb77,1,60,17,30,10,21,Female,639.3999999762,,"
  <table>
  <tr height=300>
    <td width=300 height=300><img src=""static/images/cards/back_of_red_stars.svg"" width=""175px"" height=""250px""></img></td>
    <td width=300 height=300><img src=""static/images/cards/back_of_red_stars.svg"" width=""175px"" height=""250px""></img></td>
  </tr>
  <tr height=200>
    <td width=300><img src=""static/images/keys/z.svg"" width=""35%"" height=""75%""></img></td>
    <td width=300><img src=""static/images/keys/m.svg"" width=""35%"" height=""75%""></img></td>
  </tr>
</table>
  ",90.0,1.0,,,,,,,,,,,,,,,,,,,,,,,,,,
183,0,,html-keyboard-response,183,489406,0.0-7.5-2.5,4emcdige0g1,2022-09-16 18:27:43.642,6111ad7c064a7c16eeb2fb77,1,60,17,30,10,21,Female,,,"
  <table>
  <tr height=300>
    <td width=300 height=300><img src=""static/images/cards/10_of_red_stars.svg"" width=""175px"" height=""250px""></img></td>
    <td width=300 height=300><img src=""static/images/cards/back_of_red_stars.svg"" width=""175px"" height=""250px""></img></td>
  </tr>
  <tr height=200>
    <td width=300><img src=""static/images/keys/z.svg"" width=""35%"" height=""75%""></img></td>
    <td width=300><img src=""static/images/keys/m.svg"" width=""35%"" height=""75%""></img></td>
  </tr>
</table>
  ",,,,,,,,,,,,,,,,,,,,,,,,,,,,
184,0,,html-keyboard-response,184,490914,0.0-7.5-3.5,4emcdige0g1,2022-09-16 18:27:43.642,6111ad7c064a7c16eeb2fb77,1,60,17,30,10,21,Female,,,"<p style=""font-size:50px"">You win!
+10 points this round!</p>",,,,,,,,,,,,,,,,,,,,,,,,,,,,
185,0,,html-keyboard-response,185,491424,0.0-7.5-4.5,4emcdige0g1,2022-09-16 18:27:43.642,6111ad7c064a7c16eeb2fb77,1,60,17,30,10,21,Female,,,,,,1.0,choice,5.0,C,D,red,black,stars,stars,C,D,C,red,stars,1490.0999999046,1.0,0.0,NA,left,639.3999999762,10.0,1.0,1.0,,,
186,0,,html-keyboard-response,186,492822,0.0-7.6-0.6,4emcdige0g1,2022-09-16 18:27:43.642,6111ad7c064a7c16eeb2fb77,1,60,17,30,10,21,Female,1397.0,,"
  <table>
  <tr height=300>
    <td width=300 height=300><img src=""static/images/cards/stack_of_red_moons.svg"" width=""175px"" height=""250px""></img></td>
    <td width=300 height=300><img src=""static/images/cards/stack_of_red_bolts.svg"" width=""175px"" height=""250px""></img></td>
  </tr>
  <tr height=200>
    <td width=300><img src=""static/images/keys/w.svg"" width=""35%"" height=""75%""></img></td>
    <td width=300><img src=""static/images/keys/o.svg"" width=""35%"" height=""75%""></img></td>
  </tr>
</table>
  ",79.0,1.0,,,,,,,,,,,,,,,,,,,,,,,,,,
187,0,,html-keyboard-response,187,493752,0.0-7.6-1.6,4emcdige0g1,2022-09-16 18:27:43.642,6111ad7c064a7c16eeb2fb77,1,60,17,30,10,21,Female,424.3000000715,,"
  <table>
  <tr height=300>
    <td width=300 height=300><img src=""static/images/cards/back_of_red_bolts.svg"" width=""175px"" height=""250px""></img></td>
    <td width=300 height=300><img src=""static/images/cards/back_of_red_bolts.svg"" width=""175px"" height=""250px""></img></td>
  </tr>
  <tr height=200>
    <td width=300><img src=""static/images/keys/z.svg"" width=""35%"" height=""75%""></img></td>
    <td width=300><img src=""static/images/keys/m.svg"" width=""35%"" height=""75%""></img></td>
  </tr>
</table>
  ",77.0,1.0,,,,,,,,,,,,,,,,,,,,,,,,,,
188,0,,html-keyboard-response,188,495258,0.0-7.6-2.6,4emcdige0g1,2022-09-16 18:27:43.642,6111ad7c064a7c16eeb2fb77,1,60,17,30,10,21,Female,,,"
  <table>
  <tr height=300>
    <td width=300 height=300><img src=""static/images/cards/back_of_red_bolts.svg"" width=""175px"" height=""250px""></img></td>
    <td width=300 height=300><img src=""static/images/cards/3_of_red_bolts.svg"" width=""175px"" height=""250px""></img></td>
  </tr>
  <tr height=200>
    <td width=300><img src=""static/images/keys/z.svg"" width=""35%"" height=""75%""></img></td>
    <td width=300><img src=""static/images/keys/m.svg"" width=""35%"" height=""75%""></img></td>
  </tr>
</table>
  ",,,,,,,,,,,,,,,,,,,,,,,,,,,,
189,0,,html-keyboard-response,189,496765,0.0-7.6-3.6,4emcdige0g1,2022-09-16 18:27:43.642,6111ad7c064a7c16eeb2fb77,1,60,17,30,10,21,Female,,,"<p style=""font-size:50px"">You win!
+10 points this round!</p>",,,,,,,,,,,,,,,,,,,,,,,,,,,,
190,0,,html-keyboard-response,190,497276,0.0-7.6-4.6,4emcdige0g1,2022-09-16 18:27:43.642,6111ad7c064a7c16eeb2fb77,1,60,17,30,10,21,Female,,,,,,1.0,choice,6.0,A,Xc,red,red,moons,bolts,A,Xc,Xc,red,bolts,1397.0,1.0,0.0,NA,right,424.3000000715,3.0,0.0,1.0,,,
191,0,,html-keyboard-response,191,498228,0.0-7.7-0.7,4emcdige0g1,2022-09-16 18:27:43.642,6111ad7c064a7c16eeb2fb77,1,60,17,30,10,21,Female,950.7000000477,,"
  <table>
  <tr height=300>
    <td width=300 height=300><img src=""static/images/cards/stack_of_red_stars.svg"" width=""175px"" height=""250px""></img></td>
    <td width=300 height=300><img src=""static/images/cards/stack_of_red_moons.svg"" width=""175px"" height=""250px""></img></td>
  </tr>
  <tr height=200>
    <td width=300><img src=""static/images/keys/w.svg"" width=""35%"" height=""75%""></img></td>
    <td width=300><img src=""static/images/keys/o.svg"" width=""35%"" height=""75%""></img></td>
  </tr>
</table>
  ",79.0,1.0,,,,,,,,,,,,,,,,,,,,,,,,,,
192,0,,html-keyboard-response,192,499425,0.0-7.7-1.7,4emcdige0g1,2022-09-16 18:27:43.642,6111ad7c064a7c16eeb2fb77,1,60,17,30,10,21,Female,694.4000000954,,"
  <table>
  <tr height=300>
    <td width=300 height=300><img src=""static/images/cards/back_of_red_moons.svg"" width=""175px"" height=""250px""></img></td>
    <td width=300 height=300><img src=""static/images/cards/back_of_red_moons.svg"" width=""175px"" height=""250px""></img></td>
  </tr>
  <tr height=200>
    <td width=300><img src=""static/images/keys/z.svg"" width=""35%"" height=""75%""></img></td>
    <td width=300><img src=""static/images/keys/m.svg"" width=""35%"" height=""75%""></img></td>
  </tr>
</table>
  ",77.0,1.0,,,,,,,,,,,,,,,,,,,,,,,,,,
193,0,,html-keyboard-response,193,500931,0.0-7.7-2.7,4emcdige0g1,2022-09-16 18:27:43.642,6111ad7c064a7c16eeb2fb77,1,60,17,30,10,21,Female,,,"
  <table>
  <tr height=300>
    <td width=300 height=300><img src=""static/images/cards/back_of_red_moons.svg"" width=""175px"" height=""250px""></img></td>
    <td width=300 height=300><img src=""static/images/cards/8_of_red_moons.svg"" width=""175px"" height=""250px""></img></td>
  </tr>
  <tr height=200>
    <td width=300><img src=""static/images/keys/z.svg"" width=""35%"" height=""75%""></img></td>
    <td width=300><img src=""static/images/keys/m.svg"" width=""35%"" height=""75%""></img></td>
  </tr>
</table>
  ",,,,,,,,,,,,,,,,,,,,,,,,,,,,
194,0,,html-keyboard-response,194,502442,0.0-7.7-3.7,4emcdige0g1,2022-09-16 18:27:43.642,6111ad7c064a7c16eeb2fb77,1,60,17,30,10,21,Female,,,"<p style=""font-size:50px"">You win!
+10 points this round!</p>",,,,,,,,,,,,,,,,,,,,,,,,,,,,
195,0,,html-keyboard-response,195,502952,0.0-7.7-4.7,4emcdige0g1,2022-09-16 18:27:43.642,6111ad7c064a7c16eeb2fb77,1,60,17,30,10,21,Female,,,,,,1.0,choice,7.0,A,C,red,red,stars,moons,C,A,A,red,moons,950.7000000477,1.0,1.0,NA,right,694.4000000954,8.0,1.0,1.0,,,
196,0,,html-keyboard-response,196,504042,0.0-7.8-0.8,4emcdige0g1,2022-09-16 18:27:43.642,6111ad7c064a7c16eeb2fb77,1,60,17,30,10,21,Female,1088.7000000477,,"
  <table>
  <tr height=300>
    <td width=300 height=300><img src=""static/images/cards/stack_of_red_moons.svg"" width=""175px"" height=""250px""></img></td>
    <td width=300 height=300><img src=""static/images/cards/stack_of_red_stars.svg"" width=""175px"" height=""250px""></img></td>
  </tr>
  <tr height=200>
    <td width=300><img src=""static/images/keys/w.svg"" width=""35%"" height=""75%""></img></td>
    <td width=300><img src=""static/images/keys/o.svg"" width=""35%"" height=""75%""></img></td>
  </tr>
</table>
  ",87.0,1.0,,,,,,,,,,,,,,,,,,,,,,,,,,
197,0,,html-keyboard-response,197,505225,0.0-7.8-1.8,4emcdige0g1,2022-09-16 18:27:43.642,6111ad7c064a7c16eeb2fb77,1,60,17,30,10,21,Female,679.2000000477,,"
  <table>
  <tr height=300>
    <td width=300 height=300><img src=""static/images/cards/back_of_red_moons.svg"" width=""175px"" height=""250px""></img></td>
    <td width=300 height=300><img src=""static/images/cards/back_of_red_moons.svg"" width=""175px"" height=""250px""></img></td>
  </tr>
  <tr height=200>
    <td width=300><img src=""static/images/keys/z.svg"" width=""35%"" height=""75%""></img></td>
    <td width=300><img src=""static/images/keys/m.svg"" width=""35%"" height=""75%""></img></td>
  </tr>
</table>
  ",90.0,1.0,,,,,,,,,,,,,,,,,,,,,,,,,,
198,0,,html-keyboard-response,198,506731,0.0-7.8-2.8,4emcdige0g1,2022-09-16 18:27:43.642,6111ad7c064a7c16eeb2fb77,1,60,17,30,10,21,Female,,,"
  <table>
  <tr height=300>
    <td width=300 height=300><img src=""static/images/cards/2_of_red_moons.svg"" width=""175px"" height=""250px""></img></td>
    <td width=300 height=300><img src=""static/images/cards/back_of_red_moons.svg"" width=""175px"" height=""250px""></img></td>
  </tr>
  <tr height=200>
    <td width=300><img src=""static/images/keys/z.svg"" width=""35%"" height=""75%""></img></td>
    <td width=300><img src=""static/images/keys/m.svg"" width=""35%"" height=""75%""></img></td>
  </tr>
</table>
  ",,,,,,,,,,,,,,,,,,,,,,,,,,,,
199,0,,html-keyboard-response,199,508235,0.0-7.8-3.8,4emcdige0g1,2022-09-16 18:27:43.642,6111ad7c064a7c16eeb2fb77,1,60,17,30,10,21,Female,,,"<p style=""font-size:50px"">You Lose!
No points this round.</p>",,,,,,,,,,,,,,,,,,,,,,,,,,,,
200,0,,html-keyboard-response,200,508745,0.0-7.8-4.8,4emcdige0g1,2022-09-16 18:27:43.642,6111ad7c064a7c16eeb2fb77,1,60,17,30,10,21,Female,,,,,,1.0,choice,8.0,A,C,red,red,moons,stars,A,C,A,red,moons,1088.7000000477,1.0,1.0,NA,left,679.2000000477,2.0,0.0,0.0,,,
201,0,,html-keyboard-response,201,509984,0.0-7.9-0.9,4emcdige0g1,2022-09-16 18:27:43.642,6111ad7c064a7c16eeb2fb77,1,60,17,30,10,21,Female,1237.5999999046,,"
  <table>
  <tr height=300>
    <td width=300 height=300><img src=""static/images/cards/stack_of_red_moons.svg"" width=""175px"" height=""250px""></img></td>
    <td width=300 height=300><img src=""static/images/cards/stack_of_black_moons.svg"" width=""175px"" height=""250px""></img></td>
  </tr>
  <tr height=200>
    <td width=300><img src=""static/images/keys/w.svg"" width=""35%"" height=""75%""></img></td>
    <td width=300><img src=""static/images/keys/o.svg"" width=""35%"" height=""75%""></img></td>
  </tr>
</table>
  ",87.0,1.0,,,,,,,,,,,,,,,,,,,,,,,,,,
202,0,,html-keyboard-response,202,510952,0.0-7.9-1.9,4emcdige0g1,2022-09-16 18:27:43.642,6111ad7c064a7c16eeb2fb77,1,60,17,30,10,21,Female,461.7000000477,,"
  <table>
  <tr height=300>
    <td width=300 height=300><img src=""static/images/cards/back_of_red_moons.svg"" width=""175px"" height=""250px""></img></td>
    <td width=300 height=300><img src=""static/images/cards/back_of_red_moons.svg"" width=""175px"" height=""250px""></img></td>
  </tr>
  <tr height=200>
    <td width=300><img src=""static/images/keys/z.svg"" width=""35%"" height=""75%""></img></td>
    <td width=300><img src=""static/images/keys/m.svg"" width=""35%"" height=""75%""></img></td>
  </tr>
</table>
  ",77.0,1.0,,,,,,,,,,,,,,,,,,,,,,,,,,
203,0,,html-keyboard-response,203,512454,0.0-7.9-2.9,4emcdige0g1,2022-09-16 18:27:43.642,6111ad7c064a7c16eeb2fb77,1,60,17,30,10,21,Female,,,"
  <table>
  <tr height=300>
    <td width=300 height=300><img src=""static/images/cards/back_of_red_moons.svg"" width=""175px"" height=""250px""></img></td>
    <td width=300 height=300><img src=""static/images/cards/3_of_red_moons.svg"" width=""175px"" height=""250px""></img></td>
  </tr>
  <tr height=200>
    <td width=300><img src=""static/images/keys/z.svg"" width=""35%"" height=""75%""></img></td>
    <td width=300><img src=""static/images/keys/m.svg"" width=""35%"" height=""75%""></img></td>
  </tr>
</table>
  ",,,,,,,,,,,,,,,,,,,,,,,,,,,,
204,0,,html-keyboard-response,204,513961,0.0-7.9-3.9,4emcdige0g1,2022-09-16 18:27:43.642,6111ad7c064a7c16eeb2fb77,1,60,17,30,10,21,Female,,,"<p style=""font-size:50px"">You Lose!
No points this round.</p>",,,,,,,,,,,,,,,,,,,,,,,,,,,,
205,0,,html-keyboard-response,205,514472,0.0-7.9-4.9,4emcdige0g1,2022-09-16 18:27:43.642,6111ad7c064a7c16eeb2fb77,1,60,17,30,10,21,Female,,,,,,1.0,choice,9.0,A,B,red,black,moons,moons,A,B,A,red,moons,1237.5999999046,1.0,1.0,NA,right,461.7000000477,3.0,0.0,0.0,,,
206,0,,html-keyboard-response,206,515383,0.0-7.10-0.10,4emcdige0g1,2022-09-16 18:27:43.642,6111ad7c064a7c16eeb2fb77,1,60,17,30,10,21,Female,910.2999999523,,"
  <table>
  <tr height=300>
    <td width=300 height=300><img src=""static/images/cards/stack_of_red_moons.svg"" width=""175px"" height=""250px""></img></td>
    <td width=300 height=300><img src=""static/images/cards/stack_of_red_stars.svg"" width=""175px"" height=""250px""></img></td>
  </tr>
  <tr height=200>
    <td width=300><img src=""static/images/keys/w.svg"" width=""35%"" height=""75%""></img></td>
    <td width=300><img src=""static/images/keys/o.svg"" width=""35%"" height=""75%""></img></td>
  </tr>
</table>
  ",79.0,1.0,,,,,,,,,,,,,,,,,,,,,,,,,,
207,0,,html-keyboard-response,207,516481,0.0-7.10-1.10,4emcdige0g1,2022-09-16 18:27:43.642,6111ad7c064a7c16eeb2fb77,1,60,17,30,10,21,Female,592.3999999762,,"
  <table>
  <tr height=300>
    <td width=300 height=300><img src=""static/images/cards/back_of_red_stars.svg"" width=""175px"" height=""250px""></img></td>
    <td width=300 height=300><img src=""static/images/cards/back_of_red_stars.svg"" width=""175px"" height=""250px""></img></td>
  </tr>
  <tr height=200>
    <td width=300><img src=""static/images/keys/z.svg"" width=""35%"" height=""75%""></img></td>
    <td width=300><img src=""static/images/keys/m.svg"" width=""35%"" height=""75%""></img></td>
  </tr>
</table>
  ",77.0,1.0,,,,,,,,,,,,,,,,,,,,,,,,,,
208,0,,html-keyboard-response,208,517983,0.0-7.10-2.10,4emcdige0g1,2022-09-16 18:27:43.642,6111ad7c064a7c16eeb2fb77,1,60,17,30,10,21,Female,,,"
  <table>
  <tr height=300>
    <td width=300 height=300><img src=""static/images/cards/back_of_red_stars.svg"" width=""175px"" height=""250px""></img></td>
    <td width=300 height=300><img src=""static/images/cards/8_of_red_stars.svg"" width=""175px"" height=""250px""></img></td>
  </tr>
  <tr height=200>
    <td width=300><img src=""static/images/keys/z.svg"" width=""35%"" height=""75%""></img></td>
    <td width=300><img src=""static/images/keys/m.svg"" width=""35%"" height=""75%""></img></td>
  </tr>
</table>
  ",,,,,,,,,,,,,,,,,,,,,,,,,,,,
209,0,,html-keyboard-response,209,519489,0.0-7.10-3.10,4emcdige0g1,2022-09-16 18:27:43.642,6111ad7c064a7c16eeb2fb77,1,60,17,30,10,21,Female,,,"<p style=""font-size:50px"">You win!
+10 points this round!</p>",,,,,,,,,,,,,,,,,,,,,,,,,,,,
210,0,,html-keyboard-response,210,519998,0.0-7.10-4.10,4emcdige0g1,2022-09-16 18:27:43.642,6111ad7c064a7c16eeb2fb77,1,60,17,30,10,21,Female,,,,,,1.0,choice,10.0,A,C,red,red,moons,stars,A,C,C,red,stars,910.2999999523,1.0,0.0,NA,right,592.3999999762,8.0,1.0,1.0,,,
211,0,,html-keyboard-response,211,521145,0.0-7.11-0.11,4emcdige0g1,2022-09-16 18:27:43.642,6111ad7c064a7c16eeb2fb77,1,60,17,30,10,21,Female,1145.8000000715,,"
  <table>
  <tr height=300>
    <td width=300 height=300><img src=""static/images/cards/stack_of_red_moons.svg"" width=""175px"" height=""250px""></img></td>
    <td width=300 height=300><img src=""static/images/cards/stack_of_black_moons.svg"" width=""175px"" height=""250px""></img></td>
  </tr>
  <tr height=200>
    <td width=300><img src=""static/images/keys/w.svg"" width=""35%"" height=""75%""></img></td>
    <td width=300><img src=""static/images/keys/o.svg"" width=""35%"" height=""75%""></img></td>
  </tr>
</table>
  ",87.0,1.0,,,,,,,,,,,,,,,,,,,,,,,,,,
212,0,,html-keyboard-response,212,522258,0.0-7.11-1.11,4emcdige0g1,2022-09-16 18:27:43.642,6111ad7c064a7c16eeb2fb77,1,60,17,30,10,21,Female,612.0999999046,,"
  <table>
  <tr height=300>
    <td width=300 height=300><img src=""static/images/cards/back_of_red_moons.svg"" width=""175px"" height=""250px""></img></td>
    <td width=300 height=300><img src=""static/images/cards/back_of_red_moons.svg"" width=""175px"" height=""250px""></img></td>
  </tr>
  <tr height=200>
    <td width=300><img src=""static/images/keys/z.svg"" width=""35%"" height=""75%""></img></td>
    <td width=300><img src=""static/images/keys/m.svg"" width=""35%"" height=""75%""></img></td>
  </tr>
</table>
  ",90.0,1.0,,,,,,,,,,,,,,,,,,,,,,,,,,
213,0,,html-keyboard-response,213,523762,0.0-7.11-2.11,4emcdige0g1,2022-09-16 18:27:43.642,6111ad7c064a7c16eeb2fb77,1,60,17,30,10,21,Female,,,"
  <table>
  <tr height=300>
    <td width=300 height=300><img src=""static/images/cards/8_of_red_moons.svg"" width=""175px"" height=""250px""></img></td>
    <td width=300 height=300><img src=""static/images/cards/back_of_red_moons.svg"" width=""175px"" height=""250px""></img></td>
  </tr>
  <tr height=200>
    <td width=300><img src=""static/images/keys/z.svg"" width=""35%"" height=""75%""></img></td>
    <td width=300><img src=""static/images/keys/m.svg"" width=""35%"" height=""75%""></img></td>
  </tr>
</table>
  ",,,,,,,,,,,,,,,,,,,,,,,,,,,,
214,0,,html-keyboard-response,214,525269,0.0-7.11-3.11,4emcdige0g1,2022-09-16 18:27:43.642,6111ad7c064a7c16eeb2fb77,1,60,17,30,10,21,Female,,,"<p style=""font-size:50px"">You win!
+10 points this round!</p>",,,,,,,,,,,,,,,,,,,,,,,,,,,,
215,0,,html-keyboard-response,215,525779,0.0-7.11-4.11,4emcdige0g1,2022-09-16 18:27:43.642,6111ad7c064a7c16eeb2fb77,1,60,17,30,10,21,Female,,,,,,1.0,choice,11.0,A,B,red,black,moons,moons,A,B,A,red,moons,1145.8000000715,1.0,1.0,NA,left,612.0999999046,8.0,1.0,1.0,,,
216,0,,html-keyboard-response,216,526760,0.0-7.12-0.12,4emcdige0g1,2022-09-16 18:27:43.642,6111ad7c064a7c16eeb2fb77,1,60,17,30,10,21,Female,979.7000000477,,"
  <table>
  <tr height=300>
    <td width=300 height=300><img src=""static/images/cards/stack_of_black_moons.svg"" width=""175px"" height=""250px""></img></td>
    <td width=300 height=300><img src=""static/images/cards/stack_of_black_stars.svg"" width=""175px"" height=""250px""></img></td>
  </tr>
  <tr height=200>
    <td width=300><img src=""static/images/keys/w.svg"" width=""35%"" height=""75%""></img></td>
    <td width=300><img src=""static/images/keys/o.svg"" width=""35%"" height=""75%""></img></td>
  </tr>
</table>
  ",87.0,1.0,,,,,,,,,,,,,,,,,,,,,,,,,,
217,0,,html-keyboard-response,217,527762,0.0-7.12-1.12,4emcdige0g1,2022-09-16 18:27:43.642,6111ad7c064a7c16eeb2fb77,1,60,17,30,10,21,Female,499.3999999762,,"
  <table>
  <tr height=300>
    <td width=300 height=300><img src=""static/images/cards/back_of_black_moons.svg"" width=""175px"" height=""250px""></img></td>
    <td width=300 height=300><img src=""static/images/cards/back_of_black_moons.svg"" width=""175px"" height=""250px""></img></td>
  </tr>
  <tr height=200>
    <td width=300></td>
    <td width=300><img src=""static/images/keys/m.svg"" width=""35%"" height=""75%""></img></td>
  </tr>
</table>
  ",77.0,1.0,,,,,,,,,,,,,,,,,,,,,,,,,,
218,0,,html-keyboard-response,218,529268,0.0-7.12-2.12,4emcdige0g1,2022-09-16 18:27:43.642,6111ad7c064a7c16eeb2fb77,1,60,17,30,10,21,Female,,,"
  <table>
  <tr height=300>
    <td width=300 height=300><img src=""static/images/cards/back_of_black_moons.svg"" width=""175px"" height=""250px""></img></td>
    <td width=300 height=300><img src=""static/images/cards/2_of_black_moons.svg"" width=""175px"" height=""250px""></img></td>
  </tr>
  <tr height=200>
    <td width=300></td>
    <td width=300><img src=""static/images/keys/m.svg"" width=""35%"" height=""75%""></img></td>
  </tr>
</table>
  ",,,,,,,,,,,,,,,,,,,,,,,,,,,,
219,0,,html-keyboard-response,219,530775,0.0-7.12-3.12,4emcdige0g1,2022-09-16 18:27:43.642,6111ad7c064a7c16eeb2fb77,1,60,17,30,10,21,Female,,,"<p style=""font-size:50px"">You Lose!
No points this round.</p>",,,,,,,,,,,,,,,,,,,,,,,,,,,,
220,0,,html-keyboard-response,220,531283,0.0-7.12-4.12,4emcdige0g1,2022-09-16 18:27:43.642,6111ad7c064a7c16eeb2fb77,1,60,17,30,10,21,Female,,,,,,1.0,choice,12.0,B,D,black,black,moons,stars,B,D,B,black,moons,979.7000000477,0.0,1.0,0,right,499.3999999762,2.0,0.0,0.0,,,
221,0,,html-keyboard-response,221,532237,0.0-7.13-0.13,4emcdige0g1,2022-09-16 18:27:43.642,6111ad7c064a7c16eeb2fb77,1,60,17,30,10,21,Female,953.2000000477,,"
  <table>
  <tr height=300>
    <td width=300 height=300><img src=""static/images/cards/stack_of_black_stars.svg"" width=""175px"" height=""250px""></img></td>
    <td width=300 height=300><img src=""static/images/cards/stack_of_black_moons.svg"" width=""175px"" height=""250px""></img></td>
  </tr>
  <tr height=200>
    <td width=300><img src=""static/images/keys/w.svg"" width=""35%"" height=""75%""></img></td>
    <td width=300><img src=""static/images/keys/o.svg"" width=""35%"" height=""75%""></img></td>
  </tr>
</table>
  ",79.0,1.0,,,,,,,,,,,,,,,,,,,,,,,,,,
222,0,,html-keyboard-response,222,533282,0.0-7.13-1.13,4emcdige0g1,2022-09-16 18:27:43.642,6111ad7c064a7c16eeb2fb77,1,60,17,30,10,21,Female,539.1000000238,,"
  <table>
  <tr height=300>
    <td width=300 height=300><img src=""static/images/cards/back_of_black_moons.svg"" width=""175px"" height=""250px""></img></td>
    <td width=300 height=300><img src=""static/images/cards/back_of_black_moons.svg"" width=""175px"" height=""250px""></img></td>
  </tr>
  <tr height=200>
    <td width=300><img src=""static/images/keys/z.svg"" width=""35%"" height=""75%""></img></td>
    <td width=300></td>
  </tr>
</table>
  ",90.0,1.0,,,,,,,,,,,,,,,,,,,,,,,,,,
223,0,,html-keyboard-response,223,534788,0.0-7.13-2.13,4emcdige0g1,2022-09-16 18:27:43.642,6111ad7c064a7c16eeb2fb77,1,60,17,30,10,21,Female,,,"
  <table>
  <tr height=300>
    <td width=300 height=300><img src=""static/images/cards/9_of_black_moons.svg"" width=""175px"" height=""250px""></img></td>
    <td width=300 height=300><img src=""static/images/cards/back_of_black_moons.svg"" width=""175px"" height=""250px""></img></td>
  </tr>
  <tr height=200>
    <td width=300><img src=""static/images/keys/z.svg"" width=""35%"" height=""75%""></img></td>
    <td width=300></td>
  </tr>
</table>
  ",,,,,,,,,,,,,,,,,,,,,,,,,,,,
224,0,,html-keyboard-response,224,536293,0.0-7.13-3.13,4emcdige0g1,2022-09-16 18:27:43.642,6111ad7c064a7c16eeb2fb77,1,60,17,30,10,21,Female,,,"<p style=""font-size:50px"">You win!
+10 points this round!</p>",,,,,,,,,,,,,,,,,,,,,,,,,,,,
225,0,,html-keyboard-response,225,536800,0.0-7.13-4.13,4emcdige0g1,2022-09-16 18:27:43.642,6111ad7c064a7c16eeb2fb77,1,60,17,30,10,21,Female,,,,,,1.0,choice,13.0,B,D,black,black,stars,moons,D,B,B,black,moons,953.2000000477,0.0,1.0,1,left,539.1000000238,9.0,1.0,1.0,,,
226,0,,html-keyboard-response,226,537886,0.0-7.14-0.14,4emcdige0g1,2022-09-16 18:27:43.642,6111ad7c064a7c16eeb2fb77,1,60,17,30,10,21,Female,1084.6000000238,,"
  <table>
  <tr height=300>
    <td width=300 height=300><img src=""static/images/cards/stack_of_black_stars.svg"" width=""175px"" height=""250px""></img></td>
    <td width=300 height=300><img src=""static/images/cards/stack_of_red_stars.svg"" width=""175px"" height=""250px""></img></td>
  </tr>
  <tr height=200>
    <td width=300><img src=""static/images/keys/w.svg"" width=""35%"" height=""75%""></img></td>
    <td width=300><img src=""static/images/keys/o.svg"" width=""35%"" height=""75%""></img></td>
  </tr>
</table>
  ",79.0,1.0,,,,,,,,,,,,,,,,,,,,,,,,,,
227,0,,html-keyboard-response,227,538858,0.0-7.14-1.14,4emcdige0g1,2022-09-16 18:27:43.642,6111ad7c064a7c16eeb2fb77,1,60,17,30,10,21,Female,467.0,,"
  <table>
  <tr height=300>
    <td width=300 height=300><img src=""static/images/cards/back_of_red_stars.svg"" width=""175px"" height=""250px""></img></td>
    <td width=300 height=300><img src=""static/images/cards/back_of_red_stars.svg"" width=""175px"" height=""250px""></img></td>
  </tr>
  <tr height=200>
    <td width=300><img src=""static/images/keys/z.svg"" width=""35%"" height=""75%""></img></td>
    <td width=300><img src=""static/images/keys/m.svg"" width=""35%"" height=""75%""></img></td>
  </tr>
</table>
  ",77.0,1.0,,,,,,,,,,,,,,,,,,,,,,,,,,
228,0,,html-keyboard-response,228,540361,0.0-7.14-2.14,4emcdige0g1,2022-09-16 18:27:43.642,6111ad7c064a7c16eeb2fb77,1,60,17,30,10,21,Female,,,"
  <table>
  <tr height=300>
    <td width=300 height=300><img src=""static/images/cards/back_of_red_stars.svg"" width=""175px"" height=""250px""></img></td>
    <td width=300 height=300><img src=""static/images/cards/10_of_red_stars.svg"" width=""175px"" height=""250px""></img></td>
  </tr>
  <tr height=200>
    <td width=300><img src=""static/images/keys/z.svg"" width=""35%"" height=""75%""></img></td>
    <td width=300><img src=""static/images/keys/m.svg"" width=""35%"" height=""75%""></img></td>
  </tr>
</table>
  ",,,,,,,,,,,,,,,,,,,,,,,,,,,,
229,0,,html-keyboard-response,229,541872,0.0-7.14-3.14,4emcdige0g1,2022-09-16 18:27:43.642,6111ad7c064a7c16eeb2fb77,1,60,17,30,10,21,Female,,,"<p style=""font-size:50px"">You win!
+10 points this round!</p>",,,,,,,,,,,,,,,,,,,,,,,,,,,,
230,0,,html-keyboard-response,230,542379,0.0-7.14-4.14,4emcdige0g1,2022-09-16 18:27:43.642,6111ad7c064a7c16eeb2fb77,1,60,17,30,10,21,Female,,,,,,1.0,choice,14.0,C,D,black,red,stars,stars,D,C,C,red,stars,1084.6000000238,1.0,0.0,NA,right,467.0,10.0,1.0,1.0,,,
231,0,,html-keyboard-response,231,543149,0.0-7.15-0.15,4emcdige0g1,2022-09-16 18:27:43.642,6111ad7c064a7c16eeb2fb77,1,60,17,30,10,21,Female,768.3000000715,,"
  <table>
  <tr height=300>
    <td width=300 height=300><img src=""static/images/cards/stack_of_red_bolts.svg"" width=""175px"" height=""250px""></img></td>
    <td width=300 height=300><img src=""static/images/cards/stack_of_black_moons.svg"" width=""175px"" height=""250px""></img></td>
  </tr>
  <tr height=200>
    <td width=300><img src=""static/images/keys/w.svg"" width=""35%"" height=""75%""></img></td>
    <td width=300><img src=""static/images/keys/o.svg"" width=""35%"" height=""75%""></img></td>
  </tr>
</table>
  ",87.0,1.0,,,,,,,,,,,,,,,,,,,,,,,,,,
232,0,,html-keyboard-response,232,544022,0.0-7.15-1.15,4emcdige0g1,2022-09-16 18:27:43.642,6111ad7c064a7c16eeb2fb77,1,60,17,30,10,21,Female,367.3999999762,,"
  <table>
  <tr height=300>
    <td width=300 height=300><img src=""static/images/cards/back_of_red_bolts.svg"" width=""175px"" height=""250px""></img></td>
    <td width=300 height=300><img src=""static/images/cards/back_of_red_bolts.svg"" width=""175px"" height=""250px""></img></td>
  </tr>
  <tr height=200>
    <td width=300><img src=""static/images/keys/z.svg"" width=""35%"" height=""75%""></img></td>
    <td width=300><img src=""static/images/keys/m.svg"" width=""35%"" height=""75%""></img></td>
  </tr>
</table>
  ",90.0,1.0,,,,,,,,,,,,,,,,,,,,,,,,,,
233,0,,html-keyboard-response,233,545523,0.0-7.15-2.15,4emcdige0g1,2022-09-16 18:27:43.642,6111ad7c064a7c16eeb2fb77,1,60,17,30,10,21,Female,,,"
  <table>
  <tr height=300>
    <td width=300 height=300><img src=""static/images/cards/3_of_red_bolts.svg"" width=""175px"" height=""250px""></img></td>
    <td width=300 height=300><img src=""static/images/cards/back_of_red_bolts.svg"" width=""175px"" height=""250px""></img></td>
  </tr>
  <tr height=200>
    <td width=300><img src=""static/images/keys/z.svg"" width=""35%"" height=""75%""></img></td>
    <td width=300><img src=""static/images/keys/m.svg"" width=""35%"" height=""75%""></img></td>
  </tr>
</table>
  ",,,,,,,,,,,,,,,,,,,,,,,,,,,,
234,0,,html-keyboard-response,234,547034,0.0-7.15-3.15,4emcdige0g1,2022-09-16 18:27:43.642,6111ad7c064a7c16eeb2fb77,1,60,17,30,10,21,Female,,,"<p style=""font-size:50px"">You win!
+10 points this round!</p>",,,,,,,,,,,,,,,,,,,,,,,,,,,,
235,0,,html-keyboard-response,235,547544,0.0-7.15-4.15,4emcdige0g1,2022-09-16 18:27:43.642,6111ad7c064a7c16eeb2fb77,1,60,17,30,10,21,Female,,,,,,1.0,choice,15.0,B,Xc,red,black,bolts,moons,Xc,B,Xc,red,bolts,768.3000000715,1.0,0.0,NA,left,367.3999999762,3.0,0.0,1.0,,,
236,0,,html-keyboard-response,236,548578,0.0-7.16-0.16,4emcdige0g1,2022-09-16 18:27:43.642,6111ad7c064a7c16eeb2fb77,1,60,17,30,10,21,Female,1032.3999999762,,"
  <table>
  <tr height=300>
    <td width=300 height=300><img src=""static/images/cards/stack_of_black_moons.svg"" width=""175px"" height=""250px""></img></td>
    <td width=300 height=300><img src=""static/images/cards/stack_of_red_stars.svg"" width=""175px"" height=""250px""></img></td>
  </tr>
  <tr height=200>
    <td width=300><img src=""static/images/keys/w.svg"" width=""35%"" height=""75%""></img></td>
    <td width=300><img src=""static/images/keys/o.svg"" width=""35%"" height=""75%""></img></td>
  </tr>
</table>
  ",79.0,1.0,,,,,,,,,,,,,,,,,,,,,,,,,,
237,0,,html-keyboard-response,237,549547,0.0-7.16-1.16,4emcdige0g1,2022-09-16 18:27:43.642,6111ad7c064a7c16eeb2fb77,1,60,17,30,10,21,Female,462.7000000477,,"
  <table>
  <tr height=300>
    <td width=300 height=300><img src=""static/images/cards/back_of_red_stars.svg"" width=""175px"" height=""250px""></img></td>
