,index,success,trial_type,trial_index,time_elapsed,internal_node_id,subject,date,prol_id,ctbl,sense_of_control_A,sense_of_control_B,sense_of_control_C,sense_of_control_D,age,gender,rt,url,stimulus,key_press,npress,is_data_trial,phase,trial,deck1,deck2,col1,col2,sym1,sym2,deck_l,deck_r,chosen_deck,chosen_col,chosen_sym,deck_rt,choose_choice,mutual_info,hidden_key,chosen_card,card_rt,player_num,win_card,outcome,mock_rating,response,responses
0,0,1.0,fullscreen,0,9231,0.0-0.0,0p80ze3jnx3h,2022-09-19 15:32:34.064,59102d52f601090001e80b82,2,59,0,38,0,24,Male,,,,,,,,,,,,,,,,,,,,,,,,,,,,,,,
1,0,,external-html,1,28356,0.0-1.0,0p80ze3jnx3h,2022-09-19 15:32:34.064,59102d52f601090001e80b82,2,59,0,38,0,24,Male,19070.8000000119,static/js/sub/consent.html,,,,,,,,,,,,,,,,,,,,,,,,,,,,,
2,0,,call-function,2,28357,0.0-2.0,0p80ze3jnx3h,2022-09-19 15:32:34.064,59102d52f601090001e80b82,2,59,0,38,0,24,Male,,,,,,,,,,,,,,,,,,,,,,,,,,,,,,,
3,0,,image-keyboard-response,3,39063,0.0-3.0-0.0,0p80ze3jnx3h,2022-09-19 15:32:34.064,59102d52f601090001e80b82,2,59,0,38,0,24,Male,10704.7999999821,,static/images/instructions_CB_2/Slide1.png,39.0,,,,,,,,,,,,,,,,,,,,,,,,,,,
4,0,,image-keyboard-response,4,63983,0.0-3.1-0.1,0p80ze3jnx3h,2022-09-19 15:32:34.064,59102d52f601090001e80b82,2,59,0,38,0,24,Male,24919.7999999821,,static/images/instructions_CB_2/Slide2.png,39.0,,,,,,,,,,,,,,,,,,,,,,,,,,,
5,0,,image-keyboard-response,5,67435,0.0-3.2-0.2,0p80ze3jnx3h,2022-09-19 15:32:34.064,59102d52f601090001e80b82,2,59,0,38,0,24,Male,3451.8000000119,,static/images/instructions_CB_2/Slide3.png,39.0,,,,,,,,,,,,,,,,,,,,,,,,,,,
6,0,,image-keyboard-response,6,75400,0.0-3.3-0.3,0p80ze3jnx3h,2022-09-19 15:32:34.064,59102d52f601090001e80b82,2,59,0,38,0,24,Male,7963.599999994,,static/images/instructions_CB_2/Slide4.png,39.0,,,,,,,,,,,,,,,,,,,,,,,,,,,
7,0,,image-keyboard-response,7,80061,0.0-3.4-0.4,0p80ze3jnx3h,2022-09-19 15:32:34.064,59102d52f601090001e80b82,2,59,0,38,0,24,Male,4661.1000000238,,static/images/instructions_CB_2/Slide5.png,39.0,,,,,,,,,,,,,,,,,,,,,,,,,,,
8,0,,image-keyboard-response,8,82896,0.0-3.5-0.5,0p80ze3jnx3h,2022-09-19 15:32:34.064,59102d52f601090001e80b82,2,59,0,38,0,24,Male,2834.5,,static/images/instructions_CB_2/Slide6.png,39.0,,,,,,,,,,,,,,,,,,,,,,,,,,,
9,0,,image-keyboard-response,9,87534,0.0-3.6-0.6,0p80ze3jnx3h,2022-09-19 15:32:34.064,59102d52f601090001e80b82,2,59,0,38,0,24,Male,4636.599999994,,static/images/instructions_CB_2/Slide7.png,39.0,,,,,,,,,,,,,,,,,,,,,,,,,,,
10,0,,image-keyboard-response,10,104520,0.0-3.7-0.7,0p80ze3jnx3h,2022-09-19 15:32:34.064,59102d52f601090001e80b82,2,59,0,38,0,24,Male,16985.3999999762,,static/images/instructions_CB_2/Slide8.png,39.0,,,,,,,,,,,,,,,,,,,,,,,,,,,
11,0,,image-keyboard-response,11,108784,0.0-3.8-0.8,0p80ze3jnx3h,2022-09-19 15:32:34.064,59102d52f601090001e80b82,2,59,0,38,0,24,Male,4263.2000000179,,static/images/instructions_CB_2/Slide9.png,39.0,,,,,,,,,,,,,,,,,,,,,,,,,,,
12,0,,image-keyboard-response,12,123028,0.0-3.9-0.9,0p80ze3jnx3h,2022-09-19 15:32:34.064,59102d52f601090001e80b82,2,59,0,38,0,24,Male,14243.599999994,,static/images/instructions_CB_2/Slide10.png,39.0,,,,,,,,,,,,,,,,,,,,,,,,,,,
13,0,,image-keyboard-response,13,130682,0.0-3.10-0.10,0p80ze3jnx3h,2022-09-19 15:32:34.064,59102d52f601090001e80b82,2,59,0,38,0,24,Male,7653.1000000238,,static/images/instructions_CB_2/Slide11.png,39.0,,,,,,,,,,,,,,,,,,,,,,,,,,,
14,0,,image-keyboard-response,14,149021,0.0-3.11-0.11,0p80ze3jnx3h,2022-09-19 15:32:34.064,59102d52f601090001e80b82,2,59,0,38,0,24,Male,18338.8000000119,,static/images/instructions_CB_2/Slide12.png,39.0,,,,,,,,,,,,,,,,,,,,,,,,,,,
15,0,,image-keyboard-response,15,160814,0.0-3.12-0.12,0p80ze3jnx3h,2022-09-19 15:32:34.064,59102d52f601090001e80b82,2,59,0,38,0,24,Male,11792.5,,static/images/instructions_CB_2/Slide13.png,39.0,,,,,,,,,,,,,,,,,,,,,,,,,,,
16,0,,image-keyboard-response,16,170321,0.0-3.13-0.13,0p80ze3jnx3h,2022-09-19 15:32:34.064,59102d52f601090001e80b82,2,59,0,38,0,24,Male,9506.1999999881,,static/images/instructions_CB_2/Slide14.png,37.0,,,,,,,,,,,,,,,,,,,,,,,,,,,
17,0,,image-keyboard-response,17,175311,0.0-3.14-0.14,0p80ze3jnx3h,2022-09-19 15:32:34.064,59102d52f601090001e80b82,2,59,0,38,0,24,Male,4989.7999999821,,static/images/instructions_CB_2/Slide13.png,39.0,,,,,,,,,,,,,,,,,,,,,,,,,,,
18,0,,image-keyboard-response,18,177047,0.0-3.15-0.15,0p80ze3jnx3h,2022-09-19 15:32:34.064,59102d52f601090001e80b82,2,59,0,38,0,24,Male,1734.8999999762,,static/images/instructions_CB_2/Slide14.png,39.0,,,,,,,,,,,,,,,,,,,,,,,,,,,
19,0,,image-keyboard-response,19,188420,0.0-3.16-0.16,0p80ze3jnx3h,2022-09-19 15:32:34.064,59102d52f601090001e80b82,2,59,0,38,0,24,Male,11372.6999999881,,static/images/instructions_CB_2/Slide15.png,39.0,,,,,,,,,,,,,,,,,,,,,,,,,,,
20,0,,image-keyboard-response,20,192929,0.0-3.17-0.17,0p80ze3jnx3h,2022-09-19 15:32:34.064,59102d52f601090001e80b82,2,59,0,38,0,24,Male,4507.900000006,,static/images/instructions_CB_2/Slide16.png,39.0,,,,,,,,,,,,,,,,,,,,,,,,,,,
21,0,,image-keyboard-response,21,198995,0.0-3.18-0.18,0p80ze3jnx3h,2022-09-19 15:32:34.064,59102d52f601090001e80b82,2,59,0,38,0,24,Male,6065.6999999881,,static/images/instructions_CB_2/Slide17.png,39.0,,,,,,,,,,,,,,,,,,,,,,,,,,,
22,0,,image-keyboard-response,22,547707,0.0-3.19-0.19,0p80ze3jnx3h,2022-09-19 15:32:34.064,59102d52f601090001e80b82,2,59,0,38,0,24,Male,348711.1999999881,,static/images/instructions_CB_2/Slide18.png,39.0,,,,,,,,,,,,,,,,,,,,,,,,,,,
23,0,,image-keyboard-response,23,566114,0.0-3.20-0.20,0p80ze3jnx3h,2022-09-19 15:32:34.064,59102d52f601090001e80b82,2,59,0,38,0,24,Male,18406.400000006,,static/images/instructions_CB_2/Slide19.png,39.0,,,,,,,,,,,,,,,,,,,,,,,,,,,
24,0,,html-keyboard-response,24,567619,0.0-4.0-0.0,0p80ze3jnx3h,2022-09-19 15:32:34.064,59102d52f601090001e80b82,2,59,0,38,0,24,Male,,,"<img src=""static/images/cards/stack_of_black_stars.svg"" width=""175px"" height=""250px""></img>",,,,,,,,,,,,,,,,,,,,,,,,,,,,
25,0,,html-keyboard-response,25,569683,0.0-4.0-1.0,0p80ze3jnx3h,2022-09-19 15:32:34.064,59102d52f601090001e80b82,2,59,0,38,0,24,Male,1550.900000006,,"
  <table>
  <tr height=300>
    <td width=300 height=300><img src=""static/images/cards/back_of_black_stars.svg"" width=""175px"" height=""250px""></img></td>
    <td width=300 height=300><img src=""static/images/cards/back_of_black_stars.svg"" width=""175px"" height=""250px""></img></td>
  </tr>
  <tr height=200>
    <td width=300><img src=""static/images/keys/z.svg"" width=""35%"" height=""75%""></img></td>
    <td width=300><img src=""static/images/keys/m.svg"" width=""35%"" height=""75%""></img></td>
  </tr>
</table>
  ",77.0,1.0,,,,,,,,,,,,,,,,,,,,,,,,,,
26,0,,html-keyboard-response,26,571198,0.0-4.0-2.0,0p80ze3jnx3h,2022-09-19 15:32:34.064,59102d52f601090001e80b82,2,59,0,38,0,24,Male,,,"
  <table>
  <tr height=300>
    <td width=300 height=300><img src=""static/images/cards/back_of_black_stars.svg"" width=""175px"" height=""250px""></img></td>
    <td width=300 height=300><img src=""static/images/cards/8_of_black_stars.svg"" width=""175px"" height=""250px""></img></td>
  </tr>
  <tr height=200>
    <td width=300><img src=""static/images/keys/z.svg"" width=""35%"" height=""75%""></img></td>
    <td width=300><img src=""static/images/keys/m.svg"" width=""35%"" height=""75%""></img></td>
  </tr>
</table>
  ",,,,,,,,,,,,,,,,,,,,,,,,,,,,
27,0,,html-keyboard-response,27,572720,0.0-4.0-3.0,0p80ze3jnx3h,2022-09-19 15:32:34.064,59102d52f601090001e80b82,2,59,0,38,0,24,Male,,,"<p style=""font-size:50px"">You win!
+10 points this round!</p>",,,,,,,,,,,,,,,,,,,,,,,,,,,,
28,0,,html-keyboard-response,28,573231,0.0-4.0-4.0,0p80ze3jnx3h,2022-09-19 15:32:34.064,59102d52f601090001e80b82,2,59,0,38,0,24,Male,,,,,,1.0,learning,0.0,A,,black,,stars,,,,A,black,stars,,1.0,1.0,NA,right,1550.900000006,8.0,1.0,1.0,,,
29,0,,html-keyboard-response,29,574741,0.0-4.1-0.1,0p80ze3jnx3h,2022-09-19 15:32:34.064,59102d52f601090001e80b82,2,59,0,38,0,24,Male,,,"<img src=""static/images/cards/stack_of_red_stars.svg"" width=""175px"" height=""250px""></img>",,,,,,,,,,,,,,,,,,,,,,,,,,,,
30,0,,html-keyboard-response,30,576063,0.0-4.1-1.1,0p80ze3jnx3h,2022-09-19 15:32:34.064,59102d52f601090001e80b82,2,59,0,38,0,24,Male,811.400000006,,"
  <table>
  <tr height=300>
    <td width=300 height=300><img src=""static/images/cards/back_of_red_stars.svg"" width=""175px"" height=""250px""></img></td>
    <td width=300 height=300><img src=""static/images/cards/back_of_red_stars.svg"" width=""175px"" height=""250px""></img></td>
  </tr>
  <tr height=200>
    <td width=300><img src=""static/images/keys/z.svg"" width=""35%"" height=""75%""></img></td>
    <td width=300></td>
  </tr>
</table>
  ",90.0,1.0,,,,,,,,,,,,,,,,,,,,,,,,,,
31,0,,html-keyboard-response,31,577569,0.0-4.1-2.1,0p80ze3jnx3h,2022-09-19 15:32:34.064,59102d52f601090001e80b82,2,59,0,38,0,24,Male,,,"
  <table>
  <tr height=300>
    <td width=300 height=300><img src=""static/images/cards/1_of_red_stars.svg"" width=""175px"" height=""250px""></img></td>
    <td width=300 height=300><img src=""static/images/cards/back_of_red_stars.svg"" width=""175px"" height=""250px""></img></td>
  </tr>
  <tr height=200>
    <td width=300><img src=""static/images/keys/z.svg"" width=""35%"" height=""75%""></img></td>
    <td width=300></td>
  </tr>
</table>
  ",,,,,,,,,,,,,,,,,,,,,,,,,,,,
32,0,,html-keyboard-response,32,579088,0.0-4.1-3.1,0p80ze3jnx3h,2022-09-19 15:32:34.064,59102d52f601090001e80b82,2,59,0,38,0,24,Male,,,"<p style=""font-size:50px"">You Lose!
No points this round.</p>",,,,,,,,,,,,,,,,,,,,,,,,,,,,
33,0,,html-keyboard-response,33,579598,0.0-4.1-4.1,0p80ze3jnx3h,2022-09-19 15:32:34.064,59102d52f601090001e80b82,2,59,0,38,0,24,Male,,,,,,1.0,learning,1.0,B,,red,,stars,,,,B,red,stars,,0.0,1.0,1,left,811.400000006,1.0,0.0,0.0,,,
34,0,,html-keyboard-response,34,581107,0.0-4.2-0.2,0p80ze3jnx3h,2022-09-19 15:32:34.064,59102d52f601090001e80b82,2,59,0,38,0,24,Male,,,"<img src=""static/images/cards/stack_of_black_moons.svg"" width=""175px"" height=""250px""></img>",,,,,,,,,,,,,,,,,,,,,,,,,,,,
35,0,,html-keyboard-response,35,583059,0.0-4.2-1.2,0p80ze3jnx3h,2022-09-19 15:32:34.064,59102d52f601090001e80b82,2,59,0,38,0,24,Male,1442.1999999881,,"
  <table>
  <tr height=300>
    <td width=300 height=300><img src=""static/images/cards/back_of_black_moons.svg"" width=""175px"" height=""250px""></img></td>
    <td width=300 height=300><img src=""static/images/cards/back_of_black_moons.svg"" width=""175px"" height=""250px""></img></td>
  </tr>
  <tr height=200>
    <td width=300><img src=""static/images/keys/z.svg"" width=""35%"" height=""75%""></img></td>
    <td width=300><img src=""static/images/keys/m.svg"" width=""35%"" height=""75%""></img></td>
  </tr>
</table>
  ",77.0,1.0,,,,,,,,,,,,,,,,,,,,,,,,,,
36,0,,html-keyboard-response,36,584561,0.0-4.2-2.2,0p80ze3jnx3h,2022-09-19 15:32:34.064,59102d52f601090001e80b82,2,59,0,38,0,24,Male,,,"
  <table>
  <tr height=300>
    <td width=300 height=300><img src=""static/images/cards/back_of_black_moons.svg"" width=""175px"" height=""250px""></img></td>
    <td width=300 height=300><img src=""static/images/cards/4_of_black_moons.svg"" width=""175px"" height=""250px""></img></td>
  </tr>
  <tr height=200>
    <td width=300><img src=""static/images/keys/z.svg"" width=""35%"" height=""75%""></img></td>
    <td width=300><img src=""static/images/keys/m.svg"" width=""35%"" height=""75%""></img></td>
  </tr>
</table>
  ",,,,,,,,,,,,,,,,,,,,,,,,,,,,
37,0,,html-keyboard-response,37,586083,0.0-4.2-3.2,0p80ze3jnx3h,2022-09-19 15:32:34.064,59102d52f601090001e80b82,2,59,0,38,0,24,Male,,,"<p style=""font-size:50px"">You Lose!
No points this round.</p>",,,,,,,,,,,,,,,,,,,,,,,,,,,,
38,0,,html-keyboard-response,38,586596,0.0-4.2-4.2,0p80ze3jnx3h,2022-09-19 15:32:34.064,59102d52f601090001e80b82,2,59,0,38,0,24,Male,,,,,,1.0,learning,2.0,C,,black,,moons,,,,C,black,moons,,1.0,0.0,NA,right,1442.1999999881,4.0,0.0,0.0,,,
39,0,,html-keyboard-response,39,588101,0.0-4.3-0.3,0p80ze3jnx3h,2022-09-19 15:32:34.064,59102d52f601090001e80b82,2,59,0,38,0,24,Male,,,"<img src=""static/images/cards/stack_of_red_moons.svg"" width=""175px"" height=""250px""></img>",,,,,,,,,,,,,,,,,,,,,,,,,,,,
40,0,,html-keyboard-response,40,589451,0.0-4.3-1.3,0p80ze3jnx3h,2022-09-19 15:32:34.064,59102d52f601090001e80b82,2,59,0,38,0,24,Male,843.400000006,,"
  <table>
  <tr height=300>
    <td width=300 height=300><img src=""static/images/cards/back_of_red_moons.svg"" width=""175px"" height=""250px""></img></td>
    <td width=300 height=300><img src=""static/images/cards/back_of_red_moons.svg"" width=""175px"" height=""250px""></img></td>
  </tr>
  <tr height=200>
    <td width=300></td>
    <td width=300><img src=""static/images/keys/m.svg"" width=""35%"" height=""75%""></img></td>
  </tr>
</table>
  ",77.0,1.0,,,,,,,,,,,,,,,,,,,,,,,,,,
41,0,,html-keyboard-response,41,590961,0.0-4.3-2.3,0p80ze3jnx3h,2022-09-19 15:32:34.064,59102d52f601090001e80b82,2,59,0,38,0,24,Male,,,"
  <table>
  <tr height=300>
    <td width=300 height=300><img src=""static/images/cards/back_of_red_moons.svg"" width=""175px"" height=""250px""></img></td>
    <td width=300 height=300><img src=""static/images/cards/1_of_red_moons.svg"" width=""175px"" height=""250px""></img></td>
  </tr>
  <tr height=200>
    <td width=300></td>
    <td width=300><img src=""static/images/keys/m.svg"" width=""35%"" height=""75%""></img></td>
  </tr>
</table>
  ",,,,,,,,,,,,,,,,,,,,,,,,,,,,
42,0,,html-keyboard-response,42,592483,0.0-4.3-3.3,0p80ze3jnx3h,2022-09-19 15:32:34.064,59102d52f601090001e80b82,2,59,0,38,0,24,Male,,,"<p style=""font-size:50px"">You Lose!
No points this round.</p>",,,,,,,,,,,,,,,,,,,,,,,,,,,,
43,0,,html-keyboard-response,43,592997,0.0-4.3-4.3,0p80ze3jnx3h,2022-09-19 15:32:34.064,59102d52f601090001e80b82,2,59,0,38,0,24,Male,,,,,,1.0,learning,3.0,D,,red,,moons,,,,D,red,moons,,0.0,0.0,0,right,843.400000006,1.0,0.0,0.0,,,
44,0,,html-keyboard-response,44,594509,0.0-4.4-0.4,0p80ze3jnx3h,2022-09-19 15:32:34.064,59102d52f601090001e80b82,2,59,0,38,0,24,Male,,,"<img src=""static/images/cards/stack_of_red_bolts.svg"" width=""175px"" height=""250px""></img>",,,,,,,,,,,,,,,,,,,,,,,,,,,,
45,0,,html-keyboard-response,45,595993,0.0-4.4-1.4,0p80ze3jnx3h,2022-09-19 15:32:34.064,59102d52f601090001e80b82,2,59,0,38,0,24,Male,975.599999994,,"
  <table>
  <tr height=300>
    <td width=300 height=300><img src=""static/images/cards/back_of_red_bolts.svg"" width=""175px"" height=""250px""></img></td>
    <td width=300 height=300><img src=""static/images/cards/back_of_red_bolts.svg"" width=""175px"" height=""250px""></img></td>
  </tr>
  <tr height=200>
    <td width=300><img src=""static/images/keys/z.svg"" width=""35%"" height=""75%""></img></td>
    <td width=300><img src=""static/images/keys/m.svg"" width=""35%"" height=""75%""></img></td>
  </tr>
</table>
  ",77.0,1.0,,,,,,,,,,,,,,,,,,,,,,,,,,
46,0,,html-keyboard-response,46,597508,0.0-4.4-2.4,0p80ze3jnx3h,2022-09-19 15:32:34.064,59102d52f601090001e80b82,2,59,0,38,0,24,Male,,,"
  <table>
  <tr height=300>
    <td width=300 height=300><img src=""static/images/cards/back_of_red_bolts.svg"" width=""175px"" height=""250px""></img></td>
    <td width=300 height=300><img src=""static/images/cards/8_of_red_bolts.svg"" width=""175px"" height=""250px""></img></td>
  </tr>
  <tr height=200>
    <td width=300><img src=""static/images/keys/z.svg"" width=""35%"" height=""75%""></img></td>
    <td width=300><img src=""static/images/keys/m.svg"" width=""35%"" height=""75%""></img></td>
  </tr>
</table>
  ",,,,,,,,,,,,,,,,,,,,,,,,,,,,
47,0,,html-keyboard-response,47,599031,0.0-4.4-3.4,0p80ze3jnx3h,2022-09-19 15:32:34.064,59102d52f601090001e80b82,2,59,0,38,0,24,Male,,,"<p style=""font-size:50px"">You win!
+10 points this round!</p>",,,,,,,,,,,,,,,,,,,,,,,,,,,,
48,0,,html-keyboard-response,48,599540,0.0-4.4-4.4,0p80ze3jnx3h,2022-09-19 15:32:34.064,59102d52f601090001e80b82,2,59,0,38,0,24,Male,,,,,,1.0,learning,4.0,Xc,,red,,bolts,,,,Xc,red,bolts,,1.0,0.0,NA,right,975.599999994,8.0,1.0,1.0,,,
49,0,,html-keyboard-response,49,601047,0.0-4.5-0.5,0p80ze3jnx3h,2022-09-19 15:32:34.064,59102d52f601090001e80b82,2,59,0,38,0,24,Male,,,"<img src=""static/images/cards/stack_of_black_bolts.svg"" width=""175px"" height=""250px""></img>",,,,,,,,,,,,,,,,,,,,,,,,,,,,
50,0,,html-keyboard-response,50,602201,0.0-4.5-1.5,0p80ze3jnx3h,2022-09-19 15:32:34.064,59102d52f601090001e80b82,2,59,0,38,0,24,Male,647.1000000238,,"
  <table>
  <tr height=300>
    <td width=300 height=300><img src=""static/images/cards/back_of_black_bolts.svg"" width=""175px"" height=""250px""></img></td>
    <td width=300 height=300><img src=""static/images/cards/back_of_black_bolts.svg"" width=""175px"" height=""250px""></img></td>
  </tr>
  <tr height=200>
    <td width=300></td>
    <td width=300><img src=""static/images/keys/m.svg"" width=""35%"" height=""75%""></img></td>
  </tr>
</table>
  ",77.0,1.0,,,,,,,,,,,,,,,,,,,,,,,,,,
51,0,,html-keyboard-response,51,603715,0.0-4.5-2.5,0p80ze3jnx3h,2022-09-19 15:32:34.064,59102d52f601090001e80b82,2,59,0,38,0,24,Male,,,"
  <table>
  <tr height=300>
    <td width=300 height=300><img src=""static/images/cards/back_of_black_bolts.svg"" width=""175px"" height=""250px""></img></td>
    <td width=300 height=300><img src=""static/images/cards/7_of_black_bolts.svg"" width=""175px"" height=""250px""></img></td>
  </tr>
  <tr height=200>
    <td width=300></td>
    <td width=300><img src=""static/images/keys/m.svg"" width=""35%"" height=""75%""></img></td>
  </tr>
</table>
  ",,,,,,,,,,,,,,,,,,,,,,,,,,,,
52,0,,html-keyboard-response,52,605234,0.0-4.5-3.5,0p80ze3jnx3h,2022-09-19 15:32:34.064,59102d52f601090001e80b82,2,59,0,38,0,24,Male,,,"<p style=""font-size:50px"">You win!
+10 points this round!</p>",,,,,,,,,,,,,,,,,,,,,,,,,,,,
53,0,,html-keyboard-response,53,605747,0.0-4.5-4.5,0p80ze3jnx3h,2022-09-19 15:32:34.064,59102d52f601090001e80b82,2,59,0,38,0,24,Male,,,,,,1.0,learning,5.0,Xnc,,black,,bolts,,,,Xnc,black,bolts,,0.0,0.0,0,right,647.1000000238,7.0,1.0,1.0,,,
54,0,,html-keyboard-response,54,607251,0.0-4.6-0.6,0p80ze3jnx3h,2022-09-19 15:32:34.064,59102d52f601090001e80b82,2,59,0,38,0,24,Male,,,"<img src=""static/images/cards/stack_of_black_stars.svg"" width=""175px"" height=""250px""></img>",,,,,,,,,,,,,,,,,,,,,,,,,,,,
55,0,,html-keyboard-response,55,609395,0.0-4.6-1.6,0p80ze3jnx3h,2022-09-19 15:32:34.064,59102d52f601090001e80b82,2,59,0,38,0,24,Male,1639.8000000119,,"
  <table>
  <tr height=300>
    <td width=300 height=300><img src=""static/images/cards/back_of_black_stars.svg"" width=""175px"" height=""250px""></img></td>
    <td width=300 height=300><img src=""static/images/cards/back_of_black_stars.svg"" width=""175px"" height=""250px""></img></td>
  </tr>
  <tr height=200>
    <td width=300><img src=""static/images/keys/z.svg"" width=""35%"" height=""75%""></img></td>
    <td width=300><img src=""static/images/keys/m.svg"" width=""35%"" height=""75%""></img></td>
  </tr>
</table>
  ",77.0,1.0,,,,,,,,,,,,,,,,,,,,,,,,,,
56,0,,html-keyboard-response,56,610910,0.0-4.6-2.6,0p80ze3jnx3h,2022-09-19 15:32:34.064,59102d52f601090001e80b82,2,59,0,38,0,24,Male,,,"
  <table>
  <tr height=300>
    <td width=300 height=300><img src=""static/images/cards/back_of_black_stars.svg"" width=""175px"" height=""250px""></img></td>
    <td width=300 height=300><img src=""static/images/cards/8_of_black_stars.svg"" width=""175px"" height=""250px""></img></td>
  </tr>
  <tr height=200>
    <td width=300><img src=""static/images/keys/z.svg"" width=""35%"" height=""75%""></img></td>
    <td width=300><img src=""static/images/keys/m.svg"" width=""35%"" height=""75%""></img></td>
  </tr>
</table>
  ",,,,,,,,,,,,,,,,,,,,,,,,,,,,
57,0,,html-keyboard-response,57,612436,0.0-4.6-3.6,0p80ze3jnx3h,2022-09-19 15:32:34.064,59102d52f601090001e80b82,2,59,0,38,0,24,Male,,,"<p style=""font-size:50px"">You win!
+10 points this round!</p>",,,,,,,,,,,,,,,,,,,,,,,,,,,,
58,0,,html-keyboard-response,58,612950,0.0-4.6-4.6,0p80ze3jnx3h,2022-09-19 15:32:34.064,59102d52f601090001e80b82,2,59,0,38,0,24,Male,,,,,,1.0,learning,6.0,A,,black,,stars,,,,A,black,stars,,1.0,1.0,NA,right,1639.8000000119,8.0,1.0,1.0,,,
59,0,,html-keyboard-response,59,614454,0.0-4.7-0.7,0p80ze3jnx3h,2022-09-19 15:32:34.064,59102d52f601090001e80b82,2,59,0,38,0,24,Male,,,"<img src=""static/images/cards/stack_of_red_stars.svg"" width=""175px"" height=""250px""></img>",,,,,,,,,,,,,,,,,,,,,,,,,,,,
60,0,,html-keyboard-response,60,616212,0.0-4.7-1.7,0p80ze3jnx3h,2022-09-19 15:32:34.064,59102d52f601090001e80b82,2,59,0,38,0,24,Male,1249.0,,"
  <table>
  <tr height=300>
    <td width=300 height=300><img src=""static/images/cards/back_of_red_stars.svg"" width=""175px"" height=""250px""></img></td>
    <td width=300 height=300><img src=""static/images/cards/back_of_red_stars.svg"" width=""175px"" height=""250px""></img></td>
  </tr>
  <tr height=200>
    <td width=300></td>
    <td width=300><img src=""static/images/keys/m.svg"" width=""35%"" height=""75%""></img></td>
  </tr>
</table>
  ",77.0,1.0,,,,,,,,,,,,,,,,,,,,,,,,,,
61,0,,html-keyboard-response,61,617725,0.0-4.7-2.7,0p80ze3jnx3h,2022-09-19 15:32:34.064,59102d52f601090001e80b82,2,59,0,38,0,24,Male,,,"
  <table>
  <tr height=300>
    <td width=300 height=300><img src=""static/images/cards/back_of_red_stars.svg"" width=""175px"" height=""250px""></img></td>
    <td width=300 height=300><img src=""static/images/cards/9_of_red_stars.svg"" width=""175px"" height=""250px""></img></td>
  </tr>
  <tr height=200>
    <td width=300></td>
    <td width=300><img src=""static/images/keys/m.svg"" width=""35%"" height=""75%""></img></td>
  </tr>
</table>
  ",,,,,,,,,,,,,,,,,,,,,,,,,,,,
62,0,,html-keyboard-response,62,619245,0.0-4.7-3.7,0p80ze3jnx3h,2022-09-19 15:32:34.064,59102d52f601090001e80b82,2,59,0,38,0,24,Male,,,"<p style=""font-size:50px"">You win!
+10 points this round!</p>",,,,,,,,,,,,,,,,,,,,,,,,,,,,
63,0,,html-keyboard-response,63,619758,0.0-4.7-4.7,0p80ze3jnx3h,2022-09-19 15:32:34.064,59102d52f601090001e80b82,2,59,0,38,0,24,Male,,,,,,1.0,learning,7.0,B,,red,,stars,,,,B,red,stars,,0.0,1.0,0,right,1249.0,9.0,1.0,1.0,,,
64,0,,html-keyboard-response,64,621260,0.0-4.8-0.8,0p80ze3jnx3h,2022-09-19 15:32:34.064,59102d52f601090001e80b82,2,59,0,38,0,24,Male,,,"<img src=""static/images/cards/stack_of_black_moons.svg"" width=""175px"" height=""250px""></img>",,,,,,,,,,,,,,,,,,,,,,,,,,,,
65,0,,html-keyboard-response,65,622839,0.0-4.8-1.8,0p80ze3jnx3h,2022-09-19 15:32:34.064,59102d52f601090001e80b82,2,59,0,38,0,24,Male,1066.599999994,,"
  <table>
  <tr height=300>
    <td width=300 height=300><img src=""static/images/cards/back_of_black_moons.svg"" width=""175px"" height=""250px""></img></td>
    <td width=300 height=300><img src=""static/images/cards/back_of_black_moons.svg"" width=""175px"" height=""250px""></img></td>
  </tr>
  <tr height=200>
    <td width=300><img src=""static/images/keys/z.svg"" width=""35%"" height=""75%""></img></td>
    <td width=300><img src=""static/images/keys/m.svg"" width=""35%"" height=""75%""></img></td>
  </tr>
</table>
  ",90.0,1.0,,,,,,,,,,,,,,,,,,,,,,,,,,
66,0,,html-keyboard-response,66,624342,0.0-4.8-2.8,0p80ze3jnx3h,2022-09-19 15:32:34.064,59102d52f601090001e80b82,2,59,0,38,0,24,Male,,,"
  <table>
  <tr height=300>
    <td width=300 height=300><img src=""static/images/cards/6_of_black_moons.svg"" width=""175px"" height=""250px""></img></td>
    <td width=300 height=300><img src=""static/images/cards/back_of_black_moons.svg"" width=""175px"" height=""250px""></img></td>
  </tr>
  <tr height=200>
    <td width=300><img src=""static/images/keys/z.svg"" width=""35%"" height=""75%""></img></td>
    <td width=300><img src=""static/images/keys/m.svg"" width=""35%"" height=""75%""></img></td>
  </tr>
</table>
  ",,,,,,,,,,,,,,,,,,,,,,,,,,,,
67,0,,html-keyboard-response,67,625864,0.0-4.8-3.8,0p80ze3jnx3h,2022-09-19 15:32:34.064,59102d52f601090001e80b82,2,59,0,38,0,24,Male,,,"<p style=""font-size:50px"">You win!
+10 points this round!</p>",,,,,,,,,,,,,,,,,,,,,,,,,,,,
68,0,,html-keyboard-response,68,626381,0.0-4.8-4.8,0p80ze3jnx3h,2022-09-19 15:32:34.064,59102d52f601090001e80b82,2,59,0,38,0,24,Male,,,,,,1.0,learning,8.0,C,,black,,moons,,,,C,black,moons,,1.0,0.0,NA,left,1066.599999994,6.0,1.0,1.0,,,
69,0,,html-keyboard-response,69,627896,0.0-4.9-0.9,0p80ze3jnx3h,2022-09-19 15:32:34.064,59102d52f601090001e80b82,2,59,0,38,0,24,Male,,,"<img src=""static/images/cards/stack_of_red_moons.svg"" width=""175px"" height=""250px""></img>",,,,,,,,,,,,,,,,,,,,,,,,,,,,
70,0,,html-keyboard-response,70,629390,0.0-4.9-1.9,0p80ze3jnx3h,2022-09-19 15:32:34.064,59102d52f601090001e80b82,2,59,0,38,0,24,Male,984.7999999821,,"
  <table>
  <tr height=300>
    <td width=300 height=300><img src=""static/images/cards/back_of_red_moons.svg"" width=""175px"" height=""250px""></img></td>
    <td width=300 height=300><img src=""static/images/cards/back_of_red_moons.svg"" width=""175px"" height=""250px""></img></td>
  </tr>
  <tr height=200>
    <td width=300></td>
    <td width=300><img src=""static/images/keys/m.svg"" width=""35%"" height=""75%""></img></td>
  </tr>
</table>
  ",77.0,1.0,,,,,,,,,,,,,,,,,,,,,,,,,,
71,0,,html-keyboard-response,71,630892,0.0-4.9-2.9,0p80ze3jnx3h,2022-09-19 15:32:34.064,59102d52f601090001e80b82,2,59,0,38,0,24,Male,,,"
  <table>
  <tr height=300>
    <td width=300 height=300><img src=""static/images/cards/back_of_red_moons.svg"" width=""175px"" height=""250px""></img></td>
    <td width=300 height=300><img src=""static/images/cards/3_of_red_moons.svg"" width=""175px"" height=""250px""></img></td>
  </tr>
  <tr height=200>
    <td width=300></td>
    <td width=300><img src=""static/images/keys/m.svg"" width=""35%"" height=""75%""></img></td>
  </tr>
</table>
  ",,,,,,,,,,,,,,,,,,,,,,,,,,,,
72,0,,html-keyboard-response,72,632408,0.0-4.9-3.9,0p80ze3jnx3h,2022-09-19 15:32:34.064,59102d52f601090001e80b82,2,59,0,38,0,24,Male,,,"<p style=""font-size:50px"">You Lose!
No points this round.</p>",,,,,,,,,,,,,,,,,,,,,,,,,,,,
73,0,,html-keyboard-response,73,632917,0.0-4.9-4.9,0p80ze3jnx3h,2022-09-19 15:32:34.064,59102d52f601090001e80b82,2,59,0,38,0,24,Male,,,,,,1.0,learning,9.0,D,,red,,moons,,,,D,red,moons,,0.0,0.0,0,right,984.7999999821,3.0,0.0,0.0,,,
74,0,,html-keyboard-response,74,634425,0.0-4.10-0.10,0p80ze3jnx3h,2022-09-19 15:32:34.064,59102d52f601090001e80b82,2,59,0,38,0,24,Male,,,"<img src=""static/images/cards/stack_of_red_bolts.svg"" width=""175px"" height=""250px""></img>",,,,,,,,,,,,,,,,,,,,,,,,,,,,
75,0,,html-keyboard-response,75,636045,0.0-4.10-1.10,0p80ze3jnx3h,2022-09-19 15:32:34.064,59102d52f601090001e80b82,2,59,0,38,0,24,Male,1103.599999994,,"
  <table>
  <tr height=300>
    <td width=300 height=300><img src=""static/images/cards/back_of_red_bolts.svg"" width=""175px"" height=""250px""></img></td>
    <td width=300 height=300><img src=""static/images/cards/back_of_red_bolts.svg"" width=""175px"" height=""250px""></img></td>
  </tr>
  <tr height=200>
    <td width=300><img src=""static/images/keys/z.svg"" width=""35%"" height=""75%""></img></td>
    <td width=300><img src=""static/images/keys/m.svg"" width=""35%"" height=""75%""></img></td>
  </tr>
</table>
  ",90.0,1.0,,,,,,,,,,,,,,,,,,,,,,,,,,
76,0,,html-keyboard-response,76,637551,0.0-4.10-2.10,0p80ze3jnx3h,2022-09-19 15:32:34.064,59102d52f601090001e80b82,2,59,0,38,0,24,Male,,,"
  <table>
  <tr height=300>
    <td width=300 height=300><img src=""static/images/cards/3_of_red_bolts.svg"" width=""175px"" height=""250px""></img></td>
    <td width=300 height=300><img src=""static/images/cards/back_of_red_bolts.svg"" width=""175px"" height=""250px""></img></td>
  </tr>
  <tr height=200>
    <td width=300><img src=""static/images/keys/z.svg"" width=""35%"" height=""75%""></img></td>
    <td width=300><img src=""static/images/keys/m.svg"" width=""35%"" height=""75%""></img></td>
  </tr>
</table>
  ",,,,,,,,,,,,,,,,,,,,,,,,,,,,
77,0,,html-keyboard-response,77,639073,0.0-4.10-3.10,0p80ze3jnx3h,2022-09-19 15:32:34.064,59102d52f601090001e80b82,2,59,0,38,0,24,Male,,,"<p style=""font-size:50px"">You win!
+10 points this round!</p>",,,,,,,,,,,,,,,,,,,,,,,,,,,,
78,0,,html-keyboard-response,78,639590,0.0-4.10-4.10,0p80ze3jnx3h,2022-09-19 15:32:34.064,59102d52f601090001e80b82,2,59,0,38,0,24,Male,,,,,,1.0,learning,10.0,Xc,,red,,bolts,,,,Xc,red,bolts,,1.0,0.0,NA,left,1103.599999994,3.0,0.0,1.0,,,
79,0,,html-keyboard-response,79,641104,0.0-4.11-0.11,0p80ze3jnx3h,2022-09-19 15:32:34.064,59102d52f601090001e80b82,2,59,0,38,0,24,Male,,,"<img src=""static/images/cards/stack_of_black_bolts.svg"" width=""175px"" height=""250px""></img>",,,,,,,,,,,,,,,,,,,,,,,,,,,,
80,0,,html-keyboard-response,80,642416,0.0-4.11-1.11,0p80ze3jnx3h,2022-09-19 15:32:34.064,59102d52f601090001e80b82,2,59,0,38,0,24,Male,803.2999999821,,"
  <table>
  <tr height=300>
    <td width=300 height=300><img src=""static/images/cards/back_of_black_bolts.svg"" width=""175px"" height=""250px""></img></td>
    <td width=300 height=300><img src=""static/images/cards/back_of_black_bolts.svg"" width=""175px"" height=""250px""></img></td>
  </tr>
  <tr height=200>
    <td width=300><img src=""static/images/keys/z.svg"" width=""35%"" height=""75%""></img></td>
    <td width=300></td>
  </tr>
</table>
  ",90.0,1.0,,,,,,,,,,,,,,,,,,,,,,,,,,
81,0,,html-keyboard-response,81,643930,0.0-4.11-2.11,0p80ze3jnx3h,2022-09-19 15:32:34.064,59102d52f601090001e80b82,2,59,0,38,0,24,Male,,,"
  <table>
  <tr height=300>
    <td width=300 height=300><img src=""static/images/cards/2_of_black_bolts.svg"" width=""175px"" height=""250px""></img></td>
    <td width=300 height=300><img src=""static/images/cards/back_of_black_bolts.svg"" width=""175px"" height=""250px""></img></td>
  </tr>
  <tr height=200>
    <td width=300><img src=""static/images/keys/z.svg"" width=""35%"" height=""75%""></img></td>
    <td width=300></td>
  </tr>
</table>
  ",,,,,,,,,,,,,,,,,,,,,,,,,,,,
82,0,,html-keyboard-response,82,645451,0.0-4.11-3.11,0p80ze3jnx3h,2022-09-19 15:32:34.064,59102d52f601090001e80b82,2,59,0,38,0,24,Male,,,"<p style=""font-size:50px"">You win!
+10 points this round!</p>",,,,,,,,,,,,,,,,,,,,,,,,,,,,
83,0,,html-keyboard-response,83,645962,0.0-4.11-4.11,0p80ze3jnx3h,2022-09-19 15:32:34.064,59102d52f601090001e80b82,2,59,0,38,0,24,Male,,,,,,1.0,learning,11.0,Xnc,,black,,bolts,,,,Xnc,black,bolts,,0.0,0.0,1,left,803.2999999821,2.0,0.0,1.0,,,
84,0,,html-keyboard-response,84,647465,0.0-4.12-0.12,0p80ze3jnx3h,2022-09-19 15:32:34.064,59102d52f601090001e80b82,2,59,0,38,0,24,Male,,,"<img src=""static/images/cards/stack_of_black_stars.svg"" width=""175px"" height=""250px""></img>",,,,,,,,,,,,,,,,,,,,,,,,,,,,
85,0,,html-keyboard-response,85,648808,0.0-4.12-1.12,0p80ze3jnx3h,2022-09-19 15:32:34.064,59102d52f601090001e80b82,2,59,0,38,0,24,Male,835.099999994,,"
  <table>
  <tr height=300>
    <td width=300 height=300><img src=""static/images/cards/back_of_black_stars.svg"" width=""175px"" height=""250px""></img></td>
    <td width=300 height=300><img src=""static/images/cards/back_of_black_stars.svg"" width=""175px"" height=""250px""></img></td>
  </tr>
  <tr height=200>
    <td width=300><img src=""static/images/keys/z.svg"" width=""35%"" height=""75%""></img></td>
    <td width=300><img src=""static/images/keys/m.svg"" width=""35%"" height=""75%""></img></td>
  </tr>
</table>
  ",77.0,1.0,,,,,,,,,,,,,,,,,,,,,,,,,,
86,0,,html-keyboard-response,86,650310,0.0-4.12-2.12,0p80ze3jnx3h,2022-09-19 15:32:34.064,59102d52f601090001e80b82,2,59,0,38,0,24,Male,,,"
  <table>
  <tr height=300>
    <td width=300 height=300><img src=""static/images/cards/back_of_black_stars.svg"" width=""175px"" height=""250px""></img></td>
    <td width=300 height=300><img src=""static/images/cards/3_of_black_stars.svg"" width=""175px"" height=""250px""></img></td>
  </tr>
  <tr height=200>
    <td width=300><img src=""static/images/keys/z.svg"" width=""35%"" height=""75%""></img></td>
    <td width=300><img src=""static/images/keys/m.svg"" width=""35%"" height=""75%""></img></td>
  </tr>
</table>
  ",,,,,,,,,,,,,,,,,,,,,,,,,,,,
87,0,,html-keyboard-response,87,651828,0.0-4.12-3.12,0p80ze3jnx3h,2022-09-19 15:32:34.064,59102d52f601090001e80b82,2,59,0,38,0,24,Male,,,"<p style=""font-size:50px"">You Lose!
No points this round.</p>",,,,,,,,,,,,,,,,,,,,,,,,,,,,
88,0,,html-keyboard-response,88,652341,0.0-4.12-4.12,0p80ze3jnx3h,2022-09-19 15:32:34.064,59102d52f601090001e80b82,2,59,0,38,0,24,Male,,,,,,1.0,learning,12.0,A,,black,,stars,,,,A,black,stars,,1.0,1.0,NA,right,835.099999994,3.0,0.0,0.0,,,
89,0,,html-keyboard-response,89,653856,0.0-4.13-0.13,0p80ze3jnx3h,2022-09-19 15:32:34.064,59102d52f601090001e80b82,2,59,0,38,0,24,Male,,,"<img src=""static/images/cards/stack_of_red_stars.svg"" width=""175px"" height=""250px""></img>",,,,,,,,,,,,,,,,,,,,,,,,,,,,
90,0,,html-keyboard-response,90,655128,0.0-4.13-1.13,0p80ze3jnx3h,2022-09-19 15:32:34.064,59102d52f601090001e80b82,2,59,0,38,0,24,Male,768.3999999762,,"
  <table>
  <tr height=300>
    <td width=300 height=300><img src=""static/images/cards/back_of_red_stars.svg"" width=""175px"" height=""250px""></img></td>
    <td width=300 height=300><img src=""static/images/cards/back_of_red_stars.svg"" width=""175px"" height=""250px""></img></td>
  </tr>
  <tr height=200>
    <td width=300></td>
    <td width=300><img src=""static/images/keys/m.svg"" width=""35%"" height=""75%""></img></td>
  </tr>
</table>
  ",77.0,1.0,,,,,,,,,,,,,,,,,,,,,,,,,,
91,0,,html-keyboard-response,91,656634,0.0-4.13-2.13,0p80ze3jnx3h,2022-09-19 15:32:34.064,59102d52f601090001e80b82,2,59,0,38,0,24,Male,,,"
  <table>
  <tr height=300>
    <td width=300 height=300><img src=""static/images/cards/back_of_red_stars.svg"" width=""175px"" height=""250px""></img></td>
    <td width=300 height=300><img src=""static/images/cards/9_of_red_stars.svg"" width=""175px"" height=""250px""></img></td>
  </tr>
  <tr height=200>
    <td width=300></td>
    <td width=300><img src=""static/images/keys/m.svg"" width=""35%"" height=""75%""></img></td>
  </tr>
</table>
  ",,,,,,,,,,,,,,,,,,,,,,,,,,,,
92,0,,html-keyboard-response,92,658156,0.0-4.13-3.13,0p80ze3jnx3h,2022-09-19 15:32:34.064,59102d52f601090001e80b82,2,59,0,38,0,24,Male,,,"<p style=""font-size:50px"">You win!
+10 points this round!</p>",,,,,,,,,,,,,,,,,,,,,,,,,,,,
93,0,,html-keyboard-response,93,658667,0.0-4.13-4.13,0p80ze3jnx3h,2022-09-19 15:32:34.064,59102d52f601090001e80b82,2,59,0,38,0,24,Male,,,,,,1.0,learning,13.0,B,,red,,stars,,,,B,red,stars,,0.0,1.0,0,right,768.3999999762,9.0,1.0,1.0,,,
94,0,,html-keyboard-response,94,660172,0.0-4.14-0.14,0p80ze3jnx3h,2022-09-19 15:32:34.064,59102d52f601090001e80b82,2,59,0,38,0,24,Male,,,"<img src=""static/images/cards/stack_of_black_moons.svg"" width=""175px"" height=""250px""></img>",,,,,,,,,,,,,,,,,,,,,,,,,,,,
95,0,,html-keyboard-response,95,661534,0.0-4.14-1.14,0p80ze3jnx3h,2022-09-19 15:32:34.064,59102d52f601090001e80b82,2,59,0,38,0,24,Male,855.3000000119,,"
  <table>
  <tr height=300>
    <td width=300 height=300><img src=""static/images/cards/back_of_black_moons.svg"" width=""175px"" height=""250px""></img></td>
    <td width=300 height=300><img src=""static/images/cards/back_of_black_moons.svg"" width=""175px"" height=""250px""></img></td>
  </tr>
  <tr height=200>
    <td width=300><img src=""static/images/keys/z.svg"" width=""35%"" height=""75%""></img></td>
    <td width=300><img src=""static/images/keys/m.svg"" width=""35%"" height=""75%""></img></td>
  </tr>
</table>
  ",90.0,1.0,,,,,,,,,,,,,,,,,,,,,,,,,,
96,0,,html-keyboard-response,96,663044,0.0-4.14-2.14,0p80ze3jnx3h,2022-09-19 15:32:34.064,59102d52f601090001e80b82,2,59,0,38,0,24,Male,,,"
  <table>
  <tr height=300>
    <td width=300 height=300><img src=""static/images/cards/7_of_black_moons.svg"" width=""175px"" height=""250px""></img></td>
    <td width=300 height=300><img src=""static/images/cards/back_of_black_moons.svg"" width=""175px"" height=""250px""></img></td>
  </tr>
  <tr height=200>
    <td width=300><img src=""static/images/keys/z.svg"" width=""35%"" height=""75%""></img></td>
    <td width=300><img src=""static/images/keys/m.svg"" width=""35%"" height=""75%""></img></td>
  </tr>
</table>
  ",,,,,,,,,,,,,,,,,,,,,,,,,,,,
97,0,,html-keyboard-response,97,664559,0.0-4.14-3.14,0p80ze3jnx3h,2022-09-19 15:32:34.064,59102d52f601090001e80b82,2,59,0,38,0,24,Male,,,"<p style=""font-size:50px"">You Lose!
No points this round.</p>",,,,,,,,,,,,,,,,,,,,,,,,,,,,
98,0,,html-keyboard-response,98,665072,0.0-4.14-4.14,0p80ze3jnx3h,2022-09-19 15:32:34.064,59102d52f601090001e80b82,2,59,0,38,0,24,Male,,,,,,1.0,learning,14.0,C,,black,,moons,,,,C,black,moons,,1.0,0.0,NA,left,855.3000000119,7.0,1.0,0.0,,,
99,0,,html-keyboard-response,99,666580,0.0-4.15-0.15,0p80ze3jnx3h,2022-09-19 15:32:34.064,59102d52f601090001e80b82,2,59,0,38,0,24,Male,,,"<img src=""static/images/cards/stack_of_red_moons.svg"" width=""175px"" height=""250px""></img>",,,,,,,,,,,,,,,,,,,,,,,,,,,,
100,0,,html-keyboard-response,100,667868,0.0-4.15-1.15,0p80ze3jnx3h,2022-09-19 15:32:34.064,59102d52f601090001e80b82,2,59,0,38,0,24,Male,781.2999999821,,"
  <table>
  <tr height=300>
    <td width=300 height=300><img src=""static/images/cards/back_of_red_moons.svg"" width=""175px"" height=""250px""></img></td>
    <td width=300 height=300><img src=""static/images/cards/back_of_red_moons.svg"" width=""175px"" height=""250px""></img></td>
  </tr>
  <tr height=200>
    <td width=300><img src=""static/images/keys/z.svg"" width=""35%"" height=""75%""></img></td>
    <td width=300></td>
  </tr>
</table>
  ",90.0,1.0,,,,,,,,,,,,,,,,,,,,,,,,,,
101,0,,html-keyboard-response,101,669374,0.0-4.15-2.15,0p80ze3jnx3h,2022-09-19 15:32:34.064,59102d52f601090001e80b82,2,59,0,38,0,24,Male,,,"
  <table>
  <tr height=300>
    <td width=300 height=300><img src=""static/images/cards/10_of_red_moons.svg"" width=""175px"" height=""250px""></img></td>
    <td width=300 height=300><img src=""static/images/cards/back_of_red_moons.svg"" width=""175px"" height=""250px""></img></td>
  </tr>
  <tr height=200>
    <td width=300><img src=""static/images/keys/z.svg"" width=""35%"" height=""75%""></img></td>
    <td width=300></td>
  </tr>
</table>
  ",,,,,,,,,,,,,,,,,,,,,,,,,,,,
102,0,,html-keyboard-response,102,670889,0.0-4.15-3.15,0p80ze3jnx3h,2022-09-19 15:32:34.064,59102d52f601090001e80b82,2,59,0,38,0,24,Male,,,"<p style=""font-size:50px"">You Lose!
No points this round.</p>",,,,,,,,,,,,,,,,,,,,,,,,,,,,
103,0,,html-keyboard-response,103,671398,0.0-4.15-4.15,0p80ze3jnx3h,2022-09-19 15:32:34.064,59102d52f601090001e80b82,2,59,0,38,0,24,Male,,,,,,1.0,learning,15.0,D,,red,,moons,,,,D,red,moons,,0.0,0.0,1,left,781.2999999821,10.0,1.0,0.0,,,
104,0,,html-keyboard-response,104,672899,0.0-4.16-0.16,0p80ze3jnx3h,2022-09-19 15:32:34.064,59102d52f601090001e80b82,2,59,0,38,0,24,Male,,,"<img src=""static/images/cards/stack_of_red_bolts.svg"" width=""175px"" height=""250px""></img>",,,,,,,,,,,,,,,,,,,,,,,,,,,,
105,0,,html-keyboard-response,105,674247,0.0-4.16-1.16,0p80ze3jnx3h,2022-09-19 15:32:34.064,59102d52f601090001e80b82,2,59,0,38,0,24,Male,840.6999999881,,"
  <table>
  <tr height=300>
    <td width=300 height=300><img src=""static/images/cards/back_of_red_bolts.svg"" width=""175px"" height=""250px""></img></td>
    <td width=300 height=300><img src=""static/images/cards/back_of_red_bolts.svg"" width=""175px"" height=""250px""></img></td>
  </tr>
  <tr height=200>
    <td width=300><img src=""static/images/keys/z.svg"" width=""35%"" height=""75%""></img></td>
    <td width=300><img src=""static/images/keys/m.svg"" width=""35%"" height=""75%""></img></td>
  </tr>
</table>
  ",77.0,1.0,,,,,,,,,,,,,,,,,,,,,,,,,,
106,0,,html-keyboard-response,106,675762,0.0-4.16-2.16,0p80ze3jnx3h,2022-09-19 15:32:34.064,59102d52f601090001e80b82,2,59,0,38,0,24,Male,,,"
  <table>
  <tr height=300>
    <td width=300 height=300><img src=""static/images/cards/back_of_red_bolts.svg"" width=""175px"" height=""250px""></img></td>
    <td width=300 height=300><img src=""static/images/cards/3_of_red_bolts.svg"" width=""175px"" height=""250px""></img></td>
  </tr>
  <tr height=200>
    <td width=300><img src=""static/images/keys/z.svg"" width=""35%"" height=""75%""></img></td>
    <td width=300><img src=""static/images/keys/m.svg"" width=""35%"" height=""75%""></img></td>
  </tr>
</table>
  ",,,,,,,,,,,,,,,,,,,,,,,,,,,,
107,0,,html-keyboard-response,107,677283,0.0-4.16-3.16,0p80ze3jnx3h,2022-09-19 15:32:34.064,59102d52f601090001e80b82,2,59,0,38,0,24,Male,,,"<p style=""font-size:50px"">You win!
+10 points this round!</p>",,,,,,,,,,,,,,,,,,,,,,,,,,,,
108,0,,html-keyboard-response,108,677796,0.0-4.16-4.16,0p80ze3jnx3h,2022-09-19 15:32:34.064,59102d52f601090001e80b82,2,59,0,38,0,24,Male,,,,,,1.0,learning,16.0,Xc,,red,,bolts,,,,Xc,red,bolts,,1.0,0.0,NA,right,840.6999999881,3.0,0.0,1.0,,,
109,0,,html-keyboard-response,109,679302,0.0-4.17-0.17,0p80ze3jnx3h,2022-09-19 15:32:34.064,59102d52f601090001e80b82,2,59,0,38,0,24,Male,,,"<img src=""static/images/cards/stack_of_black_bolts.svg"" width=""175px"" height=""250px""></img>",,,,,,,,,,,,,,,,,,,,,,,,,,,,
110,0,,html-keyboard-response,110,680763,0.0-4.17-1.17,0p80ze3jnx3h,2022-09-19 15:32:34.064,59102d52f601090001e80b82,2,59,0,38,0,24,Male,949.8999999762,,"
  <table>
  <tr height=300>
    <td width=300 height=300><img src=""static/images/cards/back_of_black_bolts.svg"" width=""175px"" height=""250px""></img></td>
    <td width=300 height=300><img src=""static/images/cards/back_of_black_bolts.svg"" width=""175px"" height=""250px""></img></td>
  </tr>
  <tr height=200>
    <td width=300><img src=""static/images/keys/z.svg"" width=""35%"" height=""75%""></img></td>
    <td width=300></td>
  </tr>
</table>
  ",90.0,1.0,,,,,,,,,,,,,,,,,,,,,,,,,,
111,0,,html-keyboard-response,111,682273,0.0-4.17-2.17,0p80ze3jnx3h,2022-09-19 15:32:34.064,59102d52f601090001e80b82,2,59,0,38,0,24,Male,,,"
  <table>
  <tr height=300>
    <td width=300 height=300><img src=""static/images/cards/6_of_black_bolts.svg"" width=""175px"" height=""250px""></img></td>
    <td width=300 height=300><img src=""static/images/cards/back_of_black_bolts.svg"" width=""175px"" height=""250px""></img></td>
  </tr>
  <tr height=200>
    <td width=300><img src=""static/images/keys/z.svg"" width=""35%"" height=""75%""></img></td>
    <td width=300></td>
  </tr>
</table>
  ",,,,,,,,,,,,,,,,,,,,,,,,,,,,
112,0,,html-keyboard-response,112,683791,0.0-4.17-3.17,0p80ze3jnx3h,2022-09-19 15:32:34.064,59102d52f601090001e80b82,2,59,0,38,0,24,Male,,,"<p style=""font-size:50px"">You win!
+10 points this round!</p>",,,,,,,,,,,,,,,,,,,,,,,,,,,,
113,0,,html-keyboard-response,113,684308,0.0-4.17-4.17,0p80ze3jnx3h,2022-09-19 15:32:34.064,59102d52f601090001e80b82,2,59,0,38,0,24,Male,,,,,,1.0,learning,17.0,Xnc,,black,,bolts,,,,Xnc,black,bolts,,0.0,0.0,1,left,949.8999999762,6.0,1.0,1.0,,,
114,0,,html-keyboard-response,114,685824,0.0-4.18-0.18,0p80ze3jnx3h,2022-09-19 15:32:34.064,59102d52f601090001e80b82,2,59,0,38,0,24,Male,,,"<img src=""static/images/cards/stack_of_black_stars.svg"" width=""175px"" height=""250px""></img>",,,,,,,,,,,,,,,,,,,,,,,,,,,,
115,0,,html-keyboard-response,115,687464,0.0-4.18-1.18,0p80ze3jnx3h,2022-09-19 15:32:34.064,59102d52f601090001e80b82,2,59,0,38,0,24,Male,1134.6999999881,,"
  <table>
  <tr height=300>
    <td width=300 height=300><img src=""static/images/cards/back_of_black_stars.svg"" width=""175px"" height=""250px""></img></td>
    <td width=300 height=300><img src=""static/images/cards/back_of_black_stars.svg"" width=""175px"" height=""250px""></img></td>
  </tr>
  <tr height=200>
    <td width=300><img src=""static/images/keys/z.svg"" width=""35%"" height=""75%""></img></td>
    <td width=300><img src=""static/images/keys/m.svg"" width=""35%"" height=""75%""></img></td>
  </tr>
</table>
  ",77.0,1.0,,,,,,,,,,,,,,,,,,,,,,,,,,
116,0,,html-keyboard-response,116,688969,0.0-4.18-2.18,0p80ze3jnx3h,2022-09-19 15:32:34.064,59102d52f601090001e80b82,2,59,0,38,0,24,Male,,,"
  <table>
  <tr height=300>
    <td width=300 height=300><img src=""static/images/cards/back_of_black_stars.svg"" width=""175px"" height=""250px""></img></td>
    <td width=300 height=300><img src=""static/images/cards/1_of_black_stars.svg"" width=""175px"" height=""250px""></img></td>
  </tr>
  <tr height=200>
    <td width=300><img src=""static/images/keys/z.svg"" width=""35%"" height=""75%""></img></td>
    <td width=300><img src=""static/images/keys/m.svg"" width=""35%"" height=""75%""></img></td>
  </tr>
</table>
  ",,,,,,,,,,,,,,,,,,,,,,,,,,,,
117,0,,html-keyboard-response,117,690494,0.0-4.18-3.18,0p80ze3jnx3h,2022-09-19 15:32:34.064,59102d52f601090001e80b82,2,59,0,38,0,24,Male,,,"<p style=""font-size:50px"">You Lose!
No points this round.</p>",,,,,,,,,,,,,,,,,,,,,,,,,,,,
118,0,,html-keyboard-response,118,691004,0.0-4.18-4.18,0p80ze3jnx3h,2022-09-19 15:32:34.064,59102d52f601090001e80b82,2,59,0,38,0,24,Male,,,,,,1.0,learning,18.0,A,,black,,stars,,,,A,black,stars,,1.0,1.0,NA,right,1134.6999999881,1.0,0.0,0.0,,,
119,0,,html-keyboard-response,119,692512,0.0-4.19-0.19,0p80ze3jnx3h,2022-09-19 15:32:34.064,59102d52f601090001e80b82,2,59,0,38,0,24,Male,,,"<img src=""static/images/cards/stack_of_red_stars.svg"" width=""175px"" height=""250px""></img>",,,,,,,,,,,,,,,,,,,,,,,,,,,,
120,0,,html-keyboard-response,120,694033,0.0-4.19-1.19,0p80ze3jnx3h,2022-09-19 15:32:34.064,59102d52f601090001e80b82,2,59,0,38,0,24,Male,1012.0,,"
  <table>
  <tr height=300>
    <td width=300 height=300><img src=""static/images/cards/back_of_red_stars.svg"" width=""175px"" height=""250px""></img></td>
    <td width=300 height=300><img src=""static/images/cards/back_of_red_stars.svg"" width=""175px"" height=""250px""></img></td>
  </tr>
  <tr height=200>
    <td width=300></td>
    <td width=300><img src=""static/images/keys/m.svg"" width=""35%"" height=""75%""></img></td>
  </tr>
</table>
  ",77.0,1.0,,,,,,,,,,,,,,,,,,,,,,,,,,
121,0,,html-keyboard-response,121,695541,0.0-4.19-2.19,0p80ze3jnx3h,2022-09-19 15:32:34.064,59102d52f601090001e80b82,2,59,0,38,0,24,Male,,,"
  <table>
  <tr height=300>
    <td width=300 height=300><img src=""static/images/cards/back_of_red_stars.svg"" width=""175px"" height=""250px""></img></td>
    <td width=300 height=300><img src=""static/images/cards/4_of_red_stars.svg"" width=""175px"" height=""250px""></img></td>
  </tr>
  <tr height=200>
    <td width=300></td>
    <td width=300><img src=""static/images/keys/m.svg"" width=""35%"" height=""75%""></img></td>
  </tr>
</table>
  ",,,,,,,,,,,,,,,,,,,,,,,,,,,,
122,0,,html-keyboard-response,122,697061,0.0-4.19-3.19,0p80ze3jnx3h,2022-09-19 15:32:34.064,59102d52f601090001e80b82,2,59,0,38,0,24,Male,,,"<p style=""font-size:50px"">You Lose!
No points this round.</p>",,,,,,,,,,,,,,,,,,,,,,,,,,,,
123,0,,html-keyboard-response,123,697574,0.0-4.19-4.19,0p80ze3jnx3h,2022-09-19 15:32:34.064,59102d52f601090001e80b82,2,59,0,38,0,24,Male,,,,,,1.0,learning,19.0,B,,red,,stars,,,,B,red,stars,,0.0,1.0,0,right,1012.0,4.0,0.0,0.0,,,
124,0,,html-keyboard-response,124,699077,0.0-4.20-0.20,0p80ze3jnx3h,2022-09-19 15:32:34.064,59102d52f601090001e80b82,2,59,0,38,0,24,Male,,,"<img src=""static/images/cards/stack_of_black_moons.svg"" width=""175px"" height=""250px""></img>",,,,,,,,,,,,,,,,,,,,,,,,,,,,
125,0,,html-keyboard-response,125,700840,0.0-4.20-1.20,0p80ze3jnx3h,2022-09-19 15:32:34.064,59102d52f601090001e80b82,2,59,0,38,0,24,Male,1255.8000000119,,"
  <table>
  <tr height=300>
    <td width=300 height=300><img src=""static/images/cards/back_of_black_moons.svg"" width=""175px"" height=""250px""></img></td>
    <td width=300 height=300><img src=""static/images/cards/back_of_black_moons.svg"" width=""175px"" height=""250px""></img></td>
  </tr>
  <tr height=200>
    <td width=300><img src=""static/images/keys/z.svg"" width=""35%"" height=""75%""></img></td>
    <td width=300><img src=""static/images/keys/m.svg"" width=""35%"" height=""75%""></img></td>
  </tr>
</table>
  ",90.0,1.0,,,,,,,,,,,,,,,,,,,,,,,,,,
126,0,,html-keyboard-response,126,702354,0.0-4.20-2.20,0p80ze3jnx3h,2022-09-19 15:32:34.064,59102d52f601090001e80b82,2,59,0,38,0,24,Male,,,"
  <table>
  <tr height=300>
    <td width=300 height=300><img src=""static/images/cards/1_of_black_moons.svg"" width=""175px"" height=""250px""></img></td>
    <td width=300 height=300><img src=""static/images/cards/back_of_black_moons.svg"" width=""175px"" height=""250px""></img></td>
  </tr>
  <tr height=200>
    <td width=300><img src=""static/images/keys/z.svg"" width=""35%"" height=""75%""></img></td>
    <td width=300><img src=""static/images/keys/m.svg"" width=""35%"" height=""75%""></img></td>
  </tr>
</table>
  ",,,,,,,,,,,,,,,,,,,,,,,,,,,,
127,0,,html-keyboard-response,127,703880,0.0-4.20-3.20,0p80ze3jnx3h,2022-09-19 15:32:34.064,59102d52f601090001e80b82,2,59,0,38,0,24,Male,,,"<p style=""font-size:50px"">You win!
+10 points this round!</p>",,,,,,,,,,,,,,,,,,,,,,,,,,,,
128,0,,html-keyboard-response,128,704391,0.0-4.20-4.20,0p80ze3jnx3h,2022-09-19 15:32:34.064,59102d52f601090001e80b82,2,59,0,38,0,24,Male,,,,,,1.0,learning,20.0,C,,black,,moons,,,,C,black,moons,,1.0,0.0,NA,left,1255.8000000119,1.0,0.0,1.0,,,
129,0,,html-keyboard-response,129,705901,0.0-4.21-0.21,0p80ze3jnx3h,2022-09-19 15:32:34.064,59102d52f601090001e80b82,2,59,0,38,0,24,Male,,,"<img src=""static/images/cards/stack_of_red_moons.svg"" width=""175px"" height=""250px""></img>",,,,,,,,,,,,,,,,,,,,,,,,,,,,
130,0,,html-keyboard-response,130,707769,0.0-4.21-1.21,0p80ze3jnx3h,2022-09-19 15:32:34.064,59102d52f601090001e80b82,2,59,0,38,0,24,Male,1354.8999999762,,"
  <table>
  <tr height=300>
    <td width=300 height=300><img src=""static/images/cards/back_of_red_moons.svg"" width=""175px"" height=""250px""></img></td>
    <td width=300 height=300><img src=""static/images/cards/back_of_red_moons.svg"" width=""175px"" height=""250px""></img></td>
  </tr>
  <tr height=200>
    <td width=300><img src=""static/images/keys/z.svg"" width=""35%"" height=""75%""></img></td>
    <td width=300></td>
  </tr>
</table>
  ",90.0,1.0,,,,,,,,,,,,,,,,,,,,,,,,,,
131,0,,html-keyboard-response,131,709270,0.0-4.21-2.21,0p80ze3jnx3h,2022-09-19 15:32:34.064,59102d52f601090001e80b82,2,59,0,38,0,24,Male,,,"
  <table>
  <tr height=300>
    <td width=300 height=300><img src=""static/images/cards/9_of_red_moons.svg"" width=""175px"" height=""250px""></img></td>
    <td width=300 height=300><img src=""static/images/cards/back_of_red_moons.svg"" width=""175px"" height=""250px""></img></td>
  </tr>
  <tr height=200>
    <td width=300><img src=""static/images/keys/z.svg"" width=""35%"" height=""75%""></img></td>
    <td width=300></td>
  </tr>
</table>
  ",,,,,,,,,,,,,,,,,,,,,,,,,,,,
132,0,,html-keyboard-response,132,710778,0.0-4.21-3.21,0p80ze3jnx3h,2022-09-19 15:32:34.064,59102d52f601090001e80b82,2,59,0,38,0,24,Male,,,"<p style=""font-size:50px"">You Lose!
No points this round.</p>",,,,,,,,,,,,,,,,,,,,,,,,,,,,
133,0,,html-keyboard-response,133,711293,0.0-4.21-4.21,0p80ze3jnx3h,2022-09-19 15:32:34.064,59102d52f601090001e80b82,2,59,0,38,0,24,Male,,,,,,1.0,learning,21.0,D,,red,,moons,,,,D,red,moons,,0.0,0.0,1,left,1354.8999999762,9.0,1.0,0.0,,,
134,0,,html-keyboard-response,134,712805,0.0-4.22-0.22,0p80ze3jnx3h,2022-09-19 15:32:34.064,59102d52f601090001e80b82,2,59,0,38,0,24,Male,,,"<img src=""static/images/cards/stack_of_red_bolts.svg"" width=""175px"" height=""250px""></img>",,,,,,,,,,,,,,,,,,,,,,,,,,,,
135,0,,html-keyboard-response,135,714415,0.0-4.22-1.22,0p80ze3jnx3h,2022-09-19 15:32:34.064,59102d52f601090001e80b82,2,59,0,38,0,24,Male,1105.400000006,,"
  <table>
  <tr height=300>
    <td width=300 height=300><img src=""static/images/cards/back_of_red_bolts.svg"" width=""175px"" height=""250px""></img></td>
    <td width=300 height=300><img src=""static/images/cards/back_of_red_bolts.svg"" width=""175px"" height=""250px""></img></td>
  </tr>
  <tr height=200>
    <td width=300><img src=""static/images/keys/z.svg"" width=""35%"" height=""75%""></img></td>
    <td width=300><img src=""static/images/keys/m.svg"" width=""35%"" height=""75%""></img></td>
  </tr>
</table>
  ",77.0,1.0,,,,,,,,,,,,,,,,,,,,,,,,,,
136,0,,html-keyboard-response,136,715927,0.0-4.22-2.22,0p80ze3jnx3h,2022-09-19 15:32:34.064,59102d52f601090001e80b82,2,59,0,38,0,24,Male,,,"
  <table>
  <tr height=300>
    <td width=300 height=300><img src=""static/images/cards/back_of_red_bolts.svg"" width=""175px"" height=""250px""></img></td>
    <td width=300 height=300><img src=""static/images/cards/7_of_red_bolts.svg"" width=""175px"" height=""250px""></img></td>
  </tr>
  <tr height=200>
    <td width=300><img src=""static/images/keys/z.svg"" width=""35%"" height=""75%""></img></td>
    <td width=300><img src=""static/images/keys/m.svg"" width=""35%"" height=""75%""></img></td>
  </tr>
</table>
  ",,,,,,,,,,,,,,,,,,,,,,,,,,,,
137,0,,html-keyboard-response,137,717444,0.0-4.22-3.22,0p80ze3jnx3h,2022-09-19 15:32:34.064,59102d52f601090001e80b82,2,59,0,38,0,24,Male,,,"<p style=""font-size:50px"">You win!
+10 points this round!</p>",,,,,,,,,,,,,,,,,,,,,,,,,,,,
138,0,,html-keyboard-response,138,717957,0.0-4.22-4.22,0p80ze3jnx3h,2022-09-19 15:32:34.064,59102d52f601090001e80b82,2,59,0,38,0,24,Male,,,,,,1.0,learning,22.0,Xc,,red,,bolts,,,,Xc,red,bolts,,1.0,0.0,NA,right,1105.400000006,7.0,1.0,1.0,,,
139,0,,html-keyboard-response,139,719460,0.0-4.23-0.23,0p80ze3jnx3h,2022-09-19 15:32:34.064,59102d52f601090001e80b82,2,59,0,38,0,24,Male,,,"<img src=""static/images/cards/stack_of_black_bolts.svg"" width=""175px"" height=""250px""></img>",,,,,,,,,,,,,,,,,,,,,,,,,,,,
140,0,,html-keyboard-response,140,720934,0.0-4.23-1.23,0p80ze3jnx3h,2022-09-19 15:32:34.064,59102d52f601090001e80b82,2,59,0,38,0,24,Male,961.0,,"
  <table>
  <tr height=300>
    <td width=300 height=300><img src=""static/images/cards/back_of_black_bolts.svg"" width=""175px"" height=""250px""></img></td>
    <td width=300 height=300><img src=""static/images/cards/back_of_black_bolts.svg"" width=""175px"" height=""250px""></img></td>
  </tr>
  <tr height=200>
    <td width=300><img src=""static/images/keys/z.svg"" width=""35%"" height=""75%""></img></td>
    <td width=300></td>
  </tr>
</table>
  ",90.0,1.0,,,,,,,,,,,,,,,,,,,,,,,,,,
141,0,,html-keyboard-response,141,722437,0.0-4.23-2.23,0p80ze3jnx3h,2022-09-19 15:32:34.064,59102d52f601090001e80b82,2,59,0,38,0,24,Male,,,"
  <table>
  <tr height=300>
    <td width=300 height=300><img src=""static/images/cards/2_of_black_bolts.svg"" width=""175px"" height=""250px""></img></td>
    <td width=300 height=300><img src=""static/images/cards/back_of_black_bolts.svg"" width=""175px"" height=""250px""></img></td>
  </tr>
  <tr height=200>
    <td width=300><img src=""static/images/keys/z.svg"" width=""35%"" height=""75%""></img></td>
    <td width=300></td>
  </tr>
</table>
  ",,,,,,,,,,,,,,,,,,,,,,,,,,,,
142,0,,html-keyboard-response,142,723945,0.0-4.23-3.23,0p80ze3jnx3h,2022-09-19 15:32:34.064,59102d52f601090001e80b82,2,59,0,38,0,24,Male,,,"<p style=""font-size:50px"">You win!
+10 points this round!</p>",,,,,,,,,,,,,,,,,,,,,,,,,,,,
143,0,,html-keyboard-response,143,724460,0.0-4.23-4.23,0p80ze3jnx3h,2022-09-19 15:32:34.064,59102d52f601090001e80b82,2,59,0,38,0,24,Male,,,,,,1.0,learning,23.0,Xnc,,black,,bolts,,,,Xnc,black,bolts,,0.0,0.0,1,left,961.0,2.0,0.0,1.0,,,
144,0,,call-function,144,724464,0.0-5.0,0p80ze3jnx3h,2022-09-19 15:32:34.064,59102d52f601090001e80b82,2,59,0,38,0,24,Male,,,,,,,,,,,,,,,,,,,,,,,,,,,,,,,
145,0,,image-keyboard-response,145,741385,0.0-6.0-0.0,0p80ze3jnx3h,2022-09-19 15:32:34.064,59102d52f601090001e80b82,2,59,0,38,0,24,Male,16920.2000000179,,static/images/instructions_CB_2/Slide20.png,39.0,,,,,,,,,,,,,,,,,,,,,,,,,,,
146,0,,image-keyboard-response,146,753972,0.0-6.1-0.1,0p80ze3jnx3h,2022-09-19 15:32:34.064,59102d52f601090001e80b82,2,59,0,38,0,24,Male,12586.5,,static/images/instructions_CB_2/Slide21.png,37.0,,,,,,,,,,,,,,,,,,,,,,,,,,,
147,0,,image-keyboard-response,147,758746,0.0-6.2-0.2,0p80ze3jnx3h,2022-09-19 15:32:34.064,59102d52f601090001e80b82,2,59,0,38,0,24,Male,4774.1999999881,,static/images/instructions_CB_2/Slide20.png,39.0,,,,,,,,,,,,,,,,,,,,,,,,,,,
148,0,,image-keyboard-response,148,767960,0.0-6.3-0.3,0p80ze3jnx3h,2022-09-19 15:32:34.064,59102d52f601090001e80b82,2,59,0,38,0,24,Male,9212.7000000179,,static/images/instructions_CB_2/Slide21.png,39.0,,,,,,,,,,,,,,,,,,,,,,,,,,,
149,0,,image-keyboard-response,149,775700,0.0-6.4-0.4,0p80ze3jnx3h,2022-09-19 15:32:34.064,59102d52f601090001e80b82,2,59,0,38,0,24,Male,7740.2999999821,,static/images/instructions_CB_2/Slide22.png,39.0,,,,,,,,,,,,,,,,,,,,,,,,,,,
150,0,,image-keyboard-response,150,800436,0.0-6.5-0.5,0p80ze3jnx3h,2022-09-19 15:32:34.064,59102d52f601090001e80b82,2,59,0,38,0,24,Male,24735.900000006,,static/images/instructions_CB_2/Slide23.png,39.0,,,,,,,,,,,,,,,,,,,,,,,,,,,
151,0,,image-keyboard-response,151,803807,0.0-6.6-0.6,0p80ze3jnx3h,2022-09-19 15:32:34.064,59102d52f601090001e80b82,2,59,0,38,0,24,Male,3370.099999994,,static/images/instructions_CB_2/Slide24.png,39.0,,,,,,,,,,,,,,,,,,,,,,,,,,,
152,0,,html-keyboard-response,152,805932,0.0-7.0-0.0,0p80ze3jnx3h,2022-09-19 15:32:34.064,59102d52f601090001e80b82,2,59,0,38,0,24,Male,2124.099999994,,"
  <table>
  <tr height=300>
    <td width=300 height=300><img src=""static/images/cards/stack_of_black_moons.svg"" width=""175px"" height=""250px""></img></td>
    <td width=300 height=300><img src=""static/images/cards/stack_of_black_stars.svg"" width=""175px"" height=""250px""></img></td>
  </tr>
  <tr height=200>
    <td width=300><img src=""static/images/keys/w.svg"" width=""35%"" height=""75%""></img></td>
    <td width=300><img src=""static/images/keys/o.svg"" width=""35%"" height=""75%""></img></td>
  </tr>
</table>
  ",79.0,1.0,,,,,,,,,,,,,,,,,,,,,,,,,,
153,0,,html-keyboard-response,153,807712,0.0-7.0-1.0,0p80ze3jnx3h,2022-09-19 15:32:34.064,59102d52f601090001e80b82,2,59,0,38,0,24,Male,1269.5,,"
  <table>
  <tr height=300>
    <td width=300 height=300><img src=""static/images/cards/back_of_black_stars.svg"" width=""175px"" height=""250px""></img></td>
    <td width=300 height=300><img src=""static/images/cards/back_of_black_stars.svg"" width=""175px"" height=""250px""></img></td>
  </tr>
  <tr height=200>
    <td width=300><img src=""static/images/keys/z.svg"" width=""35%"" height=""75%""></img></td>
    <td width=300><img src=""static/images/keys/m.svg"" width=""35%"" height=""75%""></img></td>
  </tr>
</table>
  ",77.0,1.0,,,,,,,,,,,,,,,,,,,,,,,,,,
154,0,,html-keyboard-response,154,809223,0.0-7.0-2.0,0p80ze3jnx3h,2022-09-19 15:32:34.064,59102d52f601090001e80b82,2,59,0,38,0,24,Male,,,"
  <table>
  <tr height=300>
    <td width=300 height=300><img src=""static/images/cards/back_of_black_stars.svg"" width=""175px"" height=""250px""></img></td>
    <td width=300 height=300><img src=""static/images/cards/4_of_black_stars.svg"" width=""175px"" height=""250px""></img></td>
  </tr>
  <tr height=200>
    <td width=300><img src=""static/images/keys/z.svg"" width=""35%"" height=""75%""></img></td>
    <td width=300><img src=""static/images/keys/m.svg"" width=""35%"" height=""75%""></img></td>
  </tr>
</table>
  ",,,,,,,,,,,,,,,,,,,,,,,,,,,,
155,0,,html-keyboard-response,155,810744,0.0-7.0-3.0,0p80ze3jnx3h,2022-09-19 15:32:34.064,59102d52f601090001e80b82,2,59,0,38,0,24,Male,,,"<p style=""font-size:50px"">You Lose!
No points this round.</p>",,,,,,,,,,,,,,,,,,,,,,,,,,,,
156,0,,html-keyboard-response,156,811254,0.0-7.0-4.0,0p80ze3jnx3h,2022-09-19 15:32:34.064,59102d52f601090001e80b82,2,59,0,38,0,24,Male,,,,,,1.0,choice,0.0,A,C,black,black,moons,stars,C,A,A,black,stars,2124.099999994,1.0,1.0,NA,right,1269.5,4.0,0.0,0.0,,,
157,0,,html-keyboard-response,157,812414,0.0-7.1-0.1,0p80ze3jnx3h,2022-09-19 15:32:34.064,59102d52f601090001e80b82,2,59,0,38,0,24,Male,1159.1000000238,,"
  <table>
  <tr height=300>
    <td width=300 height=300><img src=""static/images/cards/stack_of_red_stars.svg"" width=""175px"" height=""250px""></img></td>
    <td width=300 height=300><img src=""static/images/cards/stack_of_red_bolts.svg"" width=""175px"" height=""250px""></img></td>
  </tr>
  <tr height=200>
    <td width=300><img src=""static/images/keys/w.svg"" width=""35%"" height=""75%""></img></td>
    <td width=300><img src=""static/images/keys/o.svg"" width=""35%"" height=""75%""></img></td>
  </tr>
</table>
  ",79.0,1.0,,,,,,,,,,,,,,,,,,,,,,,,,,
158,0,,html-keyboard-response,158,813641,0.0-7.1-1.1,0p80ze3jnx3h,2022-09-19 15:32:34.064,59102d52f601090001e80b82,2,59,0,38,0,24,Male,724.0,,"
  <table>
  <tr height=300>
    <td width=300 height=300><img src=""static/images/cards/back_of_red_bolts.svg"" width=""175px"" height=""250px""></img></td>
    <td width=300 height=300><img src=""static/images/cards/back_of_red_bolts.svg"" width=""175px"" height=""250px""></img></td>
  </tr>
  <tr height=200>
    <td width=300><img src=""static/images/keys/z.svg"" width=""35%"" height=""75%""></img></td>
    <td width=300><img src=""static/images/keys/m.svg"" width=""35%"" height=""75%""></img></td>
  </tr>
</table>
  ",77.0,1.0,,,,,,,,,,,,,,,,,,,,,,,,,,
159,0,,html-keyboard-response,159,815153,0.0-7.1-2.1,0p80ze3jnx3h,2022-09-19 15:32:34.064,59102d52f601090001e80b82,2,59,0,38,0,24,Male,,,"
  <table>
  <tr height=300>
    <td width=300 height=300><img src=""static/images/cards/back_of_red_bolts.svg"" width=""175px"" height=""250px""></img></td>
    <td width=300 height=300><img src=""static/images/cards/9_of_red_bolts.svg"" width=""175px"" height=""250px""></img></td>
  </tr>
  <tr height=200>
    <td width=300><img src=""static/images/keys/z.svg"" width=""35%"" height=""75%""></img></td>
    <td width=300><img src=""static/images/keys/m.svg"" width=""35%"" height=""75%""></img></td>
  </tr>
</table>
  ",,,,,,,,,,,,,,,,,,,,,,,,,,,,
160,0,,html-keyboard-response,160,816671,0.0-7.1-3.1,0p80ze3jnx3h,2022-09-19 15:32:34.064,59102d52f601090001e80b82,2,59,0,38,0,24,Male,,,"<p style=""font-size:50px"">You win!
+10 points this round!</p>",,,,,,,,,,,,,,,,,,,,,,,,,,,,
161,0,,html-keyboard-response,161,817186,0.0-7.1-4.1,0p80ze3jnx3h,2022-09-19 15:32:34.064,59102d52f601090001e80b82,2,59,0,38,0,24,Male,,,,,,1.0,choice,1.0,B,Xc,red,red,stars,bolts,B,Xc,Xc,red,bolts,1159.1000000238,1.0,0.0,NA,right,724.0,9.0,1.0,1.0,,,
162,0,,html-keyboard-response,162,818433,0.0-7.2-0.2,0p80ze3jnx3h,2022-09-19 15:32:34.064,59102d52f601090001e80b82,2,59,0,38,0,24,Male,1246.0,,"
  <table>
  <tr height=300>
    <td width=300 height=300><img src=""static/images/cards/stack_of_red_moons.svg"" width=""175px"" height=""250px""></img></td>
    <td width=300 height=300><img src=""static/images/cards/stack_of_black_stars.svg"" width=""175px"" height=""250px""></img></td>
  </tr>
  <tr height=200>
    <td width=300><img src=""static/images/keys/w.svg"" width=""35%"" height=""75%""></img></td>
    <td width=300><img src=""static/images/keys/o.svg"" width=""35%"" height=""75%""></img></td>
  </tr>
</table>
  ",79.0,1.0,,,,,,,,,,,,,,,,,,,,,,,,,,
163,0,,html-keyboard-response,163,819860,0.0-7.2-1.2,0p80ze3jnx3h,2022-09-19 15:32:34.064,59102d52f601090001e80b82,2,59,0,38,0,24,Male,916.400000006,,"
  <table>
  <tr height=300>
    <td width=300 height=300><img src=""static/images/cards/back_of_black_stars.svg"" width=""175px"" height=""250px""></img></td>
    <td width=300 height=300><img src=""static/images/cards/back_of_black_stars.svg"" width=""175px"" height=""250px""></img></td>
  </tr>
  <tr height=200>
    <td width=300><img src=""static/images/keys/z.svg"" width=""35%"" height=""75%""></img></td>
    <td width=300><img src=""static/images/keys/m.svg"" width=""35%"" height=""75%""></img></td>
  </tr>
</table>
  ",90.0,1.0,,,,,,,,,,,,,,,,,,,,,,,,,,
164,0,,html-keyboard-response,164,821364,0.0-7.2-2.2,0p80ze3jnx3h,2022-09-19 15:32:34.064,59102d52f601090001e80b82,2,59,0,38,0,24,Male,,,"
  <table>
  <tr height=300>
    <td width=300 height=300><img src=""static/images/cards/8_of_black_stars.svg"" width=""175px"" height=""250px""></img></td>
    <td width=300 height=300><img src=""static/images/cards/back_of_black_stars.svg"" width=""175px"" height=""250px""></img></td>
  </tr>
  <tr height=200>
    <td width=300><img src=""static/images/keys/z.svg"" width=""35%"" height=""75%""></img></td>
    <td width=300><img src=""static/images/keys/m.svg"" width=""35%"" height=""75%""></img></td>
  </tr>
</table>
  ",,,,,,,,,,,,,,,,,,,,,,,,,,,,
165,0,,html-keyboard-response,165,822874,0.0-7.2-3.2,0p80ze3jnx3h,2022-09-19 15:32:34.064,59102d52f601090001e80b82,2,59,0,38,0,24,Male,,,"<p style=""font-size:50px"">You win!
+10 points this round!</p>",,,,,,,,,,,,,,,,,,,,,,,,,,,,
166,0,,html-keyboard-response,166,823387,0.0-7.2-4.2,0p80ze3jnx3h,2022-09-19 15:32:34.064,59102d52f601090001e80b82,2,59,0,38,0,24,Male,,,,,,1.0,choice,2.0,A,D,red,black,moons,stars,D,A,A,black,stars,1246.0,1.0,1.0,NA,left,916.400000006,8.0,1.0,1.0,,,
167,0,,html-keyboard-response,167,825195,0.0-7.3-0.3,0p80ze3jnx3h,2022-09-19 15:32:34.064,59102d52f601090001e80b82,2,59,0,38,0,24,Male,1806.599999994,,"
  <table>
  <tr height=300>
    <td width=300 height=300><img src=""static/images/cards/stack_of_red_stars.svg"" width=""175px"" height=""250px""></img></td>
    <td width=300 height=300><img src=""static/images/cards/stack_of_black_moons.svg"" width=""175px"" height=""250px""></img></td>
  </tr>
  <tr height=200>
    <td width=300><img src=""static/images/keys/w.svg"" width=""35%"" height=""75%""></img></td>
    <td width=300><img src=""static/images/keys/o.svg"" width=""35%"" height=""75%""></img></td>
  </tr>
</table>
  ",87.0,1.0,,,,,,,,,,,,,,,,,,,,,,,,,,
168,0,,html-keyboard-response,168,826686,0.0-7.3-1.3,0p80ze3jnx3h,2022-09-19 15:32:34.064,59102d52f601090001e80b82,2,59,0,38,0,24,Male,978.1999999881,,"
  <table>
  <tr height=300>
    <td width=300 height=300><img src=""static/images/cards/back_of_red_stars.svg"" width=""175px"" height=""250px""></img></td>
    <td width=300 height=300><img src=""static/images/cards/back_of_red_stars.svg"" width=""175px"" height=""250px""></img></td>
  </tr>
  <tr height=200>
    <td width=300><img src=""static/images/keys/z.svg"" width=""35%"" height=""75%""></img></td>
    <td width=300></td>
  </tr>
</table>
  ",90.0,1.0,,,,,,,,,,,,,,,,,,,,,,,,,,
169,0,,html-keyboard-response,169,828190,0.0-7.3-2.3,0p80ze3jnx3h,2022-09-19 15:32:34.064,59102d52f601090001e80b82,2,59,0,38,0,24,Male,,,"
  <table>
  <tr height=300>
    <td width=300 height=300><img src=""static/images/cards/6_of_red_stars.svg"" width=""175px"" height=""250px""></img></td>
    <td width=300 height=300><img src=""static/images/cards/back_of_red_stars.svg"" width=""175px"" height=""250px""></img></td>
  </tr>
  <tr height=200>
    <td width=300><img src=""static/images/keys/z.svg"" width=""35%"" height=""75%""></img></td>
    <td width=300></td>
  </tr>
</table>
  ",,,,,,,,,,,,,,,,,,,,,,,,,,,,
170,0,,html-keyboard-response,170,829704,0.0-7.3-3.3,0p80ze3jnx3h,2022-09-19 15:32:34.064,59102d52f601090001e80b82,2,59,0,38,0,24,Male,,,"<p style=""font-size:50px"">You win!
+10 points this round!</p>",,,,,,,,,,,,,,,,,,,,,,,,,,,,
171,0,,html-keyboard-response,171,830215,0.0-7.3-4.3,0p80ze3jnx3h,2022-09-19 15:32:34.064,59102d52f601090001e80b82,2,59,0,38,0,24,Male,,,,,,1.0,choice,3.0,B,C,red,black,stars,moons,B,C,B,red,stars,1806.599999994,0.0,1.0,1,left,978.1999999881,6.0,1.0,1.0,,,
172,0,,html-keyboard-response,172,831457,0.0-7.4-0.4,0p80ze3jnx3h,2022-09-19 15:32:34.064,59102d52f601090001e80b82,2,59,0,38,0,24,Male,1241.0,,"
  <table>
  <tr height=300>
    <td width=300 height=300><img src=""static/images/cards/stack_of_black_moons.svg"" width=""175px"" height=""250px""></img></td>
    <td width=300 height=300><img src=""static/images/cards/stack_of_black_stars.svg"" width=""175px"" height=""250px""></img></td>
  </tr>
  <tr height=200>
    <td width=300><img src=""static/images/keys/w.svg"" width=""35%"" height=""75%""></img></td>
    <td width=300><img src=""static/images/keys/o.svg"" width=""35%"" height=""75%""></img></td>
  </tr>
</table>
  ",79.0,1.0,,,,,,,,,,,,,,,,,,,,,,,,,,
173,0,,html-keyboard-response,173,832982,0.0-7.4-1.4,0p80ze3jnx3h,2022-09-19 15:32:34.064,59102d52f601090001e80b82,2,59,0,38,0,24,Male,1016.599999994,,"
  <table>
  <tr height=300>
    <td width=300 height=300><img src=""static/images/cards/back_of_black_stars.svg"" width=""175px"" height=""250px""></img></td>
    <td width=300 height=300><img src=""static/images/cards/back_of_black_stars.svg"" width=""175px"" height=""250px""></img></td>
  </tr>
  <tr height=200>
    <td width=300><img src=""static/images/keys/z.svg"" width=""35%"" height=""75%""></img></td>
    <td width=300><img src=""static/images/keys/m.svg"" width=""35%"" height=""75%""></img></td>
  </tr>
</table>
  ",90.0,1.0,,,,,,,,,,,,,,,,,,,,,,,,,,
174,0,,html-keyboard-response,174,834489,0.0-7.4-2.4,0p80ze3jnx3h,2022-09-19 15:32:34.064,59102d52f601090001e80b82,2,59,0,38,0,24,Male,,,"
  <table>
  <tr height=300>
    <td width=300 height=300><img src=""static/images/cards/6_of_black_stars.svg"" width=""175px"" height=""250px""></img></td>
    <td width=300 height=300><img src=""static/images/cards/back_of_black_stars.svg"" width=""175px"" height=""250px""></img></td>
  </tr>
  <tr height=200>
    <td width=300><img src=""static/images/keys/z.svg"" width=""35%"" height=""75%""></img></td>
    <td width=300><img src=""static/images/keys/m.svg"" width=""35%"" height=""75%""></img></td>
  </tr>
</table>
  ",,,,,,,,,,,,,,,,,,,,,,,,,,,,
175,0,,html-keyboard-response,175,835995,0.0-7.4-3.4,0p80ze3jnx3h,2022-09-19 15:32:34.064,59102d52f601090001e80b82,2,59,0,38,0,24,Male,,,"<p style=""font-size:50px"">You win!
+10 points this round!</p>",,,,,,,,,,,,,,,,,,,,,,,,,,,,
176,0,,html-keyboard-response,176,836508,0.0-7.4-4.4,0p80ze3jnx3h,2022-09-19 15:32:34.064,59102d52f601090001e80b82,2,59,0,38,0,24,Male,,,,,,1.0,choice,4.0,A,C,black,black,moons,stars,C,A,A,black,stars,1241.0,1.0,1.0,NA,left,1016.599999994,6.0,1.0,1.0,,,
177,0,,html-keyboard-response,177,839508,0.0-7.5-0.5,0p80ze3jnx3h,2022-09-19 15:32:34.064,59102d52f601090001e80b82,2,59,0,38,0,24,Male,2998.599999994,,"
  <table>
  <tr height=300>
    <td width=300 height=300><img src=""static/images/cards/stack_of_red_stars.svg"" width=""175px"" height=""250px""></img></td>
    <td width=300 height=300><img src=""static/images/cards/stack_of_red_moons.svg"" width=""175px"" height=""250px""></img></td>
  </tr>
  <tr height=200>
    <td width=300><img src=""static/images/keys/w.svg"" width=""35%"" height=""75%""></img></td>
    <td width=300><img src=""static/images/keys/o.svg"" width=""35%"" height=""75%""></img></td>
  </tr>
</table>
  ",79.0,1.0,,,,,,,,,,,,,,,,,,,,,,,,,,
178,0,,html-keyboard-response,178,840979,0.0-7.5-1.5,0p80ze3jnx3h,2022-09-19 15:32:34.064,59102d52f601090001e80b82,2,59,0,38,0,24,Male,965.8000000119,,"
  <table>
  <tr height=300>
    <td width=300 height=300><img src=""static/images/cards/back_of_red_moons.svg"" width=""175px"" height=""250px""></img></td>
    <td width=300 height=300><img src=""static/images/cards/back_of_red_moons.svg"" width=""175px"" height=""250px""></img></td>
  </tr>
  <tr height=200>
    <td width=300><img src=""static/images/keys/z.svg"" width=""35%"" height=""75%""></img></td>
    <td width=300></td>
  </tr>
</table>
  ",90.0,1.0,,,,,,,,,,,,,,,,,,,,,,,,,,
179,0,,html-keyboard-response,179,842495,0.0-7.5-2.5,0p80ze3jnx3h,2022-09-19 15:32:34.064,59102d52f601090001e80b82,2,59,0,38,0,24,Male,,,"
  <table>
  <tr height=300>
    <td width=300 height=300><img src=""static/images/cards/10_of_red_moons.svg"" width=""175px"" height=""250px""></img></td>
    <td width=300 height=300><img src=""static/images/cards/back_of_red_moons.svg"" width=""175px"" height=""250px""></img></td>
  </tr>
  <tr height=200>
    <td width=300><img src=""static/images/keys/z.svg"" width=""35%"" height=""75%""></img></td>
    <td width=300></td>
  </tr>
</table>
  ",,,,,,,,,,,,,,,,,,,,,,,,,,,,
180,0,,html-keyboard-response,180,844021,0.0-7.5-3.5,0p80ze3jnx3h,2022-09-19 15:32:34.064,59102d52f601090001e80b82,2,59,0,38,0,24,Male,,,"<p style=""font-size:50px"">You win!
+10 points this round!</p>",,,,,,,,,,,,,,,,,,,,,,,,,,,,
181,0,,html-keyboard-response,181,844534,0.0-7.5-4.5,0p80ze3jnx3h,2022-09-19 15:32:34.064,59102d52f601090001e80b82,2,59,0,38,0,24,Male,,,,,,1.0,choice,5.0,B,D,red,red,stars,moons,B,D,D,red,moons,2998.599999994,0.0,0.0,1,left,965.8000000119,10.0,1.0,1.0,,,
182,0,,html-keyboard-response,182,846066,0.0-7.6-0.6,0p80ze3jnx3h,2022-09-19 15:32:34.064,59102d52f601090001e80b82,2,59,0,38,0,24,Male,1530.599999994,,"
  <table>
  <tr height=300>
    <td width=300 height=300><img src=""static/images/cards/stack_of_black_stars.svg"" width=""175px"" height=""250px""></img></td>
    <td width=300 height=300><img src=""static/images/cards/stack_of_black_moons.svg"" width=""175px"" height=""250px""></img></td>
  </tr>
  <tr height=200>
    <td width=300><img src=""static/images/keys/w.svg"" width=""35%"" height=""75%""></img></td>
    <td width=300><img src=""static/images/keys/o.svg"" width=""35%"" height=""75%""></img></td>
  </tr>
</table>
  ",87.0,1.0,,,,,,,,,,,,,,,,,,,,,,,,,,
183,0,,html-keyboard-response,183,847783,0.0-7.6-1.6,0p80ze3jnx3h,2022-09-19 15:32:34.064,59102d52f601090001e80b82,2,59,0,38,0,24,Male,1204.599999994,,"
  <table>
  <tr height=300>
    <td width=300 height=300><img src=""static/images/cards/back_of_black_stars.svg"" width=""175px"" height=""250px""></img></td>
    <td width=300 height=300><img src=""static/images/cards/back_of_black_stars.svg"" width=""175px"" height=""250px""></img></td>
  </tr>
  <tr height=200>
    <td width=300><img src=""static/images/keys/z.svg"" width=""35%"" height=""75%""></img></td>
    <td width=300><img src=""static/images/keys/m.svg"" width=""35%"" height=""75%""></img></td>
  </tr>
</table>
  ",77.0,1.0,,,,,,,,,,,,,,,,,,,,,,,,,,
184,0,,html-keyboard-response,184,849289,0.0-7.6-2.6,0p80ze3jnx3h,2022-09-19 15:32:34.064,59102d52f601090001e80b82,2,59,0,38,0,24,Male,,,"
  <table>
  <tr height=300>
    <td width=300 height=300><img src=""static/images/cards/back_of_black_stars.svg"" width=""175px"" height=""250px""></img></td>
    <td width=300 height=300><img src=""static/images/cards/7_of_black_stars.svg"" width=""175px"" height=""250px""></img></td>
  </tr>
  <tr height=200>
    <td width=300><img src=""static/images/keys/z.svg"" width=""35%"" height=""75%""></img></td>
    <td width=300><img src=""static/images/keys/m.svg"" width=""35%"" height=""75%""></img></td>
  </tr>
</table>
  ",,,,,,,,,,,,,,,,,,,,,,,,,,,,
185,0,,html-keyboard-response,185,850799,0.0-7.6-3.6,0p80ze3jnx3h,2022-09-19 15:32:34.064,59102d52f601090001e80b82,2,59,0,38,0,24,Male,,,"<p style=""font-size:50px"">You win!
+10 points this round!</p>",,,,,,,,,,,,,,,,,,,,,,,,,,,,
186,0,,html-keyboard-response,186,851309,0.0-7.6-4.6,0p80ze3jnx3h,2022-09-19 15:32:34.064,59102d52f601090001e80b82,2,59,0,38,0,24,Male,,,,,,1.0,choice,6.0,A,C,black,black,stars,moons,A,C,A,black,stars,1530.599999994,1.0,1.0,NA,right,1204.599999994,7.0,1.0,1.0,,,
187,0,,html-keyboard-response,187,852648,0.0-7.7-0.7,0p80ze3jnx3h,2022-09-19 15:32:34.064,59102d52f601090001e80b82,2,59,0,38,0,24,Male,1338.599999994,,"
  <table>
  <tr height=300>
    <td width=300 height=300><img src=""static/images/cards/stack_of_black_stars.svg"" width=""175px"" height=""250px""></img></td>
    <td width=300 height=300><img src=""static/images/cards/stack_of_red_moons.svg"" width=""175px"" height=""250px""></img></td>
  </tr>
  <tr height=200>
    <td width=300><img src=""static/images/keys/w.svg"" width=""35%"" height=""75%""></img></td>
    <td width=300><img src=""static/images/keys/o.svg"" width=""35%"" height=""75%""></img></td>
  </tr>
</table>
  ",87.0,1.0,,,,,,,,,,,,,,,,,,,,,,,,,,
188,0,,html-keyboard-response,188,854043,0.0-7.7-1.7,0p80ze3jnx3h,2022-09-19 15:32:34.064,59102d52f601090001e80b82,2,59,0,38,0,24,Male,889.8000000119,,"
  <table>
  <tr height=300>
    <td width=300 height=300><img src=""static/images/cards/back_of_black_stars.svg"" width=""175px"" height=""250px""></img></td>
    <td width=300 height=300><img src=""static/images/cards/back_of_black_stars.svg"" width=""175px"" height=""250px""></img></td>
  </tr>
  <tr height=200>
    <td width=300><img src=""static/images/keys/z.svg"" width=""35%"" height=""75%""></img></td>
    <td width=300><img src=""static/images/keys/m.svg"" width=""35%"" height=""75%""></img></td>
  </tr>
</table>
  ",90.0,1.0,,,,,,,,,,,,,,,,,,,,,,,,,,
189,0,,html-keyboard-response,189,855553,0.0-7.7-2.7,0p80ze3jnx3h,2022-09-19 15:32:34.064,59102d52f601090001e80b82,2,59,0,38,0,24,Male,,,"
  <table>
  <tr height=300>
    <td width=300 height=300><img src=""static/images/cards/3_of_black_stars.svg"" width=""175px"" height=""250px""></img></td>
    <td width=300 height=300><img src=""static/images/cards/back_of_black_stars.svg"" width=""175px"" height=""250px""></img></td>
  </tr>
  <tr height=200>
    <td width=300><img src=""static/images/keys/z.svg"" width=""35%"" height=""75%""></img></td>
    <td width=300><img src=""static/images/keys/m.svg"" width=""35%"" height=""75%""></img></td>
  </tr>
</table>
  ",,,,,,,,,,,,,,,,,,,,,,,,,,,,
190,0,,html-keyboard-response,190,857075,0.0-7.7-3.7,0p80ze3jnx3h,2022-09-19 15:32:34.064,59102d52f601090001e80b82,2,59,0,38,0,24,Male,,,"<p style=""font-size:50px"">You Lose!
No points this round.</p>",,,,,,,,,,,,,,,,,,,,,,,,,,,,
191,0,,html-keyboard-response,191,857592,0.0-7.7-4.7,0p80ze3jnx3h,2022-09-19 15:32:34.064,59102d52f601090001e80b82,2,59,0,38,0,24,Male,,,,,,1.0,choice,7.0,A,D,black,red,stars,moons,A,D,A,black,stars,1338.599999994,1.0,1.0,NA,left,889.8000000119,3.0,0.0,0.0,,,
192,0,,html-keyboard-response,192,858703,0.0-7.8-0.8,0p80ze3jnx3h,2022-09-19 15:32:34.064,59102d52f601090001e80b82,2,59,0,38,0,24,Male,1109.8000000119,,"
  <table>
  <tr height=300>
    <td width=300 height=300><img src=""static/images/cards/stack_of_black_bolts.svg"" width=""175px"" height=""250px""></img></td>
    <td width=300 height=300><img src=""static/images/cards/stack_of_black_stars.svg"" width=""175px"" height=""250px""></img></td>
  </tr>
  <tr height=200>
    <td width=300><img src=""static/images/keys/w.svg"" width=""35%"" height=""75%""></img></td>
    <td width=300><img src=""static/images/keys/o.svg"" width=""35%"" height=""75%""></img></td>
  </tr>
</table>
  ",87.0,1.0,,,,,,,,,,,,,,,,,,,,,,,,,,
193,0,,html-keyboard-response,193,860134,0.0-7.8-1.8,0p80ze3jnx3h,2022-09-19 15:32:34.064,59102d52f601090001e80b82,2,59,0,38,0,24,Male,918.5,,"
  <table>
  <tr height=300>
    <td width=300 height=300><img src=""static/images/cards/back_of_black_bolts.svg"" width=""175px"" height=""250px""></img></td>
    <td width=300 height=300><img src=""static/images/cards/back_of_black_bolts.svg"" width=""175px"" height=""250px""></img></td>
  </tr>
  <tr height=200>
    <td width=300><img src=""static/images/keys/z.svg"" width=""35%"" height=""75%""></img></td>
    <td width=300></td>
  </tr>
</table>
  ",90.0,1.0,,,,,,,,,,,,,,,,,,,,,,,,,,
194,0,,html-keyboard-response,194,861640,0.0-7.8-2.8,0p80ze3jnx3h,2022-09-19 15:32:34.064,59102d52f601090001e80b82,2,59,0,38,0,24,Male,,,"
  <table>
  <tr height=300>
    <td width=300 height=300><img src=""static/images/cards/1_of_black_bolts.svg"" width=""175px"" height=""250px""></img></td>
    <td width=300 height=300><img src=""static/images/cards/back_of_black_bolts.svg"" width=""175px"" height=""250px""></img></td>
  </tr>
  <tr height=200>
    <td width=300><img src=""static/images/keys/z.svg"" width=""35%"" height=""75%""></img></td>
    <td width=300></td>
  </tr>
</table>
  ",,,,,,,,,,,,,,,,,,,,,,,,,,,,
195,0,,html-keyboard-response,195,863152,0.0-7.8-3.8,0p80ze3jnx3h,2022-09-19 15:32:34.064,59102d52f601090001e80b82,2,59,0,38,0,24,Male,,,"<p style=""font-size:50px"">You win!
+10 points this round!</p>",,,,,,,,,,,,,,,,,,,,,,,,,,,,
196,0,,html-keyboard-response,196,863663,0.0-7.8-4.8,0p80ze3jnx3h,2022-09-19 15:32:34.064,59102d52f601090001e80b82,2,59,0,38,0,24,Male,,,,,,1.0,choice,8.0,A,Xnc,black,black,bolts,stars,Xnc,A,Xnc,black,bolts,1109.8000000119,0.0,0.0,1,left,918.5,1.0,0.0,1.0,,,
197,0,,html-keyboard-response,197,864577,0.0-7.9-0.9,0p80ze3jnx3h,2022-09-19 15:32:34.064,59102d52f601090001e80b82,2,59,0,38,0,24,Male,912.3999999762,,"
  <table>
  <tr height=300>
    <td width=300 height=300><img src=""static/images/cards/stack_of_red_moons.svg"" width=""175px"" height=""250px""></img></td>
    <td width=300 height=300><img src=""static/images/cards/stack_of_black_stars.svg"" width=""175px"" height=""250px""></img></td>
  </tr>
  <tr height=200>
    <td width=300><img src=""static/images/keys/w.svg"" width=""35%"" height=""75%""></img></td>
    <td width=300><img src=""static/images/keys/o.svg"" width=""35%"" height=""75%""></img></td>
  </tr>
</table>
  ",79.0,1.0,,,,,,,,,,,,,,,,,,,,,,,,,,
198,0,,html-keyboard-response,198,865954,0.0-7.9-1.9,0p80ze3jnx3h,2022-09-19 15:32:34.064,59102d52f601090001e80b82,2,59,0,38,0,24,Male,863.6999999881,,"
  <table>
  <tr height=300>
    <td width=300 height=300><img src=""static/images/cards/back_of_black_stars.svg"" width=""175px"" height=""250px""></img></td>
    <td width=300 height=300><img src=""static/images/cards/back_of_black_stars.svg"" width=""175px"" height=""250px""></img></td>
  </tr>
  <tr height=200>
    <td width=300><img src=""static/images/keys/z.svg"" width=""35%"" height=""75%""></img></td>
    <td width=300><img src=""static/images/keys/m.svg"" width=""35%"" height=""75%""></img></td>
  </tr>
</table>
  ",77.0,1.0,,,,,,,,,,,,,,,,,,,,,,,,,,
199,0,,html-keyboard-response,199,867457,0.0-7.9-2.9,0p80ze3jnx3h,2022-09-19 15:32:34.064,59102d52f601090001e80b82,2,59,0,38,0,24,Male,,,"
  <table>
  <tr height=300>
    <td width=300 height=300><img src=""static/images/cards/back_of_black_stars.svg"" width=""175px"" height=""250px""></img></td>
    <td width=300 height=300><img src=""static/images/cards/4_of_black_stars.svg"" width=""175px"" height=""250px""></img></td>
  </tr>
  <tr height=200>
    <td width=300><img src=""static/images/keys/z.svg"" width=""35%"" height=""75%""></img></td>
    <td width=300><img src=""static/images/keys/m.svg"" width=""35%"" height=""75%""></img></td>
  </tr>
</table>
  ",,,,,,,,,,,,,,,,,,,,,,,,,,,,
200,0,,html-keyboard-response,200,868979,0.0-7.9-3.9,0p80ze3jnx3h,2022-09-19 15:32:34.064,59102d52f601090001e80b82,2,59,0,38,0,24,Male,,,"<p style=""font-size:50px"">You Lose!
No points this round.</p>",,,,,,,,,,,,,,,,,,,,,,,,,,,,
201,0,,html-keyboard-response,201,869492,0.0-7.9-4.9,0p80ze3jnx3h,2022-09-19 15:32:34.064,59102d52f601090001e80b82,2,59,0,38,0,24,Male,,,,,,1.0,choice,9.0,A,D,red,black,moons,stars,D,A,A,black,stars,912.3999999762,1.0,1.0,NA,right,863.6999999881,4.0,0.0,0.0,,,
202,0,,html-keyboard-response,202,870800,0.0-7.10-0.10,0p80ze3jnx3h,2022-09-19 15:32:34.064,59102d52f601090001e80b82,2,59,0,38,0,24,Male,1307.5,,"
  <table>
  <tr height=300>
    <td width=300 height=300><img src=""static/images/cards/stack_of_black_moons.svg"" width=""175px"" height=""250px""></img></td>
    <td width=300 height=300><img src=""static/images/cards/stack_of_red_moons.svg"" width=""175px"" height=""250px""></img></td>
  </tr>
  <tr height=200>
    <td width=300><img src=""static/images/keys/w.svg"" width=""35%"" height=""75%""></img></td>
    <td width=300><img src=""static/images/keys/o.svg"" width=""35%"" height=""75%""></img></td>
  </tr>
</table>
  ",87.0,1.0,,,,,,,,,,,,,,,,,,,,,,,,,,
203,0,,html-keyboard-response,203,872058,0.0-7.10-1.10,0p80ze3jnx3h,2022-09-19 15:32:34.064,59102d52f601090001e80b82,2,59,0,38,0,24,Male,746.400000006,,"
  <table>
  <tr height=300>
    <td width=300 height=300><img src=""static/images/cards/back_of_black_moons.svg"" width=""175px"" height=""250px""></img></td>
    <td width=300 height=300><img src=""static/images/cards/back_of_black_moons.svg"" width=""175px"" height=""250px""></img></td>
  </tr>
  <tr height=200>
    <td width=300><img src=""static/images/keys/z.svg"" width=""35%"" height=""75%""></img></td>
    <td width=300><img src=""static/images/keys/m.svg"" width=""35%"" height=""75%""></img></td>
  </tr>
</table>
  ",77.0,1.0,,,,,,,,,,,,,,,,,,,,,,,,,,
204,0,,html-keyboard-response,204,873563,0.0-7.10-2.10,0p80ze3jnx3h,2022-09-19 15:32:34.064,59102d52f601090001e80b82,2,59,0,38,0,24,Male,,,"
  <table>
  <tr height=300>
    <td width=300 height=300><img src=""static/images/cards/back_of_black_moons.svg"" width=""175px"" height=""250px""></img></td>
    <td width=300 height=300><img src=""static/images/cards/7_of_black_moons.svg"" width=""175px"" height=""250px""></img></td>
  </tr>
  <tr height=200>
    <td width=300><img src=""static/images/keys/z.svg"" width=""35%"" height=""75%""></img></td>
    <td width=300><img src=""static/images/keys/m.svg"" width=""35%"" height=""75%""></img></td>
  </tr>
</table>
  ",,,,,,,,,,,,,,,,,,,,,,,,,,,,
205,0,,html-keyboard-response,205,875072,0.0-7.10-3.10,0p80ze3jnx3h,2022-09-19 15:32:34.064,59102d52f601090001e80b82,2,59,0,38,0,24,Male,,,"<p style=""font-size:50px"">You win!
+10 points this round!</p>",,,,,,,,,,,,,,,,,,,,,,,,,,,,
206,0,,html-keyboard-response,206,875585,0.0-7.10-4.10,0p80ze3jnx3h,2022-09-19 15:32:34.064,59102d52f601090001e80b82,2,59,0,38,0,24,Male,,,,,,1.0,choice,10.0,C,D,black,red,moons,moons,C,D,C,black,moons,1307.5,1.0,0.0,NA,right,746.400000006,7.0,1.0,1.0,,,
207,0,,html-keyboard-response,207,876624,0.0-7.11-0.11,0p80ze3jnx3h,2022-09-19 15:32:34.064,59102d52f601090001e80b82,2,59,0,38,0,24,Male,1037.5,,"
  <table>
  <tr height=300>
    <td width=300 height=300><img src=""static/images/cards/stack_of_red_stars.svg"" width=""175px"" height=""250px""></img></td>
    <td width=300 height=300><img src=""static/images/cards/stack_of_black_stars.svg"" width=""175px"" height=""250px""></img></td>
  </tr>
  <tr height=200>
    <td width=300><img src=""static/images/keys/w.svg"" width=""35%"" height=""75%""></img></td>
    <td width=300><img src=""static/images/keys/o.svg"" width=""35%"" height=""75%""></img></td>
  </tr>
</table>
  ",79.0,1.0,,,,,,,,,,,,,,,,,,,,,,,,,,
208,0,,html-keyboard-response,208,877996,0.0-7.11-1.11,0p80ze3jnx3h,2022-09-19 15:32:34.064,59102d52f601090001e80b82,2,59,0,38,0,24,Male,865.900000006,,"
  <table>
  <tr height=300>
    <td width=300 height=300><img src=""static/images/cards/back_of_black_stars.svg"" width=""175px"" height=""250px""></img></td>
    <td width=300 height=300><img src=""static/images/cards/back_of_black_stars.svg"" width=""175px"" height=""250px""></img></td>
  </tr>
  <tr height=200>
    <td width=300><img src=""static/images/keys/z.svg"" width=""35%"" height=""75%""></img></td>
    <td width=300><img src=""static/images/keys/m.svg"" width=""35%"" height=""75%""></img></td>
  </tr>
</table>
  ",77.0,1.0,,,,,,,,,,,,,,,,,,,,,,,,,,
209,0,,html-keyboard-response,209,879507,0.0-7.11-2.11,0p80ze3jnx3h,2022-09-19 15:32:34.064,59102d52f601090001e80b82,2,59,0,38,0,24,Male,,,"
  <table>
  <tr height=300>
    <td width=300 height=300><img src=""static/images/cards/back_of_black_stars.svg"" width=""175px"" height=""250px""></img></td>
    <td width=300 height=300><img src=""static/images/cards/1_of_black_stars.svg"" width=""175px"" height=""250px""></img></td>
  </tr>
  <tr height=200>
    <td width=300><img src=""static/images/keys/z.svg"" width=""35%"" height=""75%""></img></td>
    <td width=300><img src=""static/images/keys/m.svg"" width=""35%"" height=""75%""></img></td>
  </tr>
</table>
  ",,,,,,,,,,,,,,,,,,,,,,,,,,,,
210,0,,html-keyboard-response,210,881020,0.0-7.11-3.11,0p80ze3jnx3h,2022-09-19 15:32:34.064,59102d52f601090001e80b82,2,59,0,38,0,24,Male,,,"<p style=""font-size:50px"">You Lose!
No points this round.</p>",,,,,,,,,,,,,,,,,,,,,,,,,,,,
211,0,,html-keyboard-response,211,881530,0.0-7.11-4.11,0p80ze3jnx3h,2022-09-19 15:32:34.064,59102d52f601090001e80b82,2,59,0,38,0,24,Male,,,,,,1.0,choice,11.0,A,B,red,black,stars,stars,B,A,A,black,stars,1037.5,1.0,1.0,NA,right,865.900000006,1.0,0.0,0.0,,,
212,0,,html-keyboard-response,212,882447,0.0-7.12-0.12,0p80ze3jnx3h,2022-09-19 15:32:34.064,59102d52f601090001e80b82,2,59,0,38,0,24,Male,916.6999999881,,"
  <table>
  <tr height=300>
    <td width=300 height=300><img src=""static/images/cards/stack_of_red_moons.svg"" width=""175px"" height=""250px""></img></td>
    <td width=300 height=300><img src=""static/images/cards/stack_of_black_bolts.svg"" width=""175px"" height=""250px""></img></td>
  </tr>
  <tr height=200>
    <td width=300><img src=""static/images/keys/w.svg"" width=""35%"" height=""75%""></img></td>
    <td width=300><img src=""static/images/keys/o.svg"" width=""35%"" height=""75%""></img></td>
  </tr>
</table>
  ",79.0,1.0,,,,,,,,,,,,,,,,,,,,,,,,,,
213,0,,html-keyboard-response,213,883610,0.0-7.12-1.12,0p80ze3jnx3h,2022-09-19 15:32:34.064,59102d52f601090001e80b82,2,59,0,38,0,24,Male,656.599999994,,"
  <table>
  <tr height=300>
    <td width=300 height=300><img src=""static/images/cards/back_of_black_bolts.svg"" width=""175px"" height=""250px""></img></td>
    <td width=300 height=300><img src=""static/images/cards/back_of_black_bolts.svg"" width=""175px"" height=""250px""></img></td>
  </tr>
  <tr height=200>
    <td width=300><img src=""static/images/keys/z.svg"" width=""35%"" height=""75%""></img></td>
    <td width=300></td>
  </tr>
</table>
  ",90.0,1.0,,,,,,,,,,,,,,,,,,,,,,,,,,
214,0,,html-keyboard-response,214,885118,0.0-7.12-2.12,0p80ze3jnx3h,2022-09-19 15:32:34.064,59102d52f601090001e80b82,2,59,0,38,0,24,Male,,,"
  <table>
  <tr height=300>
    <td width=300 height=300><img src=""static/images/cards/7_of_black_bolts.svg"" width=""175px"" height=""250px""></img></td>
    <td width=300 height=300><img src=""static/images/cards/back_of_black_bolts.svg"" width=""175px"" height=""250px""></img></td>
  </tr>
  <tr height=200>
    <td width=300><img src=""static/images/keys/z.svg"" width=""35%"" height=""75%""></img></td>
    <td width=300></td>
  </tr>
</table>
  ",,,,,,,,,,,,,,,,,,,,,,,,,,,,
215,0,,html-keyboard-response,215,886622,0.0-7.12-3.12,0p80ze3jnx3h,2022-09-19 15:32:34.064,59102d52f601090001e80b82,2,59,0,38,0,24,Male,,,"<p style=""font-size:50px"">You win!
+10 points this round!</p>",,,,,,,,,,,,,,,,,,,,,,,,,,,,
216,0,,html-keyboard-response,216,887135,0.0-7.12-4.12,0p80ze3jnx3h,2022-09-19 15:32:34.064,59102d52f601090001e80b82,2,59,0,38,0,24,Male,,,,,,1.0,choice,12.0,D,Xnc,red,black,moons,bolts,D,Xnc,Xnc,black,bolts,916.6999999881,0.0,0.0,1,left,656.599999994,7.0,1.0,1.0,,,
217,0,,html-keyboard-response,217,888249,0.0-7.13-0.13,0p80ze3jnx3h,2022-09-19 15:32:34.064,59102d52f601090001e80b82,2,59,0,38,0,24,Male,1112.8999999762,,"
  <table>
  <tr height=300>
    <td width=300 height=300><img src=""static/images/cards/stack_of_red_bolts.svg"" width=""175px"" height=""250px""></img></td>
    <td width=300 height=300><img src=""static/images/cards/stack_of_black_moons.svg"" width=""175px"" height=""250px""></img></td>
  </tr>
  <tr height=200>
    <td width=300><img src=""static/images/keys/w.svg"" width=""35%"" height=""75%""></img></td>
    <td width=300><img src=""static/images/keys/o.svg"" width=""35%"" height=""75%""></img></td>
  </tr>
</table>
  ",87.0,1.0,,,,,,,,,,,,,,,,,,,,,,,,,,
218,0,,html-keyboard-response,218,889806,0.0-7.13-1.13,0p80ze3jnx3h,2022-09-19 15:32:34.064,59102d52f601090001e80b82,2,59,0,38,0,24,Male,1045.5,,"
  <table>
  <tr height=300>
    <td width=300 height=300><img src=""static/images/cards/back_of_red_bolts.svg"" width=""175px"" height=""250px""></img></td>
    <td width=300 height=300><img src=""static/images/cards/back_of_red_bolts.svg"" width=""175px"" height=""250px""></img></td>
  </tr>
  <tr height=200>
    <td width=300><img src=""static/images/keys/z.svg"" width=""35%"" height=""75%""></img></td>
    <td width=300><img src=""static/images/keys/m.svg"" width=""35%"" height=""75%""></img></td>
  </tr>
</table>
  ",90.0,1.0,,,,,,,,,,,,,,,,,,,,,,,,,,
219,0,,html-keyboard-response,219,891309,0.0-7.13-2.13,0p80ze3jnx3h,2022-09-19 15:32:34.064,59102d52f601090001e80b82,2,59,0,38,0,24,Male,,,"
  <table>
  <tr height=300>
    <td width=300 height=300><img src=""static/images/cards/3_of_red_bolts.svg"" width=""175px"" height=""250px""></img></td>
    <td width=300 height=300><img src=""static/images/cards/back_of_red_bolts.svg"" width=""175px"" height=""250px""></img></td>
  </tr>
  <tr height=200>
    <td width=300><img src=""static/images/keys/z.svg"" width=""35%"" height=""75%""></img></td>
    <td width=300><img src=""static/images/keys/m.svg"" width=""35%"" height=""75%""></img></td>
  </tr>
</table>
  ",,,,,,,,,,,,,,,,,,,,,,,,,,,,
220,0,,html-keyboard-response,220,892835,0.0-7.13-3.13,0p80ze3jnx3h,2022-09-19 15:32:34.064,59102d52f601090001e80b82,2,59,0,38,0,24,Male,,,"<p style=""font-size:50px"">You win!
+10 points this round!</p>",,,,,,,,,,,,,,,,,,,,,,,,,,,,
221,0,,html-keyboard-response,221,893350,0.0-7.13-4.13,0p80ze3jnx3h,2022-09-19 15:32:34.064,59102d52f601090001e80b82,2,59,0,38,0,24,Male,,,,,,1.0,choice,13.0,C,Xc,red,black,bolts,moons,Xc,C,Xc,red,bolts,1112.8999999762,1.0,0.0,NA,left,1045.5,3.0,0.0,1.0,,,
222,0,,html-keyboard-response,222,894621,0.0-7.14-0.14,0p80ze3jnx3h,2022-09-19 15:32:34.064,59102d52f601090001e80b82,2,59,0,38,0,24,Male,1270.099999994,,"
  <table>
  <tr height=300>
    <td width=300 height=300><img src=""static/images/cards/stack_of_black_stars.svg"" width=""175px"" height=""250px""></img></td>
    <td width=300 height=300><img src=""static/images/cards/stack_of_red_moons.svg"" width=""175px"" height=""250px""></img></td>
  </tr>
  <tr height=200>
    <td width=300><img src=""static/images/keys/w.svg"" width=""35%"" height=""75%""></img></td>
    <td width=300><img src=""static/images/keys/o.svg"" width=""35%"" height=""75%""></img></td>
  </tr>
</table>
  ",87.0,1.0,,,,,,,,,,,,,,,,,,,,,,,,,,
223,0,,html-keyboard-response,223,895920,0.0-7.14-1.14,0p80ze3jnx3h,2022-09-19 15:32:34.064,59102d52f601090001e80b82,2,59,0,38,0,24,Male,785.8000000119,,"
  <table>
  <tr height=300>
    <td width=300 height=300><img src=""static/images/cards/back_of_black_stars.svg"" width=""175px"" height=""250px""></img></td>
    <td width=300 height=300><img src=""static/images/cards/back_of_black_stars.svg"" width=""175px"" height=""250px""></img></td>
  </tr>
  <tr height=200>
    <td width=300><img src=""static/images/keys/z.svg"" width=""35%"" height=""75%""></img></td>
    <td width=300><img src=""static/images/keys/m.svg"" width=""35%"" height=""75%""></img></td>
  </tr>
</table>
  ",90.0,1.0,,,,,,,,,,,,,,,,,,,,,,,,,,
224,0,,html-keyboard-response,224,897421,0.0-7.14-2.14,0p80ze3jnx3h,2022-09-19 15:32:34.064,59102d52f601090001e80b82,2,59,0,38,0,24,Male,,,"
  <table>
  <tr height=300>
    <td width=300 height=300><img src=""static/images/cards/4_of_black_stars.svg"" width=""175px"" height=""250px""></img></td>
    <td width=300 height=300><img src=""static/images/cards/back_of_black_stars.svg"" width=""175px"" height=""250px""></img></td>
  </tr>
  <tr height=200>
    <td width=300><img src=""static/images/keys/z.svg"" width=""35%"" height=""75%""></img></td>
    <td width=300><img src=""static/images/keys/m.svg"" width=""35%"" height=""75%""></img></td>
  </tr>
</table>
  ",,,,,,,,,,,,,,,,,,,,,,,,,,,,
225,0,,html-keyboard-response,225,898940,0.0-7.14-3.14,0p80ze3jnx3h,2022-09-19 15:32:34.064,59102d52f601090001e80b82,2,59,0,38,0,24,Male,,,"<p style=""font-size:50px"">You Lose!
No points this round.</p>",,,,,,,,,,,,,,,,,,,,,,,,,,,,
226,0,,html-keyboard-response,226,899449,0.0-7.14-4.14,0p80ze3jnx3h,2022-09-19 15:32:34.064,59102d52f601090001e80b82,2,59,0,38,0,24,Male,,,,,,1.0,choice,14.0,A,D,black,red,stars,moons,A,D,A,black,stars,1270.099999994,1.0,1.0,NA,left,785.8000000119,4.0,0.0,0.0,,,
227,0,,html-keyboard-response,227,901661,0.0-7.15-0.15,0p80ze3jnx3h,2022-09-19 15:32:34.064,59102d52f601090001e80b82,2,59,0,38,0,24,Male,2211.7999999821,,"
  <table>
  <tr height=300>
    <td width=300 height=300><img src=""static/images/cards/stack_of_black_moons.svg"" width=""175px"" height=""250px""></img></td>
    <td width=300 height=300><img src=""static/images/cards/stack_of_black_stars.svg"" width=""175px"" height=""250px""></img></td>
  </tr>
  <tr height=200>
    <td width=300><img src=""static/images/keys/w.svg"" width=""35%"" height=""75%""></img></td>
    <td width=300><img src=""static/images/keys/o.svg"" width=""35%"" height=""75%""></img></td>
  </tr>
</table>
  ",79.0,1.0,,,,,,,,,,,,,,,,,,,,,,,,,,
228,0,,html-keyboard-response,228,903046,0.0-7.15-1.15,0p80ze3jnx3h,2022-09-19 15:32:34.064,59102d52f601090001e80b82,2,59,0,38,0,24,Male,877.7000000179,,"
  <table>
  <tr height=300>
    <td width=300 height=300><img src=""static/images/cards/back_of_black_stars.svg"" width=""175px"" height=""250px""></img></td>
    <td width=300 height=300><img src=""static/images/cards/back_of_black_stars.svg"" width=""175px"" height=""250px""></img></td>
  </tr>
  <tr height=200>
    <td width=300><img src=""static/images/keys/z.svg"" width=""35%"" height=""75%""></img></td>
    <td width=300><img src=""static/images/keys/m.svg"" width=""35%"" height=""75%""></img></td>
  </tr>
</table>
  ",90.0,1.0,,,,,,,,,,,,,,,,,,,,,,,,,,
229,0,,html-keyboard-response,229,904560,0.0-7.15-2.15,0p80ze3jnx3h,2022-09-19 15:32:34.064,59102d52f601090001e80b82,2,59,0,38,0,24,Male,,,"
  <table>
  <tr height=300>
    <td width=300 height=300><img src=""static/images/cards/8_of_black_stars.svg"" width=""175px"" height=""250px""></img></td>
    <td width=300 height=300><img src=""static/images/cards/back_of_black_stars.svg"" width=""175px"" height=""250px""></img></td>
  </tr>
  <tr height=200>
    <td width=300><img src=""static/images/keys/z.svg"" width=""35%"" height=""75%""></img></td>
    <td width=300><img src=""static/images/keys/m.svg"" width=""35%"" height=""75%""></img></td>
  </tr>
</table>
  ",,,,,,,,,,,,,,,,,,,,,,,,,,,,
230,0,,html-keyboard-response,230,906084,0.0-7.15-3.15,0p80ze3jnx3h,2022-09-19 15:32:34.064,59102d52f601090001e80b82,2,59,0,38,0,24,Male,,,"<p style=""font-size:50px"">You win!
+10 points this round!</p>",,,,,,,,,,,,,,,,,,,,,,,,,,,,
231,0,,html-keyboard-response,231,906595,0.0-7.15-4.15,0p80ze3jnx3h,2022-09-19 15:32:34.064,59102d52f601090001e80b82,2,59,0,38,0,24,Male,,,,,,1.0,choice,15.0,A,C,black,black,moons,stars,C,A,A,black,stars,2211.7999999821,1.0,1.0,NA,left,877.7000000179,8.0,1.0,1.0,,,
232,0,,html-keyboard-response,232,907975,0.0-7.16-0.16,0p80ze3jnx3h,2022-09-19 15:32:34.064,59102d52f601090001e80b82,2,59,0,38,0,24,Male,1379.5,,"
  <table>
  <tr height=300>
    <td width=300 height=300><img src=""static/images/cards/stack_of_black_moons.svg"" width=""175px"" height=""250px""></img></td>
    <td width=300 height=300><img src=""static/images/cards/stack_of_red_moons.svg"" width=""175px"" height=""250px""></img></td>
  </tr>
  <tr height=200>
    <td width=300><img src=""static/images/keys/w.svg"" width=""35%"" height=""75%""></img></td>
    <td width=300><img src=""static/images/keys/o.svg"" width=""35%"" height=""75%""></img></td>
  </tr>
</table>
  ",87.0,1.0,,,,,,,,,,,,,,,,,,,,,,,,,,
233,0,,html-keyboard-response,233,909237,0.0-7.16-1.16,0p80ze3jnx3h,2022-09-19 15:32:34.064,59102d52f601090001e80b82,2,59,0,38,0,24,Male,758.0,,"
  <table>
  <tr height=300>
    <td width=300 height=300><img src=""static/images/cards/back_of_black_moons.svg"" width=""175px"" height=""250px""></img></td>
    <td width=300 height=300><img src=""static/images/cards/back_of_black_moons.svg"" width=""175px"" height=""250px""></img></td>
  </tr>
  <tr height=200>
    <td width=300><img src=""static/images/keys/z.svg"" width=""35%"" height=""75%""></img></td>
    <td width=300><img src=""static/images/keys/m.svg"" width=""35%"" height=""75%""></img></td>
  </tr>
</table>
  ",77.0,1.0,,,,,,,,,,,,,,,,,,,,,,,,,,
234,0,,html-keyboard-response,234,910753,0.0-7.16-2.16,0p80ze3jnx3h,2022-09-19 15:32:34.064,59102d52f601090001e80b82,2,59,0,38,0,24,Male,,,"
  <table>
  <tr height=300>
