,index,success,trial_type,trial_index,time_elapsed,internal_node_id,subject,date,prol_id,ctbl,sense_of_control_A,sense_of_control_B,sense_of_control_C,sense_of_control_D,age,gender,rt,url,stimulus,key_press,npress,is_data_trial,phase,trial,deck1,deck2,col1,col2,sym1,sym2,deck_l,deck_r,chosen_deck,chosen_col,chosen_sym,deck_rt,choose_choice,mutual_info,hidden_key,chosen_card,card_rt,player_num,win_card,outcome,mock_rating,response,responses
0,0,1.0,fullscreen,0,12800,0.0-0.0,g75rdkywfnr,2022-09-19 17:57:49.051,62aa26e333b0fca51f65d3ac,2,61,42,62,38,30,Female,,,,,,,,,,,,,,,,,,,,,,,,,,,,,,,
1,0,,external-html,1,18921,0.0-1.0,g75rdkywfnr,2022-09-19 17:57:49.051,62aa26e333b0fca51f65d3ac,2,61,42,62,38,30,Female,5999.3999999762,static/js/sub/consent.html,,,,,,,,,,,,,,,,,,,,,,,,,,,,,
2,0,,call-function,2,18922,0.0-2.0,g75rdkywfnr,2022-09-19 17:57:49.051,62aa26e333b0fca51f65d3ac,2,61,42,62,38,30,Female,,,,,,,,,,,,,,,,,,,,,,,,,,,,,,,
3,0,,image-keyboard-response,3,31852,0.0-3.0-0.0,g75rdkywfnr,2022-09-19 17:57:49.051,62aa26e333b0fca51f65d3ac,2,61,42,62,38,30,Female,12928.8000000119,,static/images/instructions_CB_2/Slide1.png,39.0,,,,,,,,,,,,,,,,,,,,,,,,,,,
4,0,,image-keyboard-response,4,36099,0.0-3.1-0.1,g75rdkywfnr,2022-09-19 17:57:49.051,62aa26e333b0fca51f65d3ac,2,61,42,62,38,30,Female,4247.2000000179,,static/images/instructions_CB_2/Slide2.png,39.0,,,,,,,,,,,,,,,,,,,,,,,,,,,
5,0,,image-keyboard-response,5,38171,0.0-3.2-0.2,g75rdkywfnr,2022-09-19 17:57:49.051,62aa26e333b0fca51f65d3ac,2,61,42,62,38,30,Female,2070.5,,static/images/instructions_CB_2/Slide3.png,39.0,,,,,,,,,,,,,,,,,,,,,,,,,,,
6,0,,image-keyboard-response,6,40909,0.0-3.3-0.3,g75rdkywfnr,2022-09-19 17:57:49.051,62aa26e333b0fca51f65d3ac,2,61,42,62,38,30,Female,2737.6000000238,,static/images/instructions_CB_2/Slide4.png,39.0,,,,,,,,,,,,,,,,,,,,,,,,,,,
7,0,,image-keyboard-response,7,45265,0.0-3.4-0.4,g75rdkywfnr,2022-09-19 17:57:49.051,62aa26e333b0fca51f65d3ac,2,61,42,62,38,30,Female,4354.400000006,,static/images/instructions_CB_2/Slide5.png,39.0,,,,,,,,,,,,,,,,,,,,,,,,,,,
8,0,,image-keyboard-response,8,46269,0.0-3.5-0.5,g75rdkywfnr,2022-09-19 17:57:49.051,62aa26e333b0fca51f65d3ac,2,61,42,62,38,30,Female,1002.7999999821,,static/images/instructions_CB_2/Slide6.png,39.0,,,,,,,,,,,,,,,,,,,,,,,,,,,
9,0,,image-keyboard-response,9,48748,0.0-3.6-0.6,g75rdkywfnr,2022-09-19 17:57:49.051,62aa26e333b0fca51f65d3ac,2,61,42,62,38,30,Female,2477.900000006,,static/images/instructions_CB_2/Slide7.png,39.0,,,,,,,,,,,,,,,,,,,,,,,,,,,
10,0,,image-keyboard-response,10,58915,0.0-3.7-0.7,g75rdkywfnr,2022-09-19 17:57:49.051,62aa26e333b0fca51f65d3ac,2,61,42,62,38,30,Female,10165.1999999881,,static/images/instructions_CB_2/Slide8.png,39.0,,,,,,,,,,,,,,,,,,,,,,,,,,,
11,0,,image-keyboard-response,11,64232,0.0-3.8-0.8,g75rdkywfnr,2022-09-19 17:57:49.051,62aa26e333b0fca51f65d3ac,2,61,42,62,38,30,Female,5316.0,,static/images/instructions_CB_2/Slide9.png,39.0,,,,,,,,,,,,,,,,,,,,,,,,,,,
12,0,,image-keyboard-response,12,91007,0.0-3.9-0.9,g75rdkywfnr,2022-09-19 17:57:49.051,62aa26e333b0fca51f65d3ac,2,61,42,62,38,30,Female,26774.1999999881,,static/images/instructions_CB_2/Slide10.png,39.0,,,,,,,,,,,,,,,,,,,,,,,,,,,
13,0,,image-keyboard-response,13,94714,0.0-3.10-0.10,g75rdkywfnr,2022-09-19 17:57:49.051,62aa26e333b0fca51f65d3ac,2,61,42,62,38,30,Female,3705.6999999881,,static/images/instructions_CB_2/Slide11.png,39.0,,,,,,,,,,,,,,,,,,,,,,,,,,,
14,0,,image-keyboard-response,14,102292,0.0-3.11-0.11,g75rdkywfnr,2022-09-19 17:57:49.051,62aa26e333b0fca51f65d3ac,2,61,42,62,38,30,Female,7582.900000006,,static/images/instructions_CB_2/Slide12.png,39.0,,,,,,,,,,,,,,,,,,,,,,,,,,,
15,0,,image-keyboard-response,15,125286,0.0-3.12-0.12,g75rdkywfnr,2022-09-19 17:57:49.051,62aa26e333b0fca51f65d3ac,2,61,42,62,38,30,Female,22993.400000006,,static/images/instructions_CB_2/Slide13.png,39.0,,,,,,,,,,,,,,,,,,,,,,,,,,,
16,0,,image-keyboard-response,16,130080,0.0-3.13-0.13,g75rdkywfnr,2022-09-19 17:57:49.051,62aa26e333b0fca51f65d3ac,2,61,42,62,38,30,Female,4792.5,,static/images/instructions_CB_2/Slide14.png,39.0,,,,,,,,,,,,,,,,,,,,,,,,,,,
17,0,,image-keyboard-response,17,134041,0.0-3.14-0.14,g75rdkywfnr,2022-09-19 17:57:49.051,62aa26e333b0fca51f65d3ac,2,61,42,62,38,30,Female,3960.3000000119,,static/images/instructions_CB_2/Slide15.png,39.0,,,,,,,,,,,,,,,,,,,,,,,,,,,
18,0,,image-keyboard-response,18,136162,0.0-3.15-0.15,g75rdkywfnr,2022-09-19 17:57:49.051,62aa26e333b0fca51f65d3ac,2,61,42,62,38,30,Female,2120.3000000119,,static/images/instructions_CB_2/Slide16.png,39.0,,,,,,,,,,,,,,,,,,,,,,,,,,,
19,0,,image-keyboard-response,19,183562,0.0-3.16-0.16,g75rdkywfnr,2022-09-19 17:57:49.051,62aa26e333b0fca51f65d3ac,2,61,42,62,38,30,Female,47392.900000006,,static/images/instructions_CB_2/Slide17.png,39.0,,,,,,,,,,,,,,,,,,,,,,,,,,,
20,0,,image-keyboard-response,20,187247,0.0-3.17-0.17,g75rdkywfnr,2022-09-19 17:57:49.051,62aa26e333b0fca51f65d3ac,2,61,42,62,38,30,Female,3683.5,,static/images/instructions_CB_2/Slide18.png,39.0,,,,,,,,,,,,,,,,,,,,,,,,,,,
21,0,,image-keyboard-response,21,190780,0.0-3.18-0.18,g75rdkywfnr,2022-09-19 17:57:49.051,62aa26e333b0fca51f65d3ac,2,61,42,62,38,30,Female,3532.099999994,,static/images/instructions_CB_2/Slide19.png,39.0,,,,,,,,,,,,,,,,,,,,,,,,,,,
22,0,,html-keyboard-response,22,192288,0.0-4.0-0.0,g75rdkywfnr,2022-09-19 17:57:49.051,62aa26e333b0fca51f65d3ac,2,61,42,62,38,30,Female,,,"<img src=""static/images/cards/stack_of_black_stars.svg"" width=""175px"" height=""250px""></img>",,,,,,,,,,,,,,,,,,,,,,,,,,,,
23,0,,html-keyboard-response,23,194346,0.0-4.0-1.0,g75rdkywfnr,2022-09-19 17:57:49.051,62aa26e333b0fca51f65d3ac,2,61,42,62,38,30,Female,1546.5,,"
  <table>
  <tr height=300>
    <td width=300 height=300><img src=""static/images/cards/back_of_black_stars.svg"" width=""175px"" height=""250px""></img></td>
    <td width=300 height=300><img src=""static/images/cards/back_of_black_stars.svg"" width=""175px"" height=""250px""></img></td>
  </tr>
  <tr height=200>
    <td width=300><img src=""static/images/keys/z.svg"" width=""35%"" height=""75%""></img></td>
    <td width=300><img src=""static/images/keys/m.svg"" width=""35%"" height=""75%""></img></td>
  </tr>
</table>
  ",77.0,1.0,,,,,,,,,,,,,,,,,,,,,,,,,,
24,0,,html-keyboard-response,24,195853,0.0-4.0-2.0,g75rdkywfnr,2022-09-19 17:57:49.051,62aa26e333b0fca51f65d3ac,2,61,42,62,38,30,Female,,,"
  <table>
  <tr height=300>
    <td width=300 height=300><img src=""static/images/cards/back_of_black_stars.svg"" width=""175px"" height=""250px""></img></td>
    <td width=300 height=300><img src=""static/images/cards/2_of_black_stars.svg"" width=""175px"" height=""250px""></img></td>
  </tr>
  <tr height=200>
    <td width=300><img src=""static/images/keys/z.svg"" width=""35%"" height=""75%""></img></td>
    <td width=300><img src=""static/images/keys/m.svg"" width=""35%"" height=""75%""></img></td>
  </tr>
</table>
  ",,,,,,,,,,,,,,,,,,,,,,,,,,,,
25,0,,html-keyboard-response,25,197363,0.0-4.0-3.0,g75rdkywfnr,2022-09-19 17:57:49.051,62aa26e333b0fca51f65d3ac,2,61,42,62,38,30,Female,,,"<p style=""font-size:50px"">You Lose!
No points this round.</p>",,,,,,,,,,,,,,,,,,,,,,,,,,,,
26,0,,html-keyboard-response,26,197877,0.0-4.0-4.0,g75rdkywfnr,2022-09-19 17:57:49.051,62aa26e333b0fca51f65d3ac,2,61,42,62,38,30,Female,,,,,,1.0,learning,0.0,A,,black,,stars,,,,A,black,stars,,1.0,1.0,NA,right,1546.5,2.0,0.0,0.0,,,
27,0,,html-keyboard-response,27,199387,0.0-4.1-0.1,g75rdkywfnr,2022-09-19 17:57:49.051,62aa26e333b0fca51f65d3ac,2,61,42,62,38,30,Female,,,"<img src=""static/images/cards/stack_of_red_stars.svg"" width=""175px"" height=""250px""></img>",,,,,,,,,,,,,,,,,,,,,,,,,,,,
28,0,,html-keyboard-response,28,200970,0.0-4.1-1.1,g75rdkywfnr,2022-09-19 17:57:49.051,62aa26e333b0fca51f65d3ac,2,61,42,62,38,30,Female,1057.2999999821,,"
  <table>
  <tr height=300>
    <td width=300 height=300><img src=""static/images/cards/back_of_red_stars.svg"" width=""175px"" height=""250px""></img></td>
    <td width=300 height=300><img src=""static/images/cards/back_of_red_stars.svg"" width=""175px"" height=""250px""></img></td>
  </tr>
  <tr height=200>
    <td width=300><img src=""static/images/keys/z.svg"" width=""35%"" height=""75%""></img></td>
    <td width=300></td>
  </tr>
</table>
  ",90.0,1.0,,,,,,,,,,,,,,,,,,,,,,,,,,
29,0,,html-keyboard-response,29,202481,0.0-4.1-2.1,g75rdkywfnr,2022-09-19 17:57:49.051,62aa26e333b0fca51f65d3ac,2,61,42,62,38,30,Female,,,"
  <table>
  <tr height=300>
    <td width=300 height=300><img src=""static/images/cards/7_of_red_stars.svg"" width=""175px"" height=""250px""></img></td>
    <td width=300 height=300><img src=""static/images/cards/back_of_red_stars.svg"" width=""175px"" height=""250px""></img></td>
  </tr>
  <tr height=200>
    <td width=300><img src=""static/images/keys/z.svg"" width=""35%"" height=""75%""></img></td>
    <td width=300></td>
  </tr>
</table>
  ",,,,,,,,,,,,,,,,,,,,,,,,,,,,
30,0,,html-keyboard-response,30,203990,0.0-4.1-3.1,g75rdkywfnr,2022-09-19 17:57:49.051,62aa26e333b0fca51f65d3ac,2,61,42,62,38,30,Female,,,"<p style=""font-size:50px"">You win!
+10 points this round!</p>",,,,,,,,,,,,,,,,,,,,,,,,,,,,
31,0,,html-keyboard-response,31,204502,0.0-4.1-4.1,g75rdkywfnr,2022-09-19 17:57:49.051,62aa26e333b0fca51f65d3ac,2,61,42,62,38,30,Female,,,,,,1.0,learning,1.0,B,,red,,stars,,,,B,red,stars,,0.0,1.0,1,left,1057.2999999821,7.0,1.0,1.0,,,
32,0,,html-keyboard-response,32,206004,0.0-4.2-0.2,g75rdkywfnr,2022-09-19 17:57:49.051,62aa26e333b0fca51f65d3ac,2,61,42,62,38,30,Female,,,"<img src=""static/images/cards/stack_of_black_moons.svg"" width=""175px"" height=""250px""></img>",,,,,,,,,,,,,,,,,,,,,,,,,,,,
33,0,,html-keyboard-response,33,207168,0.0-4.2-1.2,g75rdkywfnr,2022-09-19 17:57:49.051,62aa26e333b0fca51f65d3ac,2,61,42,62,38,30,Female,653.5,,"
  <table>
  <tr height=300>
    <td width=300 height=300><img src=""static/images/cards/back_of_black_moons.svg"" width=""175px"" height=""250px""></img></td>
    <td width=300 height=300><img src=""static/images/cards/back_of_black_moons.svg"" width=""175px"" height=""250px""></img></td>
  </tr>
  <tr height=200>
    <td width=300><img src=""static/images/keys/z.svg"" width=""35%"" height=""75%""></img></td>
    <td width=300><img src=""static/images/keys/m.svg"" width=""35%"" height=""75%""></img></td>
  </tr>
</table>
  ",90.0,1.0,,,,,,,,,,,,,,,,,,,,,,,,,,
34,0,,html-keyboard-response,34,208672,0.0-4.2-2.2,g75rdkywfnr,2022-09-19 17:57:49.051,62aa26e333b0fca51f65d3ac,2,61,42,62,38,30,Female,,,"
  <table>
  <tr height=300>
    <td width=300 height=300><img src=""static/images/cards/2_of_black_moons.svg"" width=""175px"" height=""250px""></img></td>
    <td width=300 height=300><img src=""static/images/cards/back_of_black_moons.svg"" width=""175px"" height=""250px""></img></td>
  </tr>
  <tr height=200>
    <td width=300><img src=""static/images/keys/z.svg"" width=""35%"" height=""75%""></img></td>
    <td width=300><img src=""static/images/keys/m.svg"" width=""35%"" height=""75%""></img></td>
  </tr>
</table>
  ",,,,,,,,,,,,,,,,,,,,,,,,,,,,
35,0,,html-keyboard-response,35,210184,0.0-4.2-3.2,g75rdkywfnr,2022-09-19 17:57:49.051,62aa26e333b0fca51f65d3ac,2,61,42,62,38,30,Female,,,"<p style=""font-size:50px"">You Lose!
No points this round.</p>",,,,,,,,,,,,,,,,,,,,,,,,,,,,
36,0,,html-keyboard-response,36,210689,0.0-4.2-4.2,g75rdkywfnr,2022-09-19 17:57:49.051,62aa26e333b0fca51f65d3ac,2,61,42,62,38,30,Female,,,,,,1.0,learning,2.0,C,,black,,moons,,,,C,black,moons,,1.0,0.0,NA,left,653.5,2.0,0.0,0.0,,,
37,0,,html-keyboard-response,37,212195,0.0-4.3-0.3,g75rdkywfnr,2022-09-19 17:57:49.051,62aa26e333b0fca51f65d3ac,2,61,42,62,38,30,Female,,,"<img src=""static/images/cards/stack_of_red_moons.svg"" width=""175px"" height=""250px""></img>",,,,,,,,,,,,,,,,,,,,,,,,,,,,
38,0,,html-keyboard-response,38,213561,0.0-4.3-1.3,g75rdkywfnr,2022-09-19 17:57:49.051,62aa26e333b0fca51f65d3ac,2,61,42,62,38,30,Female,857.8000000119,,"
  <table>
  <tr height=300>
    <td width=300 height=300><img src=""static/images/cards/back_of_red_moons.svg"" width=""175px"" height=""250px""></img></td>
    <td width=300 height=300><img src=""static/images/cards/back_of_red_moons.svg"" width=""175px"" height=""250px""></img></td>
  </tr>
  <tr height=200>
    <td width=300></td>
    <td width=300><img src=""static/images/keys/m.svg"" width=""35%"" height=""75%""></img></td>
  </tr>
</table>
  ",77.0,1.0,,,,,,,,,,,,,,,,,,,,,,,,,,
39,0,,html-keyboard-response,39,215078,0.0-4.3-2.3,g75rdkywfnr,2022-09-19 17:57:49.051,62aa26e333b0fca51f65d3ac,2,61,42,62,38,30,Female,,,"
  <table>
  <tr height=300>
    <td width=300 height=300><img src=""static/images/cards/back_of_red_moons.svg"" width=""175px"" height=""250px""></img></td>
    <td width=300 height=300><img src=""static/images/cards/1_of_red_moons.svg"" width=""175px"" height=""250px""></img></td>
  </tr>
  <tr height=200>
    <td width=300></td>
    <td width=300><img src=""static/images/keys/m.svg"" width=""35%"" height=""75%""></img></td>
  </tr>
</table>
  ",,,,,,,,,,,,,,,,,,,,,,,,,,,,
40,0,,html-keyboard-response,40,216591,0.0-4.3-3.3,g75rdkywfnr,2022-09-19 17:57:49.051,62aa26e333b0fca51f65d3ac,2,61,42,62,38,30,Female,,,"<p style=""font-size:50px"">You Lose!
No points this round.</p>",,,,,,,,,,,,,,,,,,,,,,,,,,,,
41,0,,html-keyboard-response,41,217105,0.0-4.3-4.3,g75rdkywfnr,2022-09-19 17:57:49.051,62aa26e333b0fca51f65d3ac,2,61,42,62,38,30,Female,,,,,,1.0,learning,3.0,D,,red,,moons,,,,D,red,moons,,0.0,0.0,0,right,857.8000000119,1.0,0.0,0.0,,,
42,0,,html-keyboard-response,42,218613,0.0-4.4-0.4,g75rdkywfnr,2022-09-19 17:57:49.051,62aa26e333b0fca51f65d3ac,2,61,42,62,38,30,Female,,,"<img src=""static/images/cards/stack_of_red_bolts.svg"" width=""175px"" height=""250px""></img>",,,,,,,,,,,,,,,,,,,,,,,,,,,,
43,0,,html-keyboard-response,43,219557,0.0-4.4-1.4,g75rdkywfnr,2022-09-19 17:57:49.051,62aa26e333b0fca51f65d3ac,2,61,42,62,38,30,Female,441.2000000179,,"
  <table>
  <tr height=300>
    <td width=300 height=300><img src=""static/images/cards/back_of_red_bolts.svg"" width=""175px"" height=""250px""></img></td>
    <td width=300 height=300><img src=""static/images/cards/back_of_red_bolts.svg"" width=""175px"" height=""250px""></img></td>
  </tr>
  <tr height=200>
    <td width=300><img src=""static/images/keys/z.svg"" width=""35%"" height=""75%""></img></td>
    <td width=300><img src=""static/images/keys/m.svg"" width=""35%"" height=""75%""></img></td>
  </tr>
</table>
  ",90.0,1.0,,,,,,,,,,,,,,,,,,,,,,,,,,
44,0,,html-keyboard-response,44,221065,0.0-4.4-2.4,g75rdkywfnr,2022-09-19 17:57:49.051,62aa26e333b0fca51f65d3ac,2,61,42,62,38,30,Female,,,"
  <table>
  <tr height=300>
    <td width=300 height=300><img src=""static/images/cards/9_of_red_bolts.svg"" width=""175px"" height=""250px""></img></td>
    <td width=300 height=300><img src=""static/images/cards/back_of_red_bolts.svg"" width=""175px"" height=""250px""></img></td>
  </tr>
  <tr height=200>
    <td width=300><img src=""static/images/keys/z.svg"" width=""35%"" height=""75%""></img></td>
    <td width=300><img src=""static/images/keys/m.svg"" width=""35%"" height=""75%""></img></td>
  </tr>
</table>
  ",,,,,,,,,,,,,,,,,,,,,,,,,,,,
45,0,,html-keyboard-response,45,222582,0.0-4.4-3.4,g75rdkywfnr,2022-09-19 17:57:49.051,62aa26e333b0fca51f65d3ac,2,61,42,62,38,30,Female,,,"<p style=""font-size:50px"">You win!
+10 points this round!</p>",,,,,,,,,,,,,,,,,,,,,,,,,,,,
46,0,,html-keyboard-response,46,223098,0.0-4.4-4.4,g75rdkywfnr,2022-09-19 17:57:49.051,62aa26e333b0fca51f65d3ac,2,61,42,62,38,30,Female,,,,,,1.0,learning,4.0,Xc,,red,,bolts,,,,Xc,red,bolts,,1.0,0.0,NA,left,441.2000000179,9.0,1.0,1.0,,,
47,0,,html-keyboard-response,47,224604,0.0-4.5-0.5,g75rdkywfnr,2022-09-19 17:57:49.051,62aa26e333b0fca51f65d3ac,2,61,42,62,38,30,Female,,,"<img src=""static/images/cards/stack_of_black_bolts.svg"" width=""175px"" height=""250px""></img>",,,,,,,,,,,,,,,,,,,,,,,,,,,,
48,0,,html-keyboard-response,48,225457,0.0-4.5-1.5,g75rdkywfnr,2022-09-19 17:57:49.051,62aa26e333b0fca51f65d3ac,2,61,42,62,38,30,Female,350.3000000119,,"
  <table>
  <tr height=300>
    <td width=300 height=300><img src=""static/images/cards/back_of_black_bolts.svg"" width=""175px"" height=""250px""></img></td>
    <td width=300 height=300><img src=""static/images/cards/back_of_black_bolts.svg"" width=""175px"" height=""250px""></img></td>
  </tr>
  <tr height=200>
    <td width=300><img src=""static/images/keys/z.svg"" width=""35%"" height=""75%""></img></td>
    <td width=300></td>
  </tr>
</table>
  ",90.0,1.0,,,,,,,,,,,,,,,,,,,,,,,,,,
49,0,,html-keyboard-response,49,226959,0.0-4.5-2.5,g75rdkywfnr,2022-09-19 17:57:49.051,62aa26e333b0fca51f65d3ac,2,61,42,62,38,30,Female,,,"
  <table>
  <tr height=300>
    <td width=300 height=300><img src=""static/images/cards/2_of_black_bolts.svg"" width=""175px"" height=""250px""></img></td>
    <td width=300 height=300><img src=""static/images/cards/back_of_black_bolts.svg"" width=""175px"" height=""250px""></img></td>
  </tr>
  <tr height=200>
    <td width=300><img src=""static/images/keys/z.svg"" width=""35%"" height=""75%""></img></td>
    <td width=300></td>
  </tr>
</table>
  ",,,,,,,,,,,,,,,,,,,,,,,,,,,,
50,0,,html-keyboard-response,50,228463,0.0-4.5-3.5,g75rdkywfnr,2022-09-19 17:57:49.051,62aa26e333b0fca51f65d3ac,2,61,42,62,38,30,Female,,,"<p style=""font-size:50px"">You win!
+10 points this round!</p>",,,,,,,,,,,,,,,,,,,,,,,,,,,,
51,0,,html-keyboard-response,51,228968,0.0-4.5-4.5,g75rdkywfnr,2022-09-19 17:57:49.051,62aa26e333b0fca51f65d3ac,2,61,42,62,38,30,Female,,,,,,1.0,learning,5.0,Xnc,,black,,bolts,,,,Xnc,black,bolts,,0.0,0.0,1,left,350.3000000119,2.0,0.0,1.0,,,
52,0,,html-keyboard-response,52,230477,0.0-4.6-0.6,g75rdkywfnr,2022-09-19 17:57:49.051,62aa26e333b0fca51f65d3ac,2,61,42,62,38,30,Female,,,"<img src=""static/images/cards/stack_of_black_stars.svg"" width=""175px"" height=""250px""></img>",,,,,,,,,,,,,,,,,,,,,,,,,,,,
53,0,,html-keyboard-response,53,231804,0.0-4.6-1.6,g75rdkywfnr,2022-09-19 17:57:49.051,62aa26e333b0fca51f65d3ac,2,61,42,62,38,30,Female,815.8999999762,,"
  <table>
  <tr height=300>
    <td width=300 height=300><img src=""static/images/cards/back_of_black_stars.svg"" width=""175px"" height=""250px""></img></td>
    <td width=300 height=300><img src=""static/images/cards/back_of_black_stars.svg"" width=""175px"" height=""250px""></img></td>
  </tr>
  <tr height=200>
    <td width=300><img src=""static/images/keys/z.svg"" width=""35%"" height=""75%""></img></td>
    <td width=300><img src=""static/images/keys/m.svg"" width=""35%"" height=""75%""></img></td>
  </tr>
</table>
  ",77.0,1.0,,,,,,,,,,,,,,,,,,,,,,,,,,
54,0,,html-keyboard-response,54,233309,0.0-4.6-2.6,g75rdkywfnr,2022-09-19 17:57:49.051,62aa26e333b0fca51f65d3ac,2,61,42,62,38,30,Female,,,"
  <table>
  <tr height=300>
    <td width=300 height=300><img src=""static/images/cards/back_of_black_stars.svg"" width=""175px"" height=""250px""></img></td>
    <td width=300 height=300><img src=""static/images/cards/2_of_black_stars.svg"" width=""175px"" height=""250px""></img></td>
  </tr>
  <tr height=200>
    <td width=300><img src=""static/images/keys/z.svg"" width=""35%"" height=""75%""></img></td>
    <td width=300><img src=""static/images/keys/m.svg"" width=""35%"" height=""75%""></img></td>
  </tr>
</table>
  ",,,,,,,,,,,,,,,,,,,,,,,,,,,,
55,0,,html-keyboard-response,55,234822,0.0-4.6-3.6,g75rdkywfnr,2022-09-19 17:57:49.051,62aa26e333b0fca51f65d3ac,2,61,42,62,38,30,Female,,,"<p style=""font-size:50px"">You Lose!
No points this round.</p>",,,,,,,,,,,,,,,,,,,,,,,,,,,,
56,0,,html-keyboard-response,56,235335,0.0-4.6-4.6,g75rdkywfnr,2022-09-19 17:57:49.051,62aa26e333b0fca51f65d3ac,2,61,42,62,38,30,Female,,,,,,1.0,learning,6.0,A,,black,,stars,,,,A,black,stars,,1.0,1.0,NA,right,815.8999999762,2.0,0.0,0.0,,,
57,0,,html-keyboard-response,57,236841,0.0-4.7-0.7,g75rdkywfnr,2022-09-19 17:57:49.051,62aa26e333b0fca51f65d3ac,2,61,42,62,38,30,Female,,,"<img src=""static/images/cards/stack_of_red_stars.svg"" width=""175px"" height=""250px""></img>",,,,,,,,,,,,,,,,,,,,,,,,,,,,
58,0,,html-keyboard-response,58,238339,0.0-4.7-1.7,g75rdkywfnr,2022-09-19 17:57:49.051,62aa26e333b0fca51f65d3ac,2,61,42,62,38,30,Female,995.8000000119,,"
  <table>
  <tr height=300>
    <td width=300 height=300><img src=""static/images/cards/back_of_red_stars.svg"" width=""175px"" height=""250px""></img></td>
    <td width=300 height=300><img src=""static/images/cards/back_of_red_stars.svg"" width=""175px"" height=""250px""></img></td>
  </tr>
  <tr height=200>
    <td width=300></td>
    <td width=300><img src=""static/images/keys/m.svg"" width=""35%"" height=""75%""></img></td>
  </tr>
</table>
  ",77.0,1.0,,,,,,,,,,,,,,,,,,,,,,,,,,
59,0,,html-keyboard-response,59,239842,0.0-4.7-2.7,g75rdkywfnr,2022-09-19 17:57:49.051,62aa26e333b0fca51f65d3ac,2,61,42,62,38,30,Female,,,"
  <table>
  <tr height=300>
    <td width=300 height=300><img src=""static/images/cards/back_of_red_stars.svg"" width=""175px"" height=""250px""></img></td>
    <td width=300 height=300><img src=""static/images/cards/2_of_red_stars.svg"" width=""175px"" height=""250px""></img></td>
  </tr>
  <tr height=200>
    <td width=300></td>
    <td width=300><img src=""static/images/keys/m.svg"" width=""35%"" height=""75%""></img></td>
  </tr>
</table>
  ",,,,,,,,,,,,,,,,,,,,,,,,,,,,
60,0,,html-keyboard-response,60,241361,0.0-4.7-3.7,g75rdkywfnr,2022-09-19 17:57:49.051,62aa26e333b0fca51f65d3ac,2,61,42,62,38,30,Female,,,"<p style=""font-size:50px"">You Lose!
No points this round.</p>",,,,,,,,,,,,,,,,,,,,,,,,,,,,
61,0,,html-keyboard-response,61,241876,0.0-4.7-4.7,g75rdkywfnr,2022-09-19 17:57:49.051,62aa26e333b0fca51f65d3ac,2,61,42,62,38,30,Female,,,,,,1.0,learning,7.0,B,,red,,stars,,,,B,red,stars,,0.0,1.0,0,right,995.8000000119,2.0,0.0,0.0,,,
62,0,,html-keyboard-response,62,243380,0.0-4.8-0.8,g75rdkywfnr,2022-09-19 17:57:49.051,62aa26e333b0fca51f65d3ac,2,61,42,62,38,30,Female,,,"<img src=""static/images/cards/stack_of_black_moons.svg"" width=""175px"" height=""250px""></img>",,,,,,,,,,,,,,,,,,,,,,,,,,,,
63,0,,html-keyboard-response,63,244335,0.0-4.8-1.8,g75rdkywfnr,2022-09-19 17:57:49.051,62aa26e333b0fca51f65d3ac,2,61,42,62,38,30,Female,445.8000000119,,"
  <table>
  <tr height=300>
    <td width=300 height=300><img src=""static/images/cards/back_of_black_moons.svg"" width=""175px"" height=""250px""></img></td>
    <td width=300 height=300><img src=""static/images/cards/back_of_black_moons.svg"" width=""175px"" height=""250px""></img></td>
  </tr>
  <tr height=200>
    <td width=300><img src=""static/images/keys/z.svg"" width=""35%"" height=""75%""></img></td>
    <td width=300><img src=""static/images/keys/m.svg"" width=""35%"" height=""75%""></img></td>
  </tr>
</table>
  ",90.0,1.0,,,,,,,,,,,,,,,,,,,,,,,,,,
64,0,,html-keyboard-response,64,245845,0.0-4.8-2.8,g75rdkywfnr,2022-09-19 17:57:49.051,62aa26e333b0fca51f65d3ac,2,61,42,62,38,30,Female,,,"
  <table>
  <tr height=300>
    <td width=300 height=300><img src=""static/images/cards/2_of_black_moons.svg"" width=""175px"" height=""250px""></img></td>
    <td width=300 height=300><img src=""static/images/cards/back_of_black_moons.svg"" width=""175px"" height=""250px""></img></td>
  </tr>
  <tr height=200>
    <td width=300><img src=""static/images/keys/z.svg"" width=""35%"" height=""75%""></img></td>
    <td width=300><img src=""static/images/keys/m.svg"" width=""35%"" height=""75%""></img></td>
  </tr>
</table>
  ",,,,,,,,,,,,,,,,,,,,,,,,,,,,
65,0,,html-keyboard-response,65,247364,0.0-4.8-3.8,g75rdkywfnr,2022-09-19 17:57:49.051,62aa26e333b0fca51f65d3ac,2,61,42,62,38,30,Female,,,"<p style=""font-size:50px"">You Lose!
No points this round.</p>",,,,,,,,,,,,,,,,,,,,,,,,,,,,
66,0,,html-keyboard-response,66,247877,0.0-4.8-4.8,g75rdkywfnr,2022-09-19 17:57:49.051,62aa26e333b0fca51f65d3ac,2,61,42,62,38,30,Female,,,,,,1.0,learning,8.0,C,,black,,moons,,,,C,black,moons,,1.0,0.0,NA,left,445.8000000119,2.0,0.0,0.0,,,
67,0,,html-keyboard-response,67,249383,0.0-4.9-0.9,g75rdkywfnr,2022-09-19 17:57:49.051,62aa26e333b0fca51f65d3ac,2,61,42,62,38,30,Female,,,"<img src=""static/images/cards/stack_of_red_moons.svg"" width=""175px"" height=""250px""></img>",,,,,,,,,,,,,,,,,,,,,,,,,,,,
68,0,,html-keyboard-response,68,250417,0.0-4.9-1.9,g75rdkywfnr,2022-09-19 17:57:49.051,62aa26e333b0fca51f65d3ac,2,61,42,62,38,30,Female,527.0,,"
  <table>
  <tr height=300>
    <td width=300 height=300><img src=""static/images/cards/back_of_red_moons.svg"" width=""175px"" height=""250px""></img></td>
    <td width=300 height=300><img src=""static/images/cards/back_of_red_moons.svg"" width=""175px"" height=""250px""></img></td>
  </tr>
  <tr height=200>
    <td width=300><img src=""static/images/keys/z.svg"" width=""35%"" height=""75%""></img></td>
    <td width=300></td>
  </tr>
</table>
  ",90.0,1.0,,,,,,,,,,,,,,,,,,,,,,,,,,
69,0,,html-keyboard-response,69,251926,0.0-4.9-2.9,g75rdkywfnr,2022-09-19 17:57:49.051,62aa26e333b0fca51f65d3ac,2,61,42,62,38,30,Female,,,"
  <table>
  <tr height=300>
    <td width=300 height=300><img src=""static/images/cards/6_of_red_moons.svg"" width=""175px"" height=""250px""></img></td>
    <td width=300 height=300><img src=""static/images/cards/back_of_red_moons.svg"" width=""175px"" height=""250px""></img></td>
  </tr>
  <tr height=200>
    <td width=300><img src=""static/images/keys/z.svg"" width=""35%"" height=""75%""></img></td>
    <td width=300></td>
  </tr>
</table>
  ",,,,,,,,,,,,,,,,,,,,,,,,,,,,
70,0,,html-keyboard-response,70,253443,0.0-4.9-3.9,g75rdkywfnr,2022-09-19 17:57:49.051,62aa26e333b0fca51f65d3ac,2,61,42,62,38,30,Female,,,"<p style=""font-size:50px"">You win!
+10 points this round!</p>",,,,,,,,,,,,,,,,,,,,,,,,,,,,
71,0,,html-keyboard-response,71,253948,0.0-4.9-4.9,g75rdkywfnr,2022-09-19 17:57:49.051,62aa26e333b0fca51f65d3ac,2,61,42,62,38,30,Female,,,,,,1.0,learning,9.0,D,,red,,moons,,,,D,red,moons,,0.0,0.0,1,left,527.0,6.0,1.0,1.0,,,
72,0,,html-keyboard-response,72,255458,0.0-4.10-0.10,g75rdkywfnr,2022-09-19 17:57:49.051,62aa26e333b0fca51f65d3ac,2,61,42,62,38,30,Female,,,"<img src=""static/images/cards/stack_of_red_bolts.svg"" width=""175px"" height=""250px""></img>",,,,,,,,,,,,,,,,,,,,,,,,,,,,
73,0,,html-keyboard-response,73,256753,0.0-4.10-1.10,g75rdkywfnr,2022-09-19 17:57:49.051,62aa26e333b0fca51f65d3ac,2,61,42,62,38,30,Female,783.8999999762,,"
  <table>
  <tr height=300>
    <td width=300 height=300><img src=""static/images/cards/back_of_red_bolts.svg"" width=""175px"" height=""250px""></img></td>
    <td width=300 height=300><img src=""static/images/cards/back_of_red_bolts.svg"" width=""175px"" height=""250px""></img></td>
  </tr>
  <tr height=200>
    <td width=300><img src=""static/images/keys/z.svg"" width=""35%"" height=""75%""></img></td>
    <td width=300><img src=""static/images/keys/m.svg"" width=""35%"" height=""75%""></img></td>
  </tr>
</table>
  ",77.0,1.0,,,,,,,,,,,,,,,,,,,,,,,,,,
74,0,,html-keyboard-response,74,258263,0.0-4.10-2.10,g75rdkywfnr,2022-09-19 17:57:49.051,62aa26e333b0fca51f65d3ac,2,61,42,62,38,30,Female,,,"
  <table>
  <tr height=300>
    <td width=300 height=300><img src=""static/images/cards/back_of_red_bolts.svg"" width=""175px"" height=""250px""></img></td>
    <td width=300 height=300><img src=""static/images/cards/1_of_red_bolts.svg"" width=""175px"" height=""250px""></img></td>
  </tr>
  <tr height=200>
    <td width=300><img src=""static/images/keys/z.svg"" width=""35%"" height=""75%""></img></td>
    <td width=300><img src=""static/images/keys/m.svg"" width=""35%"" height=""75%""></img></td>
  </tr>
</table>
  ",,,,,,,,,,,,,,,,,,,,,,,,,,,,
75,0,,html-keyboard-response,75,259770,0.0-4.10-3.10,g75rdkywfnr,2022-09-19 17:57:49.051,62aa26e333b0fca51f65d3ac,2,61,42,62,38,30,Female,,,"<p style=""font-size:50px"">You win!
+10 points this round!</p>",,,,,,,,,,,,,,,,,,,,,,,,,,,,
76,0,,html-keyboard-response,76,260276,0.0-4.10-4.10,g75rdkywfnr,2022-09-19 17:57:49.051,62aa26e333b0fca51f65d3ac,2,61,42,62,38,30,Female,,,,,,1.0,learning,10.0,Xc,,red,,bolts,,,,Xc,red,bolts,,1.0,0.0,NA,right,783.8999999762,1.0,0.0,1.0,,,
77,0,,html-keyboard-response,77,261779,0.0-4.11-0.11,g75rdkywfnr,2022-09-19 17:57:49.051,62aa26e333b0fca51f65d3ac,2,61,42,62,38,30,Female,,,"<img src=""static/images/cards/stack_of_black_bolts.svg"" width=""175px"" height=""250px""></img>",,,,,,,,,,,,,,,,,,,,,,,,,,,,
78,0,,html-keyboard-response,78,263332,0.0-4.11-1.11,g75rdkywfnr,2022-09-19 17:57:49.051,62aa26e333b0fca51f65d3ac,2,61,42,62,38,30,Female,1045.099999994,,"
  <table>
  <tr height=300>
    <td width=300 height=300><img src=""static/images/cards/back_of_black_bolts.svg"" width=""175px"" height=""250px""></img></td>
    <td width=300 height=300><img src=""static/images/cards/back_of_black_bolts.svg"" width=""175px"" height=""250px""></img></td>
  </tr>
  <tr height=200>
    <td width=300></td>
    <td width=300><img src=""static/images/keys/m.svg"" width=""35%"" height=""75%""></img></td>
  </tr>
</table>
  ",77.0,1.0,,,,,,,,,,,,,,,,,,,,,,,,,,
79,0,,html-keyboard-response,79,264840,0.0-4.11-2.11,g75rdkywfnr,2022-09-19 17:57:49.051,62aa26e333b0fca51f65d3ac,2,61,42,62,38,30,Female,,,"
  <table>
  <tr height=300>
    <td width=300 height=300><img src=""static/images/cards/back_of_black_bolts.svg"" width=""175px"" height=""250px""></img></td>
    <td width=300 height=300><img src=""static/images/cards/7_of_black_bolts.svg"" width=""175px"" height=""250px""></img></td>
  </tr>
  <tr height=200>
    <td width=300></td>
    <td width=300><img src=""static/images/keys/m.svg"" width=""35%"" height=""75%""></img></td>
  </tr>
</table>
  ",,,,,,,,,,,,,,,,,,,,,,,,,,,,
80,0,,html-keyboard-response,80,266345,0.0-4.11-3.11,g75rdkywfnr,2022-09-19 17:57:49.051,62aa26e333b0fca51f65d3ac,2,61,42,62,38,30,Female,,,"<p style=""font-size:50px"">You win!
+10 points this round!</p>",,,,,,,,,,,,,,,,,,,,,,,,,,,,
81,0,,html-keyboard-response,81,266856,0.0-4.11-4.11,g75rdkywfnr,2022-09-19 17:57:49.051,62aa26e333b0fca51f65d3ac,2,61,42,62,38,30,Female,,,,,,1.0,learning,11.0,Xnc,,black,,bolts,,,,Xnc,black,bolts,,0.0,0.0,0,right,1045.099999994,7.0,1.0,1.0,,,
82,0,,html-keyboard-response,82,268357,0.0-4.12-0.12,g75rdkywfnr,2022-09-19 17:57:49.051,62aa26e333b0fca51f65d3ac,2,61,42,62,38,30,Female,,,"<img src=""static/images/cards/stack_of_black_stars.svg"" width=""175px"" height=""250px""></img>",,,,,,,,,,,,,,,,,,,,,,,,,,,,
83,0,,html-keyboard-response,83,269595,0.0-4.12-1.12,g75rdkywfnr,2022-09-19 17:57:49.051,62aa26e333b0fca51f65d3ac,2,61,42,62,38,30,Female,736.5,,"
  <table>
  <tr height=300>
    <td width=300 height=300><img src=""static/images/cards/back_of_black_stars.svg"" width=""175px"" height=""250px""></img></td>
    <td width=300 height=300><img src=""static/images/cards/back_of_black_stars.svg"" width=""175px"" height=""250px""></img></td>
  </tr>
  <tr height=200>
    <td width=300><img src=""static/images/keys/z.svg"" width=""35%"" height=""75%""></img></td>
    <td width=300><img src=""static/images/keys/m.svg"" width=""35%"" height=""75%""></img></td>
  </tr>
</table>
  ",77.0,1.0,,,,,,,,,,,,,,,,,,,,,,,,,,
84,0,,html-keyboard-response,84,271106,0.0-4.12-2.12,g75rdkywfnr,2022-09-19 17:57:49.051,62aa26e333b0fca51f65d3ac,2,61,42,62,38,30,Female,,,"
  <table>
  <tr height=300>
    <td width=300 height=300><img src=""static/images/cards/back_of_black_stars.svg"" width=""175px"" height=""250px""></img></td>
    <td width=300 height=300><img src=""static/images/cards/8_of_black_stars.svg"" width=""175px"" height=""250px""></img></td>
  </tr>
  <tr height=200>
    <td width=300><img src=""static/images/keys/z.svg"" width=""35%"" height=""75%""></img></td>
    <td width=300><img src=""static/images/keys/m.svg"" width=""35%"" height=""75%""></img></td>
  </tr>
</table>
  ",,,,,,,,,,,,,,,,,,,,,,,,,,,,
85,0,,html-keyboard-response,85,272623,0.0-4.12-3.12,g75rdkywfnr,2022-09-19 17:57:49.051,62aa26e333b0fca51f65d3ac,2,61,42,62,38,30,Female,,,"<p style=""font-size:50px"">You win!
+10 points this round!</p>",,,,,,,,,,,,,,,,,,,,,,,,,,,,
86,0,,html-keyboard-response,86,273134,0.0-4.12-4.12,g75rdkywfnr,2022-09-19 17:57:49.051,62aa26e333b0fca51f65d3ac,2,61,42,62,38,30,Female,,,,,,1.0,learning,12.0,A,,black,,stars,,,,A,black,stars,,1.0,1.0,NA,right,736.5,8.0,1.0,1.0,,,
87,0,,html-keyboard-response,87,274640,0.0-4.13-0.13,g75rdkywfnr,2022-09-19 17:57:49.051,62aa26e333b0fca51f65d3ac,2,61,42,62,38,30,Female,,,"<img src=""static/images/cards/stack_of_red_stars.svg"" width=""175px"" height=""250px""></img>",,,,,,,,,,,,,,,,,,,,,,,,,,,,
88,0,,html-keyboard-response,88,275579,0.0-4.13-1.13,g75rdkywfnr,2022-09-19 17:57:49.051,62aa26e333b0fca51f65d3ac,2,61,42,62,38,30,Female,429.5,,"
  <table>
  <tr height=300>
    <td width=300 height=300><img src=""static/images/cards/back_of_red_stars.svg"" width=""175px"" height=""250px""></img></td>
    <td width=300 height=300><img src=""static/images/cards/back_of_red_stars.svg"" width=""175px"" height=""250px""></img></td>
  </tr>
  <tr height=200>
    <td width=300><img src=""static/images/keys/z.svg"" width=""35%"" height=""75%""></img></td>
    <td width=300></td>
  </tr>
</table>
  ",90.0,1.0,,,,,,,,,,,,,,,,,,,,,,,,,,
89,0,,html-keyboard-response,89,277089,0.0-4.13-2.13,g75rdkywfnr,2022-09-19 17:57:49.051,62aa26e333b0fca51f65d3ac,2,61,42,62,38,30,Female,,,"
  <table>
  <tr height=300>
    <td width=300 height=300><img src=""static/images/cards/1_of_red_stars.svg"" width=""175px"" height=""250px""></img></td>
    <td width=300 height=300><img src=""static/images/cards/back_of_red_stars.svg"" width=""175px"" height=""250px""></img></td>
  </tr>
  <tr height=200>
    <td width=300><img src=""static/images/keys/z.svg"" width=""35%"" height=""75%""></img></td>
    <td width=300></td>
  </tr>
</table>
  ",,,,,,,,,,,,,,,,,,,,,,,,,,,,
90,0,,html-keyboard-response,90,278616,0.0-4.13-3.13,g75rdkywfnr,2022-09-19 17:57:49.051,62aa26e333b0fca51f65d3ac,2,61,42,62,38,30,Female,,,"<p style=""font-size:50px"">You Lose!
No points this round.</p>",,,,,,,,,,,,,,,,,,,,,,,,,,,,
91,0,,html-keyboard-response,91,279126,0.0-4.13-4.13,g75rdkywfnr,2022-09-19 17:57:49.051,62aa26e333b0fca51f65d3ac,2,61,42,62,38,30,Female,,,,,,1.0,learning,13.0,B,,red,,stars,,,,B,red,stars,,0.0,1.0,1,left,429.5,1.0,0.0,0.0,,,
92,0,,html-keyboard-response,92,280627,0.0-4.14-0.14,g75rdkywfnr,2022-09-19 17:57:49.051,62aa26e333b0fca51f65d3ac,2,61,42,62,38,30,Female,,,"<img src=""static/images/cards/stack_of_black_moons.svg"" width=""175px"" height=""250px""></img>",,,,,,,,,,,,,,,,,,,,,,,,,,,,
93,0,,html-keyboard-response,93,281853,0.0-4.14-1.14,g75rdkywfnr,2022-09-19 17:57:49.051,62aa26e333b0fca51f65d3ac,2,61,42,62,38,30,Female,718.0,,"
  <table>
  <tr height=300>
    <td width=300 height=300><img src=""static/images/cards/back_of_black_moons.svg"" width=""175px"" height=""250px""></img></td>
    <td width=300 height=300><img src=""static/images/cards/back_of_black_moons.svg"" width=""175px"" height=""250px""></img></td>
  </tr>
  <tr height=200>
    <td width=300><img src=""static/images/keys/z.svg"" width=""35%"" height=""75%""></img></td>
    <td width=300><img src=""static/images/keys/m.svg"" width=""35%"" height=""75%""></img></td>
  </tr>
</table>
  ",77.0,1.0,,,,,,,,,,,,,,,,,,,,,,,,,,
94,0,,html-keyboard-response,94,283370,0.0-4.14-2.14,g75rdkywfnr,2022-09-19 17:57:49.051,62aa26e333b0fca51f65d3ac,2,61,42,62,38,30,Female,,,"
  <table>
  <tr height=300>
    <td width=300 height=300><img src=""static/images/cards/back_of_black_moons.svg"" width=""175px"" height=""250px""></img></td>
    <td width=300 height=300><img src=""static/images/cards/6_of_black_moons.svg"" width=""175px"" height=""250px""></img></td>
  </tr>
  <tr height=200>
    <td width=300><img src=""static/images/keys/z.svg"" width=""35%"" height=""75%""></img></td>
    <td width=300><img src=""static/images/keys/m.svg"" width=""35%"" height=""75%""></img></td>
  </tr>
</table>
  ",,,,,,,,,,,,,,,,,,,,,,,,,,,,
95,0,,html-keyboard-response,95,284887,0.0-4.14-3.14,g75rdkywfnr,2022-09-19 17:57:49.051,62aa26e333b0fca51f65d3ac,2,61,42,62,38,30,Female,,,"<p style=""font-size:50px"">You Lose!
No points this round.</p>",,,,,,,,,,,,,,,,,,,,,,,,,,,,
96,0,,html-keyboard-response,96,285409,0.0-4.14-4.14,g75rdkywfnr,2022-09-19 17:57:49.051,62aa26e333b0fca51f65d3ac,2,61,42,62,38,30,Female,,,,,,1.0,learning,14.0,C,,black,,moons,,,,C,black,moons,,1.0,0.0,NA,right,718.0,6.0,1.0,0.0,,,
97,0,,html-keyboard-response,97,286912,0.0-4.15-0.15,g75rdkywfnr,2022-09-19 17:57:49.051,62aa26e333b0fca51f65d3ac,2,61,42,62,38,30,Female,,,"<img src=""static/images/cards/stack_of_red_moons.svg"" width=""175px"" height=""250px""></img>",,,,,,,,,,,,,,,,,,,,,,,,,,,,
98,0,,html-keyboard-response,98,288286,0.0-4.15-1.15,g75rdkywfnr,2022-09-19 17:57:49.051,62aa26e333b0fca51f65d3ac,2,61,42,62,38,30,Female,868.0,,"
  <table>
  <tr height=300>
    <td width=300 height=300><img src=""static/images/cards/back_of_red_moons.svg"" width=""175px"" height=""250px""></img></td>
    <td width=300 height=300><img src=""static/images/cards/back_of_red_moons.svg"" width=""175px"" height=""250px""></img></td>
  </tr>
  <tr height=200>
    <td width=300><img src=""static/images/keys/z.svg"" width=""35%"" height=""75%""></img></td>
    <td width=300></td>
  </tr>
</table>
  ",90.0,1.0,,,,,,,,,,,,,,,,,,,,,,,,,,
99,0,,html-keyboard-response,99,289788,0.0-4.15-2.15,g75rdkywfnr,2022-09-19 17:57:49.051,62aa26e333b0fca51f65d3ac,2,61,42,62,38,30,Female,,,"
  <table>
  <tr height=300>
    <td width=300 height=300><img src=""static/images/cards/4_of_red_moons.svg"" width=""175px"" height=""250px""></img></td>
    <td width=300 height=300><img src=""static/images/cards/back_of_red_moons.svg"" width=""175px"" height=""250px""></img></td>
  </tr>
  <tr height=200>
    <td width=300><img src=""static/images/keys/z.svg"" width=""35%"" height=""75%""></img></td>
    <td width=300></td>
  </tr>
</table>
  ",,,,,,,,,,,,,,,,,,,,,,,,,,,,
100,0,,html-keyboard-response,100,291294,0.0-4.15-3.15,g75rdkywfnr,2022-09-19 17:57:49.051,62aa26e333b0fca51f65d3ac,2,61,42,62,38,30,Female,,,"<p style=""font-size:50px"">You win!
+10 points this round!</p>",,,,,,,,,,,,,,,,,,,,,,,,,,,,
101,0,,html-keyboard-response,101,291806,0.0-4.15-4.15,g75rdkywfnr,2022-09-19 17:57:49.051,62aa26e333b0fca51f65d3ac,2,61,42,62,38,30,Female,,,,,,1.0,learning,15.0,D,,red,,moons,,,,D,red,moons,,0.0,0.0,1,left,868.0,4.0,0.0,1.0,,,
102,0,,html-keyboard-response,102,293311,0.0-4.16-0.16,g75rdkywfnr,2022-09-19 17:57:49.051,62aa26e333b0fca51f65d3ac,2,61,42,62,38,30,Female,,,"<img src=""static/images/cards/stack_of_red_bolts.svg"" width=""175px"" height=""250px""></img>",,,,,,,,,,,,,,,,,,,,,,,,,,,,
103,0,,html-keyboard-response,103,294704,0.0-4.16-1.16,g75rdkywfnr,2022-09-19 17:57:49.051,62aa26e333b0fca51f65d3ac,2,61,42,62,38,30,Female,884.5,,"
  <table>
  <tr height=300>
    <td width=300 height=300><img src=""static/images/cards/back_of_red_bolts.svg"" width=""175px"" height=""250px""></img></td>
    <td width=300 height=300><img src=""static/images/cards/back_of_red_bolts.svg"" width=""175px"" height=""250px""></img></td>
  </tr>
  <tr height=200>
    <td width=300><img src=""static/images/keys/z.svg"" width=""35%"" height=""75%""></img></td>
    <td width=300><img src=""static/images/keys/m.svg"" width=""35%"" height=""75%""></img></td>
  </tr>
</table>
  ",77.0,1.0,,,,,,,,,,,,,,,,,,,,,,,,,,
104,0,,html-keyboard-response,104,296214,0.0-4.16-2.16,g75rdkywfnr,2022-09-19 17:57:49.051,62aa26e333b0fca51f65d3ac,2,61,42,62,38,30,Female,,,"
  <table>
  <tr height=300>
    <td width=300 height=300><img src=""static/images/cards/back_of_red_bolts.svg"" width=""175px"" height=""250px""></img></td>
    <td width=300 height=300><img src=""static/images/cards/6_of_red_bolts.svg"" width=""175px"" height=""250px""></img></td>
  </tr>
  <tr height=200>
    <td width=300><img src=""static/images/keys/z.svg"" width=""35%"" height=""75%""></img></td>
    <td width=300><img src=""static/images/keys/m.svg"" width=""35%"" height=""75%""></img></td>
  </tr>
</table>
  ",,,,,,,,,,,,,,,,,,,,,,,,,,,,
105,0,,html-keyboard-response,105,297724,0.0-4.16-3.16,g75rdkywfnr,2022-09-19 17:57:49.051,62aa26e333b0fca51f65d3ac,2,61,42,62,38,30,Female,,,"<p style=""font-size:50px"">You win!
+10 points this round!</p>",,,,,,,,,,,,,,,,,,,,,,,,,,,,
106,0,,html-keyboard-response,106,298231,0.0-4.16-4.16,g75rdkywfnr,2022-09-19 17:57:49.051,62aa26e333b0fca51f65d3ac,2,61,42,62,38,30,Female,,,,,,1.0,learning,16.0,Xc,,red,,bolts,,,,Xc,red,bolts,,1.0,0.0,NA,right,884.5,6.0,1.0,1.0,,,
107,0,,html-keyboard-response,107,299738,0.0-4.17-0.17,g75rdkywfnr,2022-09-19 17:57:49.051,62aa26e333b0fca51f65d3ac,2,61,42,62,38,30,Female,,,"<img src=""static/images/cards/stack_of_black_bolts.svg"" width=""175px"" height=""250px""></img>",,,,,,,,,,,,,,,,,,,,,,,,,,,,
108,0,,html-keyboard-response,108,301191,0.0-4.17-1.17,g75rdkywfnr,2022-09-19 17:57:49.051,62aa26e333b0fca51f65d3ac,2,61,42,62,38,30,Female,949.2000000179,,"
  <table>
  <tr height=300>
    <td width=300 height=300><img src=""static/images/cards/back_of_black_bolts.svg"" width=""175px"" height=""250px""></img></td>
    <td width=300 height=300><img src=""static/images/cards/back_of_black_bolts.svg"" width=""175px"" height=""250px""></img></td>
  </tr>
  <tr height=200>
    <td width=300><img src=""static/images/keys/z.svg"" width=""35%"" height=""75%""></img></td>
    <td width=300></td>
  </tr>
</table>
  ",90.0,1.0,,,,,,,,,,,,,,,,,,,,,,,,,,
109,0,,html-keyboard-response,109,302699,0.0-4.17-2.17,g75rdkywfnr,2022-09-19 17:57:49.051,62aa26e333b0fca51f65d3ac,2,61,42,62,38,30,Female,,,"
  <table>
  <tr height=300>
    <td width=300 height=300><img src=""static/images/cards/8_of_black_bolts.svg"" width=""175px"" height=""250px""></img></td>
    <td width=300 height=300><img src=""static/images/cards/back_of_black_bolts.svg"" width=""175px"" height=""250px""></img></td>
  </tr>
  <tr height=200>
    <td width=300><img src=""static/images/keys/z.svg"" width=""35%"" height=""75%""></img></td>
    <td width=300></td>
  </tr>
</table>
  ",,,,,,,,,,,,,,,,,,,,,,,,,,,,
110,0,,html-keyboard-response,110,304211,0.0-4.17-3.17,g75rdkywfnr,2022-09-19 17:57:49.051,62aa26e333b0fca51f65d3ac,2,61,42,62,38,30,Female,,,"<p style=""font-size:50px"">You win!
+10 points this round!</p>",,,,,,,,,,,,,,,,,,,,,,,,,,,,
111,0,,html-keyboard-response,111,304726,0.0-4.17-4.17,g75rdkywfnr,2022-09-19 17:57:49.051,62aa26e333b0fca51f65d3ac,2,61,42,62,38,30,Female,,,,,,1.0,learning,17.0,Xnc,,black,,bolts,,,,Xnc,black,bolts,,0.0,0.0,1,left,949.2000000179,8.0,1.0,1.0,,,
112,0,,html-keyboard-response,112,306231,0.0-4.18-0.18,g75rdkywfnr,2022-09-19 17:57:49.051,62aa26e333b0fca51f65d3ac,2,61,42,62,38,30,Female,,,"<img src=""static/images/cards/stack_of_black_stars.svg"" width=""175px"" height=""250px""></img>",,,,,,,,,,,,,,,,,,,,,,,,,,,,
113,0,,html-keyboard-response,113,307113,0.0-4.18-1.18,g75rdkywfnr,2022-09-19 17:57:49.051,62aa26e333b0fca51f65d3ac,2,61,42,62,38,30,Female,370.1999999881,,"
  <table>
  <tr height=300>
    <td width=300 height=300><img src=""static/images/cards/back_of_black_stars.svg"" width=""175px"" height=""250px""></img></td>
    <td width=300 height=300><img src=""static/images/cards/back_of_black_stars.svg"" width=""175px"" height=""250px""></img></td>
  </tr>
  <tr height=200>
    <td width=300><img src=""static/images/keys/z.svg"" width=""35%"" height=""75%""></img></td>
    <td width=300><img src=""static/images/keys/m.svg"" width=""35%"" height=""75%""></img></td>
  </tr>
</table>
  ",77.0,1.0,,,,,,,,,,,,,,,,,,,,,,,,,,
114,0,,html-keyboard-response,114,308618,0.0-4.18-2.18,g75rdkywfnr,2022-09-19 17:57:49.051,62aa26e333b0fca51f65d3ac,2,61,42,62,38,30,Female,,,"
  <table>
  <tr height=300>
    <td width=300 height=300><img src=""static/images/cards/back_of_black_stars.svg"" width=""175px"" height=""250px""></img></td>
    <td width=300 height=300><img src=""static/images/cards/9_of_black_stars.svg"" width=""175px"" height=""250px""></img></td>
  </tr>
  <tr height=200>
    <td width=300><img src=""static/images/keys/z.svg"" width=""35%"" height=""75%""></img></td>
    <td width=300><img src=""static/images/keys/m.svg"" width=""35%"" height=""75%""></img></td>
  </tr>
</table>
  ",,,,,,,,,,,,,,,,,,,,,,,,,,,,
115,0,,html-keyboard-response,115,310134,0.0-4.18-3.18,g75rdkywfnr,2022-09-19 17:57:49.051,62aa26e333b0fca51f65d3ac,2,61,42,62,38,30,Female,,,"<p style=""font-size:50px"">You win!
+10 points this round!</p>",,,,,,,,,,,,,,,,,,,,,,,,,,,,
116,0,,html-keyboard-response,116,310643,0.0-4.18-4.18,g75rdkywfnr,2022-09-19 17:57:49.051,62aa26e333b0fca51f65d3ac,2,61,42,62,38,30,Female,,,,,,1.0,learning,18.0,A,,black,,stars,,,,A,black,stars,,1.0,1.0,NA,right,370.1999999881,9.0,1.0,1.0,,,
117,0,,html-keyboard-response,117,312153,0.0-4.19-0.19,g75rdkywfnr,2022-09-19 17:57:49.051,62aa26e333b0fca51f65d3ac,2,61,42,62,38,30,Female,,,"<img src=""static/images/cards/stack_of_red_stars.svg"" width=""175px"" height=""250px""></img>",,,,,,,,,,,,,,,,,,,,,,,,,,,,
118,0,,html-keyboard-response,118,313114,0.0-4.19-1.19,g75rdkywfnr,2022-09-19 17:57:49.051,62aa26e333b0fca51f65d3ac,2,61,42,62,38,30,Female,450.5,,"
  <table>
  <tr height=300>
    <td width=300 height=300><img src=""static/images/cards/back_of_red_stars.svg"" width=""175px"" height=""250px""></img></td>
    <td width=300 height=300><img src=""static/images/cards/back_of_red_stars.svg"" width=""175px"" height=""250px""></img></td>
  </tr>
  <tr height=200>
    <td width=300></td>
    <td width=300><img src=""static/images/keys/m.svg"" width=""35%"" height=""75%""></img></td>
  </tr>
</table>
  ",77.0,1.0,,,,,,,,,,,,,,,,,,,,,,,,,,
119,0,,html-keyboard-response,119,314624,0.0-4.19-2.19,g75rdkywfnr,2022-09-19 17:57:49.051,62aa26e333b0fca51f65d3ac,2,61,42,62,38,30,Female,,,"
  <table>
  <tr height=300>
    <td width=300 height=300><img src=""static/images/cards/back_of_red_stars.svg"" width=""175px"" height=""250px""></img></td>
    <td width=300 height=300><img src=""static/images/cards/9_of_red_stars.svg"" width=""175px"" height=""250px""></img></td>
  </tr>
  <tr height=200>
    <td width=300></td>
    <td width=300><img src=""static/images/keys/m.svg"" width=""35%"" height=""75%""></img></td>
  </tr>
</table>
  ",,,,,,,,,,,,,,,,,,,,,,,,,,,,
120,0,,html-keyboard-response,120,316138,0.0-4.19-3.19,g75rdkywfnr,2022-09-19 17:57:49.051,62aa26e333b0fca51f65d3ac,2,61,42,62,38,30,Female,,,"<p style=""font-size:50px"">You win!
+10 points this round!</p>",,,,,,,,,,,,,,,,,,,,,,,,,,,,
121,0,,html-keyboard-response,121,316649,0.0-4.19-4.19,g75rdkywfnr,2022-09-19 17:57:49.051,62aa26e333b0fca51f65d3ac,2,61,42,62,38,30,Female,,,,,,1.0,learning,19.0,B,,red,,stars,,,,B,red,stars,,0.0,1.0,0,right,450.5,9.0,1.0,1.0,,,
122,0,,html-keyboard-response,122,318157,0.0-4.20-0.20,g75rdkywfnr,2022-09-19 17:57:49.051,62aa26e333b0fca51f65d3ac,2,61,42,62,38,30,Female,,,"<img src=""static/images/cards/stack_of_black_moons.svg"" width=""175px"" height=""250px""></img>",,,,,,,,,,,,,,,,,,,,,,,,,,,,
123,0,,html-keyboard-response,123,319367,0.0-4.20-1.20,g75rdkywfnr,2022-09-19 17:57:49.051,62aa26e333b0fca51f65d3ac,2,61,42,62,38,30,Female,699.599999994,,"
  <table>
  <tr height=300>
    <td width=300 height=300><img src=""static/images/cards/back_of_black_moons.svg"" width=""175px"" height=""250px""></img></td>
    <td width=300 height=300><img src=""static/images/cards/back_of_black_moons.svg"" width=""175px"" height=""250px""></img></td>
  </tr>
  <tr height=200>
    <td width=300><img src=""static/images/keys/z.svg"" width=""35%"" height=""75%""></img></td>
    <td width=300><img src=""static/images/keys/m.svg"" width=""35%"" height=""75%""></img></td>
  </tr>
</table>
  ",77.0,1.0,,,,,,,,,,,,,,,,,,,,,,,,,,
124,0,,html-keyboard-response,124,320870,0.0-4.20-2.20,g75rdkywfnr,2022-09-19 17:57:49.051,62aa26e333b0fca51f65d3ac,2,61,42,62,38,30,Female,,,"
  <table>
  <tr height=300>
    <td width=300 height=300><img src=""static/images/cards/back_of_black_moons.svg"" width=""175px"" height=""250px""></img></td>
    <td width=300 height=300><img src=""static/images/cards/7_of_black_moons.svg"" width=""175px"" height=""250px""></img></td>
  </tr>
  <tr height=200>
    <td width=300><img src=""static/images/keys/z.svg"" width=""35%"" height=""75%""></img></td>
    <td width=300><img src=""static/images/keys/m.svg"" width=""35%"" height=""75%""></img></td>
  </tr>
</table>
  ",,,,,,,,,,,,,,,,,,,,,,,,,,,,
125,0,,html-keyboard-response,125,322386,0.0-4.20-3.20,g75rdkywfnr,2022-09-19 17:57:49.051,62aa26e333b0fca51f65d3ac,2,61,42,62,38,30,Female,,,"<p style=""font-size:50px"">You Lose!
No points this round.</p>",,,,,,,,,,,,,,,,,,,,,,,,,,,,
126,0,,html-keyboard-response,126,322898,0.0-4.20-4.20,g75rdkywfnr,2022-09-19 17:57:49.051,62aa26e333b0fca51f65d3ac,2,61,42,62,38,30,Female,,,,,,1.0,learning,20.0,C,,black,,moons,,,,C,black,moons,,1.0,0.0,NA,right,699.599999994,7.0,1.0,0.0,,,
127,0,,html-keyboard-response,127,324402,0.0-4.21-0.21,g75rdkywfnr,2022-09-19 17:57:49.051,62aa26e333b0fca51f65d3ac,2,61,42,62,38,30,Female,,,"<img src=""static/images/cards/stack_of_red_moons.svg"" width=""175px"" height=""250px""></img>",,,,,,,,,,,,,,,,,,,,,,,,,,,,
128,0,,html-keyboard-response,128,325683,0.0-4.21-1.21,g75rdkywfnr,2022-09-19 17:57:49.051,62aa26e333b0fca51f65d3ac,2,61,42,62,38,30,Female,772.0,,"
  <table>
  <tr height=300>
    <td width=300 height=300><img src=""static/images/cards/back_of_red_moons.svg"" width=""175px"" height=""250px""></img></td>
    <td width=300 height=300><img src=""static/images/cards/back_of_red_moons.svg"" width=""175px"" height=""250px""></img></td>
  </tr>
  <tr height=200>
    <td width=300></td>
    <td width=300><img src=""static/images/keys/m.svg"" width=""35%"" height=""75%""></img></td>
  </tr>
</table>
  ",77.0,1.0,,,,,,,,,,,,,,,,,,,,,,,,,,
129,0,,html-keyboard-response,129,327189,0.0-4.21-2.21,g75rdkywfnr,2022-09-19 17:57:49.051,62aa26e333b0fca51f65d3ac,2,61,42,62,38,30,Female,,,"
  <table>
  <tr height=300>
    <td width=300 height=300><img src=""static/images/cards/back_of_red_moons.svg"" width=""175px"" height=""250px""></img></td>
    <td width=300 height=300><img src=""static/images/cards/9_of_red_moons.svg"" width=""175px"" height=""250px""></img></td>
  </tr>
  <tr height=200>
    <td width=300></td>
    <td width=300><img src=""static/images/keys/m.svg"" width=""35%"" height=""75%""></img></td>
  </tr>
</table>
  ",,,,,,,,,,,,,,,,,,,,,,,,,,,,
130,0,,html-keyboard-response,130,328705,0.0-4.21-3.21,g75rdkywfnr,2022-09-19 17:57:49.051,62aa26e333b0fca51f65d3ac,2,61,42,62,38,30,Female,,,"<p style=""font-size:50px"">You Lose!
No points this round.</p>",,,,,,,,,,,,,,,,,,,,,,,,,,,,
131,0,,html-keyboard-response,131,329211,0.0-4.21-4.21,g75rdkywfnr,2022-09-19 17:57:49.051,62aa26e333b0fca51f65d3ac,2,61,42,62,38,30,Female,,,,,,1.0,learning,21.0,D,,red,,moons,,,,D,red,moons,,0.0,0.0,0,right,772.0,9.0,1.0,0.0,,,
132,0,,html-keyboard-response,132,330714,0.0-4.22-0.22,g75rdkywfnr,2022-09-19 17:57:49.051,62aa26e333b0fca51f65d3ac,2,61,42,62,38,30,Female,,,"<img src=""static/images/cards/stack_of_red_bolts.svg"" width=""175px"" height=""250px""></img>",,,,,,,,,,,,,,,,,,,,,,,,,,,,
133,0,,html-keyboard-response,133,332662,0.0-4.22-1.22,g75rdkywfnr,2022-09-19 17:57:49.051,62aa26e333b0fca51f65d3ac,2,61,42,62,38,30,Female,1436.0,,"
  <table>
  <tr height=300>
    <td width=300 height=300><img src=""static/images/cards/back_of_red_bolts.svg"" width=""175px"" height=""250px""></img></td>
    <td width=300 height=300><img src=""static/images/cards/back_of_red_bolts.svg"" width=""175px"" height=""250px""></img></td>
  </tr>
  <tr height=200>
    <td width=300><img src=""static/images/keys/z.svg"" width=""35%"" height=""75%""></img></td>
    <td width=300><img src=""static/images/keys/m.svg"" width=""35%"" height=""75%""></img></td>
  </tr>
</table>
  ",90.0,2.0,,,,,,,,,,,,,,,,,,,,,,,,,,
134,0,,html-keyboard-response,134,334163,0.0-4.22-2.22,g75rdkywfnr,2022-09-19 17:57:49.051,62aa26e333b0fca51f65d3ac,2,61,42,62,38,30,Female,,,"
  <table>
  <tr height=300>
    <td width=300 height=300><img src=""static/images/cards/3_of_red_bolts.svg"" width=""175px"" height=""250px""></img></td>
    <td width=300 height=300><img src=""static/images/cards/back_of_red_bolts.svg"" width=""175px"" height=""250px""></img></td>
  </tr>
  <tr height=200>
    <td width=300><img src=""static/images/keys/z.svg"" width=""35%"" height=""75%""></img></td>
    <td width=300><img src=""static/images/keys/m.svg"" width=""35%"" height=""75%""></img></td>
  </tr>
</table>
  ",,,,,,,,,,,,,,,,,,,,,,,,,,,,
135,0,,html-keyboard-response,135,335674,0.0-4.22-3.22,g75rdkywfnr,2022-09-19 17:57:49.051,62aa26e333b0fca51f65d3ac,2,61,42,62,38,30,Female,,,"<p style=""font-size:50px"">You win!
+10 points this round!</p>",,,,,,,,,,,,,,,,,,,,,,,,,,,,
136,0,,html-keyboard-response,136,336179,0.0-4.22-4.22,g75rdkywfnr,2022-09-19 17:57:49.051,62aa26e333b0fca51f65d3ac,2,61,42,62,38,30,Female,,,,,,1.0,learning,22.0,Xc,,red,,bolts,,,,Xc,red,bolts,,1.0,0.0,NA,left,1436.0,3.0,0.0,1.0,,,
137,0,,html-keyboard-response,137,337680,0.0-4.23-0.23,g75rdkywfnr,2022-09-19 17:57:49.051,62aa26e333b0fca51f65d3ac,2,61,42,62,38,30,Female,,,"<img src=""static/images/cards/stack_of_black_bolts.svg"" width=""175px"" height=""250px""></img>",,,,,,,,,,,,,,,,,,,,,,,,,,,,
138,0,,html-keyboard-response,138,339280,0.0-4.23-1.23,g75rdkywfnr,2022-09-19 17:57:49.051,62aa26e333b0fca51f65d3ac,2,61,42,62,38,30,Female,1090.2000000179,,"
  <table>
  <tr height=300>
    <td width=300 height=300><img src=""static/images/cards/back_of_black_bolts.svg"" width=""175px"" height=""250px""></img></td>
    <td width=300 height=300><img src=""static/images/cards/back_of_black_bolts.svg"" width=""175px"" height=""250px""></img></td>
  </tr>
  <tr height=200>
    <td width=300><img src=""static/images/keys/z.svg"" width=""35%"" height=""75%""></img></td>
    <td width=300></td>
  </tr>
</table>
  ",90.0,1.0,,,,,,,,,,,,,,,,,,,,,,,,,,
139,0,,html-keyboard-response,139,340789,0.0-4.23-2.23,g75rdkywfnr,2022-09-19 17:57:49.051,62aa26e333b0fca51f65d3ac,2,61,42,62,38,30,Female,,,"
  <table>
  <tr height=300>
    <td width=300 height=300><img src=""static/images/cards/4_of_black_bolts.svg"" width=""175px"" height=""250px""></img></td>
    <td width=300 height=300><img src=""static/images/cards/back_of_black_bolts.svg"" width=""175px"" height=""250px""></img></td>
  </tr>
  <tr height=200>
    <td width=300><img src=""static/images/keys/z.svg"" width=""35%"" height=""75%""></img></td>
    <td width=300></td>
  </tr>
</table>
  ",,,,,,,,,,,,,,,,,,,,,,,,,,,,
140,0,,html-keyboard-response,140,342306,0.0-4.23-3.23,g75rdkywfnr,2022-09-19 17:57:49.051,62aa26e333b0fca51f65d3ac,2,61,42,62,38,30,Female,,,"<p style=""font-size:50px"">You win!
+10 points this round!</p>",,,,,,,,,,,,,,,,,,,,,,,,,,,,
141,0,,html-keyboard-response,141,342820,0.0-4.23-4.23,g75rdkywfnr,2022-09-19 17:57:49.051,62aa26e333b0fca51f65d3ac,2,61,42,62,38,30,Female,,,,,,1.0,learning,23.0,Xnc,,black,,bolts,,,,Xnc,black,bolts,,0.0,0.0,1,left,1090.2000000179,4.0,0.0,1.0,,,
142,0,,call-function,142,342825,0.0-5.0,g75rdkywfnr,2022-09-19 17:57:49.051,62aa26e333b0fca51f65d3ac,2,61,42,62,38,30,Female,,,,,,,,,,,,,,,,,,,,,,,,,,,,,,,
143,0,,image-keyboard-response,143,347254,0.0-6.0-0.0,g75rdkywfnr,2022-09-19 17:57:49.051,62aa26e333b0fca51f65d3ac,2,61,42,62,38,30,Female,4428.599999994,,static/images/instructions_CB_2/Slide20.png,39.0,,,,,,,,,,,,,,,,,,,,,,,,,,,
144,0,,image-keyboard-response,144,352164,0.0-6.1-0.1,g75rdkywfnr,2022-09-19 17:57:49.051,62aa26e333b0fca51f65d3ac,2,61,42,62,38,30,Female,4909.1999999881,,static/images/instructions_CB_2/Slide21.png,37.0,,,,,,,,,,,,,,,,,,,,,,,,,,,
145,0,,image-keyboard-response,145,354060,0.0-6.2-0.2,g75rdkywfnr,2022-09-19 17:57:49.051,62aa26e333b0fca51f65d3ac,2,61,42,62,38,30,Female,1894.3000000119,,static/images/instructions_CB_2/Slide20.png,39.0,,,,,,,,,,,,,,,,,,,,,,,,,,,
146,0,,image-keyboard-response,146,357439,0.0-6.3-0.3,g75rdkywfnr,2022-09-19 17:57:49.051,62aa26e333b0fca51f65d3ac,2,61,42,62,38,30,Female,3378.1999999881,,static/images/instructions_CB_2/Slide21.png,39.0,,,,,,,,,,,,,,,,,,,,,,,,,,,
147,0,,image-keyboard-response,147,362945,0.0-6.4-0.4,g75rdkywfnr,2022-09-19 17:57:49.051,62aa26e333b0fca51f65d3ac,2,61,42,62,38,30,Female,5504.599999994,,static/images/instructions_CB_2/Slide22.png,39.0,,,,,,,,,,,,,,,,,,,,,,,,,,,
148,0,,image-keyboard-response,148,380316,0.0-6.5-0.5,g75rdkywfnr,2022-09-19 17:57:49.051,62aa26e333b0fca51f65d3ac,2,61,42,62,38,30,Female,17374.099999994,,static/images/instructions_CB_2/Slide23.png,39.0,,,,,,,,,,,,,,,,,,,,,,,,,,,
149,0,,image-keyboard-response,149,381708,0.0-6.6-0.6,g75rdkywfnr,2022-09-19 17:57:49.051,62aa26e333b0fca51f65d3ac,2,61,42,62,38,30,Female,1391.099999994,,static/images/instructions_CB_2/Slide24.png,39.0,,,,,,,,,,,,,,,,,,,,,,,,,,,
150,0,,html-keyboard-response,150,384753,0.0-7.0-0.0,g75rdkywfnr,2022-09-19 17:57:49.051,62aa26e333b0fca51f65d3ac,2,61,42,62,38,30,Female,3042.8000000119,,"
  <table>
  <tr height=300>
    <td width=300 height=300><img src=""static/images/cards/stack_of_red_moons.svg"" width=""175px"" height=""250px""></img></td>
    <td width=300 height=300><img src=""static/images/cards/stack_of_red_stars.svg"" width=""175px"" height=""250px""></img></td>
  </tr>
  <tr height=200>
    <td width=300><img src=""static/images/keys/w.svg"" width=""35%"" height=""75%""></img></td>
    <td width=300><img src=""static/images/keys/o.svg"" width=""35%"" height=""75%""></img></td>
  </tr>
</table>
  ",87.0,1.0,,,,,,,,,,,,,,,,,,,,,,,,,,
151,0,,html-keyboard-response,151,386383,0.0-7.0-1.0,g75rdkywfnr,2022-09-19 17:57:49.051,62aa26e333b0fca51f65d3ac,2,61,42,62,38,30,Female,1121.8000000119,,"
  <table>
  <tr height=300>
    <td width=300 height=300><img src=""static/images/cards/back_of_red_moons.svg"" width=""175px"" height=""250px""></img></td>
    <td width=300 height=300><img src=""static/images/cards/back_of_red_moons.svg"" width=""175px"" height=""250px""></img></td>
  </tr>
  <tr height=200>
    <td width=300><img src=""static/images/keys/z.svg"" width=""35%"" height=""75%""></img></td>
    <td width=300></td>
  </tr>
</table>
  ",90.0,1.0,,,,,,,,,,,,,,,,,,,,,,,,,,
152,0,,html-keyboard-response,152,387885,0.0-7.0-2.0,g75rdkywfnr,2022-09-19 17:57:49.051,62aa26e333b0fca51f65d3ac,2,61,42,62,38,30,Female,,,"
  <table>
  <tr height=300>
    <td width=300 height=300><img src=""static/images/cards/4_of_red_moons.svg"" width=""175px"" height=""250px""></img></td>
    <td width=300 height=300><img src=""static/images/cards/back_of_red_moons.svg"" width=""175px"" height=""250px""></img></td>
  </tr>
  <tr height=200>
    <td width=300><img src=""static/images/keys/z.svg"" width=""35%"" height=""75%""></img></td>
    <td width=300></td>
  </tr>
</table>
  ",,,,,,,,,,,,,,,,,,,,,,,,,,,,
153,0,,html-keyboard-response,153,389401,0.0-7.0-3.0,g75rdkywfnr,2022-09-19 17:57:49.051,62aa26e333b0fca51f65d3ac,2,61,42,62,38,30,Female,,,"<p style=""font-size:50px"">You Lose!
No points this round.</p>",,,,,,,,,,,,,,,,,,,,,,,,,,,,
154,0,,html-keyboard-response,154,389912,0.0-7.0-4.0,g75rdkywfnr,2022-09-19 17:57:49.051,62aa26e333b0fca51f65d3ac,2,61,42,62,38,30,Female,,,,,,1.0,choice,0.0,B,D,red,red,moons,stars,D,B,D,red,moons,3042.8000000119,0.0,0.0,1,left,1121.8000000119,4.0,0.0,0.0,,,
155,0,,html-keyboard-response,155,392465,0.0-7.1-0.1,g75rdkywfnr,2022-09-19 17:57:49.051,62aa26e333b0fca51f65d3ac,2,61,42,62,38,30,Female,2551.099999994,,"
  <table>
  <tr height=300>
    <td width=300 height=300><img src=""static/images/cards/stack_of_red_stars.svg"" width=""175px"" height=""250px""></img></td>
    <td width=300 height=300><img src=""static/images/cards/stack_of_red_moons.svg"" width=""175px"" height=""250px""></img></td>
  </tr>
  <tr height=200>
    <td width=300><img src=""static/images/keys/w.svg"" width=""35%"" height=""75%""></img></td>
    <td width=300><img src=""static/images/keys/o.svg"" width=""35%"" height=""75%""></img></td>
  </tr>
</table>
  ",87.0,1.0,,,,,,,,,,,,,,,,,,,,,,,,,,
156,0,,html-keyboard-response,156,393896,0.0-7.1-1.1,g75rdkywfnr,2022-09-19 17:57:49.051,62aa26e333b0fca51f65d3ac,2,61,42,62,38,30,Female,924.099999994,,"
  <table>
  <tr height=300>
    <td width=300 height=300><img src=""static/images/cards/back_of_red_stars.svg"" width=""175px"" height=""250px""></img></td>
    <td width=300 height=300><img src=""static/images/cards/back_of_red_stars.svg"" width=""175px"" height=""250px""></img></td>
  </tr>
  <tr height=200>
    <td width=300><img src=""static/images/keys/z.svg"" width=""35%"" height=""75%""></img></td>
    <td width=300></td>
  </tr>
</table>
  ",90.0,1.0,,,,,,,,,,,,,,,,,,,,,,,,,,
157,0,,html-keyboard-response,157,395404,0.0-7.1-2.1,g75rdkywfnr,2022-09-19 17:57:49.051,62aa26e333b0fca51f65d3ac,2,61,42,62,38,30,Female,,,"
  <table>
  <tr height=300>
    <td width=300 height=300><img src=""static/images/cards/7_of_red_stars.svg"" width=""175px"" height=""250px""></img></td>
    <td width=300 height=300><img src=""static/images/cards/back_of_red_stars.svg"" width=""175px"" height=""250px""></img></td>
  </tr>
  <tr height=200>
    <td width=300><img src=""static/images/keys/z.svg"" width=""35%"" height=""75%""></img></td>
    <td width=300></td>
  </tr>
</table>
  ",,,,,,,,,,,,,,,,,,,,,,,,,,,,
158,0,,html-keyboard-response,158,396920,0.0-7.1-3.1,g75rdkywfnr,2022-09-19 17:57:49.051,62aa26e333b0fca51f65d3ac,2,61,42,62,38,30,Female,,,"<p style=""font-size:50px"">You win!
+10 points this round!</p>",,,,,,,,,,,,,,,,,,,,,,,,,,,,
159,0,,html-keyboard-response,159,397433,0.0-7.1-4.1,g75rdkywfnr,2022-09-19 17:57:49.051,62aa26e333b0fca51f65d3ac,2,61,42,62,38,30,Female,,,,,,1.0,choice,1.0,B,D,red,red,stars,moons,B,D,B,red,stars,2551.099999994,0.0,1.0,1,left,924.099999994,7.0,1.0,1.0,,,
160,0,,html-keyboard-response,160,399006,0.0-7.2-0.2,g75rdkywfnr,2022-09-19 17:57:49.051,62aa26e333b0fca51f65d3ac,2,61,42,62,38,30,Female,1570.8000000119,,"
  <table>
  <tr height=300>
    <td width=300 height=300><img src=""static/images/cards/stack_of_black_moons.svg"" width=""175px"" height=""250px""></img></td>
    <td width=300 height=300><img src=""static/images/cards/stack_of_red_moons.svg"" width=""175px"" height=""250px""></img></td>
  </tr>
  <tr height=200>
    <td width=300><img src=""static/images/keys/w.svg"" width=""35%"" height=""75%""></img></td>
    <td width=300><img src=""static/images/keys/o.svg"" width=""35%"" height=""75%""></img></td>
  </tr>
</table>
  ",87.0,1.0,,,,,,,,,,,,,,,,,,,,,,,,,,
161,0,,html-keyboard-response,161,400667,0.0-7.2-1.2,g75rdkywfnr,2022-09-19 17:57:49.051,62aa26e333b0fca51f65d3ac,2,61,42,62,38,30,Female,1155.3000000119,,"
  <table>
  <tr height=300>
    <td width=300 height=300><img src=""static/images/cards/back_of_black_moons.svg"" width=""175px"" height=""250px""></img></td>
    <td width=300 height=300><img src=""static/images/cards/back_of_black_moons.svg"" width=""175px"" height=""250px""></img></td>
  </tr>
  <tr height=200>
    <td width=300><img src=""static/images/keys/z.svg"" width=""35%"" height=""75%""></img></td>
    <td width=300><img src=""static/images/keys/m.svg"" width=""35%"" height=""75%""></img></td>
  </tr>
</table>
  ",77.0,1.0,,,,,,,,,,,,,,,,,,,,,,,,,,
162,0,,html-keyboard-response,162,402168,0.0-7.2-2.2,g75rdkywfnr,2022-09-19 17:57:49.051,62aa26e333b0fca51f65d3ac,2,61,42,62,38,30,Female,,,"
  <table>
  <tr height=300>
    <td width=300 height=300><img src=""static/images/cards/back_of_black_moons.svg"" width=""175px"" height=""250px""></img></td>
    <td width=300 height=300><img src=""static/images/cards/3_of_black_moons.svg"" width=""175px"" height=""250px""></img></td>
  </tr>
  <tr height=200>
    <td width=300><img src=""static/images/keys/z.svg"" width=""35%"" height=""75%""></img></td>
    <td width=300><img src=""static/images/keys/m.svg"" width=""35%"" height=""75%""></img></td>
  </tr>
</table>
  ",,,,,,,,,,,,,,,,,,,,,,,,,,,,
163,0,,html-keyboard-response,163,403681,0.0-7.2-3.2,g75rdkywfnr,2022-09-19 17:57:49.051,62aa26e333b0fca51f65d3ac,2,61,42,62,38,30,Female,,,"<p style=""font-size:50px"">You win!
+10 points this round!</p>",,,,,,,,,,,,,,,,,,,,,,,,,,,,
164,0,,html-keyboard-response,164,404195,0.0-7.2-4.2,g75rdkywfnr,2022-09-19 17:57:49.051,62aa26e333b0fca51f65d3ac,2,61,42,62,38,30,Female,,,,,,1.0,choice,2.0,C,D,black,red,moons,moons,C,D,C,black,moons,1570.8000000119,1.0,0.0,NA,right,1155.3000000119,3.0,0.0,1.0,,,
165,0,,html-keyboard-response,165,406415,0.0-7.3-0.3,g75rdkywfnr,2022-09-19 17:57:49.051,62aa26e333b0fca51f65d3ac,2,61,42,62,38,30,Female,2218.400000006,,"
  <table>
  <tr height=300>
    <td width=300 height=300><img src=""static/images/cards/stack_of_red_stars.svg"" width=""175px"" height=""250px""></img></td>
    <td width=300 height=300><img src=""static/images/cards/stack_of_black_stars.svg"" width=""175px"" height=""250px""></img></td>
  </tr>
  <tr height=200>
    <td width=300><img src=""static/images/keys/w.svg"" width=""35%"" height=""75%""></img></td>
    <td width=300><img src=""static/images/keys/o.svg"" width=""35%"" height=""75%""></img></td>
  </tr>
</table>
  ",79.0,1.0,,,,,,,,,,,,,,,,,,,,,,,,,,
166,0,,html-keyboard-response,166,408197,0.0-7.3-1.3,g75rdkywfnr,2022-09-19 17:57:49.051,62aa26e333b0fca51f65d3ac,2,61,42,62,38,30,Female,1275.0,,"
  <table>
  <tr height=300>
    <td width=300 height=300><img src=""static/images/cards/back_of_black_stars.svg"" width=""175px"" height=""250px""></img></td>
    <td width=300 height=300><img src=""static/images/cards/back_of_black_stars.svg"" width=""175px"" height=""250px""></img></td>
  </tr>
  <tr height=200>
    <td width=300><img src=""static/images/keys/z.svg"" width=""35%"" height=""75%""></img></td>
    <td width=300><img src=""static/images/keys/m.svg"" width=""35%"" height=""75%""></img></td>
  </tr>
</table>
  ",90.0,1.0,,,,,,,,,,,,,,,,,,,,,,,,,,
167,0,,html-keyboard-response,167,409704,0.0-7.3-2.3,g75rdkywfnr,2022-09-19 17:57:49.051,62aa26e333b0fca51f65d3ac,2,61,42,62,38,30,Female,,,"
  <table>
  <tr height=300>
    <td width=300 height=300><img src=""static/images/cards/4_of_black_stars.svg"" width=""175px"" height=""250px""></img></td>
    <td width=300 height=300><img src=""static/images/cards/back_of_black_stars.svg"" width=""175px"" height=""250px""></img></td>
  </tr>
  <tr height=200>
    <td width=300><img src=""static/images/keys/z.svg"" width=""35%"" height=""75%""></img></td>
    <td width=300><img src=""static/images/keys/m.svg"" width=""35%"" height=""75%""></img></td>
  </tr>
</table>
  ",,,,,,,,,,,,,,,,,,,,,,,,,,,,
168,0,,html-keyboard-response,168,411220,0.0-7.3-3.3,g75rdkywfnr,2022-09-19 17:57:49.051,62aa26e333b0fca51f65d3ac,2,61,42,62,38,30,Female,,,"<p style=""font-size:50px"">You Lose!
No points this round.</p>",,,,,,,,,,,,,,,,,,,,,,,,,,,,
169,0,,html-keyboard-response,169,411735,0.0-7.3-4.3,g75rdkywfnr,2022-09-19 17:57:49.051,62aa26e333b0fca51f65d3ac,2,61,42,62,38,30,Female,,,,,,1.0,choice,3.0,A,B,red,black,stars,stars,B,A,A,black,stars,2218.400000006,1.0,1.0,NA,left,1275.0,4.0,0.0,0.0,,,
170,0,,html-keyboard-response,170,413698,0.0-7.4-0.4,g75rdkywfnr,2022-09-19 17:57:49.051,62aa26e333b0fca51f65d3ac,2,61,42,62,38,30,Female,1961.1999999881,,"
  <table>
  <tr height=300>
    <td width=300 height=300><img src=""static/images/cards/stack_of_red_moons.svg"" width=""175px"" height=""250px""></img></td>
    <td width=300 height=300><img src=""static/images/cards/stack_of_red_bolts.svg"" width=""175px"" height=""250px""></img></td>
  </tr>
  <tr height=200>
    <td width=300><img src=""static/images/keys/w.svg"" width=""35%"" height=""75%""></img></td>
    <td width=300><img src=""static/images/keys/o.svg"" width=""35%"" height=""75%""></img></td>
  </tr>
</table>
  ",79.0,1.0,,,,,,,,,,,,,,,,,,,,,,,,,,
171,0,,html-keyboard-response,171,415477,0.0-7.4-1.4,g75rdkywfnr,2022-09-19 17:57:49.051,62aa26e333b0fca51f65d3ac,2,61,42,62,38,30,Female,1268.2000000179,,"
  <table>
  <tr height=300>
    <td width=300 height=300><img src=""static/images/cards/back_of_red_bolts.svg"" width=""175px"" height=""250px""></img></td>
    <td width=300 height=300><img src=""static/images/cards/back_of_red_bolts.svg"" width=""175px"" height=""250px""></img></td>
  </tr>
  <tr height=200>
    <td width=300><img src=""static/images/keys/z.svg"" width=""35%"" height=""75%""></img></td>
    <td width=300><img src=""static/images/keys/m.svg"" width=""35%"" height=""75%""></img></td>
  </tr>
</table>
  ",77.0,1.0,,,,,,,,,,,,,,,,,,,,,,,,,,
172,0,,html-keyboard-response,172,416985,0.0-7.4-2.4,g75rdkywfnr,2022-09-19 17:57:49.051,62aa26e333b0fca51f65d3ac,2,61,42,62,38,30,Female,,,"
  <table>
  <tr height=300>
    <td width=300 height=300><img src=""static/images/cards/back_of_red_bolts.svg"" width=""175px"" height=""250px""></img></td>
    <td width=300 height=300><img src=""static/images/cards/9_of_red_bolts.svg"" width=""175px"" height=""250px""></img></td>
  </tr>
  <tr height=200>
    <td width=300><img src=""static/images/keys/z.svg"" width=""35%"" height=""75%""></img></td>
    <td width=300><img src=""static/images/keys/m.svg"" width=""35%"" height=""75%""></img></td>
  </tr>
</table>
  ",,,,,,,,,,,,,,,,,,,,,,,,,,,,
173,0,,html-keyboard-response,173,418497,0.0-7.4-3.4,g75rdkywfnr,2022-09-19 17:57:49.051,62aa26e333b0fca51f65d3ac,2,61,42,62,38,30,Female,,,"<p style=""font-size:50px"">You win!
+10 points this round!</p>",,,,,,,,,,,,,,,,,,,,,,,,,,,,
174,0,,html-keyboard-response,174,419008,0.0-7.4-4.4,g75rdkywfnr,2022-09-19 17:57:49.051,62aa26e333b0fca51f65d3ac,2,61,42,62,38,30,Female,,,,,,1.0,choice,4.0,D,Xc,red,red,moons,bolts,D,Xc,Xc,red,bolts,1961.1999999881,1.0,0.0,NA,right,1268.2000000179,9.0,1.0,1.0,,,
175,0,,html-keyboard-response,175,420891,0.0-7.5-0.5,g75rdkywfnr,2022-09-19 17:57:49.051,62aa26e333b0fca51f65d3ac,2,61,42,62,38,30,Female,1882.0,,"
  <table>
  <tr height=300>
    <td width=300 height=300><img src=""static/images/cards/stack_of_red_stars.svg"" width=""175px"" height=""250px""></img></td>
    <td width=300 height=300><img src=""static/images/cards/stack_of_black_stars.svg"" width=""175px"" height=""250px""></img></td>
  </tr>
  <tr height=200>
    <td width=300><img src=""static/images/keys/w.svg"" width=""35%"" height=""75%""></img></td>
    <td width=300><img src=""static/images/keys/o.svg"" width=""35%"" height=""75%""></img></td>
  </tr>
</table>
  ",87.0,1.0,,,,,,,,,,,,,,,,,,,,,,,,,,
176,0,,html-keyboard-response,176,422780,0.0-7.5-1.5,g75rdkywfnr,2022-09-19 17:57:49.051,62aa26e333b0fca51f65d3ac,2,61,42,62,38,30,Female,1383.6999999881,,"
  <table>
  <tr height=300>
    <td width=300 height=300><img src=""static/images/cards/back_of_red_stars.svg"" width=""175px"" height=""250px""></img></td>
    <td width=300 height=300><img src=""static/images/cards/back_of_red_stars.svg"" width=""175px"" height=""250px""></img></td>
  </tr>
  <tr height=200>
    <td width=300><img src=""static/images/keys/z.svg"" width=""35%"" height=""75%""></img></td>
    <td width=300></td>
  </tr>
</table>
  ",90.0,1.0,,,,,,,,,,,,,,,,,,,,,,,,,,
177,0,,html-keyboard-response,177,424286,0.0-7.5-2.5,g75rdkywfnr,2022-09-19 17:57:49.051,62aa26e333b0fca51f65d3ac,2,61,42,62,38,30,Female,,,"
  <table>
  <tr height=300>
    <td width=300 height=300><img src=""static/images/cards/3_of_red_stars.svg"" width=""175px"" height=""250px""></img></td>
    <td width=300 height=300><img src=""static/images/cards/back_of_red_stars.svg"" width=""175px"" height=""250px""></img></td>
  </tr>
  <tr height=200>
    <td width=300><img src=""static/images/keys/z.svg"" width=""35%"" height=""75%""></img></td>
    <td width=300></td>
  </tr>
</table>
  ",,,,,,,,,,,,,,,,,,,,,,,,,,,,
178,0,,html-keyboard-response,178,425797,0.0-7.5-3.5,g75rdkywfnr,2022-09-19 17:57:49.051,62aa26e333b0fca51f65d3ac,2,61,42,62,38,30,Female,,,"<p style=""font-size:50px"">You Lose!
No points this round.</p>",,,,,,,,,,,,,,,,,,,,,,,,,,,,
179,0,,html-keyboard-response,179,426312,0.0-7.5-4.5,g75rdkywfnr,2022-09-19 17:57:49.051,62aa26e333b0fca51f65d3ac,2,61,42,62,38,30,Female,,,,,,1.0,choice,5.0,A,B,red,black,stars,stars,B,A,B,red,stars,1882.0,0.0,1.0,1,left,1383.6999999881,3.0,0.0,0.0,,,
180,0,,html-keyboard-response,180,427736,0.0-7.6-0.6,g75rdkywfnr,2022-09-19 17:57:49.051,62aa26e333b0fca51f65d3ac,2,61,42,62,38,30,Female,1422.6999999881,,"
  <table>
  <tr height=300>
    <td width=300 height=300><img src=""static/images/cards/stack_of_black_bolts.svg"" width=""175px"" height=""250px""></img></td>
    <td width=300 height=300><img src=""static/images/cards/stack_of_black_moons.svg"" width=""175px"" height=""250px""></img></td>
  </tr>
  <tr height=200>
    <td width=300><img src=""static/images/keys/w.svg"" width=""35%"" height=""75%""></img></td>
    <td width=300><img src=""static/images/keys/o.svg"" width=""35%"" height=""75%""></img></td>
  </tr>
</table>
  ",87.0,1.0,,,,,,,,,,,,,,,,,,,,,,,,,,
181,0,,html-keyboard-response,181,429131,0.0-7.6-1.6,g75rdkywfnr,2022-09-19 17:57:49.051,62aa26e333b0fca51f65d3ac,2,61,42,62,38,30,Female,887.7000000179,,"
  <table>
  <tr height=300>
    <td width=300 height=300><img src=""static/images/cards/back_of_black_bolts.svg"" width=""175px"" height=""250px""></img></td>
    <td width=300 height=300><img src=""static/images/cards/back_of_black_bolts.svg"" width=""175px"" height=""250px""></img></td>
  </tr>
  <tr height=200>
    <td width=300></td>
    <td width=300><img src=""static/images/keys/m.svg"" width=""35%"" height=""75%""></img></td>
  </tr>
</table>
  ",77.0,1.0,,,,,,,,,,,,,,,,,,,,,,,,,,
182,0,,html-keyboard-response,182,430641,0.0-7.6-2.6,g75rdkywfnr,2022-09-19 17:57:49.051,62aa26e333b0fca51f65d3ac,2,61,42,62,38,30,Female,,,"
  <table>
  <tr height=300>
    <td width=300 height=300><img src=""static/images/cards/back_of_black_bolts.svg"" width=""175px"" height=""250px""></img></td>
    <td width=300 height=300><img src=""static/images/cards/1_of_black_bolts.svg"" width=""175px"" height=""250px""></img></td>
  </tr>
  <tr height=200>
    <td width=300></td>
    <td width=300><img src=""static/images/keys/m.svg"" width=""35%"" height=""75%""></img></td>
  </tr>
</table>
  ",,,,,,,,,,,,,,,,,,,,,,,,,,,,
183,0,,html-keyboard-response,183,432161,0.0-7.6-3.6,g75rdkywfnr,2022-09-19 17:57:49.051,62aa26e333b0fca51f65d3ac,2,61,42,62,38,30,Female,,,"<p style=""font-size:50px"">You win!
+10 points this round!</p>",,,,,,,,,,,,,,,,,,,,,,,,,,,,
184,0,,html-keyboard-response,184,432676,0.0-7.6-4.6,g75rdkywfnr,2022-09-19 17:57:49.051,62aa26e333b0fca51f65d3ac,2,61,42,62,38,30,Female,,,,,,1.0,choice,6.0,C,Xnc,black,black,bolts,moons,Xnc,C,Xnc,black,bolts,1422.6999999881,0.0,0.0,0,right,887.7000000179,1.0,0.0,1.0,,,
185,0,,html-keyboard-response,185,434198,0.0-7.7-0.7,g75rdkywfnr,2022-09-19 17:57:49.051,62aa26e333b0fca51f65d3ac,2,61,42,62,38,30,Female,1521.1999999881,,"
  <table>
  <tr height=300>
    <td width=300 height=300><img src=""static/images/cards/stack_of_red_stars.svg"" width=""175px"" height=""250px""></img></td>
    <td width=300 height=300><img src=""static/images/cards/stack_of_black_moons.svg"" width=""175px"" height=""250px""></img></td>
  </tr>
  <tr height=200>
    <td width=300><img src=""static/images/keys/w.svg"" width=""35%"" height=""75%""></img></td>
    <td width=300><img src=""static/images/keys/o.svg"" width=""35%"" height=""75%""></img></td>
  </tr>
</table>
  ",87.0,1.0,,,,,,,,,,,,,,,,,,,,,,,,,,
186,0,,html-keyboard-response,186,435872,0.0-7.7-1.7,g75rdkywfnr,2022-09-19 17:57:49.051,62aa26e333b0fca51f65d3ac,2,61,42,62,38,30,Female,1165.900000006,,"
  <table>
  <tr height=300>
    <td width=300 height=300><img src=""static/images/cards/back_of_red_stars.svg"" width=""175px"" height=""250px""></img></td>
    <td width=300 height=300><img src=""static/images/cards/back_of_red_stars.svg"" width=""175px"" height=""250px""></img></td>
  </tr>
  <tr height=200>
    <td width=300></td>
    <td width=300><img src=""static/images/keys/m.svg"" width=""35%"" height=""75%""></img></td>
  </tr>
</table>
  ",77.0,1.0,,,,,,,,,,,,,,,,,,,,,,,,,,
187,0,,html-keyboard-response,187,437386,0.0-7.7-2.7,g75rdkywfnr,2022-09-19 17:57:49.051,62aa26e333b0fca51f65d3ac,2,61,42,62,38,30,Female,,,"
  <table>
  <tr height=300>
    <td width=300 height=300><img src=""static/images/cards/back_of_red_stars.svg"" width=""175px"" height=""250px""></img></td>
    <td width=300 height=300><img src=""static/images/cards/4_of_red_stars.svg"" width=""175px"" height=""250px""></img></td>
  </tr>
  <tr height=200>
    <td width=300></td>
    <td width=300><img src=""static/images/keys/m.svg"" width=""35%"" height=""75%""></img></td>
  </tr>
</table>
  ",,,,,,,,,,,,,,,,,,,,,,,,,,,,
188,0,,html-keyboard-response,188,438901,0.0-7.7-3.7,g75rdkywfnr,2022-09-19 17:57:49.051,62aa26e333b0fca51f65d3ac,2,61,42,62,38,30,Female,,,"<p style=""font-size:50px"">You Lose!
No points this round.</p>",,,,,,,,,,,,,,,,,,,,,,,,,,,,
189,0,,html-keyboard-response,189,439411,0.0-7.7-4.7,g75rdkywfnr,2022-09-19 17:57:49.051,62aa26e333b0fca51f65d3ac,2,61,42,62,38,30,Female,,,,,,1.0,choice,7.0,B,C,red,black,stars,moons,B,C,B,red,stars,1521.1999999881,0.0,1.0,0,right,1165.900000006,4.0,0.0,0.0,,,
190,0,,html-keyboard-response,190,440550,0.0-7.8-0.8,g75rdkywfnr,2022-09-19 17:57:49.051,62aa26e333b0fca51f65d3ac,2,61,42,62,38,30,Female,1132.8999999762,,"
  <table>
  <tr height=300>
    <td width=300 height=300><img src=""static/images/cards/stack_of_black_stars.svg"" width=""175px"" height=""250px""></img></td>
    <td width=300 height=300><img src=""static/images/cards/stack_of_black_moons.svg"" width=""175px"" height=""250px""></img></td>
  </tr>
  <tr height=200>
    <td width=300><img src=""static/images/keys/w.svg"" width=""35%"" height=""75%""></img></td>
    <td width=300><img src=""static/images/keys/o.svg"" width=""35%"" height=""75%""></img></td>
  </tr>
</table>
  ",79.0,1.0,,,,,,,,,,,,,,,,,,,,,,,,,,
191,0,,html-keyboard-response,191,441909,0.0-7.8-1.8,g75rdkywfnr,2022-09-19 17:57:49.051,62aa26e333b0fca51f65d3ac,2,61,42,62,38,30,Female,855.6999999881,,"
  <table>
  <tr height=300>
    <td width=300 height=300><img src=""static/images/cards/back_of_black_moons.svg"" width=""175px"" height=""250px""></img></td>
    <td width=300 height=300><img src=""static/images/cards/back_of_black_moons.svg"" width=""175px"" height=""250px""></img></td>
  </tr>
  <tr height=200>
    <td width=300><img src=""static/images/keys/z.svg"" width=""35%"" height=""75%""></img></td>
    <td width=300><img src=""static/images/keys/m.svg"" width=""35%"" height=""75%""></img></td>
  </tr>
</table>
  ",77.0,1.0,,,,,,,,,,,,,,,,,,,,,,,,,,
192,0,,html-keyboard-response,192,443412,0.0-7.8-2.8,g75rdkywfnr,2022-09-19 17:57:49.051,62aa26e333b0fca51f65d3ac,2,61,42,62,38,30,Female,,,"
  <table>
  <tr height=300>
    <td width=300 height=300><img src=""static/images/cards/back_of_black_moons.svg"" width=""175px"" height=""250px""></img></td>
    <td width=300 height=300><img src=""static/images/cards/8_of_black_moons.svg"" width=""175px"" height=""250px""></img></td>
  </tr>
  <tr height=200>
    <td width=300><img src=""static/images/keys/z.svg"" width=""35%"" height=""75%""></img></td>
    <td width=300><img src=""static/images/keys/m.svg"" width=""35%"" height=""75%""></img></td>
  </tr>
</table>
  ",,,,,,,,,,,,,,,,,,,,,,,,,,,,
193,0,,html-keyboard-response,193,444918,0.0-7.8-3.8,g75rdkywfnr,2022-09-19 17:57:49.051,62aa26e333b0fca51f65d3ac,2,61,42,62,38,30,Female,,,"<p style=""font-size:50px"">You Lose!
No points this round.</p>",,,,,,,,,,,,,,,,,,,,,,,,,,,,
194,0,,html-keyboard-response,194,445427,0.0-7.8-4.8,g75rdkywfnr,2022-09-19 17:57:49.051,62aa26e333b0fca51f65d3ac,2,61,42,62,38,30,Female,,,,,,1.0,choice,8.0,A,C,black,black,stars,moons,A,C,C,black,moons,1132.8999999762,1.0,0.0,NA,right,855.6999999881,8.0,1.0,0.0,,,
195,0,,html-keyboard-response,195,446825,0.0-7.9-0.9,g75rdkywfnr,2022-09-19 17:57:49.051,62aa26e333b0fca51f65d3ac,2,61,42,62,38,30,Female,1396.3000000119,,"
  <table>
  <tr height=300>
    <td width=300 height=300><img src=""static/images/cards/stack_of_red_moons.svg"" width=""175px"" height=""250px""></img></td>
    <td width=300 height=300><img src=""static/images/cards/stack_of_black_bolts.svg"" width=""175px"" height=""250px""></img></td>
  </tr>
  <tr height=200>
    <td width=300><img src=""static/images/keys/w.svg"" width=""35%"" height=""75%""></img></td>
    <td width=300><img src=""static/images/keys/o.svg"" width=""35%"" height=""75%""></img></td>
  </tr>
</table>
  ",79.0,1.0,,,,,,,,,,,,,,,,,,,,,,,,,,
196,0,,html-keyboard-response,196,448174,0.0-7.9-1.9,g75rdkywfnr,2022-09-19 17:57:49.051,62aa26e333b0fca51f65d3ac,2,61,42,62,38,30,Female,842.099999994,,"
  <table>
  <tr height=300>
    <td width=300 height=300><img src=""static/images/cards/back_of_black_bolts.svg"" width=""175px"" height=""250px""></img></td>
    <td width=300 height=300><img src=""static/images/cards/back_of_black_bolts.svg"" width=""175px"" height=""250px""></img></td>
  </tr>
  <tr height=200>
    <td width=300></td>
    <td width=300><img src=""static/images/keys/m.svg"" width=""35%"" height=""75%""></img></td>
  </tr>
</table>
  ",77.0,1.0,,,,,,,,,,,,,,,,,,,,,,,,,,
197,0,,html-keyboard-response,197,449676,0.0-7.9-2.9,g75rdkywfnr,2022-09-19 17:57:49.051,62aa26e333b0fca51f65d3ac,2,61,42,62,38,30,Female,,,"
  <table>
  <tr height=300>
    <td width=300 height=300><img src=""static/images/cards/back_of_black_bolts.svg"" width=""175px"" height=""250px""></img></td>
    <td width=300 height=300><img src=""static/images/cards/3_of_black_bolts.svg"" width=""175px"" height=""250px""></img></td>
  </tr>
  <tr height=200>
    <td width=300></td>
    <td width=300><img src=""static/images/keys/m.svg"" width=""35%"" height=""75%""></img></td>
  </tr>
</table>
  ",,,,,,,,,,,,,,,,,,,,,,,,,,,,
198,0,,html-keyboard-response,198,451194,0.0-7.9-3.9,g75rdkywfnr,2022-09-19 17:57:49.051,62aa26e333b0fca51f65d3ac,2,61,42,62,38,30,Female,,,"<p style=""font-size:50px"">You win!
+10 points this round!</p>",,,,,,,,,,,,,,,,,,,,,,,,,,,,
199,0,,html-keyboard-response,199,451703,0.0-7.9-4.9,g75rdkywfnr,2022-09-19 17:57:49.051,62aa26e333b0fca51f65d3ac,2,61,42,62,38,30,Female,,,,,,1.0,choice,9.0,D,Xnc,red,black,moons,bolts,D,Xnc,Xnc,black,bolts,1396.3000000119,0.0,0.0,0,right,842.099999994,3.0,0.0,1.0,,,
200,0,,html-keyboard-response,200,453312,0.0-7.10-0.10,g75rdkywfnr,2022-09-19 17:57:49.051,62aa26e333b0fca51f65d3ac,2,61,42,62,38,30,Female,1607.900000006,,"
  <table>
  <tr height=300>
    <td width=300 height=300><img src=""static/images/cards/stack_of_black_stars.svg"" width=""175px"" height=""250px""></img></td>
    <td width=300 height=300><img src=""static/images/cards/stack_of_black_moons.svg"" width=""175px"" height=""250px""></img></td>
  </tr>
  <tr height=200>
    <td width=300><img src=""static/images/keys/w.svg"" width=""35%"" height=""75%""></img></td>
    <td width=300><img src=""static/images/keys/o.svg"" width=""35%"" height=""75%""></img></td>
  </tr>
</table>
  ",87.0,1.0,,,,,,,,,,,,,,,,,,,,,,,,,,
201,0,,html-keyboard-response,201,454884,0.0-7.10-1.10,g75rdkywfnr,2022-09-19 17:57:49.051,62aa26e333b0fca51f65d3ac,2,61,42,62,38,30,Female,1059.900000006,,"
  <table>
  <tr height=300>
    <td width=300 height=300><img src=""static/images/cards/back_of_black_stars.svg"" width=""175px"" height=""250px""></img></td>
    <td width=300 height=300><img src=""static/images/cards/back_of_black_stars.svg"" width=""175px"" height=""250px""></img></td>
  </tr>
  <tr height=200>
    <td width=300><img src=""static/images/keys/z.svg"" width=""35%"" height=""75%""></img></td>
    <td width=300><img src=""static/images/keys/m.svg"" width=""35%"" height=""75%""></img></td>
  </tr>
</table>
  ",90.0,1.0,,,,,,,,,,,,,,,,,,,,,,,,,,
202,0,,html-keyboard-response,202,456386,0.0-7.10-2.10,g75rdkywfnr,2022-09-19 17:57:49.051,62aa26e333b0fca51f65d3ac,2,61,42,62,38,30,Female,,,"
  <table>
  <tr height=300>
    <td width=300 height=300><img src=""static/images/cards/8_of_black_stars.svg"" width=""175px"" height=""250px""></img></td>
    <td width=300 height=300><img src=""static/images/cards/back_of_black_stars.svg"" width=""175px"" height=""250px""></img></td>
  </tr>
  <tr height=200>
    <td width=300><img src=""static/images/keys/z.svg"" width=""35%"" height=""75%""></img></td>
    <td width=300><img src=""static/images/keys/m.svg"" width=""35%"" height=""75%""></img></td>
  </tr>
</table>
  ",,,,,,,,,,,,,,,,,,,,,,,,,,,,
203,0,,html-keyboard-response,203,457904,0.0-7.10-3.10,g75rdkywfnr,2022-09-19 17:57:49.051,62aa26e333b0fca51f65d3ac,2,61,42,62,38,30,Female,,,"<p style=""font-size:50px"">You win!
+10 points this round!</p>",,,,,,,,,,,,,,,,,,,,,,,,,,,,
204,0,,html-keyboard-response,204,458418,0.0-7.10-4.10,g75rdkywfnr,2022-09-19 17:57:49.051,62aa26e333b0fca51f65d3ac,2,61,42,62,38,30,Female,,,,,,1.0,choice,10.0,A,C,black,black,stars,moons,A,C,A,black,stars,1607.900000006,1.0,1.0,NA,left,1059.900000006,8.0,1.0,1.0,,,
205,0,,html-keyboard-response,205,459583,0.0-7.11-0.11,g75rdkywfnr,2022-09-19 17:57:49.051,62aa26e333b0fca51f65d3ac,2,61,42,62,38,30,Female,1162.900000006,,"
  <table>
  <tr height=300>
    <td width=300 height=300><img src=""static/images/cards/stack_of_black_moons.svg"" width=""175px"" height=""250px""></img></td>
    <td width=300 height=300><img src=""static/images/cards/stack_of_red_stars.svg"" width=""175px"" height=""250px""></img></td>
  </tr>
  <tr height=200>
    <td width=300><img src=""static/images/keys/w.svg"" width=""35%"" height=""75%""></img></td>
    <td width=300><img src=""static/images/keys/o.svg"" width=""35%"" height=""75%""></img></td>
  </tr>
</table>
  ",87.0,1.0,,,,,,,,,,,,,,,,,,,,,,,,,,
206,0,,html-keyboard-response,206,461139,0.0-7.11-1.11,g75rdkywfnr,2022-09-19 17:57:49.051,62aa26e333b0fca51f65d3ac,2,61,42,62,38,30,Female,1047.5,,"
  <table>
  <tr height=300>
    <td width=300 height=300><img src=""static/images/cards/back_of_black_moons.svg"" width=""175px"" height=""250px""></img></td>
    <td width=300 height=300><img src=""static/images/cards/back_of_black_moons.svg"" width=""175px"" height=""250px""></img></td>
  </tr>
  <tr height=200>
    <td width=300><img src=""static/images/keys/z.svg"" width=""35%"" height=""75%""></img></td>
    <td width=300><img src=""static/images/keys/m.svg"" width=""35%"" height=""75%""></img></td>
  </tr>
</table>
  ",90.0,1.0,,,,,,,,,,,,,,,,,,,,,,,,,,
207,0,,html-keyboard-response,207,462641,0.0-7.11-2.11,g75rdkywfnr,2022-09-19 17:57:49.051,62aa26e333b0fca51f65d3ac,2,61,42,62,38,30,Female,,,"
  <table>
  <tr height=300>
    <td width=300 height=300><img src=""static/images/cards/3_of_black_moons.svg"" width=""175px"" height=""250px""></img></td>
    <td width=300 height=300><img src=""static/images/cards/back_of_black_moons.svg"" width=""175px"" height=""250px""></img></td>
  </tr>
  <tr height=200>
    <td width=300><img src=""static/images/keys/z.svg"" width=""35%"" height=""75%""></img></td>
    <td width=300><img src=""static/images/keys/m.svg"" width=""35%"" height=""75%""></img></td>
  </tr>
</table>
  ",,,,,,,,,,,,,,,,,,,,,,,,,,,,
208,0,,html-keyboard-response,208,464155,0.0-7.11-3.11,g75rdkywfnr,2022-09-19 17:57:49.051,62aa26e333b0fca51f65d3ac,2,61,42,62,38,30,Female,,,"<p style=""font-size:50px"">You Lose!
No points this round.</p>",,,,,,,,,,,,,,,,,,,,,,,,,,,,
209,0,,html-keyboard-response,209,464669,0.0-7.11-4.11,g75rdkywfnr,2022-09-19 17:57:49.051,62aa26e333b0fca51f65d3ac,2,61,42,62,38,30,Female,,,,,,1.0,choice,11.0,B,C,black,red,moons,stars,C,B,C,black,moons,1162.900000006,1.0,0.0,NA,left,1047.5,3.0,0.0,0.0,,,
210,0,,html-keyboard-response,210,467148,0.0-7.12-0.12,g75rdkywfnr,2022-09-19 17:57:49.051,62aa26e333b0fca51f65d3ac,2,61,42,62,38,30,Female,2476.8000000119,,"
  <table>
  <tr height=300>
    <td width=300 height=300><img src=""static/images/cards/stack_of_red_moons.svg"" width=""175px"" height=""250px""></img></td>
    <td width=300 height=300><img src=""static/images/cards/stack_of_black_stars.svg"" width=""175px"" height=""250px""></img></td>
  </tr>
  <tr height=200>
    <td width=300><img src=""static/images/keys/w.svg"" width=""35%"" height=""75%""></img></td>
    <td width=300><img src=""static/images/keys/o.svg"" width=""35%"" height=""75%""></img></td>
  </tr>
</table>
  ",87.0,1.0,,,,,,,,,,,,,,,,,,,,,,,,,,
211,0,,html-keyboard-response,211,468553,0.0-7.12-1.12,g75rdkywfnr,2022-09-19 17:57:49.051,62aa26e333b0fca51f65d3ac,2,61,42,62,38,30,Female,901.400000006,,"
  <table>
  <tr height=300>
    <td width=300 height=300><img src=""static/images/cards/back_of_red_moons.svg"" width=""175px"" height=""250px""></img></td>
    <td width=300 height=300><img src=""static/images/cards/back_of_red_moons.svg"" width=""175px"" height=""250px""></img></td>
  </tr>
  <tr height=200>
    <td width=300></td>
    <td width=300><img src=""static/images/keys/m.svg"" width=""35%"" height=""75%""></img></td>
  </tr>
</table>
  ",77.0,1.0,,,,,,,,,,,,,,,,,,,,,,,,,,
212,0,,html-keyboard-response,212,470056,0.0-7.12-2.12,g75rdkywfnr,2022-09-19 17:57:49.051,62aa26e333b0fca51f65d3ac,2,61,42,62,38,30,Female,,,"
  <table>
  <tr height=300>
    <td width=300 height=300><img src=""static/images/cards/back_of_red_moons.svg"" width=""175px"" height=""250px""></img></td>
    <td width=300 height=300><img src=""static/images/cards/9_of_red_moons.svg"" width=""175px"" height=""250px""></img></td>
  </tr>
  <tr height=200>
    <td width=300></td>
    <td width=300><img src=""static/images/keys/m.svg"" width=""35%"" height=""75%""></img></td>
  </tr>
</table>
  ",,,,,,,,,,,,,,,,,,,,,,,,,,,,
213,0,,html-keyboard-response,213,471567,0.0-7.12-3.12,g75rdkywfnr,2022-09-19 17:57:49.051,62aa26e333b0fca51f65d3ac,2,61,42,62,38,30,Female,,,"<p style=""font-size:50px"">You Lose!
No points this round.</p>",,,,,,,,,,,,,,,,,,,,,,,,,,,,
214,0,,html-keyboard-response,214,472072,0.0-7.12-4.12,g75rdkywfnr,2022-09-19 17:57:49.051,62aa26e333b0fca51f65d3ac,2,61,42,62,38,30,Female,,,,,,1.0,choice,12.0,A,D,red,black,moons,stars,D,A,D,red,moons,2476.8000000119,0.0,0.0,0,right,901.400000006,9.0,1.0,0.0,,,
215,0,,html-keyboard-response,215,473103,0.0-7.13-0.13,g75rdkywfnr,2022-09-19 17:57:49.051,62aa26e333b0fca51f65d3ac,2,61,42,62,38,30,Female,1029.2000000179,,"
  <table>
  <tr height=300>
    <td width=300 height=300><img src=""static/images/cards/stack_of_black_stars.svg"" width=""175px"" height=""250px""></img></td>
    <td width=300 height=300><img src=""static/images/cards/stack_of_red_stars.svg"" width=""175px"" height=""250px""></img></td>
  </tr>
  <tr height=200>
    <td width=300><img src=""static/images/keys/w.svg"" width=""35%"" height=""75%""></img></td>
    <td width=300><img src=""static/images/keys/o.svg"" width=""35%"" height=""75%""></img></td>
  </tr>
</table>
  ",87.0,1.0,,,,,,,,,,,,,,,,,,,,,,,,,,
216,0,,html-keyboard-response,216,474768,0.0-7.13-1.13,g75rdkywfnr,2022-09-19 17:57:49.051,62aa26e333b0fca51f65d3ac,2,61,42,62,38,30,Female,1163.2999999821,,"
  <table>
  <tr height=300>
    <td width=300 height=300><img src=""static/images/cards/back_of_black_stars.svg"" width=""175px"" height=""250px""></img></td>
    <td width=300 height=300><img src=""static/images/cards/back_of_black_stars.svg"" width=""175px"" height=""250px""></img></td>
  </tr>
  <tr height=200>
    <td width=300><img src=""static/images/keys/z.svg"" width=""35%"" height=""75%""></img></td>
    <td width=300><img src=""static/images/keys/m.svg"" width=""35%"" height=""75%""></img></td>
  </tr>
</table>
  ",77.0,1.0,,,,,,,,,,,,,,,,,,,,,,,,,,
217,0,,html-keyboard-response,217,476276,0.0-7.13-2.13,g75rdkywfnr,2022-09-19 17:57:49.051,62aa26e333b0fca51f65d3ac,2,61,42,62,38,30,Female,,,"
  <table>
  <tr height=300>
    <td width=300 height=300><img src=""static/images/cards/back_of_black_stars.svg"" width=""175px"" height=""250px""></img></td>
    <td width=300 height=300><img src=""static/images/cards/3_of_black_stars.svg"" width=""175px"" height=""250px""></img></td>
  </tr>
  <tr height=200>
    <td width=300><img src=""static/images/keys/z.svg"" width=""35%"" height=""75%""></img></td>
    <td width=300><img src=""static/images/keys/m.svg"" width=""35%"" height=""75%""></img></td>
  </tr>
</table>
  ",,,,,,,,,,,,,,,,,,,,,,,,,,,,
218,0,,html-keyboard-response,218,477788,0.0-7.13-3.13,g75rdkywfnr,2022-09-19 17:57:49.051,62aa26e333b0fca51f65d3ac,2,61,42,62,38,30,Female,,,"<p style=""font-size:50px"">You Lose!
No points this round.</p>",,,,,,,,,,,,,,,,,,,,,,,,,,,,
219,0,,html-keyboard-response,219,478303,0.0-7.13-4.13,g75rdkywfnr,2022-09-19 17:57:49.051,62aa26e333b0fca51f65d3ac,2,61,42,62,38,30,Female,,,,,,1.0,choice,13.0,A,B,black,red,stars,stars,A,B,A,black,stars,1029.2000000179,1.0,1.0,NA,right,1163.2999999821,3.0,0.0,0.0,,,
220,0,,html-keyboard-response,220,480113,0.0-7.14-0.14,g75rdkywfnr,2022-09-19 17:57:49.051,62aa26e333b0fca51f65d3ac,2,61,42,62,38,30,Female,1808.599999994,,"
  <table>
  <tr height=300>
    <td width=300 height=300><img src=""static/images/cards/stack_of_black_moons.svg"" width=""175px"" height=""250px""></img></td>
    <td width=300 height=300><img src=""static/images/cards/stack_of_red_stars.svg"" width=""175px"" height=""250px""></img></td>
  </tr>
  <tr height=200>
    <td width=300><img src=""static/images/keys/w.svg"" width=""35%"" height=""75%""></img></td>
    <td width=300><img src=""static/images/keys/o.svg"" width=""35%"" height=""75%""></img></td>
  </tr>
</table>
  ",79.0,1.0,,,,,,,,,,,,,,,,,,,,,,,,,,
221,0,,html-keyboard-response,221,481177,0.0-7.14-1.14,g75rdkywfnr,2022-09-19 17:57:49.051,62aa26e333b0fca51f65d3ac,2,61,42,62,38,30,Female,555.400000006,,"
  <table>
  <tr height=300>
    <td width=300 height=300><img src=""static/images/cards/back_of_red_stars.svg"" width=""175px"" height=""250px""></img></td>
    <td width=300 height=300><img src=""static/images/cards/back_of_red_stars.svg"" width=""175px"" height=""250px""></img></td>
  </tr>
  <tr height=200>
    <td width=300></td>
    <td width=300><img src=""static/images/keys/m.svg"" width=""35%"" height=""75%""></img></td>
  </tr>
</table>
  ",77.0,1.0,,,,,,,,,,,,,,,,,,,,,,,,,,
222,0,,html-keyboard-response,222,482681,0.0-7.14-2.14,g75rdkywfnr,2022-09-19 17:57:49.051,62aa26e333b0fca51f65d3ac,2,61,42,62,38,30,Female,,,"
  <table>
  <tr height=300>
    <td width=300 height=300><img src=""static/images/cards/back_of_red_stars.svg"" width=""175px"" height=""250px""></img></td>
    <td width=300 height=300><img src=""static/images/cards/3_of_red_stars.svg"" width=""175px"" height=""250px""></img></td>
  </tr>
  <tr height=200>
    <td width=300></td>
    <td width=300><img src=""static/images/keys/m.svg"" width=""35%"" height=""75%""></img></td>
  </tr>
</table>
  ",,,,,,,,,,,,,,,,,,,,,,,,,,,,
223,0,,html-keyboard-response,223,484193,0.0-7.14-3.14,g75rdkywfnr,2022-09-19 17:57:49.051,62aa26e333b0fca51f65d3ac,2,61,42,62,38,30,Female,,,"<p style=""font-size:50px"">You Lose!
No points this round.</p>",,,,,,,,,,,,,,,,,,,,,,,,,,,,
224,0,,html-keyboard-response,224,484706,0.0-7.14-4.14,g75rdkywfnr,2022-09-19 17:57:49.051,62aa26e333b0fca51f65d3ac,2,61,42,62,38,30,Female,,,,,,1.0,choice,14.0,B,C,black,red,moons,stars,C,B,B,red,stars,1808.599999994,0.0,1.0,0,right,555.400000006,3.0,0.0,0.0,,,
225,0,,html-keyboard-response,225,486702,0.0-7.15-0.15,g75rdkywfnr,2022-09-19 17:57:49.051,62aa26e333b0fca51f65d3ac,2,61,42,62,38,30,Female,1994.400000006,,"
  <table>
  <tr height=300>
    <td width=300 height=300><img src=""static/images/cards/stack_of_red_stars.svg"" width=""175px"" height=""250px""></img></td>
    <td width=300 height=300><img src=""static/images/cards/stack_of_black_moons.svg"" width=""175px"" height=""250px""></img></td>
  </tr>
  <tr height=200>
    <td width=300><img src=""static/images/keys/w.svg"" width=""35%"" height=""75%""></img></td>
    <td width=300><img src=""static/images/keys/o.svg"" width=""35%"" height=""75%""></img></td>
  </tr>
</table>
  ",87.0,2.0,,,,,,,,,,,,,,,,,,,,,,,,,,
226,0,,html-keyboard-response,226,488167,0.0-7.15-1.15,g75rdkywfnr,2022-09-19 17:57:49.051,62aa26e333b0fca51f65d3ac,2,61,42,62,38,30,Female,959.7999999821,,"
  <table>
  <tr height=300>
    <td width=300 height=300><img src=""static/images/cards/back_of_red_stars.svg"" width=""175px"" height=""250px""></img></td>
    <td width=300 height=300><img src=""static/images/cards/back_of_red_stars.svg"" width=""175px"" height=""250px""></img></td>
  </tr>
  <tr height=200>
    <td width=300><img src=""static/images/keys/z.svg"" width=""35%"" height=""75%""></img></td>
    <td width=300></td>
  </tr>
</table>
  ",90.0,1.0,,,,,,,,,,,,,,,,,,,,,,,,,,
227,0,,html-keyboard-response,227,489675,0.0-7.15-2.15,g75rdkywfnr,2022-09-19 17:57:49.051,62aa26e333b0fca51f65d3ac,2,61,42,62,38,30,Female,,,"
  <table>
  <tr height=300>
    <td width=300 height=300><img src=""static/images/cards/10_of_red_stars.svg"" width=""175px"" height=""250px""></img></td>
    <td width=300 height=300><img src=""static/images/cards/back_of_red_stars.svg"" width=""175px"" height=""250px""></img></td>
  </tr>
  <tr height=200>
    <td width=300><img src=""static/images/keys/z.svg"" width=""35%"" height=""75%""></img></td>
    <td width=300></td>
  </tr>
</table>
  ",,,,,,,,,,,,,,,,,,,,,,,,,,,,
228,0,,html-keyboard-response,228,491183,0.0-7.15-3.15,g75rdkywfnr,2022-09-19 17:57:49.051,62aa26e333b0fca51f65d3ac,2,61,42,62,38,30,Female,,,"<p style=""font-size:50px"">You win!
+10 points this round!</p>",,,,,,,,,,,,,,,,,,,,,,,,,,,,
229,0,,html-keyboard-response,229,491696,0.0-7.15-4.15,g75rdkywfnr,2022-09-19 17:57:49.051,62aa26e333b0fca51f65d3ac,2,61,42,62,38,30,Female,,,,,,1.0,choice,15.0,B,C,red,black,stars,moons,B,C,B,red,stars,1994.400000006,0.0,1.0,1,left,959.7999999821,10.0,1.0,1.0,,,
230,0,,html-keyboard-response,230,493862,0.0-7.16-0.16,g75rdkywfnr,2022-09-19 17:57:49.051,62aa26e333b0fca51f65d3ac,2,61,42,62,38,30,Female,2164.900000006,,"
  <table>
  <tr height=300>
    <td width=300 height=300><img src=""static/images/cards/stack_of_black_stars.svg"" width=""175px"" height=""250px""></img></td>
    <td width=300 height=300><img src=""static/images/cards/stack_of_red_moons.svg"" width=""175px"" height=""250px""></img></td>
  </tr>
  <tr height=200>
    <td width=300><img src=""static/images/keys/w.svg"" width=""35%"" height=""75%""></img></td>
    <td width=300><img src=""static/images/keys/o.svg"" width=""35%"" height=""75%""></img></td>
  </tr>
</table>
  ",87.0,1.0,,,,,,,,,,,,,,,,,,,,,,,,,,
231,0,,html-keyboard-response,231,495455,0.0-7.16-1.16,g75rdkywfnr,2022-09-19 17:57:49.051,62aa26e333b0fca51f65d3ac,2,61,42,62,38,30,Female,1089.3000000119,,"
  <table>
  <tr height=300>
    <td width=300 height=300><img src=""static/images/cards/back_of_black_stars.svg"" width=""175px"" height=""250px""></img></td>
    <td width=300 height=300><img src=""static/images/cards/back_of_black_stars.svg"" width=""175px"" height=""250px""></img></td>
  </tr>
  <tr height=200>
    <td width=300><img src=""static/images/keys/z.svg"" width=""35%"" height=""75%""></img></td>
    <td width=300><img src=""static/images/keys/m.svg"" width=""35%"" height=""75%""></img></td>
  </tr>
</table>
  ",77.0,1.0,,,,,,,,,,,,,,,,,,,,,,,,,,
232,0,,html-keyboard-response,232,496963,0.0-7.16-2.16,g75rdkywfnr,2022-09-19 17:57:49.051,62aa26e333b0fca51f65d3ac,2,61,42,62,38,30,Female,,,"
  <table>
  <tr height=300>
    <td width=300 height=300><img src=""static/images/cards/back_of_black_stars.svg"" width=""175px"" height=""250px""></img></td>
    <td width=300 height=300><img src=""static/images/cards/10_of_black_stars.svg"" width=""175px"" height=""250px""></img></td>
  </tr>
  <tr height=200>
    <td width=300><img src=""static/images/keys/z.svg"" width=""35%"" height=""75%""></img></td>
    <td width=300><img src=""static/images/keys/m.svg"" width=""35%"" height=""75%""></img></td>
  </tr>
</table>
  ",,,,,,,,,,,,,,,,,,,,,,,,,,,,
