,index,success,trial_type,trial_index,time_elapsed,internal_node_id,subject,date,prol_id,ctbl,sense_of_control_A,sense_of_control_B,sense_of_control_C,sense_of_control_D,age,gender,rt,url,stimulus,key_press,npress,is_data_trial,phase,trial,deck1,deck2,col1,col2,sym1,sym2,deck_l,deck_r,chosen_deck,chosen_col,chosen_sym,deck_rt,choose_choice,mutual_info,hidden_key,chosen_card,card_rt,player_num,win_card,outcome,mock_rating,response,responses
0,0,1.0,fullscreen,0,19300,0.0-0.0,dtqi0addvfp,2022-09-19 15:59:03.839,5b15d20c444cef0001cb1153,1,22,46,2,40,37,male,,,,,,,,,,,,,,,,,,,,,,,,,,,,,,,
1,0,,external-html,1,27762,0.0-1.0,dtqi0addvfp,2022-09-19 15:59:03.839,5b15d20c444cef0001cb1153,1,22,46,2,40,37,male,8429.5,static/js/sub/consent.html,,,,,,,,,,,,,,,,,,,,,,,,,,,,,
2,0,,call-function,2,27764,0.0-2.0,dtqi0addvfp,2022-09-19 15:59:03.839,5b15d20c444cef0001cb1153,1,22,46,2,40,37,male,,,,,,,,,,,,,,,,,,,,,,,,,,,,,,,
3,0,,image-keyboard-response,3,35110,0.0-3.0-0.0,dtqi0addvfp,2022-09-19 15:59:03.839,5b15d20c444cef0001cb1153,1,22,46,2,40,37,male,7343.5,,static/images/instructions_CB_1/Slide1.png,39.0,,,,,,,,,,,,,,,,,,,,,,,,,,,
4,0,,image-keyboard-response,4,45087,0.0-3.1-0.1,dtqi0addvfp,2022-09-19 15:59:03.839,5b15d20c444cef0001cb1153,1,22,46,2,40,37,male,9974.2999999523,,static/images/instructions_CB_1/Slide2.png,39.0,,,,,,,,,,,,,,,,,,,,,,,,,,,
5,0,,image-keyboard-response,5,50169,0.0-3.2-0.2,dtqi0addvfp,2022-09-19 15:59:03.839,5b15d20c444cef0001cb1153,1,22,46,2,40,37,male,5080.0,,static/images/instructions_CB_1/Slide3.png,39.0,,,,,,,,,,,,,,,,,,,,,,,,,,,
6,0,,image-keyboard-response,6,54919,0.0-3.3-0.3,dtqi0addvfp,2022-09-19 15:59:03.839,5b15d20c444cef0001cb1153,1,22,46,2,40,37,male,4748.1999999285,,static/images/instructions_CB_1/Slide4.png,39.0,,,,,,,,,,,,,,,,,,,,,,,,,,,
7,0,,image-keyboard-response,7,60807,0.0-3.4-0.4,dtqi0addvfp,2022-09-19 15:59:03.839,5b15d20c444cef0001cb1153,1,22,46,2,40,37,male,5885.9000000954,,static/images/instructions_CB_1/Slide5.png,39.0,,,,,,,,,,,,,,,,,,,,,,,,,,,
8,0,,image-keyboard-response,8,62911,0.0-3.5-0.5,dtqi0addvfp,2022-09-19 15:59:03.839,5b15d20c444cef0001cb1153,1,22,46,2,40,37,male,2102.7999999523,,static/images/instructions_CB_1/Slide6.png,39.0,,,,,,,,,,,,,,,,,,,,,,,,,,,
9,0,,image-keyboard-response,9,68338,0.0-3.6-0.6,dtqi0addvfp,2022-09-19 15:59:03.839,5b15d20c444cef0001cb1153,1,22,46,2,40,37,male,5425.5,,static/images/instructions_CB_1/Slide7.png,39.0,,,,,,,,,,,,,,,,,,,,,,,,,,,
10,0,,image-keyboard-response,10,86292,0.0-3.7-0.7,dtqi0addvfp,2022-09-19 15:59:03.839,5b15d20c444cef0001cb1153,1,22,46,2,40,37,male,17953.1999999285,,static/images/instructions_CB_1/Slide8.png,39.0,,,,,,,,,,,,,,,,,,,,,,,,,,,
11,0,,image-keyboard-response,11,94884,0.0-3.8-0.8,dtqi0addvfp,2022-09-19 15:59:03.839,5b15d20c444cef0001cb1153,1,22,46,2,40,37,male,8589.8999999762,,static/images/instructions_CB_1/Slide9.png,39.0,,,,,,,,,,,,,,,,,,,,,,,,,,,
12,0,,image-keyboard-response,12,110603,0.0-3.9-0.9,dtqi0addvfp,2022-09-19 15:59:03.839,5b15d20c444cef0001cb1153,1,22,46,2,40,37,male,15717.5999999046,,static/images/instructions_CB_1/Slide10.png,39.0,,,,,,,,,,,,,,,,,,,,,,,,,,,
13,0,,image-keyboard-response,13,115231,0.0-3.10-0.10,dtqi0addvfp,2022-09-19 15:59:03.839,5b15d20c444cef0001cb1153,1,22,46,2,40,37,male,4627.2999999523,,static/images/instructions_CB_1/Slide11.png,39.0,,,,,,,,,,,,,,,,,,,,,,,,,,,
14,0,,image-keyboard-response,14,137490,0.0-3.11-0.11,dtqi0addvfp,2022-09-19 15:59:03.839,5b15d20c444cef0001cb1153,1,22,46,2,40,37,male,22257.8999999762,,static/images/instructions_CB_1/Slide12.png,39.0,,,,,,,,,,,,,,,,,,,,,,,,,,,
15,0,,image-keyboard-response,15,157574,0.0-3.12-0.12,dtqi0addvfp,2022-09-19 15:59:03.839,5b15d20c444cef0001cb1153,1,22,46,2,40,37,male,20082.6999999285,,static/images/instructions_CB_1/Slide13.png,39.0,,,,,,,,,,,,,,,,,,,,,,,,,,,
16,0,,image-keyboard-response,16,162475,0.0-3.13-0.13,dtqi0addvfp,2022-09-19 15:59:03.839,5b15d20c444cef0001cb1153,1,22,46,2,40,37,male,4899.8999999762,,static/images/instructions_CB_1/Slide14.png,39.0,,,,,,,,,,,,,,,,,,,,,,,,,,,
17,0,,image-keyboard-response,17,173552,0.0-3.14-0.14,dtqi0addvfp,2022-09-19 15:59:03.839,5b15d20c444cef0001cb1153,1,22,46,2,40,37,male,11075.7000000477,,static/images/instructions_CB_1/Slide15.png,39.0,,,,,,,,,,,,,,,,,,,,,,,,,,,
18,0,,image-keyboard-response,18,178956,0.0-3.15-0.15,dtqi0addvfp,2022-09-19 15:59:03.839,5b15d20c444cef0001cb1153,1,22,46,2,40,37,male,5402.8999999762,,static/images/instructions_CB_1/Slide16.png,39.0,,,,,,,,,,,,,,,,,,,,,,,,,,,
19,0,,image-keyboard-response,19,189355,0.0-3.16-0.16,dtqi0addvfp,2022-09-19 15:59:03.839,5b15d20c444cef0001cb1153,1,22,46,2,40,37,male,10398.5999999046,,static/images/instructions_CB_1/Slide17.png,39.0,,,,,,,,,,,,,,,,,,,,,,,,,,,
20,0,,image-keyboard-response,20,219548,0.0-3.17-0.17,dtqi0addvfp,2022-09-19 15:59:03.839,5b15d20c444cef0001cb1153,1,22,46,2,40,37,male,30191.9000000954,,static/images/instructions_CB_1/Slide18.png,39.0,,,,,,,,,,,,,,,,,,,,,,,,,,,
21,0,,image-keyboard-response,21,223851,0.0-3.18-0.18,dtqi0addvfp,2022-09-19 15:59:03.839,5b15d20c444cef0001cb1153,1,22,46,2,40,37,male,4302.0999999046,,static/images/instructions_CB_1/Slide19.png,39.0,,,,,,,,,,,,,,,,,,,,,,,,,,,
22,0,,html-keyboard-response,22,225353,0.0-4.0-0.0,dtqi0addvfp,2022-09-19 15:59:03.839,5b15d20c444cef0001cb1153,1,22,46,2,40,37,male,,,"<img src=""static/images/cards/stack_of_red_moons.svg"" width=""175px"" height=""250px""></img>",,,,,,,,,,,,,,,,,,,,,,,,,,,,
23,0,,html-keyboard-response,23,227662,0.0-4.0-1.0,dtqi0addvfp,2022-09-19 15:59:03.839,5b15d20c444cef0001cb1153,1,22,46,2,40,37,male,1805.6000000238,,"
  <table>
  <tr height=300>
    <td width=300 height=300><img src=""static/images/cards/back_of_red_moons.svg"" width=""175px"" height=""250px""></img></td>
    <td width=300 height=300><img src=""static/images/cards/back_of_red_moons.svg"" width=""175px"" height=""250px""></img></td>
  </tr>
  <tr height=200>
    <td width=300><img src=""static/images/keys/z.svg"" width=""35%"" height=""75%""></img></td>
    <td width=300><img src=""static/images/keys/m.svg"" width=""35%"" height=""75%""></img></td>
  </tr>
</table>
  ",77.0,1.0,,,,,,,,,,,,,,,,,,,,,,,,,,
24,0,,html-keyboard-response,24,229165,0.0-4.0-2.0,dtqi0addvfp,2022-09-19 15:59:03.839,5b15d20c444cef0001cb1153,1,22,46,2,40,37,male,,,"
  <table>
  <tr height=300>
    <td width=300 height=300><img src=""static/images/cards/back_of_red_moons.svg"" width=""175px"" height=""250px""></img></td>
    <td width=300 height=300><img src=""static/images/cards/1_of_red_moons.svg"" width=""175px"" height=""250px""></img></td>
  </tr>
  <tr height=200>
    <td width=300><img src=""static/images/keys/z.svg"" width=""35%"" height=""75%""></img></td>
    <td width=300><img src=""static/images/keys/m.svg"" width=""35%"" height=""75%""></img></td>
  </tr>
</table>
  ",,,,,,,,,,,,,,,,,,,,,,,,,,,,
25,0,,html-keyboard-response,25,230667,0.0-4.0-3.0,dtqi0addvfp,2022-09-19 15:59:03.839,5b15d20c444cef0001cb1153,1,22,46,2,40,37,male,,,"<p style=""font-size:50px"">You Lose!
No points this round.</p>",,,,,,,,,,,,,,,,,,,,,,,,,,,,
26,0,,html-keyboard-response,26,231173,0.0-4.0-4.0,dtqi0addvfp,2022-09-19 15:59:03.839,5b15d20c444cef0001cb1153,1,22,46,2,40,37,male,,,,,,1.0,learning,0.0,A,,red,,moons,,,,A,red,moons,,1.0,1.0,NA,right,1805.6000000238,1.0,0.0,0.0,,,
27,0,,html-keyboard-response,27,232675,0.0-4.1-0.1,dtqi0addvfp,2022-09-19 15:59:03.839,5b15d20c444cef0001cb1153,1,22,46,2,40,37,male,,,"<img src=""static/images/cards/stack_of_black_moons.svg"" width=""175px"" height=""250px""></img>",,,,,,,,,,,,,,,,,,,,,,,,,,,,
28,0,,html-keyboard-response,28,234223,0.0-4.1-1.1,dtqi0addvfp,2022-09-19 15:59:03.839,5b15d20c444cef0001cb1153,1,22,46,2,40,37,male,1046.1000000238,,"
  <table>
  <tr height=300>
    <td width=300 height=300><img src=""static/images/cards/back_of_black_moons.svg"" width=""175px"" height=""250px""></img></td>
    <td width=300 height=300><img src=""static/images/cards/back_of_black_moons.svg"" width=""175px"" height=""250px""></img></td>
  </tr>
  <tr height=200>
    <td width=300></td>
    <td width=300><img src=""static/images/keys/m.svg"" width=""35%"" height=""75%""></img></td>
  </tr>
</table>
  ",77.0,1.0,,,,,,,,,,,,,,,,,,,,,,,,,,
29,0,,html-keyboard-response,29,235726,0.0-4.1-2.1,dtqi0addvfp,2022-09-19 15:59:03.839,5b15d20c444cef0001cb1153,1,22,46,2,40,37,male,,,"
  <table>
  <tr height=300>
    <td width=300 height=300><img src=""static/images/cards/back_of_black_moons.svg"" width=""175px"" height=""250px""></img></td>
    <td width=300 height=300><img src=""static/images/cards/6_of_black_moons.svg"" width=""175px"" height=""250px""></img></td>
  </tr>
  <tr height=200>
    <td width=300></td>
    <td width=300><img src=""static/images/keys/m.svg"" width=""35%"" height=""75%""></img></td>
  </tr>
</table>
  ",,,,,,,,,,,,,,,,,,,,,,,,,,,,
30,0,,html-keyboard-response,30,237229,0.0-4.1-3.1,dtqi0addvfp,2022-09-19 15:59:03.839,5b15d20c444cef0001cb1153,1,22,46,2,40,37,male,,,"<p style=""font-size:50px"">You win!
+10 points this round!</p>",,,,,,,,,,,,,,,,,,,,,,,,,,,,
31,0,,html-keyboard-response,31,237735,0.0-4.1-4.1,dtqi0addvfp,2022-09-19 15:59:03.839,5b15d20c444cef0001cb1153,1,22,46,2,40,37,male,,,,,,1.0,learning,1.0,B,,black,,moons,,,,B,black,moons,,0.0,1.0,0,right,1046.1000000238,6.0,1.0,1.0,,,
32,0,,html-keyboard-response,32,239237,0.0-4.2-0.2,dtqi0addvfp,2022-09-19 15:59:03.839,5b15d20c444cef0001cb1153,1,22,46,2,40,37,male,,,"<img src=""static/images/cards/stack_of_red_stars.svg"" width=""175px"" height=""250px""></img>",,,,,,,,,,,,,,,,,,,,,,,,,,,,
33,0,,html-keyboard-response,33,241028,0.0-4.2-1.2,dtqi0addvfp,2022-09-19 15:59:03.839,5b15d20c444cef0001cb1153,1,22,46,2,40,37,male,1288.1000000238,,"
  <table>
  <tr height=300>
    <td width=300 height=300><img src=""static/images/cards/back_of_red_stars.svg"" width=""175px"" height=""250px""></img></td>
    <td width=300 height=300><img src=""static/images/cards/back_of_red_stars.svg"" width=""175px"" height=""250px""></img></td>
  </tr>
  <tr height=200>
    <td width=300><img src=""static/images/keys/z.svg"" width=""35%"" height=""75%""></img></td>
    <td width=300><img src=""static/images/keys/m.svg"" width=""35%"" height=""75%""></img></td>
  </tr>
</table>
  ",90.0,1.0,,,,,,,,,,,,,,,,,,,,,,,,,,
34,0,,html-keyboard-response,34,242530,0.0-4.2-2.2,dtqi0addvfp,2022-09-19 15:59:03.839,5b15d20c444cef0001cb1153,1,22,46,2,40,37,male,,,"
  <table>
  <tr height=300>
    <td width=300 height=300><img src=""static/images/cards/9_of_red_stars.svg"" width=""175px"" height=""250px""></img></td>
    <td width=300 height=300><img src=""static/images/cards/back_of_red_stars.svg"" width=""175px"" height=""250px""></img></td>
  </tr>
  <tr height=200>
    <td width=300><img src=""static/images/keys/z.svg"" width=""35%"" height=""75%""></img></td>
    <td width=300><img src=""static/images/keys/m.svg"" width=""35%"" height=""75%""></img></td>
  </tr>
</table>
  ",,,,,,,,,,,,,,,,,,,,,,,,,,,,
35,0,,html-keyboard-response,35,244032,0.0-4.2-3.2,dtqi0addvfp,2022-09-19 15:59:03.839,5b15d20c444cef0001cb1153,1,22,46,2,40,37,male,,,"<p style=""font-size:50px"">You win!
+10 points this round!</p>",,,,,,,,,,,,,,,,,,,,,,,,,,,,
36,0,,html-keyboard-response,36,244539,0.0-4.2-4.2,dtqi0addvfp,2022-09-19 15:59:03.839,5b15d20c444cef0001cb1153,1,22,46,2,40,37,male,,,,,,1.0,learning,2.0,C,,red,,stars,,,,C,red,stars,,1.0,0.0,NA,left,1288.1000000238,9.0,1.0,1.0,,,
37,0,,html-keyboard-response,37,246041,0.0-4.3-0.3,dtqi0addvfp,2022-09-19 15:59:03.839,5b15d20c444cef0001cb1153,1,22,46,2,40,37,male,,,"<img src=""static/images/cards/stack_of_black_stars.svg"" width=""175px"" height=""250px""></img>",,,,,,,,,,,,,,,,,,,,,,,,,,,,
38,0,,html-keyboard-response,38,247844,0.0-4.3-1.3,dtqi0addvfp,2022-09-19 15:59:03.839,5b15d20c444cef0001cb1153,1,22,46,2,40,37,male,1300.2000000477,,"
  <table>
  <tr height=300>
    <td width=300 height=300><img src=""static/images/cards/back_of_black_stars.svg"" width=""175px"" height=""250px""></img></td>
    <td width=300 height=300><img src=""static/images/cards/back_of_black_stars.svg"" width=""175px"" height=""250px""></img></td>
  </tr>
  <tr height=200>
    <td width=300><img src=""static/images/keys/z.svg"" width=""35%"" height=""75%""></img></td>
    <td width=300></td>
  </tr>
</table>
  ",90.0,1.0,,,,,,,,,,,,,,,,,,,,,,,,,,
39,0,,html-keyboard-response,39,249349,0.0-4.3-2.3,dtqi0addvfp,2022-09-19 15:59:03.839,5b15d20c444cef0001cb1153,1,22,46,2,40,37,male,,,"
  <table>
  <tr height=300>
    <td width=300 height=300><img src=""static/images/cards/3_of_black_stars.svg"" width=""175px"" height=""250px""></img></td>
    <td width=300 height=300><img src=""static/images/cards/back_of_black_stars.svg"" width=""175px"" height=""250px""></img></td>
  </tr>
  <tr height=200>
    <td width=300><img src=""static/images/keys/z.svg"" width=""35%"" height=""75%""></img></td>
    <td width=300></td>
  </tr>
</table>
  ",,,,,,,,,,,,,,,,,,,,,,,,,,,,
40,0,,html-keyboard-response,40,250851,0.0-4.3-3.3,dtqi0addvfp,2022-09-19 15:59:03.839,5b15d20c444cef0001cb1153,1,22,46,2,40,37,male,,,"<p style=""font-size:50px"">You win!
+10 points this round!</p>",,,,,,,,,,,,,,,,,,,,,,,,,,,,
41,0,,html-keyboard-response,41,251358,0.0-4.3-4.3,dtqi0addvfp,2022-09-19 15:59:03.839,5b15d20c444cef0001cb1153,1,22,46,2,40,37,male,,,,,,1.0,learning,3.0,D,,black,,stars,,,,D,black,stars,,0.0,0.0,1,left,1300.2000000477,3.0,0.0,1.0,,,
42,0,,html-keyboard-response,42,252860,0.0-4.4-0.4,dtqi0addvfp,2022-09-19 15:59:03.839,5b15d20c444cef0001cb1153,1,22,46,2,40,37,male,,,"<img src=""static/images/cards/stack_of_red_bolts.svg"" width=""175px"" height=""250px""></img>",,,,,,,,,,,,,,,,,,,,,,,,,,,,
43,0,,html-keyboard-response,43,254895,0.0-4.4-1.4,dtqi0addvfp,2022-09-19 15:59:03.839,5b15d20c444cef0001cb1153,1,22,46,2,40,37,male,1532.5999999046,,"
  <table>
  <tr height=300>
    <td width=300 height=300><img src=""static/images/cards/back_of_red_bolts.svg"" width=""175px"" height=""250px""></img></td>
    <td width=300 height=300><img src=""static/images/cards/back_of_red_bolts.svg"" width=""175px"" height=""250px""></img></td>
  </tr>
  <tr height=200>
    <td width=300><img src=""static/images/keys/z.svg"" width=""35%"" height=""75%""></img></td>
    <td width=300><img src=""static/images/keys/m.svg"" width=""35%"" height=""75%""></img></td>
  </tr>
</table>
  ",77.0,2.0,,,,,,,,,,,,,,,,,,,,,,,,,,
44,0,,html-keyboard-response,44,256397,0.0-4.4-2.4,dtqi0addvfp,2022-09-19 15:59:03.839,5b15d20c444cef0001cb1153,1,22,46,2,40,37,male,,,"
  <table>
  <tr height=300>
    <td width=300 height=300><img src=""static/images/cards/back_of_red_bolts.svg"" width=""175px"" height=""250px""></img></td>
    <td width=300 height=300><img src=""static/images/cards/10_of_red_bolts.svg"" width=""175px"" height=""250px""></img></td>
  </tr>
  <tr height=200>
    <td width=300><img src=""static/images/keys/z.svg"" width=""35%"" height=""75%""></img></td>
    <td width=300><img src=""static/images/keys/m.svg"" width=""35%"" height=""75%""></img></td>
  </tr>
</table>
  ",,,,,,,,,,,,,,,,,,,,,,,,,,,,
45,0,,html-keyboard-response,45,257899,0.0-4.4-3.4,dtqi0addvfp,2022-09-19 15:59:03.839,5b15d20c444cef0001cb1153,1,22,46,2,40,37,male,,,"<p style=""font-size:50px"">You win!
+10 points this round!</p>",,,,,,,,,,,,,,,,,,,,,,,,,,,,
46,0,,html-keyboard-response,46,258406,0.0-4.4-4.4,dtqi0addvfp,2022-09-19 15:59:03.839,5b15d20c444cef0001cb1153,1,22,46,2,40,37,male,,,,,,1.0,learning,4.0,Xc,,red,,bolts,,,,Xc,red,bolts,,1.0,0.0,NA,right,1532.5999999046,10.0,1.0,1.0,,,
47,0,,html-keyboard-response,47,259908,0.0-4.5-0.5,dtqi0addvfp,2022-09-19 15:59:03.839,5b15d20c444cef0001cb1153,1,22,46,2,40,37,male,,,"<img src=""static/images/cards/stack_of_black_bolts.svg"" width=""175px"" height=""250px""></img>",,,,,,,,,,,,,,,,,,,,,,,,,,,,
48,0,,html-keyboard-response,48,261876,0.0-4.5-1.5,dtqi0addvfp,2022-09-19 15:59:03.839,5b15d20c444cef0001cb1153,1,22,46,2,40,37,male,1464.2000000477,,"
  <table>
  <tr height=300>
    <td width=300 height=300><img src=""static/images/cards/back_of_black_bolts.svg"" width=""175px"" height=""250px""></img></td>
    <td width=300 height=300><img src=""static/images/cards/back_of_black_bolts.svg"" width=""175px"" height=""250px""></img></td>
  </tr>
  <tr height=200>
    <td width=300><img src=""static/images/keys/z.svg"" width=""35%"" height=""75%""></img></td>
    <td width=300></td>
  </tr>
</table>
  ",90.0,1.0,,,,,,,,,,,,,,,,,,,,,,,,,,
49,0,,html-keyboard-response,49,263378,0.0-4.5-2.5,dtqi0addvfp,2022-09-19 15:59:03.839,5b15d20c444cef0001cb1153,1,22,46,2,40,37,male,,,"
  <table>
  <tr height=300>
    <td width=300 height=300><img src=""static/images/cards/1_of_black_bolts.svg"" width=""175px"" height=""250px""></img></td>
    <td width=300 height=300><img src=""static/images/cards/back_of_black_bolts.svg"" width=""175px"" height=""250px""></img></td>
  </tr>
  <tr height=200>
    <td width=300><img src=""static/images/keys/z.svg"" width=""35%"" height=""75%""></img></td>
    <td width=300></td>
  </tr>
</table>
  ",,,,,,,,,,,,,,,,,,,,,,,,,,,,
50,0,,html-keyboard-response,50,264881,0.0-4.5-3.5,dtqi0addvfp,2022-09-19 15:59:03.839,5b15d20c444cef0001cb1153,1,22,46,2,40,37,male,,,"<p style=""font-size:50px"">You win!
+10 points this round!</p>",,,,,,,,,,,,,,,,,,,,,,,,,,,,
51,0,,html-keyboard-response,51,265387,0.0-4.5-4.5,dtqi0addvfp,2022-09-19 15:59:03.839,5b15d20c444cef0001cb1153,1,22,46,2,40,37,male,,,,,,1.0,learning,5.0,Xnc,,black,,bolts,,,,Xnc,black,bolts,,0.0,0.0,1,left,1464.2000000477,1.0,0.0,1.0,,,
52,0,,html-keyboard-response,52,266889,0.0-4.6-0.6,dtqi0addvfp,2022-09-19 15:59:03.839,5b15d20c444cef0001cb1153,1,22,46,2,40,37,male,,,"<img src=""static/images/cards/stack_of_red_moons.svg"" width=""175px"" height=""250px""></img>",,,,,,,,,,,,,,,,,,,,,,,,,,,,
53,0,,html-keyboard-response,53,268977,0.0-4.6-1.6,dtqi0addvfp,2022-09-19 15:59:03.839,5b15d20c444cef0001cb1153,1,22,46,2,40,37,male,1586.1000000238,,"
  <table>
  <tr height=300>
    <td width=300 height=300><img src=""static/images/cards/back_of_red_moons.svg"" width=""175px"" height=""250px""></img></td>
    <td width=300 height=300><img src=""static/images/cards/back_of_red_moons.svg"" width=""175px"" height=""250px""></img></td>
  </tr>
  <tr height=200>
    <td width=300><img src=""static/images/keys/z.svg"" width=""35%"" height=""75%""></img></td>
    <td width=300><img src=""static/images/keys/m.svg"" width=""35%"" height=""75%""></img></td>
  </tr>
</table>
  ",77.0,1.0,,,,,,,,,,,,,,,,,,,,,,,,,,
54,0,,html-keyboard-response,54,270479,0.0-4.6-2.6,dtqi0addvfp,2022-09-19 15:59:03.839,5b15d20c444cef0001cb1153,1,22,46,2,40,37,male,,,"
  <table>
  <tr height=300>
    <td width=300 height=300><img src=""static/images/cards/back_of_red_moons.svg"" width=""175px"" height=""250px""></img></td>
    <td width=300 height=300><img src=""static/images/cards/10_of_red_moons.svg"" width=""175px"" height=""250px""></img></td>
  </tr>
  <tr height=200>
    <td width=300><img src=""static/images/keys/z.svg"" width=""35%"" height=""75%""></img></td>
    <td width=300><img src=""static/images/keys/m.svg"" width=""35%"" height=""75%""></img></td>
  </tr>
</table>
  ",,,,,,,,,,,,,,,,,,,,,,,,,,,,
55,0,,html-keyboard-response,55,271981,0.0-4.6-3.6,dtqi0addvfp,2022-09-19 15:59:03.839,5b15d20c444cef0001cb1153,1,22,46,2,40,37,male,,,"<p style=""font-size:50px"">You win!
+10 points this round!</p>",,,,,,,,,,,,,,,,,,,,,,,,,,,,
56,0,,html-keyboard-response,56,272488,0.0-4.6-4.6,dtqi0addvfp,2022-09-19 15:59:03.839,5b15d20c444cef0001cb1153,1,22,46,2,40,37,male,,,,,,1.0,learning,6.0,A,,red,,moons,,,,A,red,moons,,1.0,1.0,NA,right,1586.1000000238,10.0,1.0,1.0,,,
57,0,,html-keyboard-response,57,273990,0.0-4.7-0.7,dtqi0addvfp,2022-09-19 15:59:03.839,5b15d20c444cef0001cb1153,1,22,46,2,40,37,male,,,"<img src=""static/images/cards/stack_of_black_moons.svg"" width=""175px"" height=""250px""></img>",,,,,,,,,,,,,,,,,,,,,,,,,,,,
58,0,,html-keyboard-response,58,275619,0.0-4.7-1.7,dtqi0addvfp,2022-09-19 15:59:03.839,5b15d20c444cef0001cb1153,1,22,46,2,40,37,male,1127.0,,"
  <table>
  <tr height=300>
    <td width=300 height=300><img src=""static/images/cards/back_of_black_moons.svg"" width=""175px"" height=""250px""></img></td>
    <td width=300 height=300><img src=""static/images/cards/back_of_black_moons.svg"" width=""175px"" height=""250px""></img></td>
  </tr>
  <tr height=200>
    <td width=300></td>
    <td width=300><img src=""static/images/keys/m.svg"" width=""35%"" height=""75%""></img></td>
  </tr>
</table>
  ",77.0,1.0,,,,,,,,,,,,,,,,,,,,,,,,,,
59,0,,html-keyboard-response,59,277122,0.0-4.7-2.7,dtqi0addvfp,2022-09-19 15:59:03.839,5b15d20c444cef0001cb1153,1,22,46,2,40,37,male,,,"
  <table>
  <tr height=300>
    <td width=300 height=300><img src=""static/images/cards/back_of_black_moons.svg"" width=""175px"" height=""250px""></img></td>
    <td width=300 height=300><img src=""static/images/cards/1_of_black_moons.svg"" width=""175px"" height=""250px""></img></td>
  </tr>
  <tr height=200>
    <td width=300></td>
    <td width=300><img src=""static/images/keys/m.svg"" width=""35%"" height=""75%""></img></td>
  </tr>
</table>
  ",,,,,,,,,,,,,,,,,,,,,,,,,,,,
60,0,,html-keyboard-response,60,278624,0.0-4.7-3.7,dtqi0addvfp,2022-09-19 15:59:03.839,5b15d20c444cef0001cb1153,1,22,46,2,40,37,male,,,"<p style=""font-size:50px"">You Lose!
No points this round.</p>",,,,,,,,,,,,,,,,,,,,,,,,,,,,
61,0,,html-keyboard-response,61,279144,0.0-4.7-4.7,dtqi0addvfp,2022-09-19 15:59:03.839,5b15d20c444cef0001cb1153,1,22,46,2,40,37,male,,,,,,1.0,learning,7.0,B,,black,,moons,,,,B,black,moons,,0.0,1.0,0,right,1127.0,1.0,0.0,0.0,,,
62,0,,html-keyboard-response,62,280648,0.0-4.8-0.8,dtqi0addvfp,2022-09-19 15:59:03.839,5b15d20c444cef0001cb1153,1,22,46,2,40,37,male,,,"<img src=""static/images/cards/stack_of_red_stars.svg"" width=""175px"" height=""250px""></img>",,,,,,,,,,,,,,,,,,,,,,,,,,,,
63,0,,html-keyboard-response,63,282149,0.0-4.8-1.8,dtqi0addvfp,2022-09-19 15:59:03.839,5b15d20c444cef0001cb1153,1,22,46,2,40,37,male,998.7000000477,,"
  <table>
  <tr height=300>
    <td width=300 height=300><img src=""static/images/cards/back_of_red_stars.svg"" width=""175px"" height=""250px""></img></td>
    <td width=300 height=300><img src=""static/images/cards/back_of_red_stars.svg"" width=""175px"" height=""250px""></img></td>
  </tr>
  <tr height=200>
    <td width=300><img src=""static/images/keys/z.svg"" width=""35%"" height=""75%""></img></td>
    <td width=300><img src=""static/images/keys/m.svg"" width=""35%"" height=""75%""></img></td>
  </tr>
</table>
  ",77.0,1.0,,,,,,,,,,,,,,,,,,,,,,,,,,
64,0,,html-keyboard-response,64,283651,0.0-4.8-2.8,dtqi0addvfp,2022-09-19 15:59:03.839,5b15d20c444cef0001cb1153,1,22,46,2,40,37,male,,,"
  <table>
  <tr height=300>
    <td width=300 height=300><img src=""static/images/cards/back_of_red_stars.svg"" width=""175px"" height=""250px""></img></td>
    <td width=300 height=300><img src=""static/images/cards/6_of_red_stars.svg"" width=""175px"" height=""250px""></img></td>
  </tr>
  <tr height=200>
    <td width=300><img src=""static/images/keys/z.svg"" width=""35%"" height=""75%""></img></td>
    <td width=300><img src=""static/images/keys/m.svg"" width=""35%"" height=""75%""></img></td>
  </tr>
</table>
  ",,,,,,,,,,,,,,,,,,,,,,,,,,,,
65,0,,html-keyboard-response,65,285156,0.0-4.8-3.8,dtqi0addvfp,2022-09-19 15:59:03.839,5b15d20c444cef0001cb1153,1,22,46,2,40,37,male,,,"<p style=""font-size:50px"">You win!
+10 points this round!</p>",,,,,,,,,,,,,,,,,,,,,,,,,,,,
66,0,,html-keyboard-response,66,285662,0.0-4.8-4.8,dtqi0addvfp,2022-09-19 15:59:03.839,5b15d20c444cef0001cb1153,1,22,46,2,40,37,male,,,,,,1.0,learning,8.0,C,,red,,stars,,,,C,red,stars,,1.0,0.0,NA,right,998.7000000477,6.0,1.0,1.0,,,
67,0,,html-keyboard-response,67,287164,0.0-4.9-0.9,dtqi0addvfp,2022-09-19 15:59:03.839,5b15d20c444cef0001cb1153,1,22,46,2,40,37,male,,,"<img src=""static/images/cards/stack_of_black_stars.svg"" width=""175px"" height=""250px""></img>",,,,,,,,,,,,,,,,,,,,,,,,,,,,
68,0,,html-keyboard-response,68,288830,0.0-4.9-1.9,dtqi0addvfp,2022-09-19 15:59:03.839,5b15d20c444cef0001cb1153,1,22,46,2,40,37,male,1163.2999999523,,"
  <table>
  <tr height=300>
    <td width=300 height=300><img src=""static/images/cards/back_of_black_stars.svg"" width=""175px"" height=""250px""></img></td>
    <td width=300 height=300><img src=""static/images/cards/back_of_black_stars.svg"" width=""175px"" height=""250px""></img></td>
  </tr>
  <tr height=200>
    <td width=300></td>
    <td width=300><img src=""static/images/keys/m.svg"" width=""35%"" height=""75%""></img></td>
  </tr>
</table>
  ",77.0,1.0,,,,,,,,,,,,,,,,,,,,,,,,,,
69,0,,html-keyboard-response,69,290333,0.0-4.9-2.9,dtqi0addvfp,2022-09-19 15:59:03.839,5b15d20c444cef0001cb1153,1,22,46,2,40,37,male,,,"
  <table>
  <tr height=300>
    <td width=300 height=300><img src=""static/images/cards/back_of_black_stars.svg"" width=""175px"" height=""250px""></img></td>
    <td width=300 height=300><img src=""static/images/cards/6_of_black_stars.svg"" width=""175px"" height=""250px""></img></td>
  </tr>
  <tr height=200>
    <td width=300></td>
    <td width=300><img src=""static/images/keys/m.svg"" width=""35%"" height=""75%""></img></td>
  </tr>
</table>
  ",,,,,,,,,,,,,,,,,,,,,,,,,,,,
70,0,,html-keyboard-response,70,291836,0.0-4.9-3.9,dtqi0addvfp,2022-09-19 15:59:03.839,5b15d20c444cef0001cb1153,1,22,46,2,40,37,male,,,"<p style=""font-size:50px"">You win!
+10 points this round!</p>",,,,,,,,,,,,,,,,,,,,,,,,,,,,
71,0,,html-keyboard-response,71,292342,0.0-4.9-4.9,dtqi0addvfp,2022-09-19 15:59:03.839,5b15d20c444cef0001cb1153,1,22,46,2,40,37,male,,,,,,1.0,learning,9.0,D,,black,,stars,,,,D,black,stars,,0.0,0.0,0,right,1163.2999999523,6.0,1.0,1.0,,,
72,0,,html-keyboard-response,72,293844,0.0-4.10-0.10,dtqi0addvfp,2022-09-19 15:59:03.839,5b15d20c444cef0001cb1153,1,22,46,2,40,37,male,,,"<img src=""static/images/cards/stack_of_red_bolts.svg"" width=""175px"" height=""250px""></img>",,,,,,,,,,,,,,,,,,,,,,,,,,,,
73,0,,html-keyboard-response,73,295691,0.0-4.10-1.10,dtqi0addvfp,2022-09-19 15:59:03.839,5b15d20c444cef0001cb1153,1,22,46,2,40,37,male,1344.5999999046,,"
  <table>
  <tr height=300>
    <td width=300 height=300><img src=""static/images/cards/back_of_red_bolts.svg"" width=""175px"" height=""250px""></img></td>
    <td width=300 height=300><img src=""static/images/cards/back_of_red_bolts.svg"" width=""175px"" height=""250px""></img></td>
  </tr>
  <tr height=200>
    <td width=300><img src=""static/images/keys/z.svg"" width=""35%"" height=""75%""></img></td>
    <td width=300><img src=""static/images/keys/m.svg"" width=""35%"" height=""75%""></img></td>
  </tr>
</table>
  ",90.0,1.0,,,,,,,,,,,,,,,,,,,,,,,,,,
74,0,,html-keyboard-response,74,297193,0.0-4.10-2.10,dtqi0addvfp,2022-09-19 15:59:03.839,5b15d20c444cef0001cb1153,1,22,46,2,40,37,male,,,"
  <table>
  <tr height=300>
    <td width=300 height=300><img src=""static/images/cards/4_of_red_bolts.svg"" width=""175px"" height=""250px""></img></td>
    <td width=300 height=300><img src=""static/images/cards/back_of_red_bolts.svg"" width=""175px"" height=""250px""></img></td>
  </tr>
  <tr height=200>
    <td width=300><img src=""static/images/keys/z.svg"" width=""35%"" height=""75%""></img></td>
    <td width=300><img src=""static/images/keys/m.svg"" width=""35%"" height=""75%""></img></td>
  </tr>
</table>
  ",,,,,,,,,,,,,,,,,,,,,,,,,,,,
75,0,,html-keyboard-response,75,298695,0.0-4.10-3.10,dtqi0addvfp,2022-09-19 15:59:03.839,5b15d20c444cef0001cb1153,1,22,46,2,40,37,male,,,"<p style=""font-size:50px"">You win!
+10 points this round!</p>",,,,,,,,,,,,,,,,,,,,,,,,,,,,
76,0,,html-keyboard-response,76,299201,0.0-4.10-4.10,dtqi0addvfp,2022-09-19 15:59:03.839,5b15d20c444cef0001cb1153,1,22,46,2,40,37,male,,,,,,1.0,learning,10.0,Xc,,red,,bolts,,,,Xc,red,bolts,,1.0,0.0,NA,left,1344.5999999046,4.0,0.0,1.0,,,
77,0,,html-keyboard-response,77,300703,0.0-4.11-0.11,dtqi0addvfp,2022-09-19 15:59:03.839,5b15d20c444cef0001cb1153,1,22,46,2,40,37,male,,,"<img src=""static/images/cards/stack_of_black_bolts.svg"" width=""175px"" height=""250px""></img>",,,,,,,,,,,,,,,,,,,,,,,,,,,,
78,0,,html-keyboard-response,78,302373,0.0-4.11-1.11,dtqi0addvfp,2022-09-19 15:59:03.839,5b15d20c444cef0001cb1153,1,22,46,2,40,37,male,1167.7000000477,,"
  <table>
  <tr height=300>
    <td width=300 height=300><img src=""static/images/cards/back_of_black_bolts.svg"" width=""175px"" height=""250px""></img></td>
    <td width=300 height=300><img src=""static/images/cards/back_of_black_bolts.svg"" width=""175px"" height=""250px""></img></td>
  </tr>
  <tr height=200>
    <td width=300><img src=""static/images/keys/z.svg"" width=""35%"" height=""75%""></img></td>
    <td width=300></td>
  </tr>
</table>
  ",90.0,1.0,,,,,,,,,,,,,,,,,,,,,,,,,,
79,0,,html-keyboard-response,79,303876,0.0-4.11-2.11,dtqi0addvfp,2022-09-19 15:59:03.839,5b15d20c444cef0001cb1153,1,22,46,2,40,37,male,,,"
  <table>
  <tr height=300>
    <td width=300 height=300><img src=""static/images/cards/9_of_black_bolts.svg"" width=""175px"" height=""250px""></img></td>
    <td width=300 height=300><img src=""static/images/cards/back_of_black_bolts.svg"" width=""175px"" height=""250px""></img></td>
  </tr>
  <tr height=200>
    <td width=300><img src=""static/images/keys/z.svg"" width=""35%"" height=""75%""></img></td>
    <td width=300></td>
  </tr>
</table>
  ",,,,,,,,,,,,,,,,,,,,,,,,,,,,
80,0,,html-keyboard-response,80,305379,0.0-4.11-3.11,dtqi0addvfp,2022-09-19 15:59:03.839,5b15d20c444cef0001cb1153,1,22,46,2,40,37,male,,,"<p style=""font-size:50px"">You win!
+10 points this round!</p>",,,,,,,,,,,,,,,,,,,,,,,,,,,,
81,0,,html-keyboard-response,81,305884,0.0-4.11-4.11,dtqi0addvfp,2022-09-19 15:59:03.839,5b15d20c444cef0001cb1153,1,22,46,2,40,37,male,,,,,,1.0,learning,11.0,Xnc,,black,,bolts,,,,Xnc,black,bolts,,0.0,0.0,1,left,1167.7000000477,9.0,1.0,1.0,,,
82,0,,html-keyboard-response,82,307385,0.0-4.12-0.12,dtqi0addvfp,2022-09-19 15:59:03.839,5b15d20c444cef0001cb1153,1,22,46,2,40,37,male,,,"<img src=""static/images/cards/stack_of_red_moons.svg"" width=""175px"" height=""250px""></img>",,,,,,,,,,,,,,,,,,,,,,,,,,,,
83,0,,html-keyboard-response,83,308757,0.0-4.12-1.12,dtqi0addvfp,2022-09-19 15:59:03.839,5b15d20c444cef0001cb1153,1,22,46,2,40,37,male,869.9000000954,,"
  <table>
  <tr height=300>
    <td width=300 height=300><img src=""static/images/cards/back_of_red_moons.svg"" width=""175px"" height=""250px""></img></td>
    <td width=300 height=300><img src=""static/images/cards/back_of_red_moons.svg"" width=""175px"" height=""250px""></img></td>
  </tr>
  <tr height=200>
    <td width=300><img src=""static/images/keys/z.svg"" width=""35%"" height=""75%""></img></td>
    <td width=300><img src=""static/images/keys/m.svg"" width=""35%"" height=""75%""></img></td>
  </tr>
</table>
  ",77.0,1.0,,,,,,,,,,,,,,,,,,,,,,,,,,
84,0,,html-keyboard-response,84,310260,0.0-4.12-2.12,dtqi0addvfp,2022-09-19 15:59:03.839,5b15d20c444cef0001cb1153,1,22,46,2,40,37,male,,,"
  <table>
  <tr height=300>
    <td width=300 height=300><img src=""static/images/cards/back_of_red_moons.svg"" width=""175px"" height=""250px""></img></td>
    <td width=300 height=300><img src=""static/images/cards/1_of_red_moons.svg"" width=""175px"" height=""250px""></img></td>
  </tr>
  <tr height=200>
    <td width=300><img src=""static/images/keys/z.svg"" width=""35%"" height=""75%""></img></td>
    <td width=300><img src=""static/images/keys/m.svg"" width=""35%"" height=""75%""></img></td>
  </tr>
</table>
  ",,,,,,,,,,,,,,,,,,,,,,,,,,,,
85,0,,html-keyboard-response,85,311761,0.0-4.12-3.12,dtqi0addvfp,2022-09-19 15:59:03.839,5b15d20c444cef0001cb1153,1,22,46,2,40,37,male,,,"<p style=""font-size:50px"">You Lose!
No points this round.</p>",,,,,,,,,,,,,,,,,,,,,,,,,,,,
86,0,,html-keyboard-response,86,312266,0.0-4.12-4.12,dtqi0addvfp,2022-09-19 15:59:03.839,5b15d20c444cef0001cb1153,1,22,46,2,40,37,male,,,,,,1.0,learning,12.0,A,,red,,moons,,,,A,red,moons,,1.0,1.0,NA,right,869.9000000954,1.0,0.0,0.0,,,
87,0,,html-keyboard-response,87,313767,0.0-4.13-0.13,dtqi0addvfp,2022-09-19 15:59:03.839,5b15d20c444cef0001cb1153,1,22,46,2,40,37,male,,,"<img src=""static/images/cards/stack_of_black_moons.svg"" width=""175px"" height=""250px""></img>",,,,,,,,,,,,,,,,,,,,,,,,,,,,
88,0,,html-keyboard-response,88,314850,0.0-4.13-1.13,dtqi0addvfp,2022-09-19 15:59:03.839,5b15d20c444cef0001cb1153,1,22,46,2,40,37,male,580.5,,"
  <table>
  <tr height=300>
    <td width=300 height=300><img src=""static/images/cards/back_of_black_moons.svg"" width=""175px"" height=""250px""></img></td>
    <td width=300 height=300><img src=""static/images/cards/back_of_black_moons.svg"" width=""175px"" height=""250px""></img></td>
  </tr>
  <tr height=200>
    <td width=300></td>
    <td width=300><img src=""static/images/keys/m.svg"" width=""35%"" height=""75%""></img></td>
  </tr>
</table>
  ",77.0,1.0,,,,,,,,,,,,,,,,,,,,,,,,,,
89,0,,html-keyboard-response,89,316351,0.0-4.13-2.13,dtqi0addvfp,2022-09-19 15:59:03.839,5b15d20c444cef0001cb1153,1,22,46,2,40,37,male,,,"
  <table>
  <tr height=300>
    <td width=300 height=300><img src=""static/images/cards/back_of_black_moons.svg"" width=""175px"" height=""250px""></img></td>
    <td width=300 height=300><img src=""static/images/cards/9_of_black_moons.svg"" width=""175px"" height=""250px""></img></td>
  </tr>
  <tr height=200>
    <td width=300></td>
    <td width=300><img src=""static/images/keys/m.svg"" width=""35%"" height=""75%""></img></td>
  </tr>
</table>
  ",,,,,,,,,,,,,,,,,,,,,,,,,,,,
90,0,,html-keyboard-response,90,317853,0.0-4.13-3.13,dtqi0addvfp,2022-09-19 15:59:03.839,5b15d20c444cef0001cb1153,1,22,46,2,40,37,male,,,"<p style=""font-size:50px"">You win!
+10 points this round!</p>",,,,,,,,,,,,,,,,,,,,,,,,,,,,
91,0,,html-keyboard-response,91,318359,0.0-4.13-4.13,dtqi0addvfp,2022-09-19 15:59:03.839,5b15d20c444cef0001cb1153,1,22,46,2,40,37,male,,,,,,1.0,learning,13.0,B,,black,,moons,,,,B,black,moons,,0.0,1.0,0,right,580.5,9.0,1.0,1.0,,,
92,0,,html-keyboard-response,92,319860,0.0-4.14-0.14,dtqi0addvfp,2022-09-19 15:59:03.839,5b15d20c444cef0001cb1153,1,22,46,2,40,37,male,,,"<img src=""static/images/cards/stack_of_red_stars.svg"" width=""175px"" height=""250px""></img>",,,,,,,,,,,,,,,,,,,,,,,,,,,,
93,0,,html-keyboard-response,93,322024,0.0-4.14-1.14,dtqi0addvfp,2022-09-19 15:59:03.839,5b15d20c444cef0001cb1153,1,22,46,2,40,37,male,1663.0,,"
  <table>
  <tr height=300>
    <td width=300 height=300><img src=""static/images/cards/back_of_red_stars.svg"" width=""175px"" height=""250px""></img></td>
    <td width=300 height=300><img src=""static/images/cards/back_of_red_stars.svg"" width=""175px"" height=""250px""></img></td>
  </tr>
  <tr height=200>
    <td width=300><img src=""static/images/keys/z.svg"" width=""35%"" height=""75%""></img></td>
    <td width=300><img src=""static/images/keys/m.svg"" width=""35%"" height=""75%""></img></td>
  </tr>
</table>
  ",77.0,1.0,,,,,,,,,,,,,,,,,,,,,,,,,,
94,0,,html-keyboard-response,94,323525,0.0-4.14-2.14,dtqi0addvfp,2022-09-19 15:59:03.839,5b15d20c444cef0001cb1153,1,22,46,2,40,37,male,,,"
  <table>
  <tr height=300>
    <td width=300 height=300><img src=""static/images/cards/back_of_red_stars.svg"" width=""175px"" height=""250px""></img></td>
    <td width=300 height=300><img src=""static/images/cards/3_of_red_stars.svg"" width=""175px"" height=""250px""></img></td>
  </tr>
  <tr height=200>
    <td width=300><img src=""static/images/keys/z.svg"" width=""35%"" height=""75%""></img></td>
    <td width=300><img src=""static/images/keys/m.svg"" width=""35%"" height=""75%""></img></td>
  </tr>
</table>
  ",,,,,,,,,,,,,,,,,,,,,,,,,,,,
95,0,,html-keyboard-response,95,325027,0.0-4.14-3.14,dtqi0addvfp,2022-09-19 15:59:03.839,5b15d20c444cef0001cb1153,1,22,46,2,40,37,male,,,"<p style=""font-size:50px"">You win!
+10 points this round!</p>",,,,,,,,,,,,,,,,,,,,,,,,,,,,
96,0,,html-keyboard-response,96,325535,0.0-4.14-4.14,dtqi0addvfp,2022-09-19 15:59:03.839,5b15d20c444cef0001cb1153,1,22,46,2,40,37,male,,,,,,1.0,learning,14.0,C,,red,,stars,,,,C,red,stars,,1.0,0.0,NA,right,1663.0,3.0,0.0,1.0,,,
97,0,,html-keyboard-response,97,327036,0.0-4.15-0.15,dtqi0addvfp,2022-09-19 15:59:03.839,5b15d20c444cef0001cb1153,1,22,46,2,40,37,male,,,"<img src=""static/images/cards/stack_of_black_stars.svg"" width=""175px"" height=""250px""></img>",,,,,,,,,,,,,,,,,,,,,,,,,,,,
98,0,,html-keyboard-response,98,328771,0.0-4.15-1.15,dtqi0addvfp,2022-09-19 15:59:03.839,5b15d20c444cef0001cb1153,1,22,46,2,40,37,male,1233.8999999762,,"
  <table>
  <tr height=300>
    <td width=300 height=300><img src=""static/images/cards/back_of_black_stars.svg"" width=""175px"" height=""250px""></img></td>
    <td width=300 height=300><img src=""static/images/cards/back_of_black_stars.svg"" width=""175px"" height=""250px""></img></td>
  </tr>
  <tr height=200>
    <td width=300><img src=""static/images/keys/z.svg"" width=""35%"" height=""75%""></img></td>
    <td width=300></td>
  </tr>
</table>
  ",90.0,1.0,,,,,,,,,,,,,,,,,,,,,,,,,,
99,0,,html-keyboard-response,99,330272,0.0-4.15-2.15,dtqi0addvfp,2022-09-19 15:59:03.839,5b15d20c444cef0001cb1153,1,22,46,2,40,37,male,,,"
  <table>
  <tr height=300>
    <td width=300 height=300><img src=""static/images/cards/9_of_black_stars.svg"" width=""175px"" height=""250px""></img></td>
    <td width=300 height=300><img src=""static/images/cards/back_of_black_stars.svg"" width=""175px"" height=""250px""></img></td>
  </tr>
  <tr height=200>
    <td width=300><img src=""static/images/keys/z.svg"" width=""35%"" height=""75%""></img></td>
    <td width=300></td>
  </tr>
</table>
  ",,,,,,,,,,,,,,,,,,,,,,,,,,,,
100,0,,html-keyboard-response,100,331774,0.0-4.15-3.15,dtqi0addvfp,2022-09-19 15:59:03.839,5b15d20c444cef0001cb1153,1,22,46,2,40,37,male,,,"<p style=""font-size:50px"">You Lose!
No points this round.</p>",,,,,,,,,,,,,,,,,,,,,,,,,,,,
101,0,,html-keyboard-response,101,332280,0.0-4.15-4.15,dtqi0addvfp,2022-09-19 15:59:03.839,5b15d20c444cef0001cb1153,1,22,46,2,40,37,male,,,,,,1.0,learning,15.0,D,,black,,stars,,,,D,black,stars,,0.0,0.0,1,left,1233.8999999762,9.0,1.0,0.0,,,
102,0,,html-keyboard-response,102,333781,0.0-4.16-0.16,dtqi0addvfp,2022-09-19 15:59:03.839,5b15d20c444cef0001cb1153,1,22,46,2,40,37,male,,,"<img src=""static/images/cards/stack_of_red_bolts.svg"" width=""175px"" height=""250px""></img>",,,,,,,,,,,,,,,,,,,,,,,,,,,,
103,0,,html-keyboard-response,103,335264,0.0-4.16-1.16,dtqi0addvfp,2022-09-19 15:59:03.839,5b15d20c444cef0001cb1153,1,22,46,2,40,37,male,981.6999999285,,"
  <table>
  <tr height=300>
    <td width=300 height=300><img src=""static/images/cards/back_of_red_bolts.svg"" width=""175px"" height=""250px""></img></td>
    <td width=300 height=300><img src=""static/images/cards/back_of_red_bolts.svg"" width=""175px"" height=""250px""></img></td>
  </tr>
  <tr height=200>
    <td width=300><img src=""static/images/keys/z.svg"" width=""35%"" height=""75%""></img></td>
    <td width=300><img src=""static/images/keys/m.svg"" width=""35%"" height=""75%""></img></td>
  </tr>
</table>
  ",77.0,1.0,,,,,,,,,,,,,,,,,,,,,,,,,,
104,0,,html-keyboard-response,104,336767,0.0-4.16-2.16,dtqi0addvfp,2022-09-19 15:59:03.839,5b15d20c444cef0001cb1153,1,22,46,2,40,37,male,,,"
  <table>
  <tr height=300>
    <td width=300 height=300><img src=""static/images/cards/back_of_red_bolts.svg"" width=""175px"" height=""250px""></img></td>
    <td width=300 height=300><img src=""static/images/cards/10_of_red_bolts.svg"" width=""175px"" height=""250px""></img></td>
  </tr>
  <tr height=200>
    <td width=300><img src=""static/images/keys/z.svg"" width=""35%"" height=""75%""></img></td>
    <td width=300><img src=""static/images/keys/m.svg"" width=""35%"" height=""75%""></img></td>
  </tr>
</table>
  ",,,,,,,,,,,,,,,,,,,,,,,,,,,,
105,0,,html-keyboard-response,105,338268,0.0-4.16-3.16,dtqi0addvfp,2022-09-19 15:59:03.839,5b15d20c444cef0001cb1153,1,22,46,2,40,37,male,,,"<p style=""font-size:50px"">You win!
+10 points this round!</p>",,,,,,,,,,,,,,,,,,,,,,,,,,,,
106,0,,html-keyboard-response,106,338773,0.0-4.16-4.16,dtqi0addvfp,2022-09-19 15:59:03.839,5b15d20c444cef0001cb1153,1,22,46,2,40,37,male,,,,,,1.0,learning,16.0,Xc,,red,,bolts,,,,Xc,red,bolts,,1.0,0.0,NA,right,981.6999999285,10.0,1.0,1.0,,,
107,0,,html-keyboard-response,107,340274,0.0-4.17-0.17,dtqi0addvfp,2022-09-19 15:59:03.839,5b15d20c444cef0001cb1153,1,22,46,2,40,37,male,,,"<img src=""static/images/cards/stack_of_black_bolts.svg"" width=""175px"" height=""250px""></img>",,,,,,,,,,,,,,,,,,,,,,,,,,,,
108,0,,html-keyboard-response,108,342849,0.0-4.17-1.17,dtqi0addvfp,2022-09-19 15:59:03.839,5b15d20c444cef0001cb1153,1,22,46,2,40,37,male,2073.5,,"
  <table>
  <tr height=300>
    <td width=300 height=300><img src=""static/images/cards/back_of_black_bolts.svg"" width=""175px"" height=""250px""></img></td>
    <td width=300 height=300><img src=""static/images/cards/back_of_black_bolts.svg"" width=""175px"" height=""250px""></img></td>
  </tr>
  <tr height=200>
    <td width=300></td>
    <td width=300><img src=""static/images/keys/m.svg"" width=""35%"" height=""75%""></img></td>
  </tr>
</table>
  ",77.0,2.0,,,,,,,,,,,,,,,,,,,,,,,,,,
109,0,,html-keyboard-response,109,344350,0.0-4.17-2.17,dtqi0addvfp,2022-09-19 15:59:03.839,5b15d20c444cef0001cb1153,1,22,46,2,40,37,male,,,"
  <table>
  <tr height=300>
    <td width=300 height=300><img src=""static/images/cards/back_of_black_bolts.svg"" width=""175px"" height=""250px""></img></td>
    <td width=300 height=300><img src=""static/images/cards/3_of_black_bolts.svg"" width=""175px"" height=""250px""></img></td>
  </tr>
  <tr height=200>
    <td width=300></td>
    <td width=300><img src=""static/images/keys/m.svg"" width=""35%"" height=""75%""></img></td>
  </tr>
</table>
  ",,,,,,,,,,,,,,,,,,,,,,,,,,,,
110,0,,html-keyboard-response,110,345851,0.0-4.17-3.17,dtqi0addvfp,2022-09-19 15:59:03.839,5b15d20c444cef0001cb1153,1,22,46,2,40,37,male,,,"<p style=""font-size:50px"">You win!
+10 points this round!</p>",,,,,,,,,,,,,,,,,,,,,,,,,,,,
111,0,,html-keyboard-response,111,346357,0.0-4.17-4.17,dtqi0addvfp,2022-09-19 15:59:03.839,5b15d20c444cef0001cb1153,1,22,46,2,40,37,male,,,,,,1.0,learning,17.0,Xnc,,black,,bolts,,,,Xnc,black,bolts,,0.0,0.0,0,right,2073.5,3.0,0.0,1.0,,,
112,0,,html-keyboard-response,112,347858,0.0-4.18-0.18,dtqi0addvfp,2022-09-19 15:59:03.839,5b15d20c444cef0001cb1153,1,22,46,2,40,37,male,,,"<img src=""static/images/cards/stack_of_red_moons.svg"" width=""175px"" height=""250px""></img>",,,,,,,,,,,,,,,,,,,,,,,,,,,,
113,0,,html-keyboard-response,113,349481,0.0-4.18-1.18,dtqi0addvfp,2022-09-19 15:59:03.839,5b15d20c444cef0001cb1153,1,22,46,2,40,37,male,1122.5,,"
  <table>
  <tr height=300>
    <td width=300 height=300><img src=""static/images/cards/back_of_red_moons.svg"" width=""175px"" height=""250px""></img></td>
    <td width=300 height=300><img src=""static/images/cards/back_of_red_moons.svg"" width=""175px"" height=""250px""></img></td>
  </tr>
  <tr height=200>
    <td width=300><img src=""static/images/keys/z.svg"" width=""35%"" height=""75%""></img></td>
    <td width=300><img src=""static/images/keys/m.svg"" width=""35%"" height=""75%""></img></td>
  </tr>
</table>
  ",77.0,1.0,,,,,,,,,,,,,,,,,,,,,,,,,,
114,0,,html-keyboard-response,114,350983,0.0-4.18-2.18,dtqi0addvfp,2022-09-19 15:59:03.839,5b15d20c444cef0001cb1153,1,22,46,2,40,37,male,,,"
  <table>
  <tr height=300>
    <td width=300 height=300><img src=""static/images/cards/back_of_red_moons.svg"" width=""175px"" height=""250px""></img></td>
    <td width=300 height=300><img src=""static/images/cards/10_of_red_moons.svg"" width=""175px"" height=""250px""></img></td>
  </tr>
  <tr height=200>
    <td width=300><img src=""static/images/keys/z.svg"" width=""35%"" height=""75%""></img></td>
    <td width=300><img src=""static/images/keys/m.svg"" width=""35%"" height=""75%""></img></td>
  </tr>
</table>
  ",,,,,,,,,,,,,,,,,,,,,,,,,,,,
115,0,,html-keyboard-response,115,352484,0.0-4.18-3.18,dtqi0addvfp,2022-09-19 15:59:03.839,5b15d20c444cef0001cb1153,1,22,46,2,40,37,male,,,"<p style=""font-size:50px"">You win!
+10 points this round!</p>",,,,,,,,,,,,,,,,,,,,,,,,,,,,
116,0,,html-keyboard-response,116,352990,0.0-4.18-4.18,dtqi0addvfp,2022-09-19 15:59:03.839,5b15d20c444cef0001cb1153,1,22,46,2,40,37,male,,,,,,1.0,learning,18.0,A,,red,,moons,,,,A,red,moons,,1.0,1.0,NA,right,1122.5,10.0,1.0,1.0,,,
117,0,,html-keyboard-response,117,354491,0.0-4.19-0.19,dtqi0addvfp,2022-09-19 15:59:03.839,5b15d20c444cef0001cb1153,1,22,46,2,40,37,male,,,"<img src=""static/images/cards/stack_of_black_moons.svg"" width=""175px"" height=""250px""></img>",,,,,,,,,,,,,,,,,,,,,,,,,,,,
118,0,,html-keyboard-response,118,356845,0.0-4.19-1.19,dtqi0addvfp,2022-09-19 15:59:03.839,5b15d20c444cef0001cb1153,1,22,46,2,40,37,male,1851.7999999523,,"
  <table>
  <tr height=300>
    <td width=300 height=300><img src=""static/images/cards/back_of_black_moons.svg"" width=""175px"" height=""250px""></img></td>
    <td width=300 height=300><img src=""static/images/cards/back_of_black_moons.svg"" width=""175px"" height=""250px""></img></td>
  </tr>
  <tr height=200>
    <td width=300></td>
    <td width=300><img src=""static/images/keys/m.svg"" width=""35%"" height=""75%""></img></td>
  </tr>
</table>
  ",77.0,2.0,,,,,,,,,,,,,,,,,,,,,,,,,,
119,0,,html-keyboard-response,119,358346,0.0-4.19-2.19,dtqi0addvfp,2022-09-19 15:59:03.839,5b15d20c444cef0001cb1153,1,22,46,2,40,37,male,,,"
  <table>
  <tr height=300>
    <td width=300 height=300><img src=""static/images/cards/back_of_black_moons.svg"" width=""175px"" height=""250px""></img></td>
    <td width=300 height=300><img src=""static/images/cards/3_of_black_moons.svg"" width=""175px"" height=""250px""></img></td>
  </tr>
  <tr height=200>
    <td width=300></td>
    <td width=300><img src=""static/images/keys/m.svg"" width=""35%"" height=""75%""></img></td>
  </tr>
</table>
  ",,,,,,,,,,,,,,,,,,,,,,,,,,,,
120,0,,html-keyboard-response,120,359847,0.0-4.19-3.19,dtqi0addvfp,2022-09-19 15:59:03.839,5b15d20c444cef0001cb1153,1,22,46,2,40,37,male,,,"<p style=""font-size:50px"">You Lose!
No points this round.</p>",,,,,,,,,,,,,,,,,,,,,,,,,,,,
121,0,,html-keyboard-response,121,360354,0.0-4.19-4.19,dtqi0addvfp,2022-09-19 15:59:03.839,5b15d20c444cef0001cb1153,1,22,46,2,40,37,male,,,,,,1.0,learning,19.0,B,,black,,moons,,,,B,black,moons,,0.0,1.0,0,right,1851.7999999523,3.0,0.0,0.0,,,
122,0,,html-keyboard-response,122,361855,0.0-4.20-0.20,dtqi0addvfp,2022-09-19 15:59:03.839,5b15d20c444cef0001cb1153,1,22,46,2,40,37,male,,,"<img src=""static/images/cards/stack_of_red_stars.svg"" width=""175px"" height=""250px""></img>",,,,,,,,,,,,,,,,,,,,,,,,,,,,
123,0,,html-keyboard-response,123,363684,0.0-4.20-1.20,dtqi0addvfp,2022-09-19 15:59:03.839,5b15d20c444cef0001cb1153,1,22,46,2,40,37,male,1327.8000000715,,"
  <table>
  <tr height=300>
    <td width=300 height=300><img src=""static/images/cards/back_of_red_stars.svg"" width=""175px"" height=""250px""></img></td>
    <td width=300 height=300><img src=""static/images/cards/back_of_red_stars.svg"" width=""175px"" height=""250px""></img></td>
  </tr>
  <tr height=200>
    <td width=300><img src=""static/images/keys/z.svg"" width=""35%"" height=""75%""></img></td>
    <td width=300><img src=""static/images/keys/m.svg"" width=""35%"" height=""75%""></img></td>
  </tr>
</table>
  ",90.0,1.0,,,,,,,,,,,,,,,,,,,,,,,,,,
124,0,,html-keyboard-response,124,365186,0.0-4.20-2.20,dtqi0addvfp,2022-09-19 15:59:03.839,5b15d20c444cef0001cb1153,1,22,46,2,40,37,male,,,"
  <table>
  <tr height=300>
    <td width=300 height=300><img src=""static/images/cards/3_of_red_stars.svg"" width=""175px"" height=""250px""></img></td>
    <td width=300 height=300><img src=""static/images/cards/back_of_red_stars.svg"" width=""175px"" height=""250px""></img></td>
  </tr>
  <tr height=200>
    <td width=300><img src=""static/images/keys/z.svg"" width=""35%"" height=""75%""></img></td>
    <td width=300><img src=""static/images/keys/m.svg"" width=""35%"" height=""75%""></img></td>
  </tr>
</table>
  ",,,,,,,,,,,,,,,,,,,,,,,,,,,,
125,0,,html-keyboard-response,125,366688,0.0-4.20-3.20,dtqi0addvfp,2022-09-19 15:59:03.839,5b15d20c444cef0001cb1153,1,22,46,2,40,37,male,,,"<p style=""font-size:50px"">You win!
+10 points this round!</p>",,,,,,,,,,,,,,,,,,,,,,,,,,,,
126,0,,html-keyboard-response,126,367193,0.0-4.20-4.20,dtqi0addvfp,2022-09-19 15:59:03.839,5b15d20c444cef0001cb1153,1,22,46,2,40,37,male,,,,,,1.0,learning,20.0,C,,red,,stars,,,,C,red,stars,,1.0,0.0,NA,left,1327.8000000715,3.0,0.0,1.0,,,
127,0,,html-keyboard-response,127,368695,0.0-4.21-0.21,dtqi0addvfp,2022-09-19 15:59:03.839,5b15d20c444cef0001cb1153,1,22,46,2,40,37,male,,,"<img src=""static/images/cards/stack_of_black_stars.svg"" width=""175px"" height=""250px""></img>",,,,,,,,,,,,,,,,,,,,,,,,,,,,
128,0,,html-keyboard-response,128,370405,0.0-4.21-1.21,dtqi0addvfp,2022-09-19 15:59:03.839,5b15d20c444cef0001cb1153,1,22,46,2,40,37,male,1209.5999999046,,"
  <table>
  <tr height=300>
    <td width=300 height=300><img src=""static/images/cards/back_of_black_stars.svg"" width=""175px"" height=""250px""></img></td>
    <td width=300 height=300><img src=""static/images/cards/back_of_black_stars.svg"" width=""175px"" height=""250px""></img></td>
  </tr>
  <tr height=200>
    <td width=300><img src=""static/images/keys/z.svg"" width=""35%"" height=""75%""></img></td>
    <td width=300></td>
  </tr>
</table>
  ",90.0,1.0,,,,,,,,,,,,,,,,,,,,,,,,,,
129,0,,html-keyboard-response,129,371907,0.0-4.21-2.21,dtqi0addvfp,2022-09-19 15:59:03.839,5b15d20c444cef0001cb1153,1,22,46,2,40,37,male,,,"
  <table>
  <tr height=300>
    <td width=300 height=300><img src=""static/images/cards/2_of_black_stars.svg"" width=""175px"" height=""250px""></img></td>
    <td width=300 height=300><img src=""static/images/cards/back_of_black_stars.svg"" width=""175px"" height=""250px""></img></td>
  </tr>
  <tr height=200>
    <td width=300><img src=""static/images/keys/z.svg"" width=""35%"" height=""75%""></img></td>
    <td width=300></td>
  </tr>
</table>
  ",,,,,,,,,,,,,,,,,,,,,,,,,,,,
130,0,,html-keyboard-response,130,373408,0.0-4.21-3.21,dtqi0addvfp,2022-09-19 15:59:03.839,5b15d20c444cef0001cb1153,1,22,46,2,40,37,male,,,"<p style=""font-size:50px"">You Lose!
No points this round.</p>",,,,,,,,,,,,,,,,,,,,,,,,,,,,
131,0,,html-keyboard-response,131,373914,0.0-4.21-4.21,dtqi0addvfp,2022-09-19 15:59:03.839,5b15d20c444cef0001cb1153,1,22,46,2,40,37,male,,,,,,1.0,learning,21.0,D,,black,,stars,,,,D,black,stars,,0.0,0.0,1,left,1209.5999999046,2.0,0.0,0.0,,,
132,0,,html-keyboard-response,132,375415,0.0-4.22-0.22,dtqi0addvfp,2022-09-19 15:59:03.839,5b15d20c444cef0001cb1153,1,22,46,2,40,37,male,,,"<img src=""static/images/cards/stack_of_red_bolts.svg"" width=""175px"" height=""250px""></img>",,,,,,,,,,,,,,,,,,,,,,,,,,,,
133,0,,html-keyboard-response,133,376298,0.0-4.22-1.22,dtqi0addvfp,2022-09-19 15:59:03.839,5b15d20c444cef0001cb1153,1,22,46,2,40,37,male,381.8999999762,,"
  <table>
  <tr height=300>
    <td width=300 height=300><img src=""static/images/cards/back_of_red_bolts.svg"" width=""175px"" height=""250px""></img></td>
    <td width=300 height=300><img src=""static/images/cards/back_of_red_bolts.svg"" width=""175px"" height=""250px""></img></td>
  </tr>
  <tr height=200>
    <td width=300><img src=""static/images/keys/z.svg"" width=""35%"" height=""75%""></img></td>
    <td width=300><img src=""static/images/keys/m.svg"" width=""35%"" height=""75%""></img></td>
  </tr>
</table>
  ",77.0,1.0,,,,,,,,,,,,,,,,,,,,,,,,,,
134,0,,html-keyboard-response,134,377799,0.0-4.22-2.22,dtqi0addvfp,2022-09-19 15:59:03.839,5b15d20c444cef0001cb1153,1,22,46,2,40,37,male,,,"
  <table>
  <tr height=300>
    <td width=300 height=300><img src=""static/images/cards/back_of_red_bolts.svg"" width=""175px"" height=""250px""></img></td>
    <td width=300 height=300><img src=""static/images/cards/2_of_red_bolts.svg"" width=""175px"" height=""250px""></img></td>
  </tr>
  <tr height=200>
    <td width=300><img src=""static/images/keys/z.svg"" width=""35%"" height=""75%""></img></td>
    <td width=300><img src=""static/images/keys/m.svg"" width=""35%"" height=""75%""></img></td>
  </tr>
</table>
  ",,,,,,,,,,,,,,,,,,,,,,,,,,,,
135,0,,html-keyboard-response,135,379301,0.0-4.22-3.22,dtqi0addvfp,2022-09-19 15:59:03.839,5b15d20c444cef0001cb1153,1,22,46,2,40,37,male,,,"<p style=""font-size:50px"">You win!
+10 points this round!</p>",,,,,,,,,,,,,,,,,,,,,,,,,,,,
136,0,,html-keyboard-response,136,379806,0.0-4.22-4.22,dtqi0addvfp,2022-09-19 15:59:03.839,5b15d20c444cef0001cb1153,1,22,46,2,40,37,male,,,,,,1.0,learning,22.0,Xc,,red,,bolts,,,,Xc,red,bolts,,1.0,0.0,NA,right,381.8999999762,2.0,0.0,1.0,,,
137,0,,html-keyboard-response,137,381307,0.0-4.23-0.23,dtqi0addvfp,2022-09-19 15:59:03.839,5b15d20c444cef0001cb1153,1,22,46,2,40,37,male,,,"<img src=""static/images/cards/stack_of_black_bolts.svg"" width=""175px"" height=""250px""></img>",,,,,,,,,,,,,,,,,,,,,,,,,,,,
138,0,,html-keyboard-response,138,382722,0.0-4.23-1.23,dtqi0addvfp,2022-09-19 15:59:03.839,5b15d20c444cef0001cb1153,1,22,46,2,40,37,male,913.3000000715,,"
  <table>
  <tr height=300>
    <td width=300 height=300><img src=""static/images/cards/back_of_black_bolts.svg"" width=""175px"" height=""250px""></img></td>
    <td width=300 height=300><img src=""static/images/cards/back_of_black_bolts.svg"" width=""175px"" height=""250px""></img></td>
  </tr>
  <tr height=200>
    <td width=300></td>
    <td width=300><img src=""static/images/keys/m.svg"" width=""35%"" height=""75%""></img></td>
  </tr>
</table>
  ",77.0,1.0,,,,,,,,,,,,,,,,,,,,,,,,,,
139,0,,html-keyboard-response,139,384223,0.0-4.23-2.23,dtqi0addvfp,2022-09-19 15:59:03.839,5b15d20c444cef0001cb1153,1,22,46,2,40,37,male,,,"
  <table>
  <tr height=300>
    <td width=300 height=300><img src=""static/images/cards/back_of_black_bolts.svg"" width=""175px"" height=""250px""></img></td>
    <td width=300 height=300><img src=""static/images/cards/7_of_black_bolts.svg"" width=""175px"" height=""250px""></img></td>
  </tr>
  <tr height=200>
    <td width=300></td>
    <td width=300><img src=""static/images/keys/m.svg"" width=""35%"" height=""75%""></img></td>
  </tr>
</table>
  ",,,,,,,,,,,,,,,,,,,,,,,,,,,,
140,0,,html-keyboard-response,140,385725,0.0-4.23-3.23,dtqi0addvfp,2022-09-19 15:59:03.839,5b15d20c444cef0001cb1153,1,22,46,2,40,37,male,,,"<p style=""font-size:50px"">You win!
+10 points this round!</p>",,,,,,,,,,,,,,,,,,,,,,,,,,,,
141,0,,html-keyboard-response,141,386230,0.0-4.23-4.23,dtqi0addvfp,2022-09-19 15:59:03.839,5b15d20c444cef0001cb1153,1,22,46,2,40,37,male,,,,,,1.0,learning,23.0,Xnc,,black,,bolts,,,,Xnc,black,bolts,,0.0,0.0,0,right,913.3000000715,7.0,1.0,1.0,,,
142,0,,call-function,142,386235,0.0-5.0,dtqi0addvfp,2022-09-19 15:59:03.839,5b15d20c444cef0001cb1153,1,22,46,2,40,37,male,,,,,,,,,,,,,,,,,,,,,,,,,,,,,,,
143,0,,image-keyboard-response,143,389797,0.0-6.0-0.0,dtqi0addvfp,2022-09-19 15:59:03.839,5b15d20c444cef0001cb1153,1,22,46,2,40,37,male,3562.0,,static/images/instructions_CB_1/Slide20.png,39.0,,,,,,,,,,,,,,,,,,,,,,,,,,,
144,0,,image-keyboard-response,144,403994,0.0-6.1-0.1,dtqi0addvfp,2022-09-19 15:59:03.839,5b15d20c444cef0001cb1153,1,22,46,2,40,37,male,14196.5,,static/images/instructions_CB_1/Slide21.png,39.0,,,,,,,,,,,,,,,,,,,,,,,,,,,
145,0,,image-keyboard-response,145,408237,0.0-6.2-0.2,dtqi0addvfp,2022-09-19 15:59:03.839,5b15d20c444cef0001cb1153,1,22,46,2,40,37,male,4242.0,,static/images/instructions_CB_1/Slide22.png,39.0,,,,,,,,,,,,,,,,,,,,,,,,,,,
146,0,,image-keyboard-response,146,412886,0.0-6.3-0.3,dtqi0addvfp,2022-09-19 15:59:03.839,5b15d20c444cef0001cb1153,1,22,46,2,40,37,male,4648.2999999523,,static/images/instructions_CB_1/Slide23.png,39.0,,,,,,,,,,,,,,,,,,,,,,,,,,,
147,0,,image-keyboard-response,147,415076,0.0-6.4-0.4,dtqi0addvfp,2022-09-19 15:59:03.839,5b15d20c444cef0001cb1153,1,22,46,2,40,37,male,2189.2000000477,,static/images/instructions_CB_1/Slide24.png,39.0,,,,,,,,,,,,,,,,,,,,,,,,,,,
148,0,,html-keyboard-response,148,418196,0.0-7.0-0.0,dtqi0addvfp,2022-09-19 15:59:03.839,5b15d20c444cef0001cb1153,1,22,46,2,40,37,male,3119.7000000477,,"
  <table>
  <tr height=300>
    <td width=300 height=300><img src=""static/images/cards/stack_of_red_stars.svg"" width=""175px"" height=""250px""></img></td>
    <td width=300 height=300><img src=""static/images/cards/stack_of_black_moons.svg"" width=""175px"" height=""250px""></img></td>
  </tr>
  <tr height=200>
    <td width=300><img src=""static/images/keys/w.svg"" width=""35%"" height=""75%""></img></td>
    <td width=300><img src=""static/images/keys/o.svg"" width=""35%"" height=""75%""></img></td>
  </tr>
</table>
  ",79.0,1.0,,,,,,,,,,,,,,,,,,,,,,,,,,
149,0,,html-keyboard-response,149,420130,0.0-7.0-1.0,dtqi0addvfp,2022-09-19 15:59:03.839,5b15d20c444cef0001cb1153,1,22,46,2,40,37,male,1432.1999999285,,"
  <table>
  <tr height=300>
    <td width=300 height=300><img src=""static/images/cards/back_of_black_moons.svg"" width=""175px"" height=""250px""></img></td>
    <td width=300 height=300><img src=""static/images/cards/back_of_black_moons.svg"" width=""175px"" height=""250px""></img></td>
  </tr>
  <tr height=200>
    <td width=300><img src=""static/images/keys/z.svg"" width=""35%"" height=""75%""></img></td>
    <td width=300></td>
  </tr>
</table>
  ",90.0,1.0,,,,,,,,,,,,,,,,,,,,,,,,,,
150,0,,html-keyboard-response,150,421631,0.0-7.0-2.0,dtqi0addvfp,2022-09-19 15:59:03.839,5b15d20c444cef0001cb1153,1,22,46,2,40,37,male,,,"
  <table>
  <tr height=300>
    <td width=300 height=300><img src=""static/images/cards/1_of_black_moons.svg"" width=""175px"" height=""250px""></img></td>
    <td width=300 height=300><img src=""static/images/cards/back_of_black_moons.svg"" width=""175px"" height=""250px""></img></td>
  </tr>
  <tr height=200>
    <td width=300><img src=""static/images/keys/z.svg"" width=""35%"" height=""75%""></img></td>
    <td width=300></td>
  </tr>
</table>
  ",,,,,,,,,,,,,,,,,,,,,,,,,,,,
151,0,,html-keyboard-response,151,423133,0.0-7.0-3.0,dtqi0addvfp,2022-09-19 15:59:03.839,5b15d20c444cef0001cb1153,1,22,46,2,40,37,male,,,"<p style=""font-size:50px"">You Lose!
No points this round.</p>",,,,,,,,,,,,,,,,,,,,,,,,,,,,
152,0,,html-keyboard-response,152,423638,0.0-7.0-4.0,dtqi0addvfp,2022-09-19 15:59:03.839,5b15d20c444cef0001cb1153,1,22,46,2,40,37,male,,,,,,1.0,choice,0.0,B,C,red,black,stars,moons,C,B,B,black,moons,3119.7000000477,0.0,1.0,1,left,1432.1999999285,1.0,0.0,0.0,,,
153,0,,html-keyboard-response,153,425597,0.0-7.1-0.1,dtqi0addvfp,2022-09-19 15:59:03.839,5b15d20c444cef0001cb1153,1,22,46,2,40,37,male,1957.3999999762,,"
  <table>
  <tr height=300>
    <td width=300 height=300><img src=""static/images/cards/stack_of_red_stars.svg"" width=""175px"" height=""250px""></img></td>
    <td width=300 height=300><img src=""static/images/cards/stack_of_black_moons.svg"" width=""175px"" height=""250px""></img></td>
  </tr>
  <tr height=200>
    <td width=300><img src=""static/images/keys/w.svg"" width=""35%"" height=""75%""></img></td>
    <td width=300><img src=""static/images/keys/o.svg"" width=""35%"" height=""75%""></img></td>
  </tr>
</table>
  ",87.0,1.0,,,,,,,,,,,,,,,,,,,,,,,,,,
154,0,,html-keyboard-response,154,428003,0.0-7.1-1.1,dtqi0addvfp,2022-09-19 15:59:03.839,5b15d20c444cef0001cb1153,1,22,46,2,40,37,male,1905.3999999762,,"
  <table>
  <tr height=300>
    <td width=300 height=300><img src=""static/images/cards/back_of_red_stars.svg"" width=""175px"" height=""250px""></img></td>
    <td width=300 height=300><img src=""static/images/cards/back_of_red_stars.svg"" width=""175px"" height=""250px""></img></td>
  </tr>
  <tr height=200>
    <td width=300><img src=""static/images/keys/z.svg"" width=""35%"" height=""75%""></img></td>
    <td width=300><img src=""static/images/keys/m.svg"" width=""35%"" height=""75%""></img></td>
  </tr>
</table>
  ",90.0,1.0,,,,,,,,,,,,,,,,,,,,,,,,,,
155,0,,html-keyboard-response,155,429505,0.0-7.1-2.1,dtqi0addvfp,2022-09-19 15:59:03.839,5b15d20c444cef0001cb1153,1,22,46,2,40,37,male,,,"
  <table>
  <tr height=300>
    <td width=300 height=300><img src=""static/images/cards/8_of_red_stars.svg"" width=""175px"" height=""250px""></img></td>
    <td width=300 height=300><img src=""static/images/cards/back_of_red_stars.svg"" width=""175px"" height=""250px""></img></td>
  </tr>
  <tr height=200>
    <td width=300><img src=""static/images/keys/z.svg"" width=""35%"" height=""75%""></img></td>
    <td width=300><img src=""static/images/keys/m.svg"" width=""35%"" height=""75%""></img></td>
  </tr>
</table>
  ",,,,,,,,,,,,,,,,,,,,,,,,,,,,
156,0,,html-keyboard-response,156,431007,0.0-7.1-3.1,dtqi0addvfp,2022-09-19 15:59:03.839,5b15d20c444cef0001cb1153,1,22,46,2,40,37,male,,,"<p style=""font-size:50px"">You Lose!
No points this round.</p>",,,,,,,,,,,,,,,,,,,,,,,,,,,,
157,0,,html-keyboard-response,157,431513,0.0-7.1-4.1,dtqi0addvfp,2022-09-19 15:59:03.839,5b15d20c444cef0001cb1153,1,22,46,2,40,37,male,,,,,,1.0,choice,1.0,B,C,red,black,stars,moons,C,B,C,red,stars,1957.3999999762,1.0,0.0,NA,left,1905.3999999762,8.0,1.0,0.0,,,
158,0,,html-keyboard-response,158,435508,0.0-7.2-0.2,dtqi0addvfp,2022-09-19 15:59:03.839,5b15d20c444cef0001cb1153,1,22,46,2,40,37,male,3993.6000000238,,"
  <table>
  <tr height=300>
    <td width=300 height=300><img src=""static/images/cards/stack_of_black_moons.svg"" width=""175px"" height=""250px""></img></td>
    <td width=300 height=300><img src=""static/images/cards/stack_of_red_stars.svg"" width=""175px"" height=""250px""></img></td>
  </tr>
  <tr height=200>
    <td width=300><img src=""static/images/keys/w.svg"" width=""35%"" height=""75%""></img></td>
    <td width=300><img src=""static/images/keys/o.svg"" width=""35%"" height=""75%""></img></td>
  </tr>
</table>
  ",79.0,2.0,,,,,,,,,,,,,,,,,,,,,,,,,,
159,0,,html-keyboard-response,159,437416,0.0-7.2-1.2,dtqi0addvfp,2022-09-19 15:59:03.839,5b15d20c444cef0001cb1153,1,22,46,2,40,37,male,1406.5,,"
  <table>
  <tr height=300>
    <td width=300 height=300><img src=""static/images/cards/back_of_red_stars.svg"" width=""175px"" height=""250px""></img></td>
    <td width=300 height=300><img src=""static/images/cards/back_of_red_stars.svg"" width=""175px"" height=""250px""></img></td>
  </tr>
  <tr height=200>
    <td width=300><img src=""static/images/keys/z.svg"" width=""35%"" height=""75%""></img></td>
    <td width=300><img src=""static/images/keys/m.svg"" width=""35%"" height=""75%""></img></td>
  </tr>
</table>
  ",77.0,1.0,,,,,,,,,,,,,,,,,,,,,,,,,,
160,0,,html-keyboard-response,160,438916,0.0-7.2-2.2,dtqi0addvfp,2022-09-19 15:59:03.839,5b15d20c444cef0001cb1153,1,22,46,2,40,37,male,,,"
  <table>
  <tr height=300>
    <td width=300 height=300><img src=""static/images/cards/back_of_red_stars.svg"" width=""175px"" height=""250px""></img></td>
    <td width=300 height=300><img src=""static/images/cards/2_of_red_stars.svg"" width=""175px"" height=""250px""></img></td>
  </tr>
  <tr height=200>
    <td width=300><img src=""static/images/keys/z.svg"" width=""35%"" height=""75%""></img></td>
    <td width=300><img src=""static/images/keys/m.svg"" width=""35%"" height=""75%""></img></td>
  </tr>
</table>
  ",,,,,,,,,,,,,,,,,,,,,,,,,,,,
161,0,,html-keyboard-response,161,440418,0.0-7.2-3.2,dtqi0addvfp,2022-09-19 15:59:03.839,5b15d20c444cef0001cb1153,1,22,46,2,40,37,male,,,"<p style=""font-size:50px"">You Lose!
No points this round.</p>",,,,,,,,,,,,,,,,,,,,,,,,,,,,
162,0,,html-keyboard-response,162,440923,0.0-7.2-4.2,dtqi0addvfp,2022-09-19 15:59:03.839,5b15d20c444cef0001cb1153,1,22,46,2,40,37,male,,,,,,1.0,choice,2.0,B,C,black,red,moons,stars,B,C,C,red,stars,3993.6000000238,1.0,0.0,NA,right,1406.5,2.0,0.0,0.0,,,
163,0,,html-keyboard-response,163,442648,0.0-7.3-0.3,dtqi0addvfp,2022-09-19 15:59:03.839,5b15d20c444cef0001cb1153,1,22,46,2,40,37,male,1724.7000000477,,"
  <table>
  <tr height=300>
    <td width=300 height=300><img src=""static/images/cards/stack_of_red_moons.svg"" width=""175px"" height=""250px""></img></td>
    <td width=300 height=300><img src=""static/images/cards/stack_of_red_stars.svg"" width=""175px"" height=""250px""></img></td>
  </tr>
  <tr height=200>
    <td width=300><img src=""static/images/keys/w.svg"" width=""35%"" height=""75%""></img></td>
    <td width=300><img src=""static/images/keys/o.svg"" width=""35%"" height=""75%""></img></td>
  </tr>
</table>
  ",79.0,1.0,,,,,,,,,,,,,,,,,,,,,,,,,,
164,0,,html-keyboard-response,164,444531,0.0-7.3-1.3,dtqi0addvfp,2022-09-19 15:59:03.839,5b15d20c444cef0001cb1153,1,22,46,2,40,37,male,1381.7999999523,,"
  <table>
  <tr height=300>
    <td width=300 height=300><img src=""static/images/cards/back_of_red_stars.svg"" width=""175px"" height=""250px""></img></td>
    <td width=300 height=300><img src=""static/images/cards/back_of_red_stars.svg"" width=""175px"" height=""250px""></img></td>
  </tr>
  <tr height=200>
    <td width=300><img src=""static/images/keys/z.svg"" width=""35%"" height=""75%""></img></td>
    <td width=300><img src=""static/images/keys/m.svg"" width=""35%"" height=""75%""></img></td>
  </tr>
</table>
  ",77.0,1.0,,,,,,,,,,,,,,,,,,,,,,,,,,
165,0,,html-keyboard-response,165,446033,0.0-7.3-2.3,dtqi0addvfp,2022-09-19 15:59:03.839,5b15d20c444cef0001cb1153,1,22,46,2,40,37,male,,,"
  <table>
  <tr height=300>
    <td width=300 height=300><img src=""static/images/cards/back_of_red_stars.svg"" width=""175px"" height=""250px""></img></td>
    <td width=300 height=300><img src=""static/images/cards/7_of_red_stars.svg"" width=""175px"" height=""250px""></img></td>
  </tr>
  <tr height=200>
    <td width=300><img src=""static/images/keys/z.svg"" width=""35%"" height=""75%""></img></td>
    <td width=300><img src=""static/images/keys/m.svg"" width=""35%"" height=""75%""></img></td>
  </tr>
</table>
  ",,,,,,,,,,,,,,,,,,,,,,,,,,,,
166,0,,html-keyboard-response,166,447534,0.0-7.3-3.3,dtqi0addvfp,2022-09-19 15:59:03.839,5b15d20c444cef0001cb1153,1,22,46,2,40,37,male,,,"<p style=""font-size:50px"">You win!
+10 points this round!</p>",,,,,,,,,,,,,,,,,,,,,,,,,,,,
167,0,,html-keyboard-response,167,448040,0.0-7.3-4.3,dtqi0addvfp,2022-09-19 15:59:03.839,5b15d20c444cef0001cb1153,1,22,46,2,40,37,male,,,,,,1.0,choice,3.0,A,C,red,red,moons,stars,A,C,C,red,stars,1724.7000000477,1.0,0.0,NA,right,1381.7999999523,7.0,1.0,1.0,,,
168,0,,html-keyboard-response,168,451357,0.0-7.4-0.4,dtqi0addvfp,2022-09-19 15:59:03.839,5b15d20c444cef0001cb1153,1,22,46,2,40,37,male,3315.6000000238,,"
  <table>
  <tr height=300>
    <td width=300 height=300><img src=""static/images/cards/stack_of_black_moons.svg"" width=""175px"" height=""250px""></img></td>
    <td width=300 height=300><img src=""static/images/cards/stack_of_red_stars.svg"" width=""175px"" height=""250px""></img></td>
  </tr>
  <tr height=200>
    <td width=300><img src=""static/images/keys/w.svg"" width=""35%"" height=""75%""></img></td>
    <td width=300><img src=""static/images/keys/o.svg"" width=""35%"" height=""75%""></img></td>
  </tr>
</table>
  ",87.0,3.0,,,,,,,,,,,,,,,,,,,,,,,,,,
169,0,,html-keyboard-response,169,452862,0.0-7.4-1.4,dtqi0addvfp,2022-09-19 15:59:03.839,5b15d20c444cef0001cb1153,1,22,46,2,40,37,male,1002.1999999285,,"
  <table>
  <tr height=300>
    <td width=300 height=300><img src=""static/images/cards/back_of_black_moons.svg"" width=""175px"" height=""250px""></img></td>
    <td width=300 height=300><img src=""static/images/cards/back_of_black_moons.svg"" width=""175px"" height=""250px""></img></td>
  </tr>
  <tr height=200>
    <td width=300></td>
    <td width=300><img src=""static/images/keys/m.svg"" width=""35%"" height=""75%""></img></td>
  </tr>
</table>
  ",77.0,1.0,,,,,,,,,,,,,,,,,,,,,,,,,,
170,0,,html-keyboard-response,170,454363,0.0-7.4-2.4,dtqi0addvfp,2022-09-19 15:59:03.839,5b15d20c444cef0001cb1153,1,22,46,2,40,37,male,,,"
  <table>
  <tr height=300>
    <td width=300 height=300><img src=""static/images/cards/back_of_black_moons.svg"" width=""175px"" height=""250px""></img></td>
    <td width=300 height=300><img src=""static/images/cards/9_of_black_moons.svg"" width=""175px"" height=""250px""></img></td>
  </tr>
  <tr height=200>
    <td width=300></td>
    <td width=300><img src=""static/images/keys/m.svg"" width=""35%"" height=""75%""></img></td>
  </tr>
</table>
  ",,,,,,,,,,,,,,,,,,,,,,,,,,,,
171,0,,html-keyboard-response,171,455864,0.0-7.4-3.4,dtqi0addvfp,2022-09-19 15:59:03.839,5b15d20c444cef0001cb1153,1,22,46,2,40,37,male,,,"<p style=""font-size:50px"">You win!
+10 points this round!</p>",,,,,,,,,,,,,,,,,,,,,,,,,,,,
172,0,,html-keyboard-response,172,456370,0.0-7.4-4.4,dtqi0addvfp,2022-09-19 15:59:03.839,5b15d20c444cef0001cb1153,1,22,46,2,40,37,male,,,,,,1.0,choice,4.0,B,C,black,red,moons,stars,B,C,B,black,moons,3315.6000000238,0.0,1.0,0,right,1002.1999999285,9.0,1.0,1.0,,,
173,0,,html-keyboard-response,173,458302,0.0-7.5-0.5,dtqi0addvfp,2022-09-19 15:59:03.839,5b15d20c444cef0001cb1153,1,22,46,2,40,37,male,1930.7999999523,,"
  <table>
  <tr height=300>
    <td width=300 height=300><img src=""static/images/cards/stack_of_red_stars.svg"" width=""175px"" height=""250px""></img></td>
    <td width=300 height=300><img src=""static/images/cards/stack_of_black_stars.svg"" width=""175px"" height=""250px""></img></td>
  </tr>
  <tr height=200>
    <td width=300><img src=""static/images/keys/w.svg"" width=""35%"" height=""75%""></img></td>
    <td width=300><img src=""static/images/keys/o.svg"" width=""35%"" height=""75%""></img></td>
  </tr>
</table>
  ",87.0,1.0,,,,,,,,,,,,,,,,,,,,,,,,,,
174,0,,html-keyboard-response,174,459767,0.0-7.5-1.5,dtqi0addvfp,2022-09-19 15:59:03.839,5b15d20c444cef0001cb1153,1,22,46,2,40,37,male,963.8000000715,,"
  <table>
  <tr height=300>
    <td width=300 height=300><img src=""static/images/cards/back_of_red_stars.svg"" width=""175px"" height=""250px""></img></td>
    <td width=300 height=300><img src=""static/images/cards/back_of_red_stars.svg"" width=""175px"" height=""250px""></img></td>
  </tr>
  <tr height=200>
    <td width=300><img src=""static/images/keys/z.svg"" width=""35%"" height=""75%""></img></td>
    <td width=300><img src=""static/images/keys/m.svg"" width=""35%"" height=""75%""></img></td>
  </tr>
</table>
  ",90.0,1.0,,,,,,,,,,,,,,,,,,,,,,,,,,
175,0,,html-keyboard-response,175,461270,0.0-7.5-2.5,dtqi0addvfp,2022-09-19 15:59:03.839,5b15d20c444cef0001cb1153,1,22,46,2,40,37,male,,,"
  <table>
  <tr height=300>
    <td width=300 height=300><img src=""static/images/cards/1_of_red_stars.svg"" width=""175px"" height=""250px""></img></td>
    <td width=300 height=300><img src=""static/images/cards/back_of_red_stars.svg"" width=""175px"" height=""250px""></img></td>
  </tr>
  <tr height=200>
    <td width=300><img src=""static/images/keys/z.svg"" width=""35%"" height=""75%""></img></td>
    <td width=300><img src=""static/images/keys/m.svg"" width=""35%"" height=""75%""></img></td>
  </tr>
</table>
  ",,,,,,,,,,,,,,,,,,,,,,,,,,,,
176,0,,html-keyboard-response,176,462771,0.0-7.5-3.5,dtqi0addvfp,2022-09-19 15:59:03.839,5b15d20c444cef0001cb1153,1,22,46,2,40,37,male,,,"<p style=""font-size:50px"">You win!
+10 points this round!</p>",,,,,,,,,,,,,,,,,,,,,,,,,,,,
177,0,,html-keyboard-response,177,463276,0.0-7.5-4.5,dtqi0addvfp,2022-09-19 15:59:03.839,5b15d20c444cef0001cb1153,1,22,46,2,40,37,male,,,,,,1.0,choice,5.0,C,D,red,black,stars,stars,C,D,C,red,stars,1930.7999999523,1.0,0.0,NA,left,963.8000000715,1.0,0.0,1.0,,,
178,0,,html-keyboard-response,178,465619,0.0-7.6-0.6,dtqi0addvfp,2022-09-19 15:59:03.839,5b15d20c444cef0001cb1153,1,22,46,2,40,37,male,2342.1000000238,,"
  <table>
  <tr height=300>
    <td width=300 height=300><img src=""static/images/cards/stack_of_black_stars.svg"" width=""175px"" height=""250px""></img></td>
    <td width=300 height=300><img src=""static/images/cards/stack_of_red_stars.svg"" width=""175px"" height=""250px""></img></td>
  </tr>
  <tr height=200>
    <td width=300><img src=""static/images/keys/w.svg"" width=""35%"" height=""75%""></img></td>
    <td width=300><img src=""static/images/keys/o.svg"" width=""35%"" height=""75%""></img></td>
  </tr>
</table>
  ",87.0,1.0,,,,,,,,,,,,,,,,,,,,,,,,,,
179,0,,html-keyboard-response,179,467254,0.0-7.6-1.6,dtqi0addvfp,2022-09-19 15:59:03.839,5b15d20c444cef0001cb1153,1,22,46,2,40,37,male,1133.7000000477,,"
  <table>
  <tr height=300>
    <td width=300 height=300><img src=""static/images/cards/back_of_black_stars.svg"" width=""175px"" height=""250px""></img></td>
    <td width=300 height=300><img src=""static/images/cards/back_of_black_stars.svg"" width=""175px"" height=""250px""></img></td>
  </tr>
  <tr height=200>
    <td width=300></td>
    <td width=300><img src=""static/images/keys/m.svg"" width=""35%"" height=""75%""></img></td>
  </tr>
</table>
  ",77.0,1.0,,,,,,,,,,,,,,,,,,,,,,,,,,
180,0,,html-keyboard-response,180,468756,0.0-7.6-2.6,dtqi0addvfp,2022-09-19 15:59:03.839,5b15d20c444cef0001cb1153,1,22,46,2,40,37,male,,,"
  <table>
  <tr height=300>
    <td width=300 height=300><img src=""static/images/cards/back_of_black_stars.svg"" width=""175px"" height=""250px""></img></td>
    <td width=300 height=300><img src=""static/images/cards/4_of_black_stars.svg"" width=""175px"" height=""250px""></img></td>
  </tr>
  <tr height=200>
    <td width=300></td>
    <td width=300><img src=""static/images/keys/m.svg"" width=""35%"" height=""75%""></img></td>
  </tr>
</table>
  ",,,,,,,,,,,,,,,,,,,,,,,,,,,,
181,0,,html-keyboard-response,181,470257,0.0-7.6-3.6,dtqi0addvfp,2022-09-19 15:59:03.839,5b15d20c444cef0001cb1153,1,22,46,2,40,37,male,,,"<p style=""font-size:50px"">You Lose!
No points this round.</p>",,,,,,,,,,,,,,,,,,,,,,,,,,,,
182,0,,html-keyboard-response,182,470762,0.0-7.6-4.6,dtqi0addvfp,2022-09-19 15:59:03.839,5b15d20c444cef0001cb1153,1,22,46,2,40,37,male,,,,,,1.0,choice,6.0,C,D,black,red,stars,stars,D,C,D,black,stars,2342.1000000238,0.0,0.0,0,right,1133.7000000477,4.0,0.0,0.0,,,
183,0,,html-keyboard-response,183,472522,0.0-7.7-0.7,dtqi0addvfp,2022-09-19 15:59:03.839,5b15d20c444cef0001cb1153,1,22,46,2,40,37,male,1758.8000000715,,"
  <table>
  <tr height=300>
    <td width=300 height=300><img src=""static/images/cards/stack_of_black_stars.svg"" width=""175px"" height=""250px""></img></td>
    <td width=300 height=300><img src=""static/images/cards/stack_of_red_bolts.svg"" width=""175px"" height=""250px""></img></td>
  </tr>
  <tr height=200>
    <td width=300><img src=""static/images/keys/w.svg"" width=""35%"" height=""75%""></img></td>
    <td width=300><img src=""static/images/keys/o.svg"" width=""35%"" height=""75%""></img></td>
  </tr>
</table>
  ",79.0,1.0,,,,,,,,,,,,,,,,,,,,,,,,,,
184,0,,html-keyboard-response,184,474425,0.0-7.7-1.7,dtqi0addvfp,2022-09-19 15:59:03.839,5b15d20c444cef0001cb1153,1,22,46,2,40,37,male,1400.6000000238,,"
  <table>
  <tr height=300>
    <td width=300 height=300><img src=""static/images/cards/back_of_red_bolts.svg"" width=""175px"" height=""250px""></img></td>
    <td width=300 height=300><img src=""static/images/cards/back_of_red_bolts.svg"" width=""175px"" height=""250px""></img></td>
  </tr>
  <tr height=200>
    <td width=300><img src=""static/images/keys/z.svg"" width=""35%"" height=""75%""></img></td>
    <td width=300><img src=""static/images/keys/m.svg"" width=""35%"" height=""75%""></img></td>
  </tr>
</table>
  ",77.0,1.0,,,,,,,,,,,,,,,,,,,,,,,,,,
185,0,,html-keyboard-response,185,475926,0.0-7.7-2.7,dtqi0addvfp,2022-09-19 15:59:03.839,5b15d20c444cef0001cb1153,1,22,46,2,40,37,male,,,"
  <table>
  <tr height=300>
    <td width=300 height=300><img src=""static/images/cards/back_of_red_bolts.svg"" width=""175px"" height=""250px""></img></td>
    <td width=300 height=300><img src=""static/images/cards/8_of_red_bolts.svg"" width=""175px"" height=""250px""></img></td>
  </tr>
  <tr height=200>
    <td width=300><img src=""static/images/keys/z.svg"" width=""35%"" height=""75%""></img></td>
    <td width=300><img src=""static/images/keys/m.svg"" width=""35%"" height=""75%""></img></td>
  </tr>
</table>
  ",,,,,,,,,,,,,,,,,,,,,,,,,,,,
186,0,,html-keyboard-response,186,477427,0.0-7.7-3.7,dtqi0addvfp,2022-09-19 15:59:03.839,5b15d20c444cef0001cb1153,1,22,46,2,40,37,male,,,"<p style=""font-size:50px"">You win!
+10 points this round!</p>",,,,,,,,,,,,,,,,,,,,,,,,,,,,
187,0,,html-keyboard-response,187,477934,0.0-7.7-4.7,dtqi0addvfp,2022-09-19 15:59:03.839,5b15d20c444cef0001cb1153,1,22,46,2,40,37,male,,,,,,1.0,choice,7.0,D,Xc,black,red,stars,bolts,D,Xc,Xc,red,bolts,1758.8000000715,1.0,0.0,NA,right,1400.6000000238,8.0,1.0,1.0,,,
188,0,,html-keyboard-response,188,479677,0.0-7.8-0.8,dtqi0addvfp,2022-09-19 15:59:03.839,5b15d20c444cef0001cb1153,1,22,46,2,40,37,male,1741.8999999762,,"
  <table>
  <tr height=300>
    <td width=300 height=300><img src=""static/images/cards/stack_of_red_stars.svg"" width=""175px"" height=""250px""></img></td>
    <td width=300 height=300><img src=""static/images/cards/stack_of_black_stars.svg"" width=""175px"" height=""250px""></img></td>
  </tr>
  <tr height=200>
    <td width=300><img src=""static/images/keys/w.svg"" width=""35%"" height=""75%""></img></td>
    <td width=300><img src=""static/images/keys/o.svg"" width=""35%"" height=""75%""></img></td>
  </tr>
</table>
  ",87.0,1.0,,,,,,,,,,,,,,,,,,,,,,,,,,
189,0,,html-keyboard-response,189,481207,0.0-7.8-1.8,dtqi0addvfp,2022-09-19 15:59:03.839,5b15d20c444cef0001cb1153,1,22,46,2,40,37,male,1027.8999999762,,"
  <table>
  <tr height=300>
    <td width=300 height=300><img src=""static/images/cards/back_of_red_stars.svg"" width=""175px"" height=""250px""></img></td>
    <td width=300 height=300><img src=""static/images/cards/back_of_red_stars.svg"" width=""175px"" height=""250px""></img></td>
  </tr>
  <tr height=200>
    <td width=300><img src=""static/images/keys/z.svg"" width=""35%"" height=""75%""></img></td>
    <td width=300><img src=""static/images/keys/m.svg"" width=""35%"" height=""75%""></img></td>
  </tr>
</table>
  ",90.0,1.0,,,,,,,,,,,,,,,,,,,,,,,,,,
190,0,,html-keyboard-response,190,482708,0.0-7.8-2.8,dtqi0addvfp,2022-09-19 15:59:03.839,5b15d20c444cef0001cb1153,1,22,46,2,40,37,male,,,"
  <table>
  <tr height=300>
    <td width=300 height=300><img src=""static/images/cards/2_of_red_stars.svg"" width=""175px"" height=""250px""></img></td>
    <td width=300 height=300><img src=""static/images/cards/back_of_red_stars.svg"" width=""175px"" height=""250px""></img></td>
  </tr>
  <tr height=200>
    <td width=300><img src=""static/images/keys/z.svg"" width=""35%"" height=""75%""></img></td>
    <td width=300><img src=""static/images/keys/m.svg"" width=""35%"" height=""75%""></img></td>
  </tr>
</table>
  ",,,,,,,,,,,,,,,,,,,,,,,,,,,,
191,0,,html-keyboard-response,191,484209,0.0-7.8-3.8,dtqi0addvfp,2022-09-19 15:59:03.839,5b15d20c444cef0001cb1153,1,22,46,2,40,37,male,,,"<p style=""font-size:50px"">You win!
+10 points this round!</p>",,,,,,,,,,,,,,,,,,,,,,,,,,,,
192,0,,html-keyboard-response,192,484714,0.0-7.8-4.8,dtqi0addvfp,2022-09-19 15:59:03.839,5b15d20c444cef0001cb1153,1,22,46,2,40,37,male,,,,,,1.0,choice,8.0,C,D,red,black,stars,stars,C,D,C,red,stars,1741.8999999762,1.0,0.0,NA,left,1027.8999999762,2.0,0.0,1.0,,,
193,0,,html-keyboard-response,193,486764,0.0-7.9-0.9,dtqi0addvfp,2022-09-19 15:59:03.839,5b15d20c444cef0001cb1153,1,22,46,2,40,37,male,2048.7000000477,,"
  <table>
  <tr height=300>
    <td width=300 height=300><img src=""static/images/cards/stack_of_red_stars.svg"" width=""175px"" height=""250px""></img></td>
    <td width=300 height=300><img src=""static/images/cards/stack_of_red_moons.svg"" width=""175px"" height=""250px""></img></td>
  </tr>
  <tr height=200>
    <td width=300><img src=""static/images/keys/w.svg"" width=""35%"" height=""75%""></img></td>
    <td width=300><img src=""static/images/keys/o.svg"" width=""35%"" height=""75%""></img></td>
  </tr>
</table>
  ",79.0,1.0,,,,,,,,,,,,,,,,,,,,,,,,,,
194,0,,html-keyboard-response,194,488659,0.0-7.9-1.9,dtqi0addvfp,2022-09-19 15:59:03.839,5b15d20c444cef0001cb1153,1,22,46,2,40,37,male,1393.6000000238,,"
  <table>
  <tr height=300>
    <td width=300 height=300><img src=""static/images/cards/back_of_red_moons.svg"" width=""175px"" height=""250px""></img></td>
    <td width=300 height=300><img src=""static/images/cards/back_of_red_moons.svg"" width=""175px"" height=""250px""></img></td>
  </tr>
  <tr height=200>
    <td width=300><img src=""static/images/keys/z.svg"" width=""35%"" height=""75%""></img></td>
    <td width=300><img src=""static/images/keys/m.svg"" width=""35%"" height=""75%""></img></td>
  </tr>
</table>
  ",77.0,1.0,,,,,,,,,,,,,,,,,,,,,,,,,,
195,0,,html-keyboard-response,195,490161,0.0-7.9-2.9,dtqi0addvfp,2022-09-19 15:59:03.839,5b15d20c444cef0001cb1153,1,22,46,2,40,37,male,,,"
  <table>
  <tr height=300>
    <td width=300 height=300><img src=""static/images/cards/back_of_red_moons.svg"" width=""175px"" height=""250px""></img></td>
    <td width=300 height=300><img src=""static/images/cards/3_of_red_moons.svg"" width=""175px"" height=""250px""></img></td>
  </tr>
  <tr height=200>
    <td width=300><img src=""static/images/keys/z.svg"" width=""35%"" height=""75%""></img></td>
    <td width=300><img src=""static/images/keys/m.svg"" width=""35%"" height=""75%""></img></td>
  </tr>
</table>
  ",,,,,,,,,,,,,,,,,,,,,,,,,,,,
196,0,,html-keyboard-response,196,491663,0.0-7.9-3.9,dtqi0addvfp,2022-09-19 15:59:03.839,5b15d20c444cef0001cb1153,1,22,46,2,40,37,male,,,"<p style=""font-size:50px"">You Lose!
No points this round.</p>",,,,,,,,,,,,,,,,,,,,,,,,,,,,
197,0,,html-keyboard-response,197,492169,0.0-7.9-4.9,dtqi0addvfp,2022-09-19 15:59:03.839,5b15d20c444cef0001cb1153,1,22,46,2,40,37,male,,,,,,1.0,choice,9.0,A,C,red,red,stars,moons,C,A,A,red,moons,2048.7000000477,1.0,1.0,NA,right,1393.6000000238,3.0,0.0,0.0,,,
198,0,,html-keyboard-response,198,494026,0.0-7.10-0.10,dtqi0addvfp,2022-09-19 15:59:03.839,5b15d20c444cef0001cb1153,1,22,46,2,40,37,male,1856.8999999762,,"
  <table>
  <tr height=300>
    <td width=300 height=300><img src=""static/images/cards/stack_of_red_moons.svg"" width=""175px"" height=""250px""></img></td>
    <td width=300 height=300><img src=""static/images/cards/stack_of_black_moons.svg"" width=""175px"" height=""250px""></img></td>
  </tr>
  <tr height=200>
    <td width=300><img src=""static/images/keys/w.svg"" width=""35%"" height=""75%""></img></td>
    <td width=300><img src=""static/images/keys/o.svg"" width=""35%"" height=""75%""></img></td>
  </tr>
</table>
  ",79.0,1.0,,,,,,,,,,,,,,,,,,,,,,,,,,
199,0,,html-keyboard-response,199,495839,0.0-7.10-1.10,dtqi0addvfp,2022-09-19 15:59:03.839,5b15d20c444cef0001cb1153,1,22,46,2,40,37,male,1310.7999999523,,"
  <table>
  <tr height=300>
    <td width=300 height=300><img src=""static/images/cards/back_of_black_moons.svg"" width=""175px"" height=""250px""></img></td>
    <td width=300 height=300><img src=""static/images/cards/back_of_black_moons.svg"" width=""175px"" height=""250px""></img></td>
  </tr>
  <tr height=200>
    <td width=300><img src=""static/images/keys/z.svg"" width=""35%"" height=""75%""></img></td>
    <td width=300></td>
  </tr>
</table>
  ",90.0,1.0,,,,,,,,,,,,,,,,,,,,,,,,,,
200,0,,html-keyboard-response,200,497340,0.0-7.10-2.10,dtqi0addvfp,2022-09-19 15:59:03.839,5b15d20c444cef0001cb1153,1,22,46,2,40,37,male,,,"
  <table>
  <tr height=300>
    <td width=300 height=300><img src=""static/images/cards/10_of_black_moons.svg"" width=""175px"" height=""250px""></img></td>
    <td width=300 height=300><img src=""static/images/cards/back_of_black_moons.svg"" width=""175px"" height=""250px""></img></td>
  </tr>
  <tr height=200>
    <td width=300><img src=""static/images/keys/z.svg"" width=""35%"" height=""75%""></img></td>
    <td width=300></td>
  </tr>
</table>
  ",,,,,,,,,,,,,,,,,,,,,,,,,,,,
201,0,,html-keyboard-response,201,498841,0.0-7.10-3.10,dtqi0addvfp,2022-09-19 15:59:03.839,5b15d20c444cef0001cb1153,1,22,46,2,40,37,male,,,"<p style=""font-size:50px"">You win!
+10 points this round!</p>",,,,,,,,,,,,,,,,,,,,,,,,,,,,
202,0,,html-keyboard-response,202,499347,0.0-7.10-4.10,dtqi0addvfp,2022-09-19 15:59:03.839,5b15d20c444cef0001cb1153,1,22,46,2,40,37,male,,,,,,1.0,choice,10.0,A,B,red,black,moons,moons,A,B,B,black,moons,1856.8999999762,0.0,1.0,1,left,1310.7999999523,10.0,1.0,1.0,,,
203,0,,html-keyboard-response,203,500854,0.0-7.11-0.11,dtqi0addvfp,2022-09-19 15:59:03.839,5b15d20c444cef0001cb1153,1,22,46,2,40,37,male,1506.7999999523,,"
  <table>
  <tr height=300>
    <td width=300 height=300><img src=""static/images/cards/stack_of_black_moons.svg"" width=""175px"" height=""250px""></img></td>
    <td width=300 height=300><img src=""static/images/cards/stack_of_red_moons.svg"" width=""175px"" height=""250px""></img></td>
  </tr>
  <tr height=200>
    <td width=300><img src=""static/images/keys/w.svg"" width=""35%"" height=""75%""></img></td>
    <td width=300><img src=""static/images/keys/o.svg"" width=""35%"" height=""75%""></img></td>
  </tr>
</table>
  ",87.0,1.0,,,,,,,,,,,,,,,,,,,,,,,,,,
204,0,,html-keyboard-response,204,502399,0.0-7.11-1.11,dtqi0addvfp,2022-09-19 15:59:03.839,5b15d20c444cef0001cb1153,1,22,46,2,40,37,male,1041.2000000477,,"
  <table>
  <tr height=300>
    <td width=300 height=300><img src=""static/images/cards/back_of_black_moons.svg"" width=""175px"" height=""250px""></img></td>
    <td width=300 height=300><img src=""static/images/cards/back_of_black_moons.svg"" width=""175px"" height=""250px""></img></td>
  </tr>
  <tr height=200>
    <td width=300><img src=""static/images/keys/z.svg"" width=""35%"" height=""75%""></img></td>
    <td width=300></td>
  </tr>
</table>
  ",90.0,1.0,,,,,,,,,,,,,,,,,,,,,,,,,,
205,0,,html-keyboard-response,205,503900,0.0-7.11-2.11,dtqi0addvfp,2022-09-19 15:59:03.839,5b15d20c444cef0001cb1153,1,22,46,2,40,37,male,,,"
  <table>
  <tr height=300>
    <td width=300 height=300><img src=""static/images/cards/7_of_black_moons.svg"" width=""175px"" height=""250px""></img></td>
    <td width=300 height=300><img src=""static/images/cards/back_of_black_moons.svg"" width=""175px"" height=""250px""></img></td>
  </tr>
  <tr height=200>
    <td width=300><img src=""static/images/keys/z.svg"" width=""35%"" height=""75%""></img></td>
    <td width=300></td>
  </tr>
</table>
  ",,,,,,,,,,,,,,,,,,,,,,,,,,,,
206,0,,html-keyboard-response,206,505401,0.0-7.11-3.11,dtqi0addvfp,2022-09-19 15:59:03.839,5b15d20c444cef0001cb1153,1,22,46,2,40,37,male,,,"<p style=""font-size:50px"">You win!
+10 points this round!</p>",,,,,,,,,,,,,,,,,,,,,,,,,,,,
207,0,,html-keyboard-response,207,505908,0.0-7.11-4.11,dtqi0addvfp,2022-09-19 15:59:03.839,5b15d20c444cef0001cb1153,1,22,46,2,40,37,male,,,,,,1.0,choice,11.0,A,B,black,red,moons,moons,B,A,B,black,moons,1506.7999999523,0.0,1.0,1,left,1041.2000000477,7.0,1.0,1.0,,,
208,0,,html-keyboard-response,208,507416,0.0-7.12-0.12,dtqi0addvfp,2022-09-19 15:59:03.839,5b15d20c444cef0001cb1153,1,22,46,2,40,37,male,1507.5,,"
  <table>
  <tr height=300>
    <td width=300 height=300><img src=""static/images/cards/stack_of_red_moons.svg"" width=""175px"" height=""250px""></img></td>
    <td width=300 height=300><img src=""static/images/cards/stack_of_black_moons.svg"" width=""175px"" height=""250px""></img></td>
  </tr>
  <tr height=200>
    <td width=300><img src=""static/images/keys/w.svg"" width=""35%"" height=""75%""></img></td>
    <td width=300><img src=""static/images/keys/o.svg"" width=""35%"" height=""75%""></img></td>
  </tr>
</table>
  ",79.0,1.0,,,,,,,,,,,,,,,,,,,,,,,,,,
209,0,,html-keyboard-response,209,508827,0.0-7.12-1.12,dtqi0addvfp,2022-09-19 15:59:03.839,5b15d20c444cef0001cb1153,1,22,46,2,40,37,male,908.2999999523,,"
  <table>
  <tr height=300>
    <td width=300 height=300><img src=""static/images/cards/back_of_black_moons.svg"" width=""175px"" height=""250px""></img></td>
    <td width=300 height=300><img src=""static/images/cards/back_of_black_moons.svg"" width=""175px"" height=""250px""></img></td>
  </tr>
  <tr height=200>
    <td width=300></td>
    <td width=300><img src=""static/images/keys/m.svg"" width=""35%"" height=""75%""></img></td>
  </tr>
</table>
  ",77.0,1.0,,,,,,,,,,,,,,,,,,,,,,,,,,
210,0,,html-keyboard-response,210,510328,0.0-7.12-2.12,dtqi0addvfp,2022-09-19 15:59:03.839,5b15d20c444cef0001cb1153,1,22,46,2,40,37,male,,,"
  <table>
  <tr height=300>
    <td width=300 height=300><img src=""static/images/cards/back_of_black_moons.svg"" width=""175px"" height=""250px""></img></td>
    <td width=300 height=300><img src=""static/images/cards/4_of_black_moons.svg"" width=""175px"" height=""250px""></img></td>
  </tr>
  <tr height=200>
    <td width=300></td>
    <td width=300><img src=""static/images/keys/m.svg"" width=""35%"" height=""75%""></img></td>
  </tr>
</table>
  ",,,,,,,,,,,,,,,,,,,,,,,,,,,,
211,0,,html-keyboard-response,211,511829,0.0-7.12-3.12,dtqi0addvfp,2022-09-19 15:59:03.839,5b15d20c444cef0001cb1153,1,22,46,2,40,37,male,,,"<p style=""font-size:50px"">You Lose!
No points this round.</p>",,,,,,,,,,,,,,,,,,,,,,,,,,,,
212,0,,html-keyboard-response,212,512334,0.0-7.12-4.12,dtqi0addvfp,2022-09-19 15:59:03.839,5b15d20c444cef0001cb1153,1,22,46,2,40,37,male,,,,,,1.0,choice,12.0,A,B,red,black,moons,moons,A,B,B,black,moons,1507.5,0.0,1.0,0,right,908.2999999523,4.0,0.0,0.0,,,
213,0,,html-keyboard-response,213,513751,0.0-7.13-0.13,dtqi0addvfp,2022-09-19 15:59:03.839,5b15d20c444cef0001cb1153,1,22,46,2,40,37,male,1415.6000000238,,"
  <table>
  <tr height=300>
    <td width=300 height=300><img src=""static/images/cards/stack_of_black_stars.svg"" width=""175px"" height=""250px""></img></td>
    <td width=300 height=300><img src=""static/images/cards/stack_of_red_stars.svg"" width=""175px"" height=""250px""></img></td>
  </tr>
  <tr height=200>
    <td width=300><img src=""static/images/keys/w.svg"" width=""35%"" height=""75%""></img></td>
    <td width=300><img src=""static/images/keys/o.svg"" width=""35%"" height=""75%""></img></td>
  </tr>
</table>
  ",79.0,1.0,,,,,,,,,,,,,,,,,,,,,,,,,,
214,0,,html-keyboard-response,214,515401,0.0-7.13-1.13,dtqi0addvfp,2022-09-19 15:59:03.839,5b15d20c444cef0001cb1153,1,22,46,2,40,37,male,1148.3999999762,,"
  <table>
  <tr height=300>
    <td width=300 height=300><img src=""static/images/cards/back_of_red_stars.svg"" width=""175px"" height=""250px""></img></td>
    <td width=300 height=300><img src=""static/images/cards/back_of_red_stars.svg"" width=""175px"" height=""250px""></img></td>
  </tr>
  <tr height=200>
    <td width=300><img src=""static/images/keys/z.svg"" width=""35%"" height=""75%""></img></td>
    <td width=300><img src=""static/images/keys/m.svg"" width=""35%"" height=""75%""></img></td>
  </tr>
</table>
  ",77.0,1.0,,,,,,,,,,,,,,,,,,,,,,,,,,
215,0,,html-keyboard-response,215,516903,0.0-7.13-2.13,dtqi0addvfp,2022-09-19 15:59:03.839,5b15d20c444cef0001cb1153,1,22,46,2,40,37,male,,,"
  <table>
  <tr height=300>
    <td width=300 height=300><img src=""static/images/cards/back_of_red_stars.svg"" width=""175px"" height=""250px""></img></td>
    <td width=300 height=300><img src=""static/images/cards/4_of_red_stars.svg"" width=""175px"" height=""250px""></img></td>
  </tr>
  <tr height=200>
    <td width=300><img src=""static/images/keys/z.svg"" width=""35%"" height=""75%""></img></td>
    <td width=300><img src=""static/images/keys/m.svg"" width=""35%"" height=""75%""></img></td>
  </tr>
</table>
  ",,,,,,,,,,,,,,,,,,,,,,,,,,,,
216,0,,html-keyboard-response,216,518404,0.0-7.13-3.13,dtqi0addvfp,2022-09-19 15:59:03.839,5b15d20c444cef0001cb1153,1,22,46,2,40,37,male,,,"<p style=""font-size:50px"">You win!
+10 points this round!</p>",,,,,,,,,,,,,,,,,,,,,,,,,,,,
217,0,,html-keyboard-response,217,518909,0.0-7.13-4.13,dtqi0addvfp,2022-09-19 15:59:03.839,5b15d20c444cef0001cb1153,1,22,46,2,40,37,male,,,,,,1.0,choice,13.0,C,D,black,red,stars,stars,D,C,C,red,stars,1415.6000000238,1.0,0.0,NA,right,1148.3999999762,4.0,0.0,1.0,,,
218,0,,html-keyboard-response,218,520945,0.0-7.14-0.14,dtqi0addvfp,2022-09-19 15:59:03.839,5b15d20c444cef0001cb1153,1,22,46,2,40,37,male,2035.3999999762,,"
  <table>
  <tr height=300>
    <td width=300 height=300><img src=""static/images/cards/stack_of_black_moons.svg"" width=""175px"" height=""250px""></img></td>
    <td width=300 height=300><img src=""static/images/cards/stack_of_black_stars.svg"" width=""175px"" height=""250px""></img></td>
  </tr>
  <tr height=200>
    <td width=300><img src=""static/images/keys/w.svg"" width=""35%"" height=""75%""></img></td>
    <td width=300><img src=""static/images/keys/o.svg"" width=""35%"" height=""75%""></img></td>
  </tr>
</table>
  ",79.0,1.0,,,,,,,,,,,,,,,,,,,,,,,,,,
219,0,,html-keyboard-response,219,522619,0.0-7.14-1.14,dtqi0addvfp,2022-09-19 15:59:03.839,5b15d20c444cef0001cb1153,1,22,46,2,40,37,male,1172.5,,"
  <table>
  <tr height=300>
    <td width=300 height=300><img src=""static/images/cards/back_of_black_stars.svg"" width=""175px"" height=""250px""></img></td>
    <td width=300 height=300><img src=""static/images/cards/back_of_black_stars.svg"" width=""175px"" height=""250px""></img></td>
  </tr>
  <tr height=200>
    <td width=300><img src=""static/images/keys/z.svg"" width=""35%"" height=""75%""></img></td>
    <td width=300></td>
  </tr>
</table>
  ",90.0,1.0,,,,,,,,,,,,,,,,,,,,,,,,,,
220,0,,html-keyboard-response,220,524121,0.0-7.14-2.14,dtqi0addvfp,2022-09-19 15:59:03.839,5b15d20c444cef0001cb1153,1,22,46,2,40,37,male,,,"
  <table>
  <tr height=300>
    <td width=300 height=300><img src=""static/images/cards/4_of_black_stars.svg"" width=""175px"" height=""250px""></img></td>
    <td width=300 height=300><img src=""static/images/cards/back_of_black_stars.svg"" width=""175px"" height=""250px""></img></td>
  </tr>
  <tr height=200>
    <td width=300><img src=""static/images/keys/z.svg"" width=""35%"" height=""75%""></img></td>
    <td width=300></td>
  </tr>
</table>
  ",,,,,,,,,,,,,,,,,,,,,,,,,,,,
221,0,,html-keyboard-response,221,525622,0.0-7.14-3.14,dtqi0addvfp,2022-09-19 15:59:03.839,5b15d20c444cef0001cb1153,1,22,46,2,40,37,male,,,"<p style=""font-size:50px"">You win!
+10 points this round!</p>",,,,,,,,,,,,,,,,,,,,,,,,,,,,
222,0,,html-keyboard-response,222,526127,0.0-7.14-4.14,dtqi0addvfp,2022-09-19 15:59:03.839,5b15d20c444cef0001cb1153,1,22,46,2,40,37,male,,,,,,1.0,choice,14.0,B,D,black,black,moons,stars,B,D,D,black,stars,2035.3999999762,0.0,0.0,1,left,1172.5,4.0,0.0,1.0,,,
223,0,,html-keyboard-response,223,528019,0.0-7.15-0.15,dtqi0addvfp,2022-09-19 15:59:03.839,5b15d20c444cef0001cb1153,1,22,46,2,40,37,male,1891.0,,"
  <table>
  <tr height=300>
    <td width=300 height=300><img src=""static/images/cards/stack_of_black_moons.svg"" width=""175px"" height=""250px""></img></td>
    <td width=300 height=300><img src=""static/images/cards/stack_of_red_moons.svg"" width=""175px"" height=""250px""></img></td>
  </tr>
  <tr height=200>
    <td width=300><img src=""static/images/keys/w.svg"" width=""35%"" height=""75%""></img></td>
    <td width=300><img src=""static/images/keys/o.svg"" width=""35%"" height=""75%""></img></td>
  </tr>
</table>
  ",79.0,1.0,,,,,,,,,,,,,,,,,,,,,,,,,,
224,0,,html-keyboard-response,224,529705,0.0-7.15-1.15,dtqi0addvfp,2022-09-19 15:59:03.839,5b15d20c444cef0001cb1153,1,22,46,2,40,37,male,1184.8999999762,,"
  <table>
  <tr height=300>
    <td width=300 height=300><img src=""static/images/cards/back_of_red_moons.svg"" width=""175px"" height=""250px""></img></td>
    <td width=300 height=300><img src=""static/images/cards/back_of_red_moons.svg"" width=""175px"" height=""250px""></img></td>
  </tr>
  <tr height=200>
    <td width=300><img src=""static/images/keys/z.svg"" width=""35%"" height=""75%""></img></td>
    <td width=300><img src=""static/images/keys/m.svg"" width=""35%"" height=""75%""></img></td>
  </tr>
</table>
  ",77.0,1.0,,,,,,,,,,,,,,,,,,,,,,,,,,
225,0,,html-keyboard-response,225,531207,0.0-7.15-2.15,dtqi0addvfp,2022-09-19 15:59:03.839,5b15d20c444cef0001cb1153,1,22,46,2,40,37,male,,,"
  <table>
  <tr height=300>
    <td width=300 height=300><img src=""static/images/cards/back_of_red_moons.svg"" width=""175px"" height=""250px""></img></td>
    <td width=300 height=300><img src=""static/images/cards/1_of_red_moons.svg"" width=""175px"" height=""250px""></img></td>
  </tr>
  <tr height=200>
    <td width=300><img src=""static/images/keys/z.svg"" width=""35%"" height=""75%""></img></td>
    <td width=300><img src=""static/images/keys/m.svg"" width=""35%"" height=""75%""></img></td>
  </tr>
</table>
  ",,,,,,,,,,,,,,,,,,,,,,,,,,,,
226,0,,html-keyboard-response,226,532708,0.0-7.15-3.15,dtqi0addvfp,2022-09-19 15:59:03.839,5b15d20c444cef0001cb1153,1,22,46,2,40,37,male,,,"<p style=""font-size:50px"">You Lose!
No points this round.</p>",,,,,,,,,,,,,,,,,,,,,,,,,,,,
227,0,,html-keyboard-response,227,533214,0.0-7.15-4.15,dtqi0addvfp,2022-09-19 15:59:03.839,5b15d20c444cef0001cb1153,1,22,46,2,40,37,male,,,,,,1.0,choice,15.0,A,B,black,red,moons,moons,B,A,A,red,moons,1891.0,1.0,1.0,NA,right,1184.8999999762,1.0,0.0,0.0,,,
228,0,,html-keyboard-response,228,535609,0.0-7.16-0.16,dtqi0addvfp,2022-09-19 15:59:03.839,5b15d20c444cef0001cb1153,1,22,46,2,40,37,male,2394.0999999046,,"
  <table>
  <tr height=300>
    <td width=300 height=300><img src=""static/images/cards/stack_of_red_moons.svg"" width=""175px"" height=""250px""></img></td>
    <td width=300 height=300><img src=""static/images/cards/stack_of_red_stars.svg"" width=""175px"" height=""250px""></img></td>
  </tr>
  <tr height=200>
    <td width=300><img src=""static/images/keys/w.svg"" width=""35%"" height=""75%""></img></td>
    <td width=300><img src=""static/images/keys/o.svg"" width=""35%"" height=""75%""></img></td>
  </tr>
</table>
  ",87.0,1.0,,,,,,,,,,,,,,,,,,,,,,,,,,
229,0,,html-keyboard-response,229,537416,0.0-7.16-1.16,dtqi0addvfp,2022-09-19 15:59:03.839,5b15d20c444cef0001cb1153,1,22,46,2,40,37,male,1305.2999999523,,"
  <table>
  <tr height=300>
    <td width=300 height=300><img src=""static/images/cards/back_of_red_moons.svg"" width=""175px"" height=""250px""></img></td>
    <td width=300 height=300><img src=""static/images/cards/back_of_red_moons.svg"" width=""175px"" height=""250px""></img></td>
  </tr>
  <tr height=200>
    <td width=300><img src=""static/images/keys/z.svg"" width=""35%"" height=""75%""></img></td>
    <td width=300><img src=""static/images/keys/m.svg"" width=""35%"" height=""75%""></img></td>
  </tr>
</table>
  ",90.0,1.0,,,,,,,,,,,,,,,,,,,,,,,,,,
230,0,,html-keyboard-response,230,538917,0.0-7.16-2.16,dtqi0addvfp,2022-09-19 15:59:03.839,5b15d20c444cef0001cb1153,1,22,46,2,40,37,male,,,"
  <table>
  <tr height=300>
    <td width=300 height=300><img src=""static/images/cards/10_of_red_moons.svg"" width=""175px"" height=""250px""></img></td>
    <td width=300 height=300><img src=""static/images/cards/back_of_red_moons.svg"" width=""175px"" height=""250px""></img></td>
  </tr>
  <tr height=200>
    <td width=300><img src=""static/images/keys/z.svg"" width=""35%"" height=""75%""></img></td>
    <td width=300><img src=""static/images/keys/m.svg"" width=""35%"" height=""75%""></img></td>
  </tr>
</table>
  ",,,,,,,,,,,,,,,,,,,,,,,,,,,,
231,0,,html-keyboard-response,231,540418,0.0-7.16-3.16,dtqi0addvfp,2022-09-19 15:59:03.839,5b15d20c444cef0001cb1153,1,22,46,2,40,37,male,,,"<p style=""font-size:50px"">You win!
+10 points this round!</p>",,,,,,,,,,,,,,,,,,,,,,,,,,,,
232,0,,html-keyboard-response,232,540924,0.0-7.16-4.16,dtqi0addvfp,2022-09-19 15:59:03.839,5b15d20c444cef0001cb1153,1,22,46,2,40,37,male,,,,,,1.0,choice,16.0,A,C,red,red,moons,stars,A,C,A,red,moons,2394.0999999046,1.0,1.0,NA,left,1305.2999999523,10.0,1.0,1.0,,,
233,0,,html-keyboard-response,233,544121,0.0-7.17-0.17,dtqi0addvfp,2022-09-19 15:59:03.839,5b15d20c444cef0001cb1153,1,22,46,2,40,37,male,3196.3999999762,,"
  <table>
  <tr height=300>
    <td width=300 height=300><img src=""static/images/cards/stack_of_red_moons.svg"" width=""175px"" height=""250px""></img></td>
