,index,success,trial_type,trial_index,time_elapsed,internal_node_id,subject,date,prol_id,ctbl,sense_of_control_A,sense_of_control_B,sense_of_control_C,sense_of_control_D,age,gender,rt,url,stimulus,key_press,npress,is_data_trial,phase,trial,deck1,deck2,col1,col2,sym1,sym2,deck_l,deck_r,chosen_deck,chosen_col,chosen_sym,deck_rt,choose_choice,mutual_info,hidden_key,chosen_card,card_rt,player_num,win_card,outcome,mock_rating,response,responses
0,0,1.0,fullscreen,0,2817,0.0-0.0,r9acsx5b9tj,2022-09-19 16:21:48.107,5d42486206811e001ada5b4b,3,73,25,86,41,46,male,,,,,,,,,,,,,,,,,,,,,,,,,,,,,,,
1,0,,external-html,1,10234,0.0-1.0,r9acsx5b9tj,2022-09-19 16:21:48.107,5d42486206811e001ada5b4b,3,73,25,86,41,46,male,7356.6000000238,static/js/sub/consent.html,,,,,,,,,,,,,,,,,,,,,,,,,,,,,
2,0,,call-function,2,10235,0.0-2.0,r9acsx5b9tj,2022-09-19 16:21:48.107,5d42486206811e001ada5b4b,3,73,25,86,41,46,male,,,,,,,,,,,,,,,,,,,,,,,,,,,,,,,
3,0,,image-keyboard-response,3,16864,0.0-3.0-0.0,r9acsx5b9tj,2022-09-19 16:21:48.107,5d42486206811e001ada5b4b,3,73,25,86,41,46,male,6627.3999999762,,static/images/instructions_CB_3/Slide1.png,39.0,,,,,,,,,,,,,,,,,,,,,,,,,,,
4,0,,image-keyboard-response,4,28180,0.0-3.1-0.1,r9acsx5b9tj,2022-09-19 16:21:48.107,5d42486206811e001ada5b4b,3,73,25,86,41,46,male,11315.0,,static/images/instructions_CB_3/Slide2.png,39.0,,,,,,,,,,,,,,,,,,,,,,,,,,,
5,0,,image-keyboard-response,5,33478,0.0-3.2-0.2,r9acsx5b9tj,2022-09-19 16:21:48.107,5d42486206811e001ada5b4b,3,73,25,86,41,46,male,5296.5999999642,,static/images/instructions_CB_3/Slide3.png,39.0,,,,,,,,,,,,,,,,,,,,,,,,,,,
6,0,,image-keyboard-response,6,35497,0.0-3.3-0.3,r9acsx5b9tj,2022-09-19 16:21:48.107,5d42486206811e001ada5b4b,3,73,25,86,41,46,male,2018.1999999881,,static/images/instructions_CB_3/Slide4.png,39.0,,,,,,,,,,,,,,,,,,,,,,,,,,,
7,0,,image-keyboard-response,7,40508,0.0-3.4-0.4,r9acsx5b9tj,2022-09-19 16:21:48.107,5d42486206811e001ada5b4b,3,73,25,86,41,46,male,5010.5,,static/images/instructions_CB_3/Slide5.png,39.0,,,,,,,,,,,,,,,,,,,,,,,,,,,
8,0,,image-keyboard-response,8,42595,0.0-3.5-0.5,r9acsx5b9tj,2022-09-19 16:21:48.107,5d42486206811e001ada5b4b,3,73,25,86,41,46,male,2086.2000000477,,static/images/instructions_CB_3/Slide6.png,39.0,,,,,,,,,,,,,,,,,,,,,,,,,,,
9,0,,image-keyboard-response,9,49364,0.0-3.6-0.6,r9acsx5b9tj,2022-09-19 16:21:48.107,5d42486206811e001ada5b4b,3,73,25,86,41,46,male,6767.8000000119,,static/images/instructions_CB_3/Slide7.png,39.0,,,,,,,,,,,,,,,,,,,,,,,,,,,
10,0,,image-keyboard-response,10,62643,0.0-3.7-0.7,r9acsx5b9tj,2022-09-19 16:21:48.107,5d42486206811e001ada5b4b,3,73,25,86,41,46,male,13278.1000000238,,static/images/instructions_CB_3/Slide8.png,39.0,,,,,,,,,,,,,,,,,,,,,,,,,,,
11,0,,image-keyboard-response,11,73105,0.0-3.8-0.8,r9acsx5b9tj,2022-09-19 16:21:48.107,5d42486206811e001ada5b4b,3,73,25,86,41,46,male,10461.1000000238,,static/images/instructions_CB_3/Slide9.png,39.0,,,,,,,,,,,,,,,,,,,,,,,,,,,
12,0,,image-keyboard-response,12,76707,0.0-3.9-0.9,r9acsx5b9tj,2022-09-19 16:21:48.107,5d42486206811e001ada5b4b,3,73,25,86,41,46,male,3601.3999999762,,static/images/instructions_CB_3/Slide10.png,39.0,,,,,,,,,,,,,,,,,,,,,,,,,,,
13,0,,image-keyboard-response,13,78557,0.0-3.10-0.10,r9acsx5b9tj,2022-09-19 16:21:48.107,5d42486206811e001ada5b4b,3,73,25,86,41,46,male,1849.0,,static/images/instructions_CB_3/Slide11.png,39.0,,,,,,,,,,,,,,,,,,,,,,,,,,,
14,0,,image-keyboard-response,14,100670,0.0-3.11-0.11,r9acsx5b9tj,2022-09-19 16:21:48.107,5d42486206811e001ada5b4b,3,73,25,86,41,46,male,22113.1000000238,,static/images/instructions_CB_3/Slide12.png,39.0,,,,,,,,,,,,,,,,,,,,,,,,,,,
15,0,,image-keyboard-response,15,105428,0.0-3.12-0.12,r9acsx5b9tj,2022-09-19 16:21:48.107,5d42486206811e001ada5b4b,3,73,25,86,41,46,male,4756.8000000119,,static/images/instructions_CB_3/Slide13.png,39.0,,,,,,,,,,,,,,,,,,,,,,,,,,,
16,0,,image-keyboard-response,16,106482,0.0-3.13-0.13,r9acsx5b9tj,2022-09-19 16:21:48.107,5d42486206811e001ada5b4b,3,73,25,86,41,46,male,1052.8999999762,,static/images/instructions_CB_3/Slide14.png,39.0,,,,,,,,,,,,,,,,,,,,,,,,,,,
17,0,,image-keyboard-response,17,107119,0.0-3.14-0.14,r9acsx5b9tj,2022-09-19 16:21:48.107,5d42486206811e001ada5b4b,3,73,25,86,41,46,male,636.5999999642,,static/images/instructions_CB_3/Slide15.png,39.0,,,,,,,,,,,,,,,,,,,,,,,,,,,
18,0,,image-keyboard-response,18,113531,0.0-3.15-0.15,r9acsx5b9tj,2022-09-19 16:21:48.107,5d42486206811e001ada5b4b,3,73,25,86,41,46,male,6417.1999999881,,static/images/instructions_CB_3/Slide16.png,39.0,,,,,,,,,,,,,,,,,,,,,,,,,,,
19,0,,image-keyboard-response,19,114820,0.0-3.16-0.16,r9acsx5b9tj,2022-09-19 16:21:48.107,5d42486206811e001ada5b4b,3,73,25,86,41,46,male,1288.5999999642,,static/images/instructions_CB_3/Slide17.png,39.0,,,,,,,,,,,,,,,,,,,,,,,,,,,
20,0,,image-keyboard-response,20,140151,0.0-3.17-0.17,r9acsx5b9tj,2022-09-19 16:21:48.107,5d42486206811e001ada5b4b,3,73,25,86,41,46,male,25330.5,,static/images/instructions_CB_3/Slide18.png,39.0,,,,,,,,,,,,,,,,,,,,,,,,,,,
21,0,,image-keyboard-response,21,143507,0.0-3.18-0.18,r9acsx5b9tj,2022-09-19 16:21:48.107,5d42486206811e001ada5b4b,3,73,25,86,41,46,male,3355.0,,static/images/instructions_CB_3/Slide19.png,39.0,,,,,,,,,,,,,,,,,,,,,,,,,,,
22,0,,html-keyboard-response,22,145013,0.0-4.0-0.0,r9acsx5b9tj,2022-09-19 16:21:48.107,5d42486206811e001ada5b4b,3,73,25,86,41,46,male,,,"<img src=""static/images/cards/stack_of_black_moons.svg"" width=""175px"" height=""250px""></img>",,,,,,,,,,,,,,,,,,,,,,,,,,,,
23,0,,html-keyboard-response,23,146500,0.0-4.0-1.0,r9acsx5b9tj,2022-09-19 16:21:48.107,5d42486206811e001ada5b4b,3,73,25,86,41,46,male,974.5,,"
  <table>
  <tr height=300>
    <td width=300 height=300><img src=""static/images/cards/back_of_black_moons.svg"" width=""175px"" height=""250px""></img></td>
    <td width=300 height=300><img src=""static/images/cards/back_of_black_moons.svg"" width=""175px"" height=""250px""></img></td>
  </tr>
  <tr height=200>
    <td width=300><img src=""static/images/keys/z.svg"" width=""35%"" height=""75%""></img></td>
    <td width=300><img src=""static/images/keys/m.svg"" width=""35%"" height=""75%""></img></td>
  </tr>
</table>
  ",90.0,1.0,,,,,,,,,,,,,,,,,,,,,,,,,,
24,0,,html-keyboard-response,24,148010,0.0-4.0-2.0,r9acsx5b9tj,2022-09-19 16:21:48.107,5d42486206811e001ada5b4b,3,73,25,86,41,46,male,,,"
  <table>
  <tr height=300>
    <td width=300 height=300><img src=""static/images/cards/6_of_black_moons.svg"" width=""175px"" height=""250px""></img></td>
    <td width=300 height=300><img src=""static/images/cards/back_of_black_moons.svg"" width=""175px"" height=""250px""></img></td>
  </tr>
  <tr height=200>
    <td width=300><img src=""static/images/keys/z.svg"" width=""35%"" height=""75%""></img></td>
    <td width=300><img src=""static/images/keys/m.svg"" width=""35%"" height=""75%""></img></td>
  </tr>
</table>
  ",,,,,,,,,,,,,,,,,,,,,,,,,,,,
25,0,,html-keyboard-response,25,149527,0.0-4.0-3.0,r9acsx5b9tj,2022-09-19 16:21:48.107,5d42486206811e001ada5b4b,3,73,25,86,41,46,male,,,"<p style=""font-size:50px"">You win!
+10 points this round!</p>",,,,,,,,,,,,,,,,,,,,,,,,,,,,
26,0,,html-keyboard-response,26,150033,0.0-4.0-4.0,r9acsx5b9tj,2022-09-19 16:21:48.107,5d42486206811e001ada5b4b,3,73,25,86,41,46,male,,,,,,1.0,learning,0.0,A,,black,,moons,,,,A,black,moons,,1.0,1.0,NA,left,974.5,6.0,1.0,1.0,,,
27,0,,html-keyboard-response,27,151548,0.0-4.1-0.1,r9acsx5b9tj,2022-09-19 16:21:48.107,5d42486206811e001ada5b4b,3,73,25,86,41,46,male,,,"<img src=""static/images/cards/stack_of_red_moons.svg"" width=""175px"" height=""250px""></img>",,,,,,,,,,,,,,,,,,,,,,,,,,,,
28,0,,html-keyboard-response,28,152755,0.0-4.1-1.1,r9acsx5b9tj,2022-09-19 16:21:48.107,5d42486206811e001ada5b4b,3,73,25,86,41,46,male,693.7999999523,,"
  <table>
  <tr height=300>
    <td width=300 height=300><img src=""static/images/cards/back_of_red_moons.svg"" width=""175px"" height=""250px""></img></td>
    <td width=300 height=300><img src=""static/images/cards/back_of_red_moons.svg"" width=""175px"" height=""250px""></img></td>
  </tr>
  <tr height=200>
    <td width=300><img src=""static/images/keys/z.svg"" width=""35%"" height=""75%""></img></td>
    <td width=300></td>
  </tr>
</table>
  ",90.0,1.0,,,,,,,,,,,,,,,,,,,,,,,,,,
29,0,,html-keyboard-response,29,154264,0.0-4.1-2.1,r9acsx5b9tj,2022-09-19 16:21:48.107,5d42486206811e001ada5b4b,3,73,25,86,41,46,male,,,"
  <table>
  <tr height=300>
    <td width=300 height=300><img src=""static/images/cards/1_of_red_moons.svg"" width=""175px"" height=""250px""></img></td>
    <td width=300 height=300><img src=""static/images/cards/back_of_red_moons.svg"" width=""175px"" height=""250px""></img></td>
  </tr>
  <tr height=200>
    <td width=300><img src=""static/images/keys/z.svg"" width=""35%"" height=""75%""></img></td>
    <td width=300></td>
  </tr>
</table>
  ",,,,,,,,,,,,,,,,,,,,,,,,,,,,
30,0,,html-keyboard-response,30,155777,0.0-4.1-3.1,r9acsx5b9tj,2022-09-19 16:21:48.107,5d42486206811e001ada5b4b,3,73,25,86,41,46,male,,,"<p style=""font-size:50px"">You Lose!
No points this round.</p>",,,,,,,,,,,,,,,,,,,,,,,,,,,,
31,0,,html-keyboard-response,31,156297,0.0-4.1-4.1,r9acsx5b9tj,2022-09-19 16:21:48.107,5d42486206811e001ada5b4b,3,73,25,86,41,46,male,,,,,,1.0,learning,1.0,B,,red,,moons,,,,B,red,moons,,0.0,1.0,1,left,693.7999999523,1.0,0.0,0.0,,,
32,0,,html-keyboard-response,32,157811,0.0-4.2-0.2,r9acsx5b9tj,2022-09-19 16:21:48.107,5d42486206811e001ada5b4b,3,73,25,86,41,46,male,,,"<img src=""static/images/cards/stack_of_black_stars.svg"" width=""175px"" height=""250px""></img>",,,,,,,,,,,,,,,,,,,,,,,,,,,,
33,0,,html-keyboard-response,33,158871,0.0-4.2-1.2,r9acsx5b9tj,2022-09-19 16:21:48.107,5d42486206811e001ada5b4b,3,73,25,86,41,46,male,544.0999999642,,"
  <table>
  <tr height=300>
    <td width=300 height=300><img src=""static/images/cards/back_of_black_stars.svg"" width=""175px"" height=""250px""></img></td>
    <td width=300 height=300><img src=""static/images/cards/back_of_black_stars.svg"" width=""175px"" height=""250px""></img></td>
  </tr>
  <tr height=200>
    <td width=300><img src=""static/images/keys/z.svg"" width=""35%"" height=""75%""></img></td>
    <td width=300><img src=""static/images/keys/m.svg"" width=""35%"" height=""75%""></img></td>
  </tr>
</table>
  ",90.0,1.0,,,,,,,,,,,,,,,,,,,,,,,,,,
34,0,,html-keyboard-response,34,160376,0.0-4.2-2.2,r9acsx5b9tj,2022-09-19 16:21:48.107,5d42486206811e001ada5b4b,3,73,25,86,41,46,male,,,"
  <table>
  <tr height=300>
    <td width=300 height=300><img src=""static/images/cards/6_of_black_stars.svg"" width=""175px"" height=""250px""></img></td>
    <td width=300 height=300><img src=""static/images/cards/back_of_black_stars.svg"" width=""175px"" height=""250px""></img></td>
  </tr>
  <tr height=200>
    <td width=300><img src=""static/images/keys/z.svg"" width=""35%"" height=""75%""></img></td>
    <td width=300><img src=""static/images/keys/m.svg"" width=""35%"" height=""75%""></img></td>
  </tr>
</table>
  ",,,,,,,,,,,,,,,,,,,,,,,,,,,,
35,0,,html-keyboard-response,35,161893,0.0-4.2-3.2,r9acsx5b9tj,2022-09-19 16:21:48.107,5d42486206811e001ada5b4b,3,73,25,86,41,46,male,,,"<p style=""font-size:50px"">You Lose!
No points this round.</p>",,,,,,,,,,,,,,,,,,,,,,,,,,,,
36,0,,html-keyboard-response,36,162414,0.0-4.2-4.2,r9acsx5b9tj,2022-09-19 16:21:48.107,5d42486206811e001ada5b4b,3,73,25,86,41,46,male,,,,,,1.0,learning,2.0,C,,black,,stars,,,,C,black,stars,,1.0,0.0,NA,left,544.0999999642,6.0,1.0,0.0,,,
37,0,,html-keyboard-response,37,163925,0.0-4.3-0.3,r9acsx5b9tj,2022-09-19 16:21:48.107,5d42486206811e001ada5b4b,3,73,25,86,41,46,male,,,"<img src=""static/images/cards/stack_of_red_stars.svg"" width=""175px"" height=""250px""></img>",,,,,,,,,,,,,,,,,,,,,,,,,,,,
38,0,,html-keyboard-response,38,165210,0.0-4.3-1.3,r9acsx5b9tj,2022-09-19 16:21:48.107,5d42486206811e001ada5b4b,3,73,25,86,41,46,male,782.3999999762,,"
  <table>
  <tr height=300>
    <td width=300 height=300><img src=""static/images/cards/back_of_red_stars.svg"" width=""175px"" height=""250px""></img></td>
    <td width=300 height=300><img src=""static/images/cards/back_of_red_stars.svg"" width=""175px"" height=""250px""></img></td>
  </tr>
  <tr height=200>
    <td width=300><img src=""static/images/keys/z.svg"" width=""35%"" height=""75%""></img></td>
    <td width=300></td>
  </tr>
</table>
  ",90.0,1.0,,,,,,,,,,,,,,,,,,,,,,,,,,
39,0,,html-keyboard-response,39,166718,0.0-4.3-2.3,r9acsx5b9tj,2022-09-19 16:21:48.107,5d42486206811e001ada5b4b,3,73,25,86,41,46,male,,,"
  <table>
  <tr height=300>
    <td width=300 height=300><img src=""static/images/cards/2_of_red_stars.svg"" width=""175px"" height=""250px""></img></td>
    <td width=300 height=300><img src=""static/images/cards/back_of_red_stars.svg"" width=""175px"" height=""250px""></img></td>
  </tr>
  <tr height=200>
    <td width=300><img src=""static/images/keys/z.svg"" width=""35%"" height=""75%""></img></td>
    <td width=300></td>
  </tr>
</table>
  ",,,,,,,,,,,,,,,,,,,,,,,,,,,,
40,0,,html-keyboard-response,40,168241,0.0-4.3-3.3,r9acsx5b9tj,2022-09-19 16:21:48.107,5d42486206811e001ada5b4b,3,73,25,86,41,46,male,,,"<p style=""font-size:50px"">You win!
+10 points this round!</p>",,,,,,,,,,,,,,,,,,,,,,,,,,,,
41,0,,html-keyboard-response,41,168746,0.0-4.3-4.3,r9acsx5b9tj,2022-09-19 16:21:48.107,5d42486206811e001ada5b4b,3,73,25,86,41,46,male,,,,,,1.0,learning,3.0,D,,red,,stars,,,,D,red,stars,,0.0,0.0,1,left,782.3999999762,2.0,0.0,1.0,,,
42,0,,html-keyboard-response,42,170259,0.0-4.4-0.4,r9acsx5b9tj,2022-09-19 16:21:48.107,5d42486206811e001ada5b4b,3,73,25,86,41,46,male,,,"<img src=""static/images/cards/stack_of_red_bolts.svg"" width=""175px"" height=""250px""></img>",,,,,,,,,,,,,,,,,,,,,,,,,,,,
43,0,,html-keyboard-response,43,171277,0.0-4.4-1.4,r9acsx5b9tj,2022-09-19 16:21:48.107,5d42486206811e001ada5b4b,3,73,25,86,41,46,male,502.8000000119,,"
  <table>
  <tr height=300>
    <td width=300 height=300><img src=""static/images/cards/back_of_red_bolts.svg"" width=""175px"" height=""250px""></img></td>
    <td width=300 height=300><img src=""static/images/cards/back_of_red_bolts.svg"" width=""175px"" height=""250px""></img></td>
  </tr>
  <tr height=200>
    <td width=300><img src=""static/images/keys/z.svg"" width=""35%"" height=""75%""></img></td>
    <td width=300><img src=""static/images/keys/m.svg"" width=""35%"" height=""75%""></img></td>
  </tr>
</table>
  ",77.0,1.0,,,,,,,,,,,,,,,,,,,,,,,,,,
44,0,,html-keyboard-response,44,172785,0.0-4.4-2.4,r9acsx5b9tj,2022-09-19 16:21:48.107,5d42486206811e001ada5b4b,3,73,25,86,41,46,male,,,"
  <table>
  <tr height=300>
    <td width=300 height=300><img src=""static/images/cards/back_of_red_bolts.svg"" width=""175px"" height=""250px""></img></td>
    <td width=300 height=300><img src=""static/images/cards/10_of_red_bolts.svg"" width=""175px"" height=""250px""></img></td>
  </tr>
  <tr height=200>
    <td width=300><img src=""static/images/keys/z.svg"" width=""35%"" height=""75%""></img></td>
    <td width=300><img src=""static/images/keys/m.svg"" width=""35%"" height=""75%""></img></td>
  </tr>
</table>
  ",,,,,,,,,,,,,,,,,,,,,,,,,,,,
45,0,,html-keyboard-response,45,174297,0.0-4.4-3.4,r9acsx5b9tj,2022-09-19 16:21:48.107,5d42486206811e001ada5b4b,3,73,25,86,41,46,male,,,"<p style=""font-size:50px"">You win!
+10 points this round!</p>",,,,,,,,,,,,,,,,,,,,,,,,,,,,
46,0,,html-keyboard-response,46,174817,0.0-4.4-4.4,r9acsx5b9tj,2022-09-19 16:21:48.107,5d42486206811e001ada5b4b,3,73,25,86,41,46,male,,,,,,1.0,learning,4.0,Xc,,red,,bolts,,,,Xc,red,bolts,,1.0,0.0,NA,right,502.8000000119,10.0,1.0,1.0,,,
47,0,,html-keyboard-response,47,176329,0.0-4.5-0.5,r9acsx5b9tj,2022-09-19 16:21:48.107,5d42486206811e001ada5b4b,3,73,25,86,41,46,male,,,"<img src=""static/images/cards/stack_of_black_bolts.svg"" width=""175px"" height=""250px""></img>",,,,,,,,,,,,,,,,,,,,,,,,,,,,
48,0,,html-keyboard-response,48,177473,0.0-4.5-1.5,r9acsx5b9tj,2022-09-19 16:21:48.107,5d42486206811e001ada5b4b,3,73,25,86,41,46,male,627.0,,"
  <table>
  <tr height=300>
    <td width=300 height=300><img src=""static/images/cards/back_of_black_bolts.svg"" width=""175px"" height=""250px""></img></td>
    <td width=300 height=300><img src=""static/images/cards/back_of_black_bolts.svg"" width=""175px"" height=""250px""></img></td>
  </tr>
  <tr height=200>
    <td width=300><img src=""static/images/keys/z.svg"" width=""35%"" height=""75%""></img></td>
    <td width=300></td>
  </tr>
</table>
  ",90.0,1.0,,,,,,,,,,,,,,,,,,,,,,,,,,
49,0,,html-keyboard-response,49,178983,0.0-4.5-2.5,r9acsx5b9tj,2022-09-19 16:21:48.107,5d42486206811e001ada5b4b,3,73,25,86,41,46,male,,,"
  <table>
  <tr height=300>
    <td width=300 height=300><img src=""static/images/cards/7_of_black_bolts.svg"" width=""175px"" height=""250px""></img></td>
    <td width=300 height=300><img src=""static/images/cards/back_of_black_bolts.svg"" width=""175px"" height=""250px""></img></td>
  </tr>
  <tr height=200>
    <td width=300><img src=""static/images/keys/z.svg"" width=""35%"" height=""75%""></img></td>
    <td width=300></td>
  </tr>
</table>
  ",,,,,,,,,,,,,,,,,,,,,,,,,,,,
50,0,,html-keyboard-response,50,180514,0.0-4.5-3.5,r9acsx5b9tj,2022-09-19 16:21:48.107,5d42486206811e001ada5b4b,3,73,25,86,41,46,male,,,"<p style=""font-size:50px"">You win!
+10 points this round!</p>",,,,,,,,,,,,,,,,,,,,,,,,,,,,
51,0,,html-keyboard-response,51,181030,0.0-4.5-4.5,r9acsx5b9tj,2022-09-19 16:21:48.107,5d42486206811e001ada5b4b,3,73,25,86,41,46,male,,,,,,1.0,learning,5.0,Xnc,,black,,bolts,,,,Xnc,black,bolts,,0.0,0.0,1,left,627.0,7.0,1.0,1.0,,,
52,0,,html-keyboard-response,52,182535,0.0-4.6-0.6,r9acsx5b9tj,2022-09-19 16:21:48.107,5d42486206811e001ada5b4b,3,73,25,86,41,46,male,,,"<img src=""static/images/cards/stack_of_black_moons.svg"" width=""175px"" height=""250px""></img>",,,,,,,,,,,,,,,,,,,,,,,,,,,,
53,0,,html-keyboard-response,53,183725,0.0-4.6-1.6,r9acsx5b9tj,2022-09-19 16:21:48.107,5d42486206811e001ada5b4b,3,73,25,86,41,46,male,679.6999999881,,"
  <table>
  <tr height=300>
    <td width=300 height=300><img src=""static/images/cards/back_of_black_moons.svg"" width=""175px"" height=""250px""></img></td>
    <td width=300 height=300><img src=""static/images/cards/back_of_black_moons.svg"" width=""175px"" height=""250px""></img></td>
  </tr>
  <tr height=200>
    <td width=300><img src=""static/images/keys/z.svg"" width=""35%"" height=""75%""></img></td>
    <td width=300><img src=""static/images/keys/m.svg"" width=""35%"" height=""75%""></img></td>
  </tr>
</table>
  ",77.0,1.0,,,,,,,,,,,,,,,,,,,,,,,,,,
54,0,,html-keyboard-response,54,185228,0.0-4.6-2.6,r9acsx5b9tj,2022-09-19 16:21:48.107,5d42486206811e001ada5b4b,3,73,25,86,41,46,male,,,"
  <table>
  <tr height=300>
    <td width=300 height=300><img src=""static/images/cards/back_of_black_moons.svg"" width=""175px"" height=""250px""></img></td>
    <td width=300 height=300><img src=""static/images/cards/4_of_black_moons.svg"" width=""175px"" height=""250px""></img></td>
  </tr>
  <tr height=200>
    <td width=300><img src=""static/images/keys/z.svg"" width=""35%"" height=""75%""></img></td>
    <td width=300><img src=""static/images/keys/m.svg"" width=""35%"" height=""75%""></img></td>
  </tr>
</table>
  ",,,,,,,,,,,,,,,,,,,,,,,,,,,,
55,0,,html-keyboard-response,55,186745,0.0-4.6-3.6,r9acsx5b9tj,2022-09-19 16:21:48.107,5d42486206811e001ada5b4b,3,73,25,86,41,46,male,,,"<p style=""font-size:50px"">You Lose!
No points this round.</p>",,,,,,,,,,,,,,,,,,,,,,,,,,,,
56,0,,html-keyboard-response,56,187256,0.0-4.6-4.6,r9acsx5b9tj,2022-09-19 16:21:48.107,5d42486206811e001ada5b4b,3,73,25,86,41,46,male,,,,,,1.0,learning,6.0,A,,black,,moons,,,,A,black,moons,,1.0,1.0,NA,right,679.6999999881,4.0,0.0,0.0,,,
57,0,,html-keyboard-response,57,188771,0.0-4.7-0.7,r9acsx5b9tj,2022-09-19 16:21:48.107,5d42486206811e001ada5b4b,3,73,25,86,41,46,male,,,"<img src=""static/images/cards/stack_of_red_moons.svg"" width=""175px"" height=""250px""></img>",,,,,,,,,,,,,,,,,,,,,,,,,,,,
58,0,,html-keyboard-response,58,189821,0.0-4.7-1.7,r9acsx5b9tj,2022-09-19 16:21:48.107,5d42486206811e001ada5b4b,3,73,25,86,41,46,male,543.0999999642,,"
  <table>
  <tr height=300>
    <td width=300 height=300><img src=""static/images/cards/back_of_red_moons.svg"" width=""175px"" height=""250px""></img></td>
    <td width=300 height=300><img src=""static/images/cards/back_of_red_moons.svg"" width=""175px"" height=""250px""></img></td>
  </tr>
  <tr height=200>
    <td width=300></td>
    <td width=300><img src=""static/images/keys/m.svg"" width=""35%"" height=""75%""></img></td>
  </tr>
</table>
  ",77.0,1.0,,,,,,,,,,,,,,,,,,,,,,,,,,
59,0,,html-keyboard-response,59,191327,0.0-4.7-2.7,r9acsx5b9tj,2022-09-19 16:21:48.107,5d42486206811e001ada5b4b,3,73,25,86,41,46,male,,,"
  <table>
  <tr height=300>
    <td width=300 height=300><img src=""static/images/cards/back_of_red_moons.svg"" width=""175px"" height=""250px""></img></td>
    <td width=300 height=300><img src=""static/images/cards/9_of_red_moons.svg"" width=""175px"" height=""250px""></img></td>
  </tr>
  <tr height=200>
    <td width=300></td>
    <td width=300><img src=""static/images/keys/m.svg"" width=""35%"" height=""75%""></img></td>
  </tr>
</table>
  ",,,,,,,,,,,,,,,,,,,,,,,,,,,,
60,0,,html-keyboard-response,60,192844,0.0-4.7-3.7,r9acsx5b9tj,2022-09-19 16:21:48.107,5d42486206811e001ada5b4b,3,73,25,86,41,46,male,,,"<p style=""font-size:50px"">You win!
+10 points this round!</p>",,,,,,,,,,,,,,,,,,,,,,,,,,,,
61,0,,html-keyboard-response,61,193349,0.0-4.7-4.7,r9acsx5b9tj,2022-09-19 16:21:48.107,5d42486206811e001ada5b4b,3,73,25,86,41,46,male,,,,,,1.0,learning,7.0,B,,red,,moons,,,,B,red,moons,,0.0,1.0,0,right,543.0999999642,9.0,1.0,1.0,,,
62,0,,html-keyboard-response,62,194851,0.0-4.8-0.8,r9acsx5b9tj,2022-09-19 16:21:48.107,5d42486206811e001ada5b4b,3,73,25,86,41,46,male,,,"<img src=""static/images/cards/stack_of_black_stars.svg"" width=""175px"" height=""250px""></img>",,,,,,,,,,,,,,,,,,,,,,,,,,,,
63,0,,html-keyboard-response,63,196062,0.0-4.8-1.8,r9acsx5b9tj,2022-09-19 16:21:48.107,5d42486206811e001ada5b4b,3,73,25,86,41,46,male,701.3000000119,,"
  <table>
  <tr height=300>
    <td width=300 height=300><img src=""static/images/cards/back_of_black_stars.svg"" width=""175px"" height=""250px""></img></td>
    <td width=300 height=300><img src=""static/images/cards/back_of_black_stars.svg"" width=""175px"" height=""250px""></img></td>
  </tr>
  <tr height=200>
    <td width=300><img src=""static/images/keys/z.svg"" width=""35%"" height=""75%""></img></td>
    <td width=300><img src=""static/images/keys/m.svg"" width=""35%"" height=""75%""></img></td>
  </tr>
</table>
  ",77.0,1.0,,,,,,,,,,,,,,,,,,,,,,,,,,
64,0,,html-keyboard-response,64,197578,0.0-4.8-2.8,r9acsx5b9tj,2022-09-19 16:21:48.107,5d42486206811e001ada5b4b,3,73,25,86,41,46,male,,,"
  <table>
  <tr height=300>
    <td width=300 height=300><img src=""static/images/cards/back_of_black_stars.svg"" width=""175px"" height=""250px""></img></td>
    <td width=300 height=300><img src=""static/images/cards/1_of_black_stars.svg"" width=""175px"" height=""250px""></img></td>
  </tr>
  <tr height=200>
    <td width=300><img src=""static/images/keys/z.svg"" width=""35%"" height=""75%""></img></td>
    <td width=300><img src=""static/images/keys/m.svg"" width=""35%"" height=""75%""></img></td>
  </tr>
</table>
  ",,,,,,,,,,,,,,,,,,,,,,,,,,,,
65,0,,html-keyboard-response,65,199093,0.0-4.8-3.8,r9acsx5b9tj,2022-09-19 16:21:48.107,5d42486206811e001ada5b4b,3,73,25,86,41,46,male,,,"<p style=""font-size:50px"">You Lose!
No points this round.</p>",,,,,,,,,,,,,,,,,,,,,,,,,,,,
66,0,,html-keyboard-response,66,199614,0.0-4.8-4.8,r9acsx5b9tj,2022-09-19 16:21:48.107,5d42486206811e001ada5b4b,3,73,25,86,41,46,male,,,,,,1.0,learning,8.0,C,,black,,stars,,,,C,black,stars,,1.0,0.0,NA,right,701.3000000119,1.0,0.0,0.0,,,
67,0,,html-keyboard-response,67,201127,0.0-4.9-0.9,r9acsx5b9tj,2022-09-19 16:21:48.107,5d42486206811e001ada5b4b,3,73,25,86,41,46,male,,,"<img src=""static/images/cards/stack_of_red_stars.svg"" width=""175px"" height=""250px""></img>",,,,,,,,,,,,,,,,,,,,,,,,,,,,
68,0,,html-keyboard-response,68,202260,0.0-4.9-1.9,r9acsx5b9tj,2022-09-19 16:21:48.107,5d42486206811e001ada5b4b,3,73,25,86,41,46,male,616.8999999762,,"
  <table>
  <tr height=300>
    <td width=300 height=300><img src=""static/images/cards/back_of_red_stars.svg"" width=""175px"" height=""250px""></img></td>
    <td width=300 height=300><img src=""static/images/cards/back_of_red_stars.svg"" width=""175px"" height=""250px""></img></td>
  </tr>
  <tr height=200>
    <td width=300></td>
    <td width=300><img src=""static/images/keys/m.svg"" width=""35%"" height=""75%""></img></td>
  </tr>
</table>
  ",77.0,1.0,,,,,,,,,,,,,,,,,,,,,,,,,,
69,0,,html-keyboard-response,69,203774,0.0-4.9-2.9,r9acsx5b9tj,2022-09-19 16:21:48.107,5d42486206811e001ada5b4b,3,73,25,86,41,46,male,,,"
  <table>
  <tr height=300>
    <td width=300 height=300><img src=""static/images/cards/back_of_red_stars.svg"" width=""175px"" height=""250px""></img></td>
    <td width=300 height=300><img src=""static/images/cards/9_of_red_stars.svg"" width=""175px"" height=""250px""></img></td>
  </tr>
  <tr height=200>
    <td width=300></td>
    <td width=300><img src=""static/images/keys/m.svg"" width=""35%"" height=""75%""></img></td>
  </tr>
</table>
  ",,,,,,,,,,,,,,,,,,,,,,,,,,,,
70,0,,html-keyboard-response,70,205280,0.0-4.9-3.9,r9acsx5b9tj,2022-09-19 16:21:48.107,5d42486206811e001ada5b4b,3,73,25,86,41,46,male,,,"<p style=""font-size:50px"">You win!
+10 points this round!</p>",,,,,,,,,,,,,,,,,,,,,,,,,,,,
71,0,,html-keyboard-response,71,205795,0.0-4.9-4.9,r9acsx5b9tj,2022-09-19 16:21:48.107,5d42486206811e001ada5b4b,3,73,25,86,41,46,male,,,,,,1.0,learning,9.0,D,,red,,stars,,,,D,red,stars,,0.0,0.0,0,right,616.8999999762,9.0,1.0,1.0,,,
72,0,,html-keyboard-response,72,207310,0.0-4.10-0.10,r9acsx5b9tj,2022-09-19 16:21:48.107,5d42486206811e001ada5b4b,3,73,25,86,41,46,male,,,"<img src=""static/images/cards/stack_of_red_bolts.svg"" width=""175px"" height=""250px""></img>",,,,,,,,,,,,,,,,,,,,,,,,,,,,
73,0,,html-keyboard-response,73,208465,0.0-4.10-1.10,r9acsx5b9tj,2022-09-19 16:21:48.107,5d42486206811e001ada5b4b,3,73,25,86,41,46,male,639.7999999523,,"
  <table>
  <tr height=300>
    <td width=300 height=300><img src=""static/images/cards/back_of_red_bolts.svg"" width=""175px"" height=""250px""></img></td>
    <td width=300 height=300><img src=""static/images/cards/back_of_red_bolts.svg"" width=""175px"" height=""250px""></img></td>
  </tr>
  <tr height=200>
    <td width=300><img src=""static/images/keys/z.svg"" width=""35%"" height=""75%""></img></td>
    <td width=300><img src=""static/images/keys/m.svg"" width=""35%"" height=""75%""></img></td>
  </tr>
</table>
  ",90.0,1.0,,,,,,,,,,,,,,,,,,,,,,,,,,
74,0,,html-keyboard-response,74,209977,0.0-4.10-2.10,r9acsx5b9tj,2022-09-19 16:21:48.107,5d42486206811e001ada5b4b,3,73,25,86,41,46,male,,,"
  <table>
  <tr height=300>
    <td width=300 height=300><img src=""static/images/cards/3_of_red_bolts.svg"" width=""175px"" height=""250px""></img></td>
    <td width=300 height=300><img src=""static/images/cards/back_of_red_bolts.svg"" width=""175px"" height=""250px""></img></td>
  </tr>
  <tr height=200>
    <td width=300><img src=""static/images/keys/z.svg"" width=""35%"" height=""75%""></img></td>
    <td width=300><img src=""static/images/keys/m.svg"" width=""35%"" height=""75%""></img></td>
  </tr>
</table>
  ",,,,,,,,,,,,,,,,,,,,,,,,,,,,
75,0,,html-keyboard-response,75,211501,0.0-4.10-3.10,r9acsx5b9tj,2022-09-19 16:21:48.107,5d42486206811e001ada5b4b,3,73,25,86,41,46,male,,,"<p style=""font-size:50px"">You win!
+10 points this round!</p>",,,,,,,,,,,,,,,,,,,,,,,,,,,,
76,0,,html-keyboard-response,76,212013,0.0-4.10-4.10,r9acsx5b9tj,2022-09-19 16:21:48.107,5d42486206811e001ada5b4b,3,73,25,86,41,46,male,,,,,,1.0,learning,10.0,Xc,,red,,bolts,,,,Xc,red,bolts,,1.0,0.0,NA,left,639.7999999523,3.0,0.0,1.0,,,
77,0,,html-keyboard-response,77,213515,0.0-4.11-0.11,r9acsx5b9tj,2022-09-19 16:21:48.107,5d42486206811e001ada5b4b,3,73,25,86,41,46,male,,,"<img src=""static/images/cards/stack_of_black_bolts.svg"" width=""175px"" height=""250px""></img>",,,,,,,,,,,,,,,,,,,,,,,,,,,,
78,0,,html-keyboard-response,78,214645,0.0-4.11-1.11,r9acsx5b9tj,2022-09-19 16:21:48.107,5d42486206811e001ada5b4b,3,73,25,86,41,46,male,620.8999999762,,"
  <table>
  <tr height=300>
    <td width=300 height=300><img src=""static/images/cards/back_of_black_bolts.svg"" width=""175px"" height=""250px""></img></td>
    <td width=300 height=300><img src=""static/images/cards/back_of_black_bolts.svg"" width=""175px"" height=""250px""></img></td>
  </tr>
  <tr height=200>
    <td width=300><img src=""static/images/keys/z.svg"" width=""35%"" height=""75%""></img></td>
    <td width=300></td>
  </tr>
</table>
  ",90.0,1.0,,,,,,,,,,,,,,,,,,,,,,,,,,
79,0,,html-keyboard-response,79,216161,0.0-4.11-2.11,r9acsx5b9tj,2022-09-19 16:21:48.107,5d42486206811e001ada5b4b,3,73,25,86,41,46,male,,,"
  <table>
  <tr height=300>
    <td width=300 height=300><img src=""static/images/cards/2_of_black_bolts.svg"" width=""175px"" height=""250px""></img></td>
    <td width=300 height=300><img src=""static/images/cards/back_of_black_bolts.svg"" width=""175px"" height=""250px""></img></td>
  </tr>
  <tr height=200>
    <td width=300><img src=""static/images/keys/z.svg"" width=""35%"" height=""75%""></img></td>
    <td width=300></td>
  </tr>
</table>
  ",,,,,,,,,,,,,,,,,,,,,,,,,,,,
80,0,,html-keyboard-response,80,217674,0.0-4.11-3.11,r9acsx5b9tj,2022-09-19 16:21:48.107,5d42486206811e001ada5b4b,3,73,25,86,41,46,male,,,"<p style=""font-size:50px"">You win!
+10 points this round!</p>",,,,,,,,,,,,,,,,,,,,,,,,,,,,
81,0,,html-keyboard-response,81,218183,0.0-4.11-4.11,r9acsx5b9tj,2022-09-19 16:21:48.107,5d42486206811e001ada5b4b,3,73,25,86,41,46,male,,,,,,1.0,learning,11.0,Xnc,,black,,bolts,,,,Xnc,black,bolts,,0.0,0.0,1,left,620.8999999762,2.0,0.0,1.0,,,
82,0,,html-keyboard-response,82,219688,0.0-4.12-0.12,r9acsx5b9tj,2022-09-19 16:21:48.107,5d42486206811e001ada5b4b,3,73,25,86,41,46,male,,,"<img src=""static/images/cards/stack_of_black_moons.svg"" width=""175px"" height=""250px""></img>",,,,,,,,,,,,,,,,,,,,,,,,,,,,
83,0,,html-keyboard-response,83,221050,0.0-4.12-1.12,r9acsx5b9tj,2022-09-19 16:21:48.107,5d42486206811e001ada5b4b,3,73,25,86,41,46,male,859.0,,"
  <table>
  <tr height=300>
    <td width=300 height=300><img src=""static/images/cards/back_of_black_moons.svg"" width=""175px"" height=""250px""></img></td>
    <td width=300 height=300><img src=""static/images/cards/back_of_black_moons.svg"" width=""175px"" height=""250px""></img></td>
  </tr>
  <tr height=200>
    <td width=300><img src=""static/images/keys/z.svg"" width=""35%"" height=""75%""></img></td>
    <td width=300><img src=""static/images/keys/m.svg"" width=""35%"" height=""75%""></img></td>
  </tr>
</table>
  ",77.0,1.0,,,,,,,,,,,,,,,,,,,,,,,,,,
84,0,,html-keyboard-response,84,222557,0.0-4.12-2.12,r9acsx5b9tj,2022-09-19 16:21:48.107,5d42486206811e001ada5b4b,3,73,25,86,41,46,male,,,"
  <table>
  <tr height=300>
    <td width=300 height=300><img src=""static/images/cards/back_of_black_moons.svg"" width=""175px"" height=""250px""></img></td>
    <td width=300 height=300><img src=""static/images/cards/1_of_black_moons.svg"" width=""175px"" height=""250px""></img></td>
  </tr>
  <tr height=200>
    <td width=300><img src=""static/images/keys/z.svg"" width=""35%"" height=""75%""></img></td>
    <td width=300><img src=""static/images/keys/m.svg"" width=""35%"" height=""75%""></img></td>
  </tr>
</table>
  ",,,,,,,,,,,,,,,,,,,,,,,,,,,,
85,0,,html-keyboard-response,85,224072,0.0-4.12-3.12,r9acsx5b9tj,2022-09-19 16:21:48.107,5d42486206811e001ada5b4b,3,73,25,86,41,46,male,,,"<p style=""font-size:50px"">You Lose!
No points this round.</p>",,,,,,,,,,,,,,,,,,,,,,,,,,,,
86,0,,html-keyboard-response,86,224592,0.0-4.12-4.12,r9acsx5b9tj,2022-09-19 16:21:48.107,5d42486206811e001ada5b4b,3,73,25,86,41,46,male,,,,,,1.0,learning,12.0,A,,black,,moons,,,,A,black,moons,,1.0,1.0,NA,right,859.0,1.0,0.0,0.0,,,
87,0,,html-keyboard-response,87,226096,0.0-4.13-0.13,r9acsx5b9tj,2022-09-19 16:21:48.107,5d42486206811e001ada5b4b,3,73,25,86,41,46,male,,,"<img src=""static/images/cards/stack_of_red_moons.svg"" width=""175px"" height=""250px""></img>",,,,,,,,,,,,,,,,,,,,,,,,,,,,
88,0,,html-keyboard-response,88,227201,0.0-4.13-1.13,r9acsx5b9tj,2022-09-19 16:21:48.107,5d42486206811e001ada5b4b,3,73,25,86,41,46,male,603.6999999881,,"
  <table>
  <tr height=300>
    <td width=300 height=300><img src=""static/images/cards/back_of_red_moons.svg"" width=""175px"" height=""250px""></img></td>
    <td width=300 height=300><img src=""static/images/cards/back_of_red_moons.svg"" width=""175px"" height=""250px""></img></td>
  </tr>
  <tr height=200>
    <td width=300></td>
    <td width=300><img src=""static/images/keys/m.svg"" width=""35%"" height=""75%""></img></td>
  </tr>
</table>
  ",77.0,1.0,,,,,,,,,,,,,,,,,,,,,,,,,,
89,0,,html-keyboard-response,89,228706,0.0-4.13-2.13,r9acsx5b9tj,2022-09-19 16:21:48.107,5d42486206811e001ada5b4b,3,73,25,86,41,46,male,,,"
  <table>
  <tr height=300>
    <td width=300 height=300><img src=""static/images/cards/back_of_red_moons.svg"" width=""175px"" height=""250px""></img></td>
    <td width=300 height=300><img src=""static/images/cards/3_of_red_moons.svg"" width=""175px"" height=""250px""></img></td>
  </tr>
  <tr height=200>
    <td width=300></td>
    <td width=300><img src=""static/images/keys/m.svg"" width=""35%"" height=""75%""></img></td>
  </tr>
</table>
  ",,,,,,,,,,,,,,,,,,,,,,,,,,,,
90,0,,html-keyboard-response,90,230225,0.0-4.13-3.13,r9acsx5b9tj,2022-09-19 16:21:48.107,5d42486206811e001ada5b4b,3,73,25,86,41,46,male,,,"<p style=""font-size:50px"">You Lose!
No points this round.</p>",,,,,,,,,,,,,,,,,,,,,,,,,,,,
91,0,,html-keyboard-response,91,230741,0.0-4.13-4.13,r9acsx5b9tj,2022-09-19 16:21:48.107,5d42486206811e001ada5b4b,3,73,25,86,41,46,male,,,,,,1.0,learning,13.0,B,,red,,moons,,,,B,red,moons,,0.0,1.0,0,right,603.6999999881,3.0,0.0,0.0,,,
92,0,,html-keyboard-response,92,232255,0.0-4.14-0.14,r9acsx5b9tj,2022-09-19 16:21:48.107,5d42486206811e001ada5b4b,3,73,25,86,41,46,male,,,"<img src=""static/images/cards/stack_of_black_stars.svg"" width=""175px"" height=""250px""></img>",,,,,,,,,,,,,,,,,,,,,,,,,,,,
93,0,,html-keyboard-response,93,233137,0.0-4.14-1.14,r9acsx5b9tj,2022-09-19 16:21:48.107,5d42486206811e001ada5b4b,3,73,25,86,41,46,male,375.9000000358,,"
  <table>
  <tr height=300>
    <td width=300 height=300><img src=""static/images/cards/back_of_black_stars.svg"" width=""175px"" height=""250px""></img></td>
    <td width=300 height=300><img src=""static/images/cards/back_of_black_stars.svg"" width=""175px"" height=""250px""></img></td>
  </tr>
  <tr height=200>
    <td width=300><img src=""static/images/keys/z.svg"" width=""35%"" height=""75%""></img></td>
    <td width=300><img src=""static/images/keys/m.svg"" width=""35%"" height=""75%""></img></td>
  </tr>
</table>
  ",90.0,1.0,,,,,,,,,,,,,,,,,,,,,,,,,,
94,0,,html-keyboard-response,94,234653,0.0-4.14-2.14,r9acsx5b9tj,2022-09-19 16:21:48.107,5d42486206811e001ada5b4b,3,73,25,86,41,46,male,,,"
  <table>
  <tr height=300>
    <td width=300 height=300><img src=""static/images/cards/6_of_black_stars.svg"" width=""175px"" height=""250px""></img></td>
    <td width=300 height=300><img src=""static/images/cards/back_of_black_stars.svg"" width=""175px"" height=""250px""></img></td>
  </tr>
  <tr height=200>
    <td width=300><img src=""static/images/keys/z.svg"" width=""35%"" height=""75%""></img></td>
    <td width=300><img src=""static/images/keys/m.svg"" width=""35%"" height=""75%""></img></td>
  </tr>
</table>
  ",,,,,,,,,,,,,,,,,,,,,,,,,,,,
95,0,,html-keyboard-response,95,236155,0.0-4.14-3.14,r9acsx5b9tj,2022-09-19 16:21:48.107,5d42486206811e001ada5b4b,3,73,25,86,41,46,male,,,"<p style=""font-size:50px"">You win!
+10 points this round!</p>",,,,,,,,,,,,,,,,,,,,,,,,,,,,
96,0,,html-keyboard-response,96,236665,0.0-4.14-4.14,r9acsx5b9tj,2022-09-19 16:21:48.107,5d42486206811e001ada5b4b,3,73,25,86,41,46,male,,,,,,1.0,learning,14.0,C,,black,,stars,,,,C,black,stars,,1.0,0.0,NA,left,375.9000000358,6.0,1.0,1.0,,,
97,0,,html-keyboard-response,97,238170,0.0-4.15-0.15,r9acsx5b9tj,2022-09-19 16:21:48.107,5d42486206811e001ada5b4b,3,73,25,86,41,46,male,,,"<img src=""static/images/cards/stack_of_red_stars.svg"" width=""175px"" height=""250px""></img>",,,,,,,,,,,,,,,,,,,,,,,,,,,,
98,0,,html-keyboard-response,98,239304,0.0-4.15-1.15,r9acsx5b9tj,2022-09-19 16:21:48.107,5d42486206811e001ada5b4b,3,73,25,86,41,46,male,617.0,,"
  <table>
  <tr height=300>
    <td width=300 height=300><img src=""static/images/cards/back_of_red_stars.svg"" width=""175px"" height=""250px""></img></td>
    <td width=300 height=300><img src=""static/images/cards/back_of_red_stars.svg"" width=""175px"" height=""250px""></img></td>
  </tr>
  <tr height=200>
    <td width=300><img src=""static/images/keys/z.svg"" width=""35%"" height=""75%""></img></td>
    <td width=300></td>
  </tr>
</table>
  ",90.0,1.0,,,,,,,,,,,,,,,,,,,,,,,,,,
99,0,,html-keyboard-response,99,240806,0.0-4.15-2.15,r9acsx5b9tj,2022-09-19 16:21:48.107,5d42486206811e001ada5b4b,3,73,25,86,41,46,male,,,"
  <table>
  <tr height=300>
    <td width=300 height=300><img src=""static/images/cards/6_of_red_stars.svg"" width=""175px"" height=""250px""></img></td>
    <td width=300 height=300><img src=""static/images/cards/back_of_red_stars.svg"" width=""175px"" height=""250px""></img></td>
  </tr>
  <tr height=200>
    <td width=300><img src=""static/images/keys/z.svg"" width=""35%"" height=""75%""></img></td>
    <td width=300></td>
  </tr>
</table>
  ",,,,,,,,,,,,,,,,,,,,,,,,,,,,
100,0,,html-keyboard-response,100,242334,0.0-4.15-3.15,r9acsx5b9tj,2022-09-19 16:21:48.107,5d42486206811e001ada5b4b,3,73,25,86,41,46,male,,,"<p style=""font-size:50px"">You win!
+10 points this round!</p>",,,,,,,,,,,,,,,,,,,,,,,,,,,,
101,0,,html-keyboard-response,101,242841,0.0-4.15-4.15,r9acsx5b9tj,2022-09-19 16:21:48.107,5d42486206811e001ada5b4b,3,73,25,86,41,46,male,,,,,,1.0,learning,15.0,D,,red,,stars,,,,D,red,stars,,0.0,0.0,1,left,617.0,6.0,1.0,1.0,,,
102,0,,html-keyboard-response,102,244349,0.0-4.16-0.16,r9acsx5b9tj,2022-09-19 16:21:48.107,5d42486206811e001ada5b4b,3,73,25,86,41,46,male,,,"<img src=""static/images/cards/stack_of_red_bolts.svg"" width=""175px"" height=""250px""></img>",,,,,,,,,,,,,,,,,,,,,,,,,,,,
103,0,,html-keyboard-response,103,245359,0.0-4.16-1.16,r9acsx5b9tj,2022-09-19 16:21:48.107,5d42486206811e001ada5b4b,3,73,25,86,41,46,male,505.6999999881,,"
  <table>
  <tr height=300>
    <td width=300 height=300><img src=""static/images/cards/back_of_red_bolts.svg"" width=""175px"" height=""250px""></img></td>
    <td width=300 height=300><img src=""static/images/cards/back_of_red_bolts.svg"" width=""175px"" height=""250px""></img></td>
  </tr>
  <tr height=200>
    <td width=300><img src=""static/images/keys/z.svg"" width=""35%"" height=""75%""></img></td>
    <td width=300><img src=""static/images/keys/m.svg"" width=""35%"" height=""75%""></img></td>
  </tr>
</table>
  ",77.0,1.0,,,,,,,,,,,,,,,,,,,,,,,,,,
104,0,,html-keyboard-response,104,246868,0.0-4.16-2.16,r9acsx5b9tj,2022-09-19 16:21:48.107,5d42486206811e001ada5b4b,3,73,25,86,41,46,male,,,"
  <table>
  <tr height=300>
    <td width=300 height=300><img src=""static/images/cards/back_of_red_bolts.svg"" width=""175px"" height=""250px""></img></td>
    <td width=300 height=300><img src=""static/images/cards/7_of_red_bolts.svg"" width=""175px"" height=""250px""></img></td>
  </tr>
  <tr height=200>
    <td width=300><img src=""static/images/keys/z.svg"" width=""35%"" height=""75%""></img></td>
    <td width=300><img src=""static/images/keys/m.svg"" width=""35%"" height=""75%""></img></td>
  </tr>
</table>
  ",,,,,,,,,,,,,,,,,,,,,,,,,,,,
105,0,,html-keyboard-response,105,248372,0.0-4.16-3.16,r9acsx5b9tj,2022-09-19 16:21:48.107,5d42486206811e001ada5b4b,3,73,25,86,41,46,male,,,"<p style=""font-size:50px"">You win!
+10 points this round!</p>",,,,,,,,,,,,,,,,,,,,,,,,,,,,
106,0,,html-keyboard-response,106,248889,0.0-4.16-4.16,r9acsx5b9tj,2022-09-19 16:21:48.107,5d42486206811e001ada5b4b,3,73,25,86,41,46,male,,,,,,1.0,learning,16.0,Xc,,red,,bolts,,,,Xc,red,bolts,,1.0,0.0,NA,right,505.6999999881,7.0,1.0,1.0,,,
107,0,,html-keyboard-response,107,250405,0.0-4.17-0.17,r9acsx5b9tj,2022-09-19 16:21:48.107,5d42486206811e001ada5b4b,3,73,25,86,41,46,male,,,"<img src=""static/images/cards/stack_of_black_bolts.svg"" width=""175px"" height=""250px""></img>",,,,,,,,,,,,,,,,,,,,,,,,,,,,
108,0,,html-keyboard-response,108,251331,0.0-4.17-1.17,r9acsx5b9tj,2022-09-19 16:21:48.107,5d42486206811e001ada5b4b,3,73,25,86,41,46,male,412.7000000477,,"
  <table>
  <tr height=300>
    <td width=300 height=300><img src=""static/images/cards/back_of_black_bolts.svg"" width=""175px"" height=""250px""></img></td>
    <td width=300 height=300><img src=""static/images/cards/back_of_black_bolts.svg"" width=""175px"" height=""250px""></img></td>
  </tr>
  <tr height=200>
    <td width=300><img src=""static/images/keys/z.svg"" width=""35%"" height=""75%""></img></td>
    <td width=300></td>
  </tr>
</table>
  ",90.0,1.0,,,,,,,,,,,,,,,,,,,,,,,,,,
109,0,,html-keyboard-response,109,252842,0.0-4.17-2.17,r9acsx5b9tj,2022-09-19 16:21:48.107,5d42486206811e001ada5b4b,3,73,25,86,41,46,male,,,"
  <table>
  <tr height=300>
    <td width=300 height=300><img src=""static/images/cards/2_of_black_bolts.svg"" width=""175px"" height=""250px""></img></td>
    <td width=300 height=300><img src=""static/images/cards/back_of_black_bolts.svg"" width=""175px"" height=""250px""></img></td>
  </tr>
  <tr height=200>
    <td width=300><img src=""static/images/keys/z.svg"" width=""35%"" height=""75%""></img></td>
    <td width=300></td>
  </tr>
</table>
  ",,,,,,,,,,,,,,,,,,,,,,,,,,,,
110,0,,html-keyboard-response,110,254351,0.0-4.17-3.17,r9acsx5b9tj,2022-09-19 16:21:48.107,5d42486206811e001ada5b4b,3,73,25,86,41,46,male,,,"<p style=""font-size:50px"">You win!
+10 points this round!</p>",,,,,,,,,,,,,,,,,,,,,,,,,,,,
111,0,,html-keyboard-response,111,254871,0.0-4.17-4.17,r9acsx5b9tj,2022-09-19 16:21:48.107,5d42486206811e001ada5b4b,3,73,25,86,41,46,male,,,,,,1.0,learning,17.0,Xnc,,black,,bolts,,,,Xnc,black,bolts,,0.0,0.0,1,left,412.7000000477,2.0,0.0,1.0,,,
112,0,,html-keyboard-response,112,256386,0.0-4.18-0.18,r9acsx5b9tj,2022-09-19 16:21:48.107,5d42486206811e001ada5b4b,3,73,25,86,41,46,male,,,"<img src=""static/images/cards/stack_of_black_moons.svg"" width=""175px"" height=""250px""></img>",,,,,,,,,,,,,,,,,,,,,,,,,,,,
113,0,,html-keyboard-response,113,257661,0.0-4.18-1.18,r9acsx5b9tj,2022-09-19 16:21:48.107,5d42486206811e001ada5b4b,3,73,25,86,41,46,male,760.3000000119,,"
  <table>
  <tr height=300>
    <td width=300 height=300><img src=""static/images/cards/back_of_black_moons.svg"" width=""175px"" height=""250px""></img></td>
    <td width=300 height=300><img src=""static/images/cards/back_of_black_moons.svg"" width=""175px"" height=""250px""></img></td>
  </tr>
  <tr height=200>
    <td width=300><img src=""static/images/keys/z.svg"" width=""35%"" height=""75%""></img></td>
    <td width=300><img src=""static/images/keys/m.svg"" width=""35%"" height=""75%""></img></td>
  </tr>
</table>
  ",77.0,1.0,,,,,,,,,,,,,,,,,,,,,,,,,,
114,0,,html-keyboard-response,114,259171,0.0-4.18-2.18,r9acsx5b9tj,2022-09-19 16:21:48.107,5d42486206811e001ada5b4b,3,73,25,86,41,46,male,,,"
  <table>
  <tr height=300>
    <td width=300 height=300><img src=""static/images/cards/back_of_black_moons.svg"" width=""175px"" height=""250px""></img></td>
    <td width=300 height=300><img src=""static/images/cards/9_of_black_moons.svg"" width=""175px"" height=""250px""></img></td>
  </tr>
  <tr height=200>
    <td width=300><img src=""static/images/keys/z.svg"" width=""35%"" height=""75%""></img></td>
    <td width=300><img src=""static/images/keys/m.svg"" width=""35%"" height=""75%""></img></td>
  </tr>
</table>
  ",,,,,,,,,,,,,,,,,,,,,,,,,,,,
115,0,,html-keyboard-response,115,260698,0.0-4.18-3.18,r9acsx5b9tj,2022-09-19 16:21:48.107,5d42486206811e001ada5b4b,3,73,25,86,41,46,male,,,"<p style=""font-size:50px"">You win!
+10 points this round!</p>",,,,,,,,,,,,,,,,,,,,,,,,,,,,
116,0,,html-keyboard-response,116,261203,0.0-4.18-4.18,r9acsx5b9tj,2022-09-19 16:21:48.107,5d42486206811e001ada5b4b,3,73,25,86,41,46,male,,,,,,1.0,learning,18.0,A,,black,,moons,,,,A,black,moons,,1.0,1.0,NA,right,760.3000000119,9.0,1.0,1.0,,,
117,0,,html-keyboard-response,117,262706,0.0-4.19-0.19,r9acsx5b9tj,2022-09-19 16:21:48.107,5d42486206811e001ada5b4b,3,73,25,86,41,46,male,,,"<img src=""static/images/cards/stack_of_red_moons.svg"" width=""175px"" height=""250px""></img>",,,,,,,,,,,,,,,,,,,,,,,,,,,,
118,0,,html-keyboard-response,118,263668,0.0-4.19-1.19,r9acsx5b9tj,2022-09-19 16:21:48.107,5d42486206811e001ada5b4b,3,73,25,86,41,46,male,451.6000000238,,"
  <table>
  <tr height=300>
    <td width=300 height=300><img src=""static/images/cards/back_of_red_moons.svg"" width=""175px"" height=""250px""></img></td>
    <td width=300 height=300><img src=""static/images/cards/back_of_red_moons.svg"" width=""175px"" height=""250px""></img></td>
  </tr>
  <tr height=200>
    <td width=300></td>
    <td width=300><img src=""static/images/keys/m.svg"" width=""35%"" height=""75%""></img></td>
  </tr>
</table>
  ",77.0,1.0,,,,,,,,,,,,,,,,,,,,,,,,,,
119,0,,html-keyboard-response,119,265182,0.0-4.19-2.19,r9acsx5b9tj,2022-09-19 16:21:48.107,5d42486206811e001ada5b4b,3,73,25,86,41,46,male,,,"
  <table>
  <tr height=300>
    <td width=300 height=300><img src=""static/images/cards/back_of_red_moons.svg"" width=""175px"" height=""250px""></img></td>
    <td width=300 height=300><img src=""static/images/cards/10_of_red_moons.svg"" width=""175px"" height=""250px""></img></td>
  </tr>
  <tr height=200>
    <td width=300></td>
    <td width=300><img src=""static/images/keys/m.svg"" width=""35%"" height=""75%""></img></td>
  </tr>
</table>
  ",,,,,,,,,,,,,,,,,,,,,,,,,,,,
120,0,,html-keyboard-response,120,266709,0.0-4.19-3.19,r9acsx5b9tj,2022-09-19 16:21:48.107,5d42486206811e001ada5b4b,3,73,25,86,41,46,male,,,"<p style=""font-size:50px"">You win!
+10 points this round!</p>",,,,,,,,,,,,,,,,,,,,,,,,,,,,
121,0,,html-keyboard-response,121,267219,0.0-4.19-4.19,r9acsx5b9tj,2022-09-19 16:21:48.107,5d42486206811e001ada5b4b,3,73,25,86,41,46,male,,,,,,1.0,learning,19.0,B,,red,,moons,,,,B,red,moons,,0.0,1.0,0,right,451.6000000238,10.0,1.0,1.0,,,
122,0,,html-keyboard-response,122,268733,0.0-4.20-0.20,r9acsx5b9tj,2022-09-19 16:21:48.107,5d42486206811e001ada5b4b,3,73,25,86,41,46,male,,,"<img src=""static/images/cards/stack_of_black_stars.svg"" width=""175px"" height=""250px""></img>",,,,,,,,,,,,,,,,,,,,,,,,,,,,
123,0,,html-keyboard-response,123,269684,0.0-4.20-1.20,r9acsx5b9tj,2022-09-19 16:21:48.107,5d42486206811e001ada5b4b,3,73,25,86,41,46,male,434.3999999762,,"
  <table>
  <tr height=300>
    <td width=300 height=300><img src=""static/images/cards/back_of_black_stars.svg"" width=""175px"" height=""250px""></img></td>
    <td width=300 height=300><img src=""static/images/cards/back_of_black_stars.svg"" width=""175px"" height=""250px""></img></td>
  </tr>
  <tr height=200>
    <td width=300><img src=""static/images/keys/z.svg"" width=""35%"" height=""75%""></img></td>
    <td width=300><img src=""static/images/keys/m.svg"" width=""35%"" height=""75%""></img></td>
  </tr>
</table>
  ",90.0,1.0,,,,,,,,,,,,,,,,,,,,,,,,,,
124,0,,html-keyboard-response,124,271199,0.0-4.20-2.20,r9acsx5b9tj,2022-09-19 16:21:48.107,5d42486206811e001ada5b4b,3,73,25,86,41,46,male,,,"
  <table>
  <tr height=300>
    <td width=300 height=300><img src=""static/images/cards/4_of_black_stars.svg"" width=""175px"" height=""250px""></img></td>
    <td width=300 height=300><img src=""static/images/cards/back_of_black_stars.svg"" width=""175px"" height=""250px""></img></td>
  </tr>
  <tr height=200>
    <td width=300><img src=""static/images/keys/z.svg"" width=""35%"" height=""75%""></img></td>
    <td width=300><img src=""static/images/keys/m.svg"" width=""35%"" height=""75%""></img></td>
  </tr>
</table>
  ",,,,,,,,,,,,,,,,,,,,,,,,,,,,
125,0,,html-keyboard-response,125,272730,0.0-4.20-3.20,r9acsx5b9tj,2022-09-19 16:21:48.107,5d42486206811e001ada5b4b,3,73,25,86,41,46,male,,,"<p style=""font-size:50px"">You win!
+10 points this round!</p>",,,,,,,,,,,,,,,,,,,,,,,,,,,,
126,0,,html-keyboard-response,126,273236,0.0-4.20-4.20,r9acsx5b9tj,2022-09-19 16:21:48.107,5d42486206811e001ada5b4b,3,73,25,86,41,46,male,,,,,,1.0,learning,20.0,C,,black,,stars,,,,C,black,stars,,1.0,0.0,NA,left,434.3999999762,4.0,0.0,1.0,,,
127,0,,html-keyboard-response,127,274747,0.0-4.21-0.21,r9acsx5b9tj,2022-09-19 16:21:48.107,5d42486206811e001ada5b4b,3,73,25,86,41,46,male,,,"<img src=""static/images/cards/stack_of_red_stars.svg"" width=""175px"" height=""250px""></img>",,,,,,,,,,,,,,,,,,,,,,,,,,,,
128,0,,html-keyboard-response,128,275805,0.0-4.21-1.21,r9acsx5b9tj,2022-09-19 16:21:48.107,5d42486206811e001ada5b4b,3,73,25,86,41,46,male,556.8000000119,,"
  <table>
  <tr height=300>
    <td width=300 height=300><img src=""static/images/cards/back_of_red_stars.svg"" width=""175px"" height=""250px""></img></td>
    <td width=300 height=300><img src=""static/images/cards/back_of_red_stars.svg"" width=""175px"" height=""250px""></img></td>
  </tr>
  <tr height=200>
    <td width=300><img src=""static/images/keys/z.svg"" width=""35%"" height=""75%""></img></td>
    <td width=300></td>
  </tr>
</table>
  ",90.0,1.0,,,,,,,,,,,,,,,,,,,,,,,,,,
129,0,,html-keyboard-response,129,277322,0.0-4.21-2.21,r9acsx5b9tj,2022-09-19 16:21:48.107,5d42486206811e001ada5b4b,3,73,25,86,41,46,male,,,"
  <table>
  <tr height=300>
    <td width=300 height=300><img src=""static/images/cards/1_of_red_stars.svg"" width=""175px"" height=""250px""></img></td>
    <td width=300 height=300><img src=""static/images/cards/back_of_red_stars.svg"" width=""175px"" height=""250px""></img></td>
  </tr>
  <tr height=200>
    <td width=300><img src=""static/images/keys/z.svg"" width=""35%"" height=""75%""></img></td>
    <td width=300></td>
  </tr>
</table>
  ",,,,,,,,,,,,,,,,,,,,,,,,,,,,
130,0,,html-keyboard-response,130,278830,0.0-4.21-3.21,r9acsx5b9tj,2022-09-19 16:21:48.107,5d42486206811e001ada5b4b,3,73,25,86,41,46,male,,,"<p style=""font-size:50px"">You win!
+10 points this round!</p>",,,,,,,,,,,,,,,,,,,,,,,,,,,,
131,0,,html-keyboard-response,131,279350,0.0-4.21-4.21,r9acsx5b9tj,2022-09-19 16:21:48.107,5d42486206811e001ada5b4b,3,73,25,86,41,46,male,,,,,,1.0,learning,21.0,D,,red,,stars,,,,D,red,stars,,0.0,0.0,1,left,556.8000000119,1.0,0.0,1.0,,,
132,0,,html-keyboard-response,132,280864,0.0-4.22-0.22,r9acsx5b9tj,2022-09-19 16:21:48.107,5d42486206811e001ada5b4b,3,73,25,86,41,46,male,,,"<img src=""static/images/cards/stack_of_red_bolts.svg"" width=""175px"" height=""250px""></img>",,,,,,,,,,,,,,,,,,,,,,,,,,,,
133,0,,html-keyboard-response,133,281808,0.0-4.22-1.22,r9acsx5b9tj,2022-09-19 16:21:48.107,5d42486206811e001ada5b4b,3,73,25,86,41,46,male,430.1999999881,,"
  <table>
  <tr height=300>
    <td width=300 height=300><img src=""static/images/cards/back_of_red_bolts.svg"" width=""175px"" height=""250px""></img></td>
    <td width=300 height=300><img src=""static/images/cards/back_of_red_bolts.svg"" width=""175px"" height=""250px""></img></td>
  </tr>
  <tr height=200>
    <td width=300><img src=""static/images/keys/z.svg"" width=""35%"" height=""75%""></img></td>
    <td width=300><img src=""static/images/keys/m.svg"" width=""35%"" height=""75%""></img></td>
  </tr>
</table>
  ",77.0,1.0,,,,,,,,,,,,,,,,,,,,,,,,,,
134,0,,html-keyboard-response,134,283316,0.0-4.22-2.22,r9acsx5b9tj,2022-09-19 16:21:48.107,5d42486206811e001ada5b4b,3,73,25,86,41,46,male,,,"
  <table>
  <tr height=300>
    <td width=300 height=300><img src=""static/images/cards/back_of_red_bolts.svg"" width=""175px"" height=""250px""></img></td>
    <td width=300 height=300><img src=""static/images/cards/3_of_red_bolts.svg"" width=""175px"" height=""250px""></img></td>
  </tr>
  <tr height=200>
    <td width=300><img src=""static/images/keys/z.svg"" width=""35%"" height=""75%""></img></td>
    <td width=300><img src=""static/images/keys/m.svg"" width=""35%"" height=""75%""></img></td>
  </tr>
</table>
  ",,,,,,,,,,,,,,,,,,,,,,,,,,,,
135,0,,html-keyboard-response,135,284830,0.0-4.22-3.22,r9acsx5b9tj,2022-09-19 16:21:48.107,5d42486206811e001ada5b4b,3,73,25,86,41,46,male,,,"<p style=""font-size:50px"">You win!
+10 points this round!</p>",,,,,,,,,,,,,,,,,,,,,,,,,,,,
136,0,,html-keyboard-response,136,285350,0.0-4.22-4.22,r9acsx5b9tj,2022-09-19 16:21:48.107,5d42486206811e001ada5b4b,3,73,25,86,41,46,male,,,,,,1.0,learning,22.0,Xc,,red,,bolts,,,,Xc,red,bolts,,1.0,0.0,NA,right,430.1999999881,3.0,0.0,1.0,,,
137,0,,html-keyboard-response,137,286854,0.0-4.23-0.23,r9acsx5b9tj,2022-09-19 16:21:48.107,5d42486206811e001ada5b4b,3,73,25,86,41,46,male,,,"<img src=""static/images/cards/stack_of_black_bolts.svg"" width=""175px"" height=""250px""></img>",,,,,,,,,,,,,,,,,,,,,,,,,,,,
138,0,,html-keyboard-response,138,287863,0.0-4.23-1.23,r9acsx5b9tj,2022-09-19 16:21:48.107,5d42486206811e001ada5b4b,3,73,25,86,41,46,male,500.4000000358,,"
  <table>
  <tr height=300>
    <td width=300 height=300><img src=""static/images/cards/back_of_black_bolts.svg"" width=""175px"" height=""250px""></img></td>
    <td width=300 height=300><img src=""static/images/cards/back_of_black_bolts.svg"" width=""175px"" height=""250px""></img></td>
  </tr>
  <tr height=200>
    <td width=300></td>
    <td width=300><img src=""static/images/keys/m.svg"" width=""35%"" height=""75%""></img></td>
  </tr>
</table>
  ",77.0,1.0,,,,,,,,,,,,,,,,,,,,,,,,,,
139,0,,html-keyboard-response,139,289368,0.0-4.23-2.23,r9acsx5b9tj,2022-09-19 16:21:48.107,5d42486206811e001ada5b4b,3,73,25,86,41,46,male,,,"
  <table>
  <tr height=300>
    <td width=300 height=300><img src=""static/images/cards/back_of_black_bolts.svg"" width=""175px"" height=""250px""></img></td>
    <td width=300 height=300><img src=""static/images/cards/9_of_black_bolts.svg"" width=""175px"" height=""250px""></img></td>
  </tr>
  <tr height=200>
    <td width=300></td>
    <td width=300><img src=""static/images/keys/m.svg"" width=""35%"" height=""75%""></img></td>
  </tr>
</table>
  ",,,,,,,,,,,,,,,,,,,,,,,,,,,,
140,0,,html-keyboard-response,140,290889,0.0-4.23-3.23,r9acsx5b9tj,2022-09-19 16:21:48.107,5d42486206811e001ada5b4b,3,73,25,86,41,46,male,,,"<p style=""font-size:50px"">You win!
+10 points this round!</p>",,,,,,,,,,,,,,,,,,,,,,,,,,,,
141,0,,html-keyboard-response,141,291397,0.0-4.23-4.23,r9acsx5b9tj,2022-09-19 16:21:48.107,5d42486206811e001ada5b4b,3,73,25,86,41,46,male,,,,,,1.0,learning,23.0,Xnc,,black,,bolts,,,,Xnc,black,bolts,,0.0,0.0,0,right,500.4000000358,9.0,1.0,1.0,,,
142,0,,call-function,142,291402,0.0-5.0,r9acsx5b9tj,2022-09-19 16:21:48.107,5d42486206811e001ada5b4b,3,73,25,86,41,46,male,,,,,,,,,,,,,,,,,,,,,,,,,,,,,,,
143,0,,image-keyboard-response,143,298665,0.0-6.0-0.0,r9acsx5b9tj,2022-09-19 16:21:48.107,5d42486206811e001ada5b4b,3,73,25,86,41,46,male,7277.5,,static/images/instructions_CB_3/Slide20.png,39.0,,,,,,,,,,,,,,,,,,,,,,,,,,,
144,0,,image-keyboard-response,144,299945,0.0-6.1-0.1,r9acsx5b9tj,2022-09-19 16:21:48.107,5d42486206811e001ada5b4b,3,73,25,86,41,46,male,1278.3999999762,,static/images/instructions_CB_3/Slide21.png,39.0,,,,,,,,,,,,,,,,,,,,,,,,,,,
145,0,,image-keyboard-response,145,305599,0.0-6.2-0.2,r9acsx5b9tj,2022-09-19 16:21:48.107,5d42486206811e001ada5b4b,3,73,25,86,41,46,male,5653.6999999881,,static/images/instructions_CB_3/Slide22.png,39.0,,,,,,,,,,,,,,,,,,,,,,,,,,,
146,0,,image-keyboard-response,146,309714,0.0-6.3-0.3,r9acsx5b9tj,2022-09-19 16:21:48.107,5d42486206811e001ada5b4b,3,73,25,86,41,46,male,4114.6999999881,,static/images/instructions_CB_3/Slide23.png,39.0,,,,,,,,,,,,,,,,,,,,,,,,,,,
147,0,,image-keyboard-response,147,313701,0.0-6.4-0.4,r9acsx5b9tj,2022-09-19 16:21:48.107,5d42486206811e001ada5b4b,3,73,25,86,41,46,male,3985.8999999762,,static/images/instructions_CB_3/Slide24.png,39.0,,,,,,,,,,,,,,,,,,,,,,,,,,,
148,0,,html-keyboard-response,148,315443,0.0-7.0-0.0,r9acsx5b9tj,2022-09-19 16:21:48.107,5d42486206811e001ada5b4b,3,73,25,86,41,46,male,1739.8999999762,,"
  <table>
  <tr height=300>
    <td width=300 height=300><img src=""static/images/cards/stack_of_black_stars.svg"" width=""175px"" height=""250px""></img></td>
    <td width=300 height=300><img src=""static/images/cards/stack_of_red_moons.svg"" width=""175px"" height=""250px""></img></td>
  </tr>
  <tr height=200>
    <td width=300><img src=""static/images/keys/w.svg"" width=""35%"" height=""75%""></img></td>
    <td width=300><img src=""static/images/keys/o.svg"" width=""35%"" height=""75%""></img></td>
  </tr>
</table>
  ",79.0,1.0,,,,,,,,,,,,,,,,,,,,,,,,,,
149,0,,html-keyboard-response,149,318959,0.0-7.0-1.0,r9acsx5b9tj,2022-09-19 16:21:48.107,5d42486206811e001ada5b4b,3,73,25,86,41,46,male,,,"
  <table>
  <tr height=300>
    <td width=300 height=300><img src=""static/images/cards/back_of_red_moons.svg"" width=""175px"" height=""250px""></img></td>
    <td width=300 height=300><img src=""static/images/cards/back_of_red_moons.svg"" width=""175px"" height=""250px""></img></td>
  </tr>
  <tr height=200>
    <td width=300></td>
    <td width=300><img src=""static/images/keys/m.svg"" width=""35%"" height=""75%""></img></td>
  </tr>
</table>
  ",,,,,,,,,,,,,,,,,,,,,,,,,,,,
150,0,,html-keyboard-response,150,318960,0.0-7.0-2.0,r9acsx5b9tj,2022-09-19 16:21:48.107,5d42486206811e001ada5b4b,3,73,25,86,41,46,male,,,,,,,,,,,,,,,,,,,,,,,,,,,,,,,
151,0,,html-keyboard-response,151,320491,0.0-7.0-3.0,r9acsx5b9tj,2022-09-19 16:21:48.107,5d42486206811e001ada5b4b,3,73,25,86,41,46,male,,,"<p style=""font-size:50px"">Too slow!</p>",,,,,,,,,,,,,,,,,,,,,,,,,,,,
152,0,,html-keyboard-response,152,320997,0.0-7.0-4.0,r9acsx5b9tj,2022-09-19 16:21:48.107,5d42486206811e001ada5b4b,3,73,25,86,41,46,male,,,,,,1.0,choice,0.0,B,C,black,red,stars,moons,C,B,B,red,moons,1739.8999999762,0.0,1.0,0,,,9.0,1.0,1.0,,,
153,0,,html-keyboard-response,153,322364,0.0-7.1-0.1,r9acsx5b9tj,2022-09-19 16:21:48.107,5d42486206811e001ada5b4b,3,73,25,86,41,46,male,1366.1999999881,,"
  <table>
  <tr height=300>
    <td width=300 height=300><img src=""static/images/cards/stack_of_red_stars.svg"" width=""175px"" height=""250px""></img></td>
    <td width=300 height=300><img src=""static/images/cards/stack_of_red_moons.svg"" width=""175px"" height=""250px""></img></td>
  </tr>
  <tr height=200>
    <td width=300><img src=""static/images/keys/w.svg"" width=""35%"" height=""75%""></img></td>
    <td width=300><img src=""static/images/keys/o.svg"" width=""35%"" height=""75%""></img></td>
  </tr>
</table>
  ",87.0,1.0,,,,,,,,,,,,,,,,,,,,,,,,,,
154,0,,html-keyboard-response,154,323405,0.0-7.1-1.1,r9acsx5b9tj,2022-09-19 16:21:48.107,5d42486206811e001ada5b4b,3,73,25,86,41,46,male,529.8000000119,,"
  <table>
  <tr height=300>
    <td width=300 height=300><img src=""static/images/cards/back_of_red_stars.svg"" width=""175px"" height=""250px""></img></td>
    <td width=300 height=300><img src=""static/images/cards/back_of_red_stars.svg"" width=""175px"" height=""250px""></img></td>
  </tr>
  <tr height=200>
    <td width=300></td>
    <td width=300><img src=""static/images/keys/m.svg"" width=""35%"" height=""75%""></img></td>
  </tr>
</table>
  ",77.0,1.0,,,,,,,,,,,,,,,,,,,,,,,,,,
155,0,,html-keyboard-response,155,324908,0.0-7.1-2.1,r9acsx5b9tj,2022-09-19 16:21:48.107,5d42486206811e001ada5b4b,3,73,25,86,41,46,male,,,"
  <table>
  <tr height=300>
    <td width=300 height=300><img src=""static/images/cards/back_of_red_stars.svg"" width=""175px"" height=""250px""></img></td>
    <td width=300 height=300><img src=""static/images/cards/1_of_red_stars.svg"" width=""175px"" height=""250px""></img></td>
  </tr>
  <tr height=200>
    <td width=300></td>
    <td width=300><img src=""static/images/keys/m.svg"" width=""35%"" height=""75%""></img></td>
  </tr>
</table>
  ",,,,,,,,,,,,,,,,,,,,,,,,,,,,
156,0,,html-keyboard-response,156,326424,0.0-7.1-3.1,r9acsx5b9tj,2022-09-19 16:21:48.107,5d42486206811e001ada5b4b,3,73,25,86,41,46,male,,,"<p style=""font-size:50px"">You win!
+10 points this round!</p>",,,,,,,,,,,,,,,,,,,,,,,,,,,,
157,0,,html-keyboard-response,157,326944,0.0-7.1-4.1,r9acsx5b9tj,2022-09-19 16:21:48.107,5d42486206811e001ada5b4b,3,73,25,86,41,46,male,,,,,,1.0,choice,1.0,B,D,red,red,stars,moons,D,B,D,red,stars,1366.1999999881,0.0,0.0,0,right,529.8000000119,1.0,0.0,1.0,,,
158,0,,html-keyboard-response,158,327582,0.0-7.2-0.2,r9acsx5b9tj,2022-09-19 16:21:48.107,5d42486206811e001ada5b4b,3,73,25,86,41,46,male,636.3000000119,,"
  <table>
  <tr height=300>
    <td width=300 height=300><img src=""static/images/cards/stack_of_black_stars.svg"" width=""175px"" height=""250px""></img></td>
    <td width=300 height=300><img src=""static/images/cards/stack_of_red_stars.svg"" width=""175px"" height=""250px""></img></td>
  </tr>
  <tr height=200>
    <td width=300><img src=""static/images/keys/w.svg"" width=""35%"" height=""75%""></img></td>
    <td width=300><img src=""static/images/keys/o.svg"" width=""35%"" height=""75%""></img></td>
  </tr>
</table>
  ",87.0,1.0,,,,,,,,,,,,,,,,,,,,,,,,,,
159,0,,html-keyboard-response,159,329380,0.0-7.2-1.2,r9acsx5b9tj,2022-09-19 16:21:48.107,5d42486206811e001ada5b4b,3,73,25,86,41,46,male,1287.4000000358,,"
  <table>
  <tr height=300>
    <td width=300 height=300><img src=""static/images/cards/back_of_black_stars.svg"" width=""175px"" height=""250px""></img></td>
    <td width=300 height=300><img src=""static/images/cards/back_of_black_stars.svg"" width=""175px"" height=""250px""></img></td>
  </tr>
  <tr height=200>
    <td width=300><img src=""static/images/keys/z.svg"" width=""35%"" height=""75%""></img></td>
    <td width=300><img src=""static/images/keys/m.svg"" width=""35%"" height=""75%""></img></td>
  </tr>
</table>
  ",90.0,1.0,,,,,,,,,,,,,,,,,,,,,,,,,,
160,0,,html-keyboard-response,160,330889,0.0-7.2-2.2,r9acsx5b9tj,2022-09-19 16:21:48.107,5d42486206811e001ada5b4b,3,73,25,86,41,46,male,,,"
  <table>
  <tr height=300>
    <td width=300 height=300><img src=""static/images/cards/1_of_black_stars.svg"" width=""175px"" height=""250px""></img></td>
    <td width=300 height=300><img src=""static/images/cards/back_of_black_stars.svg"" width=""175px"" height=""250px""></img></td>
  </tr>
  <tr height=200>
    <td width=300><img src=""static/images/keys/z.svg"" width=""35%"" height=""75%""></img></td>
    <td width=300><img src=""static/images/keys/m.svg"" width=""35%"" height=""75%""></img></td>
  </tr>
</table>
  ",,,,,,,,,,,,,,,,,,,,,,,,,,,,
161,0,,html-keyboard-response,161,332407,0.0-7.2-3.2,r9acsx5b9tj,2022-09-19 16:21:48.107,5d42486206811e001ada5b4b,3,73,25,86,41,46,male,,,"<p style=""font-size:50px"">You Lose!
No points this round.</p>",,,,,,,,,,,,,,,,,,,,,,,,,,,,
162,0,,html-keyboard-response,162,332927,0.0-7.2-4.2,r9acsx5b9tj,2022-09-19 16:21:48.107,5d42486206811e001ada5b4b,3,73,25,86,41,46,male,,,,,,1.0,choice,2.0,C,D,black,red,stars,stars,C,D,C,black,stars,636.3000000119,1.0,0.0,NA,left,1287.4000000358,1.0,0.0,0.0,,,
163,0,,html-keyboard-response,163,333603,0.0-7.3-0.3,r9acsx5b9tj,2022-09-19 16:21:48.107,5d42486206811e001ada5b4b,3,73,25,86,41,46,male,674.5,,"
  <table>
  <tr height=300>
    <td width=300 height=300><img src=""static/images/cards/stack_of_red_stars.svg"" width=""175px"" height=""250px""></img></td>
    <td width=300 height=300><img src=""static/images/cards/stack_of_black_moons.svg"" width=""175px"" height=""250px""></img></td>
  </tr>
  <tr height=200>
    <td width=300><img src=""static/images/keys/w.svg"" width=""35%"" height=""75%""></img></td>
    <td width=300><img src=""static/images/keys/o.svg"" width=""35%"" height=""75%""></img></td>
  </tr>
</table>
  ",79.0,1.0,,,,,,,,,,,,,,,,,,,,,,,,,,
164,0,,html-keyboard-response,164,335127,0.0-7.3-1.3,r9acsx5b9tj,2022-09-19 16:21:48.107,5d42486206811e001ada5b4b,3,73,25,86,41,46,male,1014.3000000119,,"
  <table>
  <tr height=300>
    <td width=300 height=300><img src=""static/images/cards/back_of_black_moons.svg"" width=""175px"" height=""250px""></img></td>
    <td width=300 height=300><img src=""static/images/cards/back_of_black_moons.svg"" width=""175px"" height=""250px""></img></td>
  </tr>
  <tr height=200>
    <td width=300><img src=""static/images/keys/z.svg"" width=""35%"" height=""75%""></img></td>
    <td width=300><img src=""static/images/keys/m.svg"" width=""35%"" height=""75%""></img></td>
  </tr>
</table>
  ",77.0,1.0,,,,,,,,,,,,,,,,,,,,,,,,,,
165,0,,html-keyboard-response,165,336639,0.0-7.3-2.3,r9acsx5b9tj,2022-09-19 16:21:48.107,5d42486206811e001ada5b4b,3,73,25,86,41,46,male,,,"
  <table>
  <tr height=300>
    <td width=300 height=300><img src=""static/images/cards/back_of_black_moons.svg"" width=""175px"" height=""250px""></img></td>
    <td width=300 height=300><img src=""static/images/cards/7_of_black_moons.svg"" width=""175px"" height=""250px""></img></td>
  </tr>
  <tr height=200>
    <td width=300><img src=""static/images/keys/z.svg"" width=""35%"" height=""75%""></img></td>
    <td width=300><img src=""static/images/keys/m.svg"" width=""35%"" height=""75%""></img></td>
  </tr>
</table>
  ",,,,,,,,,,,,,,,,,,,,,,,,,,,,
166,0,,html-keyboard-response,166,338156,0.0-7.3-3.3,r9acsx5b9tj,2022-09-19 16:21:48.107,5d42486206811e001ada5b4b,3,73,25,86,41,46,male,,,"<p style=""font-size:50px"">You win!
+10 points this round!</p>",,,,,,,,,,,,,,,,,,,,,,,,,,,,
167,0,,html-keyboard-response,167,338677,0.0-7.3-4.3,r9acsx5b9tj,2022-09-19 16:21:48.107,5d42486206811e001ada5b4b,3,73,25,86,41,46,male,,,,,,1.0,choice,3.0,A,D,red,black,stars,moons,D,A,A,black,moons,674.5,1.0,1.0,NA,right,1014.3000000119,7.0,1.0,1.0,,,
168,0,,html-keyboard-response,168,340091,0.0-7.4-0.4,r9acsx5b9tj,2022-09-19 16:21:48.107,5d42486206811e001ada5b4b,3,73,25,86,41,46,male,1413.5999999642,,"
  <table>
  <tr height=300>
    <td width=300 height=300><img src=""static/images/cards/stack_of_red_stars.svg"" width=""175px"" height=""250px""></img></td>
    <td width=300 height=300><img src=""static/images/cards/stack_of_red_moons.svg"" width=""175px"" height=""250px""></img></td>
  </tr>
  <tr height=200>
    <td width=300><img src=""static/images/keys/w.svg"" width=""35%"" height=""75%""></img></td>
    <td width=300><img src=""static/images/keys/o.svg"" width=""35%"" height=""75%""></img></td>
  </tr>
</table>
  ",79.0,1.0,,,,,,,,,,,,,,,,,,,,,,,,,,
169,0,,html-keyboard-response,169,341891,0.0-7.4-1.4,r9acsx5b9tj,2022-09-19 16:21:48.107,5d42486206811e001ada5b4b,3,73,25,86,41,46,male,1287.0,,"
  <table>
  <tr height=300>
    <td width=300 height=300><img src=""static/images/cards/back_of_red_moons.svg"" width=""175px"" height=""250px""></img></td>
    <td width=300 height=300><img src=""static/images/cards/back_of_red_moons.svg"" width=""175px"" height=""250px""></img></td>
  </tr>
  <tr height=200>
    <td width=300><img src=""static/images/keys/z.svg"" width=""35%"" height=""75%""></img></td>
    <td width=300></td>
  </tr>
</table>
  ",90.0,1.0,,,,,,,,,,,,,,,,,,,,,,,,,,
170,0,,html-keyboard-response,170,343404,0.0-7.4-2.4,r9acsx5b9tj,2022-09-19 16:21:48.107,5d42486206811e001ada5b4b,3,73,25,86,41,46,male,,,"
  <table>
  <tr height=300>
    <td width=300 height=300><img src=""static/images/cards/3_of_red_moons.svg"" width=""175px"" height=""250px""></img></td>
    <td width=300 height=300><img src=""static/images/cards/back_of_red_moons.svg"" width=""175px"" height=""250px""></img></td>
  </tr>
  <tr height=200>
    <td width=300><img src=""static/images/keys/z.svg"" width=""35%"" height=""75%""></img></td>
    <td width=300></td>
  </tr>
</table>
  ",,,,,,,,,,,,,,,,,,,,,,,,,,,,
171,0,,html-keyboard-response,171,344922,0.0-7.4-3.4,r9acsx5b9tj,2022-09-19 16:21:48.107,5d42486206811e001ada5b4b,3,73,25,86,41,46,male,,,"<p style=""font-size:50px"">You Lose!
No points this round.</p>",,,,,,,,,,,,,,,,,,,,,,,,,,,,
172,0,,html-keyboard-response,172,345442,0.0-7.4-4.4,r9acsx5b9tj,2022-09-19 16:21:48.107,5d42486206811e001ada5b4b,3,73,25,86,41,46,male,,,,,,1.0,choice,4.0,B,D,red,red,stars,moons,D,B,B,red,moons,1413.5999999642,0.0,1.0,1,left,1287.0,3.0,0.0,0.0,,,
173,0,,html-keyboard-response,173,347781,0.0-7.5-0.5,r9acsx5b9tj,2022-09-19 16:21:48.107,5d42486206811e001ada5b4b,3,73,25,86,41,46,male,2338.4000000358,,"
  <table>
  <tr height=300>
    <td width=300 height=300><img src=""static/images/cards/stack_of_black_bolts.svg"" width=""175px"" height=""250px""></img></td>
    <td width=300 height=300><img src=""static/images/cards/stack_of_black_stars.svg"" width=""175px"" height=""250px""></img></td>
  </tr>
  <tr height=200>
    <td width=300><img src=""static/images/keys/w.svg"" width=""35%"" height=""75%""></img></td>
    <td width=300><img src=""static/images/keys/o.svg"" width=""35%"" height=""75%""></img></td>
  </tr>
</table>
  ",87.0,1.0,,,,,,,,,,,,,,,,,,,,,,,,,,
174,0,,html-keyboard-response,174,349252,0.0-7.5-1.5,r9acsx5b9tj,2022-09-19 16:21:48.107,5d42486206811e001ada5b4b,3,73,25,86,41,46,male,964.0,,"
  <table>
  <tr height=300>
    <td width=300 height=300><img src=""static/images/cards/back_of_black_bolts.svg"" width=""175px"" height=""250px""></img></td>
    <td width=300 height=300><img src=""static/images/cards/back_of_black_bolts.svg"" width=""175px"" height=""250px""></img></td>
  </tr>
  <tr height=200>
    <td width=300><img src=""static/images/keys/z.svg"" width=""35%"" height=""75%""></img></td>
    <td width=300></td>
  </tr>
</table>
  ",90.0,1.0,,,,,,,,,,,,,,,,,,,,,,,,,,
175,0,,html-keyboard-response,175,350754,0.0-7.5-2.5,r9acsx5b9tj,2022-09-19 16:21:48.107,5d42486206811e001ada5b4b,3,73,25,86,41,46,male,,,"
  <table>
  <tr height=300>
    <td width=300 height=300><img src=""static/images/cards/9_of_black_bolts.svg"" width=""175px"" height=""250px""></img></td>
    <td width=300 height=300><img src=""static/images/cards/back_of_black_bolts.svg"" width=""175px"" height=""250px""></img></td>
  </tr>
  <tr height=200>
    <td width=300><img src=""static/images/keys/z.svg"" width=""35%"" height=""75%""></img></td>
    <td width=300></td>
  </tr>
</table>
  ",,,,,,,,,,,,,,,,,,,,,,,,,,,,
176,0,,html-keyboard-response,176,352271,0.0-7.5-3.5,r9acsx5b9tj,2022-09-19 16:21:48.107,5d42486206811e001ada5b4b,3,73,25,86,41,46,male,,,"<p style=""font-size:50px"">You win!
+10 points this round!</p>",,,,,,,,,,,,,,,,,,,,,,,,,,,,
177,0,,html-keyboard-response,177,352790,0.0-7.5-4.5,r9acsx5b9tj,2022-09-19 16:21:48.107,5d42486206811e001ada5b4b,3,73,25,86,41,46,male,,,,,,1.0,choice,5.0,C,Xnc,black,black,bolts,stars,Xnc,C,Xnc,black,bolts,2338.4000000358,0.0,0.0,1,left,964.0,9.0,1.0,1.0,,,
178,0,,html-keyboard-response,178,353966,0.0-7.6-0.6,r9acsx5b9tj,2022-09-19 16:21:48.107,5d42486206811e001ada5b4b,3,73,25,86,41,46,male,1175.0,,"
  <table>
  <tr height=300>
    <td width=300 height=300><img src=""static/images/cards/stack_of_black_stars.svg"" width=""175px"" height=""250px""></img></td>
    <td width=300 height=300><img src=""static/images/cards/stack_of_red_moons.svg"" width=""175px"" height=""250px""></img></td>
  </tr>
  <tr height=200>
    <td width=300><img src=""static/images/keys/w.svg"" width=""35%"" height=""75%""></img></td>
    <td width=300><img src=""static/images/keys/o.svg"" width=""35%"" height=""75%""></img></td>
  </tr>
</table>
  ",87.0,1.0,,,,,,,,,,,,,,,,,,,,,,,,,,
179,0,,html-keyboard-response,179,355621,0.0-7.6-1.6,r9acsx5b9tj,2022-09-19 16:21:48.107,5d42486206811e001ada5b4b,3,73,25,86,41,46,male,1148.1000000238,,"
  <table>
  <tr height=300>
    <td width=300 height=300><img src=""static/images/cards/back_of_black_stars.svg"" width=""175px"" height=""250px""></img></td>
    <td width=300 height=300><img src=""static/images/cards/back_of_black_stars.svg"" width=""175px"" height=""250px""></img></td>
  </tr>
  <tr height=200>
    <td width=300><img src=""static/images/keys/z.svg"" width=""35%"" height=""75%""></img></td>
    <td width=300><img src=""static/images/keys/m.svg"" width=""35%"" height=""75%""></img></td>
  </tr>
</table>
  ",90.0,1.0,,,,,,,,,,,,,,,,,,,,,,,,,,
180,0,,html-keyboard-response,180,357135,0.0-7.6-2.6,r9acsx5b9tj,2022-09-19 16:21:48.107,5d42486206811e001ada5b4b,3,73,25,86,41,46,male,,,"
  <table>
  <tr height=300>
    <td width=300 height=300><img src=""static/images/cards/3_of_black_stars.svg"" width=""175px"" height=""250px""></img></td>
    <td width=300 height=300><img src=""static/images/cards/back_of_black_stars.svg"" width=""175px"" height=""250px""></img></td>
  </tr>
  <tr height=200>
    <td width=300><img src=""static/images/keys/z.svg"" width=""35%"" height=""75%""></img></td>
    <td width=300><img src=""static/images/keys/m.svg"" width=""35%"" height=""75%""></img></td>
  </tr>
</table>
  ",,,,,,,,,,,,,,,,,,,,,,,,,,,,
181,0,,html-keyboard-response,181,358653,0.0-7.6-3.6,r9acsx5b9tj,2022-09-19 16:21:48.107,5d42486206811e001ada5b4b,3,73,25,86,41,46,male,,,"<p style=""font-size:50px"">You Lose!
No points this round.</p>",,,,,,,,,,,,,,,,,,,,,,,,,,,,
182,0,,html-keyboard-response,182,359187,0.0-7.6-4.6,r9acsx5b9tj,2022-09-19 16:21:48.107,5d42486206811e001ada5b4b,3,73,25,86,41,46,male,,,,,,1.0,choice,6.0,B,C,black,red,stars,moons,C,B,C,black,stars,1175.0,1.0,0.0,NA,left,1148.1000000238,3.0,0.0,0.0,,,
183,0,,html-keyboard-response,183,360336,0.0-7.7-0.7,r9acsx5b9tj,2022-09-19 16:21:48.107,5d42486206811e001ada5b4b,3,73,25,86,41,46,male,1147.6999999881,,"
  <table>
  <tr height=300>
    <td width=300 height=300><img src=""static/images/cards/stack_of_red_bolts.svg"" width=""175px"" height=""250px""></img></td>
    <td width=300 height=300><img src=""static/images/cards/stack_of_red_moons.svg"" width=""175px"" height=""250px""></img></td>
  </tr>
  <tr height=200>
    <td width=300><img src=""static/images/keys/w.svg"" width=""35%"" height=""75%""></img></td>
    <td width=300><img src=""static/images/keys/o.svg"" width=""35%"" height=""75%""></img></td>
  </tr>
</table>
  ",87.0,1.0,,,,,,,,,,,,,,,,,,,,,,,,,,
184,0,,html-keyboard-response,184,362015,0.0-7.7-1.7,r9acsx5b9tj,2022-09-19 16:21:48.107,5d42486206811e001ada5b4b,3,73,25,86,41,46,male,1177.8000000119,,"
  <table>
  <tr height=300>
    <td width=300 height=300><img src=""static/images/cards/back_of_red_bolts.svg"" width=""175px"" height=""250px""></img></td>
    <td width=300 height=300><img src=""static/images/cards/back_of_red_bolts.svg"" width=""175px"" height=""250px""></img></td>
  </tr>
  <tr height=200>
    <td width=300><img src=""static/images/keys/z.svg"" width=""35%"" height=""75%""></img></td>
    <td width=300><img src=""static/images/keys/m.svg"" width=""35%"" height=""75%""></img></td>
  </tr>
</table>
  ",77.0,1.0,,,,,,,,,,,,,,,,,,,,,,,,,,
185,0,,html-keyboard-response,185,363517,0.0-7.7-2.7,r9acsx5b9tj,2022-09-19 16:21:48.107,5d42486206811e001ada5b4b,3,73,25,86,41,46,male,,,"
  <table>
  <tr height=300>
    <td width=300 height=300><img src=""static/images/cards/back_of_red_bolts.svg"" width=""175px"" height=""250px""></img></td>
    <td width=300 height=300><img src=""static/images/cards/1_of_red_bolts.svg"" width=""175px"" height=""250px""></img></td>
  </tr>
  <tr height=200>
    <td width=300><img src=""static/images/keys/z.svg"" width=""35%"" height=""75%""></img></td>
    <td width=300><img src=""static/images/keys/m.svg"" width=""35%"" height=""75%""></img></td>
  </tr>
</table>
  ",,,,,,,,,,,,,,,,,,,,,,,,,,,,
186,0,,html-keyboard-response,186,365049,0.0-7.7-3.7,r9acsx5b9tj,2022-09-19 16:21:48.107,5d42486206811e001ada5b4b,3,73,25,86,41,46,male,,,"<p style=""font-size:50px"">You win!
+10 points this round!</p>",,,,,,,,,,,,,,,,,,,,,,,,,,,,
187,0,,html-keyboard-response,187,365561,0.0-7.7-4.7,r9acsx5b9tj,2022-09-19 16:21:48.107,5d42486206811e001ada5b4b,3,73,25,86,41,46,male,,,,,,1.0,choice,7.0,B,Xc,red,red,bolts,moons,Xc,B,Xc,red,bolts,1147.6999999881,1.0,0.0,NA,right,1177.8000000119,1.0,0.0,1.0,,,
188,0,,html-keyboard-response,188,366546,0.0-7.8-0.8,r9acsx5b9tj,2022-09-19 16:21:48.107,5d42486206811e001ada5b4b,3,73,25,86,41,46,male,983.5,,"
  <table>
  <tr height=300>
    <td width=300 height=300><img src=""static/images/cards/stack_of_red_moons.svg"" width=""175px"" height=""250px""></img></td>
    <td width=300 height=300><img src=""static/images/cards/stack_of_black_moons.svg"" width=""175px"" height=""250px""></img></td>
  </tr>
  <tr height=200>
    <td width=300><img src=""static/images/keys/w.svg"" width=""35%"" height=""75%""></img></td>
    <td width=300><img src=""static/images/keys/o.svg"" width=""35%"" height=""75%""></img></td>
  </tr>
</table>
  ",87.0,1.0,,,,,,,,,,,,,,,,,,,,,,,,,,
189,0,,html-keyboard-response,189,367775,0.0-7.8-1.8,r9acsx5b9tj,2022-09-19 16:21:48.107,5d42486206811e001ada5b4b,3,73,25,86,41,46,male,720.3000000119,,"
  <table>
  <tr height=300>
    <td width=300 height=300><img src=""static/images/cards/back_of_red_moons.svg"" width=""175px"" height=""250px""></img></td>
    <td width=300 height=300><img src=""static/images/cards/back_of_red_moons.svg"" width=""175px"" height=""250px""></img></td>
  </tr>
  <tr height=200>
    <td width=300></td>
    <td width=300><img src=""static/images/keys/m.svg"" width=""35%"" height=""75%""></img></td>
  </tr>
</table>
  ",77.0,1.0,,,,,,,,,,,,,,,,,,,,,,,,,,
190,0,,html-keyboard-response,190,369280,0.0-7.8-2.8,r9acsx5b9tj,2022-09-19 16:21:48.107,5d42486206811e001ada5b4b,3,73,25,86,41,46,male,,,"
  <table>
  <tr height=300>
    <td width=300 height=300><img src=""static/images/cards/back_of_red_moons.svg"" width=""175px"" height=""250px""></img></td>
    <td width=300 height=300><img src=""static/images/cards/4_of_red_moons.svg"" width=""175px"" height=""250px""></img></td>
  </tr>
  <tr height=200>
    <td width=300></td>
    <td width=300><img src=""static/images/keys/m.svg"" width=""35%"" height=""75%""></img></td>
  </tr>
</table>
  ",,,,,,,,,,,,,,,,,,,,,,,,,,,,
191,0,,html-keyboard-response,191,370798,0.0-7.8-3.8,r9acsx5b9tj,2022-09-19 16:21:48.107,5d42486206811e001ada5b4b,3,73,25,86,41,46,male,,,"<p style=""font-size:50px"">You Lose!
No points this round.</p>",,,,,,,,,,,,,,,,,,,,,,,,,,,,
192,0,,html-keyboard-response,192,371319,0.0-7.8-4.8,r9acsx5b9tj,2022-09-19 16:21:48.107,5d42486206811e001ada5b4b,3,73,25,86,41,46,male,,,,,,1.0,choice,8.0,A,B,red,black,moons,moons,B,A,B,red,moons,983.5,0.0,1.0,0,right,720.3000000119,4.0,0.0,0.0,,,
193,0,,html-keyboard-response,193,373079,0.0-7.9-0.9,r9acsx5b9tj,2022-09-19 16:21:48.107,5d42486206811e001ada5b4b,3,73,25,86,41,46,male,1759.3999999762,,"
  <table>
  <tr height=300>
    <td width=300 height=300><img src=""static/images/cards/stack_of_red_bolts.svg"" width=""175px"" height=""250px""></img></td>
    <td width=300 height=300><img src=""static/images/cards/stack_of_black_moons.svg"" width=""175px"" height=""250px""></img></td>
  </tr>
  <tr height=200>
    <td width=300><img src=""static/images/keys/w.svg"" width=""35%"" height=""75%""></img></td>
    <td width=300><img src=""static/images/keys/o.svg"" width=""35%"" height=""75%""></img></td>
  </tr>
</table>
  ",79.0,1.0,,,,,,,,,,,,,,,,,,,,,,,,,,
194,0,,html-keyboard-response,194,374569,0.0-7.9-1.9,r9acsx5b9tj,2022-09-19 16:21:48.107,5d42486206811e001ada5b4b,3,73,25,86,41,46,male,986.1999999881,,"
  <table>
  <tr height=300>
    <td width=300 height=300><img src=""static/images/cards/back_of_black_moons.svg"" width=""175px"" height=""250px""></img></td>
    <td width=300 height=300><img src=""static/images/cards/back_of_black_moons.svg"" width=""175px"" height=""250px""></img></td>
  </tr>
  <tr height=200>
    <td width=300><img src=""static/images/keys/z.svg"" width=""35%"" height=""75%""></img></td>
    <td width=300><img src=""static/images/keys/m.svg"" width=""35%"" height=""75%""></img></td>
  </tr>
</table>
  ",90.0,1.0,,,,,,,,,,,,,,,,,,,,,,,,,,
195,0,,html-keyboard-response,195,376081,0.0-7.9-2.9,r9acsx5b9tj,2022-09-19 16:21:48.107,5d42486206811e001ada5b4b,3,73,25,86,41,46,male,,,"
  <table>
  <tr height=300>
    <td width=300 height=300><img src=""static/images/cards/3_of_black_moons.svg"" width=""175px"" height=""250px""></img></td>
    <td width=300 height=300><img src=""static/images/cards/back_of_black_moons.svg"" width=""175px"" height=""250px""></img></td>
  </tr>
  <tr height=200>
    <td width=300><img src=""static/images/keys/z.svg"" width=""35%"" height=""75%""></img></td>
    <td width=300><img src=""static/images/keys/m.svg"" width=""35%"" height=""75%""></img></td>
  </tr>
</table>
  ",,,,,,,,,,,,,,,,,,,,,,,,,,,,
196,0,,html-keyboard-response,196,377598,0.0-7.9-3.9,r9acsx5b9tj,2022-09-19 16:21:48.107,5d42486206811e001ada5b4b,3,73,25,86,41,46,male,,,"<p style=""font-size:50px"">You Lose!
No points this round.</p>",,,,,,,,,,,,,,,,,,,,,,,,,,,,
197,0,,html-keyboard-response,197,378118,0.0-7.9-4.9,r9acsx5b9tj,2022-09-19 16:21:48.107,5d42486206811e001ada5b4b,3,73,25,86,41,46,male,,,,,,1.0,choice,9.0,A,Xc,red,black,bolts,moons,Xc,A,A,black,moons,1759.3999999762,1.0,1.0,NA,left,986.1999999881,3.0,0.0,0.0,,,
198,0,,html-keyboard-response,198,379155,0.0-7.10-0.10,r9acsx5b9tj,2022-09-19 16:21:48.107,5d42486206811e001ada5b4b,3,73,25,86,41,46,male,1036.4000000358,,"
  <table>
  <tr height=300>
    <td width=300 height=300><img src=""static/images/cards/stack_of_red_moons.svg"" width=""175px"" height=""250px""></img></td>
    <td width=300 height=300><img src=""static/images/cards/stack_of_black_stars.svg"" width=""175px"" height=""250px""></img></td>
  </tr>
  <tr height=200>
    <td width=300><img src=""static/images/keys/w.svg"" width=""35%"" height=""75%""></img></td>
    <td width=300><img src=""static/images/keys/o.svg"" width=""35%"" height=""75%""></img></td>
  </tr>
</table>
  ",87.0,1.0,,,,,,,,,,,,,,,,,,,,,,,,,,
199,0,,html-keyboard-response,199,380782,0.0-7.10-1.10,r9acsx5b9tj,2022-09-19 16:21:48.107,5d42486206811e001ada5b4b,3,73,25,86,41,46,male,1117.7000000477,,"
  <table>
  <tr height=300>
    <td width=300 height=300><img src=""static/images/cards/back_of_red_moons.svg"" width=""175px"" height=""250px""></img></td>
    <td width=300 height=300><img src=""static/images/cards/back_of_red_moons.svg"" width=""175px"" height=""250px""></img></td>
  </tr>
  <tr height=200>
    <td width=300></td>
    <td width=300><img src=""static/images/keys/m.svg"" width=""35%"" height=""75%""></img></td>
  </tr>
</table>
  ",77.0,1.0,,,,,,,,,,,,,,,,,,,,,,,,,,
200,0,,html-keyboard-response,200,382296,0.0-7.10-2.10,r9acsx5b9tj,2022-09-19 16:21:48.107,5d42486206811e001ada5b4b,3,73,25,86,41,46,male,,,"
  <table>
  <tr height=300>
    <td width=300 height=300><img src=""static/images/cards/back_of_red_moons.svg"" width=""175px"" height=""250px""></img></td>
    <td width=300 height=300><img src=""static/images/cards/2_of_red_moons.svg"" width=""175px"" height=""250px""></img></td>
  </tr>
  <tr height=200>
    <td width=300></td>
    <td width=300><img src=""static/images/keys/m.svg"" width=""35%"" height=""75%""></img></td>
  </tr>
</table>
  ",,,,,,,,,,,,,,,,,,,,,,,,,,,,
201,0,,html-keyboard-response,201,383803,0.0-7.10-3.10,r9acsx5b9tj,2022-09-19 16:21:48.107,5d42486206811e001ada5b4b,3,73,25,86,41,46,male,,,"<p style=""font-size:50px"">You Lose!
No points this round.</p>",,,,,,,,,,,,,,,,,,,,,,,,,,,,
202,0,,html-keyboard-response,202,384317,0.0-7.10-4.10,r9acsx5b9tj,2022-09-19 16:21:48.107,5d42486206811e001ada5b4b,3,73,25,86,41,46,male,,,,,,1.0,choice,10.0,B,C,red,black,moons,stars,B,C,B,red,moons,1036.4000000358,0.0,1.0,0,right,1117.7000000477,2.0,0.0,0.0,,,
203,0,,html-keyboard-response,203,385489,0.0-7.11-0.11,r9acsx5b9tj,2022-09-19 16:21:48.107,5d42486206811e001ada5b4b,3,73,25,86,41,46,male,1171.0,,"
  <table>
  <tr height=300>
    <td width=300 height=300><img src=""static/images/cards/stack_of_black_stars.svg"" width=""175px"" height=""250px""></img></td>
    <td width=300 height=300><img src=""static/images/cards/stack_of_black_moons.svg"" width=""175px"" height=""250px""></img></td>
  </tr>
  <tr height=200>
    <td width=300><img src=""static/images/keys/w.svg"" width=""35%"" height=""75%""></img></td>
    <td width=300><img src=""static/images/keys/o.svg"" width=""35%"" height=""75%""></img></td>
  </tr>
</table>
  ",87.0,1.0,,,,,,,,,,,,,,,,,,,,,,,,,,
204,0,,html-keyboard-response,204,386918,0.0-7.11-1.11,r9acsx5b9tj,2022-09-19 16:21:48.107,5d42486206811e001ada5b4b,3,73,25,86,41,46,male,922.1000000238,,"
  <table>
  <tr height=300>
    <td width=300 height=300><img src=""static/images/cards/back_of_black_stars.svg"" width=""175px"" height=""250px""></img></td>
    <td width=300 height=300><img src=""static/images/cards/back_of_black_stars.svg"" width=""175px"" height=""250px""></img></td>
  </tr>
  <tr height=200>
    <td width=300><img src=""static/images/keys/z.svg"" width=""35%"" height=""75%""></img></td>
    <td width=300><img src=""static/images/keys/m.svg"" width=""35%"" height=""75%""></img></td>
  </tr>
</table>
  ",90.0,1.0,,,,,,,,,,,,,,,,,,,,,,,,,,
205,0,,html-keyboard-response,205,388428,0.0-7.11-2.11,r9acsx5b9tj,2022-09-19 16:21:48.107,5d42486206811e001ada5b4b,3,73,25,86,41,46,male,,,"
  <table>
  <tr height=300>
    <td width=300 height=300><img src=""static/images/cards/2_of_black_stars.svg"" width=""175px"" height=""250px""></img></td>
    <td width=300 height=300><img src=""static/images/cards/back_of_black_stars.svg"" width=""175px"" height=""250px""></img></td>
  </tr>
  <tr height=200>
    <td width=300><img src=""static/images/keys/z.svg"" width=""35%"" height=""75%""></img></td>
    <td width=300><img src=""static/images/keys/m.svg"" width=""35%"" height=""75%""></img></td>
  </tr>
</table>
  ",,,,,,,,,,,,,,,,,,,,,,,,,,,,
206,0,,html-keyboard-response,206,389942,0.0-7.11-3.11,r9acsx5b9tj,2022-09-19 16:21:48.107,5d42486206811e001ada5b4b,3,73,25,86,41,46,male,,,"<p style=""font-size:50px"">You win!
+10 points this round!</p>",,,,,,,,,,,,,,,,,,,,,,,,,,,,
207,0,,html-keyboard-response,207,390451,0.0-7.11-4.11,r9acsx5b9tj,2022-09-19 16:21:48.107,5d42486206811e001ada5b4b,3,73,25,86,41,46,male,,,,,,1.0,choice,11.0,A,C,black,black,stars,moons,C,A,C,black,stars,1171.0,1.0,0.0,NA,left,922.1000000238,2.0,0.0,1.0,,,
208,0,,html-keyboard-response,208,391488,0.0-7.12-0.12,r9acsx5b9tj,2022-09-19 16:21:48.107,5d42486206811e001ada5b4b,3,73,25,86,41,46,male,1035.6000000238,,"
  <table>
  <tr height=300>
    <td width=300 height=300><img src=""static/images/cards/stack_of_black_moons.svg"" width=""175px"" height=""250px""></img></td>
    <td width=300 height=300><img src=""static/images/cards/stack_of_red_stars.svg"" width=""175px"" height=""250px""></img></td>
  </tr>
  <tr height=200>
    <td width=300><img src=""static/images/keys/w.svg"" width=""35%"" height=""75%""></img></td>
    <td width=300><img src=""static/images/keys/o.svg"" width=""35%"" height=""75%""></img></td>
  </tr>
</table>
  ",87.0,1.0,,,,,,,,,,,,,,,,,,,,,,,,,,
209,0,,html-keyboard-response,209,392798,0.0-7.12-1.12,r9acsx5b9tj,2022-09-19 16:21:48.107,5d42486206811e001ada5b4b,3,73,25,86,41,46,male,802.3999999762,,"
  <table>
  <tr height=300>
    <td width=300 height=300><img src=""static/images/cards/back_of_black_moons.svg"" width=""175px"" height=""250px""></img></td>
    <td width=300 height=300><img src=""static/images/cards/back_of_black_moons.svg"" width=""175px"" height=""250px""></img></td>
  </tr>
  <tr height=200>
    <td width=300><img src=""static/images/keys/z.svg"" width=""35%"" height=""75%""></img></td>
    <td width=300><img src=""static/images/keys/m.svg"" width=""35%"" height=""75%""></img></td>
  </tr>
</table>
  ",77.0,1.0,,,,,,,,,,,,,,,,,,,,,,,,,,
210,0,,html-keyboard-response,210,394311,0.0-7.12-2.12,r9acsx5b9tj,2022-09-19 16:21:48.107,5d42486206811e001ada5b4b,3,73,25,86,41,46,male,,,"
  <table>
  <tr height=300>
    <td width=300 height=300><img src=""static/images/cards/back_of_black_moons.svg"" width=""175px"" height=""250px""></img></td>
    <td width=300 height=300><img src=""static/images/cards/2_of_black_moons.svg"" width=""175px"" height=""250px""></img></td>
  </tr>
  <tr height=200>
    <td width=300><img src=""static/images/keys/z.svg"" width=""35%"" height=""75%""></img></td>
    <td width=300><img src=""static/images/keys/m.svg"" width=""35%"" height=""75%""></img></td>
  </tr>
</table>
  ",,,,,,,,,,,,,,,,,,,,,,,,,,,,
211,0,,html-keyboard-response,211,395827,0.0-7.12-3.12,r9acsx5b9tj,2022-09-19 16:21:48.107,5d42486206811e001ada5b4b,3,73,25,86,41,46,male,,,"<p style=""font-size:50px"">You Lose!
No points this round.</p>",,,,,,,,,,,,,,,,,,,,,,,,,,,,
212,0,,html-keyboard-response,212,396333,0.0-7.12-4.12,r9acsx5b9tj,2022-09-19 16:21:48.107,5d42486206811e001ada5b4b,3,73,25,86,41,46,male,,,,,,1.0,choice,12.0,A,D,black,red,moons,stars,A,D,A,black,moons,1035.6000000238,1.0,1.0,NA,right,802.3999999762,2.0,0.0,0.0,,,
213,0,,html-keyboard-response,213,397267,0.0-7.13-0.13,r9acsx5b9tj,2022-09-19 16:21:48.107,5d42486206811e001ada5b4b,3,73,25,86,41,46,male,933.3000000119,,"
  <table>
  <tr height=300>
    <td width=300 height=300><img src=""static/images/cards/stack_of_black_bolts.svg"" width=""175px"" height=""250px""></img></td>
    <td width=300 height=300><img src=""static/images/cards/stack_of_black_moons.svg"" width=""175px"" height=""250px""></img></td>
  </tr>
  <tr height=200>
    <td width=300><img src=""static/images/keys/w.svg"" width=""35%"" height=""75%""></img></td>
    <td width=300><img src=""static/images/keys/o.svg"" width=""35%"" height=""75%""></img></td>
  </tr>
</table>
  ",87.0,1.0,,,,,,,,,,,,,,,,,,,,,,,,,,
214,0,,html-keyboard-response,214,398535,0.0-7.13-1.13,r9acsx5b9tj,2022-09-19 16:21:48.107,5d42486206811e001ada5b4b,3,73,25,86,41,46,male,756.7999999523,,"
  <table>
  <tr height=300>
    <td width=300 height=300><img src=""static/images/cards/back_of_black_bolts.svg"" width=""175px"" height=""250px""></img></td>
    <td width=300 height=300><img src=""static/images/cards/back_of_black_bolts.svg"" width=""175px"" height=""250px""></img></td>
  </tr>
  <tr height=200>
    <td width=300></td>
    <td width=300><img src=""static/images/keys/m.svg"" width=""35%"" height=""75%""></img></td>
  </tr>
</table>
  ",77.0,1.0,,,,,,,,,,,,,,,,,,,,,,,,,,
215,0,,html-keyboard-response,215,400047,0.0-7.13-2.13,r9acsx5b9tj,2022-09-19 16:21:48.107,5d42486206811e001ada5b4b,3,73,25,86,41,46,male,,,"
  <table>
  <tr height=300>
    <td width=300 height=300><img src=""static/images/cards/back_of_black_bolts.svg"" width=""175px"" height=""250px""></img></td>
    <td width=300 height=300><img src=""static/images/cards/4_of_black_bolts.svg"" width=""175px"" height=""250px""></img></td>
  </tr>
  <tr height=200>
    <td width=300></td>
    <td width=300><img src=""static/images/keys/m.svg"" width=""35%"" height=""75%""></img></td>
  </tr>
</table>
  ",,,,,,,,,,,,,,,,,,,,,,,,,,,,
216,0,,html-keyboard-response,216,401561,0.0-7.13-3.13,r9acsx5b9tj,2022-09-19 16:21:48.107,5d42486206811e001ada5b4b,3,73,25,86,41,46,male,,,"<p style=""font-size:50px"">You win!
+10 points this round!</p>",,,,,,,,,,,,,,,,,,,,,,,,,,,,
217,0,,html-keyboard-response,217,402081,0.0-7.13-4.13,r9acsx5b9tj,2022-09-19 16:21:48.107,5d42486206811e001ada5b4b,3,73,25,86,41,46,male,,,,,,1.0,choice,13.0,A,Xnc,black,black,bolts,moons,Xnc,A,Xnc,black,bolts,933.3000000119,0.0,0.0,0,right,756.7999999523,4.0,0.0,1.0,,,
218,0,,html-keyboard-response,218,402458,0.0-7.14-0.14,r9acsx5b9tj,2022-09-19 16:21:48.107,5d42486206811e001ada5b4b,3,73,25,86,41,46,male,375.3999999762,,"
  <table>
  <tr height=300>
    <td width=300 height=300><img src=""static/images/cards/stack_of_black_moons.svg"" width=""175px"" height=""250px""></img></td>
    <td width=300 height=300><img src=""static/images/cards/stack_of_black_stars.svg"" width=""175px"" height=""250px""></img></td>
  </tr>
  <tr height=200>
    <td width=300><img src=""static/images/keys/w.svg"" width=""35%"" height=""75%""></img></td>
    <td width=300><img src=""static/images/keys/o.svg"" width=""35%"" height=""75%""></img></td>
  </tr>
</table>
  ",79.0,1.0,,,,,,,,,,,,,,,,,,,,,,,,,,
219,0,,html-keyboard-response,219,403878,0.0-7.14-1.14,r9acsx5b9tj,2022-09-19 16:21:48.107,5d42486206811e001ada5b4b,3,73,25,86,41,46,male,916.6999999881,,"
  <table>
  <tr height=300>
    <td width=300 height=300><img src=""static/images/cards/back_of_black_stars.svg"" width=""175px"" height=""250px""></img></td>
    <td width=300 height=300><img src=""static/images/cards/back_of_black_stars.svg"" width=""175px"" height=""250px""></img></td>
  </tr>
  <tr height=200>
    <td width=300><img src=""static/images/keys/z.svg"" width=""35%"" height=""75%""></img></td>
    <td width=300><img src=""static/images/keys/m.svg"" width=""35%"" height=""75%""></img></td>
  </tr>
</table>
  ",77.0,1.0,,,,,,,,,,,,,,,,,,,,,,,,,,
220,0,,html-keyboard-response,220,405380,0.0-7.14-2.14,r9acsx5b9tj,2022-09-19 16:21:48.107,5d42486206811e001ada5b4b,3,73,25,86,41,46,male,,,"
  <table>
  <tr height=300>
    <td width=300 height=300><img src=""static/images/cards/back_of_black_stars.svg"" width=""175px"" height=""250px""></img></td>
    <td width=300 height=300><img src=""static/images/cards/3_of_black_stars.svg"" width=""175px"" height=""250px""></img></td>
  </tr>
  <tr height=200>
    <td width=300><img src=""static/images/keys/z.svg"" width=""35%"" height=""75%""></img></td>
    <td width=300><img src=""static/images/keys/m.svg"" width=""35%"" height=""75%""></img></td>
  </tr>
</table>
  ",,,,,,,,,,,,,,,,,,,,,,,,,,,,
221,0,,html-keyboard-response,221,406908,0.0-7.14-3.14,r9acsx5b9tj,2022-09-19 16:21:48.107,5d42486206811e001ada5b4b,3,73,25,86,41,46,male,,,"<p style=""font-size:50px"">You Lose!
No points this round.</p>",,,,,,,,,,,,,,,,,,,,,,,,,,,,
222,0,,html-keyboard-response,222,407426,0.0-7.14-4.14,r9acsx5b9tj,2022-09-19 16:21:48.107,5d42486206811e001ada5b4b,3,73,25,86,41,46,male,,,,,,1.0,choice,14.0,A,C,black,black,moons,stars,A,C,C,black,stars,375.3999999762,1.0,0.0,NA,right,916.6999999881,3.0,0.0,0.0,,,
223,0,,html-keyboard-response,223,407974,0.0-7.15-0.15,r9acsx5b9tj,2022-09-19 16:21:48.107,5d42486206811e001ada5b4b,3,73,25,86,41,46,male,546.0,,"
  <table>
  <tr height=300>
    <td width=300 height=300><img src=""static/images/cards/stack_of_red_stars.svg"" width=""175px"" height=""250px""></img></td>
    <td width=300 height=300><img src=""static/images/cards/stack_of_black_moons.svg"" width=""175px"" height=""250px""></img></td>
  </tr>
  <tr height=200>
    <td width=300><img src=""static/images/keys/w.svg"" width=""35%"" height=""75%""></img></td>
    <td width=300><img src=""static/images/keys/o.svg"" width=""35%"" height=""75%""></img></td>
  </tr>
</table>
  ",79.0,1.0,,,,,,,,,,,,,,,,,,,,,,,,,,
224,0,,html-keyboard-response,224,409060,0.0-7.15-1.15,r9acsx5b9tj,2022-09-19 16:21:48.107,5d42486206811e001ada5b4b,3,73,25,86,41,46,male,576.1999999881,,"
  <table>
  <tr height=300>
    <td width=300 height=300><img src=""static/images/cards/back_of_black_moons.svg"" width=""175px"" height=""250px""></img></td>
    <td width=300 height=300><img src=""static/images/cards/back_of_black_moons.svg"" width=""175px"" height=""250px""></img></td>
  </tr>
  <tr height=200>
    <td width=300><img src=""static/images/keys/z.svg"" width=""35%"" height=""75%""></img></td>
    <td width=300><img src=""static/images/keys/m.svg"" width=""35%"" height=""75%""></img></td>
  </tr>
</table>
  ",90.0,1.0,,,,,,,,,,,,,,,,,,,,,,,,,,
225,0,,html-keyboard-response,225,410574,0.0-7.15-2.15,r9acsx5b9tj,2022-09-19 16:21:48.107,5d42486206811e001ada5b4b,3,73,25,86,41,46,male,,,"
  <table>
  <tr height=300>
    <td width=300 height=300><img src=""static/images/cards/6_of_black_moons.svg"" width=""175px"" height=""250px""></img></td>
    <td width=300 height=300><img src=""static/images/cards/back_of_black_moons.svg"" width=""175px"" height=""250px""></img></td>
  </tr>
  <tr height=200>
    <td width=300><img src=""static/images/keys/z.svg"" width=""35%"" height=""75%""></img></td>
    <td width=300><img src=""static/images/keys/m.svg"" width=""35%"" height=""75%""></img></td>
  </tr>
</table>
  ",,,,,,,,,,,,,,,,,,,,,,,,,,,,
226,0,,html-keyboard-response,226,412084,0.0-7.15-3.15,r9acsx5b9tj,2022-09-19 16:21:48.107,5d42486206811e001ada5b4b,3,73,25,86,41,46,male,,,"<p style=""font-size:50px"">You win!
+10 points this round!</p>",,,,,,,,,,,,,,,,,,,,,,,,,,,,
227,0,,html-keyboard-response,227,412596,0.0-7.15-4.15,r9acsx5b9tj,2022-09-19 16:21:48.107,5d42486206811e001ada5b4b,3,73,25,86,41,46,male,,,,,,1.0,choice,15.0,A,D,red,black,stars,moons,D,A,A,black,moons,546.0,1.0,1.0,NA,left,576.1999999881,6.0,1.0,1.0,,,
228,0,,html-keyboard-response,228,413092,0.0-7.16-0.16,r9acsx5b9tj,2022-09-19 16:21:48.107,5d42486206811e001ada5b4b,3,73,25,86,41,46,male,495.4000000358,,"
  <table>
  <tr height=300>
    <td width=300 height=300><img src=""static/images/cards/stack_of_black_stars.svg"" width=""175px"" height=""250px""></img></td>
    <td width=300 height=300><img src=""static/images/cards/stack_of_red_stars.svg"" width=""175px"" height=""250px""></img></td>
  </tr>
  <tr height=200>
    <td width=300><img src=""static/images/keys/w.svg"" width=""35%"" height=""75%""></img></td>
    <td width=300><img src=""static/images/keys/o.svg"" width=""35%"" height=""75%""></img></td>
  </tr>
</table>
  ",79.0,1.0,,,,,,,,,,,,,,,,,,,,,,,,,,
229,0,,html-keyboard-response,229,414585,0.0-7.16-1.16,r9acsx5b9tj,2022-09-19 16:21:48.107,5d42486206811e001ada5b4b,3,73,25,86,41,46,male,987.1999999881,,"
  <table>
  <tr height=300>
    <td width=300 height=300><img src=""static/images/cards/back_of_red_stars.svg"" width=""175px"" height=""250px""></img></td>
    <td width=300 height=300><img src=""static/images/cards/back_of_red_stars.svg"" width=""175px"" height=""250px""></img></td>
  </tr>
  <tr height=200>
    <td width=300></td>
    <td width=300><img src=""static/images/keys/m.svg"" width=""35%"" height=""75%""></img></td>
  </tr>
</table>
  ",77.0,1.0,,,,,,,,,,,,,,,,,,,,,,,,,,
230,0,,html-keyboard-response,230,416089,0.0-7.16-2.16,r9acsx5b9tj,2022-09-19 16:21:48.107,5d42486206811e001ada5b4b,3,73,25,86,41,46,male,,,"
  <table>
  <tr height=300>
    <td width=300 height=300><img src=""static/images/cards/back_of_red_stars.svg"" width=""175px"" height=""250px""></img></td>
    <td width=300 height=300><img src=""static/images/cards/6_of_red_stars.svg"" width=""175px"" height=""250px""></img></td>
  </tr>
  <tr height=200>
    <td width=300></td>
    <td width=300><img src=""static/images/keys/m.svg"" width=""35%"" height=""75%""></img></td>
  </tr>
</table>
  ",,,,,,,,,,,,,,,,,,,,,,,,,,,,
231,0,,html-keyboard-response,231,417607,0.0-7.16-3.16,r9acsx5b9tj,2022-09-19 16:21:48.107,5d42486206811e001ada5b4b,3,73,25,86,41,46,male,,,"<p style=""font-size:50px"">You Lose!
No points this round.</p>",,,,,,,,,,,,,,,,,,,,,,,,,,,,
232,0,,html-keyboard-response,232,418113,0.0-7.16-4.16,r9acsx5b9tj,2022-09-19 16:21:48.107,5d42486206811e001ada5b4b,3,73,25,86,41,46,male,,,,,,1.0,choice,16.0,C,D,black,red,stars,stars,C,D,D,red,stars,495.4000000358,0.0,0.0,0,right,987.1999999881,6.0,1.0,0.0,,,
233,0,,html-keyboard-response,233,419638,0.0-7.17-0.17,r9acsx5b9tj,2022-09-19 16:21:48.107,5d42486206811e001ada5b4b,3,73,25,86,41,46,male,1524.0,,"
  <table>
  <tr height=300>
    <td width=300 height=300><img src=""static/images/cards/stack_of_red_moons.svg"" width=""175px"" height=""250px""></img></td>
    <td width=300 height=300><img src=""static/images/cards/stack_of_red_stars.svg"" width=""175px"" height=""250px""></img></td>
  </tr>
  <tr height=200>
    <td width=300><img src=""static/images/keys/w.svg"" width=""35%"" height=""75%""></img></td>
    <td width=300><img src=""static/images/keys/o.svg"" width=""35%"" height=""75%""></img></td>
  </tr>
</table>
  ",87.0,1.0,,,,,,,,,,,,,,,,,,,,,,,,,,
234,0,,html-keyboard-response,234,420596,0.0-7.17-1.17,r9acsx5b9tj,2022-09-19 16:21:48.107,5d42486206811e001ada5b4b,3,73,25,86,41,46,male,446.0,,"
  <table>
