,index,success,trial_type,trial_index,time_elapsed,internal_node_id,subject,date,prol_id,ctbl,sense_of_control_A,sense_of_control_B,sense_of_control_C,sense_of_control_D,age,gender,rt,url,stimulus,key_press,npress,is_data_trial,phase,trial,deck1,deck2,col1,col2,sym1,sym2,deck_l,deck_r,chosen_deck,chosen_col,chosen_sym,deck_rt,choose_choice,mutual_info,hidden_key,chosen_card,card_rt,player_num,win_card,outcome,mock_rating,response,responses
0,0,1.0,fullscreen,0,5194,0.0-0.0,fpyzx7wv5f,2022-09-19 14:53:51.470,5ec96e3609117f0a67231842,2,83,32,40,14,51,Male,,,,,,,,,,,,,,,,,,,,,,,,,,,,,,,
1,0,,external-html,1,22647,0.0-1.0,fpyzx7wv5f,2022-09-19 14:53:51.470,5ec96e3609117f0a67231842,2,83,32,40,14,51,Male,17374.299999997,static/js/sub/consent.html,,,,,,,,,,,,,,,,,,,,,,,,,,,,,
2,0,,call-function,2,22648,0.0-2.0,fpyzx7wv5f,2022-09-19 14:53:51.470,5ec96e3609117f0a67231842,2,83,32,40,14,51,Male,,,,,,,,,,,,,,,,,,,,,,,,,,,,,,,
3,0,,image-keyboard-response,3,28104,0.0-3.0-0.0,fpyzx7wv5f,2022-09-19 14:53:51.470,5ec96e3609117f0a67231842,2,83,32,40,14,51,Male,5454.700000003,,static/images/instructions_CB_2/Slide1.png,39.0,,,,,,,,,,,,,,,,,,,,,,,,,,,
4,0,,image-keyboard-response,4,41189,0.0-3.1-0.1,fpyzx7wv5f,2022-09-19 14:53:51.470,5ec96e3609117f0a67231842,2,83,32,40,14,51,Male,13083.200000003,,static/images/instructions_CB_2/Slide2.png,39.0,,,,,,,,,,,,,,,,,,,,,,,,,,,
5,0,,image-keyboard-response,5,49217,0.0-3.2-0.2,fpyzx7wv5f,2022-09-19 14:53:51.470,5ec96e3609117f0a67231842,2,83,32,40,14,51,Male,8027.0,,static/images/instructions_CB_2/Slide3.png,39.0,,,,,,,,,,,,,,,,,,,,,,,,,,,
6,0,,image-keyboard-response,6,62589,0.0-3.3-0.3,fpyzx7wv5f,2022-09-19 14:53:51.470,5ec96e3609117f0a67231842,2,83,32,40,14,51,Male,13371.5,,static/images/instructions_CB_2/Slide4.png,39.0,,,,,,,,,,,,,,,,,,,,,,,,,,,
7,0,,image-keyboard-response,7,79957,0.0-3.4-0.4,fpyzx7wv5f,2022-09-19 14:53:51.470,5ec96e3609117f0a67231842,2,83,32,40,14,51,Male,17366.299999997,,static/images/instructions_CB_2/Slide5.png,39.0,,,,,,,,,,,,,,,,,,,,,,,,,,,
8,0,,image-keyboard-response,8,84252,0.0-3.5-0.5,fpyzx7wv5f,2022-09-19 14:53:51.470,5ec96e3609117f0a67231842,2,83,32,40,14,51,Male,4294.8000000045,,static/images/instructions_CB_2/Slide6.png,39.0,,,,,,,,,,,,,,,,,,,,,,,,,,,
9,0,,image-keyboard-response,9,98362,0.0-3.6-0.6,fpyzx7wv5f,2022-09-19 14:53:51.470,5ec96e3609117f0a67231842,2,83,32,40,14,51,Male,14108.8999999985,,static/images/instructions_CB_2/Slide7.png,39.0,,,,,,,,,,,,,,,,,,,,,,,,,,,
10,0,,image-keyboard-response,10,116552,0.0-3.7-0.7,fpyzx7wv5f,2022-09-19 14:53:51.470,5ec96e3609117f0a67231842,2,83,32,40,14,51,Male,18189.599999994,,static/images/instructions_CB_2/Slide8.png,39.0,,,,,,,,,,,,,,,,,,,,,,,,,,,
11,0,,image-keyboard-response,11,122604,0.0-3.8-0.8,fpyzx7wv5f,2022-09-19 14:53:51.470,5ec96e3609117f0a67231842,2,83,32,40,14,51,Male,6050.299999997,,static/images/instructions_CB_2/Slide9.png,39.0,,,,,,,,,,,,,,,,,,,,,,,,,,,
12,0,,image-keyboard-response,12,143171,0.0-3.9-0.9,fpyzx7wv5f,2022-09-19 14:53:51.470,5ec96e3609117f0a67231842,2,83,32,40,14,51,Male,20565.8999999985,,static/images/instructions_CB_2/Slide10.png,39.0,,,,,,,,,,,,,,,,,,,,,,,,,,,
13,0,,image-keyboard-response,13,150606,0.0-3.10-0.10,fpyzx7wv5f,2022-09-19 14:53:51.470,5ec96e3609117f0a67231842,2,83,32,40,14,51,Male,7434.200000003,,static/images/instructions_CB_2/Slide11.png,39.0,,,,,,,,,,,,,,,,,,,,,,,,,,,
14,0,,image-keyboard-response,14,173734,0.0-3.11-0.11,fpyzx7wv5f,2022-09-19 14:53:51.470,5ec96e3609117f0a67231842,2,83,32,40,14,51,Male,23127.3999999985,,static/images/instructions_CB_2/Slide12.png,39.0,,,,,,,,,,,,,,,,,,,,,,,,,,,
15,0,,image-keyboard-response,15,195098,0.0-3.12-0.12,fpyzx7wv5f,2022-09-19 14:53:51.470,5ec96e3609117f0a67231842,2,83,32,40,14,51,Male,21363.5,,static/images/instructions_CB_2/Slide13.png,39.0,,,,,,,,,,,,,,,,,,,,,,,,,,,
16,0,,image-keyboard-response,16,206856,0.0-3.13-0.13,fpyzx7wv5f,2022-09-19 14:53:51.470,5ec96e3609117f0a67231842,2,83,32,40,14,51,Male,11756.599999994,,static/images/instructions_CB_2/Slide14.png,39.0,,,,,,,,,,,,,,,,,,,,,,,,,,,
17,0,,image-keyboard-response,17,223646,0.0-3.14-0.14,fpyzx7wv5f,2022-09-19 14:53:51.470,5ec96e3609117f0a67231842,2,83,32,40,14,51,Male,16789.299999997,,static/images/instructions_CB_2/Slide15.png,39.0,,,,,,,,,,,,,,,,,,,,,,,,,,,
18,0,,image-keyboard-response,18,234558,0.0-3.15-0.15,fpyzx7wv5f,2022-09-19 14:53:51.470,5ec96e3609117f0a67231842,2,83,32,40,14,51,Male,10911.0,,static/images/instructions_CB_2/Slide16.png,39.0,,,,,,,,,,,,,,,,,,,,,,,,,,,
19,0,,image-keyboard-response,19,242630,0.0-3.16-0.16,fpyzx7wv5f,2022-09-19 14:53:51.470,5ec96e3609117f0a67231842,2,83,32,40,14,51,Male,8071.700000003,,static/images/instructions_CB_2/Slide17.png,39.0,,,,,,,,,,,,,,,,,,,,,,,,,,,
20,0,,image-keyboard-response,20,281868,0.0-3.17-0.17,fpyzx7wv5f,2022-09-19 14:53:51.470,5ec96e3609117f0a67231842,2,83,32,40,14,51,Male,39236.900000006,,static/images/instructions_CB_2/Slide18.png,39.0,,,,,,,,,,,,,,,,,,,,,,,,,,,
21,0,,image-keyboard-response,21,290409,0.0-3.18-0.18,fpyzx7wv5f,2022-09-19 14:53:51.470,5ec96e3609117f0a67231842,2,83,32,40,14,51,Male,8540.3999999985,,static/images/instructions_CB_2/Slide19.png,39.0,,,,,,,,,,,,,,,,,,,,,,,,,,,
22,0,,html-keyboard-response,22,291911,0.0-4.0-0.0,fpyzx7wv5f,2022-09-19 14:53:51.470,5ec96e3609117f0a67231842,2,83,32,40,14,51,Male,,,"<img src=""static/images/cards/stack_of_black_stars.svg"" width=""175px"" height=""250px""></img>",,,,,,,,,,,,,,,,,,,,,,,,,,,,
23,0,,html-keyboard-response,23,294831,0.0-4.0-1.0,fpyzx7wv5f,2022-09-19 14:53:51.470,5ec96e3609117f0a67231842,2,83,32,40,14,51,Male,2419.0,,"
  <table>
  <tr height=300>
    <td width=300 height=300><img src=""static/images/cards/back_of_black_stars.svg"" width=""175px"" height=""250px""></img></td>
    <td width=300 height=300><img src=""static/images/cards/back_of_black_stars.svg"" width=""175px"" height=""250px""></img></td>
  </tr>
  <tr height=200>
    <td width=300><img src=""static/images/keys/z.svg"" width=""35%"" height=""75%""></img></td>
    <td width=300><img src=""static/images/keys/m.svg"" width=""35%"" height=""75%""></img></td>
  </tr>
</table>
  ",90.0,1.0,,,,,,,,,,,,,,,,,,,,,,,,,,
24,0,,html-keyboard-response,24,296332,0.0-4.0-2.0,fpyzx7wv5f,2022-09-19 14:53:51.470,5ec96e3609117f0a67231842,2,83,32,40,14,51,Male,,,"
  <table>
  <tr height=300>
    <td width=300 height=300><img src=""static/images/cards/2_of_black_stars.svg"" width=""175px"" height=""250px""></img></td>
    <td width=300 height=300><img src=""static/images/cards/back_of_black_stars.svg"" width=""175px"" height=""250px""></img></td>
  </tr>
  <tr height=200>
    <td width=300><img src=""static/images/keys/z.svg"" width=""35%"" height=""75%""></img></td>
    <td width=300><img src=""static/images/keys/m.svg"" width=""35%"" height=""75%""></img></td>
  </tr>
</table>
  ",,,,,,,,,,,,,,,,,,,,,,,,,,,,
25,0,,html-keyboard-response,25,297833,0.0-4.0-3.0,fpyzx7wv5f,2022-09-19 14:53:51.470,5ec96e3609117f0a67231842,2,83,32,40,14,51,Male,,,"<p style=""font-size:50px"">You Lose!
No points this round.</p>",,,,,,,,,,,,,,,,,,,,,,,,,,,,
26,0,,html-keyboard-response,26,298338,0.0-4.0-4.0,fpyzx7wv5f,2022-09-19 14:53:51.470,5ec96e3609117f0a67231842,2,83,32,40,14,51,Male,,,,,,1.0,learning,0.0,A,,black,,stars,,,,A,black,stars,,1.0,1.0,NA,left,2419.0,2.0,0.0,0.0,,,
27,0,,html-keyboard-response,27,299839,0.0-4.1-0.1,fpyzx7wv5f,2022-09-19 14:53:51.470,5ec96e3609117f0a67231842,2,83,32,40,14,51,Male,,,"<img src=""static/images/cards/stack_of_red_stars.svg"" width=""175px"" height=""250px""></img>",,,,,,,,,,,,,,,,,,,,,,,,,,,,
28,0,,html-keyboard-response,28,301545,0.0-4.1-1.1,fpyzx7wv5f,2022-09-19 14:53:51.470,5ec96e3609117f0a67231842,2,83,32,40,14,51,Male,1204.700000003,,"
  <table>
  <tr height=300>
    <td width=300 height=300><img src=""static/images/cards/back_of_red_stars.svg"" width=""175px"" height=""250px""></img></td>
    <td width=300 height=300><img src=""static/images/cards/back_of_red_stars.svg"" width=""175px"" height=""250px""></img></td>
  </tr>
  <tr height=200>
    <td width=300><img src=""static/images/keys/z.svg"" width=""35%"" height=""75%""></img></td>
    <td width=300></td>
  </tr>
</table>
  ",90.0,1.0,,,,,,,,,,,,,,,,,,,,,,,,,,
29,0,,html-keyboard-response,29,303046,0.0-4.1-2.1,fpyzx7wv5f,2022-09-19 14:53:51.470,5ec96e3609117f0a67231842,2,83,32,40,14,51,Male,,,"
  <table>
  <tr height=300>
    <td width=300 height=300><img src=""static/images/cards/3_of_red_stars.svg"" width=""175px"" height=""250px""></img></td>
    <td width=300 height=300><img src=""static/images/cards/back_of_red_stars.svg"" width=""175px"" height=""250px""></img></td>
  </tr>
  <tr height=200>
    <td width=300><img src=""static/images/keys/z.svg"" width=""35%"" height=""75%""></img></td>
    <td width=300></td>
  </tr>
</table>
  ",,,,,,,,,,,,,,,,,,,,,,,,,,,,
30,0,,html-keyboard-response,30,304547,0.0-4.1-3.1,fpyzx7wv5f,2022-09-19 14:53:51.470,5ec96e3609117f0a67231842,2,83,32,40,14,51,Male,,,"<p style=""font-size:50px"">You Lose!
No points this round.</p>",,,,,,,,,,,,,,,,,,,,,,,,,,,,
31,0,,html-keyboard-response,31,305052,0.0-4.1-4.1,fpyzx7wv5f,2022-09-19 14:53:51.470,5ec96e3609117f0a67231842,2,83,32,40,14,51,Male,,,,,,1.0,learning,1.0,B,,red,,stars,,,,B,red,stars,,0.0,1.0,1,left,1204.700000003,3.0,0.0,0.0,,,
32,0,,html-keyboard-response,32,306553,0.0-4.2-0.2,fpyzx7wv5f,2022-09-19 14:53:51.470,5ec96e3609117f0a67231842,2,83,32,40,14,51,Male,,,"<img src=""static/images/cards/stack_of_black_moons.svg"" width=""175px"" height=""250px""></img>",,,,,,,,,,,,,,,,,,,,,,,,,,,,
33,0,,html-keyboard-response,33,309188,0.0-4.2-1.2,fpyzx7wv5f,2022-09-19 14:53:51.470,5ec96e3609117f0a67231842,2,83,32,40,14,51,Male,2133.200000003,,"
  <table>
  <tr height=300>
    <td width=300 height=300><img src=""static/images/cards/back_of_black_moons.svg"" width=""175px"" height=""250px""></img></td>
    <td width=300 height=300><img src=""static/images/cards/back_of_black_moons.svg"" width=""175px"" height=""250px""></img></td>
  </tr>
  <tr height=200>
    <td width=300><img src=""static/images/keys/z.svg"" width=""35%"" height=""75%""></img></td>
    <td width=300><img src=""static/images/keys/m.svg"" width=""35%"" height=""75%""></img></td>
  </tr>
</table>
  ",77.0,1.0,,,,,,,,,,,,,,,,,,,,,,,,,,
34,0,,html-keyboard-response,34,310689,0.0-4.2-2.2,fpyzx7wv5f,2022-09-19 14:53:51.470,5ec96e3609117f0a67231842,2,83,32,40,14,51,Male,,,"
  <table>
  <tr height=300>
    <td width=300 height=300><img src=""static/images/cards/back_of_black_moons.svg"" width=""175px"" height=""250px""></img></td>
    <td width=300 height=300><img src=""static/images/cards/2_of_black_moons.svg"" width=""175px"" height=""250px""></img></td>
  </tr>
  <tr height=200>
    <td width=300><img src=""static/images/keys/z.svg"" width=""35%"" height=""75%""></img></td>
    <td width=300><img src=""static/images/keys/m.svg"" width=""35%"" height=""75%""></img></td>
  </tr>
</table>
  ",,,,,,,,,,,,,,,,,,,,,,,,,,,,
35,0,,html-keyboard-response,35,312190,0.0-4.2-3.2,fpyzx7wv5f,2022-09-19 14:53:51.470,5ec96e3609117f0a67231842,2,83,32,40,14,51,Male,,,"<p style=""font-size:50px"">You win!
+10 points this round!</p>",,,,,,,,,,,,,,,,,,,,,,,,,,,,
36,0,,html-keyboard-response,36,312695,0.0-4.2-4.2,fpyzx7wv5f,2022-09-19 14:53:51.470,5ec96e3609117f0a67231842,2,83,32,40,14,51,Male,,,,,,1.0,learning,2.0,C,,black,,moons,,,,C,black,moons,,1.0,0.0,NA,right,2133.200000003,2.0,0.0,1.0,,,
37,0,,html-keyboard-response,37,314196,0.0-4.3-0.3,fpyzx7wv5f,2022-09-19 14:53:51.470,5ec96e3609117f0a67231842,2,83,32,40,14,51,Male,,,"<img src=""static/images/cards/stack_of_red_moons.svg"" width=""175px"" height=""250px""></img>",,,,,,,,,,,,,,,,,,,,,,,,,,,,
38,0,,html-keyboard-response,38,315902,0.0-4.3-1.3,fpyzx7wv5f,2022-09-19 14:53:51.470,5ec96e3609117f0a67231842,2,83,32,40,14,51,Male,1205.5,,"
  <table>
  <tr height=300>
    <td width=300 height=300><img src=""static/images/cards/back_of_red_moons.svg"" width=""175px"" height=""250px""></img></td>
    <td width=300 height=300><img src=""static/images/cards/back_of_red_moons.svg"" width=""175px"" height=""250px""></img></td>
  </tr>
  <tr height=200>
    <td width=300><img src=""static/images/keys/z.svg"" width=""35%"" height=""75%""></img></td>
    <td width=300></td>
  </tr>
</table>
  ",90.0,1.0,,,,,,,,,,,,,,,,,,,,,,,,,,
39,0,,html-keyboard-response,39,317403,0.0-4.3-2.3,fpyzx7wv5f,2022-09-19 14:53:51.470,5ec96e3609117f0a67231842,2,83,32,40,14,51,Male,,,"
  <table>
  <tr height=300>
    <td width=300 height=300><img src=""static/images/cards/8_of_red_moons.svg"" width=""175px"" height=""250px""></img></td>
    <td width=300 height=300><img src=""static/images/cards/back_of_red_moons.svg"" width=""175px"" height=""250px""></img></td>
  </tr>
  <tr height=200>
    <td width=300><img src=""static/images/keys/z.svg"" width=""35%"" height=""75%""></img></td>
    <td width=300></td>
  </tr>
</table>
  ",,,,,,,,,,,,,,,,,,,,,,,,,,,,
40,0,,html-keyboard-response,40,318904,0.0-4.3-3.3,fpyzx7wv5f,2022-09-19 14:53:51.470,5ec96e3609117f0a67231842,2,83,32,40,14,51,Male,,,"<p style=""font-size:50px"">You win!
+10 points this round!</p>",,,,,,,,,,,,,,,,,,,,,,,,,,,,
41,0,,html-keyboard-response,41,319409,0.0-4.3-4.3,fpyzx7wv5f,2022-09-19 14:53:51.470,5ec96e3609117f0a67231842,2,83,32,40,14,51,Male,,,,,,1.0,learning,3.0,D,,red,,moons,,,,D,red,moons,,0.0,0.0,1,left,1205.5,8.0,1.0,1.0,,,
42,0,,html-keyboard-response,42,320910,0.0-4.4-0.4,fpyzx7wv5f,2022-09-19 14:53:51.470,5ec96e3609117f0a67231842,2,83,32,40,14,51,Male,,,"<img src=""static/images/cards/stack_of_red_bolts.svg"" width=""175px"" height=""250px""></img>",,,,,,,,,,,,,,,,,,,,,,,,,,,,
43,0,,html-keyboard-response,43,322629,0.0-4.4-1.4,fpyzx7wv5f,2022-09-19 14:53:51.470,5ec96e3609117f0a67231842,2,83,32,40,14,51,Male,1217.299999997,,"
  <table>
  <tr height=300>
    <td width=300 height=300><img src=""static/images/cards/back_of_red_bolts.svg"" width=""175px"" height=""250px""></img></td>
    <td width=300 height=300><img src=""static/images/cards/back_of_red_bolts.svg"" width=""175px"" height=""250px""></img></td>
  </tr>
  <tr height=200>
    <td width=300><img src=""static/images/keys/z.svg"" width=""35%"" height=""75%""></img></td>
    <td width=300><img src=""static/images/keys/m.svg"" width=""35%"" height=""75%""></img></td>
  </tr>
</table>
  ",90.0,1.0,,,,,,,,,,,,,,,,,,,,,,,,,,
44,0,,html-keyboard-response,44,324130,0.0-4.4-2.4,fpyzx7wv5f,2022-09-19 14:53:51.470,5ec96e3609117f0a67231842,2,83,32,40,14,51,Male,,,"
  <table>
  <tr height=300>
    <td width=300 height=300><img src=""static/images/cards/7_of_red_bolts.svg"" width=""175px"" height=""250px""></img></td>
    <td width=300 height=300><img src=""static/images/cards/back_of_red_bolts.svg"" width=""175px"" height=""250px""></img></td>
  </tr>
  <tr height=200>
    <td width=300><img src=""static/images/keys/z.svg"" width=""35%"" height=""75%""></img></td>
    <td width=300><img src=""static/images/keys/m.svg"" width=""35%"" height=""75%""></img></td>
  </tr>
</table>
  ",,,,,,,,,,,,,,,,,,,,,,,,,,,,
45,0,,html-keyboard-response,45,325631,0.0-4.4-3.4,fpyzx7wv5f,2022-09-19 14:53:51.470,5ec96e3609117f0a67231842,2,83,32,40,14,51,Male,,,"<p style=""font-size:50px"">You win!
+10 points this round!</p>",,,,,,,,,,,,,,,,,,,,,,,,,,,,
46,0,,html-keyboard-response,46,326135,0.0-4.4-4.4,fpyzx7wv5f,2022-09-19 14:53:51.470,5ec96e3609117f0a67231842,2,83,32,40,14,51,Male,,,,,,1.0,learning,4.0,Xc,,red,,bolts,,,,Xc,red,bolts,,1.0,0.0,NA,left,1217.299999997,7.0,1.0,1.0,,,
47,0,,html-keyboard-response,47,327636,0.0-4.5-0.5,fpyzx7wv5f,2022-09-19 14:53:51.470,5ec96e3609117f0a67231842,2,83,32,40,14,51,Male,,,"<img src=""static/images/cards/stack_of_black_bolts.svg"" width=""175px"" height=""250px""></img>",,,,,,,,,,,,,,,,,,,,,,,,,,,,
48,0,,html-keyboard-response,48,329555,0.0-4.5-1.5,fpyzx7wv5f,2022-09-19 14:53:51.470,5ec96e3609117f0a67231842,2,83,32,40,14,51,Male,1417.5,,"
  <table>
  <tr height=300>
    <td width=300 height=300><img src=""static/images/cards/back_of_black_bolts.svg"" width=""175px"" height=""250px""></img></td>
    <td width=300 height=300><img src=""static/images/cards/back_of_black_bolts.svg"" width=""175px"" height=""250px""></img></td>
  </tr>
  <tr height=200>
    <td width=300></td>
    <td width=300><img src=""static/images/keys/m.svg"" width=""35%"" height=""75%""></img></td>
  </tr>
</table>
  ",77.0,1.0,,,,,,,,,,,,,,,,,,,,,,,,,,
49,0,,html-keyboard-response,49,331056,0.0-4.5-2.5,fpyzx7wv5f,2022-09-19 14:53:51.470,5ec96e3609117f0a67231842,2,83,32,40,14,51,Male,,,"
  <table>
  <tr height=300>
    <td width=300 height=300><img src=""static/images/cards/back_of_black_bolts.svg"" width=""175px"" height=""250px""></img></td>
    <td width=300 height=300><img src=""static/images/cards/7_of_black_bolts.svg"" width=""175px"" height=""250px""></img></td>
  </tr>
  <tr height=200>
    <td width=300></td>
    <td width=300><img src=""static/images/keys/m.svg"" width=""35%"" height=""75%""></img></td>
  </tr>
</table>
  ",,,,,,,,,,,,,,,,,,,,,,,,,,,,
50,0,,html-keyboard-response,50,332557,0.0-4.5-3.5,fpyzx7wv5f,2022-09-19 14:53:51.470,5ec96e3609117f0a67231842,2,83,32,40,14,51,Male,,,"<p style=""font-size:50px"">You win!
+10 points this round!</p>",,,,,,,,,,,,,,,,,,,,,,,,,,,,
51,0,,html-keyboard-response,51,333062,0.0-4.5-4.5,fpyzx7wv5f,2022-09-19 14:53:51.470,5ec96e3609117f0a67231842,2,83,32,40,14,51,Male,,,,,,1.0,learning,5.0,Xnc,,black,,bolts,,,,Xnc,black,bolts,,0.0,0.0,0,right,1417.5,7.0,1.0,1.0,,,
52,0,,html-keyboard-response,52,334563,0.0-4.6-0.6,fpyzx7wv5f,2022-09-19 14:53:51.470,5ec96e3609117f0a67231842,2,83,32,40,14,51,Male,,,"<img src=""static/images/cards/stack_of_black_stars.svg"" width=""175px"" height=""250px""></img>",,,,,,,,,,,,,,,,,,,,,,,,,,,,
53,0,,html-keyboard-response,53,336321,0.0-4.6-1.6,fpyzx7wv5f,2022-09-19 14:53:51.470,5ec96e3609117f0a67231842,2,83,32,40,14,51,Male,1256.900000006,,"
  <table>
  <tr height=300>
    <td width=300 height=300><img src=""static/images/cards/back_of_black_stars.svg"" width=""175px"" height=""250px""></img></td>
    <td width=300 height=300><img src=""static/images/cards/back_of_black_stars.svg"" width=""175px"" height=""250px""></img></td>
  </tr>
  <tr height=200>
    <td width=300><img src=""static/images/keys/z.svg"" width=""35%"" height=""75%""></img></td>
    <td width=300><img src=""static/images/keys/m.svg"" width=""35%"" height=""75%""></img></td>
  </tr>
</table>
  ",90.0,1.0,,,,,,,,,,,,,,,,,,,,,,,,,,
54,0,,html-keyboard-response,54,337822,0.0-4.6-2.6,fpyzx7wv5f,2022-09-19 14:53:51.470,5ec96e3609117f0a67231842,2,83,32,40,14,51,Male,,,"
  <table>
  <tr height=300>
    <td width=300 height=300><img src=""static/images/cards/7_of_black_stars.svg"" width=""175px"" height=""250px""></img></td>
    <td width=300 height=300><img src=""static/images/cards/back_of_black_stars.svg"" width=""175px"" height=""250px""></img></td>
  </tr>
  <tr height=200>
    <td width=300><img src=""static/images/keys/z.svg"" width=""35%"" height=""75%""></img></td>
    <td width=300><img src=""static/images/keys/m.svg"" width=""35%"" height=""75%""></img></td>
  </tr>
</table>
  ",,,,,,,,,,,,,,,,,,,,,,,,,,,,
55,0,,html-keyboard-response,55,339323,0.0-4.6-3.6,fpyzx7wv5f,2022-09-19 14:53:51.470,5ec96e3609117f0a67231842,2,83,32,40,14,51,Male,,,"<p style=""font-size:50px"">You win!
+10 points this round!</p>",,,,,,,,,,,,,,,,,,,,,,,,,,,,
56,0,,html-keyboard-response,56,339828,0.0-4.6-4.6,fpyzx7wv5f,2022-09-19 14:53:51.470,5ec96e3609117f0a67231842,2,83,32,40,14,51,Male,,,,,,1.0,learning,6.0,A,,black,,stars,,,,A,black,stars,,1.0,1.0,NA,left,1256.900000006,7.0,1.0,1.0,,,
57,0,,html-keyboard-response,57,341329,0.0-4.7-0.7,fpyzx7wv5f,2022-09-19 14:53:51.470,5ec96e3609117f0a67231842,2,83,32,40,14,51,Male,,,"<img src=""static/images/cards/stack_of_red_stars.svg"" width=""175px"" height=""250px""></img>",,,,,,,,,,,,,,,,,,,,,,,,,,,,
58,0,,html-keyboard-response,58,342931,0.0-4.7-1.7,fpyzx7wv5f,2022-09-19 14:53:51.470,5ec96e3609117f0a67231842,2,83,32,40,14,51,Male,1101.5,,"
  <table>
  <tr height=300>
    <td width=300 height=300><img src=""static/images/cards/back_of_red_stars.svg"" width=""175px"" height=""250px""></img></td>
    <td width=300 height=300><img src=""static/images/cards/back_of_red_stars.svg"" width=""175px"" height=""250px""></img></td>
  </tr>
  <tr height=200>
    <td width=300></td>
    <td width=300><img src=""static/images/keys/m.svg"" width=""35%"" height=""75%""></img></td>
  </tr>
</table>
  ",77.0,1.0,,,,,,,,,,,,,,,,,,,,,,,,,,
59,0,,html-keyboard-response,59,344433,0.0-4.7-2.7,fpyzx7wv5f,2022-09-19 14:53:51.470,5ec96e3609117f0a67231842,2,83,32,40,14,51,Male,,,"
  <table>
  <tr height=300>
    <td width=300 height=300><img src=""static/images/cards/back_of_red_stars.svg"" width=""175px"" height=""250px""></img></td>
    <td width=300 height=300><img src=""static/images/cards/6_of_red_stars.svg"" width=""175px"" height=""250px""></img></td>
  </tr>
  <tr height=200>
    <td width=300></td>
    <td width=300><img src=""static/images/keys/m.svg"" width=""35%"" height=""75%""></img></td>
  </tr>
</table>
  ",,,,,,,,,,,,,,,,,,,,,,,,,,,,
60,0,,html-keyboard-response,60,345933,0.0-4.7-3.7,fpyzx7wv5f,2022-09-19 14:53:51.470,5ec96e3609117f0a67231842,2,83,32,40,14,51,Male,,,"<p style=""font-size:50px"">You win!
+10 points this round!</p>",,,,,,,,,,,,,,,,,,,,,,,,,,,,
61,0,,html-keyboard-response,61,346438,0.0-4.7-4.7,fpyzx7wv5f,2022-09-19 14:53:51.470,5ec96e3609117f0a67231842,2,83,32,40,14,51,Male,,,,,,1.0,learning,7.0,B,,red,,stars,,,,B,red,stars,,0.0,1.0,0,right,1101.5,6.0,1.0,1.0,,,
62,0,,html-keyboard-response,62,347939,0.0-4.8-0.8,fpyzx7wv5f,2022-09-19 14:53:51.470,5ec96e3609117f0a67231842,2,83,32,40,14,51,Male,,,"<img src=""static/images/cards/stack_of_black_moons.svg"" width=""175px"" height=""250px""></img>",,,,,,,,,,,,,,,,,,,,,,,,,,,,
63,0,,html-keyboard-response,63,350055,0.0-4.8-1.8,fpyzx7wv5f,2022-09-19 14:53:51.470,5ec96e3609117f0a67231842,2,83,32,40,14,51,Male,1614.5,,"
  <table>
  <tr height=300>
    <td width=300 height=300><img src=""static/images/cards/back_of_black_moons.svg"" width=""175px"" height=""250px""></img></td>
    <td width=300 height=300><img src=""static/images/cards/back_of_black_moons.svg"" width=""175px"" height=""250px""></img></td>
  </tr>
  <tr height=200>
    <td width=300><img src=""static/images/keys/z.svg"" width=""35%"" height=""75%""></img></td>
    <td width=300><img src=""static/images/keys/m.svg"" width=""35%"" height=""75%""></img></td>
  </tr>
</table>
  ",77.0,1.0,,,,,,,,,,,,,,,,,,,,,,,,,,
64,0,,html-keyboard-response,64,351556,0.0-4.8-2.8,fpyzx7wv5f,2022-09-19 14:53:51.470,5ec96e3609117f0a67231842,2,83,32,40,14,51,Male,,,"
  <table>
  <tr height=300>
    <td width=300 height=300><img src=""static/images/cards/back_of_black_moons.svg"" width=""175px"" height=""250px""></img></td>
    <td width=300 height=300><img src=""static/images/cards/3_of_black_moons.svg"" width=""175px"" height=""250px""></img></td>
  </tr>
  <tr height=200>
    <td width=300><img src=""static/images/keys/z.svg"" width=""35%"" height=""75%""></img></td>
    <td width=300><img src=""static/images/keys/m.svg"" width=""35%"" height=""75%""></img></td>
  </tr>
</table>
  ",,,,,,,,,,,,,,,,,,,,,,,,,,,,
65,0,,html-keyboard-response,65,353057,0.0-4.8-3.8,fpyzx7wv5f,2022-09-19 14:53:51.470,5ec96e3609117f0a67231842,2,83,32,40,14,51,Male,,,"<p style=""font-size:50px"">You Lose!
No points this round.</p>",,,,,,,,,,,,,,,,,,,,,,,,,,,,
66,0,,html-keyboard-response,66,353561,0.0-4.8-4.8,fpyzx7wv5f,2022-09-19 14:53:51.470,5ec96e3609117f0a67231842,2,83,32,40,14,51,Male,,,,,,1.0,learning,8.0,C,,black,,moons,,,,C,black,moons,,1.0,0.0,NA,right,1614.5,3.0,0.0,0.0,,,
67,0,,html-keyboard-response,67,355062,0.0-4.9-0.9,fpyzx7wv5f,2022-09-19 14:53:51.470,5ec96e3609117f0a67231842,2,83,32,40,14,51,Male,,,"<img src=""static/images/cards/stack_of_red_moons.svg"" width=""175px"" height=""250px""></img>",,,,,,,,,,,,,,,,,,,,,,,,,,,,
68,0,,html-keyboard-response,68,356633,0.0-4.9-1.9,fpyzx7wv5f,2022-09-19 14:53:51.470,5ec96e3609117f0a67231842,2,83,32,40,14,51,Male,1069.3999999985,,"
  <table>
  <tr height=300>
    <td width=300 height=300><img src=""static/images/cards/back_of_red_moons.svg"" width=""175px"" height=""250px""></img></td>
    <td width=300 height=300><img src=""static/images/cards/back_of_red_moons.svg"" width=""175px"" height=""250px""></img></td>
  </tr>
  <tr height=200>
    <td width=300><img src=""static/images/keys/z.svg"" width=""35%"" height=""75%""></img></td>
    <td width=300></td>
  </tr>
</table>
  ",90.0,1.0,,,,,,,,,,,,,,,,,,,,,,,,,,
69,0,,html-keyboard-response,69,358134,0.0-4.9-2.9,fpyzx7wv5f,2022-09-19 14:53:51.470,5ec96e3609117f0a67231842,2,83,32,40,14,51,Male,,,"
  <table>
  <tr height=300>
    <td width=300 height=300><img src=""static/images/cards/1_of_red_moons.svg"" width=""175px"" height=""250px""></img></td>
    <td width=300 height=300><img src=""static/images/cards/back_of_red_moons.svg"" width=""175px"" height=""250px""></img></td>
  </tr>
  <tr height=200>
    <td width=300><img src=""static/images/keys/z.svg"" width=""35%"" height=""75%""></img></td>
    <td width=300></td>
  </tr>
</table>
  ",,,,,,,,,,,,,,,,,,,,,,,,,,,,
70,0,,html-keyboard-response,70,359634,0.0-4.9-3.9,fpyzx7wv5f,2022-09-19 14:53:51.470,5ec96e3609117f0a67231842,2,83,32,40,14,51,Male,,,"<p style=""font-size:50px"">You Lose!
No points this round.</p>",,,,,,,,,,,,,,,,,,,,,,,,,,,,
71,0,,html-keyboard-response,71,360139,0.0-4.9-4.9,fpyzx7wv5f,2022-09-19 14:53:51.470,5ec96e3609117f0a67231842,2,83,32,40,14,51,Male,,,,,,1.0,learning,9.0,D,,red,,moons,,,,D,red,moons,,0.0,0.0,1,left,1069.3999999985,1.0,0.0,0.0,,,
72,0,,html-keyboard-response,72,361640,0.0-4.10-0.10,fpyzx7wv5f,2022-09-19 14:53:51.470,5ec96e3609117f0a67231842,2,83,32,40,14,51,Male,,,"<img src=""static/images/cards/stack_of_red_bolts.svg"" width=""175px"" height=""250px""></img>",,,,,,,,,,,,,,,,,,,,,,,,,,,,
73,0,,html-keyboard-response,73,362953,0.0-4.10-1.10,fpyzx7wv5f,2022-09-19 14:53:51.470,5ec96e3609117f0a67231842,2,83,32,40,14,51,Male,811.6000000015,,"
  <table>
  <tr height=300>
    <td width=300 height=300><img src=""static/images/cards/back_of_red_bolts.svg"" width=""175px"" height=""250px""></img></td>
    <td width=300 height=300><img src=""static/images/cards/back_of_red_bolts.svg"" width=""175px"" height=""250px""></img></td>
  </tr>
  <tr height=200>
    <td width=300><img src=""static/images/keys/z.svg"" width=""35%"" height=""75%""></img></td>
    <td width=300><img src=""static/images/keys/m.svg"" width=""35%"" height=""75%""></img></td>
  </tr>
</table>
  ",90.0,1.0,,,,,,,,,,,,,,,,,,,,,,,,,,
74,0,,html-keyboard-response,74,364454,0.0-4.10-2.10,fpyzx7wv5f,2022-09-19 14:53:51.470,5ec96e3609117f0a67231842,2,83,32,40,14,51,Male,,,"
  <table>
  <tr height=300>
    <td width=300 height=300><img src=""static/images/cards/7_of_red_bolts.svg"" width=""175px"" height=""250px""></img></td>
    <td width=300 height=300><img src=""static/images/cards/back_of_red_bolts.svg"" width=""175px"" height=""250px""></img></td>
  </tr>
  <tr height=200>
    <td width=300><img src=""static/images/keys/z.svg"" width=""35%"" height=""75%""></img></td>
    <td width=300><img src=""static/images/keys/m.svg"" width=""35%"" height=""75%""></img></td>
  </tr>
</table>
  ",,,,,,,,,,,,,,,,,,,,,,,,,,,,
75,0,,html-keyboard-response,75,365955,0.0-4.10-3.10,fpyzx7wv5f,2022-09-19 14:53:51.470,5ec96e3609117f0a67231842,2,83,32,40,14,51,Male,,,"<p style=""font-size:50px"">You win!
+10 points this round!</p>",,,,,,,,,,,,,,,,,,,,,,,,,,,,
76,0,,html-keyboard-response,76,366459,0.0-4.10-4.10,fpyzx7wv5f,2022-09-19 14:53:51.470,5ec96e3609117f0a67231842,2,83,32,40,14,51,Male,,,,,,1.0,learning,10.0,Xc,,red,,bolts,,,,Xc,red,bolts,,1.0,0.0,NA,left,811.6000000015,7.0,1.0,1.0,,,
77,0,,html-keyboard-response,77,367960,0.0-4.11-0.11,fpyzx7wv5f,2022-09-19 14:53:51.470,5ec96e3609117f0a67231842,2,83,32,40,14,51,Male,,,"<img src=""static/images/cards/stack_of_black_bolts.svg"" width=""175px"" height=""250px""></img>",,,,,,,,,,,,,,,,,,,,,,,,,,,,
78,0,,html-keyboard-response,78,369520,0.0-4.11-1.11,fpyzx7wv5f,2022-09-19 14:53:51.470,5ec96e3609117f0a67231842,2,83,32,40,14,51,Male,1058.700000003,,"
  <table>
  <tr height=300>
    <td width=300 height=300><img src=""static/images/cards/back_of_black_bolts.svg"" width=""175px"" height=""250px""></img></td>
    <td width=300 height=300><img src=""static/images/cards/back_of_black_bolts.svg"" width=""175px"" height=""250px""></img></td>
  </tr>
  <tr height=200>
    <td width=300><img src=""static/images/keys/z.svg"" width=""35%"" height=""75%""></img></td>
    <td width=300></td>
  </tr>
</table>
  ",90.0,1.0,,,,,,,,,,,,,,,,,,,,,,,,,,
79,0,,html-keyboard-response,79,371021,0.0-4.11-2.11,fpyzx7wv5f,2022-09-19 14:53:51.470,5ec96e3609117f0a67231842,2,83,32,40,14,51,Male,,,"
  <table>
  <tr height=300>
    <td width=300 height=300><img src=""static/images/cards/2_of_black_bolts.svg"" width=""175px"" height=""250px""></img></td>
    <td width=300 height=300><img src=""static/images/cards/back_of_black_bolts.svg"" width=""175px"" height=""250px""></img></td>
  </tr>
  <tr height=200>
    <td width=300><img src=""static/images/keys/z.svg"" width=""35%"" height=""75%""></img></td>
    <td width=300></td>
  </tr>
</table>
  ",,,,,,,,,,,,,,,,,,,,,,,,,,,,
80,0,,html-keyboard-response,80,372522,0.0-4.11-3.11,fpyzx7wv5f,2022-09-19 14:53:51.470,5ec96e3609117f0a67231842,2,83,32,40,14,51,Male,,,"<p style=""font-size:50px"">You win!
+10 points this round!</p>",,,,,,,,,,,,,,,,,,,,,,,,,,,,
81,0,,html-keyboard-response,81,373027,0.0-4.11-4.11,fpyzx7wv5f,2022-09-19 14:53:51.470,5ec96e3609117f0a67231842,2,83,32,40,14,51,Male,,,,,,1.0,learning,11.0,Xnc,,black,,bolts,,,,Xnc,black,bolts,,0.0,0.0,1,left,1058.700000003,2.0,0.0,1.0,,,
82,0,,html-keyboard-response,82,374527,0.0-4.12-0.12,fpyzx7wv5f,2022-09-19 14:53:51.470,5ec96e3609117f0a67231842,2,83,32,40,14,51,Male,,,"<img src=""static/images/cards/stack_of_black_stars.svg"" width=""175px"" height=""250px""></img>",,,,,,,,,,,,,,,,,,,,,,,,,,,,
83,0,,html-keyboard-response,83,376368,0.0-4.12-1.12,fpyzx7wv5f,2022-09-19 14:53:51.470,5ec96e3609117f0a67231842,2,83,32,40,14,51,Male,1339.3999999985,,"
  <table>
  <tr height=300>
    <td width=300 height=300><img src=""static/images/cards/back_of_black_stars.svg"" width=""175px"" height=""250px""></img></td>
    <td width=300 height=300><img src=""static/images/cards/back_of_black_stars.svg"" width=""175px"" height=""250px""></img></td>
  </tr>
  <tr height=200>
    <td width=300><img src=""static/images/keys/z.svg"" width=""35%"" height=""75%""></img></td>
    <td width=300><img src=""static/images/keys/m.svg"" width=""35%"" height=""75%""></img></td>
  </tr>
</table>
  ",90.0,1.0,,,,,,,,,,,,,,,,,,,,,,,,,,
84,0,,html-keyboard-response,84,377869,0.0-4.12-2.12,fpyzx7wv5f,2022-09-19 14:53:51.470,5ec96e3609117f0a67231842,2,83,32,40,14,51,Male,,,"
  <table>
  <tr height=300>
    <td width=300 height=300><img src=""static/images/cards/2_of_black_stars.svg"" width=""175px"" height=""250px""></img></td>
    <td width=300 height=300><img src=""static/images/cards/back_of_black_stars.svg"" width=""175px"" height=""250px""></img></td>
  </tr>
  <tr height=200>
    <td width=300><img src=""static/images/keys/z.svg"" width=""35%"" height=""75%""></img></td>
    <td width=300><img src=""static/images/keys/m.svg"" width=""35%"" height=""75%""></img></td>
  </tr>
</table>
  ",,,,,,,,,,,,,,,,,,,,,,,,,,,,
85,0,,html-keyboard-response,85,379370,0.0-4.12-3.12,fpyzx7wv5f,2022-09-19 14:53:51.470,5ec96e3609117f0a67231842,2,83,32,40,14,51,Male,,,"<p style=""font-size:50px"">You Lose!
No points this round.</p>",,,,,,,,,,,,,,,,,,,,,,,,,,,,
86,0,,html-keyboard-response,86,379875,0.0-4.12-4.12,fpyzx7wv5f,2022-09-19 14:53:51.470,5ec96e3609117f0a67231842,2,83,32,40,14,51,Male,,,,,,1.0,learning,12.0,A,,black,,stars,,,,A,black,stars,,1.0,1.0,NA,left,1339.3999999985,2.0,0.0,0.0,,,
87,0,,html-keyboard-response,87,381376,0.0-4.13-0.13,fpyzx7wv5f,2022-09-19 14:53:51.470,5ec96e3609117f0a67231842,2,83,32,40,14,51,Male,,,"<img src=""static/images/cards/stack_of_red_stars.svg"" width=""175px"" height=""250px""></img>",,,,,,,,,,,,,,,,,,,,,,,,,,,,
88,0,,html-keyboard-response,88,382891,0.0-4.13-1.13,fpyzx7wv5f,2022-09-19 14:53:51.470,5ec96e3609117f0a67231842,2,83,32,40,14,51,Male,1014.1000000015,,"
  <table>
  <tr height=300>
    <td width=300 height=300><img src=""static/images/cards/back_of_red_stars.svg"" width=""175px"" height=""250px""></img></td>
    <td width=300 height=300><img src=""static/images/cards/back_of_red_stars.svg"" width=""175px"" height=""250px""></img></td>
  </tr>
  <tr height=200>
    <td width=300><img src=""static/images/keys/z.svg"" width=""35%"" height=""75%""></img></td>
    <td width=300></td>
  </tr>
</table>
  ",90.0,1.0,,,,,,,,,,,,,,,,,,,,,,,,,,
89,0,,html-keyboard-response,89,384392,0.0-4.13-2.13,fpyzx7wv5f,2022-09-19 14:53:51.470,5ec96e3609117f0a67231842,2,83,32,40,14,51,Male,,,"
  <table>
  <tr height=300>
    <td width=300 height=300><img src=""static/images/cards/8_of_red_stars.svg"" width=""175px"" height=""250px""></img></td>
    <td width=300 height=300><img src=""static/images/cards/back_of_red_stars.svg"" width=""175px"" height=""250px""></img></td>
  </tr>
  <tr height=200>
    <td width=300><img src=""static/images/keys/z.svg"" width=""35%"" height=""75%""></img></td>
    <td width=300></td>
  </tr>
</table>
  ",,,,,,,,,,,,,,,,,,,,,,,,,,,,
90,0,,html-keyboard-response,90,385893,0.0-4.13-3.13,fpyzx7wv5f,2022-09-19 14:53:51.470,5ec96e3609117f0a67231842,2,83,32,40,14,51,Male,,,"<p style=""font-size:50px"">You win!
+10 points this round!</p>",,,,,,,,,,,,,,,,,,,,,,,,,,,,
91,0,,html-keyboard-response,91,386398,0.0-4.13-4.13,fpyzx7wv5f,2022-09-19 14:53:51.470,5ec96e3609117f0a67231842,2,83,32,40,14,51,Male,,,,,,1.0,learning,13.0,B,,red,,stars,,,,B,red,stars,,0.0,1.0,1,left,1014.1000000015,8.0,1.0,1.0,,,
92,0,,html-keyboard-response,92,387899,0.0-4.14-0.14,fpyzx7wv5f,2022-09-19 14:53:51.470,5ec96e3609117f0a67231842,2,83,32,40,14,51,Male,,,"<img src=""static/images/cards/stack_of_black_moons.svg"" width=""175px"" height=""250px""></img>",,,,,,,,,,,,,,,,,,,,,,,,,,,,
93,0,,html-keyboard-response,93,389808,0.0-4.14-1.14,fpyzx7wv5f,2022-09-19 14:53:51.470,5ec96e3609117f0a67231842,2,83,32,40,14,51,Male,1407.799999997,,"
  <table>
  <tr height=300>
    <td width=300 height=300><img src=""static/images/cards/back_of_black_moons.svg"" width=""175px"" height=""250px""></img></td>
    <td width=300 height=300><img src=""static/images/cards/back_of_black_moons.svg"" width=""175px"" height=""250px""></img></td>
  </tr>
  <tr height=200>
    <td width=300><img src=""static/images/keys/z.svg"" width=""35%"" height=""75%""></img></td>
    <td width=300><img src=""static/images/keys/m.svg"" width=""35%"" height=""75%""></img></td>
  </tr>
</table>
  ",90.0,1.0,,,,,,,,,,,,,,,,,,,,,,,,,,
94,0,,html-keyboard-response,94,391309,0.0-4.14-2.14,fpyzx7wv5f,2022-09-19 14:53:51.470,5ec96e3609117f0a67231842,2,83,32,40,14,51,Male,,,"
  <table>
  <tr height=300>
    <td width=300 height=300><img src=""static/images/cards/6_of_black_moons.svg"" width=""175px"" height=""250px""></img></td>
    <td width=300 height=300><img src=""static/images/cards/back_of_black_moons.svg"" width=""175px"" height=""250px""></img></td>
  </tr>
  <tr height=200>
    <td width=300><img src=""static/images/keys/z.svg"" width=""35%"" height=""75%""></img></td>
    <td width=300><img src=""static/images/keys/m.svg"" width=""35%"" height=""75%""></img></td>
  </tr>
</table>
  ",,,,,,,,,,,,,,,,,,,,,,,,,,,,
95,0,,html-keyboard-response,95,392810,0.0-4.14-3.14,fpyzx7wv5f,2022-09-19 14:53:51.470,5ec96e3609117f0a67231842,2,83,32,40,14,51,Male,,,"<p style=""font-size:50px"">You win!
+10 points this round!</p>",,,,,,,,,,,,,,,,,,,,,,,,,,,,
96,0,,html-keyboard-response,96,393315,0.0-4.14-4.14,fpyzx7wv5f,2022-09-19 14:53:51.470,5ec96e3609117f0a67231842,2,83,32,40,14,51,Male,,,,,,1.0,learning,14.0,C,,black,,moons,,,,C,black,moons,,1.0,0.0,NA,left,1407.799999997,6.0,1.0,1.0,,,
97,0,,html-keyboard-response,97,394815,0.0-4.15-0.15,fpyzx7wv5f,2022-09-19 14:53:51.470,5ec96e3609117f0a67231842,2,83,32,40,14,51,Male,,,"<img src=""static/images/cards/stack_of_red_moons.svg"" width=""175px"" height=""250px""></img>",,,,,,,,,,,,,,,,,,,,,,,,,,,,
98,0,,html-keyboard-response,98,396379,0.0-4.15-1.15,fpyzx7wv5f,2022-09-19 14:53:51.470,5ec96e3609117f0a67231842,2,83,32,40,14,51,Male,1062.200000003,,"
  <table>
  <tr height=300>
    <td width=300 height=300><img src=""static/images/cards/back_of_red_moons.svg"" width=""175px"" height=""250px""></img></td>
    <td width=300 height=300><img src=""static/images/cards/back_of_red_moons.svg"" width=""175px"" height=""250px""></img></td>
  </tr>
  <tr height=200>
    <td width=300></td>
    <td width=300><img src=""static/images/keys/m.svg"" width=""35%"" height=""75%""></img></td>
  </tr>
</table>
  ",77.0,1.0,,,,,,,,,,,,,,,,,,,,,,,,,,
99,0,,html-keyboard-response,99,397880,0.0-4.15-2.15,fpyzx7wv5f,2022-09-19 14:53:51.470,5ec96e3609117f0a67231842,2,83,32,40,14,51,Male,,,"
  <table>
  <tr height=300>
    <td width=300 height=300><img src=""static/images/cards/back_of_red_moons.svg"" width=""175px"" height=""250px""></img></td>
    <td width=300 height=300><img src=""static/images/cards/6_of_red_moons.svg"" width=""175px"" height=""250px""></img></td>
  </tr>
  <tr height=200>
    <td width=300></td>
    <td width=300><img src=""static/images/keys/m.svg"" width=""35%"" height=""75%""></img></td>
  </tr>
</table>
  ",,,,,,,,,,,,,,,,,,,,,,,,,,,,
100,0,,html-keyboard-response,100,399381,0.0-4.15-3.15,fpyzx7wv5f,2022-09-19 14:53:51.470,5ec96e3609117f0a67231842,2,83,32,40,14,51,Male,,,"<p style=""font-size:50px"">You Lose!
No points this round.</p>",,,,,,,,,,,,,,,,,,,,,,,,,,,,
101,0,,html-keyboard-response,101,399885,0.0-4.15-4.15,fpyzx7wv5f,2022-09-19 14:53:51.470,5ec96e3609117f0a67231842,2,83,32,40,14,51,Male,,,,,,1.0,learning,15.0,D,,red,,moons,,,,D,red,moons,,0.0,0.0,0,right,1062.200000003,6.0,1.0,0.0,,,
102,0,,html-keyboard-response,102,401386,0.0-4.16-0.16,fpyzx7wv5f,2022-09-19 14:53:51.470,5ec96e3609117f0a67231842,2,83,32,40,14,51,Male,,,"<img src=""static/images/cards/stack_of_red_bolts.svg"" width=""175px"" height=""250px""></img>",,,,,,,,,,,,,,,,,,,,,,,,,,,,
103,0,,html-keyboard-response,103,402729,0.0-4.16-1.16,fpyzx7wv5f,2022-09-19 14:53:51.470,5ec96e3609117f0a67231842,2,83,32,40,14,51,Male,841.799999997,,"
  <table>
  <tr height=300>
    <td width=300 height=300><img src=""static/images/cards/back_of_red_bolts.svg"" width=""175px"" height=""250px""></img></td>
    <td width=300 height=300><img src=""static/images/cards/back_of_red_bolts.svg"" width=""175px"" height=""250px""></img></td>
  </tr>
  <tr height=200>
    <td width=300><img src=""static/images/keys/z.svg"" width=""35%"" height=""75%""></img></td>
    <td width=300><img src=""static/images/keys/m.svg"" width=""35%"" height=""75%""></img></td>
  </tr>
</table>
  ",90.0,1.0,,,,,,,,,,,,,,,,,,,,,,,,,,
104,0,,html-keyboard-response,104,404230,0.0-4.16-2.16,fpyzx7wv5f,2022-09-19 14:53:51.470,5ec96e3609117f0a67231842,2,83,32,40,14,51,Male,,,"
  <table>
  <tr height=300>
    <td width=300 height=300><img src=""static/images/cards/3_of_red_bolts.svg"" width=""175px"" height=""250px""></img></td>
    <td width=300 height=300><img src=""static/images/cards/back_of_red_bolts.svg"" width=""175px"" height=""250px""></img></td>
  </tr>
  <tr height=200>
    <td width=300><img src=""static/images/keys/z.svg"" width=""35%"" height=""75%""></img></td>
    <td width=300><img src=""static/images/keys/m.svg"" width=""35%"" height=""75%""></img></td>
  </tr>
</table>
  ",,,,,,,,,,,,,,,,,,,,,,,,,,,,
105,0,,html-keyboard-response,105,405731,0.0-4.16-3.16,fpyzx7wv5f,2022-09-19 14:53:51.470,5ec96e3609117f0a67231842,2,83,32,40,14,51,Male,,,"<p style=""font-size:50px"">You win!
+10 points this round!</p>",,,,,,,,,,,,,,,,,,,,,,,,,,,,
106,0,,html-keyboard-response,106,406235,0.0-4.16-4.16,fpyzx7wv5f,2022-09-19 14:53:51.470,5ec96e3609117f0a67231842,2,83,32,40,14,51,Male,,,,,,1.0,learning,16.0,Xc,,red,,bolts,,,,Xc,red,bolts,,1.0,0.0,NA,left,841.799999997,3.0,0.0,1.0,,,
107,0,,html-keyboard-response,107,407736,0.0-4.17-0.17,fpyzx7wv5f,2022-09-19 14:53:51.470,5ec96e3609117f0a67231842,2,83,32,40,14,51,Male,,,"<img src=""static/images/cards/stack_of_black_bolts.svg"" width=""175px"" height=""250px""></img>",,,,,,,,,,,,,,,,,,,,,,,,,,,,
108,0,,html-keyboard-response,108,409057,0.0-4.17-1.17,fpyzx7wv5f,2022-09-19 14:53:51.470,5ec96e3609117f0a67231842,2,83,32,40,14,51,Male,819.599999994,,"
  <table>
  <tr height=300>
    <td width=300 height=300><img src=""static/images/cards/back_of_black_bolts.svg"" width=""175px"" height=""250px""></img></td>
    <td width=300 height=300><img src=""static/images/cards/back_of_black_bolts.svg"" width=""175px"" height=""250px""></img></td>
  </tr>
  <tr height=200>
    <td width=300></td>
    <td width=300><img src=""static/images/keys/m.svg"" width=""35%"" height=""75%""></img></td>
  </tr>
</table>
  ",77.0,1.0,,,,,,,,,,,,,,,,,,,,,,,,,,
109,0,,html-keyboard-response,109,410559,0.0-4.17-2.17,fpyzx7wv5f,2022-09-19 14:53:51.470,5ec96e3609117f0a67231842,2,83,32,40,14,51,Male,,,"
  <table>
  <tr height=300>
    <td width=300 height=300><img src=""static/images/cards/back_of_black_bolts.svg"" width=""175px"" height=""250px""></img></td>
    <td width=300 height=300><img src=""static/images/cards/4_of_black_bolts.svg"" width=""175px"" height=""250px""></img></td>
  </tr>
  <tr height=200>
    <td width=300></td>
    <td width=300><img src=""static/images/keys/m.svg"" width=""35%"" height=""75%""></img></td>
  </tr>
</table>
  ",,,,,,,,,,,,,,,,,,,,,,,,,,,,
110,0,,html-keyboard-response,110,412059,0.0-4.17-3.17,fpyzx7wv5f,2022-09-19 14:53:51.470,5ec96e3609117f0a67231842,2,83,32,40,14,51,Male,,,"<p style=""font-size:50px"">You win!
+10 points this round!</p>",,,,,,,,,,,,,,,,,,,,,,,,,,,,
111,0,,html-keyboard-response,111,412564,0.0-4.17-4.17,fpyzx7wv5f,2022-09-19 14:53:51.470,5ec96e3609117f0a67231842,2,83,32,40,14,51,Male,,,,,,1.0,learning,17.0,Xnc,,black,,bolts,,,,Xnc,black,bolts,,0.0,0.0,0,right,819.599999994,4.0,0.0,1.0,,,
112,0,,html-keyboard-response,112,414065,0.0-4.18-0.18,fpyzx7wv5f,2022-09-19 14:53:51.470,5ec96e3609117f0a67231842,2,83,32,40,14,51,Male,,,"<img src=""static/images/cards/stack_of_black_stars.svg"" width=""175px"" height=""250px""></img>",,,,,,,,,,,,,,,,,,,,,,,,,,,,
113,0,,html-keyboard-response,113,415426,0.0-4.18-1.18,fpyzx7wv5f,2022-09-19 14:53:51.470,5ec96e3609117f0a67231842,2,83,32,40,14,51,Male,859.900000006,,"
  <table>
  <tr height=300>
    <td width=300 height=300><img src=""static/images/cards/back_of_black_stars.svg"" width=""175px"" height=""250px""></img></td>
    <td width=300 height=300><img src=""static/images/cards/back_of_black_stars.svg"" width=""175px"" height=""250px""></img></td>
  </tr>
  <tr height=200>
    <td width=300><img src=""static/images/keys/z.svg"" width=""35%"" height=""75%""></img></td>
    <td width=300><img src=""static/images/keys/m.svg"" width=""35%"" height=""75%""></img></td>
  </tr>
</table>
  ",90.0,1.0,,,,,,,,,,,,,,,,,,,,,,,,,,
114,0,,html-keyboard-response,114,416927,0.0-4.18-2.18,fpyzx7wv5f,2022-09-19 14:53:51.470,5ec96e3609117f0a67231842,2,83,32,40,14,51,Male,,,"
  <table>
  <tr height=300>
    <td width=300 height=300><img src=""static/images/cards/10_of_black_stars.svg"" width=""175px"" height=""250px""></img></td>
    <td width=300 height=300><img src=""static/images/cards/back_of_black_stars.svg"" width=""175px"" height=""250px""></img></td>
  </tr>
  <tr height=200>
    <td width=300><img src=""static/images/keys/z.svg"" width=""35%"" height=""75%""></img></td>
    <td width=300><img src=""static/images/keys/m.svg"" width=""35%"" height=""75%""></img></td>
  </tr>
</table>
  ",,,,,,,,,,,,,,,,,,,,,,,,,,,,
115,0,,html-keyboard-response,115,418428,0.0-4.18-3.18,fpyzx7wv5f,2022-09-19 14:53:51.470,5ec96e3609117f0a67231842,2,83,32,40,14,51,Male,,,"<p style=""font-size:50px"">You win!
+10 points this round!</p>",,,,,,,,,,,,,,,,,,,,,,,,,,,,
116,0,,html-keyboard-response,116,418932,0.0-4.18-4.18,fpyzx7wv5f,2022-09-19 14:53:51.470,5ec96e3609117f0a67231842,2,83,32,40,14,51,Male,,,,,,1.0,learning,18.0,A,,black,,stars,,,,A,black,stars,,1.0,1.0,NA,left,859.900000006,10.0,1.0,1.0,,,
117,0,,html-keyboard-response,117,420433,0.0-4.19-0.19,fpyzx7wv5f,2022-09-19 14:53:51.470,5ec96e3609117f0a67231842,2,83,32,40,14,51,Male,,,"<img src=""static/images/cards/stack_of_red_stars.svg"" width=""175px"" height=""250px""></img>",,,,,,,,,,,,,,,,,,,,,,,,,,,,
118,0,,html-keyboard-response,118,421942,0.0-4.19-1.19,fpyzx7wv5f,2022-09-19 14:53:51.470,5ec96e3609117f0a67231842,2,83,32,40,14,51,Male,1007.6000000015,,"
  <table>
  <tr height=300>
    <td width=300 height=300><img src=""static/images/cards/back_of_red_stars.svg"" width=""175px"" height=""250px""></img></td>
    <td width=300 height=300><img src=""static/images/cards/back_of_red_stars.svg"" width=""175px"" height=""250px""></img></td>
  </tr>
  <tr height=200>
    <td width=300></td>
    <td width=300><img src=""static/images/keys/m.svg"" width=""35%"" height=""75%""></img></td>
  </tr>
</table>
  ",77.0,1.0,,,,,,,,,,,,,,,,,,,,,,,,,,
119,0,,html-keyboard-response,119,423443,0.0-4.19-2.19,fpyzx7wv5f,2022-09-19 14:53:51.470,5ec96e3609117f0a67231842,2,83,32,40,14,51,Male,,,"
  <table>
  <tr height=300>
    <td width=300 height=300><img src=""static/images/cards/back_of_red_stars.svg"" width=""175px"" height=""250px""></img></td>
    <td width=300 height=300><img src=""static/images/cards/3_of_red_stars.svg"" width=""175px"" height=""250px""></img></td>
  </tr>
  <tr height=200>
    <td width=300></td>
    <td width=300><img src=""static/images/keys/m.svg"" width=""35%"" height=""75%""></img></td>
  </tr>
</table>
  ",,,,,,,,,,,,,,,,,,,,,,,,,,,,
120,0,,html-keyboard-response,120,424944,0.0-4.19-3.19,fpyzx7wv5f,2022-09-19 14:53:51.470,5ec96e3609117f0a67231842,2,83,32,40,14,51,Male,,,"<p style=""font-size:50px"">You Lose!
No points this round.</p>",,,,,,,,,,,,,,,,,,,,,,,,,,,,
121,0,,html-keyboard-response,121,425449,0.0-4.19-4.19,fpyzx7wv5f,2022-09-19 14:53:51.470,5ec96e3609117f0a67231842,2,83,32,40,14,51,Male,,,,,,1.0,learning,19.0,B,,red,,stars,,,,B,red,stars,,0.0,1.0,0,right,1007.6000000015,3.0,0.0,0.0,,,
122,0,,html-keyboard-response,122,426949,0.0-4.20-0.20,fpyzx7wv5f,2022-09-19 14:53:51.470,5ec96e3609117f0a67231842,2,83,32,40,14,51,Male,,,"<img src=""static/images/cards/stack_of_black_moons.svg"" width=""175px"" height=""250px""></img>",,,,,,,,,,,,,,,,,,,,,,,,,,,,
123,0,,html-keyboard-response,123,428355,0.0-4.20-1.20,fpyzx7wv5f,2022-09-19 14:53:51.470,5ec96e3609117f0a67231842,2,83,32,40,14,51,Male,904.200000003,,"
  <table>
  <tr height=300>
    <td width=300 height=300><img src=""static/images/cards/back_of_black_moons.svg"" width=""175px"" height=""250px""></img></td>
    <td width=300 height=300><img src=""static/images/cards/back_of_black_moons.svg"" width=""175px"" height=""250px""></img></td>
  </tr>
  <tr height=200>
    <td width=300><img src=""static/images/keys/z.svg"" width=""35%"" height=""75%""></img></td>
    <td width=300><img src=""static/images/keys/m.svg"" width=""35%"" height=""75%""></img></td>
  </tr>
</table>
  ",90.0,1.0,,,,,,,,,,,,,,,,,,,,,,,,,,
124,0,,html-keyboard-response,124,429856,0.0-4.20-2.20,fpyzx7wv5f,2022-09-19 14:53:51.470,5ec96e3609117f0a67231842,2,83,32,40,14,51,Male,,,"
  <table>
  <tr height=300>
    <td width=300 height=300><img src=""static/images/cards/10_of_black_moons.svg"" width=""175px"" height=""250px""></img></td>
    <td width=300 height=300><img src=""static/images/cards/back_of_black_moons.svg"" width=""175px"" height=""250px""></img></td>
  </tr>
  <tr height=200>
    <td width=300><img src=""static/images/keys/z.svg"" width=""35%"" height=""75%""></img></td>
    <td width=300><img src=""static/images/keys/m.svg"" width=""35%"" height=""75%""></img></td>
  </tr>
</table>
  ",,,,,,,,,,,,,,,,,,,,,,,,,,,,
125,0,,html-keyboard-response,125,431357,0.0-4.20-3.20,fpyzx7wv5f,2022-09-19 14:53:51.470,5ec96e3609117f0a67231842,2,83,32,40,14,51,Male,,,"<p style=""font-size:50px"">You Lose!
No points this round.</p>",,,,,,,,,,,,,,,,,,,,,,,,,,,,
126,0,,html-keyboard-response,126,431861,0.0-4.20-4.20,fpyzx7wv5f,2022-09-19 14:53:51.470,5ec96e3609117f0a67231842,2,83,32,40,14,51,Male,,,,,,1.0,learning,20.0,C,,black,,moons,,,,C,black,moons,,1.0,0.0,NA,left,904.200000003,10.0,1.0,0.0,,,
127,0,,html-keyboard-response,127,433362,0.0-4.21-0.21,fpyzx7wv5f,2022-09-19 14:53:51.470,5ec96e3609117f0a67231842,2,83,32,40,14,51,Male,,,"<img src=""static/images/cards/stack_of_red_moons.svg"" width=""175px"" height=""250px""></img>",,,,,,,,,,,,,,,,,,,,,,,,,,,,
128,0,,html-keyboard-response,128,434909,0.0-4.21-1.21,fpyzx7wv5f,2022-09-19 14:53:51.470,5ec96e3609117f0a67231842,2,83,32,40,14,51,Male,1045.599999994,,"
  <table>
  <tr height=300>
    <td width=300 height=300><img src=""static/images/cards/back_of_red_moons.svg"" width=""175px"" height=""250px""></img></td>
    <td width=300 height=300><img src=""static/images/cards/back_of_red_moons.svg"" width=""175px"" height=""250px""></img></td>
  </tr>
  <tr height=200>
    <td width=300><img src=""static/images/keys/z.svg"" width=""35%"" height=""75%""></img></td>
    <td width=300></td>
  </tr>
</table>
  ",90.0,1.0,,,,,,,,,,,,,,,,,,,,,,,,,,
129,0,,html-keyboard-response,129,436410,0.0-4.21-2.21,fpyzx7wv5f,2022-09-19 14:53:51.470,5ec96e3609117f0a67231842,2,83,32,40,14,51,Male,,,"
  <table>
  <tr height=300>
    <td width=300 height=300><img src=""static/images/cards/1_of_red_moons.svg"" width=""175px"" height=""250px""></img></td>
    <td width=300 height=300><img src=""static/images/cards/back_of_red_moons.svg"" width=""175px"" height=""250px""></img></td>
  </tr>
  <tr height=200>
    <td width=300><img src=""static/images/keys/z.svg"" width=""35%"" height=""75%""></img></td>
    <td width=300></td>
  </tr>
</table>
  ",,,,,,,,,,,,,,,,,,,,,,,,,,,,
130,0,,html-keyboard-response,130,437911,0.0-4.21-3.21,fpyzx7wv5f,2022-09-19 14:53:51.470,5ec96e3609117f0a67231842,2,83,32,40,14,51,Male,,,"<p style=""font-size:50px"">You win!
+10 points this round!</p>",,,,,,,,,,,,,,,,,,,,,,,,,,,,
131,0,,html-keyboard-response,131,438416,0.0-4.21-4.21,fpyzx7wv5f,2022-09-19 14:53:51.470,5ec96e3609117f0a67231842,2,83,32,40,14,51,Male,,,,,,1.0,learning,21.0,D,,red,,moons,,,,D,red,moons,,0.0,0.0,1,left,1045.599999994,1.0,0.0,1.0,,,
132,0,,html-keyboard-response,132,439917,0.0-4.22-0.22,fpyzx7wv5f,2022-09-19 14:53:51.470,5ec96e3609117f0a67231842,2,83,32,40,14,51,Male,,,"<img src=""static/images/cards/stack_of_red_bolts.svg"" width=""175px"" height=""250px""></img>",,,,,,,,,,,,,,,,,,,,,,,,,,,,
133,0,,html-keyboard-response,133,441606,0.0-4.22-1.22,fpyzx7wv5f,2022-09-19 14:53:51.470,5ec96e3609117f0a67231842,2,83,32,40,14,51,Male,1188.1999999955,,"
  <table>
  <tr height=300>
    <td width=300 height=300><img src=""static/images/cards/back_of_red_bolts.svg"" width=""175px"" height=""250px""></img></td>
    <td width=300 height=300><img src=""static/images/cards/back_of_red_bolts.svg"" width=""175px"" height=""250px""></img></td>
  </tr>
  <tr height=200>
    <td width=300><img src=""static/images/keys/z.svg"" width=""35%"" height=""75%""></img></td>
    <td width=300><img src=""static/images/keys/m.svg"" width=""35%"" height=""75%""></img></td>
  </tr>
</table>
  ",90.0,1.0,,,,,,,,,,,,,,,,,,,,,,,,,,
134,0,,html-keyboard-response,134,443108,0.0-4.22-2.22,fpyzx7wv5f,2022-09-19 14:53:51.470,5ec96e3609117f0a67231842,2,83,32,40,14,51,Male,,,"
  <table>
  <tr height=300>
    <td width=300 height=300><img src=""static/images/cards/1_of_red_bolts.svg"" width=""175px"" height=""250px""></img></td>
    <td width=300 height=300><img src=""static/images/cards/back_of_red_bolts.svg"" width=""175px"" height=""250px""></img></td>
  </tr>
  <tr height=200>
    <td width=300><img src=""static/images/keys/z.svg"" width=""35%"" height=""75%""></img></td>
    <td width=300><img src=""static/images/keys/m.svg"" width=""35%"" height=""75%""></img></td>
  </tr>
</table>
  ",,,,,,,,,,,,,,,,,,,,,,,,,,,,
135,0,,html-keyboard-response,135,444608,0.0-4.22-3.22,fpyzx7wv5f,2022-09-19 14:53:51.470,5ec96e3609117f0a67231842,2,83,32,40,14,51,Male,,,"<p style=""font-size:50px"">You win!
+10 points this round!</p>",,,,,,,,,,,,,,,,,,,,,,,,,,,,
136,0,,html-keyboard-response,136,445113,0.0-4.22-4.22,fpyzx7wv5f,2022-09-19 14:53:51.470,5ec96e3609117f0a67231842,2,83,32,40,14,51,Male,,,,,,1.0,learning,22.0,Xc,,red,,bolts,,,,Xc,red,bolts,,1.0,0.0,NA,left,1188.1999999955,1.0,0.0,1.0,,,
137,0,,html-keyboard-response,137,446614,0.0-4.23-0.23,fpyzx7wv5f,2022-09-19 14:53:51.470,5ec96e3609117f0a67231842,2,83,32,40,14,51,Male,,,"<img src=""static/images/cards/stack_of_black_bolts.svg"" width=""175px"" height=""250px""></img>",,,,,,,,,,,,,,,,,,,,,,,,,,,,
138,0,,html-keyboard-response,138,448101,0.0-4.23-1.23,fpyzx7wv5f,2022-09-19 14:53:51.470,5ec96e3609117f0a67231842,2,83,32,40,14,51,Male,986.0,,"
  <table>
  <tr height=300>
    <td width=300 height=300><img src=""static/images/cards/back_of_black_bolts.svg"" width=""175px"" height=""250px""></img></td>
    <td width=300 height=300><img src=""static/images/cards/back_of_black_bolts.svg"" width=""175px"" height=""250px""></img></td>
  </tr>
  <tr height=200>
    <td width=300></td>
    <td width=300><img src=""static/images/keys/m.svg"" width=""35%"" height=""75%""></img></td>
  </tr>
</table>
  ",77.0,1.0,,,,,,,,,,,,,,,,,,,,,,,,,,
139,0,,html-keyboard-response,139,449602,0.0-4.23-2.23,fpyzx7wv5f,2022-09-19 14:53:51.470,5ec96e3609117f0a67231842,2,83,32,40,14,51,Male,,,"
  <table>
  <tr height=300>
    <td width=300 height=300><img src=""static/images/cards/back_of_black_bolts.svg"" width=""175px"" height=""250px""></img></td>
    <td width=300 height=300><img src=""static/images/cards/7_of_black_bolts.svg"" width=""175px"" height=""250px""></img></td>
  </tr>
  <tr height=200>
    <td width=300></td>
    <td width=300><img src=""static/images/keys/m.svg"" width=""35%"" height=""75%""></img></td>
  </tr>
</table>
  ",,,,,,,,,,,,,,,,,,,,,,,,,,,,
140,0,,html-keyboard-response,140,451103,0.0-4.23-3.23,fpyzx7wv5f,2022-09-19 14:53:51.470,5ec96e3609117f0a67231842,2,83,32,40,14,51,Male,,,"<p style=""font-size:50px"">You win!
+10 points this round!</p>",,,,,,,,,,,,,,,,,,,,,,,,,,,,
141,0,,html-keyboard-response,141,451608,0.0-4.23-4.23,fpyzx7wv5f,2022-09-19 14:53:51.470,5ec96e3609117f0a67231842,2,83,32,40,14,51,Male,,,,,,1.0,learning,23.0,Xnc,,black,,bolts,,,,Xnc,black,bolts,,0.0,0.0,0,right,986.0,7.0,1.0,1.0,,,
142,0,,call-function,142,451611,0.0-5.0,fpyzx7wv5f,2022-09-19 14:53:51.470,5ec96e3609117f0a67231842,2,83,32,40,14,51,Male,,,,,,,,,,,,,,,,,,,,,,,,,,,,,,,
143,0,,image-keyboard-response,143,456745,0.0-6.0-0.0,fpyzx7wv5f,2022-09-19 14:53:51.470,5ec96e3609117f0a67231842,2,83,32,40,14,51,Male,5132.799999997,,static/images/instructions_CB_2/Slide20.png,39.0,,,,,,,,,,,,,,,,,,,,,,,,,,,
144,0,,image-keyboard-response,144,476186,0.0-6.1-0.1,fpyzx7wv5f,2022-09-19 14:53:51.470,5ec96e3609117f0a67231842,2,83,32,40,14,51,Male,19441.0,,static/images/instructions_CB_2/Slide21.png,39.0,,,,,,,,,,,,,,,,,,,,,,,,,,,
145,0,,image-keyboard-response,145,494249,0.0-6.2-0.2,fpyzx7wv5f,2022-09-19 14:53:51.470,5ec96e3609117f0a67231842,2,83,32,40,14,51,Male,18062.299999997,,static/images/instructions_CB_2/Slide22.png,37.0,,,,,,,,,,,,,,,,,,,,,,,,,,,
146,0,,image-keyboard-response,146,510205,0.0-6.3-0.3,fpyzx7wv5f,2022-09-19 14:53:51.470,5ec96e3609117f0a67231842,2,83,32,40,14,51,Male,15954.1000000015,,static/images/instructions_CB_2/Slide21.png,37.0,,,,,,,,,,,,,,,,,,,,,,,,,,,
147,0,,image-keyboard-response,147,514753,0.0-6.4-0.4,fpyzx7wv5f,2022-09-19 14:53:51.470,5ec96e3609117f0a67231842,2,83,32,40,14,51,Male,4547.3000000045,,static/images/instructions_CB_2/Slide20.png,39.0,,,,,,,,,,,,,,,,,,,,,,,,,,,
148,0,,image-keyboard-response,148,526284,0.0-6.5-0.5,fpyzx7wv5f,2022-09-19 14:53:51.470,5ec96e3609117f0a67231842,2,83,32,40,14,51,Male,11530.799999997,,static/images/instructions_CB_2/Slide21.png,37.0,,,,,,,,,,,,,,,,,,,,,,,,,,,
149,0,,image-keyboard-response,149,530228,0.0-6.6-0.6,fpyzx7wv5f,2022-09-19 14:53:51.470,5ec96e3609117f0a67231842,2,83,32,40,14,51,Male,3942.6999999955,,static/images/instructions_CB_2/Slide20.png,39.0,,,,,,,,,,,,,,,,,,,,,,,,,,,
150,0,,image-keyboard-response,150,539719,0.0-6.7-0.7,fpyzx7wv5f,2022-09-19 14:53:51.470,5ec96e3609117f0a67231842,2,83,32,40,14,51,Male,9490.5,,static/images/instructions_CB_2/Slide21.png,37.0,,,,,,,,,,,,,,,,,,,,,,,,,,,
151,0,,image-keyboard-response,151,543738,0.0-6.8-0.8,fpyzx7wv5f,2022-09-19 14:53:51.470,5ec96e3609117f0a67231842,2,83,32,40,14,51,Male,4017.799999997,,static/images/instructions_CB_2/Slide20.png,39.0,,,,,,,,,,,,,,,,,,,,,,,,,,,
152,0,,image-keyboard-response,152,547192,0.0-6.9-0.9,fpyzx7wv5f,2022-09-19 14:53:51.470,5ec96e3609117f0a67231842,2,83,32,40,14,51,Male,3452.700000003,,static/images/instructions_CB_2/Slide21.png,37.0,,,,,,,,,,,,,,,,,,,,,,,,,,,
153,0,,image-keyboard-response,153,549170,0.0-6.10-0.10,fpyzx7wv5f,2022-09-19 14:53:51.470,5ec96e3609117f0a67231842,2,83,32,40,14,51,Male,1977.5,,static/images/instructions_CB_2/Slide20.png,39.0,,,,,,,,,,,,,,,,,,,,,,,,,,,
154,0,,image-keyboard-response,154,550671,0.0-6.11-0.11,fpyzx7wv5f,2022-09-19 14:53:51.470,5ec96e3609117f0a67231842,2,83,32,40,14,51,Male,1499.8999999985,,static/images/instructions_CB_2/Slide21.png,39.0,,,,,,,,,,,,,,,,,,,,,,,,,,,
155,0,,image-keyboard-response,155,557929,0.0-6.12-0.12,fpyzx7wv5f,2022-09-19 14:53:51.470,5ec96e3609117f0a67231842,2,83,32,40,14,51,Male,7257.1999999955,,static/images/instructions_CB_2/Slide22.png,37.0,,,,,,,,,,,,,,,,,,,,,,,,,,,
156,0,,image-keyboard-response,156,560243,0.0-6.13-0.13,fpyzx7wv5f,2022-09-19 14:53:51.470,5ec96e3609117f0a67231842,2,83,32,40,14,51,Male,2312.8999999985,,static/images/instructions_CB_2/Slide21.png,37.0,,,,,,,,,,,,,,,,,,,,,,,,,,,
157,0,,image-keyboard-response,157,567899,0.0-6.14-0.14,fpyzx7wv5f,2022-09-19 14:53:51.470,5ec96e3609117f0a67231842,2,83,32,40,14,51,Male,7655.8999999985,,static/images/instructions_CB_2/Slide20.png,39.0,,,,,,,,,,,,,,,,,,,,,,,,,,,
158,0,,image-keyboard-response,158,574388,0.0-6.15-0.15,fpyzx7wv5f,2022-09-19 14:53:51.470,5ec96e3609117f0a67231842,2,83,32,40,14,51,Male,6487.5,,static/images/instructions_CB_2/Slide21.png,37.0,,,,,,,,,,,,,,,,,,,,,,,,,,,
159,0,,image-keyboard-response,159,577966,0.0-6.16-0.16,fpyzx7wv5f,2022-09-19 14:53:51.470,5ec96e3609117f0a67231842,2,83,32,40,14,51,Male,3577.6999999955,,static/images/instructions_CB_2/Slide20.png,39.0,,,,,,,,,,,,,,,,,,,,,,,,,,,
160,0,,image-keyboard-response,160,580152,0.0-6.17-0.17,fpyzx7wv5f,2022-09-19 14:53:51.470,5ec96e3609117f0a67231842,2,83,32,40,14,51,Male,2184.599999994,,static/images/instructions_CB_2/Slide21.png,39.0,,,,,,,,,,,,,,,,,,,,,,,,,,,
161,0,,image-keyboard-response,161,581345,0.0-6.18-0.18,fpyzx7wv5f,2022-09-19 14:53:51.470,5ec96e3609117f0a67231842,2,83,32,40,14,51,Male,1192.1000000015,,static/images/instructions_CB_2/Slide22.png,39.0,,,,,,,,,,,,,,,,,,,,,,,,,,,
162,0,,image-keyboard-response,162,601589,0.0-6.19-0.19,fpyzx7wv5f,2022-09-19 14:53:51.470,5ec96e3609117f0a67231842,2,83,32,40,14,51,Male,20243.1000000015,,static/images/instructions_CB_2/Slide23.png,39.0,,,,,,,,,,,,,,,,,,,,,,,,,,,
163,0,,image-keyboard-response,163,605316,0.0-6.20-0.20,fpyzx7wv5f,2022-09-19 14:53:51.470,5ec96e3609117f0a67231842,2,83,32,40,14,51,Male,3726.5,,static/images/instructions_CB_2/Slide24.png,39.0,,,,,,,,,,,,,,,,,,,,,,,,,,,
164,0,,html-keyboard-response,164,610317,0.0-7.0-0.0,fpyzx7wv5f,2022-09-19 14:53:51.470,5ec96e3609117f0a67231842,2,83,32,40,14,51,Male,,,"
  <table>
  <tr height=300>
    <td width=300 height=300><img src=""static/images/cards/stack_of_red_stars.svg"" width=""175px"" height=""250px""></img></td>
    <td width=300 height=300><img src=""static/images/cards/stack_of_black_stars.svg"" width=""175px"" height=""250px""></img></td>
  </tr>
  <tr height=200>
    <td width=300><img src=""static/images/keys/w.svg"" width=""35%"" height=""75%""></img></td>
    <td width=300><img src=""static/images/keys/o.svg"" width=""35%"" height=""75%""></img></td>
  </tr>
</table>
  ",,,,,,,,,,,,,,,,,,,,,,,,,,,,
165,0,,html-keyboard-response,165,610818,0.0-7.0-1.0,fpyzx7wv5f,2022-09-19 14:53:51.470,5ec96e3609117f0a67231842,2,83,32,40,14,51,Male,,,,,,,,,,,,,,,,,,,,,,,,,,,,,,,
166,0,,html-keyboard-response,166,610819,0.0-7.0-2.0,fpyzx7wv5f,2022-09-19 14:53:51.470,5ec96e3609117f0a67231842,2,83,32,40,14,51,Male,,,,,,,,,,,,,,,,,,,,,,,,,,,,,,,
167,0,,html-keyboard-response,167,612319,0.0-7.0-3.0,fpyzx7wv5f,2022-09-19 14:53:51.470,5ec96e3609117f0a67231842,2,83,32,40,14,51,Male,,,"<p style=""font-size:50px"">Too slow!</p>",,,,,,,,,,,,,,,,,,,,,,,,,,,,
168,0,,html-keyboard-response,168,612824,0.0-7.0-4.0,fpyzx7wv5f,2022-09-19 14:53:51.470,5ec96e3609117f0a67231842,2,83,32,40,14,51,Male,,,,,,1.0,choice,0.0,A,B,red,black,stars,stars,B,A,,,,,0.0,0.0,0,,,7.0,1.0,1.0,,,
169,0,,html-keyboard-response,169,617221,0.0-7.1-0.1,fpyzx7wv5f,2022-09-19 14:53:51.470,5ec96e3609117f0a67231842,2,83,32,40,14,51,Male,4396.1000000015,,"
  <table>
  <tr height=300>
    <td width=300 height=300><img src=""static/images/cards/stack_of_black_moons.svg"" width=""175px"" height=""250px""></img></td>
    <td width=300 height=300><img src=""static/images/cards/stack_of_red_moons.svg"" width=""175px"" height=""250px""></img></td>
  </tr>
  <tr height=200>
    <td width=300><img src=""static/images/keys/w.svg"" width=""35%"" height=""75%""></img></td>
    <td width=300><img src=""static/images/keys/o.svg"" width=""35%"" height=""75%""></img></td>
  </tr>
</table>
  ",87.0,1.0,,,,,,,,,,,,,,,,,,,,,,,,,,
170,0,,html-keyboard-response,170,620722,0.0-7.1-1.1,fpyzx7wv5f,2022-09-19 14:53:51.470,5ec96e3609117f0a67231842,2,83,32,40,14,51,Male,,,"
  <table>
  <tr height=300>
    <td width=300 height=300><img src=""static/images/cards/back_of_black_moons.svg"" width=""175px"" height=""250px""></img></td>
    <td width=300 height=300><img src=""static/images/cards/back_of_black_moons.svg"" width=""175px"" height=""250px""></img></td>
  </tr>
  <tr height=200>
    <td width=300><img src=""static/images/keys/z.svg"" width=""35%"" height=""75%""></img></td>
    <td width=300><img src=""static/images/keys/m.svg"" width=""35%"" height=""75%""></img></td>
  </tr>
</table>
  ",,,,,,,,,,,,,,,,,,,,,,,,,,,,
171,0,,html-keyboard-response,171,620723,0.0-7.1-2.1,fpyzx7wv5f,2022-09-19 14:53:51.470,5ec96e3609117f0a67231842,2,83,32,40,14,51,Male,,,,,,,,,,,,,,,,,,,,,,,,,,,,,,,
172,0,,html-keyboard-response,172,622224,0.0-7.1-3.1,fpyzx7wv5f,2022-09-19 14:53:51.470,5ec96e3609117f0a67231842,2,83,32,40,14,51,Male,,,"<p style=""font-size:50px"">Too slow!</p>",,,,,,,,,,,,,,,,,,,,,,,,,,,,
173,0,,html-keyboard-response,173,622729,0.0-7.1-4.1,fpyzx7wv5f,2022-09-19 14:53:51.470,5ec96e3609117f0a67231842,2,83,32,40,14,51,Male,,,,,,1.0,choice,1.0,C,D,black,red,moons,moons,C,D,C,black,moons,4396.1000000015,1.0,0.0,NA,,,7.0,1.0,1.0,,,
174,0,,html-keyboard-response,174,624339,0.0-7.2-0.2,fpyzx7wv5f,2022-09-19 14:53:51.470,5ec96e3609117f0a67231842,2,83,32,40,14,51,Male,1609.3999999985,,"
  <table>
  <tr height=300>
    <td width=300 height=300><img src=""static/images/cards/stack_of_black_moons.svg"" width=""175px"" height=""250px""></img></td>
    <td width=300 height=300><img src=""static/images/cards/stack_of_red_moons.svg"" width=""175px"" height=""250px""></img></td>
  </tr>
  <tr height=200>
    <td width=300><img src=""static/images/keys/w.svg"" width=""35%"" height=""75%""></img></td>
    <td width=300><img src=""static/images/keys/o.svg"" width=""35%"" height=""75%""></img></td>
  </tr>
</table>
  ",87.0,1.0,,,,,,,,,,,,,,,,,,,,,,,,,,
175,0,,html-keyboard-response,175,626598,0.0-7.2-1.2,fpyzx7wv5f,2022-09-19 14:53:51.470,5ec96e3609117f0a67231842,2,83,32,40,14,51,Male,1758.200000003,,"
  <table>
  <tr height=300>
    <td width=300 height=300><img src=""static/images/cards/back_of_black_moons.svg"" width=""175px"" height=""250px""></img></td>
    <td width=300 height=300><img src=""static/images/cards/back_of_black_moons.svg"" width=""175px"" height=""250px""></img></td>
  </tr>
  <tr height=200>
    <td width=300><img src=""static/images/keys/z.svg"" width=""35%"" height=""75%""></img></td>
    <td width=300><img src=""static/images/keys/m.svg"" width=""35%"" height=""75%""></img></td>
  </tr>
</table>
  ",90.0,1.0,,,,,,,,,,,,,,,,,,,,,,,,,,
176,0,,html-keyboard-response,176,628100,0.0-7.2-2.2,fpyzx7wv5f,2022-09-19 14:53:51.470,5ec96e3609117f0a67231842,2,83,32,40,14,51,Male,,,"
  <table>
  <tr height=300>
    <td width=300 height=300><img src=""static/images/cards/6_of_black_moons.svg"" width=""175px"" height=""250px""></img></td>
    <td width=300 height=300><img src=""static/images/cards/back_of_black_moons.svg"" width=""175px"" height=""250px""></img></td>
  </tr>
  <tr height=200>
    <td width=300><img src=""static/images/keys/z.svg"" width=""35%"" height=""75%""></img></td>
    <td width=300><img src=""static/images/keys/m.svg"" width=""35%"" height=""75%""></img></td>
  </tr>
</table>
  ",,,,,,,,,,,,,,,,,,,,,,,,,,,,
177,0,,html-keyboard-response,177,629601,0.0-7.2-3.2,fpyzx7wv5f,2022-09-19 14:53:51.470,5ec96e3609117f0a67231842,2,83,32,40,14,51,Male,,,"<p style=""font-size:50px"">You Lose!
No points this round.</p>",,,,,,,,,,,,,,,,,,,,,,,,,,,,
178,0,,html-keyboard-response,178,630105,0.0-7.2-4.2,fpyzx7wv5f,2022-09-19 14:53:51.470,5ec96e3609117f0a67231842,2,83,32,40,14,51,Male,,,,,,1.0,choice,2.0,C,D,black,red,moons,moons,C,D,C,black,moons,1609.3999999985,1.0,0.0,NA,left,1758.200000003,6.0,1.0,0.0,,,
179,0,,html-keyboard-response,179,631966,0.0-7.3-0.3,fpyzx7wv5f,2022-09-19 14:53:51.470,5ec96e3609117f0a67231842,2,83,32,40,14,51,Male,1859.5,,"
  <table>
  <tr height=300>
    <td width=300 height=300><img src=""static/images/cards/stack_of_red_moons.svg"" width=""175px"" height=""250px""></img></td>
    <td width=300 height=300><img src=""static/images/cards/stack_of_black_stars.svg"" width=""175px"" height=""250px""></img></td>
  </tr>
  <tr height=200>
    <td width=300><img src=""static/images/keys/w.svg"" width=""35%"" height=""75%""></img></td>
    <td width=300><img src=""static/images/keys/o.svg"" width=""35%"" height=""75%""></img></td>
  </tr>
</table>
  ",79.0,1.0,,,,,,,,,,,,,,,,,,,,,,,,,,
180,0,,html-keyboard-response,180,633873,0.0-7.3-1.3,fpyzx7wv5f,2022-09-19 14:53:51.470,5ec96e3609117f0a67231842,2,83,32,40,14,51,Male,1406.299999997,,"
  <table>
  <tr height=300>
    <td width=300 height=300><img src=""static/images/cards/back_of_black_stars.svg"" width=""175px"" height=""250px""></img></td>
    <td width=300 height=300><img src=""static/images/cards/back_of_black_stars.svg"" width=""175px"" height=""250px""></img></td>
  </tr>
  <tr height=200>
    <td width=300><img src=""static/images/keys/z.svg"" width=""35%"" height=""75%""></img></td>
    <td width=300><img src=""static/images/keys/m.svg"" width=""35%"" height=""75%""></img></td>
  </tr>
</table>
  ",77.0,1.0,,,,,,,,,,,,,,,,,,,,,,,,,,
181,0,,html-keyboard-response,181,635376,0.0-7.3-2.3,fpyzx7wv5f,2022-09-19 14:53:51.470,5ec96e3609117f0a67231842,2,83,32,40,14,51,Male,,,"
  <table>
  <tr height=300>
    <td width=300 height=300><img src=""static/images/cards/back_of_black_stars.svg"" width=""175px"" height=""250px""></img></td>
    <td width=300 height=300><img src=""static/images/cards/2_of_black_stars.svg"" width=""175px"" height=""250px""></img></td>
  </tr>
  <tr height=200>
    <td width=300><img src=""static/images/keys/z.svg"" width=""35%"" height=""75%""></img></td>
    <td width=300><img src=""static/images/keys/m.svg"" width=""35%"" height=""75%""></img></td>
  </tr>
</table>
  ",,,,,,,,,,,,,,,,,,,,,,,,,,,,
182,0,,html-keyboard-response,182,636876,0.0-7.3-3.3,fpyzx7wv5f,2022-09-19 14:53:51.470,5ec96e3609117f0a67231842,2,83,32,40,14,51,Male,,,"<p style=""font-size:50px"">You Lose!
No points this round.</p>",,,,,,,,,,,,,,,,,,,,,,,,,,,,
183,0,,html-keyboard-response,183,637381,0.0-7.3-4.3,fpyzx7wv5f,2022-09-19 14:53:51.470,5ec96e3609117f0a67231842,2,83,32,40,14,51,Male,,,,,,1.0,choice,3.0,A,D,red,black,moons,stars,D,A,A,black,stars,1859.5,1.0,1.0,NA,right,1406.299999997,2.0,0.0,0.0,,,
184,0,,html-keyboard-response,184,639330,0.0-7.4-0.4,fpyzx7wv5f,2022-09-19 14:53:51.470,5ec96e3609117f0a67231842,2,83,32,40,14,51,Male,1948.099999994,,"
  <table>
  <tr height=300>
    <td width=300 height=300><img src=""static/images/cards/stack_of_black_moons.svg"" width=""175px"" height=""250px""></img></td>
    <td width=300 height=300><img src=""static/images/cards/stack_of_red_moons.svg"" width=""175px"" height=""250px""></img></td>
  </tr>
  <tr height=200>
    <td width=300><img src=""static/images/keys/w.svg"" width=""35%"" height=""75%""></img></td>
    <td width=300><img src=""static/images/keys/o.svg"" width=""35%"" height=""75%""></img></td>
  </tr>
</table>
  ",79.0,1.0,,,,,,,,,,,,,,,,,,,,,,,,,,
185,0,,html-keyboard-response,185,641628,0.0-7.4-1.4,fpyzx7wv5f,2022-09-19 14:53:51.470,5ec96e3609117f0a67231842,2,83,32,40,14,51,Male,1796.8999999985,,"
  <table>
  <tr height=300>
    <td width=300 height=300><img src=""static/images/cards/back_of_red_moons.svg"" width=""175px"" height=""250px""></img></td>
    <td width=300 height=300><img src=""static/images/cards/back_of_red_moons.svg"" width=""175px"" height=""250px""></img></td>
  </tr>
  <tr height=200>
    <td width=300><img src=""static/images/keys/z.svg"" width=""35%"" height=""75%""></img></td>
    <td width=300></td>
  </tr>
</table>
  ",90.0,1.0,,,,,,,,,,,,,,,,,,,,,,,,,,
186,0,,html-keyboard-response,186,643129,0.0-7.4-2.4,fpyzx7wv5f,2022-09-19 14:53:51.470,5ec96e3609117f0a67231842,2,83,32,40,14,51,Male,,,"
  <table>
  <tr height=300>
    <td width=300 height=300><img src=""static/images/cards/2_of_red_moons.svg"" width=""175px"" height=""250px""></img></td>
    <td width=300 height=300><img src=""static/images/cards/back_of_red_moons.svg"" width=""175px"" height=""250px""></img></td>
  </tr>
  <tr height=200>
    <td width=300><img src=""static/images/keys/z.svg"" width=""35%"" height=""75%""></img></td>
    <td width=300></td>
  </tr>
</table>
  ",,,,,,,,,,,,,,,,,,,,,,,,,,,,
187,0,,html-keyboard-response,187,644630,0.0-7.4-3.4,fpyzx7wv5f,2022-09-19 14:53:51.470,5ec96e3609117f0a67231842,2,83,32,40,14,51,Male,,,"<p style=""font-size:50px"">You win!
+10 points this round!</p>",,,,,,,,,,,,,,,,,,,,,,,,,,,,
188,0,,html-keyboard-response,188,645135,0.0-7.4-4.4,fpyzx7wv5f,2022-09-19 14:53:51.470,5ec96e3609117f0a67231842,2,83,32,40,14,51,Male,,,,,,1.0,choice,4.0,C,D,black,red,moons,moons,C,D,D,red,moons,1948.099999994,0.0,0.0,1,left,1796.8999999985,2.0,0.0,1.0,,,
189,0,,html-keyboard-response,189,646960,0.0-7.5-0.5,fpyzx7wv5f,2022-09-19 14:53:51.470,5ec96e3609117f0a67231842,2,83,32,40,14,51,Male,1823.6999999955,,"
  <table>
  <tr height=300>
    <td width=300 height=300><img src=""static/images/cards/stack_of_red_moons.svg"" width=""175px"" height=""250px""></img></td>
    <td width=300 height=300><img src=""static/images/cards/stack_of_red_stars.svg"" width=""175px"" height=""250px""></img></td>
  </tr>
  <tr height=200>
    <td width=300><img src=""static/images/keys/w.svg"" width=""35%"" height=""75%""></img></td>
    <td width=300><img src=""static/images/keys/o.svg"" width=""35%"" height=""75%""></img></td>
  </tr>
</table>
  ",79.0,1.0,,,,,,,,,,,,,,,,,,,,,,,,,,
190,0,,html-keyboard-response,190,648681,0.0-7.5-1.5,fpyzx7wv5f,2022-09-19 14:53:51.470,5ec96e3609117f0a67231842,2,83,32,40,14,51,Male,1220.099999994,,"
  <table>
  <tr height=300>
    <td width=300 height=300><img src=""static/images/cards/back_of_red_stars.svg"" width=""175px"" height=""250px""></img></td>
    <td width=300 height=300><img src=""static/images/cards/back_of_red_stars.svg"" width=""175px"" height=""250px""></img></td>
  </tr>
  <tr height=200>
    <td width=300><img src=""static/images/keys/z.svg"" width=""35%"" height=""75%""></img></td>
    <td width=300></td>
  </tr>
</table>
  ",90.0,1.0,,,,,,,,,,,,,,,,,,,,,,,,,,
191,0,,html-keyboard-response,191,650182,0.0-7.5-2.5,fpyzx7wv5f,2022-09-19 14:53:51.470,5ec96e3609117f0a67231842,2,83,32,40,14,51,Male,,,"
  <table>
  <tr height=300>
    <td width=300 height=300><img src=""static/images/cards/3_of_red_stars.svg"" width=""175px"" height=""250px""></img></td>
    <td width=300 height=300><img src=""static/images/cards/back_of_red_stars.svg"" width=""175px"" height=""250px""></img></td>
  </tr>
  <tr height=200>
    <td width=300><img src=""static/images/keys/z.svg"" width=""35%"" height=""75%""></img></td>
    <td width=300></td>
  </tr>
</table>
  ",,,,,,,,,,,,,,,,,,,,,,,,,,,,
192,0,,html-keyboard-response,192,651683,0.0-7.5-3.5,fpyzx7wv5f,2022-09-19 14:53:51.470,5ec96e3609117f0a67231842,2,83,32,40,14,51,Male,,,"<p style=""font-size:50px"">You Lose!
No points this round.</p>",,,,,,,,,,,,,,,,,,,,,,,,,,,,
193,0,,html-keyboard-response,193,652188,0.0-7.5-4.5,fpyzx7wv5f,2022-09-19 14:53:51.470,5ec96e3609117f0a67231842,2,83,32,40,14,51,Male,,,,,,1.0,choice,5.0,B,D,red,red,moons,stars,D,B,B,red,stars,1823.6999999955,0.0,1.0,1,left,1220.099999994,3.0,0.0,0.0,,,
194,0,,html-keyboard-response,194,654093,0.0-7.6-0.6,fpyzx7wv5f,2022-09-19 14:53:51.470,5ec96e3609117f0a67231842,2,83,32,40,14,51,Male,1903.8999999985,,"
  <table>
  <tr height=300>
    <td width=300 height=300><img src=""static/images/cards/stack_of_black_stars.svg"" width=""175px"" height=""250px""></img></td>
    <td width=300 height=300><img src=""static/images/cards/stack_of_red_moons.svg"" width=""175px"" height=""250px""></img></td>
  </tr>
  <tr height=200>
    <td width=300><img src=""static/images/keys/w.svg"" width=""35%"" height=""75%""></img></td>
    <td width=300><img src=""static/images/keys/o.svg"" width=""35%"" height=""75%""></img></td>
  </tr>
</table>
  ",87.0,1.0,,,,,,,,,,,,,,,,,,,,,,,,,,
195,0,,html-keyboard-response,195,656085,0.0-7.6-1.6,fpyzx7wv5f,2022-09-19 14:53:51.470,5ec96e3609117f0a67231842,2,83,32,40,14,51,Male,1491.0,,"
  <table>
  <tr height=300>
    <td width=300 height=300><img src=""static/images/cards/back_of_black_stars.svg"" width=""175px"" height=""250px""></img></td>
    <td width=300 height=300><img src=""static/images/cards/back_of_black_stars.svg"" width=""175px"" height=""250px""></img></td>
  </tr>
  <tr height=200>
    <td width=300><img src=""static/images/keys/z.svg"" width=""35%"" height=""75%""></img></td>
    <td width=300><img src=""static/images/keys/m.svg"" width=""35%"" height=""75%""></img></td>
  </tr>
</table>
  ",90.0,1.0,,,,,,,,,,,,,,,,,,,,,,,,,,
196,0,,html-keyboard-response,196,657586,0.0-7.6-2.6,fpyzx7wv5f,2022-09-19 14:53:51.470,5ec96e3609117f0a67231842,2,83,32,40,14,51,Male,,,"
  <table>
  <tr height=300>
    <td width=300 height=300><img src=""static/images/cards/7_of_black_stars.svg"" width=""175px"" height=""250px""></img></td>
    <td width=300 height=300><img src=""static/images/cards/back_of_black_stars.svg"" width=""175px"" height=""250px""></img></td>
  </tr>
  <tr height=200>
    <td width=300><img src=""static/images/keys/z.svg"" width=""35%"" height=""75%""></img></td>
    <td width=300><img src=""static/images/keys/m.svg"" width=""35%"" height=""75%""></img></td>
  </tr>
</table>
  ",,,,,,,,,,,,,,,,,,,,,,,,,,,,
197,0,,html-keyboard-response,197,659087,0.0-7.6-3.6,fpyzx7wv5f,2022-09-19 14:53:51.470,5ec96e3609117f0a67231842,2,83,32,40,14,51,Male,,,"<p style=""font-size:50px"">You win!
+10 points this round!</p>",,,,,,,,,,,,,,,,,,,,,,,,,,,,
198,0,,html-keyboard-response,198,659591,0.0-7.6-4.6,fpyzx7wv5f,2022-09-19 14:53:51.470,5ec96e3609117f0a67231842,2,83,32,40,14,51,Male,,,,,,1.0,choice,6.0,A,D,black,red,stars,moons,A,D,A,black,stars,1903.8999999985,1.0,1.0,NA,left,1491.0,7.0,1.0,1.0,,,
199,0,,html-keyboard-response,199,661418,0.0-7.7-0.7,fpyzx7wv5f,2022-09-19 14:53:51.470,5ec96e3609117f0a67231842,2,83,32,40,14,51,Male,1826.1999999955,,"
  <table>
  <tr height=300>
    <td width=300 height=300><img src=""static/images/cards/stack_of_red_bolts.svg"" width=""175px"" height=""250px""></img></td>
    <td width=300 height=300><img src=""static/images/cards/stack_of_black_stars.svg"" width=""175px"" height=""250px""></img></td>
  </tr>
  <tr height=200>
    <td width=300><img src=""static/images/keys/w.svg"" width=""35%"" height=""75%""></img></td>
    <td width=300><img src=""static/images/keys/o.svg"" width=""35%"" height=""75%""></img></td>
  </tr>
</table>
  ",79.0,1.0,,,,,,,,,,,,,,,,,,,,,,,,,,
200,0,,html-keyboard-response,200,663116,0.0-7.7-1.7,fpyzx7wv5f,2022-09-19 14:53:51.470,5ec96e3609117f0a67231842,2,83,32,40,14,51,Male,1196.0,,"
  <table>
  <tr height=300>
    <td width=300 height=300><img src=""static/images/cards/back_of_black_stars.svg"" width=""175px"" height=""250px""></img></td>
    <td width=300 height=300><img src=""static/images/cards/back_of_black_stars.svg"" width=""175px"" height=""250px""></img></td>
  </tr>
  <tr height=200>
    <td width=300><img src=""static/images/keys/z.svg"" width=""35%"" height=""75%""></img></td>
    <td width=300><img src=""static/images/keys/m.svg"" width=""35%"" height=""75%""></img></td>
  </tr>
</table>
  ",90.0,1.0,,,,,,,,,,,,,,,,,,,,,,,,,,
201,0,,html-keyboard-response,201,664617,0.0-7.7-2.7,fpyzx7wv5f,2022-09-19 14:53:51.470,5ec96e3609117f0a67231842,2,83,32,40,14,51,Male,,,"
  <table>
  <tr height=300>
    <td width=300 height=300><img src=""static/images/cards/8_of_black_stars.svg"" width=""175px"" height=""250px""></img></td>
    <td width=300 height=300><img src=""static/images/cards/back_of_black_stars.svg"" width=""175px"" height=""250px""></img></td>
  </tr>
  <tr height=200>
    <td width=300><img src=""static/images/keys/z.svg"" width=""35%"" height=""75%""></img></td>
    <td width=300><img src=""static/images/keys/m.svg"" width=""35%"" height=""75%""></img></td>
  </tr>
</table>
  ",,,,,,,,,,,,,,,,,,,,,,,,,,,,
202,0,,html-keyboard-response,202,666118,0.0-7.7-3.7,fpyzx7wv5f,2022-09-19 14:53:51.470,5ec96e3609117f0a67231842,2,83,32,40,14,51,Male,,,"<p style=""font-size:50px"">You win!
+10 points this round!</p>",,,,,,,,,,,,,,,,,,,,,,,,,,,,
203,0,,html-keyboard-response,203,666622,0.0-7.7-4.7,fpyzx7wv5f,2022-09-19 14:53:51.470,5ec96e3609117f0a67231842,2,83,32,40,14,51,Male,,,,,,1.0,choice,7.0,A,Xc,red,black,bolts,stars,Xc,A,A,black,stars,1826.1999999955,1.0,1.0,NA,left,1196.0,8.0,1.0,1.0,,,
204,0,,html-keyboard-response,204,668844,0.0-7.8-0.8,fpyzx7wv5f,2022-09-19 14:53:51.470,5ec96e3609117f0a67231842,2,83,32,40,14,51,Male,2221.099999994,,"
  <table>
  <tr height=300>
    <td width=300 height=300><img src=""static/images/cards/stack_of_red_moons.svg"" width=""175px"" height=""250px""></img></td>
    <td width=300 height=300><img src=""static/images/cards/stack_of_black_moons.svg"" width=""175px"" height=""250px""></img></td>
  </tr>
  <tr height=200>
    <td width=300><img src=""static/images/keys/w.svg"" width=""35%"" height=""75%""></img></td>
    <td width=300><img src=""static/images/keys/o.svg"" width=""35%"" height=""75%""></img></td>
  </tr>
</table>
  ",87.0,1.0,,,,,,,,,,,,,,,,,,,,,,,,,,
205,0,,html-keyboard-response,205,670718,0.0-7.8-1.8,fpyzx7wv5f,2022-09-19 14:53:51.470,5ec96e3609117f0a67231842,2,83,32,40,14,51,Male,1372.3999999985,,"
  <table>
  <tr height=300>
    <td width=300 height=300><img src=""static/images/cards/back_of_red_moons.svg"" width=""175px"" height=""250px""></img></td>
    <td width=300 height=300><img src=""static/images/cards/back_of_red_moons.svg"" width=""175px"" height=""250px""></img></td>
  </tr>
  <tr height=200>
    <td width=300><img src=""static/images/keys/z.svg"" width=""35%"" height=""75%""></img></td>
    <td width=300></td>
  </tr>
</table>
  ",90.0,1.0,,,,,,,,,,,,,,,,,,,,,,,,,,
206,0,,html-keyboard-response,206,672219,0.0-7.8-2.8,fpyzx7wv5f,2022-09-19 14:53:51.470,5ec96e3609117f0a67231842,2,83,32,40,14,51,Male,,,"
  <table>
  <tr height=300>
    <td width=300 height=300><img src=""static/images/cards/1_of_red_moons.svg"" width=""175px"" height=""250px""></img></td>
    <td width=300 height=300><img src=""static/images/cards/back_of_red_moons.svg"" width=""175px"" height=""250px""></img></td>
  </tr>
  <tr height=200>
    <td width=300><img src=""static/images/keys/z.svg"" width=""35%"" height=""75%""></img></td>
    <td width=300></td>
  </tr>
</table>
  ",,,,,,,,,,,,,,,,,,,,,,,,,,,,
207,0,,html-keyboard-response,207,673720,0.0-7.8-3.8,fpyzx7wv5f,2022-09-19 14:53:51.470,5ec96e3609117f0a67231842,2,83,32,40,14,51,Male,,,"<p style=""font-size:50px"">You win!
+10 points this round!</p>",,,,,,,,,,,,,,,,,,,,,,,,,,,,
208,0,,html-keyboard-response,208,674224,0.0-7.8-4.8,fpyzx7wv5f,2022-09-19 14:53:51.470,5ec96e3609117f0a67231842,2,83,32,40,14,51,Male,,,,,,1.0,choice,8.0,C,D,red,black,moons,moons,D,C,D,red,moons,2221.099999994,0.0,0.0,1,left,1372.3999999985,1.0,0.0,1.0,,,
209,0,,html-keyboard-response,209,676500,0.0-7.9-0.9,fpyzx7wv5f,2022-09-19 14:53:51.470,5ec96e3609117f0a67231842,2,83,32,40,14,51,Male,2274.1000000015,,"
  <table>
  <tr height=300>
    <td width=300 height=300><img src=""static/images/cards/stack_of_red_stars.svg"" width=""175px"" height=""250px""></img></td>
    <td width=300 height=300><img src=""static/images/cards/stack_of_red_moons.svg"" width=""175px"" height=""250px""></img></td>
  </tr>
  <tr height=200>
    <td width=300><img src=""static/images/keys/w.svg"" width=""35%"" height=""75%""></img></td>
    <td width=300><img src=""static/images/keys/o.svg"" width=""35%"" height=""75%""></img></td>
  </tr>
</table>
  ",87.0,1.0,,,,,,,,,,,,,,,,,,,,,,,,,,
210,0,,html-keyboard-response,210,680001,0.0-7.9-1.9,fpyzx7wv5f,2022-09-19 14:53:51.470,5ec96e3609117f0a67231842,2,83,32,40,14,51,Male,,,"
  <table>
  <tr height=300>
    <td width=300 height=300><img src=""static/images/cards/back_of_red_stars.svg"" width=""175px"" height=""250px""></img></td>
    <td width=300 height=300><img src=""static/images/cards/back_of_red_stars.svg"" width=""175px"" height=""250px""></img></td>
  </tr>
  <tr height=200>
    <td width=300><img src=""static/images/keys/z.svg"" width=""35%"" height=""75%""></img></td>
    <td width=300></td>
  </tr>
</table>
  ",,,,,,,,,,,,,,,,,,,,,,,,,,,,
211,0,,html-keyboard-response,211,680002,0.0-7.9-2.9,fpyzx7wv5f,2022-09-19 14:53:51.470,5ec96e3609117f0a67231842,2,83,32,40,14,51,Male,,,,,,,,,,,,,,,,,,,,,,,,,,,,,,,
212,0,,html-keyboard-response,212,681503,0.0-7.9-3.9,fpyzx7wv5f,2022-09-19 14:53:51.470,5ec96e3609117f0a67231842,2,83,32,40,14,51,Male,,,"<p style=""font-size:50px"">Too slow!</p>",,,,,,,,,,,,,,,,,,,,,,,,,,,,
213,0,,html-keyboard-response,213,682008,0.0-7.9-4.9,fpyzx7wv5f,2022-09-19 14:53:51.470,5ec96e3609117f0a67231842,2,83,32,40,14,51,Male,,,,,,1.0,choice,9.0,B,D,red,red,stars,moons,B,D,B,red,stars,2274.1000000015,0.0,1.0,1,,,1.0,0.0,1.0,,,
214,0,,html-keyboard-response,214,683858,0.0-7.10-0.10,fpyzx7wv5f,2022-09-19 14:53:51.470,5ec96e3609117f0a67231842,2,83,32,40,14,51,Male,1849.5,,"
  <table>
  <tr height=300>
    <td width=300 height=300><img src=""static/images/cards/stack_of_red_moons.svg"" width=""175px"" height=""250px""></img></td>
    <td width=300 height=300><img src=""static/images/cards/stack_of_red_stars.svg"" width=""175px"" height=""250px""></img></td>
  </tr>
  <tr height=200>
    <td width=300><img src=""static/images/keys/w.svg"" width=""35%"" height=""75%""></img></td>
    <td width=300><img src=""static/images/keys/o.svg"" width=""35%"" height=""75%""></img></td>
  </tr>
</table>
  ",79.0,1.0,,,,,,,,,,,,,,,,,,,,,,,,,,
215,0,,html-keyboard-response,215,685436,0.0-7.10-1.10,fpyzx7wv5f,2022-09-19 14:53:51.470,5ec96e3609117f0a67231842,2,83,32,40,14,51,Male,1076.3000000045,,"
  <table>
  <tr height=300>
    <td width=300 height=300><img src=""static/images/cards/back_of_red_stars.svg"" width=""175px"" height=""250px""></img></td>
    <td width=300 height=300><img src=""static/images/cards/back_of_red_stars.svg"" width=""175px"" height=""250px""></img></td>
  </tr>
  <tr height=200>
    <td width=300><img src=""static/images/keys/z.svg"" width=""35%"" height=""75%""></img></td>
    <td width=300></td>
  </tr>
</table>
  ",90.0,1.0,,,,,,,,,,,,,,,,,,,,,,,,,,
216,0,,html-keyboard-response,216,686937,0.0-7.10-2.10,fpyzx7wv5f,2022-09-19 14:53:51.470,5ec96e3609117f0a67231842,2,83,32,40,14,51,Male,,,"
  <table>
  <tr height=300>
    <td width=300 height=300><img src=""static/images/cards/4_of_red_stars.svg"" width=""175px"" height=""250px""></img></td>
    <td width=300 height=300><img src=""static/images/cards/back_of_red_stars.svg"" width=""175px"" height=""250px""></img></td>
  </tr>
  <tr height=200>
    <td width=300><img src=""static/images/keys/z.svg"" width=""35%"" height=""75%""></img></td>
    <td width=300></td>
  </tr>
</table>
  ",,,,,,,,,,,,,,,,,,,,,,,,,,,,
217,0,,html-keyboard-response,217,688438,0.0-7.10-3.10,fpyzx7wv5f,2022-09-19 14:53:51.470,5ec96e3609117f0a67231842,2,83,32,40,14,51,Male,,,"<p style=""font-size:50px"">You Lose!
No points this round.</p>",,,,,,,,,,,,,,,,,,,,,,,,,,,,
218,0,,html-keyboard-response,218,688943,0.0-7.10-4.10,fpyzx7wv5f,2022-09-19 14:53:51.470,5ec96e3609117f0a67231842,2,83,32,40,14,51,Male,,,,,,1.0,choice,10.0,B,D,red,red,moons,stars,D,B,B,red,stars,1849.5,0.0,1.0,1,left,1076.3000000045,4.0,0.0,0.0,,,
219,0,,html-keyboard-response,219,690530,0.0-7.11-0.11,fpyzx7wv5f,2022-09-19 14:53:51.470,5ec96e3609117f0a67231842,2,83,32,40,14,51,Male,1585.6000000015,,"
  <table>
  <tr height=300>
    <td width=300 height=300><img src=""static/images/cards/stack_of_red_stars.svg"" width=""175px"" height=""250px""></img></td>
    <td width=300 height=300><img src=""static/images/cards/stack_of_black_moons.svg"" width=""175px"" height=""250px""></img></td>
  </tr>
  <tr height=200>
    <td width=300><img src=""static/images/keys/w.svg"" width=""35%"" height=""75%""></img></td>
    <td width=300><img src=""static/images/keys/o.svg"" width=""35%"" height=""75%""></img></td>
  </tr>
</table>
  ",87.0,1.0,,,,,,,,,,,,,,,,,,,,,,,,,,
220,0,,html-keyboard-response,220,692999,0.0-7.11-1.11,fpyzx7wv5f,2022-09-19 14:53:51.470,5ec96e3609117f0a67231842,2,83,32,40,14,51,Male,1968.0,,"
  <table>
  <tr height=300>
    <td width=300 height=300><img src=""static/images/cards/back_of_red_stars.svg"" width=""175px"" height=""250px""></img></td>
    <td width=300 height=300><img src=""static/images/cards/back_of_red_stars.svg"" width=""175px"" height=""250px""></img></td>
  </tr>
  <tr height=200>
    <td width=300></td>
    <td width=300><img src=""static/images/keys/m.svg"" width=""35%"" height=""75%""></img></td>
  </tr>
</table>
  ",77.0,2.0,,,,,,,,,,,,,,,,,,,,,,,,,,
221,0,,html-keyboard-response,221,694500,0.0-7.11-2.11,fpyzx7wv5f,2022-09-19 14:53:51.470,5ec96e3609117f0a67231842,2,83,32,40,14,51,Male,,,"
  <table>
  <tr height=300>
    <td width=300 height=300><img src=""static/images/cards/back_of_red_stars.svg"" width=""175px"" height=""250px""></img></td>
    <td width=300 height=300><img src=""static/images/cards/7_of_red_stars.svg"" width=""175px"" height=""250px""></img></td>
  </tr>
  <tr height=200>
    <td width=300></td>
    <td width=300><img src=""static/images/keys/m.svg"" width=""35%"" height=""75%""></img></td>
  </tr>
</table>
  ",,,,,,,,,,,,,,,,,,,,,,,,,,,,
222,0,,html-keyboard-response,222,696002,0.0-7.11-3.11,fpyzx7wv5f,2022-09-19 14:53:51.470,5ec96e3609117f0a67231842,2,83,32,40,14,51,Male,,,"<p style=""font-size:50px"">You win!
+10 points this round!</p>",,,,,,,,,,,,,,,,,,,,,,,,,,,,
223,0,,html-keyboard-response,223,696507,0.0-7.11-4.11,fpyzx7wv5f,2022-09-19 14:53:51.470,5ec96e3609117f0a67231842,2,83,32,40,14,51,Male,,,,,,1.0,choice,11.0,B,C,red,black,stars,moons,B,C,B,red,stars,1585.6000000015,0.0,1.0,0,right,1968.0,7.0,1.0,1.0,,,
224,0,,html-keyboard-response,224,698963,0.0-7.12-0.12,fpyzx7wv5f,2022-09-19 14:53:51.470,5ec96e3609117f0a67231842,2,83,32,40,14,51,Male,2455.5,,"
  <table>
  <tr height=300>
    <td width=300 height=300><img src=""static/images/cards/stack_of_black_moons.svg"" width=""175px"" height=""250px""></img></td>
    <td width=300 height=300><img src=""static/images/cards/stack_of_black_stars.svg"" width=""175px"" height=""250px""></img></td>
  </tr>
  <tr height=200>
    <td width=300><img src=""static/images/keys/w.svg"" width=""35%"" height=""75%""></img></td>
    <td width=300><img src=""static/images/keys/o.svg"" width=""35%"" height=""75%""></img></td>
  </tr>
</table>
  ",79.0,1.0,,,,,,,,,,,,,,,,,,,,,,,,,,
225,0,,html-keyboard-response,225,701496,0.0-7.12-1.12,fpyzx7wv5f,2022-09-19 14:53:51.470,5ec96e3609117f0a67231842,2,83,32,40,14,51,Male,2030.900000006,,"
  <table>
  <tr height=300>
    <td width=300 height=300><img src=""static/images/cards/back_of_black_stars.svg"" width=""175px"" height=""250px""></img></td>
    <td width=300 height=300><img src=""static/images/cards/back_of_black_stars.svg"" width=""175px"" height=""250px""></img></td>
  </tr>
  <tr height=200>
    <td width=300><img src=""static/images/keys/z.svg"" width=""35%"" height=""75%""></img></td>
    <td width=300><img src=""static/images/keys/m.svg"" width=""35%"" height=""75%""></img></td>
  </tr>
</table>
  ",77.0,1.0,,,,,,,,,,,,,,,,,,,,,,,,,,
226,0,,html-keyboard-response,226,702997,0.0-7.12-2.12,fpyzx7wv5f,2022-09-19 14:53:51.470,5ec96e3609117f0a67231842,2,83,32,40,14,51,Male,,,"
  <table>
  <tr height=300>
    <td width=300 height=300><img src=""static/images/cards/back_of_black_stars.svg"" width=""175px"" height=""250px""></img></td>
    <td width=300 height=300><img src=""static/images/cards/6_of_black_stars.svg"" width=""175px"" height=""250px""></img></td>
  </tr>
  <tr height=200>
    <td width=300><img src=""static/images/keys/z.svg"" width=""35%"" height=""75%""></img></td>
    <td width=300><img src=""static/images/keys/m.svg"" width=""35%"" height=""75%""></img></td>
  </tr>
</table>
  ",,,,,,,,,,,,,,,,,,,,,,,,,,,,
227,0,,html-keyboard-response,227,704499,0.0-7.12-3.12,fpyzx7wv5f,2022-09-19 14:53:51.470,5ec96e3609117f0a67231842,2,83,32,40,14,51,Male,,,"<p style=""font-size:50px"">You win!
+10 points this round!</p>",,,,,,,,,,,,,,,,,,,,,,,,,,,,
228,0,,html-keyboard-response,228,705003,0.0-7.12-4.12,fpyzx7wv5f,2022-09-19 14:53:51.470,5ec96e3609117f0a67231842,2,83,32,40,14,51,Male,,,,,,1.0,choice,12.0,A,C,black,black,moons,stars,C,A,A,black,stars,2455.5,1.0,1.0,NA,right,2030.900000006,6.0,1.0,1.0,,,
229,0,,html-keyboard-response,229,707074,0.0-7.13-0.13,fpyzx7wv5f,2022-09-19 14:53:51.470,5ec96e3609117f0a67231842,2,83,32,40,14,51,Male,2069.400000006,,"
  <table>
  <tr height=300>
    <td width=300 height=300><img src=""static/images/cards/stack_of_red_moons.svg"" width=""175px"" height=""250px""></img></td>
    <td width=300 height=300><img src=""static/images/cards/stack_of_black_stars.svg"" width=""175px"" height=""250px""></img></td>
  </tr>
  <tr height=200>
    <td width=300><img src=""static/images/keys/w.svg"" width=""35%"" height=""75%""></img></td>
    <td width=300><img src=""static/images/keys/o.svg"" width=""35%"" height=""75%""></img></td>
  </tr>
</table>
  ",87.0,1.0,,,,,,,,,,,,,,,,,,,,,,,,,,
230,0,,html-keyboard-response,230,708740,0.0-7.13-1.13,fpyzx7wv5f,2022-09-19 14:53:51.470,5ec96e3609117f0a67231842,2,83,32,40,14,51,Male,1164.700000003,,"
  <table>
  <tr height=300>
    <td width=300 height=300><img src=""static/images/cards/back_of_red_moons.svg"" width=""175px"" height=""250px""></img></td>
    <td width=300 height=300><img src=""static/images/cards/back_of_red_moons.svg"" width=""175px"" height=""250px""></img></td>
  </tr>
  <tr height=200>
    <td width=300><img src=""static/images/keys/z.svg"" width=""35%"" height=""75%""></img></td>
    <td width=300></td>
  </tr>
</table>
  ",90.0,1.0,,,,,,,,,,,,,,,,,,,,,,,,,,
231,0,,html-keyboard-response,231,710241,0.0-7.13-2.13,fpyzx7wv5f,2022-09-19 14:53:51.470,5ec96e3609117f0a67231842,2,83,32,40,14,51,Male,,,"
  <table>
  <tr height=300>
    <td width=300 height=300><img src=""static/images/cards/7_of_red_moons.svg"" width=""175px"" height=""250px""></img></td>
    <td width=300 height=300><img src=""static/images/cards/back_of_red_moons.svg"" width=""175px"" height=""250px""></img></td>
  </tr>
  <tr height=200>
    <td width=300><img src=""static/images/keys/z.svg"" width=""35%"" height=""75%""></img></td>
    <td width=300></td>
  </tr>
</table>
  ",,,,,,,,,,,,,,,,,,,,,,,,,,,,
232,0,,html-keyboard-response,232,711742,0.0-7.13-3.13,fpyzx7wv5f,2022-09-19 14:53:51.470,5ec96e3609117f0a67231842,2,83,32,40,14,51,Male,,,"<p style=""font-size:50px"">You win!
+10 points this round!</p>",,,,,,,,,,,,,,,,,,,,,,,,,,,,
233,0,,html-keyboard-response,233,712247,0.0-7.13-4.13,fpyzx7wv5f,2022-09-19 14:53:51.470,5ec96e3609117f0a67231842,2,83,32,40,14,51,Male,,,,,,1.0,choice,13.0,A,D,red,black,moons,stars,D,A,D,red,moons,2069.400000006,0.0,0.0,1,left,1164.700000003,7.0,1.0,1.0,,,
234,0,,html-keyboard-response,234,714645,0.0-7.14-0.14,fpyzx7wv5f,2022-09-19 14:53:51.470,5ec96e3609117f0a67231842,2,83,32,40,14,51,Male,2396.1999999955,,"
  <table>
  <tr height=300>
    <td width=300 height=300><img src=""static/images/cards/stack_of_red_stars.svg"" width=""175px"" height=""250px""></img></td>
    <td width=300 height=300><img src=""static/images/cards/stack_of_red_moons.svg"" width=""175px"" height=""250px""></img></td>
  </tr>
  <tr height=200>
    <td width=300><img src=""static/images/keys/w.svg"" width=""35%"" height=""75%""></img></td>
    <td width=300><img src=""static/images/keys/o.svg"" width=""35%"" height=""75%""></img></td>
  </tr>
</table>
  ",79.0,1.0,,,,,,,,,,,,,,,,,,,,,,,,,,
235,0,,html-keyboard-response,235,716620,0.0-7.14-1.14,fpyzx7wv5f,2022-09-19 14:53:51.470,5ec96e3609117f0a67231842,2,83,32,40,14,51,Male,1474.299999997,,"
  <table>
  <tr height=300>
    <td width=300 height=300><img src=""static/images/cards/back_of_red_moons.svg"" width=""175px"" height=""250px""></img></td>
    <td width=300 height=300><img src=""static/images/cards/back_of_red_moons.svg"" width=""175px"" height=""250px""></img></td>
  </tr>
  <tr height=200>
    <td width=300></td>
    <td width=300><img src=""static/images/keys/m.svg"" width=""35%"" height=""75%""></img></td>
  </tr>
</table>
  ",77.0,1.0,,,,,,,,,,,,,,,,,,,,,,,,,,
236,0,,html-keyboard-response,236,718122,0.0-7.14-2.14,fpyzx7wv5f,2022-09-19 14:53:51.470,5ec96e3609117f0a67231842,2,83,32,40,14,51,Male,,,"
  <table>
  <tr height=300>
    <td width=300 height=300><img src=""static/images/cards/back_of_red_moons.svg"" width=""175px"" height=""250px""></img></td>
    <td width=300 height=300><img src=""static/images/cards/1_of_red_moons.svg"" width=""175px"" height=""250px""></img></td>
  </tr>
  <tr height=200>
    <td width=300></td>
    <td width=300><img src=""static/images/keys/m.svg"" width=""35%"" height=""75%""></img></td>
  </tr>
</table>
  ",,,,,,,,,,,,,,,,,,,,,,,,,,,,
237,0,,html-keyboard-response,237,719622,0.0-7.14-3.14,fpyzx7wv5f,2022-09-19 14:53:51.470,5ec96e3609117f0a67231842,2,83,32,40,14,51,Male,,,"<p style=""font-size:50px"">You win!
+10 points this round!</p>",,,,,,,,,,,,,,,,,,,,,,,,,,,,
238,0,,html-keyboard-response,238,720127,0.0-7.14-4.14,fpyzx7wv5f,2022-09-19 14:53:51.470,5ec96e3609117f0a67231842,2,83,32,40,14,51,Male,,,,,,1.0,choice,14.0,B,D,red,red,stars,moons,B,D,D,red,moons,2396.1999999955,0.0,0.0,0,right,1474.299999997,1.0,0.0,1.0,,,
239,0,,html-keyboard-response,239,721724,0.0-7.15-0.15,fpyzx7wv5f,2022-09-19 14:53:51.470,5ec96e3609117f0a67231842,2,83,32,40,14,51,Male,1596.5,,"
  <table>
  <tr height=300>
    <td width=300 height=300><img src=""static/images/cards/stack_of_black_stars.svg"" width=""175px"" height=""250px""></img></td>
    <td width=300 height=300><img src=""static/images/cards/stack_of_black_moons.svg"" width=""175px"" height=""250px""></img></td>
  </tr>
  <tr height=200>
    <td width=300><img src=""static/images/keys/w.svg"" width=""35%"" height=""75%""></img></td>
    <td width=300><img src=""static/images/keys/o.svg"" width=""35%"" height=""75%""></img></td>
  </tr>
</table>
  ",87.0,1.0,,,,,,,,,,,,,,,,,,,,,,,,,,
240,0,,html-keyboard-response,240,723395,0.0-7.15-1.15,fpyzx7wv5f,2022-09-19 14:53:51.470,5ec96e3609117f0a67231842,2,83,32,40,14,51,Male,1169.799999997,,"
  <table>
  <tr height=300>
    <td width=300 height=300><img src=""static/images/cards/back_of_black_stars.svg"" width=""175px"" height=""250px""></img></td>
    <td width=300 height=300><img src=""static/images/cards/back_of_black_stars.svg"" width=""175px"" height=""250px""></img></td>
  </tr>
  <tr height=200>
    <td width=300><img src=""static/images/keys/z.svg"" width=""35%"" height=""75%""></img></td>
    <td width=300><img src=""static/images/keys/m.svg"" width=""35%"" height=""75%""></img></td>
  </tr>
</table>
  ",90.0,1.0,,,,,,,,,,,,,,,,,,,,,,,,,,
241,0,,html-keyboard-response,241,724897,0.0-7.15-2.15,fpyzx7wv5f,2022-09-19 14:53:51.470,5ec96e3609117f0a67231842,2,83,32,40,14,51,Male,,,"
  <table>
  <tr height=300>
    <td width=300 height=300><img src=""static/images/cards/7_of_black_stars.svg"" width=""175px"" height=""250px""></img></td>
    <td width=300 height=300><img src=""static/images/cards/back_of_black_stars.svg"" width=""175px"" height=""250px""></img></td>
  </tr>
  <tr height=200>
    <td width=300><img src=""static/images/keys/z.svg"" width=""35%"" height=""75%""></img></td>
    <td width=300><img src=""static/images/keys/m.svg"" width=""35%"" height=""75%""></img></td>
  </tr>
</table>
  ",,,,,,,,,,,,,,,,,,,,,,,,,,,,
242,0,,html-keyboard-response,242,726397,0.0-7.15-3.15,fpyzx7wv5f,2022-09-19 14:53:51.470,5ec96e3609117f0a67231842,2,83,32,40,14,51,Male,,,"<p style=""font-size:50px"">You win!
+10 points this round!</p>",,,,,,,,,,,,,,,,,,,,,,,,,,,,
243,0,,html-keyboard-response,243,726902,0.0-7.15-4.15,fpyzx7wv5f,2022-09-19 14:53:51.470,5ec96e3609117f0a67231842,2,83,32,40,14,51,Male,,,,,,1.0,choice,15.0,A,C,black,black,stars,moons,A,C,A,black,stars,1596.5,1.0,1.0,NA,left,1169.799999997,7.0,1.0,1.0,,,
244,0,,html-keyboard-response,244,728683,0.0-7.16-0.16,fpyzx7wv5f,2022-09-19 14:53:51.470,5ec96e3609117f0a67231842,2,83,32,40,14,51,Male,1779.900000006,,"
  <table>
  <tr height=300>
    <td width=300 height=300><img src=""static/images/cards/stack_of_red_moons.svg"" width=""175px"" height=""250px""></img></td>
    <td width=300 height=300><img src=""static/images/cards/stack_of_black_bolts.svg"" width=""175px"" height=""250px""></img></td>
  </tr>
  <tr height=200>
    <td width=300><img src=""static/images/keys/w.svg"" width=""35%"" height=""75%""></img></td>
    <td width=300><img src=""static/images/keys/o.svg"" width=""35%"" height=""75%""></img></td>
  </tr>
</table>
  ",79.0,1.0,,,,,,,,,,,,,,,,,,,,,,,,,,
245,0,,html-keyboard-response,245,730805,0.0-7.16-1.16,fpyzx7wv5f,2022-09-19 14:53:51.470,5ec96e3609117f0a67231842,2,83,32,40,14,51,Male,1621.0,,"
  <table>
  <tr height=300>
    <td width=300 height=300><img src=""static/images/cards/back_of_black_bolts.svg"" width=""175px"" height=""250px""></img></td>
    <td width=300 height=300><img src=""static/images/cards/back_of_black_bolts.svg"" width=""175px"" height=""250px""></img></td>
  </tr>
  <tr height=200>
    <td width=300><img src=""static/images/keys/z.svg"" width=""35%"" height=""75%""></img></td>
    <td width=300></td>
  </tr>
</table>
  ",90.0,1.0,,,,,,,,,,,,,,,,,,,,,,,,,,
246,0,,html-keyboard-response,246,732306,0.0-7.16-2.16,fpyzx7wv5f,2022-09-19 14:53:51.470,5ec96e3609117f0a67231842,2,83,32,40,14,51,Male,,,"
  <table>
  <tr height=300>
    <td width=300 height=300><img src=""static/images/cards/1_of_black_bolts.svg"" width=""175px"" height=""250px""></img></td>
    <td width=300 height=300><img src=""static/images/cards/back_of_black_bolts.svg"" width=""175px"" height=""250px""></img></td>
  </tr>
  <tr height=200>
