,index,success,trial_type,trial_index,time_elapsed,internal_node_id,subject,date,prol_id,ctbl,sense_of_control_A,sense_of_control_B,sense_of_control_C,sense_of_control_D,age,gender,rt,url,stimulus,key_press,npress,is_data_trial,phase,trial,deck1,deck2,col1,col2,sym1,sym2,deck_l,deck_r,chosen_deck,chosen_col,chosen_sym,deck_rt,choose_choice,mutual_info,hidden_key,chosen_card,card_rt,player_num,win_card,outcome,mock_rating,response,responses
0,0,1.0,fullscreen,0,2489,0.0-0.0,h4kvzhrv568,2022-09-19 17:09:07.894,5a78b8355292b800012284ca,0,0,17,0,24,49,female,,,,,,,,,,,,,,,,,,,,,,,,,,,,,,,
1,0,,external-html,1,15199,0.0-1.0,h4kvzhrv568,2022-09-19 17:09:07.894,5a78b8355292b800012284ca,0,0,17,0,24,49,female,12647.7999999523,static/js/sub/consent.html,,,,,,,,,,,,,,,,,,,,,,,,,,,,,
2,0,,call-function,2,15204,0.0-2.0,h4kvzhrv568,2022-09-19 17:09:07.894,5a78b8355292b800012284ca,0,0,17,0,24,49,female,,,,,,,,,,,,,,,,,,,,,,,,,,,,,,,
3,0,,image-keyboard-response,3,26553,0.0-3.0-0.0,h4kvzhrv568,2022-09-19 17:09:07.894,5a78b8355292b800012284ca,0,0,17,0,24,49,female,11346.9000000954,,static/images/instructions_CB_0/Slide1.png,39.0,,,,,,,,,,,,,,,,,,,,,,,,,,,
4,0,,image-keyboard-response,4,36599,0.0-3.1-0.1,h4kvzhrv568,2022-09-19 17:09:07.894,5a78b8355292b800012284ca,0,0,17,0,24,49,female,10043.5,,static/images/instructions_CB_0/Slide2.png,39.0,,,,,,,,,,,,,,,,,,,,,,,,,,,
5,0,,image-keyboard-response,5,41747,0.0-3.2-0.2,h4kvzhrv568,2022-09-19 17:09:07.894,5a78b8355292b800012284ca,0,0,17,0,24,49,female,5146.2000000477,,static/images/instructions_CB_0/Slide3.png,39.0,,,,,,,,,,,,,,,,,,,,,,,,,,,
6,0,,image-keyboard-response,6,45785,0.0-3.3-0.3,h4kvzhrv568,2022-09-19 17:09:07.894,5a78b8355292b800012284ca,0,0,17,0,24,49,female,4036.7999999523,,static/images/instructions_CB_0/Slide4.png,39.0,,,,,,,,,,,,,,,,,,,,,,,,,,,
7,0,,image-keyboard-response,7,50866,0.0-3.4-0.4,h4kvzhrv568,2022-09-19 17:09:07.894,5a78b8355292b800012284ca,0,0,17,0,24,49,female,5078.9000000954,,static/images/instructions_CB_0/Slide5.png,39.0,,,,,,,,,,,,,,,,,,,,,,,,,,,
8,0,,image-keyboard-response,8,52759,0.0-3.5-0.5,h4kvzhrv568,2022-09-19 17:09:07.894,5a78b8355292b800012284ca,0,0,17,0,24,49,female,1892.1000000238,,static/images/instructions_CB_0/Slide6.png,39.0,,,,,,,,,,,,,,,,,,,,,,,,,,,
9,0,,image-keyboard-response,9,56813,0.0-3.6-0.6,h4kvzhrv568,2022-09-19 17:09:07.894,5a78b8355292b800012284ca,0,0,17,0,24,49,female,4052.5,,static/images/instructions_CB_0/Slide7.png,39.0,,,,,,,,,,,,,,,,,,,,,,,,,,,
10,0,,image-keyboard-response,10,74449,0.0-3.7-0.7,h4kvzhrv568,2022-09-19 17:09:07.894,5a78b8355292b800012284ca,0,0,17,0,24,49,female,17634.2000000477,,static/images/instructions_CB_0/Slide8.png,39.0,,,,,,,,,,,,,,,,,,,,,,,,,,,
11,0,,image-keyboard-response,11,80284,0.0-3.8-0.8,h4kvzhrv568,2022-09-19 17:09:07.894,5a78b8355292b800012284ca,0,0,17,0,24,49,female,5834.5,,static/images/instructions_CB_0/Slide9.png,39.0,,,,,,,,,,,,,,,,,,,,,,,,,,,
12,0,,image-keyboard-response,12,90411,0.0-3.9-0.9,h4kvzhrv568,2022-09-19 17:09:07.894,5a78b8355292b800012284ca,0,0,17,0,24,49,female,10125.0,,static/images/instructions_CB_0/Slide10.png,39.0,,,,,,,,,,,,,,,,,,,,,,,,,,,
13,0,,image-keyboard-response,13,95177,0.0-3.10-0.10,h4kvzhrv568,2022-09-19 17:09:07.894,5a78b8355292b800012284ca,0,0,17,0,24,49,female,4764.8999999762,,static/images/instructions_CB_0/Slide11.png,39.0,,,,,,,,,,,,,,,,,,,,,,,,,,,
14,0,,image-keyboard-response,14,101782,0.0-3.11-0.11,h4kvzhrv568,2022-09-19 17:09:07.894,5a78b8355292b800012284ca,0,0,17,0,24,49,female,6604.0999999046,,static/images/instructions_CB_0/Slide12.png,39.0,,,,,,,,,,,,,,,,,,,,,,,,,,,
15,0,,image-keyboard-response,15,108244,0.0-3.12-0.12,h4kvzhrv568,2022-09-19 17:09:07.894,5a78b8355292b800012284ca,0,0,17,0,24,49,female,6459.7000000477,,static/images/instructions_CB_0/Slide13.png,39.0,,,,,,,,,,,,,,,,,,,,,,,,,,,
16,0,,image-keyboard-response,16,112981,0.0-3.13-0.13,h4kvzhrv568,2022-09-19 17:09:07.894,5a78b8355292b800012284ca,0,0,17,0,24,49,female,4736.1999999285,,static/images/instructions_CB_0/Slide14.png,39.0,,,,,,,,,,,,,,,,,,,,,,,,,,,
17,0,,image-keyboard-response,17,119991,0.0-3.14-0.14,h4kvzhrv568,2022-09-19 17:09:07.894,5a78b8355292b800012284ca,0,0,17,0,24,49,female,7008.2000000477,,static/images/instructions_CB_0/Slide15.png,39.0,,,,,,,,,,,,,,,,,,,,,,,,,,,
18,0,,image-keyboard-response,18,123510,0.0-3.15-0.15,h4kvzhrv568,2022-09-19 17:09:07.894,5a78b8355292b800012284ca,0,0,17,0,24,49,female,3517.6999999285,,static/images/instructions_CB_0/Slide16.png,39.0,,,,,,,,,,,,,,,,,,,,,,,,,,,
19,0,,image-keyboard-response,19,127795,0.0-3.16-0.16,h4kvzhrv568,2022-09-19 17:09:07.894,5a78b8355292b800012284ca,0,0,17,0,24,49,female,4283.8999999762,,static/images/instructions_CB_0/Slide17.png,39.0,,,,,,,,,,,,,,,,,,,,,,,,,,,
20,0,,image-keyboard-response,20,140986,0.0-3.17-0.17,h4kvzhrv568,2022-09-19 17:09:07.894,5a78b8355292b800012284ca,0,0,17,0,24,49,female,13189.7000000477,,static/images/instructions_CB_0/Slide18.png,39.0,,,,,,,,,,,,,,,,,,,,,,,,,,,
21,0,,image-keyboard-response,21,144328,0.0-3.18-0.18,h4kvzhrv568,2022-09-19 17:09:07.894,5a78b8355292b800012284ca,0,0,17,0,24,49,female,3341.0999999046,,static/images/instructions_CB_0/Slide19.png,39.0,,,,,,,,,,,,,,,,,,,,,,,,,,,
22,0,,html-keyboard-response,22,145836,0.0-4.0-0.0,h4kvzhrv568,2022-09-19 17:09:07.894,5a78b8355292b800012284ca,0,0,17,0,24,49,female,,,"<img src=""static/images/cards/stack_of_red_stars.svg"" width=""175px"" height=""250px""></img>",,,,,,,,,,,,,,,,,,,,,,,,,,,,
23,0,,html-keyboard-response,23,147286,0.0-4.0-1.0,h4kvzhrv568,2022-09-19 17:09:07.894,5a78b8355292b800012284ca,0,0,17,0,24,49,female,942.8999999762,,"
  <table>
  <tr height=300>
    <td width=300 height=300><img src=""static/images/cards/back_of_red_stars.svg"" width=""175px"" height=""250px""></img></td>
    <td width=300 height=300><img src=""static/images/cards/back_of_red_stars.svg"" width=""175px"" height=""250px""></img></td>
  </tr>
  <tr height=200>
    <td width=300><img src=""static/images/keys/z.svg"" width=""35%"" height=""75%""></img></td>
    <td width=300><img src=""static/images/keys/m.svg"" width=""35%"" height=""75%""></img></td>
  </tr>
</table>
  ",90.0,1.0,,,,,,,,,,,,,,,,,,,,,,,,,,
24,0,,html-keyboard-response,24,148794,0.0-4.0-2.0,h4kvzhrv568,2022-09-19 17:09:07.894,5a78b8355292b800012284ca,0,0,17,0,24,49,female,,,"
  <table>
  <tr height=300>
    <td width=300 height=300><img src=""static/images/cards/2_of_red_stars.svg"" width=""175px"" height=""250px""></img></td>
    <td width=300 height=300><img src=""static/images/cards/back_of_red_stars.svg"" width=""175px"" height=""250px""></img></td>
  </tr>
  <tr height=200>
    <td width=300><img src=""static/images/keys/z.svg"" width=""35%"" height=""75%""></img></td>
    <td width=300><img src=""static/images/keys/m.svg"" width=""35%"" height=""75%""></img></td>
  </tr>
</table>
  ",,,,,,,,,,,,,,,,,,,,,,,,,,,,
25,0,,html-keyboard-response,25,150301,0.0-4.0-3.0,h4kvzhrv568,2022-09-19 17:09:07.894,5a78b8355292b800012284ca,0,0,17,0,24,49,female,,,"<p style=""font-size:50px"">You Lose!
No points this round.</p>",,,,,,,,,,,,,,,,,,,,,,,,,,,,
26,0,,html-keyboard-response,26,150811,0.0-4.0-4.0,h4kvzhrv568,2022-09-19 17:09:07.894,5a78b8355292b800012284ca,0,0,17,0,24,49,female,,,,,,1.0,learning,0.0,A,,red,,stars,,,,A,red,stars,,1.0,1.0,NA,left,942.8999999762,2.0,0.0,0.0,,,
27,0,,html-keyboard-response,27,152317,0.0-4.1-0.1,h4kvzhrv568,2022-09-19 17:09:07.894,5a78b8355292b800012284ca,0,0,17,0,24,49,female,,,"<img src=""static/images/cards/stack_of_black_stars.svg"" width=""175px"" height=""250px""></img>",,,,,,,,,,,,,,,,,,,,,,,,,,,,
28,0,,html-keyboard-response,28,153492,0.0-4.1-1.1,h4kvzhrv568,2022-09-19 17:09:07.894,5a78b8355292b800012284ca,0,0,17,0,24,49,female,667.4000000954,,"
  <table>
  <tr height=300>
    <td width=300 height=300><img src=""static/images/cards/back_of_black_stars.svg"" width=""175px"" height=""250px""></img></td>
    <td width=300 height=300><img src=""static/images/cards/back_of_black_stars.svg"" width=""175px"" height=""250px""></img></td>
  </tr>
  <tr height=200>
    <td width=300></td>
    <td width=300><img src=""static/images/keys/m.svg"" width=""35%"" height=""75%""></img></td>
  </tr>
</table>
  ",77.0,1.0,,,,,,,,,,,,,,,,,,,,,,,,,,
29,0,,html-keyboard-response,29,154999,0.0-4.1-2.1,h4kvzhrv568,2022-09-19 17:09:07.894,5a78b8355292b800012284ca,0,0,17,0,24,49,female,,,"
  <table>
  <tr height=300>
    <td width=300 height=300><img src=""static/images/cards/back_of_black_stars.svg"" width=""175px"" height=""250px""></img></td>
    <td width=300 height=300><img src=""static/images/cards/10_of_black_stars.svg"" width=""175px"" height=""250px""></img></td>
  </tr>
  <tr height=200>
    <td width=300></td>
    <td width=300><img src=""static/images/keys/m.svg"" width=""35%"" height=""75%""></img></td>
  </tr>
</table>
  ",,,,,,,,,,,,,,,,,,,,,,,,,,,,
30,0,,html-keyboard-response,30,156510,0.0-4.1-3.1,h4kvzhrv568,2022-09-19 17:09:07.894,5a78b8355292b800012284ca,0,0,17,0,24,49,female,,,"<p style=""font-size:50px"">You win!
+10 points this round!</p>",,,,,,,,,,,,,,,,,,,,,,,,,,,,
31,0,,html-keyboard-response,31,157021,0.0-4.1-4.1,h4kvzhrv568,2022-09-19 17:09:07.894,5a78b8355292b800012284ca,0,0,17,0,24,49,female,,,,,,1.0,learning,1.0,B,,black,,stars,,,,B,black,stars,,0.0,1.0,0,right,667.4000000954,10.0,1.0,1.0,,,
32,0,,html-keyboard-response,32,158522,0.0-4.2-0.2,h4kvzhrv568,2022-09-19 17:09:07.894,5a78b8355292b800012284ca,0,0,17,0,24,49,female,,,"<img src=""static/images/cards/stack_of_red_moons.svg"" width=""175px"" height=""250px""></img>",,,,,,,,,,,,,,,,,,,,,,,,,,,,
33,0,,html-keyboard-response,33,159808,0.0-4.2-1.2,h4kvzhrv568,2022-09-19 17:09:07.894,5a78b8355292b800012284ca,0,0,17,0,24,49,female,778.7000000477,,"
  <table>
  <tr height=300>
    <td width=300 height=300><img src=""static/images/cards/back_of_red_moons.svg"" width=""175px"" height=""250px""></img></td>
    <td width=300 height=300><img src=""static/images/cards/back_of_red_moons.svg"" width=""175px"" height=""250px""></img></td>
  </tr>
  <tr height=200>
    <td width=300><img src=""static/images/keys/z.svg"" width=""35%"" height=""75%""></img></td>
    <td width=300><img src=""static/images/keys/m.svg"" width=""35%"" height=""75%""></img></td>
  </tr>
</table>
  ",90.0,1.0,,,,,,,,,,,,,,,,,,,,,,,,,,
34,0,,html-keyboard-response,34,161316,0.0-4.2-2.2,h4kvzhrv568,2022-09-19 17:09:07.894,5a78b8355292b800012284ca,0,0,17,0,24,49,female,,,"
  <table>
  <tr height=300>
    <td width=300 height=300><img src=""static/images/cards/1_of_red_moons.svg"" width=""175px"" height=""250px""></img></td>
    <td width=300 height=300><img src=""static/images/cards/back_of_red_moons.svg"" width=""175px"" height=""250px""></img></td>
  </tr>
  <tr height=200>
    <td width=300><img src=""static/images/keys/z.svg"" width=""35%"" height=""75%""></img></td>
    <td width=300><img src=""static/images/keys/m.svg"" width=""35%"" height=""75%""></img></td>
  </tr>
</table>
  ",,,,,,,,,,,,,,,,,,,,,,,,,,,,
35,0,,html-keyboard-response,35,162827,0.0-4.2-3.2,h4kvzhrv568,2022-09-19 17:09:07.894,5a78b8355292b800012284ca,0,0,17,0,24,49,female,,,"<p style=""font-size:50px"">You Lose!
No points this round.</p>",,,,,,,,,,,,,,,,,,,,,,,,,,,,
36,0,,html-keyboard-response,36,163338,0.0-4.2-4.2,h4kvzhrv568,2022-09-19 17:09:07.894,5a78b8355292b800012284ca,0,0,17,0,24,49,female,,,,,,1.0,learning,2.0,C,,red,,moons,,,,C,red,moons,,1.0,0.0,NA,left,778.7000000477,1.0,0.0,0.0,,,
37,0,,html-keyboard-response,37,164840,0.0-4.3-0.3,h4kvzhrv568,2022-09-19 17:09:07.894,5a78b8355292b800012284ca,0,0,17,0,24,49,female,,,"<img src=""static/images/cards/stack_of_black_moons.svg"" width=""175px"" height=""250px""></img>",,,,,,,,,,,,,,,,,,,,,,,,,,,,
38,0,,html-keyboard-response,38,165898,0.0-4.3-1.3,h4kvzhrv568,2022-09-19 17:09:07.894,5a78b8355292b800012284ca,0,0,17,0,24,49,female,554.1999999285,,"
  <table>
  <tr height=300>
    <td width=300 height=300><img src=""static/images/cards/back_of_black_moons.svg"" width=""175px"" height=""250px""></img></td>
    <td width=300 height=300><img src=""static/images/cards/back_of_black_moons.svg"" width=""175px"" height=""250px""></img></td>
  </tr>
  <tr height=200>
    <td width=300><img src=""static/images/keys/z.svg"" width=""35%"" height=""75%""></img></td>
    <td width=300></td>
  </tr>
</table>
  ",90.0,1.0,,,,,,,,,,,,,,,,,,,,,,,,,,
39,0,,html-keyboard-response,39,167405,0.0-4.3-2.3,h4kvzhrv568,2022-09-19 17:09:07.894,5a78b8355292b800012284ca,0,0,17,0,24,49,female,,,"
  <table>
  <tr height=300>
    <td width=300 height=300><img src=""static/images/cards/2_of_black_moons.svg"" width=""175px"" height=""250px""></img></td>
    <td width=300 height=300><img src=""static/images/cards/back_of_black_moons.svg"" width=""175px"" height=""250px""></img></td>
  </tr>
  <tr height=200>
    <td width=300><img src=""static/images/keys/z.svg"" width=""35%"" height=""75%""></img></td>
    <td width=300></td>
  </tr>
</table>
  ",,,,,,,,,,,,,,,,,,,,,,,,,,,,
40,0,,html-keyboard-response,40,168916,0.0-4.3-3.3,h4kvzhrv568,2022-09-19 17:09:07.894,5a78b8355292b800012284ca,0,0,17,0,24,49,female,,,"<p style=""font-size:50px"">You win!
+10 points this round!</p>",,,,,,,,,,,,,,,,,,,,,,,,,,,,
41,0,,html-keyboard-response,41,169427,0.0-4.3-4.3,h4kvzhrv568,2022-09-19 17:09:07.894,5a78b8355292b800012284ca,0,0,17,0,24,49,female,,,,,,1.0,learning,3.0,D,,black,,moons,,,,D,black,moons,,0.0,0.0,1,left,554.1999999285,2.0,0.0,1.0,,,
42,0,,html-keyboard-response,42,170929,0.0-4.4-0.4,h4kvzhrv568,2022-09-19 17:09:07.894,5a78b8355292b800012284ca,0,0,17,0,24,49,female,,,"<img src=""static/images/cards/stack_of_red_bolts.svg"" width=""175px"" height=""250px""></img>",,,,,,,,,,,,,,,,,,,,,,,,,,,,
43,0,,html-keyboard-response,43,172077,0.0-4.4-1.4,h4kvzhrv568,2022-09-19 17:09:07.894,5a78b8355292b800012284ca,0,0,17,0,24,49,female,641.2000000477,,"
  <table>
  <tr height=300>
    <td width=300 height=300><img src=""static/images/cards/back_of_red_bolts.svg"" width=""175px"" height=""250px""></img></td>
    <td width=300 height=300><img src=""static/images/cards/back_of_red_bolts.svg"" width=""175px"" height=""250px""></img></td>
  </tr>
  <tr height=200>
    <td width=300><img src=""static/images/keys/z.svg"" width=""35%"" height=""75%""></img></td>
    <td width=300><img src=""static/images/keys/m.svg"" width=""35%"" height=""75%""></img></td>
  </tr>
</table>
  ",77.0,1.0,,,,,,,,,,,,,,,,,,,,,,,,,,
44,0,,html-keyboard-response,44,173584,0.0-4.4-2.4,h4kvzhrv568,2022-09-19 17:09:07.894,5a78b8355292b800012284ca,0,0,17,0,24,49,female,,,"
  <table>
  <tr height=300>
    <td width=300 height=300><img src=""static/images/cards/back_of_red_bolts.svg"" width=""175px"" height=""250px""></img></td>
    <td width=300 height=300><img src=""static/images/cards/10_of_red_bolts.svg"" width=""175px"" height=""250px""></img></td>
  </tr>
  <tr height=200>
    <td width=300><img src=""static/images/keys/z.svg"" width=""35%"" height=""75%""></img></td>
    <td width=300><img src=""static/images/keys/m.svg"" width=""35%"" height=""75%""></img></td>
  </tr>
</table>
  ",,,,,,,,,,,,,,,,,,,,,,,,,,,,
45,0,,html-keyboard-response,45,175096,0.0-4.4-3.4,h4kvzhrv568,2022-09-19 17:09:07.894,5a78b8355292b800012284ca,0,0,17,0,24,49,female,,,"<p style=""font-size:50px"">You win!
+10 points this round!</p>",,,,,,,,,,,,,,,,,,,,,,,,,,,,
46,0,,html-keyboard-response,46,175606,0.0-4.4-4.4,h4kvzhrv568,2022-09-19 17:09:07.894,5a78b8355292b800012284ca,0,0,17,0,24,49,female,,,,,,1.0,learning,4.0,Xc,,red,,bolts,,,,Xc,red,bolts,,1.0,0.0,NA,right,641.2000000477,10.0,1.0,1.0,,,
47,0,,html-keyboard-response,47,177109,0.0-4.5-0.5,h4kvzhrv568,2022-09-19 17:09:07.894,5a78b8355292b800012284ca,0,0,17,0,24,49,female,,,"<img src=""static/images/cards/stack_of_black_bolts.svg"" width=""175px"" height=""250px""></img>",,,,,,,,,,,,,,,,,,,,,,,,,,,,
48,0,,html-keyboard-response,48,178076,0.0-4.5-1.5,h4kvzhrv568,2022-09-19 17:09:07.894,5a78b8355292b800012284ca,0,0,17,0,24,49,female,459.7000000477,,"
  <table>
  <tr height=300>
    <td width=300 height=300><img src=""static/images/cards/back_of_black_bolts.svg"" width=""175px"" height=""250px""></img></td>
    <td width=300 height=300><img src=""static/images/cards/back_of_black_bolts.svg"" width=""175px"" height=""250px""></img></td>
  </tr>
  <tr height=200>
    <td width=300></td>
    <td width=300><img src=""static/images/keys/m.svg"" width=""35%"" height=""75%""></img></td>
  </tr>
</table>
  ",77.0,1.0,,,,,,,,,,,,,,,,,,,,,,,,,,
49,0,,html-keyboard-response,49,179583,0.0-4.5-2.5,h4kvzhrv568,2022-09-19 17:09:07.894,5a78b8355292b800012284ca,0,0,17,0,24,49,female,,,"
  <table>
  <tr height=300>
    <td width=300 height=300><img src=""static/images/cards/back_of_black_bolts.svg"" width=""175px"" height=""250px""></img></td>
    <td width=300 height=300><img src=""static/images/cards/7_of_black_bolts.svg"" width=""175px"" height=""250px""></img></td>
  </tr>
  <tr height=200>
    <td width=300></td>
    <td width=300><img src=""static/images/keys/m.svg"" width=""35%"" height=""75%""></img></td>
  </tr>
</table>
  ",,,,,,,,,,,,,,,,,,,,,,,,,,,,
50,0,,html-keyboard-response,50,181094,0.0-4.5-3.5,h4kvzhrv568,2022-09-19 17:09:07.894,5a78b8355292b800012284ca,0,0,17,0,24,49,female,,,"<p style=""font-size:50px"">You win!
+10 points this round!</p>",,,,,,,,,,,,,,,,,,,,,,,,,,,,
51,0,,html-keyboard-response,51,181604,0.0-4.5-4.5,h4kvzhrv568,2022-09-19 17:09:07.894,5a78b8355292b800012284ca,0,0,17,0,24,49,female,,,,,,1.0,learning,5.0,Xnc,,black,,bolts,,,,Xnc,black,bolts,,0.0,0.0,0,right,459.7000000477,7.0,1.0,1.0,,,
52,0,,html-keyboard-response,52,183107,0.0-4.6-0.6,h4kvzhrv568,2022-09-19 17:09:07.894,5a78b8355292b800012284ca,0,0,17,0,24,49,female,,,"<img src=""static/images/cards/stack_of_red_stars.svg"" width=""175px"" height=""250px""></img>",,,,,,,,,,,,,,,,,,,,,,,,,,,,
53,0,,html-keyboard-response,53,184132,0.0-4.6-1.6,h4kvzhrv568,2022-09-19 17:09:07.894,5a78b8355292b800012284ca,0,0,17,0,24,49,female,517.7999999523,,"
  <table>
  <tr height=300>
    <td width=300 height=300><img src=""static/images/cards/back_of_red_stars.svg"" width=""175px"" height=""250px""></img></td>
    <td width=300 height=300><img src=""static/images/cards/back_of_red_stars.svg"" width=""175px"" height=""250px""></img></td>
  </tr>
  <tr height=200>
    <td width=300><img src=""static/images/keys/z.svg"" width=""35%"" height=""75%""></img></td>
    <td width=300><img src=""static/images/keys/m.svg"" width=""35%"" height=""75%""></img></td>
  </tr>
</table>
  ",77.0,1.0,,,,,,,,,,,,,,,,,,,,,,,,,,
54,0,,html-keyboard-response,54,185636,0.0-4.6-2.6,h4kvzhrv568,2022-09-19 17:09:07.894,5a78b8355292b800012284ca,0,0,17,0,24,49,female,,,"
  <table>
  <tr height=300>
    <td width=300 height=300><img src=""static/images/cards/back_of_red_stars.svg"" width=""175px"" height=""250px""></img></td>
    <td width=300 height=300><img src=""static/images/cards/9_of_red_stars.svg"" width=""175px"" height=""250px""></img></td>
  </tr>
  <tr height=200>
    <td width=300><img src=""static/images/keys/z.svg"" width=""35%"" height=""75%""></img></td>
    <td width=300><img src=""static/images/keys/m.svg"" width=""35%"" height=""75%""></img></td>
  </tr>
</table>
  ",,,,,,,,,,,,,,,,,,,,,,,,,,,,
55,0,,html-keyboard-response,55,187147,0.0-4.6-3.6,h4kvzhrv568,2022-09-19 17:09:07.894,5a78b8355292b800012284ca,0,0,17,0,24,49,female,,,"<p style=""font-size:50px"">You win!
+10 points this round!</p>",,,,,,,,,,,,,,,,,,,,,,,,,,,,
56,0,,html-keyboard-response,56,187657,0.0-4.6-4.6,h4kvzhrv568,2022-09-19 17:09:07.894,5a78b8355292b800012284ca,0,0,17,0,24,49,female,,,,,,1.0,learning,6.0,A,,red,,stars,,,,A,red,stars,,1.0,1.0,NA,right,517.7999999523,9.0,1.0,1.0,,,
57,0,,html-keyboard-response,57,189160,0.0-4.7-0.7,h4kvzhrv568,2022-09-19 17:09:07.894,5a78b8355292b800012284ca,0,0,17,0,24,49,female,,,"<img src=""static/images/cards/stack_of_black_stars.svg"" width=""175px"" height=""250px""></img>",,,,,,,,,,,,,,,,,,,,,,,,,,,,
58,0,,html-keyboard-response,58,190345,0.0-4.7-1.7,h4kvzhrv568,2022-09-19 17:09:07.894,5a78b8355292b800012284ca,0,0,17,0,24,49,female,678.6000000238,,"
  <table>
  <tr height=300>
    <td width=300 height=300><img src=""static/images/cards/back_of_black_stars.svg"" width=""175px"" height=""250px""></img></td>
    <td width=300 height=300><img src=""static/images/cards/back_of_black_stars.svg"" width=""175px"" height=""250px""></img></td>
  </tr>
  <tr height=200>
    <td width=300><img src=""static/images/keys/z.svg"" width=""35%"" height=""75%""></img></td>
    <td width=300></td>
  </tr>
</table>
  ",90.0,1.0,,,,,,,,,,,,,,,,,,,,,,,,,,
59,0,,html-keyboard-response,59,191849,0.0-4.7-2.7,h4kvzhrv568,2022-09-19 17:09:07.894,5a78b8355292b800012284ca,0,0,17,0,24,49,female,,,"
  <table>
  <tr height=300>
    <td width=300 height=300><img src=""static/images/cards/7_of_black_stars.svg"" width=""175px"" height=""250px""></img></td>
    <td width=300 height=300><img src=""static/images/cards/back_of_black_stars.svg"" width=""175px"" height=""250px""></img></td>
  </tr>
  <tr height=200>
    <td width=300><img src=""static/images/keys/z.svg"" width=""35%"" height=""75%""></img></td>
    <td width=300></td>
  </tr>
</table>
  ",,,,,,,,,,,,,,,,,,,,,,,,,,,,
60,0,,html-keyboard-response,60,193360,0.0-4.7-3.7,h4kvzhrv568,2022-09-19 17:09:07.894,5a78b8355292b800012284ca,0,0,17,0,24,49,female,,,"<p style=""font-size:50px"">You win!
+10 points this round!</p>",,,,,,,,,,,,,,,,,,,,,,,,,,,,
61,0,,html-keyboard-response,61,193870,0.0-4.7-4.7,h4kvzhrv568,2022-09-19 17:09:07.894,5a78b8355292b800012284ca,0,0,17,0,24,49,female,,,,,,1.0,learning,7.0,B,,black,,stars,,,,B,black,stars,,0.0,1.0,1,left,678.6000000238,7.0,1.0,1.0,,,
62,0,,html-keyboard-response,62,195373,0.0-4.8-0.8,h4kvzhrv568,2022-09-19 17:09:07.894,5a78b8355292b800012284ca,0,0,17,0,24,49,female,,,"<img src=""static/images/cards/stack_of_red_moons.svg"" width=""175px"" height=""250px""></img>",,,,,,,,,,,,,,,,,,,,,,,,,,,,
63,0,,html-keyboard-response,63,196683,0.0-4.8-1.8,h4kvzhrv568,2022-09-19 17:09:07.894,5a78b8355292b800012284ca,0,0,17,0,24,49,female,802.8000000715,,"
  <table>
  <tr height=300>
    <td width=300 height=300><img src=""static/images/cards/back_of_red_moons.svg"" width=""175px"" height=""250px""></img></td>
    <td width=300 height=300><img src=""static/images/cards/back_of_red_moons.svg"" width=""175px"" height=""250px""></img></td>
  </tr>
  <tr height=200>
    <td width=300><img src=""static/images/keys/z.svg"" width=""35%"" height=""75%""></img></td>
    <td width=300><img src=""static/images/keys/m.svg"" width=""35%"" height=""75%""></img></td>
  </tr>
</table>
  ",77.0,1.0,,,,,,,,,,,,,,,,,,,,,,,,,,
64,0,,html-keyboard-response,64,198190,0.0-4.8-2.8,h4kvzhrv568,2022-09-19 17:09:07.894,5a78b8355292b800012284ca,0,0,17,0,24,49,female,,,"
  <table>
  <tr height=300>
    <td width=300 height=300><img src=""static/images/cards/back_of_red_moons.svg"" width=""175px"" height=""250px""></img></td>
    <td width=300 height=300><img src=""static/images/cards/7_of_red_moons.svg"" width=""175px"" height=""250px""></img></td>
  </tr>
  <tr height=200>
    <td width=300><img src=""static/images/keys/z.svg"" width=""35%"" height=""75%""></img></td>
    <td width=300><img src=""static/images/keys/m.svg"" width=""35%"" height=""75%""></img></td>
  </tr>
</table>
  ",,,,,,,,,,,,,,,,,,,,,,,,,,,,
65,0,,html-keyboard-response,65,199702,0.0-4.8-3.8,h4kvzhrv568,2022-09-19 17:09:07.894,5a78b8355292b800012284ca,0,0,17,0,24,49,female,,,"<p style=""font-size:50px"">You Lose!
No points this round.</p>",,,,,,,,,,,,,,,,,,,,,,,,,,,,
66,0,,html-keyboard-response,66,200212,0.0-4.8-4.8,h4kvzhrv568,2022-09-19 17:09:07.894,5a78b8355292b800012284ca,0,0,17,0,24,49,female,,,,,,1.0,learning,8.0,C,,red,,moons,,,,C,red,moons,,1.0,0.0,NA,right,802.8000000715,7.0,1.0,0.0,,,
67,0,,html-keyboard-response,67,201714,0.0-4.9-0.9,h4kvzhrv568,2022-09-19 17:09:07.894,5a78b8355292b800012284ca,0,0,17,0,24,49,female,,,"<img src=""static/images/cards/stack_of_black_moons.svg"" width=""175px"" height=""250px""></img>",,,,,,,,,,,,,,,,,,,,,,,,,,,,
68,0,,html-keyboard-response,68,203016,0.0-4.9-1.9,h4kvzhrv568,2022-09-19 17:09:07.894,5a78b8355292b800012284ca,0,0,17,0,24,49,female,794.8000000715,,"
  <table>
  <tr height=300>
    <td width=300 height=300><img src=""static/images/cards/back_of_black_moons.svg"" width=""175px"" height=""250px""></img></td>
    <td width=300 height=300><img src=""static/images/cards/back_of_black_moons.svg"" width=""175px"" height=""250px""></img></td>
  </tr>
  <tr height=200>
    <td width=300><img src=""static/images/keys/z.svg"" width=""35%"" height=""75%""></img></td>
    <td width=300></td>
  </tr>
</table>
  ",90.0,1.0,,,,,,,,,,,,,,,,,,,,,,,,,,
69,0,,html-keyboard-response,69,204523,0.0-4.9-2.9,h4kvzhrv568,2022-09-19 17:09:07.894,5a78b8355292b800012284ca,0,0,17,0,24,49,female,,,"
  <table>
  <tr height=300>
    <td width=300 height=300><img src=""static/images/cards/10_of_black_moons.svg"" width=""175px"" height=""250px""></img></td>
    <td width=300 height=300><img src=""static/images/cards/back_of_black_moons.svg"" width=""175px"" height=""250px""></img></td>
  </tr>
  <tr height=200>
    <td width=300><img src=""static/images/keys/z.svg"" width=""35%"" height=""75%""></img></td>
    <td width=300></td>
  </tr>
</table>
  ",,,,,,,,,,,,,,,,,,,,,,,,,,,,
70,0,,html-keyboard-response,70,206035,0.0-4.9-3.9,h4kvzhrv568,2022-09-19 17:09:07.894,5a78b8355292b800012284ca,0,0,17,0,24,49,female,,,"<p style=""font-size:50px"">You win!
+10 points this round!</p>",,,,,,,,,,,,,,,,,,,,,,,,,,,,
71,0,,html-keyboard-response,71,206545,0.0-4.9-4.9,h4kvzhrv568,2022-09-19 17:09:07.894,5a78b8355292b800012284ca,0,0,17,0,24,49,female,,,,,,1.0,learning,9.0,D,,black,,moons,,,,D,black,moons,,0.0,0.0,1,left,794.8000000715,10.0,1.0,1.0,,,
72,0,,html-keyboard-response,72,208046,0.0-4.10-0.10,h4kvzhrv568,2022-09-19 17:09:07.894,5a78b8355292b800012284ca,0,0,17,0,24,49,female,,,"<img src=""static/images/cards/stack_of_red_bolts.svg"" width=""175px"" height=""250px""></img>",,,,,,,,,,,,,,,,,,,,,,,,,,,,
73,0,,html-keyboard-response,73,209295,0.0-4.10-1.10,h4kvzhrv568,2022-09-19 17:09:07.894,5a78b8355292b800012284ca,0,0,17,0,24,49,female,741.5,,"
  <table>
  <tr height=300>
    <td width=300 height=300><img src=""static/images/cards/back_of_red_bolts.svg"" width=""175px"" height=""250px""></img></td>
    <td width=300 height=300><img src=""static/images/cards/back_of_red_bolts.svg"" width=""175px"" height=""250px""></img></td>
  </tr>
  <tr height=200>
    <td width=300><img src=""static/images/keys/z.svg"" width=""35%"" height=""75%""></img></td>
    <td width=300><img src=""static/images/keys/m.svg"" width=""35%"" height=""75%""></img></td>
  </tr>
</table>
  ",77.0,1.0,,,,,,,,,,,,,,,,,,,,,,,,,,
74,0,,html-keyboard-response,74,210803,0.0-4.10-2.10,h4kvzhrv568,2022-09-19 17:09:07.894,5a78b8355292b800012284ca,0,0,17,0,24,49,female,,,"
  <table>
  <tr height=300>
    <td width=300 height=300><img src=""static/images/cards/back_of_red_bolts.svg"" width=""175px"" height=""250px""></img></td>
    <td width=300 height=300><img src=""static/images/cards/4_of_red_bolts.svg"" width=""175px"" height=""250px""></img></td>
  </tr>
  <tr height=200>
    <td width=300><img src=""static/images/keys/z.svg"" width=""35%"" height=""75%""></img></td>
    <td width=300><img src=""static/images/keys/m.svg"" width=""35%"" height=""75%""></img></td>
  </tr>
</table>
  ",,,,,,,,,,,,,,,,,,,,,,,,,,,,
75,0,,html-keyboard-response,75,212314,0.0-4.10-3.10,h4kvzhrv568,2022-09-19 17:09:07.894,5a78b8355292b800012284ca,0,0,17,0,24,49,female,,,"<p style=""font-size:50px"">You win!
+10 points this round!</p>",,,,,,,,,,,,,,,,,,,,,,,,,,,,
76,0,,html-keyboard-response,76,212824,0.0-4.10-4.10,h4kvzhrv568,2022-09-19 17:09:07.894,5a78b8355292b800012284ca,0,0,17,0,24,49,female,,,,,,1.0,learning,10.0,Xc,,red,,bolts,,,,Xc,red,bolts,,1.0,0.0,NA,right,741.5,4.0,0.0,1.0,,,
77,0,,html-keyboard-response,77,214326,0.0-4.11-0.11,h4kvzhrv568,2022-09-19 17:09:07.894,5a78b8355292b800012284ca,0,0,17,0,24,49,female,,,"<img src=""static/images/cards/stack_of_black_bolts.svg"" width=""175px"" height=""250px""></img>",,,,,,,,,,,,,,,,,,,,,,,,,,,,
78,0,,html-keyboard-response,78,215555,0.0-4.11-1.11,h4kvzhrv568,2022-09-19 17:09:07.894,5a78b8355292b800012284ca,0,0,17,0,24,49,female,722.3999999762,,"
  <table>
  <tr height=300>
    <td width=300 height=300><img src=""static/images/cards/back_of_black_bolts.svg"" width=""175px"" height=""250px""></img></td>
    <td width=300 height=300><img src=""static/images/cards/back_of_black_bolts.svg"" width=""175px"" height=""250px""></img></td>
  </tr>
  <tr height=200>
    <td width=300></td>
    <td width=300><img src=""static/images/keys/m.svg"" width=""35%"" height=""75%""></img></td>
  </tr>
</table>
  ",77.0,1.0,,,,,,,,,,,,,,,,,,,,,,,,,,
79,0,,html-keyboard-response,79,217062,0.0-4.11-2.11,h4kvzhrv568,2022-09-19 17:09:07.894,5a78b8355292b800012284ca,0,0,17,0,24,49,female,,,"
  <table>
  <tr height=300>
    <td width=300 height=300><img src=""static/images/cards/back_of_black_bolts.svg"" width=""175px"" height=""250px""></img></td>
    <td width=300 height=300><img src=""static/images/cards/2_of_black_bolts.svg"" width=""175px"" height=""250px""></img></td>
  </tr>
  <tr height=200>
    <td width=300></td>
    <td width=300><img src=""static/images/keys/m.svg"" width=""35%"" height=""75%""></img></td>
  </tr>
</table>
  ",,,,,,,,,,,,,,,,,,,,,,,,,,,,
80,0,,html-keyboard-response,80,218574,0.0-4.11-3.11,h4kvzhrv568,2022-09-19 17:09:07.894,5a78b8355292b800012284ca,0,0,17,0,24,49,female,,,"<p style=""font-size:50px"">You win!
+10 points this round!</p>",,,,,,,,,,,,,,,,,,,,,,,,,,,,
81,0,,html-keyboard-response,81,219084,0.0-4.11-4.11,h4kvzhrv568,2022-09-19 17:09:07.894,5a78b8355292b800012284ca,0,0,17,0,24,49,female,,,,,,1.0,learning,11.0,Xnc,,black,,bolts,,,,Xnc,black,bolts,,0.0,0.0,0,right,722.3999999762,2.0,0.0,1.0,,,
82,0,,html-keyboard-response,82,220587,0.0-4.12-0.12,h4kvzhrv568,2022-09-19 17:09:07.894,5a78b8355292b800012284ca,0,0,17,0,24,49,female,,,"<img src=""static/images/cards/stack_of_red_stars.svg"" width=""175px"" height=""250px""></img>",,,,,,,,,,,,,,,,,,,,,,,,,,,,
83,0,,html-keyboard-response,83,221583,0.0-4.12-1.12,h4kvzhrv568,2022-09-19 17:09:07.894,5a78b8355292b800012284ca,0,0,17,0,24,49,female,490.1000000238,,"
  <table>
  <tr height=300>
    <td width=300 height=300><img src=""static/images/cards/back_of_red_stars.svg"" width=""175px"" height=""250px""></img></td>
    <td width=300 height=300><img src=""static/images/cards/back_of_red_stars.svg"" width=""175px"" height=""250px""></img></td>
  </tr>
  <tr height=200>
    <td width=300><img src=""static/images/keys/z.svg"" width=""35%"" height=""75%""></img></td>
    <td width=300><img src=""static/images/keys/m.svg"" width=""35%"" height=""75%""></img></td>
  </tr>
</table>
  ",77.0,1.0,,,,,,,,,,,,,,,,,,,,,,,,,,
84,0,,html-keyboard-response,84,223090,0.0-4.12-2.12,h4kvzhrv568,2022-09-19 17:09:07.894,5a78b8355292b800012284ca,0,0,17,0,24,49,female,,,"
  <table>
  <tr height=300>
    <td width=300 height=300><img src=""static/images/cards/back_of_red_stars.svg"" width=""175px"" height=""250px""></img></td>
    <td width=300 height=300><img src=""static/images/cards/2_of_red_stars.svg"" width=""175px"" height=""250px""></img></td>
  </tr>
  <tr height=200>
    <td width=300><img src=""static/images/keys/z.svg"" width=""35%"" height=""75%""></img></td>
    <td width=300><img src=""static/images/keys/m.svg"" width=""35%"" height=""75%""></img></td>
  </tr>
</table>
  ",,,,,,,,,,,,,,,,,,,,,,,,,,,,
85,0,,html-keyboard-response,85,224601,0.0-4.12-3.12,h4kvzhrv568,2022-09-19 17:09:07.894,5a78b8355292b800012284ca,0,0,17,0,24,49,female,,,"<p style=""font-size:50px"">You Lose!
No points this round.</p>",,,,,,,,,,,,,,,,,,,,,,,,,,,,
86,0,,html-keyboard-response,86,225111,0.0-4.12-4.12,h4kvzhrv568,2022-09-19 17:09:07.894,5a78b8355292b800012284ca,0,0,17,0,24,49,female,,,,,,1.0,learning,12.0,A,,red,,stars,,,,A,red,stars,,1.0,1.0,NA,right,490.1000000238,2.0,0.0,0.0,,,
87,0,,html-keyboard-response,87,226612,0.0-4.13-0.13,h4kvzhrv568,2022-09-19 17:09:07.894,5a78b8355292b800012284ca,0,0,17,0,24,49,female,,,"<img src=""static/images/cards/stack_of_black_stars.svg"" width=""175px"" height=""250px""></img>",,,,,,,,,,,,,,,,,,,,,,,,,,,,
88,0,,html-keyboard-response,88,227881,0.0-4.13-1.13,h4kvzhrv568,2022-09-19 17:09:07.894,5a78b8355292b800012284ca,0,0,17,0,24,49,female,761.8000000715,,"
  <table>
  <tr height=300>
    <td width=300 height=300><img src=""static/images/cards/back_of_black_stars.svg"" width=""175px"" height=""250px""></img></td>
    <td width=300 height=300><img src=""static/images/cards/back_of_black_stars.svg"" width=""175px"" height=""250px""></img></td>
  </tr>
  <tr height=200>
    <td width=300></td>
    <td width=300><img src=""static/images/keys/m.svg"" width=""35%"" height=""75%""></img></td>
  </tr>
</table>
  ",77.0,1.0,,,,,,,,,,,,,,,,,,,,,,,,,,
89,0,,html-keyboard-response,89,229386,0.0-4.13-2.13,h4kvzhrv568,2022-09-19 17:09:07.894,5a78b8355292b800012284ca,0,0,17,0,24,49,female,,,"
  <table>
  <tr height=300>
    <td width=300 height=300><img src=""static/images/cards/back_of_black_stars.svg"" width=""175px"" height=""250px""></img></td>
    <td width=300 height=300><img src=""static/images/cards/2_of_black_stars.svg"" width=""175px"" height=""250px""></img></td>
  </tr>
  <tr height=200>
    <td width=300></td>
    <td width=300><img src=""static/images/keys/m.svg"" width=""35%"" height=""75%""></img></td>
  </tr>
</table>
  ",,,,,,,,,,,,,,,,,,,,,,,,,,,,
90,0,,html-keyboard-response,90,230897,0.0-4.13-3.13,h4kvzhrv568,2022-09-19 17:09:07.894,5a78b8355292b800012284ca,0,0,17,0,24,49,female,,,"<p style=""font-size:50px"">You Lose!
No points this round.</p>",,,,,,,,,,,,,,,,,,,,,,,,,,,,
91,0,,html-keyboard-response,91,231408,0.0-4.13-4.13,h4kvzhrv568,2022-09-19 17:09:07.894,5a78b8355292b800012284ca,0,0,17,0,24,49,female,,,,,,1.0,learning,13.0,B,,black,,stars,,,,B,black,stars,,0.0,1.0,0,right,761.8000000715,2.0,0.0,0.0,,,
92,0,,html-keyboard-response,92,232909,0.0-4.14-0.14,h4kvzhrv568,2022-09-19 17:09:07.894,5a78b8355292b800012284ca,0,0,17,0,24,49,female,,,"<img src=""static/images/cards/stack_of_red_moons.svg"" width=""175px"" height=""250px""></img>",,,,,,,,,,,,,,,,,,,,,,,,,,,,
93,0,,html-keyboard-response,93,234136,0.0-4.14-1.14,h4kvzhrv568,2022-09-19 17:09:07.894,5a78b8355292b800012284ca,0,0,17,0,24,49,female,719.3999999762,,"
  <table>
  <tr height=300>
    <td width=300 height=300><img src=""static/images/cards/back_of_red_moons.svg"" width=""175px"" height=""250px""></img></td>
    <td width=300 height=300><img src=""static/images/cards/back_of_red_moons.svg"" width=""175px"" height=""250px""></img></td>
  </tr>
  <tr height=200>
    <td width=300><img src=""static/images/keys/z.svg"" width=""35%"" height=""75%""></img></td>
    <td width=300><img src=""static/images/keys/m.svg"" width=""35%"" height=""75%""></img></td>
  </tr>
</table>
  ",90.0,1.0,,,,,,,,,,,,,,,,,,,,,,,,,,
94,0,,html-keyboard-response,94,235639,0.0-4.14-2.14,h4kvzhrv568,2022-09-19 17:09:07.894,5a78b8355292b800012284ca,0,0,17,0,24,49,female,,,"
  <table>
  <tr height=300>
    <td width=300 height=300><img src=""static/images/cards/2_of_red_moons.svg"" width=""175px"" height=""250px""></img></td>
    <td width=300 height=300><img src=""static/images/cards/back_of_red_moons.svg"" width=""175px"" height=""250px""></img></td>
  </tr>
  <tr height=200>
    <td width=300><img src=""static/images/keys/z.svg"" width=""35%"" height=""75%""></img></td>
    <td width=300><img src=""static/images/keys/m.svg"" width=""35%"" height=""75%""></img></td>
  </tr>
</table>
  ",,,,,,,,,,,,,,,,,,,,,,,,,,,,
95,0,,html-keyboard-response,95,237148,0.0-4.14-3.14,h4kvzhrv568,2022-09-19 17:09:07.894,5a78b8355292b800012284ca,0,0,17,0,24,49,female,,,"<p style=""font-size:50px"">You Lose!
No points this round.</p>",,,,,,,,,,,,,,,,,,,,,,,,,,,,
96,0,,html-keyboard-response,96,237658,0.0-4.14-4.14,h4kvzhrv568,2022-09-19 17:09:07.894,5a78b8355292b800012284ca,0,0,17,0,24,49,female,,,,,,1.0,learning,14.0,C,,red,,moons,,,,C,red,moons,,1.0,0.0,NA,left,719.3999999762,2.0,0.0,0.0,,,
97,0,,html-keyboard-response,97,239160,0.0-4.15-0.15,h4kvzhrv568,2022-09-19 17:09:07.894,5a78b8355292b800012284ca,0,0,17,0,24,49,female,,,"<img src=""static/images/cards/stack_of_black_moons.svg"" width=""175px"" height=""250px""></img>",,,,,,,,,,,,,,,,,,,,,,,,,,,,
98,0,,html-keyboard-response,98,240388,0.0-4.15-1.15,h4kvzhrv568,2022-09-19 17:09:07.894,5a78b8355292b800012284ca,0,0,17,0,24,49,female,724.1999999285,,"
  <table>
  <tr height=300>
    <td width=300 height=300><img src=""static/images/cards/back_of_black_moons.svg"" width=""175px"" height=""250px""></img></td>
    <td width=300 height=300><img src=""static/images/cards/back_of_black_moons.svg"" width=""175px"" height=""250px""></img></td>
  </tr>
  <tr height=200>
    <td width=300></td>
    <td width=300><img src=""static/images/keys/m.svg"" width=""35%"" height=""75%""></img></td>
  </tr>
</table>
  ",77.0,1.0,,,,,,,,,,,,,,,,,,,,,,,,,,
99,0,,html-keyboard-response,99,241895,0.0-4.15-2.15,h4kvzhrv568,2022-09-19 17:09:07.894,5a78b8355292b800012284ca,0,0,17,0,24,49,female,,,"
  <table>
  <tr height=300>
    <td width=300 height=300><img src=""static/images/cards/back_of_black_moons.svg"" width=""175px"" height=""250px""></img></td>
    <td width=300 height=300><img src=""static/images/cards/7_of_black_moons.svg"" width=""175px"" height=""250px""></img></td>
  </tr>
  <tr height=200>
    <td width=300></td>
    <td width=300><img src=""static/images/keys/m.svg"" width=""35%"" height=""75%""></img></td>
  </tr>
</table>
  ",,,,,,,,,,,,,,,,,,,,,,,,,,,,
100,0,,html-keyboard-response,100,243406,0.0-4.15-3.15,h4kvzhrv568,2022-09-19 17:09:07.894,5a78b8355292b800012284ca,0,0,17,0,24,49,female,,,"<p style=""font-size:50px"">You win!
+10 points this round!</p>",,,,,,,,,,,,,,,,,,,,,,,,,,,,
101,0,,html-keyboard-response,101,243916,0.0-4.15-4.15,h4kvzhrv568,2022-09-19 17:09:07.894,5a78b8355292b800012284ca,0,0,17,0,24,49,female,,,,,,1.0,learning,15.0,D,,black,,moons,,,,D,black,moons,,0.0,0.0,0,right,724.1999999285,7.0,1.0,1.0,,,
102,0,,html-keyboard-response,102,245417,0.0-4.16-0.16,h4kvzhrv568,2022-09-19 17:09:07.894,5a78b8355292b800012284ca,0,0,17,0,24,49,female,,,"<img src=""static/images/cards/stack_of_red_bolts.svg"" width=""175px"" height=""250px""></img>",,,,,,,,,,,,,,,,,,,,,,,,,,,,
103,0,,html-keyboard-response,103,246646,0.0-4.16-1.16,h4kvzhrv568,2022-09-19 17:09:07.894,5a78b8355292b800012284ca,0,0,17,0,24,49,female,721.6000000238,,"
  <table>
  <tr height=300>
    <td width=300 height=300><img src=""static/images/cards/back_of_red_bolts.svg"" width=""175px"" height=""250px""></img></td>
    <td width=300 height=300><img src=""static/images/cards/back_of_red_bolts.svg"" width=""175px"" height=""250px""></img></td>
  </tr>
  <tr height=200>
    <td width=300><img src=""static/images/keys/z.svg"" width=""35%"" height=""75%""></img></td>
    <td width=300><img src=""static/images/keys/m.svg"" width=""35%"" height=""75%""></img></td>
  </tr>
</table>
  ",90.0,1.0,,,,,,,,,,,,,,,,,,,,,,,,,,
104,0,,html-keyboard-response,104,248154,0.0-4.16-2.16,h4kvzhrv568,2022-09-19 17:09:07.894,5a78b8355292b800012284ca,0,0,17,0,24,49,female,,,"
  <table>
  <tr height=300>
    <td width=300 height=300><img src=""static/images/cards/3_of_red_bolts.svg"" width=""175px"" height=""250px""></img></td>
    <td width=300 height=300><img src=""static/images/cards/back_of_red_bolts.svg"" width=""175px"" height=""250px""></img></td>
  </tr>
  <tr height=200>
    <td width=300><img src=""static/images/keys/z.svg"" width=""35%"" height=""75%""></img></td>
    <td width=300><img src=""static/images/keys/m.svg"" width=""35%"" height=""75%""></img></td>
  </tr>
</table>
  ",,,,,,,,,,,,,,,,,,,,,,,,,,,,
105,0,,html-keyboard-response,105,249665,0.0-4.16-3.16,h4kvzhrv568,2022-09-19 17:09:07.894,5a78b8355292b800012284ca,0,0,17,0,24,49,female,,,"<p style=""font-size:50px"">You win!
+10 points this round!</p>",,,,,,,,,,,,,,,,,,,,,,,,,,,,
106,0,,html-keyboard-response,106,250175,0.0-4.16-4.16,h4kvzhrv568,2022-09-19 17:09:07.894,5a78b8355292b800012284ca,0,0,17,0,24,49,female,,,,,,1.0,learning,16.0,Xc,,red,,bolts,,,,Xc,red,bolts,,1.0,0.0,NA,left,721.6000000238,3.0,0.0,1.0,,,
107,0,,html-keyboard-response,107,251677,0.0-4.17-0.17,h4kvzhrv568,2022-09-19 17:09:07.894,5a78b8355292b800012284ca,0,0,17,0,24,49,female,,,"<img src=""static/images/cards/stack_of_black_bolts.svg"" width=""175px"" height=""250px""></img>",,,,,,,,,,,,,,,,,,,,,,,,,,,,
108,0,,html-keyboard-response,108,252860,0.0-4.17-1.17,h4kvzhrv568,2022-09-19 17:09:07.894,5a78b8355292b800012284ca,0,0,17,0,24,49,female,676.2999999523,,"
  <table>
  <tr height=300>
    <td width=300 height=300><img src=""static/images/cards/back_of_black_bolts.svg"" width=""175px"" height=""250px""></img></td>
    <td width=300 height=300><img src=""static/images/cards/back_of_black_bolts.svg"" width=""175px"" height=""250px""></img></td>
  </tr>
  <tr height=200>
    <td width=300><img src=""static/images/keys/z.svg"" width=""35%"" height=""75%""></img></td>
    <td width=300></td>
  </tr>
</table>
  ",90.0,2.0,,,,,,,,,,,,,,,,,,,,,,,,,,
109,0,,html-keyboard-response,109,254367,0.0-4.17-2.17,h4kvzhrv568,2022-09-19 17:09:07.894,5a78b8355292b800012284ca,0,0,17,0,24,49,female,,,"
  <table>
  <tr height=300>
    <td width=300 height=300><img src=""static/images/cards/7_of_black_bolts.svg"" width=""175px"" height=""250px""></img></td>
    <td width=300 height=300><img src=""static/images/cards/back_of_black_bolts.svg"" width=""175px"" height=""250px""></img></td>
  </tr>
  <tr height=200>
    <td width=300><img src=""static/images/keys/z.svg"" width=""35%"" height=""75%""></img></td>
    <td width=300></td>
  </tr>
</table>
  ",,,,,,,,,,,,,,,,,,,,,,,,,,,,
110,0,,html-keyboard-response,110,255878,0.0-4.17-3.17,h4kvzhrv568,2022-09-19 17:09:07.894,5a78b8355292b800012284ca,0,0,17,0,24,49,female,,,"<p style=""font-size:50px"">You win!
+10 points this round!</p>",,,,,,,,,,,,,,,,,,,,,,,,,,,,
111,0,,html-keyboard-response,111,256385,0.0-4.17-4.17,h4kvzhrv568,2022-09-19 17:09:07.894,5a78b8355292b800012284ca,0,0,17,0,24,49,female,,,,,,1.0,learning,17.0,Xnc,,black,,bolts,,,,Xnc,black,bolts,,0.0,0.0,1,left,676.2999999523,7.0,1.0,1.0,,,
112,0,,html-keyboard-response,112,257888,0.0-4.18-0.18,h4kvzhrv568,2022-09-19 17:09:07.894,5a78b8355292b800012284ca,0,0,17,0,24,49,female,,,"<img src=""static/images/cards/stack_of_red_stars.svg"" width=""175px"" height=""250px""></img>",,,,,,,,,,,,,,,,,,,,,,,,,,,,
113,0,,html-keyboard-response,113,259226,0.0-4.18-1.18,h4kvzhrv568,2022-09-19 17:09:07.894,5a78b8355292b800012284ca,0,0,17,0,24,49,female,833.8999999762,,"
  <table>
  <tr height=300>
    <td width=300 height=300><img src=""static/images/cards/back_of_red_stars.svg"" width=""175px"" height=""250px""></img></td>
    <td width=300 height=300><img src=""static/images/cards/back_of_red_stars.svg"" width=""175px"" height=""250px""></img></td>
  </tr>
  <tr height=200>
    <td width=300><img src=""static/images/keys/z.svg"" width=""35%"" height=""75%""></img></td>
    <td width=300><img src=""static/images/keys/m.svg"" width=""35%"" height=""75%""></img></td>
  </tr>
</table>
  ",77.0,1.0,,,,,,,,,,,,,,,,,,,,,,,,,,
114,0,,html-keyboard-response,114,260734,0.0-4.18-2.18,h4kvzhrv568,2022-09-19 17:09:07.894,5a78b8355292b800012284ca,0,0,17,0,24,49,female,,,"
  <table>
  <tr height=300>
    <td width=300 height=300><img src=""static/images/cards/back_of_red_stars.svg"" width=""175px"" height=""250px""></img></td>
    <td width=300 height=300><img src=""static/images/cards/9_of_red_stars.svg"" width=""175px"" height=""250px""></img></td>
  </tr>
  <tr height=200>
    <td width=300><img src=""static/images/keys/z.svg"" width=""35%"" height=""75%""></img></td>
    <td width=300><img src=""static/images/keys/m.svg"" width=""35%"" height=""75%""></img></td>
  </tr>
</table>
  ",,,,,,,,,,,,,,,,,,,,,,,,,,,,
115,0,,html-keyboard-response,115,262243,0.0-4.18-3.18,h4kvzhrv568,2022-09-19 17:09:07.894,5a78b8355292b800012284ca,0,0,17,0,24,49,female,,,"<p style=""font-size:50px"">You win!
+10 points this round!</p>",,,,,,,,,,,,,,,,,,,,,,,,,,,,
116,0,,html-keyboard-response,116,262752,0.0-4.18-4.18,h4kvzhrv568,2022-09-19 17:09:07.894,5a78b8355292b800012284ca,0,0,17,0,24,49,female,,,,,,1.0,learning,18.0,A,,red,,stars,,,,A,red,stars,,1.0,1.0,NA,right,833.8999999762,9.0,1.0,1.0,,,
117,0,,html-keyboard-response,117,264254,0.0-4.19-0.19,h4kvzhrv568,2022-09-19 17:09:07.894,5a78b8355292b800012284ca,0,0,17,0,24,49,female,,,"<img src=""static/images/cards/stack_of_black_stars.svg"" width=""175px"" height=""250px""></img>",,,,,,,,,,,,,,,,,,,,,,,,,,,,
118,0,,html-keyboard-response,118,265320,0.0-4.19-1.19,h4kvzhrv568,2022-09-19 17:09:07.894,5a78b8355292b800012284ca,0,0,17,0,24,49,female,562.1999999285,,"
  <table>
  <tr height=300>
    <td width=300 height=300><img src=""static/images/cards/back_of_black_stars.svg"" width=""175px"" height=""250px""></img></td>
    <td width=300 height=300><img src=""static/images/cards/back_of_black_stars.svg"" width=""175px"" height=""250px""></img></td>
  </tr>
  <tr height=200>
    <td width=300></td>
    <td width=300><img src=""static/images/keys/m.svg"" width=""35%"" height=""75%""></img></td>
  </tr>
</table>
  ",77.0,1.0,,,,,,,,,,,,,,,,,,,,,,,,,,
119,0,,html-keyboard-response,119,266827,0.0-4.19-2.19,h4kvzhrv568,2022-09-19 17:09:07.894,5a78b8355292b800012284ca,0,0,17,0,24,49,female,,,"
  <table>
  <tr height=300>
    <td width=300 height=300><img src=""static/images/cards/back_of_black_stars.svg"" width=""175px"" height=""250px""></img></td>
    <td width=300 height=300><img src=""static/images/cards/3_of_black_stars.svg"" width=""175px"" height=""250px""></img></td>
  </tr>
  <tr height=200>
    <td width=300></td>
    <td width=300><img src=""static/images/keys/m.svg"" width=""35%"" height=""75%""></img></td>
  </tr>
</table>
  ",,,,,,,,,,,,,,,,,,,,,,,,,,,,
120,0,,html-keyboard-response,120,268337,0.0-4.19-3.19,h4kvzhrv568,2022-09-19 17:09:07.894,5a78b8355292b800012284ca,0,0,17,0,24,49,female,,,"<p style=""font-size:50px"">You Lose!
No points this round.</p>",,,,,,,,,,,,,,,,,,,,,,,,,,,,
121,0,,html-keyboard-response,121,268848,0.0-4.19-4.19,h4kvzhrv568,2022-09-19 17:09:07.894,5a78b8355292b800012284ca,0,0,17,0,24,49,female,,,,,,1.0,learning,19.0,B,,black,,stars,,,,B,black,stars,,0.0,1.0,0,right,562.1999999285,3.0,0.0,0.0,,,
122,0,,html-keyboard-response,122,270350,0.0-4.20-0.20,h4kvzhrv568,2022-09-19 17:09:07.894,5a78b8355292b800012284ca,0,0,17,0,24,49,female,,,"<img src=""static/images/cards/stack_of_red_moons.svg"" width=""175px"" height=""250px""></img>",,,,,,,,,,,,,,,,,,,,,,,,,,,,
123,0,,html-keyboard-response,123,271612,0.0-4.20-1.20,h4kvzhrv568,2022-09-19 17:09:07.894,5a78b8355292b800012284ca,0,0,17,0,24,49,female,754.0,,"
  <table>
  <tr height=300>
    <td width=300 height=300><img src=""static/images/cards/back_of_red_moons.svg"" width=""175px"" height=""250px""></img></td>
    <td width=300 height=300><img src=""static/images/cards/back_of_red_moons.svg"" width=""175px"" height=""250px""></img></td>
  </tr>
  <tr height=200>
    <td width=300><img src=""static/images/keys/z.svg"" width=""35%"" height=""75%""></img></td>
    <td width=300><img src=""static/images/keys/m.svg"" width=""35%"" height=""75%""></img></td>
  </tr>
</table>
  ",90.0,1.0,,,,,,,,,,,,,,,,,,,,,,,,,,
124,0,,html-keyboard-response,124,273119,0.0-4.20-2.20,h4kvzhrv568,2022-09-19 17:09:07.894,5a78b8355292b800012284ca,0,0,17,0,24,49,female,,,"
  <table>
  <tr height=300>
    <td width=300 height=300><img src=""static/images/cards/6_of_red_moons.svg"" width=""175px"" height=""250px""></img></td>
    <td width=300 height=300><img src=""static/images/cards/back_of_red_moons.svg"" width=""175px"" height=""250px""></img></td>
  </tr>
  <tr height=200>
    <td width=300><img src=""static/images/keys/z.svg"" width=""35%"" height=""75%""></img></td>
    <td width=300><img src=""static/images/keys/m.svg"" width=""35%"" height=""75%""></img></td>
  </tr>
</table>
  ",,,,,,,,,,,,,,,,,,,,,,,,,,,,
125,0,,html-keyboard-response,125,274630,0.0-4.20-3.20,h4kvzhrv568,2022-09-19 17:09:07.894,5a78b8355292b800012284ca,0,0,17,0,24,49,female,,,"<p style=""font-size:50px"">You Lose!
No points this round.</p>",,,,,,,,,,,,,,,,,,,,,,,,,,,,
126,0,,html-keyboard-response,126,275141,0.0-4.20-4.20,h4kvzhrv568,2022-09-19 17:09:07.894,5a78b8355292b800012284ca,0,0,17,0,24,49,female,,,,,,1.0,learning,20.0,C,,red,,moons,,,,C,red,moons,,1.0,0.0,NA,left,754.0,6.0,1.0,0.0,,,
127,0,,html-keyboard-response,127,276642,0.0-4.21-0.21,h4kvzhrv568,2022-09-19 17:09:07.894,5a78b8355292b800012284ca,0,0,17,0,24,49,female,,,"<img src=""static/images/cards/stack_of_black_moons.svg"" width=""175px"" height=""250px""></img>",,,,,,,,,,,,,,,,,,,,,,,,,,,,
128,0,,html-keyboard-response,128,277792,0.0-4.21-1.21,h4kvzhrv568,2022-09-19 17:09:07.894,5a78b8355292b800012284ca,0,0,17,0,24,49,female,642.3000000715,,"
  <table>
  <tr height=300>
    <td width=300 height=300><img src=""static/images/cards/back_of_black_moons.svg"" width=""175px"" height=""250px""></img></td>
    <td width=300 height=300><img src=""static/images/cards/back_of_black_moons.svg"" width=""175px"" height=""250px""></img></td>
  </tr>
  <tr height=200>
    <td width=300><img src=""static/images/keys/z.svg"" width=""35%"" height=""75%""></img></td>
    <td width=300></td>
  </tr>
</table>
  ",90.0,1.0,,,,,,,,,,,,,,,,,,,,,,,,,,
129,0,,html-keyboard-response,129,279299,0.0-4.21-2.21,h4kvzhrv568,2022-09-19 17:09:07.894,5a78b8355292b800012284ca,0,0,17,0,24,49,female,,,"
  <table>
  <tr height=300>
    <td width=300 height=300><img src=""static/images/cards/3_of_black_moons.svg"" width=""175px"" height=""250px""></img></td>
    <td width=300 height=300><img src=""static/images/cards/back_of_black_moons.svg"" width=""175px"" height=""250px""></img></td>
  </tr>
  <tr height=200>
    <td width=300><img src=""static/images/keys/z.svg"" width=""35%"" height=""75%""></img></td>
    <td width=300></td>
  </tr>
</table>
  ",,,,,,,,,,,,,,,,,,,,,,,,,,,,
130,0,,html-keyboard-response,130,280810,0.0-4.21-3.21,h4kvzhrv568,2022-09-19 17:09:07.894,5a78b8355292b800012284ca,0,0,17,0,24,49,female,,,"<p style=""font-size:50px"">You win!
+10 points this round!</p>",,,,,,,,,,,,,,,,,,,,,,,,,,,,
131,0,,html-keyboard-response,131,281321,0.0-4.21-4.21,h4kvzhrv568,2022-09-19 17:09:07.894,5a78b8355292b800012284ca,0,0,17,0,24,49,female,,,,,,1.0,learning,21.0,D,,black,,moons,,,,D,black,moons,,0.0,0.0,1,left,642.3000000715,3.0,0.0,1.0,,,
132,0,,html-keyboard-response,132,282822,0.0-4.22-0.22,h4kvzhrv568,2022-09-19 17:09:07.894,5a78b8355292b800012284ca,0,0,17,0,24,49,female,,,"<img src=""static/images/cards/stack_of_red_bolts.svg"" width=""175px"" height=""250px""></img>",,,,,,,,,,,,,,,,,,,,,,,,,,,,
133,0,,html-keyboard-response,133,284090,0.0-4.22-1.22,h4kvzhrv568,2022-09-19 17:09:07.894,5a78b8355292b800012284ca,0,0,17,0,24,49,female,760.8999999762,,"
  <table>
  <tr height=300>
    <td width=300 height=300><img src=""static/images/cards/back_of_red_bolts.svg"" width=""175px"" height=""250px""></img></td>
    <td width=300 height=300><img src=""static/images/cards/back_of_red_bolts.svg"" width=""175px"" height=""250px""></img></td>
  </tr>
  <tr height=200>
    <td width=300><img src=""static/images/keys/z.svg"" width=""35%"" height=""75%""></img></td>
    <td width=300><img src=""static/images/keys/m.svg"" width=""35%"" height=""75%""></img></td>
  </tr>
</table>
  ",77.0,1.0,,,,,,,,,,,,,,,,,,,,,,,,,,
134,0,,html-keyboard-response,134,285598,0.0-4.22-2.22,h4kvzhrv568,2022-09-19 17:09:07.894,5a78b8355292b800012284ca,0,0,17,0,24,49,female,,,"
  <table>
  <tr height=300>
    <td width=300 height=300><img src=""static/images/cards/back_of_red_bolts.svg"" width=""175px"" height=""250px""></img></td>
    <td width=300 height=300><img src=""static/images/cards/8_of_red_bolts.svg"" width=""175px"" height=""250px""></img></td>
  </tr>
  <tr height=200>
    <td width=300><img src=""static/images/keys/z.svg"" width=""35%"" height=""75%""></img></td>
    <td width=300><img src=""static/images/keys/m.svg"" width=""35%"" height=""75%""></img></td>
  </tr>
</table>
  ",,,,,,,,,,,,,,,,,,,,,,,,,,,,
135,0,,html-keyboard-response,135,287105,0.0-4.22-3.22,h4kvzhrv568,2022-09-19 17:09:07.894,5a78b8355292b800012284ca,0,0,17,0,24,49,female,,,"<p style=""font-size:50px"">You win!
+10 points this round!</p>",,,,,,,,,,,,,,,,,,,,,,,,,,,,
136,0,,html-keyboard-response,136,287616,0.0-4.22-4.22,h4kvzhrv568,2022-09-19 17:09:07.894,5a78b8355292b800012284ca,0,0,17,0,24,49,female,,,,,,1.0,learning,22.0,Xc,,red,,bolts,,,,Xc,red,bolts,,1.0,0.0,NA,right,760.8999999762,8.0,1.0,1.0,,,
137,0,,html-keyboard-response,137,289119,0.0-4.23-0.23,h4kvzhrv568,2022-09-19 17:09:07.894,5a78b8355292b800012284ca,0,0,17,0,24,49,female,,,"<img src=""static/images/cards/stack_of_black_bolts.svg"" width=""175px"" height=""250px""></img>",,,,,,,,,,,,,,,,,,,,,,,,,,,,
138,0,,html-keyboard-response,138,290178,0.0-4.23-1.23,h4kvzhrv568,2022-09-19 17:09:07.894,5a78b8355292b800012284ca,0,0,17,0,24,49,female,557.0,,"
  <table>
  <tr height=300>
    <td width=300 height=300><img src=""static/images/cards/back_of_black_bolts.svg"" width=""175px"" height=""250px""></img></td>
    <td width=300 height=300><img src=""static/images/cards/back_of_black_bolts.svg"" width=""175px"" height=""250px""></img></td>
  </tr>
  <tr height=200>
    <td width=300><img src=""static/images/keys/z.svg"" width=""35%"" height=""75%""></img></td>
    <td width=300></td>
  </tr>
</table>
  ",90.0,1.0,,,,,,,,,,,,,,,,,,,,,,,,,,
139,0,,html-keyboard-response,139,291685,0.0-4.23-2.23,h4kvzhrv568,2022-09-19 17:09:07.894,5a78b8355292b800012284ca,0,0,17,0,24,49,female,,,"
  <table>
  <tr height=300>
    <td width=300 height=300><img src=""static/images/cards/1_of_black_bolts.svg"" width=""175px"" height=""250px""></img></td>
    <td width=300 height=300><img src=""static/images/cards/back_of_black_bolts.svg"" width=""175px"" height=""250px""></img></td>
  </tr>
  <tr height=200>
    <td width=300><img src=""static/images/keys/z.svg"" width=""35%"" height=""75%""></img></td>
    <td width=300></td>
  </tr>
</table>
  ",,,,,,,,,,,,,,,,,,,,,,,,,,,,
140,0,,html-keyboard-response,140,293196,0.0-4.23-3.23,h4kvzhrv568,2022-09-19 17:09:07.894,5a78b8355292b800012284ca,0,0,17,0,24,49,female,,,"<p style=""font-size:50px"">You win!
+10 points this round!</p>",,,,,,,,,,,,,,,,,,,,,,,,,,,,
141,0,,html-keyboard-response,141,293707,0.0-4.23-4.23,h4kvzhrv568,2022-09-19 17:09:07.894,5a78b8355292b800012284ca,0,0,17,0,24,49,female,,,,,,1.0,learning,23.0,Xnc,,black,,bolts,,,,Xnc,black,bolts,,0.0,0.0,1,left,557.0,1.0,0.0,1.0,,,
142,0,,call-function,142,293713,0.0-5.0,h4kvzhrv568,2022-09-19 17:09:07.894,5a78b8355292b800012284ca,0,0,17,0,24,49,female,,,,,,,,,,,,,,,,,,,,,,,,,,,,,,,
143,0,,image-keyboard-response,143,298116,0.0-6.0-0.0,h4kvzhrv568,2022-09-19 17:09:07.894,5a78b8355292b800012284ca,0,0,17,0,24,49,female,4402.5,,static/images/instructions_CB_0/Slide20.png,39.0,,,,,,,,,,,,,,,,,,,,,,,,,,,
144,0,,image-keyboard-response,144,308438,0.0-6.1-0.1,h4kvzhrv568,2022-09-19 17:09:07.894,5a78b8355292b800012284ca,0,0,17,0,24,49,female,10320.3999999762,,static/images/instructions_CB_0/Slide21.png,39.0,,,,,,,,,,,,,,,,,,,,,,,,,,,
145,0,,image-keyboard-response,145,316793,0.0-6.2-0.2,h4kvzhrv568,2022-09-19 17:09:07.894,5a78b8355292b800012284ca,0,0,17,0,24,49,female,8354.3000000715,,static/images/instructions_CB_0/Slide22.png,39.0,,,,,,,,,,,,,,,,,,,,,,,,,,,
146,0,,image-keyboard-response,146,325752,0.0-6.3-0.3,h4kvzhrv568,2022-09-19 17:09:07.894,5a78b8355292b800012284ca,0,0,17,0,24,49,female,8957.3000000715,,static/images/instructions_CB_0/Slide23.png,39.0,,,,,,,,,,,,,,,,,,,,,,,,,,,
147,0,,image-keyboard-response,147,327840,0.0-6.4-0.4,h4kvzhrv568,2022-09-19 17:09:07.894,5a78b8355292b800012284ca,0,0,17,0,24,49,female,2087.0999999046,,static/images/instructions_CB_0/Slide24.png,39.0,,,,,,,,,,,,,,,,,,,,,,,,,,,
148,0,,html-keyboard-response,148,331217,0.0-7.0-0.0,h4kvzhrv568,2022-09-19 17:09:07.894,5a78b8355292b800012284ca,0,0,17,0,24,49,female,3374.7999999523,,"
  <table>
  <tr height=300>
    <td width=300 height=300><img src=""static/images/cards/stack_of_black_moons.svg"" width=""175px"" height=""250px""></img></td>
    <td width=300 height=300><img src=""static/images/cards/stack_of_red_moons.svg"" width=""175px"" height=""250px""></img></td>
  </tr>
  <tr height=200>
    <td width=300><img src=""static/images/keys/w.svg"" width=""35%"" height=""75%""></img></td>
    <td width=300><img src=""static/images/keys/o.svg"" width=""35%"" height=""75%""></img></td>
  </tr>
</table>
  ",87.0,1.0,,,,,,,,,,,,,,,,,,,,,,,,,,
149,0,,html-keyboard-response,149,332377,0.0-7.0-1.0,h4kvzhrv568,2022-09-19 17:09:07.894,5a78b8355292b800012284ca,0,0,17,0,24,49,female,654.0,,"
  <table>
  <tr height=300>
    <td width=300 height=300><img src=""static/images/cards/back_of_black_moons.svg"" width=""175px"" height=""250px""></img></td>
    <td width=300 height=300><img src=""static/images/cards/back_of_black_moons.svg"" width=""175px"" height=""250px""></img></td>
  </tr>
  <tr height=200>
    <td width=300><img src=""static/images/keys/z.svg"" width=""35%"" height=""75%""></img></td>
    <td width=300></td>
  </tr>
</table>
  ",90.0,1.0,,,,,,,,,,,,,,,,,,,,,,,,,,
150,0,,html-keyboard-response,150,333884,0.0-7.0-2.0,h4kvzhrv568,2022-09-19 17:09:07.894,5a78b8355292b800012284ca,0,0,17,0,24,49,female,,,"
  <table>
  <tr height=300>
    <td width=300 height=300><img src=""static/images/cards/2_of_black_moons.svg"" width=""175px"" height=""250px""></img></td>
    <td width=300 height=300><img src=""static/images/cards/back_of_black_moons.svg"" width=""175px"" height=""250px""></img></td>
  </tr>
  <tr height=200>
    <td width=300><img src=""static/images/keys/z.svg"" width=""35%"" height=""75%""></img></td>
    <td width=300></td>
  </tr>
</table>
  ",,,,,,,,,,,,,,,,,,,,,,,,,,,,
151,0,,html-keyboard-response,151,335395,0.0-7.0-3.0,h4kvzhrv568,2022-09-19 17:09:07.894,5a78b8355292b800012284ca,0,0,17,0,24,49,female,,,"<p style=""font-size:50px"">You win!
+10 points this round!</p>",,,,,,,,,,,,,,,,,,,,,,,,,,,,
152,0,,html-keyboard-response,152,335906,0.0-7.0-4.0,h4kvzhrv568,2022-09-19 17:09:07.894,5a78b8355292b800012284ca,0,0,17,0,24,49,female,,,,,,1.0,choice,0.0,C,D,black,red,moons,moons,D,C,D,black,moons,3374.7999999523,0.0,0.0,1,left,654.0,2.0,0.0,1.0,,,
153,0,,html-keyboard-response,153,337592,0.0-7.1-0.1,h4kvzhrv568,2022-09-19 17:09:07.894,5a78b8355292b800012284ca,0,0,17,0,24,49,female,1684.1000000238,,"
  <table>
  <tr height=300>
    <td width=300 height=300><img src=""static/images/cards/stack_of_red_stars.svg"" width=""175px"" height=""250px""></img></td>
    <td width=300 height=300><img src=""static/images/cards/stack_of_black_stars.svg"" width=""175px"" height=""250px""></img></td>
  </tr>
  <tr height=200>
    <td width=300><img src=""static/images/keys/w.svg"" width=""35%"" height=""75%""></img></td>
    <td width=300><img src=""static/images/keys/o.svg"" width=""35%"" height=""75%""></img></td>
  </tr>
</table>
  ",87.0,1.0,,,,,,,,,,,,,,,,,,,,,,,,,,
154,0,,html-keyboard-response,154,339000,0.0-7.1-1.1,h4kvzhrv568,2022-09-19 17:09:07.894,5a78b8355292b800012284ca,0,0,17,0,24,49,female,902.3000000715,,"
  <table>
  <tr height=300>
    <td width=300 height=300><img src=""static/images/cards/back_of_red_stars.svg"" width=""175px"" height=""250px""></img></td>
    <td width=300 height=300><img src=""static/images/cards/back_of_red_stars.svg"" width=""175px"" height=""250px""></img></td>
  </tr>
  <tr height=200>
    <td width=300><img src=""static/images/keys/z.svg"" width=""35%"" height=""75%""></img></td>
    <td width=300><img src=""static/images/keys/m.svg"" width=""35%"" height=""75%""></img></td>
  </tr>
</table>
  ",77.0,1.0,,,,,,,,,,,,,,,,,,,,,,,,,,
155,0,,html-keyboard-response,155,340508,0.0-7.1-2.1,h4kvzhrv568,2022-09-19 17:09:07.894,5a78b8355292b800012284ca,0,0,17,0,24,49,female,,,"
  <table>
  <tr height=300>
    <td width=300 height=300><img src=""static/images/cards/back_of_red_stars.svg"" width=""175px"" height=""250px""></img></td>
    <td width=300 height=300><img src=""static/images/cards/8_of_red_stars.svg"" width=""175px"" height=""250px""></img></td>
  </tr>
  <tr height=200>
    <td width=300><img src=""static/images/keys/z.svg"" width=""35%"" height=""75%""></img></td>
    <td width=300><img src=""static/images/keys/m.svg"" width=""35%"" height=""75%""></img></td>
  </tr>
</table>
  ",,,,,,,,,,,,,,,,,,,,,,,,,,,,
156,0,,html-keyboard-response,156,342019,0.0-7.1-3.1,h4kvzhrv568,2022-09-19 17:09:07.894,5a78b8355292b800012284ca,0,0,17,0,24,49,female,,,"<p style=""font-size:50px"">You win!
+10 points this round!</p>",,,,,,,,,,,,,,,,,,,,,,,,,,,,
157,0,,html-keyboard-response,157,342529,0.0-7.1-4.1,h4kvzhrv568,2022-09-19 17:09:07.894,5a78b8355292b800012284ca,0,0,17,0,24,49,female,,,,,,1.0,choice,1.0,A,B,red,black,stars,stars,A,B,A,red,stars,1684.1000000238,1.0,1.0,NA,right,902.3000000715,8.0,1.0,1.0,,,
158,0,,html-keyboard-response,158,344515,0.0-7.2-0.2,h4kvzhrv568,2022-09-19 17:09:07.894,5a78b8355292b800012284ca,0,0,17,0,24,49,female,1984.3999999762,,"
  <table>
  <tr height=300>
    <td width=300 height=300><img src=""static/images/cards/stack_of_red_stars.svg"" width=""175px"" height=""250px""></img></td>
    <td width=300 height=300><img src=""static/images/cards/stack_of_black_moons.svg"" width=""175px"" height=""250px""></img></td>
  </tr>
  <tr height=200>
    <td width=300><img src=""static/images/keys/w.svg"" width=""35%"" height=""75%""></img></td>
    <td width=300><img src=""static/images/keys/o.svg"" width=""35%"" height=""75%""></img></td>
  </tr>
</table>
  ",79.0,1.0,,,,,,,,,,,,,,,,,,,,,,,,,,
159,0,,html-keyboard-response,159,345820,0.0-7.2-1.2,h4kvzhrv568,2022-09-19 17:09:07.894,5a78b8355292b800012284ca,0,0,17,0,24,49,female,798.2000000477,,"
  <table>
  <tr height=300>
    <td width=300 height=300><img src=""static/images/cards/back_of_black_moons.svg"" width=""175px"" height=""250px""></img></td>
    <td width=300 height=300><img src=""static/images/cards/back_of_black_moons.svg"" width=""175px"" height=""250px""></img></td>
  </tr>
  <tr height=200>
    <td width=300></td>
    <td width=300><img src=""static/images/keys/m.svg"" width=""35%"" height=""75%""></img></td>
  </tr>
</table>
  ",77.0,1.0,,,,,,,,,,,,,,,,,,,,,,,,,,
160,0,,html-keyboard-response,160,347326,0.0-7.2-2.2,h4kvzhrv568,2022-09-19 17:09:07.894,5a78b8355292b800012284ca,0,0,17,0,24,49,female,,,"
  <table>
  <tr height=300>
    <td width=300 height=300><img src=""static/images/cards/back_of_black_moons.svg"" width=""175px"" height=""250px""></img></td>
    <td width=300 height=300><img src=""static/images/cards/3_of_black_moons.svg"" width=""175px"" height=""250px""></img></td>
  </tr>
  <tr height=200>
    <td width=300></td>
    <td width=300><img src=""static/images/keys/m.svg"" width=""35%"" height=""75%""></img></td>
  </tr>
</table>
  ",,,,,,,,,,,,,,,,,,,,,,,,,,,,
161,0,,html-keyboard-response,161,348834,0.0-7.2-3.2,h4kvzhrv568,2022-09-19 17:09:07.894,5a78b8355292b800012284ca,0,0,17,0,24,49,female,,,"<p style=""font-size:50px"">You Lose!
No points this round.</p>",,,,,,,,,,,,,,,,,,,,,,,,,,,,
162,0,,html-keyboard-response,162,349340,0.0-7.2-4.2,h4kvzhrv568,2022-09-19 17:09:07.894,5a78b8355292b800012284ca,0,0,17,0,24,49,female,,,,,,1.0,choice,2.0,A,D,red,black,stars,moons,A,D,D,black,moons,1984.3999999762,0.0,0.0,0,right,798.2000000477,3.0,0.0,0.0,,,
163,0,,html-keyboard-response,163,351128,0.0-7.3-0.3,h4kvzhrv568,2022-09-19 17:09:07.894,5a78b8355292b800012284ca,0,0,17,0,24,49,female,1786.6000000238,,"
  <table>
  <tr height=300>
    <td width=300 height=300><img src=""static/images/cards/stack_of_red_moons.svg"" width=""175px"" height=""250px""></img></td>
    <td width=300 height=300><img src=""static/images/cards/stack_of_black_moons.svg"" width=""175px"" height=""250px""></img></td>
  </tr>
  <tr height=200>
    <td width=300><img src=""static/images/keys/w.svg"" width=""35%"" height=""75%""></img></td>
    <td width=300><img src=""static/images/keys/o.svg"" width=""35%"" height=""75%""></img></td>
  </tr>
</table>
  ",79.0,1.0,,,,,,,,,,,,,,,,,,,,,,,,,,
164,0,,html-keyboard-response,164,352408,0.0-7.3-1.3,h4kvzhrv568,2022-09-19 17:09:07.894,5a78b8355292b800012284ca,0,0,17,0,24,49,female,773.0999999046,,"
  <table>
  <tr height=300>
    <td width=300 height=300><img src=""static/images/cards/back_of_black_moons.svg"" width=""175px"" height=""250px""></img></td>
    <td width=300 height=300><img src=""static/images/cards/back_of_black_moons.svg"" width=""175px"" height=""250px""></img></td>
  </tr>
  <tr height=200>
    <td width=300></td>
    <td width=300><img src=""static/images/keys/m.svg"" width=""35%"" height=""75%""></img></td>
  </tr>
</table>
  ",77.0,1.0,,,,,,,,,,,,,,,,,,,,,,,,,,
165,0,,html-keyboard-response,165,353915,0.0-7.3-2.3,h4kvzhrv568,2022-09-19 17:09:07.894,5a78b8355292b800012284ca,0,0,17,0,24,49,female,,,"
  <table>
  <tr height=300>
    <td width=300 height=300><img src=""static/images/cards/back_of_black_moons.svg"" width=""175px"" height=""250px""></img></td>
    <td width=300 height=300><img src=""static/images/cards/9_of_black_moons.svg"" width=""175px"" height=""250px""></img></td>
  </tr>
  <tr height=200>
    <td width=300></td>
    <td width=300><img src=""static/images/keys/m.svg"" width=""35%"" height=""75%""></img></td>
  </tr>
</table>
  ",,,,,,,,,,,,,,,,,,,,,,,,,,,,
166,0,,html-keyboard-response,166,355427,0.0-7.3-3.3,h4kvzhrv568,2022-09-19 17:09:07.894,5a78b8355292b800012284ca,0,0,17,0,24,49,female,,,"<p style=""font-size:50px"">You Lose!
No points this round.</p>",,,,,,,,,,,,,,,,,,,,,,,,,,,,
167,0,,html-keyboard-response,167,355937,0.0-7.3-4.3,h4kvzhrv568,2022-09-19 17:09:07.894,5a78b8355292b800012284ca,0,0,17,0,24,49,female,,,,,,1.0,choice,3.0,C,D,red,black,moons,moons,C,D,D,black,moons,1786.6000000238,0.0,0.0,0,right,773.0999999046,9.0,1.0,0.0,,,
168,0,,html-keyboard-response,168,357669,0.0-7.4-0.4,h4kvzhrv568,2022-09-19 17:09:07.894,5a78b8355292b800012284ca,0,0,17,0,24,49,female,1729.7000000477,,"
  <table>
  <tr height=300>
    <td width=300 height=300><img src=""static/images/cards/stack_of_red_moons.svg"" width=""175px"" height=""250px""></img></td>
    <td width=300 height=300><img src=""static/images/cards/stack_of_black_stars.svg"" width=""175px"" height=""250px""></img></td>
  </tr>
  <tr height=200>
    <td width=300><img src=""static/images/keys/w.svg"" width=""35%"" height=""75%""></img></td>
    <td width=300><img src=""static/images/keys/o.svg"" width=""35%"" height=""75%""></img></td>
  </tr>
</table>
  ",79.0,1.0,,,,,,,,,,,,,,,,,,,,,,,,,,
169,0,,html-keyboard-response,169,358795,0.0-7.4-1.4,h4kvzhrv568,2022-09-19 17:09:07.894,5a78b8355292b800012284ca,0,0,17,0,24,49,female,618.8999999762,,"
  <table>
  <tr height=300>
    <td width=300 height=300><img src=""static/images/cards/back_of_black_stars.svg"" width=""175px"" height=""250px""></img></td>
    <td width=300 height=300><img src=""static/images/cards/back_of_black_stars.svg"" width=""175px"" height=""250px""></img></td>
  </tr>
  <tr height=200>
    <td width=300><img src=""static/images/keys/z.svg"" width=""35%"" height=""75%""></img></td>
    <td width=300></td>
  </tr>
</table>
  ",90.0,1.0,,,,,,,,,,,,,,,,,,,,,,,,,,
170,0,,html-keyboard-response,170,360302,0.0-7.4-2.4,h4kvzhrv568,2022-09-19 17:09:07.894,5a78b8355292b800012284ca,0,0,17,0,24,49,female,,,"
  <table>
  <tr height=300>
    <td width=300 height=300><img src=""static/images/cards/7_of_black_stars.svg"" width=""175px"" height=""250px""></img></td>
    <td width=300 height=300><img src=""static/images/cards/back_of_black_stars.svg"" width=""175px"" height=""250px""></img></td>
  </tr>
  <tr height=200>
    <td width=300><img src=""static/images/keys/z.svg"" width=""35%"" height=""75%""></img></td>
    <td width=300></td>
  </tr>
</table>
  ",,,,,,,,,,,,,,,,,,,,,,,,,,,,
171,0,,html-keyboard-response,171,361813,0.0-7.4-3.4,h4kvzhrv568,2022-09-19 17:09:07.894,5a78b8355292b800012284ca,0,0,17,0,24,49,female,,,"<p style=""font-size:50px"">You win!
+10 points this round!</p>",,,,,,,,,,,,,,,,,,,,,,,,,,,,
172,0,,html-keyboard-response,172,362324,0.0-7.4-4.4,h4kvzhrv568,2022-09-19 17:09:07.894,5a78b8355292b800012284ca,0,0,17,0,24,49,female,,,,,,1.0,choice,4.0,B,C,red,black,moons,stars,C,B,B,black,stars,1729.7000000477,0.0,1.0,1,left,618.8999999762,7.0,1.0,1.0,,,
173,0,,html-keyboard-response,173,364100,0.0-7.5-0.5,h4kvzhrv568,2022-09-19 17:09:07.894,5a78b8355292b800012284ca,0,0,17,0,24,49,female,1774.5,,"
  <table>
  <tr height=300>
    <td width=300 height=300><img src=""static/images/cards/stack_of_red_moons.svg"" width=""175px"" height=""250px""></img></td>
    <td width=300 height=300><img src=""static/images/cards/stack_of_black_stars.svg"" width=""175px"" height=""250px""></img></td>
  </tr>
  <tr height=200>
    <td width=300><img src=""static/images/keys/w.svg"" width=""35%"" height=""75%""></img></td>
    <td width=300><img src=""static/images/keys/o.svg"" width=""35%"" height=""75%""></img></td>
  </tr>
</table>
  ",79.0,1.0,,,,,,,,,,,,,,,,,,,,,,,,,,
174,0,,html-keyboard-response,174,365260,0.0-7.5-1.5,h4kvzhrv568,2022-09-19 17:09:07.894,5a78b8355292b800012284ca,0,0,17,0,24,49,female,653.5,,"
  <table>
  <tr height=300>
    <td width=300 height=300><img src=""static/images/cards/back_of_black_stars.svg"" width=""175px"" height=""250px""></img></td>
    <td width=300 height=300><img src=""static/images/cards/back_of_black_stars.svg"" width=""175px"" height=""250px""></img></td>
  </tr>
  <tr height=200>
    <td width=300></td>
    <td width=300><img src=""static/images/keys/m.svg"" width=""35%"" height=""75%""></img></td>
  </tr>
</table>
  ",77.0,1.0,,,,,,,,,,,,,,,,,,,,,,,,,,
175,0,,html-keyboard-response,175,366767,0.0-7.5-2.5,h4kvzhrv568,2022-09-19 17:09:07.894,5a78b8355292b800012284ca,0,0,17,0,24,49,female,,,"
  <table>
  <tr height=300>
    <td width=300 height=300><img src=""static/images/cards/back_of_black_stars.svg"" width=""175px"" height=""250px""></img></td>
    <td width=300 height=300><img src=""static/images/cards/3_of_black_stars.svg"" width=""175px"" height=""250px""></img></td>
  </tr>
  <tr height=200>
    <td width=300></td>
    <td width=300><img src=""static/images/keys/m.svg"" width=""35%"" height=""75%""></img></td>
  </tr>
</table>
  ",,,,,,,,,,,,,,,,,,,,,,,,,,,,
176,0,,html-keyboard-response,176,368278,0.0-7.5-3.5,h4kvzhrv568,2022-09-19 17:09:07.894,5a78b8355292b800012284ca,0,0,17,0,24,49,female,,,"<p style=""font-size:50px"">You Lose!
No points this round.</p>",,,,,,,,,,,,,,,,,,,,,,,,,,,,
177,0,,html-keyboard-response,177,368789,0.0-7.5-4.5,h4kvzhrv568,2022-09-19 17:09:07.894,5a78b8355292b800012284ca,0,0,17,0,24,49,female,,,,,,1.0,choice,5.0,B,C,red,black,moons,stars,C,B,B,black,stars,1774.5,0.0,1.0,0,right,653.5,3.0,0.0,0.0,,,
178,0,,html-keyboard-response,178,370241,0.0-7.6-0.6,h4kvzhrv568,2022-09-19 17:09:07.894,5a78b8355292b800012284ca,0,0,17,0,24,49,female,1450.3999999762,,"
  <table>
  <tr height=300>
    <td width=300 height=300><img src=""static/images/cards/stack_of_red_stars.svg"" width=""175px"" height=""250px""></img></td>
    <td width=300 height=300><img src=""static/images/cards/stack_of_black_moons.svg"" width=""175px"" height=""250px""></img></td>
  </tr>
  <tr height=200>
    <td width=300><img src=""static/images/keys/w.svg"" width=""35%"" height=""75%""></img></td>
    <td width=300><img src=""static/images/keys/o.svg"" width=""35%"" height=""75%""></img></td>
  </tr>
</table>
  ",79.0,1.0,,,,,,,,,,,,,,,,,,,,,,,,,,
179,0,,html-keyboard-response,179,371299,0.0-7.6-1.6,h4kvzhrv568,2022-09-19 17:09:07.894,5a78b8355292b800012284ca,0,0,17,0,24,49,female,552.1999999285,,"
  <table>
  <tr height=300>
    <td width=300 height=300><img src=""static/images/cards/back_of_black_moons.svg"" width=""175px"" height=""250px""></img></td>
    <td width=300 height=300><img src=""static/images/cards/back_of_black_moons.svg"" width=""175px"" height=""250px""></img></td>
  </tr>
  <tr height=200>
    <td width=300></td>
    <td width=300><img src=""static/images/keys/m.svg"" width=""35%"" height=""75%""></img></td>
  </tr>
</table>
  ",77.0,1.0,,,,,,,,,,,,,,,,,,,,,,,,,,
180,0,,html-keyboard-response,180,372806,0.0-7.6-2.6,h4kvzhrv568,2022-09-19 17:09:07.894,5a78b8355292b800012284ca,0,0,17,0,24,49,female,,,"
  <table>
  <tr height=300>
    <td width=300 height=300><img src=""static/images/cards/back_of_black_moons.svg"" width=""175px"" height=""250px""></img></td>
    <td width=300 height=300><img src=""static/images/cards/9_of_black_moons.svg"" width=""175px"" height=""250px""></img></td>
  </tr>
  <tr height=200>
    <td width=300></td>
    <td width=300><img src=""static/images/keys/m.svg"" width=""35%"" height=""75%""></img></td>
  </tr>
</table>
  ",,,,,,,,,,,,,,,,,,,,,,,,,,,,
181,0,,html-keyboard-response,181,374317,0.0-7.6-3.6,h4kvzhrv568,2022-09-19 17:09:07.894,5a78b8355292b800012284ca,0,0,17,0,24,49,female,,,"<p style=""font-size:50px"">You Lose!
No points this round.</p>",,,,,,,,,,,,,,,,,,,,,,,,,,,,
182,0,,html-keyboard-response,182,374828,0.0-7.6-4.6,h4kvzhrv568,2022-09-19 17:09:07.894,5a78b8355292b800012284ca,0,0,17,0,24,49,female,,,,,,1.0,choice,6.0,A,D,red,black,stars,moons,A,D,D,black,moons,1450.3999999762,0.0,0.0,0,right,552.1999999285,9.0,1.0,0.0,,,
183,0,,html-keyboard-response,183,376279,0.0-7.7-0.7,h4kvzhrv568,2022-09-19 17:09:07.894,5a78b8355292b800012284ca,0,0,17,0,24,49,female,1449.8000000715,,"
  <table>
  <tr height=300>
    <td width=300 height=300><img src=""static/images/cards/stack_of_black_stars.svg"" width=""175px"" height=""250px""></img></td>
    <td width=300 height=300><img src=""static/images/cards/stack_of_black_moons.svg"" width=""175px"" height=""250px""></img></td>
  </tr>
  <tr height=200>
    <td width=300><img src=""static/images/keys/w.svg"" width=""35%"" height=""75%""></img></td>
    <td width=300><img src=""static/images/keys/o.svg"" width=""35%"" height=""75%""></img></td>
  </tr>
</table>
  ",87.0,1.0,,,,,,,,,,,,,,,,,,,,,,,,,,
184,0,,html-keyboard-response,184,377690,0.0-7.7-1.7,h4kvzhrv568,2022-09-19 17:09:07.894,5a78b8355292b800012284ca,0,0,17,0,24,49,female,904.2000000477,,"
  <table>
  <tr height=300>
    <td width=300 height=300><img src=""static/images/cards/back_of_black_stars.svg"" width=""175px"" height=""250px""></img></td>
    <td width=300 height=300><img src=""static/images/cards/back_of_black_stars.svg"" width=""175px"" height=""250px""></img></td>
  </tr>
  <tr height=200>
    <td width=300></td>
    <td width=300><img src=""static/images/keys/m.svg"" width=""35%"" height=""75%""></img></td>
  </tr>
</table>
  ",77.0,1.0,,,,,,,,,,,,,,,,,,,,,,,,,,
185,0,,html-keyboard-response,185,379196,0.0-7.7-2.7,h4kvzhrv568,2022-09-19 17:09:07.894,5a78b8355292b800012284ca,0,0,17,0,24,49,female,,,"
  <table>
  <tr height=300>
    <td width=300 height=300><img src=""static/images/cards/back_of_black_stars.svg"" width=""175px"" height=""250px""></img></td>
    <td width=300 height=300><img src=""static/images/cards/1_of_black_stars.svg"" width=""175px"" height=""250px""></img></td>
  </tr>
  <tr height=200>
    <td width=300></td>
    <td width=300><img src=""static/images/keys/m.svg"" width=""35%"" height=""75%""></img></td>
  </tr>
</table>
  ",,,,,,,,,,,,,,,,,,,,,,,,,,,,
186,0,,html-keyboard-response,186,380708,0.0-7.7-3.7,h4kvzhrv568,2022-09-19 17:09:07.894,5a78b8355292b800012284ca,0,0,17,0,24,49,female,,,"<p style=""font-size:50px"">You Lose!
No points this round.</p>",,,,,,,,,,,,,,,,,,,,,,,,,,,,
187,0,,html-keyboard-response,187,381218,0.0-7.7-4.7,h4kvzhrv568,2022-09-19 17:09:07.894,5a78b8355292b800012284ca,0,0,17,0,24,49,female,,,,,,1.0,choice,7.0,B,D,black,black,stars,moons,B,D,B,black,stars,1449.8000000715,0.0,1.0,0,right,904.2000000477,1.0,0.0,0.0,,,
188,0,,html-keyboard-response,188,382594,0.0-7.8-0.8,h4kvzhrv568,2022-09-19 17:09:07.894,5a78b8355292b800012284ca,0,0,17,0,24,49,female,1374.4000000954,,"
  <table>
  <tr height=300>
    <td width=300 height=300><img src=""static/images/cards/stack_of_black_stars.svg"" width=""175px"" height=""250px""></img></td>
    <td width=300 height=300><img src=""static/images/cards/stack_of_red_moons.svg"" width=""175px"" height=""250px""></img></td>
  </tr>
  <tr height=200>
    <td width=300><img src=""static/images/keys/w.svg"" width=""35%"" height=""75%""></img></td>
    <td width=300><img src=""static/images/keys/o.svg"" width=""35%"" height=""75%""></img></td>
  </tr>
</table>
  ",79.0,1.0,,,,,,,,,,,,,,,,,,,,,,,,,,
189,0,,html-keyboard-response,189,383876,0.0-7.8-1.8,h4kvzhrv568,2022-09-19 17:09:07.894,5a78b8355292b800012284ca,0,0,17,0,24,49,female,778.1999999285,,"
  <table>
  <tr height=300>
    <td width=300 height=300><img src=""static/images/cards/back_of_red_moons.svg"" width=""175px"" height=""250px""></img></td>
    <td width=300 height=300><img src=""static/images/cards/back_of_red_moons.svg"" width=""175px"" height=""250px""></img></td>
  </tr>
  <tr height=200>
    <td width=300><img src=""static/images/keys/z.svg"" width=""35%"" height=""75%""></img></td>
    <td width=300><img src=""static/images/keys/m.svg"" width=""35%"" height=""75%""></img></td>
  </tr>
</table>
  ",90.0,1.0,,,,,,,,,,,,,,,,,,,,,,,,,,
190,0,,html-keyboard-response,190,385380,0.0-7.8-2.8,h4kvzhrv568,2022-09-19 17:09:07.894,5a78b8355292b800012284ca,0,0,17,0,24,49,female,,,"
  <table>
  <tr height=300>
    <td width=300 height=300><img src=""static/images/cards/3_of_red_moons.svg"" width=""175px"" height=""250px""></img></td>
    <td width=300 height=300><img src=""static/images/cards/back_of_red_moons.svg"" width=""175px"" height=""250px""></img></td>
  </tr>
  <tr height=200>
    <td width=300><img src=""static/images/keys/z.svg"" width=""35%"" height=""75%""></img></td>
    <td width=300><img src=""static/images/keys/m.svg"" width=""35%"" height=""75%""></img></td>
  </tr>
</table>
  ",,,,,,,,,,,,,,,,,,,,,,,,,,,,
191,0,,html-keyboard-response,191,386891,0.0-7.8-3.8,h4kvzhrv568,2022-09-19 17:09:07.894,5a78b8355292b800012284ca,0,0,17,0,24,49,female,,,"<p style=""font-size:50px"">You Lose!
No points this round.</p>",,,,,,,,,,,,,,,,,,,,,,,,,,,,
192,0,,html-keyboard-response,192,387401,0.0-7.8-4.8,h4kvzhrv568,2022-09-19 17:09:07.894,5a78b8355292b800012284ca,0,0,17,0,24,49,female,,,,,,1.0,choice,8.0,B,C,black,red,stars,moons,B,C,C,red,moons,1374.4000000954,1.0,0.0,NA,left,778.1999999285,3.0,0.0,0.0,,,
193,0,,html-keyboard-response,193,389067,0.0-7.9-0.9,h4kvzhrv568,2022-09-19 17:09:07.894,5a78b8355292b800012284ca,0,0,17,0,24,49,female,1664.2000000477,,"
  <table>
  <tr height=300>
    <td width=300 height=300><img src=""static/images/cards/stack_of_black_moons.svg"" width=""175px"" height=""250px""></img></td>
    <td width=300 height=300><img src=""static/images/cards/stack_of_black_stars.svg"" width=""175px"" height=""250px""></img></td>
  </tr>
  <tr height=200>
    <td width=300><img src=""static/images/keys/w.svg"" width=""35%"" height=""75%""></img></td>
    <td width=300><img src=""static/images/keys/o.svg"" width=""35%"" height=""75%""></img></td>
  </tr>
</table>
  ",79.0,1.0,,,,,,,,,,,,,,,,,,,,,,,,,,
194,0,,html-keyboard-response,194,390112,0.0-7.9-1.9,h4kvzhrv568,2022-09-19 17:09:07.894,5a78b8355292b800012284ca,0,0,17,0,24,49,female,538.2999999523,,"
  <table>
  <tr height=300>
    <td width=300 height=300><img src=""static/images/cards/back_of_black_stars.svg"" width=""175px"" height=""250px""></img></td>
    <td width=300 height=300><img src=""static/images/cards/back_of_black_stars.svg"" width=""175px"" height=""250px""></img></td>
  </tr>
  <tr height=200>
    <td width=300></td>
    <td width=300><img src=""static/images/keys/m.svg"" width=""35%"" height=""75%""></img></td>
  </tr>
</table>
  ",77.0,1.0,,,,,,,,,,,,,,,,,,,,,,,,,,
195,0,,html-keyboard-response,195,391619,0.0-7.9-2.9,h4kvzhrv568,2022-09-19 17:09:07.894,5a78b8355292b800012284ca,0,0,17,0,24,49,female,,,"
  <table>
  <tr height=300>
    <td width=300 height=300><img src=""static/images/cards/back_of_black_stars.svg"" width=""175px"" height=""250px""></img></td>
    <td width=300 height=300><img src=""static/images/cards/2_of_black_stars.svg"" width=""175px"" height=""250px""></img></td>
  </tr>
  <tr height=200>
    <td width=300></td>
    <td width=300><img src=""static/images/keys/m.svg"" width=""35%"" height=""75%""></img></td>
  </tr>
</table>
  ",,,,,,,,,,,,,,,,,,,,,,,,,,,,
196,0,,html-keyboard-response,196,393127,0.0-7.9-3.9,h4kvzhrv568,2022-09-19 17:09:07.894,5a78b8355292b800012284ca,0,0,17,0,24,49,female,,,"<p style=""font-size:50px"">You Lose!
No points this round.</p>",,,,,,,,,,,,,,,,,,,,,,,,,,,,
197,0,,html-keyboard-response,197,393636,0.0-7.9-4.9,h4kvzhrv568,2022-09-19 17:09:07.894,5a78b8355292b800012284ca,0,0,17,0,24,49,female,,,,,,1.0,choice,9.0,B,D,black,black,moons,stars,D,B,B,black,stars,1664.2000000477,0.0,1.0,0,right,538.2999999523,2.0,0.0,0.0,,,
198,0,,html-keyboard-response,198,395544,0.0-7.10-0.10,h4kvzhrv568,2022-09-19 17:09:07.894,5a78b8355292b800012284ca,0,0,17,0,24,49,female,1905.1999999285,,"
  <table>
  <tr height=300>
    <td width=300 height=300><img src=""static/images/cards/stack_of_black_stars.svg"" width=""175px"" height=""250px""></img></td>
    <td width=300 height=300><img src=""static/images/cards/stack_of_black_moons.svg"" width=""175px"" height=""250px""></img></td>
  </tr>
  <tr height=200>
    <td width=300><img src=""static/images/keys/w.svg"" width=""35%"" height=""75%""></img></td>
    <td width=300><img src=""static/images/keys/o.svg"" width=""35%"" height=""75%""></img></td>
  </tr>
</table>
  ",87.0,1.0,,,,,,,,,,,,,,,,,,,,,,,,,,
199,0,,html-keyboard-response,199,396697,0.0-7.10-1.10,h4kvzhrv568,2022-09-19 17:09:07.894,5a78b8355292b800012284ca,0,0,17,0,24,49,female,649.3999999762,,"
  <table>
  <tr height=300>
    <td width=300 height=300><img src=""static/images/cards/back_of_black_stars.svg"" width=""175px"" height=""250px""></img></td>
    <td width=300 height=300><img src=""static/images/cards/back_of_black_stars.svg"" width=""175px"" height=""250px""></img></td>
  </tr>
  <tr height=200>
    <td width=300></td>
    <td width=300><img src=""static/images/keys/m.svg"" width=""35%"" height=""75%""></img></td>
  </tr>
</table>
  ",77.0,1.0,,,,,,,,,,,,,,,,,,,,,,,,,,
200,0,,html-keyboard-response,200,398205,0.0-7.10-2.10,h4kvzhrv568,2022-09-19 17:09:07.894,5a78b8355292b800012284ca,0,0,17,0,24,49,female,,,"
  <table>
  <tr height=300>
    <td width=300 height=300><img src=""static/images/cards/back_of_black_stars.svg"" width=""175px"" height=""250px""></img></td>
    <td width=300 height=300><img src=""static/images/cards/9_of_black_stars.svg"" width=""175px"" height=""250px""></img></td>
  </tr>
  <tr height=200>
    <td width=300></td>
    <td width=300><img src=""static/images/keys/m.svg"" width=""35%"" height=""75%""></img></td>
  </tr>
</table>
  ",,,,,,,,,,,,,,,,,,,,,,,,,,,,
201,0,,html-keyboard-response,201,399713,0.0-7.10-3.10,h4kvzhrv568,2022-09-19 17:09:07.894,5a78b8355292b800012284ca,0,0,17,0,24,49,female,,,"<p style=""font-size:50px"">You win!
+10 points this round!</p>",,,,,,,,,,,,,,,,,,,,,,,,,,,,
202,0,,html-keyboard-response,202,400223,0.0-7.10-4.10,h4kvzhrv568,2022-09-19 17:09:07.894,5a78b8355292b800012284ca,0,0,17,0,24,49,female,,,,,,1.0,choice,10.0,B,D,black,black,stars,moons,B,D,B,black,stars,1905.1999999285,0.0,1.0,0,right,649.3999999762,9.0,1.0,1.0,,,
203,0,,html-keyboard-response,203,401629,0.0-7.11-0.11,h4kvzhrv568,2022-09-19 17:09:07.894,5a78b8355292b800012284ca,0,0,17,0,24,49,female,1403.5,,"
  <table>
  <tr height=300>
    <td width=300 height=300><img src=""static/images/cards/stack_of_red_moons.svg"" width=""175px"" height=""250px""></img></td>
    <td width=300 height=300><img src=""static/images/cards/stack_of_black_bolts.svg"" width=""175px"" height=""250px""></img></td>
  </tr>
  <tr height=200>
    <td width=300><img src=""static/images/keys/w.svg"" width=""35%"" height=""75%""></img></td>
    <td width=300><img src=""static/images/keys/o.svg"" width=""35%"" height=""75%""></img></td>
  </tr>
</table>
  ",79.0,1.0,,,,,,,,,,,,,,,,,,,,,,,,,,
204,0,,html-keyboard-response,204,402775,0.0-7.11-1.11,h4kvzhrv568,2022-09-19 17:09:07.894,5a78b8355292b800012284ca,0,0,17,0,24,49,female,642.3999999762,,"
  <table>
  <tr height=300>
    <td width=300 height=300><img src=""static/images/cards/back_of_black_bolts.svg"" width=""175px"" height=""250px""></img></td>
    <td width=300 height=300><img src=""static/images/cards/back_of_black_bolts.svg"" width=""175px"" height=""250px""></img></td>
  </tr>
  <tr height=200>
    <td width=300><img src=""static/images/keys/z.svg"" width=""35%"" height=""75%""></img></td>
    <td width=300></td>
  </tr>
</table>
  ",90.0,1.0,,,,,,,,,,,,,,,,,,,,,,,,,,
205,0,,html-keyboard-response,205,404280,0.0-7.11-2.11,h4kvzhrv568,2022-09-19 17:09:07.894,5a78b8355292b800012284ca,0,0,17,0,24,49,female,,,"
  <table>
  <tr height=300>
    <td width=300 height=300><img src=""static/images/cards/9_of_black_bolts.svg"" width=""175px"" height=""250px""></img></td>
    <td width=300 height=300><img src=""static/images/cards/back_of_black_bolts.svg"" width=""175px"" height=""250px""></img></td>
  </tr>
  <tr height=200>
    <td width=300><img src=""static/images/keys/z.svg"" width=""35%"" height=""75%""></img></td>
    <td width=300></td>
  </tr>
</table>
  ",,,,,,,,,,,,,,,,,,,,,,,,,,,,
206,0,,html-keyboard-response,206,405791,0.0-7.11-3.11,h4kvzhrv568,2022-09-19 17:09:07.894,5a78b8355292b800012284ca,0,0,17,0,24,49,female,,,"<p style=""font-size:50px"">You win!
+10 points this round!</p>",,,,,,,,,,,,,,,,,,,,,,,,,,,,
207,0,,html-keyboard-response,207,406298,0.0-7.11-4.11,h4kvzhrv568,2022-09-19 17:09:07.894,5a78b8355292b800012284ca,0,0,17,0,24,49,female,,,,,,1.0,choice,11.0,C,Xnc,red,black,moons,bolts,C,Xnc,Xnc,black,bolts,1403.5,0.0,0.0,1,left,642.3999999762,9.0,1.0,1.0,,,
208,0,,html-keyboard-response,208,408708,0.0-7.12-0.12,h4kvzhrv568,2022-09-19 17:09:07.894,5a78b8355292b800012284ca,0,0,17,0,24,49,female,2408.2999999523,,"
  <table>
  <tr height=300>
    <td width=300 height=300><img src=""static/images/cards/stack_of_red_moons.svg"" width=""175px"" height=""250px""></img></td>
    <td width=300 height=300><img src=""static/images/cards/stack_of_black_moons.svg"" width=""175px"" height=""250px""></img></td>
  </tr>
  <tr height=200>
    <td width=300><img src=""static/images/keys/w.svg"" width=""35%"" height=""75%""></img></td>
    <td width=300><img src=""static/images/keys/o.svg"" width=""35%"" height=""75%""></img></td>
  </tr>
</table>
  ",87.0,1.0,,,,,,,,,,,,,,,,,,,,,,,,,,
209,0,,html-keyboard-response,209,410062,0.0-7.12-1.12,h4kvzhrv568,2022-09-19 17:09:07.894,5a78b8355292b800012284ca,0,0,17,0,24,49,female,847.3999999762,,"
  <table>
  <tr height=300>
    <td width=300 height=300><img src=""static/images/cards/back_of_red_moons.svg"" width=""175px"" height=""250px""></img></td>
    <td width=300 height=300><img src=""static/images/cards/back_of_red_moons.svg"" width=""175px"" height=""250px""></img></td>
  </tr>
  <tr height=200>
    <td width=300><img src=""static/images/keys/z.svg"" width=""35%"" height=""75%""></img></td>
    <td width=300><img src=""static/images/keys/m.svg"" width=""35%"" height=""75%""></img></td>
  </tr>
</table>
  ",90.0,1.0,,,,,,,,,,,,,,,,,,,,,,,,,,
210,0,,html-keyboard-response,210,411569,0.0-7.12-2.12,h4kvzhrv568,2022-09-19 17:09:07.894,5a78b8355292b800012284ca,0,0,17,0,24,49,female,,,"
  <table>
  <tr height=300>
    <td width=300 height=300><img src=""static/images/cards/10_of_red_moons.svg"" width=""175px"" height=""250px""></img></td>
    <td width=300 height=300><img src=""static/images/cards/back_of_red_moons.svg"" width=""175px"" height=""250px""></img></td>
  </tr>
  <tr height=200>
    <td width=300><img src=""static/images/keys/z.svg"" width=""35%"" height=""75%""></img></td>
    <td width=300><img src=""static/images/keys/m.svg"" width=""35%"" height=""75%""></img></td>
  </tr>
</table>
  ",,,,,,,,,,,,,,,,,,,,,,,,,,,,
211,0,,html-keyboard-response,211,413079,0.0-7.12-3.12,h4kvzhrv568,2022-09-19 17:09:07.894,5a78b8355292b800012284ca,0,0,17,0,24,49,female,,,"<p style=""font-size:50px"">You Lose!
No points this round.</p>",,,,,,,,,,,,,,,,,,,,,,,,,,,,
212,0,,html-keyboard-response,212,413590,0.0-7.12-4.12,h4kvzhrv568,2022-09-19 17:09:07.894,5a78b8355292b800012284ca,0,0,17,0,24,49,female,,,,,,1.0,choice,12.0,C,D,red,black,moons,moons,C,D,C,red,moons,2408.2999999523,1.0,0.0,NA,left,847.3999999762,10.0,1.0,0.0,,,
213,0,,html-keyboard-response,213,415038,0.0-7.13-0.13,h4kvzhrv568,2022-09-19 17:09:07.894,5a78b8355292b800012284ca,0,0,17,0,24,49,female,1443.8000000715,,"
  <table>
  <tr height=300>
    <td width=300 height=300><img src=""static/images/cards/stack_of_red_moons.svg"" width=""175px"" height=""250px""></img></td>
    <td width=300 height=300><img src=""static/images/cards/stack_of_red_stars.svg"" width=""175px"" height=""250px""></img></td>
  </tr>
  <tr height=200>
    <td width=300><img src=""static/images/keys/w.svg"" width=""35%"" height=""75%""></img></td>
    <td width=300><img src=""static/images/keys/o.svg"" width=""35%"" height=""75%""></img></td>
  </tr>
</table>
  ",79.0,1.0,,,,,,,,,,,,,,,,,,,,,,,,,,
214,0,,html-keyboard-response,214,416824,0.0-7.13-1.13,h4kvzhrv568,2022-09-19 17:09:07.894,5a78b8355292b800012284ca,0,0,17,0,24,49,female,1279.0,,"
  <table>
  <tr height=300>
    <td width=300 height=300><img src=""static/images/cards/back_of_red_stars.svg"" width=""175px"" height=""250px""></img></td>
    <td width=300 height=300><img src=""static/images/cards/back_of_red_stars.svg"" width=""175px"" height=""250px""></img></td>
  </tr>
  <tr height=200>
    <td width=300><img src=""static/images/keys/z.svg"" width=""35%"" height=""75%""></img></td>
    <td width=300><img src=""static/images/keys/m.svg"" width=""35%"" height=""75%""></img></td>
  </tr>
</table>
  ",90.0,1.0,,,,,,,,,,,,,,,,,,,,,,,,,,
215,0,,html-keyboard-response,215,418328,0.0-7.13-2.13,h4kvzhrv568,2022-09-19 17:09:07.894,5a78b8355292b800012284ca,0,0,17,0,24,49,female,,,"
  <table>
  <tr height=300>
    <td width=300 height=300><img src=""static/images/cards/2_of_red_stars.svg"" width=""175px"" height=""250px""></img></td>
    <td width=300 height=300><img src=""static/images/cards/back_of_red_stars.svg"" width=""175px"" height=""250px""></img></td>
  </tr>
  <tr height=200>
    <td width=300><img src=""static/images/keys/z.svg"" width=""35%"" height=""75%""></img></td>
    <td width=300><img src=""static/images/keys/m.svg"" width=""35%"" height=""75%""></img></td>
  </tr>
</table>
  ",,,,,,,,,,,,,,,,,,,,,,,,,,,,
216,0,,html-keyboard-response,216,419839,0.0-7.13-3.13,h4kvzhrv568,2022-09-19 17:09:07.894,5a78b8355292b800012284ca,0,0,17,0,24,49,female,,,"<p style=""font-size:50px"">You Lose!
No points this round.</p>",,,,,,,,,,,,,,,,,,,,,,,,,,,,
217,0,,html-keyboard-response,217,420350,0.0-7.13-4.13,h4kvzhrv568,2022-09-19 17:09:07.894,5a78b8355292b800012284ca,0,0,17,0,24,49,female,,,,,,1.0,choice,13.0,A,C,red,red,moons,stars,C,A,A,red,stars,1443.8000000715,1.0,1.0,NA,left,1279.0,2.0,0.0,0.0,,,
218,0,,html-keyboard-response,218,422176,0.0-7.14-0.14,h4kvzhrv568,2022-09-19 17:09:07.894,5a78b8355292b800012284ca,0,0,17,0,24,49,female,1822.1999999285,,"
  <table>
  <tr height=300>
    <td width=300 height=300><img src=""static/images/cards/stack_of_red_stars.svg"" width=""175px"" height=""250px""></img></td>
    <td width=300 height=300><img src=""static/images/cards/stack_of_black_moons.svg"" width=""175px"" height=""250px""></img></td>
  </tr>
  <tr height=200>
    <td width=300><img src=""static/images/keys/w.svg"" width=""35%"" height=""75%""></img></td>
    <td width=300><img src=""static/images/keys/o.svg"" width=""35%"" height=""75%""></img></td>
  </tr>
</table>
  ",87.0,1.0,,,,,,,,,,,,,,,,,,,,,,,,,,
219,0,,html-keyboard-response,219,423634,0.0-7.14-1.14,h4kvzhrv568,2022-09-19 17:09:07.894,5a78b8355292b800012284ca,0,0,17,0,24,49,female,950.3999999762,,"
  <table>
  <tr height=300>
    <td width=300 height=300><img src=""static/images/cards/back_of_red_stars.svg"" width=""175px"" height=""250px""></img></td>
    <td width=300 height=300><img src=""static/images/cards/back_of_red_stars.svg"" width=""175px"" height=""250px""></img></td>
  </tr>
  <tr height=200>
    <td width=300><img src=""static/images/keys/z.svg"" width=""35%"" height=""75%""></img></td>
    <td width=300><img src=""static/images/keys/m.svg"" width=""35%"" height=""75%""></img></td>
  </tr>
</table>
  ",77.0,1.0,,,,,,,,,,,,,,,,,,,,,,,,,,
220,0,,html-keyboard-response,220,425143,0.0-7.14-2.14,h4kvzhrv568,2022-09-19 17:09:07.894,5a78b8355292b800012284ca,0,0,17,0,24,49,female,,,"
  <table>
  <tr height=300>
    <td width=300 height=300><img src=""static/images/cards/back_of_red_stars.svg"" width=""175px"" height=""250px""></img></td>
    <td width=300 height=300><img src=""static/images/cards/4_of_red_stars.svg"" width=""175px"" height=""250px""></img></td>
  </tr>
  <tr height=200>
    <td width=300><img src=""static/images/keys/z.svg"" width=""35%"" height=""75%""></img></td>
    <td width=300><img src=""static/images/keys/m.svg"" width=""35%"" height=""75%""></img></td>
  </tr>
</table>
  ",,,,,,,,,,,,,,,,,,,,,,,,,,,,
221,0,,html-keyboard-response,221,426654,0.0-7.14-3.14,h4kvzhrv568,2022-09-19 17:09:07.894,5a78b8355292b800012284ca,0,0,17,0,24,49,female,,,"<p style=""font-size:50px"">You Lose!
No points this round.</p>",,,,,,,,,,,,,,,,,,,,,,,,,,,,
222,0,,html-keyboard-response,222,427165,0.0-7.14-4.14,h4kvzhrv568,2022-09-19 17:09:07.894,5a78b8355292b800012284ca,0,0,17,0,24,49,female,,,,,,1.0,choice,14.0,A,D,red,black,stars,moons,A,D,A,red,stars,1822.1999999285,1.0,1.0,NA,right,950.3999999762,4.0,0.0,0.0,,,
223,0,,html-keyboard-response,223,428245,0.0-7.15-0.15,h4kvzhrv568,2022-09-19 17:09:07.894,5a78b8355292b800012284ca,0,0,17,0,24,49,female,1077.0,,"
  <table>
  <tr height=300>
    <td width=300 height=300><img src=""static/images/cards/stack_of_black_stars.svg"" width=""175px"" height=""250px""></img></td>
    <td width=300 height=300><img src=""static/images/cards/stack_of_black_moons.svg"" width=""175px"" height=""250px""></img></td>
  </tr>
  <tr height=200>
    <td width=300><img src=""static/images/keys/w.svg"" width=""35%"" height=""75%""></img></td>
    <td width=300><img src=""static/images/keys/o.svg"" width=""35%"" height=""75%""></img></td>
  </tr>
</table>
  ",79.0,1.0,,,,,,,,,,,,,,,,,,,,,,,,,,
224,0,,html-keyboard-response,224,429431,0.0-7.15-1.15,h4kvzhrv568,2022-09-19 17:09:07.894,5a78b8355292b800012284ca,0,0,17,0,24,49,female,682.1000000238,,"
  <table>
  <tr height=300>
    <td width=300 height=300><img src=""static/images/cards/back_of_black_moons.svg"" width=""175px"" height=""250px""></img></td>
    <td width=300 height=300><img src=""static/images/cards/back_of_black_moons.svg"" width=""175px"" height=""250px""></img></td>
  </tr>
  <tr height=200>
    <td width=300><img src=""static/images/keys/z.svg"" width=""35%"" height=""75%""></img></td>
    <td width=300></td>
  </tr>
</table>
  ",90.0,1.0,,,,,,,,,,,,,,,,,,,,,,,,,,
225,0,,html-keyboard-response,225,430939,0.0-7.15-2.15,h4kvzhrv568,2022-09-19 17:09:07.894,5a78b8355292b800012284ca,0,0,17,0,24,49,female,,,"
  <table>
  <tr height=300>
    <td width=300 height=300><img src=""static/images/cards/7_of_black_moons.svg"" width=""175px"" height=""250px""></img></td>
    <td width=300 height=300><img src=""static/images/cards/back_of_black_moons.svg"" width=""175px"" height=""250px""></img></td>
  </tr>
  <tr height=200>
    <td width=300><img src=""static/images/keys/z.svg"" width=""35%"" height=""75%""></img></td>
    <td width=300></td>
  </tr>
</table>
  ",,,,,,,,,,,,,,,,,,,,,,,,,,,,
226,0,,html-keyboard-response,226,432448,0.0-7.15-3.15,h4kvzhrv568,2022-09-19 17:09:07.894,5a78b8355292b800012284ca,0,0,17,0,24,49,female,,,"<p style=""font-size:50px"">You win!
+10 points this round!</p>",,,,,,,,,,,,,,,,,,,,,,,,,,,,
227,0,,html-keyboard-response,227,432959,0.0-7.15-4.15,h4kvzhrv568,2022-09-19 17:09:07.894,5a78b8355292b800012284ca,0,0,17,0,24,49,female,,,,,,1.0,choice,15.0,B,D,black,black,stars,moons,B,D,D,black,moons,1077.0,0.0,0.0,1,left,682.1000000238,7.0,1.0,1.0,,,
228,0,,html-keyboard-response,228,434216,0.0-7.16-0.16,h4kvzhrv568,2022-09-19 17:09:07.894,5a78b8355292b800012284ca,0,0,17,0,24,49,female,1253.7000000477,,"
  <table>
  <tr height=300>
    <td width=300 height=300><img src=""static/images/cards/stack_of_black_stars.svg"" width=""175px"" height=""250px""></img></td>
    <td width=300 height=300><img src=""static/images/cards/stack_of_red_stars.svg"" width=""175px"" height=""250px""></img></td>
  </tr>
  <tr height=200>
    <td width=300><img src=""static/images/keys/w.svg"" width=""35%"" height=""75%""></img></td>
    <td width=300><img src=""static/images/keys/o.svg"" width=""35%"" height=""75%""></img></td>
  </tr>
</table>
  ",79.0,1.0,,,,,,,,,,,,,,,,,,,,,,,,,,
229,0,,html-keyboard-response,229,435293,0.0-7.16-1.16,h4kvzhrv568,2022-09-19 17:09:07.894,5a78b8355292b800012284ca,0,0,17,0,24,49,female,571.0,,"
  <table>
  <tr height=300>
    <td width=300 height=300><img src=""static/images/cards/back_of_red_stars.svg"" width=""175px"" height=""250px""></img></td>
    <td width=300 height=300><img src=""static/images/cards/back_of_red_stars.svg"" width=""175px"" height=""250px""></img></td>
  </tr>
  <tr height=200>
    <td width=300><img src=""static/images/keys/z.svg"" width=""35%"" height=""75%""></img></td>
    <td width=300><img src=""static/images/keys/m.svg"" width=""35%"" height=""75%""></img></td>
  </tr>
</table>
  ",77.0,1.0,,,,,,,,,,,,,,,,,,,,,,,,,,
230,0,,html-keyboard-response,230,436801,0.0-7.16-2.16,h4kvzhrv568,2022-09-19 17:09:07.894,5a78b8355292b800012284ca,0,0,17,0,24,49,female,,,"
  <table>
  <tr height=300>
    <td width=300 height=300><img src=""static/images/cards/back_of_red_stars.svg"" width=""175px"" height=""250px""></img></td>
    <td width=300 height=300><img src=""static/images/cards/10_of_red_stars.svg"" width=""175px"" height=""250px""></img></td>
  </tr>
  <tr height=200>
    <td width=300><img src=""static/images/keys/z.svg"" width=""35%"" height=""75%""></img></td>
    <td width=300><img src=""static/images/keys/m.svg"" width=""35%"" height=""75%""></img></td>
  </tr>
</table>
  ",,,,,,,,,,,,,,,,,,,,,,,,,,,,
231,0,,html-keyboard-response,231,438311,0.0-7.16-3.16,h4kvzhrv568,2022-09-19 17:09:07.894,5a78b8355292b800012284ca,0,0,17,0,24,49,female,,,"<p style=""font-size:50px"">You win!
+10 points this round!</p>",,,,,,,,,,,,,,,,,,,,,,,,,,,,
232,0,,html-keyboard-response,232,438822,0.0-7.16-4.16,h4kvzhrv568,2022-09-19 17:09:07.894,5a78b8355292b800012284ca,0,0,17,0,24,49,female,,,,,,1.0,choice,16.0,A,B,black,red,stars,stars,B,A,A,red,stars,1253.7000000477,1.0,1.0,NA,right,571.0,10.0,1.0,1.0,,,
233,0,,html-keyboard-response,233,440049,0.0-7.17-0.17,h4kvzhrv568,2022-09-19 17:09:07.894,5a78b8355292b800012284ca,0,0,17,0,24,49,female,1224.8000000715,,"
  <table>
  <tr height=300>
    <td width=300 height=300><img src=""static/images/cards/stack_of_black_moons.svg"" width=""175px"" height=""250px""></img></td>
    <td width=300 height=300><img src=""static/images/cards/stack_of_red_stars.svg"" width=""175px"" height=""250px""></img></td>
  </tr>
  <tr height=200>
    <td width=300><img src=""static/images/keys/w.svg"" width=""35%"" height=""75%""></img></td>
    <td width=300><img src=""static/images/keys/o.svg"" width=""35%"" height=""75%""></img></td>
  </tr>
</table>
  ",79.0,1.0,,,,,,,,,,,,,,,,,,,,,,,,,,
