,index,success,trial_type,trial_index,time_elapsed,internal_node_id,subject,date,prol_id,ctbl,sense_of_control_A,sense_of_control_B,sense_of_control_C,sense_of_control_D,age,gender,rt,url,stimulus,key_press,npress,is_data_trial,phase,trial,deck1,deck2,col1,col2,sym1,sym2,deck_l,deck_r,chosen_deck,chosen_col,chosen_sym,deck_rt,choose_choice,mutual_info,hidden_key,chosen_card,card_rt,player_num,win_card,outcome,mock_rating,response,responses
0,0,1.0,fullscreen,0,16622,0.0-0.0,km5i6f7akr8,2022-09-19 17:33:34.268,62964d27c2b2866faa677493,2,100,77,34,34,33,Male,,,,,,,,,,,,,,,,,,,,,,,,,,,,,,,
1,0,,external-html,1,18853,0.0-1.0,km5i6f7akr8,2022-09-19 17:33:34.268,62964d27c2b2866faa677493,2,100,77,34,34,33,Male,2185.4000000358,static/js/sub/consent.html,,,,,,,,,,,,,,,,,,,,,,,,,,,,,
2,0,,call-function,2,18855,0.0-2.0,km5i6f7akr8,2022-09-19 17:33:34.268,62964d27c2b2866faa677493,2,100,77,34,34,33,Male,,,,,,,,,,,,,,,,,,,,,,,,,,,,,,,
3,0,,image-keyboard-response,3,22807,0.0-3.0-0.0,km5i6f7akr8,2022-09-19 17:33:34.268,62964d27c2b2866faa677493,2,100,77,34,34,33,Male,3952.0,,static/images/instructions_CB_2/Slide1.png,39.0,,,,,,,,,,,,,,,,,,,,,,,,,,,
4,0,,image-keyboard-response,4,28822,0.0-3.1-0.1,km5i6f7akr8,2022-09-19 17:33:34.268,62964d27c2b2866faa677493,2,100,77,34,34,33,Male,6013.5,,static/images/instructions_CB_2/Slide2.png,39.0,,,,,,,,,,,,,,,,,,,,,,,,,,,
5,0,,image-keyboard-response,5,32488,0.0-3.2-0.2,km5i6f7akr8,2022-09-19 17:33:34.268,62964d27c2b2866faa677493,2,100,77,34,34,33,Male,3665.1999999881,,static/images/instructions_CB_2/Slide3.png,39.0,,,,,,,,,,,,,,,,,,,,,,,,,,,
6,0,,image-keyboard-response,6,38550,0.0-3.3-0.3,km5i6f7akr8,2022-09-19 17:33:34.268,62964d27c2b2866faa677493,2,100,77,34,34,33,Male,6061.5999999642,,static/images/instructions_CB_2/Slide4.png,39.0,,,,,,,,,,,,,,,,,,,,,,,,,,,
7,0,,image-keyboard-response,7,45367,0.0-3.4-0.4,km5i6f7akr8,2022-09-19 17:33:34.268,62964d27c2b2866faa677493,2,100,77,34,34,33,Male,6816.3000000119,,static/images/instructions_CB_2/Slide5.png,39.0,,,,,,,,,,,,,,,,,,,,,,,,,,,
8,0,,image-keyboard-response,8,47174,0.0-3.5-0.5,km5i6f7akr8,2022-09-19 17:33:34.268,62964d27c2b2866faa677493,2,100,77,34,34,33,Male,1806.3000000119,,static/images/instructions_CB_2/Slide6.png,39.0,,,,,,,,,,,,,,,,,,,,,,,,,,,
9,0,,image-keyboard-response,9,50763,0.0-3.6-0.6,km5i6f7akr8,2022-09-19 17:33:34.268,62964d27c2b2866faa677493,2,100,77,34,34,33,Male,3588.5999999642,,static/images/instructions_CB_2/Slide7.png,39.0,,,,,,,,,,,,,,,,,,,,,,,,,,,
10,0,,image-keyboard-response,10,62200,0.0-3.7-0.7,km5i6f7akr8,2022-09-19 17:33:34.268,62964d27c2b2866faa677493,2,100,77,34,34,33,Male,11436.4000000358,,static/images/instructions_CB_2/Slide8.png,39.0,,,,,,,,,,,,,,,,,,,,,,,,,,,
11,0,,image-keyboard-response,11,66582,0.0-3.8-0.8,km5i6f7akr8,2022-09-19 17:33:34.268,62964d27c2b2866faa677493,2,100,77,34,34,33,Male,4381.1999999881,,static/images/instructions_CB_2/Slide9.png,39.0,,,,,,,,,,,,,,,,,,,,,,,,,,,
12,0,,image-keyboard-response,12,76862,0.0-3.9-0.9,km5i6f7akr8,2022-09-19 17:33:34.268,62964d27c2b2866faa677493,2,100,77,34,34,33,Male,10279.5999999642,,static/images/instructions_CB_2/Slide10.png,39.0,,,,,,,,,,,,,,,,,,,,,,,,,,,
13,0,,image-keyboard-response,13,85448,0.0-3.10-0.10,km5i6f7akr8,2022-09-19 17:33:34.268,62964d27c2b2866faa677493,2,100,77,34,34,33,Male,8585.1999999881,,static/images/instructions_CB_2/Slide11.png,39.0,,,,,,,,,,,,,,,,,,,,,,,,,,,
14,0,,image-keyboard-response,14,95295,0.0-3.11-0.11,km5i6f7akr8,2022-09-19 17:33:34.268,62964d27c2b2866faa677493,2,100,77,34,34,33,Male,9846.5999999642,,static/images/instructions_CB_2/Slide12.png,39.0,,,,,,,,,,,,,,,,,,,,,,,,,,,
15,0,,image-keyboard-response,15,101200,0.0-3.12-0.12,km5i6f7akr8,2022-09-19 17:33:34.268,62964d27c2b2866faa677493,2,100,77,34,34,33,Male,5904.3000000119,,static/images/instructions_CB_2/Slide13.png,39.0,,,,,,,,,,,,,,,,,,,,,,,,,,,
16,0,,image-keyboard-response,16,108270,0.0-3.13-0.13,km5i6f7akr8,2022-09-19 17:33:34.268,62964d27c2b2866faa677493,2,100,77,34,34,33,Male,7069.3999999762,,static/images/instructions_CB_2/Slide14.png,39.0,,,,,,,,,,,,,,,,,,,,,,,,,,,
17,0,,image-keyboard-response,17,114947,0.0-3.14-0.14,km5i6f7akr8,2022-09-19 17:33:34.268,62964d27c2b2866faa677493,2,100,77,34,34,33,Male,6676.2999999523,,static/images/instructions_CB_2/Slide15.png,39.0,,,,,,,,,,,,,,,,,,,,,,,,,,,
18,0,,image-keyboard-response,18,119155,0.0-3.15-0.15,km5i6f7akr8,2022-09-19 17:33:34.268,62964d27c2b2866faa677493,2,100,77,34,34,33,Male,4207.6000000238,,static/images/instructions_CB_2/Slide16.png,39.0,,,,,,,,,,,,,,,,,,,,,,,,,,,
19,0,,image-keyboard-response,19,124883,0.0-3.16-0.16,km5i6f7akr8,2022-09-19 17:33:34.268,62964d27c2b2866faa677493,2,100,77,34,34,33,Male,5728.1000000238,,static/images/instructions_CB_2/Slide17.png,39.0,,,,,,,,,,,,,,,,,,,,,,,,,,,
20,0,,image-keyboard-response,20,143605,0.0-3.17-0.17,km5i6f7akr8,2022-09-19 17:33:34.268,62964d27c2b2866faa677493,2,100,77,34,34,33,Male,18720.7000000477,,static/images/instructions_CB_2/Slide18.png,39.0,,,,,,,,,,,,,,,,,,,,,,,,,,,
21,0,,image-keyboard-response,21,148639,0.0-3.18-0.18,km5i6f7akr8,2022-09-19 17:33:34.268,62964d27c2b2866faa677493,2,100,77,34,34,33,Male,5034.2999999523,,static/images/instructions_CB_2/Slide19.png,39.0,,,,,,,,,,,,,,,,,,,,,,,,,,,
22,0,,html-keyboard-response,22,150140,0.0-4.0-0.0,km5i6f7akr8,2022-09-19 17:33:34.268,62964d27c2b2866faa677493,2,100,77,34,34,33,Male,,,"<img src=""static/images/cards/stack_of_black_stars.svg"" width=""175px"" height=""250px""></img>",,,,,,,,,,,,,,,,,,,,,,,,,,,,
23,0,,html-keyboard-response,23,151652,0.0-4.0-1.0,km5i6f7akr8,2022-09-19 17:33:34.268,62964d27c2b2866faa677493,2,100,77,34,34,33,Male,1009.2999999523,,"
  <table>
  <tr height=300>
    <td width=300 height=300><img src=""static/images/cards/back_of_black_stars.svg"" width=""175px"" height=""250px""></img></td>
    <td width=300 height=300><img src=""static/images/cards/back_of_black_stars.svg"" width=""175px"" height=""250px""></img></td>
  </tr>
  <tr height=200>
    <td width=300><img src=""static/images/keys/z.svg"" width=""35%"" height=""75%""></img></td>
    <td width=300><img src=""static/images/keys/m.svg"" width=""35%"" height=""75%""></img></td>
  </tr>
</table>
  ",90.0,1.0,,,,,,,,,,,,,,,,,,,,,,,,,,
24,0,,html-keyboard-response,24,153161,0.0-4.0-2.0,km5i6f7akr8,2022-09-19 17:33:34.268,62964d27c2b2866faa677493,2,100,77,34,34,33,Male,,,"
  <table>
  <tr height=300>
    <td width=300 height=300><img src=""static/images/cards/2_of_black_stars.svg"" width=""175px"" height=""250px""></img></td>
    <td width=300 height=300><img src=""static/images/cards/back_of_black_stars.svg"" width=""175px"" height=""250px""></img></td>
  </tr>
  <tr height=200>
    <td width=300><img src=""static/images/keys/z.svg"" width=""35%"" height=""75%""></img></td>
    <td width=300><img src=""static/images/keys/m.svg"" width=""35%"" height=""75%""></img></td>
  </tr>
</table>
  ",,,,,,,,,,,,,,,,,,,,,,,,,,,,
25,0,,html-keyboard-response,25,154674,0.0-4.0-3.0,km5i6f7akr8,2022-09-19 17:33:34.268,62964d27c2b2866faa677493,2,100,77,34,34,33,Male,,,"<p style=""font-size:50px"">You Lose!
No points this round.</p>",,,,,,,,,,,,,,,,,,,,,,,,,,,,
26,0,,html-keyboard-response,26,155181,0.0-4.0-4.0,km5i6f7akr8,2022-09-19 17:33:34.268,62964d27c2b2866faa677493,2,100,77,34,34,33,Male,,,,,,1.0,learning,0.0,A,,black,,stars,,,,A,black,stars,,1.0,1.0,NA,left,1009.2999999523,2.0,0.0,0.0,,,
27,0,,html-keyboard-response,27,156696,0.0-4.1-0.1,km5i6f7akr8,2022-09-19 17:33:34.268,62964d27c2b2866faa677493,2,100,77,34,34,33,Male,,,"<img src=""static/images/cards/stack_of_red_stars.svg"" width=""175px"" height=""250px""></img>",,,,,,,,,,,,,,,,,,,,,,,,,,,,
28,0,,html-keyboard-response,28,158076,0.0-4.1-1.1,km5i6f7akr8,2022-09-19 17:33:34.268,62964d27c2b2866faa677493,2,100,77,34,34,33,Male,867.1000000238,,"
  <table>
  <tr height=300>
    <td width=300 height=300><img src=""static/images/cards/back_of_red_stars.svg"" width=""175px"" height=""250px""></img></td>
    <td width=300 height=300><img src=""static/images/cards/back_of_red_stars.svg"" width=""175px"" height=""250px""></img></td>
  </tr>
  <tr height=200>
    <td width=300></td>
    <td width=300><img src=""static/images/keys/m.svg"" width=""35%"" height=""75%""></img></td>
  </tr>
</table>
  ",77.0,1.0,,,,,,,,,,,,,,,,,,,,,,,,,,
29,0,,html-keyboard-response,29,159591,0.0-4.1-2.1,km5i6f7akr8,2022-09-19 17:33:34.268,62964d27c2b2866faa677493,2,100,77,34,34,33,Male,,,"
  <table>
  <tr height=300>
    <td width=300 height=300><img src=""static/images/cards/back_of_red_stars.svg"" width=""175px"" height=""250px""></img></td>
    <td width=300 height=300><img src=""static/images/cards/2_of_red_stars.svg"" width=""175px"" height=""250px""></img></td>
  </tr>
  <tr height=200>
    <td width=300></td>
    <td width=300><img src=""static/images/keys/m.svg"" width=""35%"" height=""75%""></img></td>
  </tr>
</table>
  ",,,,,,,,,,,,,,,,,,,,,,,,,,,,
30,0,,html-keyboard-response,30,161111,0.0-4.1-3.1,km5i6f7akr8,2022-09-19 17:33:34.268,62964d27c2b2866faa677493,2,100,77,34,34,33,Male,,,"<p style=""font-size:50px"">You Lose!
No points this round.</p>",,,,,,,,,,,,,,,,,,,,,,,,,,,,
31,0,,html-keyboard-response,31,161629,0.0-4.1-4.1,km5i6f7akr8,2022-09-19 17:33:34.268,62964d27c2b2866faa677493,2,100,77,34,34,33,Male,,,,,,1.0,learning,1.0,B,,red,,stars,,,,B,red,stars,,0.0,1.0,0,right,867.1000000238,2.0,0.0,0.0,,,
32,0,,html-keyboard-response,32,163142,0.0-4.2-0.2,km5i6f7akr8,2022-09-19 17:33:34.268,62964d27c2b2866faa677493,2,100,77,34,34,33,Male,,,"<img src=""static/images/cards/stack_of_black_moons.svg"" width=""175px"" height=""250px""></img>",,,,,,,,,,,,,,,,,,,,,,,,,,,,
33,0,,html-keyboard-response,33,164131,0.0-4.2-1.2,km5i6f7akr8,2022-09-19 17:33:34.268,62964d27c2b2866faa677493,2,100,77,34,34,33,Male,475.3999999762,,"
  <table>
  <tr height=300>
    <td width=300 height=300><img src=""static/images/cards/back_of_black_moons.svg"" width=""175px"" height=""250px""></img></td>
    <td width=300 height=300><img src=""static/images/cards/back_of_black_moons.svg"" width=""175px"" height=""250px""></img></td>
  </tr>
  <tr height=200>
    <td width=300><img src=""static/images/keys/z.svg"" width=""35%"" height=""75%""></img></td>
    <td width=300><img src=""static/images/keys/m.svg"" width=""35%"" height=""75%""></img></td>
  </tr>
</table>
  ",77.0,1.0,,,,,,,,,,,,,,,,,,,,,,,,,,
34,0,,html-keyboard-response,34,165638,0.0-4.2-2.2,km5i6f7akr8,2022-09-19 17:33:34.268,62964d27c2b2866faa677493,2,100,77,34,34,33,Male,,,"
  <table>
  <tr height=300>
    <td width=300 height=300><img src=""static/images/cards/back_of_black_moons.svg"" width=""175px"" height=""250px""></img></td>
    <td width=300 height=300><img src=""static/images/cards/7_of_black_moons.svg"" width=""175px"" height=""250px""></img></td>
  </tr>
  <tr height=200>
    <td width=300><img src=""static/images/keys/z.svg"" width=""35%"" height=""75%""></img></td>
    <td width=300><img src=""static/images/keys/m.svg"" width=""35%"" height=""75%""></img></td>
  </tr>
</table>
  ",,,,,,,,,,,,,,,,,,,,,,,,,,,,
35,0,,html-keyboard-response,35,167157,0.0-4.2-3.2,km5i6f7akr8,2022-09-19 17:33:34.268,62964d27c2b2866faa677493,2,100,77,34,34,33,Male,,,"<p style=""font-size:50px"">You Lose!
No points this round.</p>",,,,,,,,,,,,,,,,,,,,,,,,,,,,
36,0,,html-keyboard-response,36,167674,0.0-4.2-4.2,km5i6f7akr8,2022-09-19 17:33:34.268,62964d27c2b2866faa677493,2,100,77,34,34,33,Male,,,,,,1.0,learning,2.0,C,,black,,moons,,,,C,black,moons,,1.0,0.0,NA,right,475.3999999762,7.0,1.0,0.0,,,
37,0,,html-keyboard-response,37,169189,0.0-4.3-0.3,km5i6f7akr8,2022-09-19 17:33:34.268,62964d27c2b2866faa677493,2,100,77,34,34,33,Male,,,"<img src=""static/images/cards/stack_of_red_moons.svg"" width=""175px"" height=""250px""></img>",,,,,,,,,,,,,,,,,,,,,,,,,,,,
38,0,,html-keyboard-response,38,171283,0.0-4.3-1.3,km5i6f7akr8,2022-09-19 17:33:34.268,62964d27c2b2866faa677493,2,100,77,34,34,33,Male,1581.2000000477,,"
  <table>
  <tr height=300>
    <td width=300 height=300><img src=""static/images/cards/back_of_red_moons.svg"" width=""175px"" height=""250px""></img></td>
    <td width=300 height=300><img src=""static/images/cards/back_of_red_moons.svg"" width=""175px"" height=""250px""></img></td>
  </tr>
  <tr height=200>
    <td width=300><img src=""static/images/keys/z.svg"" width=""35%"" height=""75%""></img></td>
    <td width=300></td>
  </tr>
</table>
  ",90.0,1.0,,,,,,,,,,,,,,,,,,,,,,,,,,
39,0,,html-keyboard-response,39,172788,0.0-4.3-2.3,km5i6f7akr8,2022-09-19 17:33:34.268,62964d27c2b2866faa677493,2,100,77,34,34,33,Male,,,"
  <table>
  <tr height=300>
    <td width=300 height=300><img src=""static/images/cards/3_of_red_moons.svg"" width=""175px"" height=""250px""></img></td>
    <td width=300 height=300><img src=""static/images/cards/back_of_red_moons.svg"" width=""175px"" height=""250px""></img></td>
  </tr>
  <tr height=200>
    <td width=300><img src=""static/images/keys/z.svg"" width=""35%"" height=""75%""></img></td>
    <td width=300></td>
  </tr>
</table>
  ",,,,,,,,,,,,,,,,,,,,,,,,,,,,
40,0,,html-keyboard-response,40,174308,0.0-4.3-3.3,km5i6f7akr8,2022-09-19 17:33:34.268,62964d27c2b2866faa677493,2,100,77,34,34,33,Male,,,"<p style=""font-size:50px"">You Lose!
No points this round.</p>",,,,,,,,,,,,,,,,,,,,,,,,,,,,
41,0,,html-keyboard-response,41,174825,0.0-4.3-4.3,km5i6f7akr8,2022-09-19 17:33:34.268,62964d27c2b2866faa677493,2,100,77,34,34,33,Male,,,,,,1.0,learning,3.0,D,,red,,moons,,,,D,red,moons,,0.0,0.0,1,left,1581.2000000477,3.0,0.0,0.0,,,
42,0,,html-keyboard-response,42,176338,0.0-4.4-0.4,km5i6f7akr8,2022-09-19 17:33:34.268,62964d27c2b2866faa677493,2,100,77,34,34,33,Male,,,"<img src=""static/images/cards/stack_of_red_bolts.svg"" width=""175px"" height=""250px""></img>",,,,,,,,,,,,,,,,,,,,,,,,,,,,
43,0,,html-keyboard-response,43,177240,0.0-4.4-1.4,km5i6f7akr8,2022-09-19 17:33:34.268,62964d27c2b2866faa677493,2,100,77,34,34,33,Male,389.3999999762,,"
  <table>
  <tr height=300>
    <td width=300 height=300><img src=""static/images/cards/back_of_red_bolts.svg"" width=""175px"" height=""250px""></img></td>
    <td width=300 height=300><img src=""static/images/cards/back_of_red_bolts.svg"" width=""175px"" height=""250px""></img></td>
  </tr>
  <tr height=200>
    <td width=300><img src=""static/images/keys/z.svg"" width=""35%"" height=""75%""></img></td>
    <td width=300><img src=""static/images/keys/m.svg"" width=""35%"" height=""75%""></img></td>
  </tr>
</table>
  ",77.0,1.0,,,,,,,,,,,,,,,,,,,,,,,,,,
44,0,,html-keyboard-response,44,178754,0.0-4.4-2.4,km5i6f7akr8,2022-09-19 17:33:34.268,62964d27c2b2866faa677493,2,100,77,34,34,33,Male,,,"
  <table>
  <tr height=300>
    <td width=300 height=300><img src=""static/images/cards/back_of_red_bolts.svg"" width=""175px"" height=""250px""></img></td>
    <td width=300 height=300><img src=""static/images/cards/10_of_red_bolts.svg"" width=""175px"" height=""250px""></img></td>
  </tr>
  <tr height=200>
    <td width=300><img src=""static/images/keys/z.svg"" width=""35%"" height=""75%""></img></td>
    <td width=300><img src=""static/images/keys/m.svg"" width=""35%"" height=""75%""></img></td>
  </tr>
</table>
  ",,,,,,,,,,,,,,,,,,,,,,,,,,,,
45,0,,html-keyboard-response,45,180274,0.0-4.4-3.4,km5i6f7akr8,2022-09-19 17:33:34.268,62964d27c2b2866faa677493,2,100,77,34,34,33,Male,,,"<p style=""font-size:50px"">You win!
+10 points this round!</p>",,,,,,,,,,,,,,,,,,,,,,,,,,,,
46,0,,html-keyboard-response,46,180790,0.0-4.4-4.4,km5i6f7akr8,2022-09-19 17:33:34.268,62964d27c2b2866faa677493,2,100,77,34,34,33,Male,,,,,,1.0,learning,4.0,Xc,,red,,bolts,,,,Xc,red,bolts,,1.0,0.0,NA,right,389.3999999762,10.0,1.0,1.0,,,
47,0,,html-keyboard-response,47,182305,0.0-4.5-0.5,km5i6f7akr8,2022-09-19 17:33:34.268,62964d27c2b2866faa677493,2,100,77,34,34,33,Male,,,"<img src=""static/images/cards/stack_of_black_bolts.svg"" width=""175px"" height=""250px""></img>",,,,,,,,,,,,,,,,,,,,,,,,,,,,
48,0,,html-keyboard-response,48,183397,0.0-4.5-1.5,km5i6f7akr8,2022-09-19 17:33:34.268,62964d27c2b2866faa677493,2,100,77,34,34,33,Male,579.3000000119,,"
  <table>
  <tr height=300>
    <td width=300 height=300><img src=""static/images/cards/back_of_black_bolts.svg"" width=""175px"" height=""250px""></img></td>
    <td width=300 height=300><img src=""static/images/cards/back_of_black_bolts.svg"" width=""175px"" height=""250px""></img></td>
  </tr>
  <tr height=200>
    <td width=300></td>
    <td width=300><img src=""static/images/keys/m.svg"" width=""35%"" height=""75%""></img></td>
  </tr>
</table>
  ",77.0,1.0,,,,,,,,,,,,,,,,,,,,,,,,,,
49,0,,html-keyboard-response,49,184913,0.0-4.5-2.5,km5i6f7akr8,2022-09-19 17:33:34.268,62964d27c2b2866faa677493,2,100,77,34,34,33,Male,,,"
  <table>
  <tr height=300>
    <td width=300 height=300><img src=""static/images/cards/back_of_black_bolts.svg"" width=""175px"" height=""250px""></img></td>
    <td width=300 height=300><img src=""static/images/cards/2_of_black_bolts.svg"" width=""175px"" height=""250px""></img></td>
  </tr>
  <tr height=200>
    <td width=300></td>
    <td width=300><img src=""static/images/keys/m.svg"" width=""35%"" height=""75%""></img></td>
  </tr>
</table>
  ",,,,,,,,,,,,,,,,,,,,,,,,,,,,
50,0,,html-keyboard-response,50,186431,0.0-4.5-3.5,km5i6f7akr8,2022-09-19 17:33:34.268,62964d27c2b2866faa677493,2,100,77,34,34,33,Male,,,"<p style=""font-size:50px"">You win!
+10 points this round!</p>",,,,,,,,,,,,,,,,,,,,,,,,,,,,
51,0,,html-keyboard-response,51,186949,0.0-4.5-4.5,km5i6f7akr8,2022-09-19 17:33:34.268,62964d27c2b2866faa677493,2,100,77,34,34,33,Male,,,,,,1.0,learning,5.0,Xnc,,black,,bolts,,,,Xnc,black,bolts,,0.0,0.0,0,right,579.3000000119,2.0,0.0,1.0,,,
52,0,,html-keyboard-response,52,188464,0.0-4.6-0.6,km5i6f7akr8,2022-09-19 17:33:34.268,62964d27c2b2866faa677493,2,100,77,34,34,33,Male,,,"<img src=""static/images/cards/stack_of_black_stars.svg"" width=""175px"" height=""250px""></img>",,,,,,,,,,,,,,,,,,,,,,,,,,,,
53,0,,html-keyboard-response,53,189644,0.0-4.6-1.6,km5i6f7akr8,2022-09-19 17:33:34.268,62964d27c2b2866faa677493,2,100,77,34,34,33,Male,667.8999999762,,"
  <table>
  <tr height=300>
    <td width=300 height=300><img src=""static/images/cards/back_of_black_stars.svg"" width=""175px"" height=""250px""></img></td>
    <td width=300 height=300><img src=""static/images/cards/back_of_black_stars.svg"" width=""175px"" height=""250px""></img></td>
  </tr>
  <tr height=200>
    <td width=300><img src=""static/images/keys/z.svg"" width=""35%"" height=""75%""></img></td>
    <td width=300><img src=""static/images/keys/m.svg"" width=""35%"" height=""75%""></img></td>
  </tr>
</table>
  ",77.0,1.0,,,,,,,,,,,,,,,,,,,,,,,,,,
54,0,,html-keyboard-response,54,191150,0.0-4.6-2.6,km5i6f7akr8,2022-09-19 17:33:34.268,62964d27c2b2866faa677493,2,100,77,34,34,33,Male,,,"
  <table>
  <tr height=300>
    <td width=300 height=300><img src=""static/images/cards/back_of_black_stars.svg"" width=""175px"" height=""250px""></img></td>
    <td width=300 height=300><img src=""static/images/cards/8_of_black_stars.svg"" width=""175px"" height=""250px""></img></td>
  </tr>
  <tr height=200>
    <td width=300><img src=""static/images/keys/z.svg"" width=""35%"" height=""75%""></img></td>
    <td width=300><img src=""static/images/keys/m.svg"" width=""35%"" height=""75%""></img></td>
  </tr>
</table>
  ",,,,,,,,,,,,,,,,,,,,,,,,,,,,
55,0,,html-keyboard-response,55,192671,0.0-4.6-3.6,km5i6f7akr8,2022-09-19 17:33:34.268,62964d27c2b2866faa677493,2,100,77,34,34,33,Male,,,"<p style=""font-size:50px"">You win!
+10 points this round!</p>",,,,,,,,,,,,,,,,,,,,,,,,,,,,
56,0,,html-keyboard-response,56,193188,0.0-4.6-4.6,km5i6f7akr8,2022-09-19 17:33:34.268,62964d27c2b2866faa677493,2,100,77,34,34,33,Male,,,,,,1.0,learning,6.0,A,,black,,stars,,,,A,black,stars,,1.0,1.0,NA,right,667.8999999762,8.0,1.0,1.0,,,
57,0,,html-keyboard-response,57,194703,0.0-4.7-0.7,km5i6f7akr8,2022-09-19 17:33:34.268,62964d27c2b2866faa677493,2,100,77,34,34,33,Male,,,"<img src=""static/images/cards/stack_of_red_stars.svg"" width=""175px"" height=""250px""></img>",,,,,,,,,,,,,,,,,,,,,,,,,,,,
58,0,,html-keyboard-response,58,195779,0.0-4.7-1.7,km5i6f7akr8,2022-09-19 17:33:34.268,62964d27c2b2866faa677493,2,100,77,34,34,33,Male,563.3000000119,,"
  <table>
  <tr height=300>
    <td width=300 height=300><img src=""static/images/cards/back_of_red_stars.svg"" width=""175px"" height=""250px""></img></td>
    <td width=300 height=300><img src=""static/images/cards/back_of_red_stars.svg"" width=""175px"" height=""250px""></img></td>
  </tr>
  <tr height=200>
    <td width=300></td>
    <td width=300><img src=""static/images/keys/m.svg"" width=""35%"" height=""75%""></img></td>
  </tr>
</table>
  ",77.0,1.0,,,,,,,,,,,,,,,,,,,,,,,,,,
59,0,,html-keyboard-response,59,197296,0.0-4.7-2.7,km5i6f7akr8,2022-09-19 17:33:34.268,62964d27c2b2866faa677493,2,100,77,34,34,33,Male,,,"
  <table>
  <tr height=300>
    <td width=300 height=300><img src=""static/images/cards/back_of_red_stars.svg"" width=""175px"" height=""250px""></img></td>
    <td width=300 height=300><img src=""static/images/cards/6_of_red_stars.svg"" width=""175px"" height=""250px""></img></td>
  </tr>
  <tr height=200>
    <td width=300></td>
    <td width=300><img src=""static/images/keys/m.svg"" width=""35%"" height=""75%""></img></td>
  </tr>
</table>
  ",,,,,,,,,,,,,,,,,,,,,,,,,,,,
60,0,,html-keyboard-response,60,198816,0.0-4.7-3.7,km5i6f7akr8,2022-09-19 17:33:34.268,62964d27c2b2866faa677493,2,100,77,34,34,33,Male,,,"<p style=""font-size:50px"">You win!
+10 points this round!</p>",,,,,,,,,,,,,,,,,,,,,,,,,,,,
61,0,,html-keyboard-response,61,199333,0.0-4.7-4.7,km5i6f7akr8,2022-09-19 17:33:34.268,62964d27c2b2866faa677493,2,100,77,34,34,33,Male,,,,,,1.0,learning,7.0,B,,red,,stars,,,,B,red,stars,,0.0,1.0,0,right,563.3000000119,6.0,1.0,1.0,,,
62,0,,html-keyboard-response,62,200834,0.0-4.8-0.8,km5i6f7akr8,2022-09-19 17:33:34.268,62964d27c2b2866faa677493,2,100,77,34,34,33,Male,,,"<img src=""static/images/cards/stack_of_black_moons.svg"" width=""175px"" height=""250px""></img>",,,,,,,,,,,,,,,,,,,,,,,,,,,,
63,0,,html-keyboard-response,63,202582,0.0-4.8-1.8,km5i6f7akr8,2022-09-19 17:33:34.268,62964d27c2b2866faa677493,2,100,77,34,34,33,Male,1238.8000000119,,"
  <table>
  <tr height=300>
    <td width=300 height=300><img src=""static/images/cards/back_of_black_moons.svg"" width=""175px"" height=""250px""></img></td>
    <td width=300 height=300><img src=""static/images/cards/back_of_black_moons.svg"" width=""175px"" height=""250px""></img></td>
  </tr>
  <tr height=200>
    <td width=300><img src=""static/images/keys/z.svg"" width=""35%"" height=""75%""></img></td>
    <td width=300><img src=""static/images/keys/m.svg"" width=""35%"" height=""75%""></img></td>
  </tr>
</table>
  ",77.0,1.0,,,,,,,,,,,,,,,,,,,,,,,,,,
64,0,,html-keyboard-response,64,204095,0.0-4.8-2.8,km5i6f7akr8,2022-09-19 17:33:34.268,62964d27c2b2866faa677493,2,100,77,34,34,33,Male,,,"
  <table>
  <tr height=300>
    <td width=300 height=300><img src=""static/images/cards/back_of_black_moons.svg"" width=""175px"" height=""250px""></img></td>
    <td width=300 height=300><img src=""static/images/cards/3_of_black_moons.svg"" width=""175px"" height=""250px""></img></td>
  </tr>
  <tr height=200>
    <td width=300><img src=""static/images/keys/z.svg"" width=""35%"" height=""75%""></img></td>
    <td width=300><img src=""static/images/keys/m.svg"" width=""35%"" height=""75%""></img></td>
  </tr>
</table>
  ",,,,,,,,,,,,,,,,,,,,,,,,,,,,
65,0,,html-keyboard-response,65,205606,0.0-4.8-3.8,km5i6f7akr8,2022-09-19 17:33:34.268,62964d27c2b2866faa677493,2,100,77,34,34,33,Male,,,"<p style=""font-size:50px"">You Lose!
No points this round.</p>",,,,,,,,,,,,,,,,,,,,,,,,,,,,
66,0,,html-keyboard-response,66,206112,0.0-4.8-4.8,km5i6f7akr8,2022-09-19 17:33:34.268,62964d27c2b2866faa677493,2,100,77,34,34,33,Male,,,,,,1.0,learning,8.0,C,,black,,moons,,,,C,black,moons,,1.0,0.0,NA,right,1238.8000000119,3.0,0.0,0.0,,,
67,0,,html-keyboard-response,67,207622,0.0-4.9-0.9,km5i6f7akr8,2022-09-19 17:33:34.268,62964d27c2b2866faa677493,2,100,77,34,34,33,Male,,,"<img src=""static/images/cards/stack_of_red_moons.svg"" width=""175px"" height=""250px""></img>",,,,,,,,,,,,,,,,,,,,,,,,,,,,
68,0,,html-keyboard-response,68,208542,0.0-4.9-1.9,km5i6f7akr8,2022-09-19 17:33:34.268,62964d27c2b2866faa677493,2,100,77,34,34,33,Male,407.6000000238,,"
  <table>
  <tr height=300>
    <td width=300 height=300><img src=""static/images/cards/back_of_red_moons.svg"" width=""175px"" height=""250px""></img></td>
    <td width=300 height=300><img src=""static/images/cards/back_of_red_moons.svg"" width=""175px"" height=""250px""></img></td>
  </tr>
  <tr height=200>
    <td width=300></td>
    <td width=300><img src=""static/images/keys/m.svg"" width=""35%"" height=""75%""></img></td>
  </tr>
</table>
  ",77.0,1.0,,,,,,,,,,,,,,,,,,,,,,,,,,
69,0,,html-keyboard-response,69,210054,0.0-4.9-2.9,km5i6f7akr8,2022-09-19 17:33:34.268,62964d27c2b2866faa677493,2,100,77,34,34,33,Male,,,"
  <table>
  <tr height=300>
    <td width=300 height=300><img src=""static/images/cards/back_of_red_moons.svg"" width=""175px"" height=""250px""></img></td>
    <td width=300 height=300><img src=""static/images/cards/1_of_red_moons.svg"" width=""175px"" height=""250px""></img></td>
  </tr>
  <tr height=200>
    <td width=300></td>
    <td width=300><img src=""static/images/keys/m.svg"" width=""35%"" height=""75%""></img></td>
  </tr>
</table>
  ",,,,,,,,,,,,,,,,,,,,,,,,,,,,
70,0,,html-keyboard-response,70,211566,0.0-4.9-3.9,km5i6f7akr8,2022-09-19 17:33:34.268,62964d27c2b2866faa677493,2,100,77,34,34,33,Male,,,"<p style=""font-size:50px"">You win!
+10 points this round!</p>",,,,,,,,,,,,,,,,,,,,,,,,,,,,
71,0,,html-keyboard-response,71,212075,0.0-4.9-4.9,km5i6f7akr8,2022-09-19 17:33:34.268,62964d27c2b2866faa677493,2,100,77,34,34,33,Male,,,,,,1.0,learning,9.0,D,,red,,moons,,,,D,red,moons,,0.0,0.0,0,right,407.6000000238,1.0,0.0,1.0,,,
72,0,,html-keyboard-response,72,213588,0.0-4.10-0.10,km5i6f7akr8,2022-09-19 17:33:34.268,62964d27c2b2866faa677493,2,100,77,34,34,33,Male,,,"<img src=""static/images/cards/stack_of_red_bolts.svg"" width=""175px"" height=""250px""></img>",,,,,,,,,,,,,,,,,,,,,,,,,,,,
73,0,,html-keyboard-response,73,214759,0.0-4.10-1.10,km5i6f7akr8,2022-09-19 17:33:34.268,62964d27c2b2866faa677493,2,100,77,34,34,33,Male,658.0999999642,,"
  <table>
  <tr height=300>
    <td width=300 height=300><img src=""static/images/cards/back_of_red_bolts.svg"" width=""175px"" height=""250px""></img></td>
    <td width=300 height=300><img src=""static/images/cards/back_of_red_bolts.svg"" width=""175px"" height=""250px""></img></td>
  </tr>
  <tr height=200>
    <td width=300><img src=""static/images/keys/z.svg"" width=""35%"" height=""75%""></img></td>
    <td width=300><img src=""static/images/keys/m.svg"" width=""35%"" height=""75%""></img></td>
  </tr>
</table>
  ",77.0,1.0,,,,,,,,,,,,,,,,,,,,,,,,,,
74,0,,html-keyboard-response,74,216275,0.0-4.10-2.10,km5i6f7akr8,2022-09-19 17:33:34.268,62964d27c2b2866faa677493,2,100,77,34,34,33,Male,,,"
  <table>
  <tr height=300>
    <td width=300 height=300><img src=""static/images/cards/back_of_red_bolts.svg"" width=""175px"" height=""250px""></img></td>
    <td width=300 height=300><img src=""static/images/cards/1_of_red_bolts.svg"" width=""175px"" height=""250px""></img></td>
  </tr>
  <tr height=200>
    <td width=300><img src=""static/images/keys/z.svg"" width=""35%"" height=""75%""></img></td>
    <td width=300><img src=""static/images/keys/m.svg"" width=""35%"" height=""75%""></img></td>
  </tr>
</table>
  ",,,,,,,,,,,,,,,,,,,,,,,,,,,,
75,0,,html-keyboard-response,75,217794,0.0-4.10-3.10,km5i6f7akr8,2022-09-19 17:33:34.268,62964d27c2b2866faa677493,2,100,77,34,34,33,Male,,,"<p style=""font-size:50px"">You win!
+10 points this round!</p>",,,,,,,,,,,,,,,,,,,,,,,,,,,,
76,0,,html-keyboard-response,76,218311,0.0-4.10-4.10,km5i6f7akr8,2022-09-19 17:33:34.268,62964d27c2b2866faa677493,2,100,77,34,34,33,Male,,,,,,1.0,learning,10.0,Xc,,red,,bolts,,,,Xc,red,bolts,,1.0,0.0,NA,right,658.0999999642,1.0,0.0,1.0,,,
77,0,,html-keyboard-response,77,219827,0.0-4.11-0.11,km5i6f7akr8,2022-09-19 17:33:34.268,62964d27c2b2866faa677493,2,100,77,34,34,33,Male,,,"<img src=""static/images/cards/stack_of_black_bolts.svg"" width=""175px"" height=""250px""></img>",,,,,,,,,,,,,,,,,,,,,,,,,,,,
78,0,,html-keyboard-response,78,220940,0.0-4.11-1.11,km5i6f7akr8,2022-09-19 17:33:34.268,62964d27c2b2866faa677493,2,100,77,34,34,33,Male,601.8999999762,,"
  <table>
  <tr height=300>
    <td width=300 height=300><img src=""static/images/cards/back_of_black_bolts.svg"" width=""175px"" height=""250px""></img></td>
    <td width=300 height=300><img src=""static/images/cards/back_of_black_bolts.svg"" width=""175px"" height=""250px""></img></td>
  </tr>
  <tr height=200>
    <td width=300></td>
    <td width=300><img src=""static/images/keys/m.svg"" width=""35%"" height=""75%""></img></td>
  </tr>
</table>
  ",77.0,1.0,,,,,,,,,,,,,,,,,,,,,,,,,,
79,0,,html-keyboard-response,79,222449,0.0-4.11-2.11,km5i6f7akr8,2022-09-19 17:33:34.268,62964d27c2b2866faa677493,2,100,77,34,34,33,Male,,,"
  <table>
  <tr height=300>
    <td width=300 height=300><img src=""static/images/cards/back_of_black_bolts.svg"" width=""175px"" height=""250px""></img></td>
    <td width=300 height=300><img src=""static/images/cards/6_of_black_bolts.svg"" width=""175px"" height=""250px""></img></td>
  </tr>
  <tr height=200>
    <td width=300></td>
    <td width=300><img src=""static/images/keys/m.svg"" width=""35%"" height=""75%""></img></td>
  </tr>
</table>
  ",,,,,,,,,,,,,,,,,,,,,,,,,,,,
80,0,,html-keyboard-response,80,223969,0.0-4.11-3.11,km5i6f7akr8,2022-09-19 17:33:34.268,62964d27c2b2866faa677493,2,100,77,34,34,33,Male,,,"<p style=""font-size:50px"">You win!
+10 points this round!</p>",,,,,,,,,,,,,,,,,,,,,,,,,,,,
81,0,,html-keyboard-response,81,224486,0.0-4.11-4.11,km5i6f7akr8,2022-09-19 17:33:34.268,62964d27c2b2866faa677493,2,100,77,34,34,33,Male,,,,,,1.0,learning,11.0,Xnc,,black,,bolts,,,,Xnc,black,bolts,,0.0,0.0,0,right,601.8999999762,6.0,1.0,1.0,,,
82,0,,html-keyboard-response,82,225999,0.0-4.12-0.12,km5i6f7akr8,2022-09-19 17:33:34.268,62964d27c2b2866faa677493,2,100,77,34,34,33,Male,,,"<img src=""static/images/cards/stack_of_black_stars.svg"" width=""175px"" height=""250px""></img>",,,,,,,,,,,,,,,,,,,,,,,,,,,,
83,0,,html-keyboard-response,83,227149,0.0-4.12-1.12,km5i6f7akr8,2022-09-19 17:33:34.268,62964d27c2b2866faa677493,2,100,77,34,34,33,Male,637.2999999523,,"
  <table>
  <tr height=300>
    <td width=300 height=300><img src=""static/images/cards/back_of_black_stars.svg"" width=""175px"" height=""250px""></img></td>
    <td width=300 height=300><img src=""static/images/cards/back_of_black_stars.svg"" width=""175px"" height=""250px""></img></td>
  </tr>
  <tr height=200>
    <td width=300><img src=""static/images/keys/z.svg"" width=""35%"" height=""75%""></img></td>
    <td width=300><img src=""static/images/keys/m.svg"" width=""35%"" height=""75%""></img></td>
  </tr>
</table>
  ",77.0,1.0,,,,,,,,,,,,,,,,,,,,,,,,,,
84,0,,html-keyboard-response,84,228656,0.0-4.12-2.12,km5i6f7akr8,2022-09-19 17:33:34.268,62964d27c2b2866faa677493,2,100,77,34,34,33,Male,,,"
  <table>
  <tr height=300>
    <td width=300 height=300><img src=""static/images/cards/back_of_black_stars.svg"" width=""175px"" height=""250px""></img></td>
    <td width=300 height=300><img src=""static/images/cards/3_of_black_stars.svg"" width=""175px"" height=""250px""></img></td>
  </tr>
  <tr height=200>
    <td width=300><img src=""static/images/keys/z.svg"" width=""35%"" height=""75%""></img></td>
    <td width=300><img src=""static/images/keys/m.svg"" width=""35%"" height=""75%""></img></td>
  </tr>
</table>
  ",,,,,,,,,,,,,,,,,,,,,,,,,,,,
85,0,,html-keyboard-response,85,230175,0.0-4.12-3.12,km5i6f7akr8,2022-09-19 17:33:34.268,62964d27c2b2866faa677493,2,100,77,34,34,33,Male,,,"<p style=""font-size:50px"">You Lose!
No points this round.</p>",,,,,,,,,,,,,,,,,,,,,,,,,,,,
86,0,,html-keyboard-response,86,230692,0.0-4.12-4.12,km5i6f7akr8,2022-09-19 17:33:34.268,62964d27c2b2866faa677493,2,100,77,34,34,33,Male,,,,,,1.0,learning,12.0,A,,black,,stars,,,,A,black,stars,,1.0,1.0,NA,right,637.2999999523,3.0,0.0,0.0,,,
87,0,,html-keyboard-response,87,232206,0.0-4.13-0.13,km5i6f7akr8,2022-09-19 17:33:34.268,62964d27c2b2866faa677493,2,100,77,34,34,33,Male,,,"<img src=""static/images/cards/stack_of_red_stars.svg"" width=""175px"" height=""250px""></img>",,,,,,,,,,,,,,,,,,,,,,,,,,,,
88,0,,html-keyboard-response,88,233129,0.0-4.13-1.13,km5i6f7akr8,2022-09-19 17:33:34.268,62964d27c2b2866faa677493,2,100,77,34,34,33,Male,411.1000000238,,"
  <table>
  <tr height=300>
    <td width=300 height=300><img src=""static/images/cards/back_of_red_stars.svg"" width=""175px"" height=""250px""></img></td>
    <td width=300 height=300><img src=""static/images/cards/back_of_red_stars.svg"" width=""175px"" height=""250px""></img></td>
  </tr>
  <tr height=200>
    <td width=300></td>
    <td width=300><img src=""static/images/keys/m.svg"" width=""35%"" height=""75%""></img></td>
  </tr>
</table>
  ",77.0,1.0,,,,,,,,,,,,,,,,,,,,,,,,,,
89,0,,html-keyboard-response,89,234637,0.0-4.13-2.13,km5i6f7akr8,2022-09-19 17:33:34.268,62964d27c2b2866faa677493,2,100,77,34,34,33,Male,,,"
  <table>
  <tr height=300>
    <td width=300 height=300><img src=""static/images/cards/back_of_red_stars.svg"" width=""175px"" height=""250px""></img></td>
    <td width=300 height=300><img src=""static/images/cards/6_of_red_stars.svg"" width=""175px"" height=""250px""></img></td>
  </tr>
  <tr height=200>
    <td width=300></td>
    <td width=300><img src=""static/images/keys/m.svg"" width=""35%"" height=""75%""></img></td>
  </tr>
</table>
  ",,,,,,,,,,,,,,,,,,,,,,,,,,,,
90,0,,html-keyboard-response,90,236157,0.0-4.13-3.13,km5i6f7akr8,2022-09-19 17:33:34.268,62964d27c2b2866faa677493,2,100,77,34,34,33,Male,,,"<p style=""font-size:50px"">You win!
+10 points this round!</p>",,,,,,,,,,,,,,,,,,,,,,,,,,,,
91,0,,html-keyboard-response,91,236674,0.0-4.13-4.13,km5i6f7akr8,2022-09-19 17:33:34.268,62964d27c2b2866faa677493,2,100,77,34,34,33,Male,,,,,,1.0,learning,13.0,B,,red,,stars,,,,B,red,stars,,0.0,1.0,0,right,411.1000000238,6.0,1.0,1.0,,,
92,0,,html-keyboard-response,92,238190,0.0-4.14-0.14,km5i6f7akr8,2022-09-19 17:33:34.268,62964d27c2b2866faa677493,2,100,77,34,34,33,Male,,,"<img src=""static/images/cards/stack_of_black_moons.svg"" width=""175px"" height=""250px""></img>",,,,,,,,,,,,,,,,,,,,,,,,,,,,
93,0,,html-keyboard-response,93,239315,0.0-4.14-1.14,km5i6f7akr8,2022-09-19 17:33:34.268,62964d27c2b2866faa677493,2,100,77,34,34,33,Male,612.6999999881,,"
  <table>
  <tr height=300>
    <td width=300 height=300><img src=""static/images/cards/back_of_black_moons.svg"" width=""175px"" height=""250px""></img></td>
    <td width=300 height=300><img src=""static/images/cards/back_of_black_moons.svg"" width=""175px"" height=""250px""></img></td>
  </tr>
  <tr height=200>
    <td width=300><img src=""static/images/keys/z.svg"" width=""35%"" height=""75%""></img></td>
    <td width=300><img src=""static/images/keys/m.svg"" width=""35%"" height=""75%""></img></td>
  </tr>
</table>
  ",77.0,1.0,,,,,,,,,,,,,,,,,,,,,,,,,,
94,0,,html-keyboard-response,94,240828,0.0-4.14-2.14,km5i6f7akr8,2022-09-19 17:33:34.268,62964d27c2b2866faa677493,2,100,77,34,34,33,Male,,,"
  <table>
  <tr height=300>
    <td width=300 height=300><img src=""static/images/cards/back_of_black_moons.svg"" width=""175px"" height=""250px""></img></td>
    <td width=300 height=300><img src=""static/images/cards/1_of_black_moons.svg"" width=""175px"" height=""250px""></img></td>
  </tr>
  <tr height=200>
    <td width=300><img src=""static/images/keys/z.svg"" width=""35%"" height=""75%""></img></td>
    <td width=300><img src=""static/images/keys/m.svg"" width=""35%"" height=""75%""></img></td>
  </tr>
</table>
  ",,,,,,,,,,,,,,,,,,,,,,,,,,,,
95,0,,html-keyboard-response,95,242330,0.0-4.14-3.14,km5i6f7akr8,2022-09-19 17:33:34.268,62964d27c2b2866faa677493,2,100,77,34,34,33,Male,,,"<p style=""font-size:50px"">You Lose!
No points this round.</p>",,,,,,,,,,,,,,,,,,,,,,,,,,,,
96,0,,html-keyboard-response,96,242849,0.0-4.14-4.14,km5i6f7akr8,2022-09-19 17:33:34.268,62964d27c2b2866faa677493,2,100,77,34,34,33,Male,,,,,,1.0,learning,14.0,C,,black,,moons,,,,C,black,moons,,1.0,0.0,NA,right,612.6999999881,1.0,0.0,0.0,,,
97,0,,html-keyboard-response,97,244362,0.0-4.15-0.15,km5i6f7akr8,2022-09-19 17:33:34.268,62964d27c2b2866faa677493,2,100,77,34,34,33,Male,,,"<img src=""static/images/cards/stack_of_red_moons.svg"" width=""175px"" height=""250px""></img>",,,,,,,,,,,,,,,,,,,,,,,,,,,,
98,0,,html-keyboard-response,98,245177,0.0-4.15-1.15,km5i6f7akr8,2022-09-19 17:33:34.268,62964d27c2b2866faa677493,2,100,77,34,34,33,Male,303.3000000119,,"
  <table>
  <tr height=300>
    <td width=300 height=300><img src=""static/images/cards/back_of_red_moons.svg"" width=""175px"" height=""250px""></img></td>
    <td width=300 height=300><img src=""static/images/cards/back_of_red_moons.svg"" width=""175px"" height=""250px""></img></td>
  </tr>
  <tr height=200>
    <td width=300></td>
    <td width=300><img src=""static/images/keys/m.svg"" width=""35%"" height=""75%""></img></td>
  </tr>
</table>
  ",77.0,1.0,,,,,,,,,,,,,,,,,,,,,,,,,,
99,0,,html-keyboard-response,99,246679,0.0-4.15-2.15,km5i6f7akr8,2022-09-19 17:33:34.268,62964d27c2b2866faa677493,2,100,77,34,34,33,Male,,,"
  <table>
  <tr height=300>
    <td width=300 height=300><img src=""static/images/cards/back_of_red_moons.svg"" width=""175px"" height=""250px""></img></td>
    <td width=300 height=300><img src=""static/images/cards/6_of_red_moons.svg"" width=""175px"" height=""250px""></img></td>
  </tr>
  <tr height=200>
    <td width=300></td>
    <td width=300><img src=""static/images/keys/m.svg"" width=""35%"" height=""75%""></img></td>
  </tr>
</table>
  ",,,,,,,,,,,,,,,,,,,,,,,,,,,,
100,0,,html-keyboard-response,100,248201,0.0-4.15-3.15,km5i6f7akr8,2022-09-19 17:33:34.268,62964d27c2b2866faa677493,2,100,77,34,34,33,Male,,,"<p style=""font-size:50px"">You win!
+10 points this round!</p>",,,,,,,,,,,,,,,,,,,,,,,,,,,,
101,0,,html-keyboard-response,101,248717,0.0-4.15-4.15,km5i6f7akr8,2022-09-19 17:33:34.268,62964d27c2b2866faa677493,2,100,77,34,34,33,Male,,,,,,1.0,learning,15.0,D,,red,,moons,,,,D,red,moons,,0.0,0.0,0,right,303.3000000119,6.0,1.0,1.0,,,
102,0,,html-keyboard-response,102,250232,0.0-4.16-0.16,km5i6f7akr8,2022-09-19 17:33:34.268,62964d27c2b2866faa677493,2,100,77,34,34,33,Male,,,"<img src=""static/images/cards/stack_of_red_bolts.svg"" width=""175px"" height=""250px""></img>",,,,,,,,,,,,,,,,,,,,,,,,,,,,
103,0,,html-keyboard-response,103,251389,0.0-4.16-1.16,km5i6f7akr8,2022-09-19 17:33:34.268,62964d27c2b2866faa677493,2,100,77,34,34,33,Male,644.6999999881,,"
  <table>
  <tr height=300>
    <td width=300 height=300><img src=""static/images/cards/back_of_red_bolts.svg"" width=""175px"" height=""250px""></img></td>
    <td width=300 height=300><img src=""static/images/cards/back_of_red_bolts.svg"" width=""175px"" height=""250px""></img></td>
  </tr>
  <tr height=200>
    <td width=300><img src=""static/images/keys/z.svg"" width=""35%"" height=""75%""></img></td>
    <td width=300><img src=""static/images/keys/m.svg"" width=""35%"" height=""75%""></img></td>
  </tr>
</table>
  ",77.0,1.0,,,,,,,,,,,,,,,,,,,,,,,,,,
104,0,,html-keyboard-response,104,252902,0.0-4.16-2.16,km5i6f7akr8,2022-09-19 17:33:34.268,62964d27c2b2866faa677493,2,100,77,34,34,33,Male,,,"
  <table>
  <tr height=300>
    <td width=300 height=300><img src=""static/images/cards/back_of_red_bolts.svg"" width=""175px"" height=""250px""></img></td>
    <td width=300 height=300><img src=""static/images/cards/4_of_red_bolts.svg"" width=""175px"" height=""250px""></img></td>
  </tr>
  <tr height=200>
    <td width=300><img src=""static/images/keys/z.svg"" width=""35%"" height=""75%""></img></td>
    <td width=300><img src=""static/images/keys/m.svg"" width=""35%"" height=""75%""></img></td>
  </tr>
</table>
  ",,,,,,,,,,,,,,,,,,,,,,,,,,,,
105,0,,html-keyboard-response,105,254423,0.0-4.16-3.16,km5i6f7akr8,2022-09-19 17:33:34.268,62964d27c2b2866faa677493,2,100,77,34,34,33,Male,,,"<p style=""font-size:50px"">You win!
+10 points this round!</p>",,,,,,,,,,,,,,,,,,,,,,,,,,,,
106,0,,html-keyboard-response,106,254940,0.0-4.16-4.16,km5i6f7akr8,2022-09-19 17:33:34.268,62964d27c2b2866faa677493,2,100,77,34,34,33,Male,,,,,,1.0,learning,16.0,Xc,,red,,bolts,,,,Xc,red,bolts,,1.0,0.0,NA,right,644.6999999881,4.0,0.0,1.0,,,
107,0,,html-keyboard-response,107,256455,0.0-4.17-0.17,km5i6f7akr8,2022-09-19 17:33:34.268,62964d27c2b2866faa677493,2,100,77,34,34,33,Male,,,"<img src=""static/images/cards/stack_of_black_bolts.svg"" width=""175px"" height=""250px""></img>",,,,,,,,,,,,,,,,,,,,,,,,,,,,
108,0,,html-keyboard-response,108,258661,0.0-4.17-1.17,km5i6f7akr8,2022-09-19 17:33:34.268,62964d27c2b2866faa677493,2,100,77,34,34,33,Male,1694.3000000119,,"
  <table>
  <tr height=300>
    <td width=300 height=300><img src=""static/images/cards/back_of_black_bolts.svg"" width=""175px"" height=""250px""></img></td>
    <td width=300 height=300><img src=""static/images/cards/back_of_black_bolts.svg"" width=""175px"" height=""250px""></img></td>
  </tr>
  <tr height=200>
    <td width=300><img src=""static/images/keys/z.svg"" width=""35%"" height=""75%""></img></td>
    <td width=300></td>
  </tr>
</table>
  ",90.0,2.0,,,,,,,,,,,,,,,,,,,,,,,,,,
109,0,,html-keyboard-response,109,260166,0.0-4.17-2.17,km5i6f7akr8,2022-09-19 17:33:34.268,62964d27c2b2866faa677493,2,100,77,34,34,33,Male,,,"
  <table>
  <tr height=300>
    <td width=300 height=300><img src=""static/images/cards/2_of_black_bolts.svg"" width=""175px"" height=""250px""></img></td>
    <td width=300 height=300><img src=""static/images/cards/back_of_black_bolts.svg"" width=""175px"" height=""250px""></img></td>
  </tr>
  <tr height=200>
    <td width=300><img src=""static/images/keys/z.svg"" width=""35%"" height=""75%""></img></td>
    <td width=300></td>
  </tr>
</table>
  ",,,,,,,,,,,,,,,,,,,,,,,,,,,,
110,0,,html-keyboard-response,110,261685,0.0-4.17-3.17,km5i6f7akr8,2022-09-19 17:33:34.268,62964d27c2b2866faa677493,2,100,77,34,34,33,Male,,,"<p style=""font-size:50px"">You win!
+10 points this round!</p>",,,,,,,,,,,,,,,,,,,,,,,,,,,,
111,0,,html-keyboard-response,111,262201,0.0-4.17-4.17,km5i6f7akr8,2022-09-19 17:33:34.268,62964d27c2b2866faa677493,2,100,77,34,34,33,Male,,,,,,1.0,learning,17.0,Xnc,,black,,bolts,,,,Xnc,black,bolts,,0.0,0.0,1,left,1694.3000000119,2.0,0.0,1.0,,,
112,0,,html-keyboard-response,112,263716,0.0-4.18-0.18,km5i6f7akr8,2022-09-19 17:33:34.268,62964d27c2b2866faa677493,2,100,77,34,34,33,Male,,,"<img src=""static/images/cards/stack_of_black_stars.svg"" width=""175px"" height=""250px""></img>",,,,,,,,,,,,,,,,,,,,,,,,,,,,
113,0,,html-keyboard-response,113,264877,0.0-4.18-1.18,km5i6f7akr8,2022-09-19 17:33:34.268,62964d27c2b2866faa677493,2,100,77,34,34,33,Male,648.5999999642,,"
  <table>
  <tr height=300>
    <td width=300 height=300><img src=""static/images/cards/back_of_black_stars.svg"" width=""175px"" height=""250px""></img></td>
    <td width=300 height=300><img src=""static/images/cards/back_of_black_stars.svg"" width=""175px"" height=""250px""></img></td>
  </tr>
  <tr height=200>
    <td width=300><img src=""static/images/keys/z.svg"" width=""35%"" height=""75%""></img></td>
    <td width=300><img src=""static/images/keys/m.svg"" width=""35%"" height=""75%""></img></td>
  </tr>
</table>
  ",77.0,1.0,,,,,,,,,,,,,,,,,,,,,,,,,,
114,0,,html-keyboard-response,114,266387,0.0-4.18-2.18,km5i6f7akr8,2022-09-19 17:33:34.268,62964d27c2b2866faa677493,2,100,77,34,34,33,Male,,,"
  <table>
  <tr height=300>
    <td width=300 height=300><img src=""static/images/cards/back_of_black_stars.svg"" width=""175px"" height=""250px""></img></td>
    <td width=300 height=300><img src=""static/images/cards/7_of_black_stars.svg"" width=""175px"" height=""250px""></img></td>
  </tr>
  <tr height=200>
    <td width=300><img src=""static/images/keys/z.svg"" width=""35%"" height=""75%""></img></td>
    <td width=300><img src=""static/images/keys/m.svg"" width=""35%"" height=""75%""></img></td>
  </tr>
</table>
  ",,,,,,,,,,,,,,,,,,,,,,,,,,,,
115,0,,html-keyboard-response,115,267907,0.0-4.18-3.18,km5i6f7akr8,2022-09-19 17:33:34.268,62964d27c2b2866faa677493,2,100,77,34,34,33,Male,,,"<p style=""font-size:50px"">You win!
+10 points this round!</p>",,,,,,,,,,,,,,,,,,,,,,,,,,,,
116,0,,html-keyboard-response,116,268424,0.0-4.18-4.18,km5i6f7akr8,2022-09-19 17:33:34.268,62964d27c2b2866faa677493,2,100,77,34,34,33,Male,,,,,,1.0,learning,18.0,A,,black,,stars,,,,A,black,stars,,1.0,1.0,NA,right,648.5999999642,7.0,1.0,1.0,,,
117,0,,html-keyboard-response,117,269939,0.0-4.19-0.19,km5i6f7akr8,2022-09-19 17:33:34.268,62964d27c2b2866faa677493,2,100,77,34,34,33,Male,,,"<img src=""static/images/cards/stack_of_red_stars.svg"" width=""175px"" height=""250px""></img>",,,,,,,,,,,,,,,,,,,,,,,,,,,,
118,0,,html-keyboard-response,118,271713,0.0-4.19-1.19,km5i6f7akr8,2022-09-19 17:33:34.268,62964d27c2b2866faa677493,2,100,77,34,34,33,Male,1260.6000000238,,"
  <table>
  <tr height=300>
    <td width=300 height=300><img src=""static/images/cards/back_of_red_stars.svg"" width=""175px"" height=""250px""></img></td>
    <td width=300 height=300><img src=""static/images/cards/back_of_red_stars.svg"" width=""175px"" height=""250px""></img></td>
  </tr>
  <tr height=200>
    <td width=300><img src=""static/images/keys/z.svg"" width=""35%"" height=""75%""></img></td>
    <td width=300></td>
  </tr>
</table>
  ",90.0,1.0,,,,,,,,,,,,,,,,,,,,,,,,,,
119,0,,html-keyboard-response,119,273218,0.0-4.19-2.19,km5i6f7akr8,2022-09-19 17:33:34.268,62964d27c2b2866faa677493,2,100,77,34,34,33,Male,,,"
  <table>
  <tr height=300>
    <td width=300 height=300><img src=""static/images/cards/1_of_red_stars.svg"" width=""175px"" height=""250px""></img></td>
    <td width=300 height=300><img src=""static/images/cards/back_of_red_stars.svg"" width=""175px"" height=""250px""></img></td>
  </tr>
  <tr height=200>
    <td width=300><img src=""static/images/keys/z.svg"" width=""35%"" height=""75%""></img></td>
    <td width=300></td>
  </tr>
</table>
  ",,,,,,,,,,,,,,,,,,,,,,,,,,,,
120,0,,html-keyboard-response,120,274737,0.0-4.19-3.19,km5i6f7akr8,2022-09-19 17:33:34.268,62964d27c2b2866faa677493,2,100,77,34,34,33,Male,,,"<p style=""font-size:50px"">You Lose!
No points this round.</p>",,,,,,,,,,,,,,,,,,,,,,,,,,,,
121,0,,html-keyboard-response,121,275254,0.0-4.19-4.19,km5i6f7akr8,2022-09-19 17:33:34.268,62964d27c2b2866faa677493,2,100,77,34,34,33,Male,,,,,,1.0,learning,19.0,B,,red,,stars,,,,B,red,stars,,0.0,1.0,1,left,1260.6000000238,1.0,0.0,0.0,,,
122,0,,html-keyboard-response,122,276768,0.0-4.20-0.20,km5i6f7akr8,2022-09-19 17:33:34.268,62964d27c2b2866faa677493,2,100,77,34,34,33,Male,,,"<img src=""static/images/cards/stack_of_black_moons.svg"" width=""175px"" height=""250px""></img>",,,,,,,,,,,,,,,,,,,,,,,,,,,,
123,0,,html-keyboard-response,123,278218,0.0-4.20-1.20,km5i6f7akr8,2022-09-19 17:33:34.268,62964d27c2b2866faa677493,2,100,77,34,34,33,Male,937.7999999523,,"
  <table>
  <tr height=300>
    <td width=300 height=300><img src=""static/images/cards/back_of_black_moons.svg"" width=""175px"" height=""250px""></img></td>
    <td width=300 height=300><img src=""static/images/cards/back_of_black_moons.svg"" width=""175px"" height=""250px""></img></td>
  </tr>
  <tr height=200>
    <td width=300><img src=""static/images/keys/z.svg"" width=""35%"" height=""75%""></img></td>
    <td width=300><img src=""static/images/keys/m.svg"" width=""35%"" height=""75%""></img></td>
  </tr>
</table>
  ",77.0,1.0,,,,,,,,,,,,,,,,,,,,,,,,,,
124,0,,html-keyboard-response,124,279729,0.0-4.20-2.20,km5i6f7akr8,2022-09-19 17:33:34.268,62964d27c2b2866faa677493,2,100,77,34,34,33,Male,,,"
  <table>
  <tr height=300>
    <td width=300 height=300><img src=""static/images/cards/back_of_black_moons.svg"" width=""175px"" height=""250px""></img></td>
    <td width=300 height=300><img src=""static/images/cards/9_of_black_moons.svg"" width=""175px"" height=""250px""></img></td>
  </tr>
  <tr height=200>
    <td width=300><img src=""static/images/keys/z.svg"" width=""35%"" height=""75%""></img></td>
    <td width=300><img src=""static/images/keys/m.svg"" width=""35%"" height=""75%""></img></td>
  </tr>
</table>
  ",,,,,,,,,,,,,,,,,,,,,,,,,,,,
125,0,,html-keyboard-response,125,281247,0.0-4.20-3.20,km5i6f7akr8,2022-09-19 17:33:34.268,62964d27c2b2866faa677493,2,100,77,34,34,33,Male,,,"<p style=""font-size:50px"">You Lose!
No points this round.</p>",,,,,,,,,,,,,,,,,,,,,,,,,,,,
126,0,,html-keyboard-response,126,281764,0.0-4.20-4.20,km5i6f7akr8,2022-09-19 17:33:34.268,62964d27c2b2866faa677493,2,100,77,34,34,33,Male,,,,,,1.0,learning,20.0,C,,black,,moons,,,,C,black,moons,,1.0,0.0,NA,right,937.7999999523,9.0,1.0,0.0,,,
127,0,,html-keyboard-response,127,283279,0.0-4.21-0.21,km5i6f7akr8,2022-09-19 17:33:34.268,62964d27c2b2866faa677493,2,100,77,34,34,33,Male,,,"<img src=""static/images/cards/stack_of_red_moons.svg"" width=""175px"" height=""250px""></img>",,,,,,,,,,,,,,,,,,,,,,,,,,,,
128,0,,html-keyboard-response,128,284235,0.0-4.21-1.21,km5i6f7akr8,2022-09-19 17:33:34.268,62964d27c2b2866faa677493,2,100,77,34,34,33,Male,443.5,,"
  <table>
  <tr height=300>
    <td width=300 height=300><img src=""static/images/cards/back_of_red_moons.svg"" width=""175px"" height=""250px""></img></td>
    <td width=300 height=300><img src=""static/images/cards/back_of_red_moons.svg"" width=""175px"" height=""250px""></img></td>
  </tr>
  <tr height=200>
    <td width=300><img src=""static/images/keys/z.svg"" width=""35%"" height=""75%""></img></td>
    <td width=300></td>
  </tr>
</table>
  ",90.0,1.0,,,,,,,,,,,,,,,,,,,,,,,,,,
129,0,,html-keyboard-response,129,285742,0.0-4.21-2.21,km5i6f7akr8,2022-09-19 17:33:34.268,62964d27c2b2866faa677493,2,100,77,34,34,33,Male,,,"
  <table>
  <tr height=300>
    <td width=300 height=300><img src=""static/images/cards/8_of_red_moons.svg"" width=""175px"" height=""250px""></img></td>
    <td width=300 height=300><img src=""static/images/cards/back_of_red_moons.svg"" width=""175px"" height=""250px""></img></td>
  </tr>
  <tr height=200>
    <td width=300><img src=""static/images/keys/z.svg"" width=""35%"" height=""75%""></img></td>
    <td width=300></td>
  </tr>
</table>
  ",,,,,,,,,,,,,,,,,,,,,,,,,,,,
130,0,,html-keyboard-response,130,287262,0.0-4.21-3.21,km5i6f7akr8,2022-09-19 17:33:34.268,62964d27c2b2866faa677493,2,100,77,34,34,33,Male,,,"<p style=""font-size:50px"">You Lose!
No points this round.</p>",,,,,,,,,,,,,,,,,,,,,,,,,,,,
131,0,,html-keyboard-response,131,287779,0.0-4.21-4.21,km5i6f7akr8,2022-09-19 17:33:34.268,62964d27c2b2866faa677493,2,100,77,34,34,33,Male,,,,,,1.0,learning,21.0,D,,red,,moons,,,,D,red,moons,,0.0,0.0,1,left,443.5,8.0,1.0,0.0,,,
132,0,,html-keyboard-response,132,289293,0.0-4.22-0.22,km5i6f7akr8,2022-09-19 17:33:34.268,62964d27c2b2866faa677493,2,100,77,34,34,33,Male,,,"<img src=""static/images/cards/stack_of_red_bolts.svg"" width=""175px"" height=""250px""></img>",,,,,,,,,,,,,,,,,,,,,,,,,,,,
133,0,,html-keyboard-response,133,290549,0.0-4.22-1.22,km5i6f7akr8,2022-09-19 17:33:34.268,62964d27c2b2866faa677493,2,100,77,34,34,33,Male,744.0,,"
  <table>
  <tr height=300>
    <td width=300 height=300><img src=""static/images/cards/back_of_red_bolts.svg"" width=""175px"" height=""250px""></img></td>
    <td width=300 height=300><img src=""static/images/cards/back_of_red_bolts.svg"" width=""175px"" height=""250px""></img></td>
  </tr>
  <tr height=200>
    <td width=300><img src=""static/images/keys/z.svg"" width=""35%"" height=""75%""></img></td>
    <td width=300><img src=""static/images/keys/m.svg"" width=""35%"" height=""75%""></img></td>
  </tr>
</table>
  ",77.0,1.0,,,,,,,,,,,,,,,,,,,,,,,,,,
134,0,,html-keyboard-response,134,292059,0.0-4.22-2.22,km5i6f7akr8,2022-09-19 17:33:34.268,62964d27c2b2866faa677493,2,100,77,34,34,33,Male,,,"
  <table>
  <tr height=300>
    <td width=300 height=300><img src=""static/images/cards/back_of_red_bolts.svg"" width=""175px"" height=""250px""></img></td>
    <td width=300 height=300><img src=""static/images/cards/9_of_red_bolts.svg"" width=""175px"" height=""250px""></img></td>
  </tr>
  <tr height=200>
    <td width=300><img src=""static/images/keys/z.svg"" width=""35%"" height=""75%""></img></td>
    <td width=300><img src=""static/images/keys/m.svg"" width=""35%"" height=""75%""></img></td>
  </tr>
</table>
  ",,,,,,,,,,,,,,,,,,,,,,,,,,,,
135,0,,html-keyboard-response,135,293580,0.0-4.22-3.22,km5i6f7akr8,2022-09-19 17:33:34.268,62964d27c2b2866faa677493,2,100,77,34,34,33,Male,,,"<p style=""font-size:50px"">You win!
+10 points this round!</p>",,,,,,,,,,,,,,,,,,,,,,,,,,,,
136,0,,html-keyboard-response,136,294097,0.0-4.22-4.22,km5i6f7akr8,2022-09-19 17:33:34.268,62964d27c2b2866faa677493,2,100,77,34,34,33,Male,,,,,,1.0,learning,22.0,Xc,,red,,bolts,,,,Xc,red,bolts,,1.0,0.0,NA,right,744.0,9.0,1.0,1.0,,,
137,0,,html-keyboard-response,137,295611,0.0-4.23-0.23,km5i6f7akr8,2022-09-19 17:33:34.268,62964d27c2b2866faa677493,2,100,77,34,34,33,Male,,,"<img src=""static/images/cards/stack_of_black_bolts.svg"" width=""175px"" height=""250px""></img>",,,,,,,,,,,,,,,,,,,,,,,,,,,,
138,0,,html-keyboard-response,138,296607,0.0-4.23-1.23,km5i6f7akr8,2022-09-19 17:33:34.268,62964d27c2b2866faa677493,2,100,77,34,34,33,Male,483.6999999881,,"
  <table>
  <tr height=300>
    <td width=300 height=300><img src=""static/images/cards/back_of_black_bolts.svg"" width=""175px"" height=""250px""></img></td>
    <td width=300 height=300><img src=""static/images/cards/back_of_black_bolts.svg"" width=""175px"" height=""250px""></img></td>
  </tr>
  <tr height=200>
    <td width=300><img src=""static/images/keys/z.svg"" width=""35%"" height=""75%""></img></td>
    <td width=300></td>
  </tr>
</table>
  ",90.0,1.0,,,,,,,,,,,,,,,,,,,,,,,,,,
139,0,,html-keyboard-response,139,298123,0.0-4.23-2.23,km5i6f7akr8,2022-09-19 17:33:34.268,62964d27c2b2866faa677493,2,100,77,34,34,33,Male,,,"
  <table>
  <tr height=300>
    <td width=300 height=300><img src=""static/images/cards/9_of_black_bolts.svg"" width=""175px"" height=""250px""></img></td>
    <td width=300 height=300><img src=""static/images/cards/back_of_black_bolts.svg"" width=""175px"" height=""250px""></img></td>
  </tr>
  <tr height=200>
    <td width=300><img src=""static/images/keys/z.svg"" width=""35%"" height=""75%""></img></td>
    <td width=300></td>
  </tr>
</table>
  ",,,,,,,,,,,,,,,,,,,,,,,,,,,,
140,0,,html-keyboard-response,140,299642,0.0-4.23-3.23,km5i6f7akr8,2022-09-19 17:33:34.268,62964d27c2b2866faa677493,2,100,77,34,34,33,Male,,,"<p style=""font-size:50px"">You win!
+10 points this round!</p>",,,,,,,,,,,,,,,,,,,,,,,,,,,,
141,0,,html-keyboard-response,141,300158,0.0-4.23-4.23,km5i6f7akr8,2022-09-19 17:33:34.268,62964d27c2b2866faa677493,2,100,77,34,34,33,Male,,,,,,1.0,learning,23.0,Xnc,,black,,bolts,,,,Xnc,black,bolts,,0.0,0.0,1,left,483.6999999881,9.0,1.0,1.0,,,
142,0,,call-function,142,300161,0.0-5.0,km5i6f7akr8,2022-09-19 17:33:34.268,62964d27c2b2866faa677493,2,100,77,34,34,33,Male,,,,,,,,,,,,,,,,,,,,,,,,,,,,,,,
143,0,,image-keyboard-response,143,306281,0.0-6.0-0.0,km5i6f7akr8,2022-09-19 17:33:34.268,62964d27c2b2866faa677493,2,100,77,34,34,33,Male,6119.3000000119,,static/images/instructions_CB_2/Slide20.png,39.0,,,,,,,,,,,,,,,,,,,,,,,,,,,
144,0,,image-keyboard-response,144,313100,0.0-6.1-0.1,km5i6f7akr8,2022-09-19 17:33:34.268,62964d27c2b2866faa677493,2,100,77,34,34,33,Male,6818.5,,static/images/instructions_CB_2/Slide21.png,39.0,,,,,,,,,,,,,,,,,,,,,,,,,,,
145,0,,image-keyboard-response,145,323170,0.0-6.2-0.2,km5i6f7akr8,2022-09-19 17:33:34.268,62964d27c2b2866faa677493,2,100,77,34,34,33,Male,10069.3999999762,,static/images/instructions_CB_2/Slide22.png,39.0,,,,,,,,,,,,,,,,,,,,,,,,,,,
146,0,,image-keyboard-response,146,328429,0.0-6.3-0.3,km5i6f7akr8,2022-09-19 17:33:34.268,62964d27c2b2866faa677493,2,100,77,34,34,33,Male,5258.1999999881,,static/images/instructions_CB_2/Slide23.png,39.0,,,,,,,,,,,,,,,,,,,,,,,,,,,
147,0,,image-keyboard-response,147,332216,0.0-6.4-0.4,km5i6f7akr8,2022-09-19 17:33:34.268,62964d27c2b2866faa677493,2,100,77,34,34,33,Male,3786.3000000119,,static/images/instructions_CB_2/Slide24.png,39.0,,,,,,,,,,,,,,,,,,,,,,,,,,,
148,0,,html-keyboard-response,148,335737,0.0-7.0-0.0,km5i6f7akr8,2022-09-19 17:33:34.268,62964d27c2b2866faa677493,2,100,77,34,34,33,Male,3520.3999999762,,"
  <table>
  <tr height=300>
    <td width=300 height=300><img src=""static/images/cards/stack_of_red_moons.svg"" width=""175px"" height=""250px""></img></td>
    <td width=300 height=300><img src=""static/images/cards/stack_of_red_bolts.svg"" width=""175px"" height=""250px""></img></td>
  </tr>
  <tr height=200>
    <td width=300><img src=""static/images/keys/w.svg"" width=""35%"" height=""75%""></img></td>
    <td width=300><img src=""static/images/keys/o.svg"" width=""35%"" height=""75%""></img></td>
  </tr>
</table>
  ",79.0,1.0,,,,,,,,,,,,,,,,,,,,,,,,,,
149,0,,html-keyboard-response,149,336962,0.0-7.0-1.0,km5i6f7akr8,2022-09-19 17:33:34.268,62964d27c2b2866faa677493,2,100,77,34,34,33,Male,710.4000000358,,"
  <table>
  <tr height=300>
    <td width=300 height=300><img src=""static/images/cards/back_of_red_bolts.svg"" width=""175px"" height=""250px""></img></td>
    <td width=300 height=300><img src=""static/images/cards/back_of_red_bolts.svg"" width=""175px"" height=""250px""></img></td>
  </tr>
  <tr height=200>
    <td width=300><img src=""static/images/keys/z.svg"" width=""35%"" height=""75%""></img></td>
    <td width=300><img src=""static/images/keys/m.svg"" width=""35%"" height=""75%""></img></td>
  </tr>
</table>
  ",77.0,1.0,,,,,,,,,,,,,,,,,,,,,,,,,,
150,0,,html-keyboard-response,150,338474,0.0-7.0-2.0,km5i6f7akr8,2022-09-19 17:33:34.268,62964d27c2b2866faa677493,2,100,77,34,34,33,Male,,,"
  <table>
  <tr height=300>
    <td width=300 height=300><img src=""static/images/cards/back_of_red_bolts.svg"" width=""175px"" height=""250px""></img></td>
    <td width=300 height=300><img src=""static/images/cards/7_of_red_bolts.svg"" width=""175px"" height=""250px""></img></td>
  </tr>
  <tr height=200>
    <td width=300><img src=""static/images/keys/z.svg"" width=""35%"" height=""75%""></img></td>
    <td width=300><img src=""static/images/keys/m.svg"" width=""35%"" height=""75%""></img></td>
  </tr>
</table>
  ",,,,,,,,,,,,,,,,,,,,,,,,,,,,
151,0,,html-keyboard-response,151,339993,0.0-7.0-3.0,km5i6f7akr8,2022-09-19 17:33:34.268,62964d27c2b2866faa677493,2,100,77,34,34,33,Male,,,"<p style=""font-size:50px"">You win!
+10 points this round!</p>",,,,,,,,,,,,,,,,,,,,,,,,,,,,
152,0,,html-keyboard-response,152,340510,0.0-7.0-4.0,km5i6f7akr8,2022-09-19 17:33:34.268,62964d27c2b2866faa677493,2,100,77,34,34,33,Male,,,,,,1.0,choice,0.0,D,Xc,red,red,moons,bolts,D,Xc,Xc,red,bolts,3520.3999999762,1.0,0.0,NA,right,710.4000000358,7.0,1.0,1.0,,,
153,0,,html-keyboard-response,153,345512,0.0-7.1-0.1,km5i6f7akr8,2022-09-19 17:33:34.268,62964d27c2b2866faa677493,2,100,77,34,34,33,Male,,,"
  <table>
  <tr height=300>
    <td width=300 height=300><img src=""static/images/cards/stack_of_red_moons.svg"" width=""175px"" height=""250px""></img></td>
    <td width=300 height=300><img src=""static/images/cards/stack_of_black_stars.svg"" width=""175px"" height=""250px""></img></td>
  </tr>
  <tr height=200>
    <td width=300><img src=""static/images/keys/w.svg"" width=""35%"" height=""75%""></img></td>
    <td width=300><img src=""static/images/keys/o.svg"" width=""35%"" height=""75%""></img></td>
  </tr>
</table>
  ",,,,,,,,,,,,,,,,,,,,,,,,,,,,
154,0,,html-keyboard-response,154,346028,0.0-7.1-1.1,km5i6f7akr8,2022-09-19 17:33:34.268,62964d27c2b2866faa677493,2,100,77,34,34,33,Male,,,,,,,,,,,,,,,,,,,,,,,,,,,,,,,
155,0,,html-keyboard-response,155,346034,0.0-7.1-2.1,km5i6f7akr8,2022-09-19 17:33:34.268,62964d27c2b2866faa677493,2,100,77,34,34,33,Male,,,,,,,,,,,,,,,,,,,,,,,,,,,,,,,
156,0,,html-keyboard-response,156,347543,0.0-7.1-3.1,km5i6f7akr8,2022-09-19 17:33:34.268,62964d27c2b2866faa677493,2,100,77,34,34,33,Male,,,"<p style=""font-size:50px"">Too slow!</p>",,,,,,,,,,,,,,,,,,,,,,,,,,,,
157,0,,html-keyboard-response,157,348060,0.0-7.1-4.1,km5i6f7akr8,2022-09-19 17:33:34.268,62964d27c2b2866faa677493,2,100,77,34,34,33,Male,,,,,,1.0,choice,1.0,A,D,red,black,moons,stars,D,A,,,,,1.0,0.0,NA,,,7.0,1.0,1.0,,,
158,0,,html-keyboard-response,158,349731,0.0-7.2-0.2,km5i6f7akr8,2022-09-19 17:33:34.268,62964d27c2b2866faa677493,2,100,77,34,34,33,Male,1670.7999999523,,"
  <table>
  <tr height=300>
    <td width=300 height=300><img src=""static/images/cards/stack_of_red_moons.svg"" width=""175px"" height=""250px""></img></td>
    <td width=300 height=300><img src=""static/images/cards/stack_of_red_stars.svg"" width=""175px"" height=""250px""></img></td>
  </tr>
  <tr height=200>
    <td width=300><img src=""static/images/keys/w.svg"" width=""35%"" height=""75%""></img></td>
    <td width=300><img src=""static/images/keys/o.svg"" width=""35%"" height=""75%""></img></td>
  </tr>
</table>
  ",79.0,1.0,,,,,,,,,,,,,,,,,,,,,,,,,,
159,0,,html-keyboard-response,159,350823,0.0-7.2-1.2,km5i6f7akr8,2022-09-19 17:33:34.268,62964d27c2b2866faa677493,2,100,77,34,34,33,Male,576.3999999762,,"
  <table>
  <tr height=300>
    <td width=300 height=300><img src=""static/images/cards/back_of_red_stars.svg"" width=""175px"" height=""250px""></img></td>
    <td width=300 height=300><img src=""static/images/cards/back_of_red_stars.svg"" width=""175px"" height=""250px""></img></td>
  </tr>
  <tr height=200>
    <td width=300></td>
    <td width=300><img src=""static/images/keys/m.svg"" width=""35%"" height=""75%""></img></td>
  </tr>
</table>
  ",77.0,1.0,,,,,,,,,,,,,,,,,,,,,,,,,,
160,0,,html-keyboard-response,160,352327,0.0-7.2-2.2,km5i6f7akr8,2022-09-19 17:33:34.268,62964d27c2b2866faa677493,2,100,77,34,34,33,Male,,,"
  <table>
  <tr height=300>
    <td width=300 height=300><img src=""static/images/cards/back_of_red_stars.svg"" width=""175px"" height=""250px""></img></td>
    <td width=300 height=300><img src=""static/images/cards/2_of_red_stars.svg"" width=""175px"" height=""250px""></img></td>
  </tr>
  <tr height=200>
    <td width=300></td>
    <td width=300><img src=""static/images/keys/m.svg"" width=""35%"" height=""75%""></img></td>
  </tr>
</table>
  ",,,,,,,,,,,,,,,,,,,,,,,,,,,,
161,0,,html-keyboard-response,161,353844,0.0-7.2-3.2,km5i6f7akr8,2022-09-19 17:33:34.268,62964d27c2b2866faa677493,2,100,77,34,34,33,Male,,,"<p style=""font-size:50px"">You Lose!
No points this round.</p>",,,,,,,,,,,,,,,,,,,,,,,,,,,,
162,0,,html-keyboard-response,162,354361,0.0-7.2-4.2,km5i6f7akr8,2022-09-19 17:33:34.268,62964d27c2b2866faa677493,2,100,77,34,34,33,Male,,,,,,1.0,choice,2.0,B,D,red,red,moons,stars,D,B,B,red,stars,1670.7999999523,0.0,1.0,0,right,576.3999999762,2.0,0.0,0.0,,,
163,0,,html-keyboard-response,163,356533,0.0-7.3-0.3,km5i6f7akr8,2022-09-19 17:33:34.268,62964d27c2b2866faa677493,2,100,77,34,34,33,Male,2171.6000000238,,"
  <table>
  <tr height=300>
    <td width=300 height=300><img src=""static/images/cards/stack_of_red_moons.svg"" width=""175px"" height=""250px""></img></td>
    <td width=300 height=300><img src=""static/images/cards/stack_of_black_moons.svg"" width=""175px"" height=""250px""></img></td>
  </tr>
  <tr height=200>
    <td width=300><img src=""static/images/keys/w.svg"" width=""35%"" height=""75%""></img></td>
    <td width=300><img src=""static/images/keys/o.svg"" width=""35%"" height=""75%""></img></td>
  </tr>
</table>
  ",79.0,1.0,,,,,,,,,,,,,,,,,,,,,,,,,,
164,0,,html-keyboard-response,164,357560,0.0-7.3-1.3,km5i6f7akr8,2022-09-19 17:33:34.268,62964d27c2b2866faa677493,2,100,77,34,34,33,Male,516.8000000119,,"
  <table>
  <tr height=300>
    <td width=300 height=300><img src=""static/images/cards/back_of_black_moons.svg"" width=""175px"" height=""250px""></img></td>
    <td width=300 height=300><img src=""static/images/cards/back_of_black_moons.svg"" width=""175px"" height=""250px""></img></td>
  </tr>
  <tr height=200>
    <td width=300><img src=""static/images/keys/z.svg"" width=""35%"" height=""75%""></img></td>
    <td width=300><img src=""static/images/keys/m.svg"" width=""35%"" height=""75%""></img></td>
  </tr>
</table>
  ",77.0,1.0,,,,,,,,,,,,,,,,,,,,,,,,,,
165,0,,html-keyboard-response,165,359074,0.0-7.3-2.3,km5i6f7akr8,2022-09-19 17:33:34.268,62964d27c2b2866faa677493,2,100,77,34,34,33,Male,,,"
  <table>
  <tr height=300>
    <td width=300 height=300><img src=""static/images/cards/back_of_black_moons.svg"" width=""175px"" height=""250px""></img></td>
    <td width=300 height=300><img src=""static/images/cards/9_of_black_moons.svg"" width=""175px"" height=""250px""></img></td>
  </tr>
  <tr height=200>
    <td width=300><img src=""static/images/keys/z.svg"" width=""35%"" height=""75%""></img></td>
    <td width=300><img src=""static/images/keys/m.svg"" width=""35%"" height=""75%""></img></td>
  </tr>
</table>
  ",,,,,,,,,,,,,,,,,,,,,,,,,,,,
166,0,,html-keyboard-response,166,360594,0.0-7.3-3.3,km5i6f7akr8,2022-09-19 17:33:34.268,62964d27c2b2866faa677493,2,100,77,34,34,33,Male,,,"<p style=""font-size:50px"">You Lose!
No points this round.</p>",,,,,,,,,,,,,,,,,,,,,,,,,,,,
167,0,,html-keyboard-response,167,361112,0.0-7.3-4.3,km5i6f7akr8,2022-09-19 17:33:34.268,62964d27c2b2866faa677493,2,100,77,34,34,33,Male,,,,,,1.0,choice,3.0,C,D,red,black,moons,moons,D,C,C,black,moons,2171.6000000238,1.0,0.0,NA,right,516.8000000119,9.0,1.0,0.0,,,
168,0,,html-keyboard-response,168,365363,0.0-7.4-0.4,km5i6f7akr8,2022-09-19 17:33:34.268,62964d27c2b2866faa677493,2,100,77,34,34,33,Male,4249.8000000119,,"
  <table>
  <tr height=300>
    <td width=300 height=300><img src=""static/images/cards/stack_of_red_moons.svg"" width=""175px"" height=""250px""></img></td>
    <td width=300 height=300><img src=""static/images/cards/stack_of_red_stars.svg"" width=""175px"" height=""250px""></img></td>
  </tr>
  <tr height=200>
    <td width=300><img src=""static/images/keys/w.svg"" width=""35%"" height=""75%""></img></td>
    <td width=300><img src=""static/images/keys/o.svg"" width=""35%"" height=""75%""></img></td>
  </tr>
</table>
  ",87.0,2.0,,,,,,,,,,,,,,,,,,,,,,,,,,
169,0,,html-keyboard-response,169,366419,0.0-7.4-1.4,km5i6f7akr8,2022-09-19 17:33:34.268,62964d27c2b2866faa677493,2,100,77,34,34,33,Male,545.6999999881,,"
  <table>
  <tr height=300>
    <td width=300 height=300><img src=""static/images/cards/back_of_red_moons.svg"" width=""175px"" height=""250px""></img></td>
    <td width=300 height=300><img src=""static/images/cards/back_of_red_moons.svg"" width=""175px"" height=""250px""></img></td>
  </tr>
  <tr height=200>
    <td width=300></td>
    <td width=300><img src=""static/images/keys/m.svg"" width=""35%"" height=""75%""></img></td>
  </tr>
</table>
  ",77.0,1.0,,,,,,,,,,,,,,,,,,,,,,,,,,
170,0,,html-keyboard-response,170,367935,0.0-7.4-2.4,km5i6f7akr8,2022-09-19 17:33:34.268,62964d27c2b2866faa677493,2,100,77,34,34,33,Male,,,"
  <table>
  <tr height=300>
    <td width=300 height=300><img src=""static/images/cards/back_of_red_moons.svg"" width=""175px"" height=""250px""></img></td>
    <td width=300 height=300><img src=""static/images/cards/2_of_red_moons.svg"" width=""175px"" height=""250px""></img></td>
  </tr>
  <tr height=200>
    <td width=300></td>
    <td width=300><img src=""static/images/keys/m.svg"" width=""35%"" height=""75%""></img></td>
  </tr>
</table>
  ",,,,,,,,,,,,,,,,,,,,,,,,,,,,
171,0,,html-keyboard-response,171,369455,0.0-7.4-3.4,km5i6f7akr8,2022-09-19 17:33:34.268,62964d27c2b2866faa677493,2,100,77,34,34,33,Male,,,"<p style=""font-size:50px"">You win!
+10 points this round!</p>",,,,,,,,,,,,,,,,,,,,,,,,,,,,
172,0,,html-keyboard-response,172,369972,0.0-7.4-4.4,km5i6f7akr8,2022-09-19 17:33:34.268,62964d27c2b2866faa677493,2,100,77,34,34,33,Male,,,,,,1.0,choice,4.0,B,D,red,red,moons,stars,D,B,D,red,moons,4249.8000000119,0.0,0.0,0,right,545.6999999881,2.0,0.0,1.0,,,
173,0,,html-keyboard-response,173,370989,0.0-7.5-0.5,km5i6f7akr8,2022-09-19 17:33:34.268,62964d27c2b2866faa677493,2,100,77,34,34,33,Male,1015.6999999881,,"
  <table>
  <tr height=300>
    <td width=300 height=300><img src=""static/images/cards/stack_of_red_moons.svg"" width=""175px"" height=""250px""></img></td>
    <td width=300 height=300><img src=""static/images/cards/stack_of_red_stars.svg"" width=""175px"" height=""250px""></img></td>
  </tr>
  <tr height=200>
    <td width=300><img src=""static/images/keys/w.svg"" width=""35%"" height=""75%""></img></td>
    <td width=300><img src=""static/images/keys/o.svg"" width=""35%"" height=""75%""></img></td>
  </tr>
</table>
  ",87.0,1.0,,,,,,,,,,,,,,,,,,,,,,,,,,
174,0,,html-keyboard-response,174,371974,0.0-7.5-1.5,km5i6f7akr8,2022-09-19 17:33:34.268,62964d27c2b2866faa677493,2,100,77,34,34,33,Male,470.6000000238,,"
  <table>
  <tr height=300>
    <td width=300 height=300><img src=""static/images/cards/back_of_red_moons.svg"" width=""175px"" height=""250px""></img></td>
    <td width=300 height=300><img src=""static/images/cards/back_of_red_moons.svg"" width=""175px"" height=""250px""></img></td>
  </tr>
  <tr height=200>
    <td width=300></td>
    <td width=300><img src=""static/images/keys/m.svg"" width=""35%"" height=""75%""></img></td>
  </tr>
</table>
  ",77.0,1.0,,,,,,,,,,,,,,,,,,,,,,,,,,
175,0,,html-keyboard-response,175,373486,0.0-7.5-2.5,km5i6f7akr8,2022-09-19 17:33:34.268,62964d27c2b2866faa677493,2,100,77,34,34,33,Male,,,"
  <table>
  <tr height=300>
    <td width=300 height=300><img src=""static/images/cards/back_of_red_moons.svg"" width=""175px"" height=""250px""></img></td>
    <td width=300 height=300><img src=""static/images/cards/2_of_red_moons.svg"" width=""175px"" height=""250px""></img></td>
  </tr>
  <tr height=200>
    <td width=300></td>
    <td width=300><img src=""static/images/keys/m.svg"" width=""35%"" height=""75%""></img></td>
  </tr>
</table>
  ",,,,,,,,,,,,,,,,,,,,,,,,,,,,
176,0,,html-keyboard-response,176,375006,0.0-7.5-3.5,km5i6f7akr8,2022-09-19 17:33:34.268,62964d27c2b2866faa677493,2,100,77,34,34,33,Male,,,"<p style=""font-size:50px"">You Lose!
No points this round.</p>",,,,,,,,,,,,,,,,,,,,,,,,,,,,
177,0,,html-keyboard-response,177,375522,0.0-7.5-4.5,km5i6f7akr8,2022-09-19 17:33:34.268,62964d27c2b2866faa677493,2,100,77,34,34,33,Male,,,,,,1.0,choice,5.0,B,D,red,red,moons,stars,D,B,D,red,moons,1015.6999999881,0.0,0.0,0,right,470.6000000238,2.0,0.0,0.0,,,
178,0,,html-keyboard-response,178,377204,0.0-7.6-0.6,km5i6f7akr8,2022-09-19 17:33:34.268,62964d27c2b2866faa677493,2,100,77,34,34,33,Male,1680.6000000238,,"
  <table>
  <tr height=300>
    <td width=300 height=300><img src=""static/images/cards/stack_of_black_stars.svg"" width=""175px"" height=""250px""></img></td>
    <td width=300 height=300><img src=""static/images/cards/stack_of_black_moons.svg"" width=""175px"" height=""250px""></img></td>
  </tr>
  <tr height=200>
    <td width=300><img src=""static/images/keys/w.svg"" width=""35%"" height=""75%""></img></td>
    <td width=300><img src=""static/images/keys/o.svg"" width=""35%"" height=""75%""></img></td>
  </tr>
</table>
  ",79.0,1.0,,,,,,,,,,,,,,,,,,,,,,,,,,
179,0,,html-keyboard-response,179,378090,0.0-7.6-1.6,km5i6f7akr8,2022-09-19 17:33:34.268,62964d27c2b2866faa677493,2,100,77,34,34,33,Male,380.1000000238,,"
  <table>
  <tr height=300>
    <td width=300 height=300><img src=""static/images/cards/back_of_black_moons.svg"" width=""175px"" height=""250px""></img></td>
    <td width=300 height=300><img src=""static/images/cards/back_of_black_moons.svg"" width=""175px"" height=""250px""></img></td>
  </tr>
  <tr height=200>
    <td width=300><img src=""static/images/keys/z.svg"" width=""35%"" height=""75%""></img></td>
    <td width=300><img src=""static/images/keys/m.svg"" width=""35%"" height=""75%""></img></td>
  </tr>
</table>
  ",77.0,1.0,,,,,,,,,,,,,,,,,,,,,,,,,,
180,0,,html-keyboard-response,180,379596,0.0-7.6-2.6,km5i6f7akr8,2022-09-19 17:33:34.268,62964d27c2b2866faa677493,2,100,77,34,34,33,Male,,,"
  <table>
  <tr height=300>
    <td width=300 height=300><img src=""static/images/cards/back_of_black_moons.svg"" width=""175px"" height=""250px""></img></td>
    <td width=300 height=300><img src=""static/images/cards/10_of_black_moons.svg"" width=""175px"" height=""250px""></img></td>
  </tr>
  <tr height=200>
    <td width=300><img src=""static/images/keys/z.svg"" width=""35%"" height=""75%""></img></td>
    <td width=300><img src=""static/images/keys/m.svg"" width=""35%"" height=""75%""></img></td>
  </tr>
</table>
  ",,,,,,,,,,,,,,,,,,,,,,,,,,,,
181,0,,html-keyboard-response,181,381116,0.0-7.6-3.6,km5i6f7akr8,2022-09-19 17:33:34.268,62964d27c2b2866faa677493,2,100,77,34,34,33,Male,,,"<p style=""font-size:50px"">You win!
+10 points this round!</p>",,,,,,,,,,,,,,,,,,,,,,,,,,,,
182,0,,html-keyboard-response,182,381633,0.0-7.6-4.6,km5i6f7akr8,2022-09-19 17:33:34.268,62964d27c2b2866faa677493,2,100,77,34,34,33,Male,,,,,,1.0,choice,6.0,A,C,black,black,stars,moons,A,C,C,black,moons,1680.6000000238,1.0,0.0,NA,right,380.1000000238,10.0,1.0,1.0,,,
183,0,,html-keyboard-response,183,382623,0.0-7.7-0.7,km5i6f7akr8,2022-09-19 17:33:34.268,62964d27c2b2866faa677493,2,100,77,34,34,33,Male,989.3000000119,,"
  <table>
  <tr height=300>
    <td width=300 height=300><img src=""static/images/cards/stack_of_black_bolts.svg"" width=""175px"" height=""250px""></img></td>
    <td width=300 height=300><img src=""static/images/cards/stack_of_black_moons.svg"" width=""175px"" height=""250px""></img></td>
  </tr>
  <tr height=200>
    <td width=300><img src=""static/images/keys/w.svg"" width=""35%"" height=""75%""></img></td>
    <td width=300><img src=""static/images/keys/o.svg"" width=""35%"" height=""75%""></img></td>
  </tr>
</table>
  ",87.0,1.0,,,,,,,,,,,,,,,,,,,,,,,,,,
184,0,,html-keyboard-response,184,383382,0.0-7.7-1.7,km5i6f7akr8,2022-09-19 17:33:34.268,62964d27c2b2866faa677493,2,100,77,34,34,33,Male,250.0,,"
  <table>
  <tr height=300>
    <td width=300 height=300><img src=""static/images/cards/back_of_black_bolts.svg"" width=""175px"" height=""250px""></img></td>
    <td width=300 height=300><img src=""static/images/cards/back_of_black_bolts.svg"" width=""175px"" height=""250px""></img></td>
  </tr>
  <tr height=200>
    <td width=300></td>
    <td width=300><img src=""static/images/keys/m.svg"" width=""35%"" height=""75%""></img></td>
  </tr>
</table>
  ",77.0,1.0,,,,,,,,,,,,,,,,,,,,,,,,,,
185,0,,html-keyboard-response,185,384891,0.0-7.7-2.7,km5i6f7akr8,2022-09-19 17:33:34.268,62964d27c2b2866faa677493,2,100,77,34,34,33,Male,,,"
  <table>
  <tr height=300>
    <td width=300 height=300><img src=""static/images/cards/back_of_black_bolts.svg"" width=""175px"" height=""250px""></img></td>
    <td width=300 height=300><img src=""static/images/cards/2_of_black_bolts.svg"" width=""175px"" height=""250px""></img></td>
  </tr>
  <tr height=200>
    <td width=300></td>
    <td width=300><img src=""static/images/keys/m.svg"" width=""35%"" height=""75%""></img></td>
  </tr>
</table>
  ",,,,,,,,,,,,,,,,,,,,,,,,,,,,
186,0,,html-keyboard-response,186,386410,0.0-7.7-3.7,km5i6f7akr8,2022-09-19 17:33:34.268,62964d27c2b2866faa677493,2,100,77,34,34,33,Male,,,"<p style=""font-size:50px"">You win!
+10 points this round!</p>",,,,,,,,,,,,,,,,,,,,,,,,,,,,
187,0,,html-keyboard-response,187,386927,0.0-7.7-4.7,km5i6f7akr8,2022-09-19 17:33:34.268,62964d27c2b2866faa677493,2,100,77,34,34,33,Male,,,,,,1.0,choice,7.0,C,Xnc,black,black,bolts,moons,Xnc,C,Xnc,black,bolts,989.3000000119,0.0,0.0,0,right,250.0,2.0,0.0,1.0,,,
188,0,,html-keyboard-response,188,388152,0.0-7.8-0.8,km5i6f7akr8,2022-09-19 17:33:34.268,62964d27c2b2866faa677493,2,100,77,34,34,33,Male,1224.1000000238,,"
  <table>
  <tr height=300>
    <td width=300 height=300><img src=""static/images/cards/stack_of_red_moons.svg"" width=""175px"" height=""250px""></img></td>
    <td width=300 height=300><img src=""static/images/cards/stack_of_red_stars.svg"" width=""175px"" height=""250px""></img></td>
  </tr>
  <tr height=200>
    <td width=300><img src=""static/images/keys/w.svg"" width=""35%"" height=""75%""></img></td>
    <td width=300><img src=""static/images/keys/o.svg"" width=""35%"" height=""75%""></img></td>
  </tr>
</table>
  ",79.0,1.0,,,,,,,,,,,,,,,,,,,,,,,,,,
189,0,,html-keyboard-response,189,389911,0.0-7.8-1.8,km5i6f7akr8,2022-09-19 17:33:34.268,62964d27c2b2866faa677493,2,100,77,34,34,33,Male,1244.6999999881,,"
  <table>
  <tr height=300>
    <td width=300 height=300><img src=""static/images/cards/back_of_red_stars.svg"" width=""175px"" height=""250px""></img></td>
    <td width=300 height=300><img src=""static/images/cards/back_of_red_stars.svg"" width=""175px"" height=""250px""></img></td>
  </tr>
  <tr height=200>
    <td width=300><img src=""static/images/keys/z.svg"" width=""35%"" height=""75%""></img></td>
    <td width=300></td>
  </tr>
</table>
  ",90.0,3.0,,,,,,,,,,,,,,,,,,,,,,,,,,
190,0,,html-keyboard-response,190,391417,0.0-7.8-2.8,km5i6f7akr8,2022-09-19 17:33:34.268,62964d27c2b2866faa677493,2,100,77,34,34,33,Male,,,"
  <table>
  <tr height=300>
    <td width=300 height=300><img src=""static/images/cards/1_of_red_stars.svg"" width=""175px"" height=""250px""></img></td>
    <td width=300 height=300><img src=""static/images/cards/back_of_red_stars.svg"" width=""175px"" height=""250px""></img></td>
  </tr>
  <tr height=200>
    <td width=300><img src=""static/images/keys/z.svg"" width=""35%"" height=""75%""></img></td>
    <td width=300></td>
  </tr>
</table>
  ",,,,,,,,,,,,,,,,,,,,,,,,,,,,
191,0,,html-keyboard-response,191,392936,0.0-7.8-3.8,km5i6f7akr8,2022-09-19 17:33:34.268,62964d27c2b2866faa677493,2,100,77,34,34,33,Male,,,"<p style=""font-size:50px"">You Lose!
No points this round.</p>",,,,,,,,,,,,,,,,,,,,,,,,,,,,
192,0,,html-keyboard-response,192,393454,0.0-7.8-4.8,km5i6f7akr8,2022-09-19 17:33:34.268,62964d27c2b2866faa677493,2,100,77,34,34,33,Male,,,,,,1.0,choice,8.0,B,D,red,red,moons,stars,D,B,B,red,stars,1224.1000000238,0.0,1.0,1,left,1244.6999999881,1.0,0.0,0.0,,,
193,0,,html-keyboard-response,193,395216,0.0-7.9-0.9,km5i6f7akr8,2022-09-19 17:33:34.268,62964d27c2b2866faa677493,2,100,77,34,34,33,Male,1760.6999999881,,"
  <table>
  <tr height=300>
    <td width=300 height=300><img src=""static/images/cards/stack_of_black_moons.svg"" width=""175px"" height=""250px""></img></td>
    <td width=300 height=300><img src=""static/images/cards/stack_of_black_stars.svg"" width=""175px"" height=""250px""></img></td>
  </tr>
  <tr height=200>
    <td width=300><img src=""static/images/keys/w.svg"" width=""35%"" height=""75%""></img></td>
    <td width=300><img src=""static/images/keys/o.svg"" width=""35%"" height=""75%""></img></td>
  </tr>
</table>
  ",79.0,1.0,,,,,,,,,,,,,,,,,,,,,,,,,,
194,0,,html-keyboard-response,194,396308,0.0-7.9-1.9,km5i6f7akr8,2022-09-19 17:33:34.268,62964d27c2b2866faa677493,2,100,77,34,34,33,Male,587.0,,"
  <table>
  <tr height=300>
    <td width=300 height=300><img src=""static/images/cards/back_of_black_stars.svg"" width=""175px"" height=""250px""></img></td>
    <td width=300 height=300><img src=""static/images/cards/back_of_black_stars.svg"" width=""175px"" height=""250px""></img></td>
  </tr>
  <tr height=200>
    <td width=300><img src=""static/images/keys/z.svg"" width=""35%"" height=""75%""></img></td>
    <td width=300><img src=""static/images/keys/m.svg"" width=""35%"" height=""75%""></img></td>
  </tr>
</table>
  ",77.0,1.0,,,,,,,,,,,,,,,,,,,,,,,,,,
195,0,,html-keyboard-response,195,397816,0.0-7.9-2.9,km5i6f7akr8,2022-09-19 17:33:34.268,62964d27c2b2866faa677493,2,100,77,34,34,33,Male,,,"
  <table>
  <tr height=300>
    <td width=300 height=300><img src=""static/images/cards/back_of_black_stars.svg"" width=""175px"" height=""250px""></img></td>
    <td width=300 height=300><img src=""static/images/cards/8_of_black_stars.svg"" width=""175px"" height=""250px""></img></td>
  </tr>
  <tr height=200>
    <td width=300><img src=""static/images/keys/z.svg"" width=""35%"" height=""75%""></img></td>
    <td width=300><img src=""static/images/keys/m.svg"" width=""35%"" height=""75%""></img></td>
  </tr>
</table>
  ",,,,,,,,,,,,,,,,,,,,,,,,,,,,
196,0,,html-keyboard-response,196,399335,0.0-7.9-3.9,km5i6f7akr8,2022-09-19 17:33:34.268,62964d27c2b2866faa677493,2,100,77,34,34,33,Male,,,"<p style=""font-size:50px"">You win!
+10 points this round!</p>",,,,,,,,,,,,,,,,,,,,,,,,,,,,
197,0,,html-keyboard-response,197,399852,0.0-7.9-4.9,km5i6f7akr8,2022-09-19 17:33:34.268,62964d27c2b2866faa677493,2,100,77,34,34,33,Male,,,,,,1.0,choice,9.0,A,C,black,black,moons,stars,C,A,A,black,stars,1760.6999999881,1.0,1.0,NA,right,587.0,8.0,1.0,1.0,,,
198,0,,html-keyboard-response,198,401147,0.0-7.10-0.10,km5i6f7akr8,2022-09-19 17:33:34.268,62964d27c2b2866faa677493,2,100,77,34,34,33,Male,1294.1999999881,,"
  <table>
  <tr height=300>
    <td width=300 height=300><img src=""static/images/cards/stack_of_black_stars.svg"" width=""175px"" height=""250px""></img></td>
    <td width=300 height=300><img src=""static/images/cards/stack_of_red_stars.svg"" width=""175px"" height=""250px""></img></td>
  </tr>
  <tr height=200>
    <td width=300><img src=""static/images/keys/w.svg"" width=""35%"" height=""75%""></img></td>
    <td width=300><img src=""static/images/keys/o.svg"" width=""35%"" height=""75%""></img></td>
  </tr>
</table>
  ",79.0,1.0,,,,,,,,,,,,,,,,,,,,,,,,,,
199,0,,html-keyboard-response,199,402064,0.0-7.10-1.10,km5i6f7akr8,2022-09-19 17:33:34.268,62964d27c2b2866faa677493,2,100,77,34,34,33,Male,408.8999999762,,"
  <table>
  <tr height=300>
    <td width=300 height=300><img src=""static/images/cards/back_of_red_stars.svg"" width=""175px"" height=""250px""></img></td>
    <td width=300 height=300><img src=""static/images/cards/back_of_red_stars.svg"" width=""175px"" height=""250px""></img></td>
  </tr>
  <tr height=200>
    <td width=300><img src=""static/images/keys/z.svg"" width=""35%"" height=""75%""></img></td>
    <td width=300></td>
  </tr>
</table>
  ",90.0,1.0,,,,,,,,,,,,,,,,,,,,,,,,,,
200,0,,html-keyboard-response,200,403574,0.0-7.10-2.10,km5i6f7akr8,2022-09-19 17:33:34.268,62964d27c2b2866faa677493,2,100,77,34,34,33,Male,,,"
  <table>
  <tr height=300>
    <td width=300 height=300><img src=""static/images/cards/2_of_red_stars.svg"" width=""175px"" height=""250px""></img></td>
    <td width=300 height=300><img src=""static/images/cards/back_of_red_stars.svg"" width=""175px"" height=""250px""></img></td>
  </tr>
  <tr height=200>
    <td width=300><img src=""static/images/keys/z.svg"" width=""35%"" height=""75%""></img></td>
    <td width=300></td>
  </tr>
</table>
  ",,,,,,,,,,,,,,,,,,,,,,,,,,,,
201,0,,html-keyboard-response,201,405093,0.0-7.10-3.10,km5i6f7akr8,2022-09-19 17:33:34.268,62964d27c2b2866faa677493,2,100,77,34,34,33,Male,,,"<p style=""font-size:50px"">You Lose!
No points this round.</p>",,,,,,,,,,,,,,,,,,,,,,,,,,,,
202,0,,html-keyboard-response,202,405610,0.0-7.10-4.10,km5i6f7akr8,2022-09-19 17:33:34.268,62964d27c2b2866faa677493,2,100,77,34,34,33,Male,,,,,,1.0,choice,10.0,A,B,black,red,stars,stars,A,B,B,red,stars,1294.1999999881,0.0,1.0,1,left,408.8999999762,2.0,0.0,0.0,,,
203,0,,html-keyboard-response,203,406738,0.0-7.11-0.11,km5i6f7akr8,2022-09-19 17:33:34.268,62964d27c2b2866faa677493,2,100,77,34,34,33,Male,1127.1000000238,,"
  <table>
  <tr height=300>
    <td width=300 height=300><img src=""static/images/cards/stack_of_red_stars.svg"" width=""175px"" height=""250px""></img></td>
    <td width=300 height=300><img src=""static/images/cards/stack_of_black_moons.svg"" width=""175px"" height=""250px""></img></td>
  </tr>
  <tr height=200>
    <td width=300><img src=""static/images/keys/w.svg"" width=""35%"" height=""75%""></img></td>
    <td width=300><img src=""static/images/keys/o.svg"" width=""35%"" height=""75%""></img></td>
  </tr>
</table>
  ",79.0,1.0,,,,,,,,,,,,,,,,,,,,,,,,,,
204,0,,html-keyboard-response,204,407722,0.0-7.11-1.11,km5i6f7akr8,2022-09-19 17:33:34.268,62964d27c2b2866faa677493,2,100,77,34,34,33,Male,468.5,,"
  <table>
  <tr height=300>
    <td width=300 height=300><img src=""static/images/cards/back_of_black_moons.svg"" width=""175px"" height=""250px""></img></td>
    <td width=300 height=300><img src=""static/images/cards/back_of_black_moons.svg"" width=""175px"" height=""250px""></img></td>
  </tr>
  <tr height=200>
    <td width=300><img src=""static/images/keys/z.svg"" width=""35%"" height=""75%""></img></td>
    <td width=300><img src=""static/images/keys/m.svg"" width=""35%"" height=""75%""></img></td>
  </tr>
</table>
  ",77.0,1.0,,,,,,,,,,,,,,,,,,,,,,,,,,
205,0,,html-keyboard-response,205,409236,0.0-7.11-2.11,km5i6f7akr8,2022-09-19 17:33:34.268,62964d27c2b2866faa677493,2,100,77,34,34,33,Male,,,"
  <table>
  <tr height=300>
    <td width=300 height=300><img src=""static/images/cards/back_of_black_moons.svg"" width=""175px"" height=""250px""></img></td>
    <td width=300 height=300><img src=""static/images/cards/4_of_black_moons.svg"" width=""175px"" height=""250px""></img></td>
  </tr>
  <tr height=200>
    <td width=300><img src=""static/images/keys/z.svg"" width=""35%"" height=""75%""></img></td>
    <td width=300><img src=""static/images/keys/m.svg"" width=""35%"" height=""75%""></img></td>
  </tr>
</table>
  ",,,,,,,,,,,,,,,,,,,,,,,,,,,,
206,0,,html-keyboard-response,206,410756,0.0-7.11-3.11,km5i6f7akr8,2022-09-19 17:33:34.268,62964d27c2b2866faa677493,2,100,77,34,34,33,Male,,,"<p style=""font-size:50px"">You Lose!
No points this round.</p>",,,,,,,,,,,,,,,,,,,,,,,,,,,,
207,0,,html-keyboard-response,207,411274,0.0-7.11-4.11,km5i6f7akr8,2022-09-19 17:33:34.268,62964d27c2b2866faa677493,2,100,77,34,34,33,Male,,,,,,1.0,choice,11.0,B,C,red,black,stars,moons,B,C,C,black,moons,1127.1000000238,1.0,0.0,NA,right,468.5,4.0,0.0,0.0,,,
208,0,,html-keyboard-response,208,412382,0.0-7.12-0.12,km5i6f7akr8,2022-09-19 17:33:34.268,62964d27c2b2866faa677493,2,100,77,34,34,33,Male,1106.5,,"
  <table>
  <tr height=300>
    <td width=300 height=300><img src=""static/images/cards/stack_of_red_stars.svg"" width=""175px"" height=""250px""></img></td>
    <td width=300 height=300><img src=""static/images/cards/stack_of_red_moons.svg"" width=""175px"" height=""250px""></img></td>
  </tr>
  <tr height=200>
    <td width=300><img src=""static/images/keys/w.svg"" width=""35%"" height=""75%""></img></td>
    <td width=300><img src=""static/images/keys/o.svg"" width=""35%"" height=""75%""></img></td>
  </tr>
</table>
  ",79.0,1.0,,,,,,,,,,,,,,,,,,,,,,,,,,
209,0,,html-keyboard-response,209,413273,0.0-7.12-1.12,km5i6f7akr8,2022-09-19 17:33:34.268,62964d27c2b2866faa677493,2,100,77,34,34,33,Male,387.3000000119,,"
  <table>
  <tr height=300>
    <td width=300 height=300><img src=""static/images/cards/back_of_red_moons.svg"" width=""175px"" height=""250px""></img></td>
    <td width=300 height=300><img src=""static/images/cards/back_of_red_moons.svg"" width=""175px"" height=""250px""></img></td>
  </tr>
  <tr height=200>
    <td width=300></td>
    <td width=300><img src=""static/images/keys/m.svg"" width=""35%"" height=""75%""></img></td>
  </tr>
</table>
  ",77.0,1.0,,,,,,,,,,,,,,,,,,,,,,,,,,
210,0,,html-keyboard-response,210,414789,0.0-7.12-2.12,km5i6f7akr8,2022-09-19 17:33:34.268,62964d27c2b2866faa677493,2,100,77,34,34,33,Male,,,"
  <table>
  <tr height=300>
    <td width=300 height=300><img src=""static/images/cards/back_of_red_moons.svg"" width=""175px"" height=""250px""></img></td>
    <td width=300 height=300><img src=""static/images/cards/6_of_red_moons.svg"" width=""175px"" height=""250px""></img></td>
  </tr>
  <tr height=200>
    <td width=300></td>
    <td width=300><img src=""static/images/keys/m.svg"" width=""35%"" height=""75%""></img></td>
  </tr>
</table>
  ",,,,,,,,,,,,,,,,,,,,,,,,,,,,
211,0,,html-keyboard-response,211,416308,0.0-7.12-3.12,km5i6f7akr8,2022-09-19 17:33:34.268,62964d27c2b2866faa677493,2,100,77,34,34,33,Male,,,"<p style=""font-size:50px"">You Lose!
No points this round.</p>",,,,,,,,,,,,,,,,,,,,,,,,,,,,
212,0,,html-keyboard-response,212,416824,0.0-7.12-4.12,km5i6f7akr8,2022-09-19 17:33:34.268,62964d27c2b2866faa677493,2,100,77,34,34,33,Male,,,,,,1.0,choice,12.0,B,D,red,red,stars,moons,B,D,D,red,moons,1106.5,0.0,0.0,0,right,387.3000000119,6.0,1.0,0.0,,,
213,0,,html-keyboard-response,213,418567,0.0-7.13-0.13,km5i6f7akr8,2022-09-19 17:33:34.268,62964d27c2b2866faa677493,2,100,77,34,34,33,Male,1742.6000000238,,"
  <table>
  <tr height=300>
    <td width=300 height=300><img src=""static/images/cards/stack_of_black_moons.svg"" width=""175px"" height=""250px""></img></td>
    <td width=300 height=300><img src=""static/images/cards/stack_of_red_stars.svg"" width=""175px"" height=""250px""></img></td>
  </tr>
  <tr height=200>
    <td width=300><img src=""static/images/keys/w.svg"" width=""35%"" height=""75%""></img></td>
    <td width=300><img src=""static/images/keys/o.svg"" width=""35%"" height=""75%""></img></td>
  </tr>
</table>
  ",87.0,1.0,,,,,,,,,,,,,,,,,,,,,,,,,,
214,0,,html-keyboard-response,214,419397,0.0-7.13-1.13,km5i6f7akr8,2022-09-19 17:33:34.268,62964d27c2b2866faa677493,2,100,77,34,34,33,Male,323.6999999881,,"
  <table>
  <tr height=300>
    <td width=300 height=300><img src=""static/images/cards/back_of_black_moons.svg"" width=""175px"" height=""250px""></img></td>
    <td width=300 height=300><img src=""static/images/cards/back_of_black_moons.svg"" width=""175px"" height=""250px""></img></td>
  </tr>
  <tr height=200>
    <td width=300><img src=""static/images/keys/z.svg"" width=""35%"" height=""75%""></img></td>
    <td width=300><img src=""static/images/keys/m.svg"" width=""35%"" height=""75%""></img></td>
  </tr>
</table>
  ",77.0,1.0,,,,,,,,,,,,,,,,,,,,,,,,,,
215,0,,html-keyboard-response,215,420913,0.0-7.13-2.13,km5i6f7akr8,2022-09-19 17:33:34.268,62964d27c2b2866faa677493,2,100,77,34,34,33,Male,,,"
  <table>
  <tr height=300>
    <td width=300 height=300><img src=""static/images/cards/back_of_black_moons.svg"" width=""175px"" height=""250px""></img></td>
    <td width=300 height=300><img src=""static/images/cards/6_of_black_moons.svg"" width=""175px"" height=""250px""></img></td>
  </tr>
  <tr height=200>
    <td width=300><img src=""static/images/keys/z.svg"" width=""35%"" height=""75%""></img></td>
    <td width=300><img src=""static/images/keys/m.svg"" width=""35%"" height=""75%""></img></td>
  </tr>
</table>
  ",,,,,,,,,,,,,,,,,,,,,,,,,,,,
216,0,,html-keyboard-response,216,422431,0.0-7.13-3.13,km5i6f7akr8,2022-09-19 17:33:34.268,62964d27c2b2866faa677493,2,100,77,34,34,33,Male,,,"<p style=""font-size:50px"">You win!
+10 points this round!</p>",,,,,,,,,,,,,,,,,,,,,,,,,,,,
217,0,,html-keyboard-response,217,422948,0.0-7.13-4.13,km5i6f7akr8,2022-09-19 17:33:34.268,62964d27c2b2866faa677493,2,100,77,34,34,33,Male,,,,,,1.0,choice,13.0,B,C,black,red,moons,stars,C,B,C,black,moons,1742.6000000238,1.0,0.0,NA,right,323.6999999881,6.0,1.0,1.0,,,
218,0,,html-keyboard-response,218,423846,0.0-7.14-0.14,km5i6f7akr8,2022-09-19 17:33:34.268,62964d27c2b2866faa677493,2,100,77,34,34,33,Male,897.0,,"
  <table>
  <tr height=300>
    <td width=300 height=300><img src=""static/images/cards/stack_of_black_stars.svg"" width=""175px"" height=""250px""></img></td>
    <td width=300 height=300><img src=""static/images/cards/stack_of_red_stars.svg"" width=""175px"" height=""250px""></img></td>
  </tr>
  <tr height=200>
    <td width=300><img src=""static/images/keys/w.svg"" width=""35%"" height=""75%""></img></td>
    <td width=300><img src=""static/images/keys/o.svg"" width=""35%"" height=""75%""></img></td>
  </tr>
</table>
  ",79.0,1.0,,,,,,,,,,,,,,,,,,,,,,,,,,
219,0,,html-keyboard-response,219,424737,0.0-7.14-1.14,km5i6f7akr8,2022-09-19 17:33:34.268,62964d27c2b2866faa677493,2,100,77,34,34,33,Male,384.6999999881,,"
  <table>
  <tr height=300>
    <td width=300 height=300><img src=""static/images/cards/back_of_red_stars.svg"" width=""175px"" height=""250px""></img></td>
    <td width=300 height=300><img src=""static/images/cards/back_of_red_stars.svg"" width=""175px"" height=""250px""></img></td>
  </tr>
  <tr height=200>
    <td width=300></td>
    <td width=300><img src=""static/images/keys/m.svg"" width=""35%"" height=""75%""></img></td>
  </tr>
</table>
  ",77.0,1.0,,,,,,,,,,,,,,,,,,,,,,,,,,
220,0,,html-keyboard-response,220,426238,0.0-7.14-2.14,km5i6f7akr8,2022-09-19 17:33:34.268,62964d27c2b2866faa677493,2,100,77,34,34,33,Male,,,"
  <table>
  <tr height=300>
    <td width=300 height=300><img src=""static/images/cards/back_of_red_stars.svg"" width=""175px"" height=""250px""></img></td>
    <td width=300 height=300><img src=""static/images/cards/4_of_red_stars.svg"" width=""175px"" height=""250px""></img></td>
  </tr>
  <tr height=200>
    <td width=300></td>
    <td width=300><img src=""static/images/keys/m.svg"" width=""35%"" height=""75%""></img></td>
  </tr>
</table>
  ",,,,,,,,,,,,,,,,,,,,,,,,,,,,
221,0,,html-keyboard-response,221,427759,0.0-7.14-3.14,km5i6f7akr8,2022-09-19 17:33:34.268,62964d27c2b2866faa677493,2,100,77,34,34,33,Male,,,"<p style=""font-size:50px"">You Lose!
No points this round.</p>",,,,,,,,,,,,,,,,,,,,,,,,,,,,
222,0,,html-keyboard-response,222,428276,0.0-7.14-4.14,km5i6f7akr8,2022-09-19 17:33:34.268,62964d27c2b2866faa677493,2,100,77,34,34,33,Male,,,,,,1.0,choice,14.0,A,B,black,red,stars,stars,A,B,B,red,stars,897.0,0.0,1.0,0,right,384.6999999881,4.0,0.0,0.0,,,
223,0,,html-keyboard-response,223,429848,0.0-7.15-0.15,km5i6f7akr8,2022-09-19 17:33:34.268,62964d27c2b2866faa677493,2,100,77,34,34,33,Male,1571.8999999762,,"
  <table>
  <tr height=300>
    <td width=300 height=300><img src=""static/images/cards/stack_of_red_stars.svg"" width=""175px"" height=""250px""></img></td>
    <td width=300 height=300><img src=""static/images/cards/stack_of_red_bolts.svg"" width=""175px"" height=""250px""></img></td>
  </tr>
  <tr height=200>
    <td width=300><img src=""static/images/keys/w.svg"" width=""35%"" height=""75%""></img></td>
    <td width=300><img src=""static/images/keys/o.svg"" width=""35%"" height=""75%""></img></td>
  </tr>
</table>
  ",79.0,1.0,,,,,,,,,,,,,,,,,,,,,,,,,,
224,0,,html-keyboard-response,224,430599,0.0-7.15-1.15,km5i6f7akr8,2022-09-19 17:33:34.268,62964d27c2b2866faa677493,2,100,77,34,34,33,Male,236.3000000119,,"
  <table>
  <tr height=300>
    <td width=300 height=300><img src=""static/images/cards/back_of_red_bolts.svg"" width=""175px"" height=""250px""></img></td>
    <td width=300 height=300><img src=""static/images/cards/back_of_red_bolts.svg"" width=""175px"" height=""250px""></img></td>
  </tr>
  <tr height=200>
    <td width=300><img src=""static/images/keys/z.svg"" width=""35%"" height=""75%""></img></td>
    <td width=300><img src=""static/images/keys/m.svg"" width=""35%"" height=""75%""></img></td>
  </tr>
</table>
  ",77.0,1.0,,,,,,,,,,,,,,,,,,,,,,,,,,
225,0,,html-keyboard-response,225,432107,0.0-7.15-2.15,km5i6f7akr8,2022-09-19 17:33:34.268,62964d27c2b2866faa677493,2,100,77,34,34,33,Male,,,"
  <table>
  <tr height=300>
    <td width=300 height=300><img src=""static/images/cards/back_of_red_bolts.svg"" width=""175px"" height=""250px""></img></td>
    <td width=300 height=300><img src=""static/images/cards/4_of_red_bolts.svg"" width=""175px"" height=""250px""></img></td>
  </tr>
  <tr height=200>
    <td width=300><img src=""static/images/keys/z.svg"" width=""35%"" height=""75%""></img></td>
    <td width=300><img src=""static/images/keys/m.svg"" width=""35%"" height=""75%""></img></td>
  </tr>
</table>
  ",,,,,,,,,,,,,,,,,,,,,,,,,,,,
226,0,,html-keyboard-response,226,433627,0.0-7.15-3.15,km5i6f7akr8,2022-09-19 17:33:34.268,62964d27c2b2866faa677493,2,100,77,34,34,33,Male,,,"<p style=""font-size:50px"">You win!
+10 points this round!</p>",,,,,,,,,,,,,,,,,,,,,,,,,,,,
227,0,,html-keyboard-response,227,434143,0.0-7.15-4.15,km5i6f7akr8,2022-09-19 17:33:34.268,62964d27c2b2866faa677493,2,100,77,34,34,33,Male,,,,,,1.0,choice,15.0,B,Xc,red,red,stars,bolts,B,Xc,Xc,red,bolts,1571.8999999762,1.0,0.0,NA,right,236.3000000119,4.0,0.0,1.0,,,
228,0,,html-keyboard-response,228,434985,0.0-7.16-0.16,km5i6f7akr8,2022-09-19 17:33:34.268,62964d27c2b2866faa677493,2,100,77,34,34,33,Male,841.3000000119,,"
  <table>
  <tr height=300>
    <td width=300 height=300><img src=""static/images/cards/stack_of_black_stars.svg"" width=""175px"" height=""250px""></img></td>
    <td width=300 height=300><img src=""static/images/cards/stack_of_red_stars.svg"" width=""175px"" height=""250px""></img></td>
  </tr>
  <tr height=200>
    <td width=300><img src=""static/images/keys/w.svg"" width=""35%"" height=""75%""></img></td>
    <td width=300><img src=""static/images/keys/o.svg"" width=""35%"" height=""75%""></img></td>
  </tr>
</table>
  ",79.0,1.0,,,,,,,,,,,,,,,,,,,,,,,,,,
229,0,,html-keyboard-response,229,436027,0.0-7.16-1.16,km5i6f7akr8,2022-09-19 17:33:34.268,62964d27c2b2866faa677493,2,100,77,34,34,33,Male,529.0999999642,,"
  <table>
  <tr height=300>
    <td width=300 height=300><img src=""static/images/cards/back_of_red_stars.svg"" width=""175px"" height=""250px""></img></td>
    <td width=300 height=300><img src=""static/images/cards/back_of_red_stars.svg"" width=""175px"" height=""250px""></img></td>
  </tr>
  <tr height=200>
    <td width=300></td>
    <td width=300><img src=""static/images/keys/m.svg"" width=""35%"" height=""75%""></img></td>
  </tr>
</table>
  ",77.0,1.0,,,,,,,,,,,,,,,,,,,,,,,,,,
230,0,,html-keyboard-response,230,437529,0.0-7.16-2.16,km5i6f7akr8,2022-09-19 17:33:34.268,62964d27c2b2866faa677493,2,100,77,34,34,33,Male,,,"
  <table>
  <tr height=300>
    <td width=300 height=300><img src=""static/images/cards/back_of_red_stars.svg"" width=""175px"" height=""250px""></img></td>
    <td width=300 height=300><img src=""static/images/cards/4_of_red_stars.svg"" width=""175px"" height=""250px""></img></td>
  </tr>
  <tr height=200>
    <td width=300></td>
    <td width=300><img src=""static/images/keys/m.svg"" width=""35%"" height=""75%""></img></td>
  </tr>
</table>
  ",,,,,,,,,,,,,,,,,,,,,,,,,,,,
231,0,,html-keyboard-response,231,439049,0.0-7.16-3.16,km5i6f7akr8,2022-09-19 17:33:34.268,62964d27c2b2866faa677493,2,100,77,34,34,33,Male,,,"<p style=""font-size:50px"">You Lose!
No points this round.</p>",,,,,,,,,,,,,,,,,,,,,,,,,,,,
232,0,,html-keyboard-response,232,439565,0.0-7.16-4.16,km5i6f7akr8,2022-09-19 17:33:34.268,62964d27c2b2866faa677493,2,100,77,34,34,33,Male,,,,,,1.0,choice,16.0,A,B,black,red,stars,stars,A,B,B,red,stars,841.3000000119,0.0,1.0,0,right,529.0999999642,4.0,0.0,0.0,,,
233,0,,html-keyboard-response,233,440974,0.0-7.17-0.17,km5i6f7akr8,2022-09-19 17:33:34.268,62964d27c2b2866faa677493,2,100,77,34,34,33,Male,1408.1999999881,,"
  <table>
  <tr height=300>
    <td width=300 height=300><img src=""static/images/cards/stack_of_red_stars.svg"" width=""175px"" height=""250px""></img></td>
    <td width=300 height=300><img src=""static/images/cards/stack_of_black_moons.svg"" width=""175px"" height=""250px""></img></td>
  </tr>
  <tr height=200>
    <td width=300><img src=""static/images/keys/w.svg"" width=""35%"" height=""75%""></img></td>
    <td width=300><img src=""static/images/keys/o.svg"" width=""35%"" height=""75%""></img></td>
  </tr>
</table>
  ",87.0,1.0,,,,,,,,,,,,,,,,,,,,,,,,,,
234,0,,html-keyboard-response,234,441819,0.0-7.17-1.17,km5i6f7akr8,2022-09-19 17:33:34.268,62964d27c2b2866faa677493,2,100,77,34,34,33,Male,337.6999999881,,"
  <table>
  <tr height=300>
    <td width=300 height=300><img src=""static/images/cards/back_of_red_stars.svg"" width=""175px"" height=""250px""></img></td>
    <td width=300 height=300><img src=""static/images/cards/back_of_red_stars.svg"" width=""175px"" height=""250px""></img></td>
  </tr>
  <tr height=200>
    <td width=300></td>
    <td width=300><img src=""static/images/keys/m.svg"" width=""35%"" height=""75%""></img></td>
  </tr>
</table>
  ",77.0,1.0,,,,,,,,,,,,,,,,,,,,,,,,,,
