,index,success,trial_type,trial_index,time_elapsed,internal_node_id,subject,date,prol_id,ctbl,sense_of_control_A,sense_of_control_B,sense_of_control_C,sense_of_control_D,age,gender,rt,url,stimulus,key_press,npress,is_data_trial,phase,trial,deck1,deck2,col1,col2,sym1,sym2,deck_l,deck_r,chosen_deck,chosen_col,chosen_sym,deck_rt,choose_choice,mutual_info,hidden_key,chosen_card,card_rt,player_num,win_card,outcome,mock_rating,response,responses
0,0,1.0,fullscreen,0,272370,0.0-0.0,7131svnkcug,2022-09-19 14:52:37.514,5d68c8aa40524c00189e8ac2,3,29,10,24,2,31,Male,,,,,,,,,,,,,,,,,,,,,,,,,,,,,,,
1,0,,external-html,1,275807,0.0-1.0,7131svnkcug,2022-09-19 14:52:37.514,5d68c8aa40524c00189e8ac2,3,29,10,24,2,31,Male,3106.5999999642,static/js/sub/consent.html,,,,,,,,,,,,,,,,,,,,,,,,,,,,,
2,0,,call-function,2,275808,0.0-2.0,7131svnkcug,2022-09-19 14:52:37.514,5d68c8aa40524c00189e8ac2,3,29,10,24,2,31,Male,,,,,,,,,,,,,,,,,,,,,,,,,,,,,,,
3,0,,image-keyboard-response,3,278870,0.0-3.0-0.0,7131svnkcug,2022-09-19 14:52:37.514,5d68c8aa40524c00189e8ac2,3,29,10,24,2,31,Male,3060.1999999881,,static/images/instructions_CB_3/Slide1.png,39.0,,,,,,,,,,,,,,,,,,,,,,,,,,,
4,0,,image-keyboard-response,4,284414,0.0-3.1-0.1,7131svnkcug,2022-09-19 14:52:37.514,5d68c8aa40524c00189e8ac2,3,29,10,24,2,31,Male,5542.5,,static/images/instructions_CB_3/Slide2.png,39.0,,,,,,,,,,,,,,,,,,,,,,,,,,,
5,0,,image-keyboard-response,5,285583,0.0-3.2-0.2,7131svnkcug,2022-09-19 14:52:37.514,5d68c8aa40524c00189e8ac2,3,29,10,24,2,31,Male,1166.3999999762,,static/images/instructions_CB_3/Slide3.png,39.0,,,,,,,,,,,,,,,,,,,,,,,,,,,
6,0,,image-keyboard-response,6,287071,0.0-3.3-0.3,7131svnkcug,2022-09-19 14:52:37.514,5d68c8aa40524c00189e8ac2,3,29,10,24,2,31,Male,1485.9000000358,,static/images/instructions_CB_3/Slide4.png,39.0,,,,,,,,,,,,,,,,,,,,,,,,,,,
7,0,,image-keyboard-response,7,287663,0.0-3.4-0.4,7131svnkcug,2022-09-19 14:52:37.514,5d68c8aa40524c00189e8ac2,3,29,10,24,2,31,Male,590.5,,static/images/instructions_CB_3/Slide5.png,37.0,,,,,,,,,,,,,,,,,,,,,,,,,,,
8,0,,image-keyboard-response,8,287918,0.0-3.5-0.5,7131svnkcug,2022-09-19 14:52:37.514,5d68c8aa40524c00189e8ac2,3,29,10,24,2,31,Male,252.8000000119,,static/images/instructions_CB_3/Slide4.png,37.0,,,,,,,,,,,,,,,,,,,,,,,,,,,
9,0,,image-keyboard-response,9,288391,0.0-3.6-0.6,7131svnkcug,2022-09-19 14:52:37.514,5d68c8aa40524c00189e8ac2,3,29,10,24,2,31,Male,470.2000000477,,static/images/instructions_CB_3/Slide3.png,39.0,,,,,,,,,,,,,,,,,,,,,,,,,,,
10,0,,image-keyboard-response,10,288709,0.0-3.7-0.7,7131svnkcug,2022-09-19 14:52:37.514,5d68c8aa40524c00189e8ac2,3,29,10,24,2,31,Male,316.7000000477,,static/images/instructions_CB_3/Slide4.png,39.0,,,,,,,,,,,,,,,,,,,,,,,,,,,
11,0,,image-keyboard-response,11,291055,0.0-3.8-0.8,7131svnkcug,2022-09-19 14:52:37.514,5d68c8aa40524c00189e8ac2,3,29,10,24,2,31,Male,2344.0,,static/images/instructions_CB_3/Slide5.png,39.0,,,,,,,,,,,,,,,,,,,,,,,,,,,
12,0,,image-keyboard-response,12,292214,0.0-3.9-0.9,7131svnkcug,2022-09-19 14:52:37.514,5d68c8aa40524c00189e8ac2,3,29,10,24,2,31,Male,1157.6999999881,,static/images/instructions_CB_3/Slide6.png,39.0,,,,,,,,,,,,,,,,,,,,,,,,,,,
13,0,,image-keyboard-response,13,293836,0.0-3.10-0.10,7131svnkcug,2022-09-19 14:52:37.514,5d68c8aa40524c00189e8ac2,3,29,10,24,2,31,Male,1618.5999999642,,static/images/instructions_CB_3/Slide7.png,39.0,,,,,,,,,,,,,,,,,,,,,,,,,,,
14,0,,image-keyboard-response,14,299999,0.0-3.11-0.11,7131svnkcug,2022-09-19 14:52:37.514,5d68c8aa40524c00189e8ac2,3,29,10,24,2,31,Male,6158.6999999881,,static/images/instructions_CB_3/Slide8.png,39.0,,,,,,,,,,,,,,,,,,,,,,,,,,,
15,0,,image-keyboard-response,15,302742,0.0-3.12-0.12,7131svnkcug,2022-09-19 14:52:37.514,5d68c8aa40524c00189e8ac2,3,29,10,24,2,31,Male,2740.8999999762,,static/images/instructions_CB_3/Slide9.png,39.0,,,,,,,,,,,,,,,,,,,,,,,,,,,
16,0,,image-keyboard-response,16,307406,0.0-3.13-0.13,7131svnkcug,2022-09-19 14:52:37.514,5d68c8aa40524c00189e8ac2,3,29,10,24,2,31,Male,4661.5,,static/images/instructions_CB_3/Slide10.png,39.0,,,,,,,,,,,,,,,,,,,,,,,,,,,
17,0,,image-keyboard-response,17,308638,0.0-3.14-0.14,7131svnkcug,2022-09-19 14:52:37.514,5d68c8aa40524c00189e8ac2,3,29,10,24,2,31,Male,1230.5,,static/images/instructions_CB_3/Slide11.png,37.0,,,,,,,,,,,,,,,,,,,,,,,,,,,
18,0,,image-keyboard-response,18,310039,0.0-3.15-0.15,7131svnkcug,2022-09-19 14:52:37.514,5d68c8aa40524c00189e8ac2,3,29,10,24,2,31,Male,1398.8000000119,,static/images/instructions_CB_3/Slide10.png,39.0,,,,,,,,,,,,,,,,,,,,,,,,,,,
19,0,,image-keyboard-response,19,312246,0.0-3.16-0.16,7131svnkcug,2022-09-19 14:52:37.514,5d68c8aa40524c00189e8ac2,3,29,10,24,2,31,Male,2205.3999999762,,static/images/instructions_CB_3/Slide11.png,39.0,,,,,,,,,,,,,,,,,,,,,,,,,,,
20,0,,image-keyboard-response,20,318814,0.0-3.17-0.17,7131svnkcug,2022-09-19 14:52:37.514,5d68c8aa40524c00189e8ac2,3,29,10,24,2,31,Male,6566.7000000477,,static/images/instructions_CB_3/Slide12.png,39.0,,,,,,,,,,,,,,,,,,,,,,,,,,,
21,0,,image-keyboard-response,21,329543,0.0-3.18-0.18,7131svnkcug,2022-09-19 14:52:37.514,5d68c8aa40524c00189e8ac2,3,29,10,24,2,31,Male,10726.5999999642,,static/images/instructions_CB_3/Slide13.png,39.0,,,,,,,,,,,,,,,,,,,,,,,,,,,
22,0,,image-keyboard-response,22,334031,0.0-3.19-0.19,7131svnkcug,2022-09-19 14:52:37.514,5d68c8aa40524c00189e8ac2,3,29,10,24,2,31,Male,4485.1999999881,,static/images/instructions_CB_3/Slide14.png,39.0,,,,,,,,,,,,,,,,,,,,,,,,,,,
23,0,,image-keyboard-response,23,337310,0.0-3.20-0.20,7131svnkcug,2022-09-19 14:52:37.514,5d68c8aa40524c00189e8ac2,3,29,10,24,2,31,Male,3276.6999999881,,static/images/instructions_CB_3/Slide15.png,37.0,,,,,,,,,,,,,,,,,,,,,,,,,,,
24,0,,image-keyboard-response,24,337847,0.0-3.21-0.21,7131svnkcug,2022-09-19 14:52:37.514,5d68c8aa40524c00189e8ac2,3,29,10,24,2,31,Male,534.6000000238,,static/images/instructions_CB_3/Slide14.png,39.0,,,,,,,,,,,,,,,,,,,,,,,,,,,
25,0,,image-keyboard-response,25,338767,0.0-3.22-0.22,7131svnkcug,2022-09-19 14:52:37.514,5d68c8aa40524c00189e8ac2,3,29,10,24,2,31,Male,915.6999999881,,static/images/instructions_CB_3/Slide15.png,39.0,,,,,,,,,,,,,,,,,,,,,,,,,,,
26,0,,image-keyboard-response,26,338861,0.0-3.23-0.23,7131svnkcug,2022-09-19 14:52:37.514,5d68c8aa40524c00189e8ac2,3,29,10,24,2,31,Male,92.8000000119,,static/images/instructions_CB_3/Slide16.png,37.0,,,,,,,,,,,,,,,,,,,,,,,,,,,
27,0,,image-keyboard-response,27,339310,0.0-3.24-0.24,7131svnkcug,2022-09-19 14:52:37.514,5d68c8aa40524c00189e8ac2,3,29,10,24,2,31,Male,448.0,,static/images/instructions_CB_3/Slide15.png,39.0,,,,,,,,,,,,,,,,,,,,,,,,,,,
28,0,,image-keyboard-response,28,339655,0.0-3.25-0.25,7131svnkcug,2022-09-19 14:52:37.514,5d68c8aa40524c00189e8ac2,3,29,10,24,2,31,Male,342.6999999881,,static/images/instructions_CB_3/Slide16.png,37.0,,,,,,,,,,,,,,,,,,,,,,,,,,,
29,0,,image-keyboard-response,29,341206,0.0-3.26-0.26,7131svnkcug,2022-09-19 14:52:37.514,5d68c8aa40524c00189e8ac2,3,29,10,24,2,31,Male,1549.5,,static/images/instructions_CB_3/Slide15.png,39.0,,,,,,,,,,,,,,,,,,,,,,,,,,,
30,0,,image-keyboard-response,30,341487,0.0-3.27-0.27,7131svnkcug,2022-09-19 14:52:37.514,5d68c8aa40524c00189e8ac2,3,29,10,24,2,31,Male,278.6000000238,,static/images/instructions_CB_3/Slide16.png,37.0,,,,,,,,,,,,,,,,,,,,,,,,,,,
31,0,,image-keyboard-response,31,341749,0.0-3.28-0.28,7131svnkcug,2022-09-19 14:52:37.514,5d68c8aa40524c00189e8ac2,3,29,10,24,2,31,Male,260.8999999762,,static/images/instructions_CB_3/Slide15.png,37.0,,,,,,,,,,,,,,,,,,,,,,,,,,,
32,0,,image-keyboard-response,32,342998,0.0-3.29-0.29,7131svnkcug,2022-09-19 14:52:37.514,5d68c8aa40524c00189e8ac2,3,29,10,24,2,31,Male,1248.1999999881,,static/images/instructions_CB_3/Slide14.png,39.0,,,,,,,,,,,,,,,,,,,,,,,,,,,
33,0,,image-keyboard-response,33,343422,0.0-3.30-0.30,7131svnkcug,2022-09-19 14:52:37.514,5d68c8aa40524c00189e8ac2,3,29,10,24,2,31,Male,422.1999999881,,static/images/instructions_CB_3/Slide15.png,39.0,,,,,,,,,,,,,,,,,,,,,,,,,,,
34,0,,image-keyboard-response,34,346414,0.0-3.31-0.31,7131svnkcug,2022-09-19 14:52:37.514,5d68c8aa40524c00189e8ac2,3,29,10,24,2,31,Male,2990.2999999523,,static/images/instructions_CB_3/Slide16.png,39.0,,,,,,,,,,,,,,,,,,,,,,,,,,,
35,0,,image-keyboard-response,35,347885,0.0-3.32-0.32,7131svnkcug,2022-09-19 14:52:37.514,5d68c8aa40524c00189e8ac2,3,29,10,24,2,31,Male,1469.4000000358,,static/images/instructions_CB_3/Slide17.png,39.0,,,,,,,,,,,,,,,,,,,,,,,,,,,
36,0,,image-keyboard-response,36,356543,0.0-3.33-0.33,7131svnkcug,2022-09-19 14:52:37.514,5d68c8aa40524c00189e8ac2,3,29,10,24,2,31,Male,8654.7999999523,,static/images/instructions_CB_3/Slide18.png,39.0,,,,,,,,,,,,,,,,,,,,,,,,,,,
37,0,,image-keyboard-response,37,359526,0.0-3.34-0.34,7131svnkcug,2022-09-19 14:52:37.514,5d68c8aa40524c00189e8ac2,3,29,10,24,2,31,Male,2980.9000000358,,static/images/instructions_CB_3/Slide19.png,39.0,,,,,,,,,,,,,,,,,,,,,,,,,,,
38,0,,html-keyboard-response,38,361042,0.0-4.0-0.0,7131svnkcug,2022-09-19 14:52:37.514,5d68c8aa40524c00189e8ac2,3,29,10,24,2,31,Male,,,"<img src=""static/images/cards/stack_of_black_moons.svg"" width=""175px"" height=""250px""></img>",,,,,,,,,,,,,,,,,,,,,,,,,,,,
39,0,,html-keyboard-response,39,363487,0.0-4.0-1.0,7131svnkcug,2022-09-19 14:52:37.514,5d68c8aa40524c00189e8ac2,3,29,10,24,2,31,Male,1937.3000000119,,"
  <table>
  <tr height=300>
    <td width=300 height=300><img src=""static/images/cards/back_of_black_moons.svg"" width=""175px"" height=""250px""></img></td>
    <td width=300 height=300><img src=""static/images/cards/back_of_black_moons.svg"" width=""175px"" height=""250px""></img></td>
  </tr>
  <tr height=200>
    <td width=300><img src=""static/images/keys/z.svg"" width=""35%"" height=""75%""></img></td>
    <td width=300><img src=""static/images/keys/m.svg"" width=""35%"" height=""75%""></img></td>
  </tr>
</table>
  ",77.0,1.0,,,,,,,,,,,,,,,,,,,,,,,,,,
40,0,,html-keyboard-response,40,365003,0.0-4.0-2.0,7131svnkcug,2022-09-19 14:52:37.514,5d68c8aa40524c00189e8ac2,3,29,10,24,2,31,Male,,,"
  <table>
  <tr height=300>
    <td width=300 height=300><img src=""static/images/cards/back_of_black_moons.svg"" width=""175px"" height=""250px""></img></td>
    <td width=300 height=300><img src=""static/images/cards/6_of_black_moons.svg"" width=""175px"" height=""250px""></img></td>
  </tr>
  <tr height=200>
    <td width=300><img src=""static/images/keys/z.svg"" width=""35%"" height=""75%""></img></td>
    <td width=300><img src=""static/images/keys/m.svg"" width=""35%"" height=""75%""></img></td>
  </tr>
</table>
  ",,,,,,,,,,,,,,,,,,,,,,,,,,,,
41,0,,html-keyboard-response,41,366519,0.0-4.0-3.0,7131svnkcug,2022-09-19 14:52:37.514,5d68c8aa40524c00189e8ac2,3,29,10,24,2,31,Male,,,"<p style=""font-size:50px"">You win!
+10 points this round!</p>",,,,,,,,,,,,,,,,,,,,,,,,,,,,
42,0,,html-keyboard-response,42,367042,0.0-4.0-4.0,7131svnkcug,2022-09-19 14:52:37.514,5d68c8aa40524c00189e8ac2,3,29,10,24,2,31,Male,,,,,,1.0,learning,0.0,A,,black,,moons,,,,A,black,moons,,1.0,1.0,NA,right,1937.3000000119,6.0,1.0,1.0,,,
43,0,,html-keyboard-response,43,368551,0.0-4.1-0.1,7131svnkcug,2022-09-19 14:52:37.514,5d68c8aa40524c00189e8ac2,3,29,10,24,2,31,Male,,,"<img src=""static/images/cards/stack_of_red_moons.svg"" width=""175px"" height=""250px""></img>",,,,,,,,,,,,,,,,,,,,,,,,,,,,
44,0,,html-keyboard-response,44,369966,0.0-4.1-1.1,7131svnkcug,2022-09-19 14:52:37.514,5d68c8aa40524c00189e8ac2,3,29,10,24,2,31,Male,904.8999999762,,"
  <table>
  <tr height=300>
    <td width=300 height=300><img src=""static/images/cards/back_of_red_moons.svg"" width=""175px"" height=""250px""></img></td>
    <td width=300 height=300><img src=""static/images/cards/back_of_red_moons.svg"" width=""175px"" height=""250px""></img></td>
  </tr>
  <tr height=200>
    <td width=300><img src=""static/images/keys/z.svg"" width=""35%"" height=""75%""></img></td>
    <td width=300></td>
  </tr>
</table>
  ",90.0,1.0,,,,,,,,,,,,,,,,,,,,,,,,,,
45,0,,html-keyboard-response,45,371476,0.0-4.1-2.1,7131svnkcug,2022-09-19 14:52:37.514,5d68c8aa40524c00189e8ac2,3,29,10,24,2,31,Male,,,"
  <table>
  <tr height=300>
    <td width=300 height=300><img src=""static/images/cards/10_of_red_moons.svg"" width=""175px"" height=""250px""></img></td>
    <td width=300 height=300><img src=""static/images/cards/back_of_red_moons.svg"" width=""175px"" height=""250px""></img></td>
  </tr>
  <tr height=200>
    <td width=300><img src=""static/images/keys/z.svg"" width=""35%"" height=""75%""></img></td>
    <td width=300></td>
  </tr>
</table>
  ",,,,,,,,,,,,,,,,,,,,,,,,,,,,
46,0,,html-keyboard-response,46,372994,0.0-4.1-3.1,7131svnkcug,2022-09-19 14:52:37.514,5d68c8aa40524c00189e8ac2,3,29,10,24,2,31,Male,,,"<p style=""font-size:50px"">You win!
+10 points this round!</p>",,,,,,,,,,,,,,,,,,,,,,,,,,,,
47,0,,html-keyboard-response,47,373507,0.0-4.1-4.1,7131svnkcug,2022-09-19 14:52:37.514,5d68c8aa40524c00189e8ac2,3,29,10,24,2,31,Male,,,,,,1.0,learning,1.0,B,,red,,moons,,,,B,red,moons,,0.0,1.0,1,left,904.8999999762,10.0,1.0,1.0,,,
48,0,,html-keyboard-response,48,375017,0.0-4.2-0.2,7131svnkcug,2022-09-19 14:52:37.514,5d68c8aa40524c00189e8ac2,3,29,10,24,2,31,Male,,,"<img src=""static/images/cards/stack_of_black_stars.svg"" width=""175px"" height=""250px""></img>",,,,,,,,,,,,,,,,,,,,,,,,,,,,
49,0,,html-keyboard-response,49,376486,0.0-4.2-1.2,7131svnkcug,2022-09-19 14:52:37.514,5d68c8aa40524c00189e8ac2,3,29,10,24,2,31,Male,962.1000000238,,"
  <table>
  <tr height=300>
    <td width=300 height=300><img src=""static/images/cards/back_of_black_stars.svg"" width=""175px"" height=""250px""></img></td>
    <td width=300 height=300><img src=""static/images/cards/back_of_black_stars.svg"" width=""175px"" height=""250px""></img></td>
  </tr>
  <tr height=200>
    <td width=300><img src=""static/images/keys/z.svg"" width=""35%"" height=""75%""></img></td>
    <td width=300><img src=""static/images/keys/m.svg"" width=""35%"" height=""75%""></img></td>
  </tr>
</table>
  ",77.0,1.0,,,,,,,,,,,,,,,,,,,,,,,,,,
50,0,,html-keyboard-response,50,378004,0.0-4.2-2.2,7131svnkcug,2022-09-19 14:52:37.514,5d68c8aa40524c00189e8ac2,3,29,10,24,2,31,Male,,,"
  <table>
  <tr height=300>
    <td width=300 height=300><img src=""static/images/cards/back_of_black_stars.svg"" width=""175px"" height=""250px""></img></td>
    <td width=300 height=300><img src=""static/images/cards/8_of_black_stars.svg"" width=""175px"" height=""250px""></img></td>
  </tr>
  <tr height=200>
    <td width=300><img src=""static/images/keys/z.svg"" width=""35%"" height=""75%""></img></td>
    <td width=300><img src=""static/images/keys/m.svg"" width=""35%"" height=""75%""></img></td>
  </tr>
</table>
  ",,,,,,,,,,,,,,,,,,,,,,,,,,,,
51,0,,html-keyboard-response,51,379517,0.0-4.2-3.2,7131svnkcug,2022-09-19 14:52:37.514,5d68c8aa40524c00189e8ac2,3,29,10,24,2,31,Male,,,"<p style=""font-size:50px"">You win!
+10 points this round!</p>",,,,,,,,,,,,,,,,,,,,,,,,,,,,
52,0,,html-keyboard-response,52,380029,0.0-4.2-4.2,7131svnkcug,2022-09-19 14:52:37.514,5d68c8aa40524c00189e8ac2,3,29,10,24,2,31,Male,,,,,,1.0,learning,2.0,C,,black,,stars,,,,C,black,stars,,1.0,0.0,NA,right,962.1000000238,8.0,1.0,1.0,,,
53,0,,html-keyboard-response,53,381538,0.0-4.3-0.3,7131svnkcug,2022-09-19 14:52:37.514,5d68c8aa40524c00189e8ac2,3,29,10,24,2,31,Male,,,"<img src=""static/images/cards/stack_of_red_stars.svg"" width=""175px"" height=""250px""></img>",,,,,,,,,,,,,,,,,,,,,,,,,,,,
54,0,,html-keyboard-response,54,382743,0.0-4.3-1.3,7131svnkcug,2022-09-19 14:52:37.514,5d68c8aa40524c00189e8ac2,3,29,10,24,2,31,Male,696.6999999881,,"
  <table>
  <tr height=300>
    <td width=300 height=300><img src=""static/images/cards/back_of_red_stars.svg"" width=""175px"" height=""250px""></img></td>
    <td width=300 height=300><img src=""static/images/cards/back_of_red_stars.svg"" width=""175px"" height=""250px""></img></td>
  </tr>
  <tr height=200>
    <td width=300></td>
    <td width=300><img src=""static/images/keys/m.svg"" width=""35%"" height=""75%""></img></td>
  </tr>
</table>
  ",77.0,1.0,,,,,,,,,,,,,,,,,,,,,,,,,,
55,0,,html-keyboard-response,55,384255,0.0-4.3-2.3,7131svnkcug,2022-09-19 14:52:37.514,5d68c8aa40524c00189e8ac2,3,29,10,24,2,31,Male,,,"
  <table>
  <tr height=300>
    <td width=300 height=300><img src=""static/images/cards/back_of_red_stars.svg"" width=""175px"" height=""250px""></img></td>
    <td width=300 height=300><img src=""static/images/cards/2_of_red_stars.svg"" width=""175px"" height=""250px""></img></td>
  </tr>
  <tr height=200>
    <td width=300></td>
    <td width=300><img src=""static/images/keys/m.svg"" width=""35%"" height=""75%""></img></td>
  </tr>
</table>
  ",,,,,,,,,,,,,,,,,,,,,,,,,,,,
56,0,,html-keyboard-response,56,385765,0.0-4.3-3.3,7131svnkcug,2022-09-19 14:52:37.514,5d68c8aa40524c00189e8ac2,3,29,10,24,2,31,Male,,,"<p style=""font-size:50px"">You Lose!
No points this round.</p>",,,,,,,,,,,,,,,,,,,,,,,,,,,,
57,0,,html-keyboard-response,57,386277,0.0-4.3-4.3,7131svnkcug,2022-09-19 14:52:37.514,5d68c8aa40524c00189e8ac2,3,29,10,24,2,31,Male,,,,,,1.0,learning,3.0,D,,red,,stars,,,,D,red,stars,,0.0,0.0,0,right,696.6999999881,2.0,0.0,0.0,,,
58,0,,html-keyboard-response,58,387785,0.0-4.4-0.4,7131svnkcug,2022-09-19 14:52:37.514,5d68c8aa40524c00189e8ac2,3,29,10,24,2,31,Male,,,"<img src=""static/images/cards/stack_of_red_bolts.svg"" width=""175px"" height=""250px""></img>",,,,,,,,,,,,,,,,,,,,,,,,,,,,
59,0,,html-keyboard-response,59,388591,0.0-4.4-1.4,7131svnkcug,2022-09-19 14:52:37.514,5d68c8aa40524c00189e8ac2,3,29,10,24,2,31,Male,294.3000000119,,"
  <table>
  <tr height=300>
    <td width=300 height=300><img src=""static/images/cards/back_of_red_bolts.svg"" width=""175px"" height=""250px""></img></td>
    <td width=300 height=300><img src=""static/images/cards/back_of_red_bolts.svg"" width=""175px"" height=""250px""></img></td>
  </tr>
  <tr height=200>
    <td width=300><img src=""static/images/keys/z.svg"" width=""35%"" height=""75%""></img></td>
    <td width=300><img src=""static/images/keys/m.svg"" width=""35%"" height=""75%""></img></td>
  </tr>
</table>
  ",90.0,1.0,,,,,,,,,,,,,,,,,,,,,,,,,,
60,0,,html-keyboard-response,60,390104,0.0-4.4-2.4,7131svnkcug,2022-09-19 14:52:37.514,5d68c8aa40524c00189e8ac2,3,29,10,24,2,31,Male,,,"
  <table>
  <tr height=300>
    <td width=300 height=300><img src=""static/images/cards/6_of_red_bolts.svg"" width=""175px"" height=""250px""></img></td>
    <td width=300 height=300><img src=""static/images/cards/back_of_red_bolts.svg"" width=""175px"" height=""250px""></img></td>
  </tr>
  <tr height=200>
    <td width=300><img src=""static/images/keys/z.svg"" width=""35%"" height=""75%""></img></td>
    <td width=300><img src=""static/images/keys/m.svg"" width=""35%"" height=""75%""></img></td>
  </tr>
</table>
  ",,,,,,,,,,,,,,,,,,,,,,,,,,,,
61,0,,html-keyboard-response,61,391618,0.0-4.4-3.4,7131svnkcug,2022-09-19 14:52:37.514,5d68c8aa40524c00189e8ac2,3,29,10,24,2,31,Male,,,"<p style=""font-size:50px"">You win!
+10 points this round!</p>",,,,,,,,,,,,,,,,,,,,,,,,,,,,
62,0,,html-keyboard-response,62,392126,0.0-4.4-4.4,7131svnkcug,2022-09-19 14:52:37.514,5d68c8aa40524c00189e8ac2,3,29,10,24,2,31,Male,,,,,,1.0,learning,4.0,Xc,,red,,bolts,,,,Xc,red,bolts,,1.0,0.0,NA,left,294.3000000119,6.0,1.0,1.0,,,
63,0,,html-keyboard-response,63,393631,0.0-4.5-0.5,7131svnkcug,2022-09-19 14:52:37.514,5d68c8aa40524c00189e8ac2,3,29,10,24,2,31,Male,,,"<img src=""static/images/cards/stack_of_black_bolts.svg"" width=""175px"" height=""250px""></img>",,,,,,,,,,,,,,,,,,,,,,,,,,,,
64,0,,html-keyboard-response,64,394466,0.0-4.5-1.5,7131svnkcug,2022-09-19 14:52:37.514,5d68c8aa40524c00189e8ac2,3,29,10,24,2,31,Male,310.6000000238,,"
  <table>
  <tr height=300>
    <td width=300 height=300><img src=""static/images/cards/back_of_black_bolts.svg"" width=""175px"" height=""250px""></img></td>
    <td width=300 height=300><img src=""static/images/cards/back_of_black_bolts.svg"" width=""175px"" height=""250px""></img></td>
  </tr>
  <tr height=200>
    <td width=300><img src=""static/images/keys/z.svg"" width=""35%"" height=""75%""></img></td>
    <td width=300></td>
  </tr>
</table>
  ",90.0,1.0,,,,,,,,,,,,,,,,,,,,,,,,,,
65,0,,html-keyboard-response,65,395977,0.0-4.5-2.5,7131svnkcug,2022-09-19 14:52:37.514,5d68c8aa40524c00189e8ac2,3,29,10,24,2,31,Male,,,"
  <table>
  <tr height=300>
    <td width=300 height=300><img src=""static/images/cards/1_of_black_bolts.svg"" width=""175px"" height=""250px""></img></td>
    <td width=300 height=300><img src=""static/images/cards/back_of_black_bolts.svg"" width=""175px"" height=""250px""></img></td>
  </tr>
  <tr height=200>
    <td width=300><img src=""static/images/keys/z.svg"" width=""35%"" height=""75%""></img></td>
    <td width=300></td>
  </tr>
</table>
  ",,,,,,,,,,,,,,,,,,,,,,,,,,,,
66,0,,html-keyboard-response,66,397492,0.0-4.5-3.5,7131svnkcug,2022-09-19 14:52:37.514,5d68c8aa40524c00189e8ac2,3,29,10,24,2,31,Male,,,"<p style=""font-size:50px"">You win!
+10 points this round!</p>",,,,,,,,,,,,,,,,,,,,,,,,,,,,
67,0,,html-keyboard-response,67,398002,0.0-4.5-4.5,7131svnkcug,2022-09-19 14:52:37.514,5d68c8aa40524c00189e8ac2,3,29,10,24,2,31,Male,,,,,,1.0,learning,5.0,Xnc,,black,,bolts,,,,Xnc,black,bolts,,0.0,0.0,1,left,310.6000000238,1.0,0.0,1.0,,,
68,0,,html-keyboard-response,68,399515,0.0-4.6-0.6,7131svnkcug,2022-09-19 14:52:37.514,5d68c8aa40524c00189e8ac2,3,29,10,24,2,31,Male,,,"<img src=""static/images/cards/stack_of_black_moons.svg"" width=""175px"" height=""250px""></img>",,,,,,,,,,,,,,,,,,,,,,,,,,,,
69,0,,html-keyboard-response,69,400454,0.0-4.6-1.6,7131svnkcug,2022-09-19 14:52:37.514,5d68c8aa40524c00189e8ac2,3,29,10,24,2,31,Male,427.9000000358,,"
  <table>
  <tr height=300>
    <td width=300 height=300><img src=""static/images/cards/back_of_black_moons.svg"" width=""175px"" height=""250px""></img></td>
    <td width=300 height=300><img src=""static/images/cards/back_of_black_moons.svg"" width=""175px"" height=""250px""></img></td>
  </tr>
  <tr height=200>
    <td width=300><img src=""static/images/keys/z.svg"" width=""35%"" height=""75%""></img></td>
    <td width=300><img src=""static/images/keys/m.svg"" width=""35%"" height=""75%""></img></td>
  </tr>
</table>
  ",77.0,1.0,,,,,,,,,,,,,,,,,,,,,,,,,,
70,0,,html-keyboard-response,70,401969,0.0-4.6-2.6,7131svnkcug,2022-09-19 14:52:37.514,5d68c8aa40524c00189e8ac2,3,29,10,24,2,31,Male,,,"
  <table>
  <tr height=300>
    <td width=300 height=300><img src=""static/images/cards/back_of_black_moons.svg"" width=""175px"" height=""250px""></img></td>
    <td width=300 height=300><img src=""static/images/cards/3_of_black_moons.svg"" width=""175px"" height=""250px""></img></td>
  </tr>
  <tr height=200>
    <td width=300><img src=""static/images/keys/z.svg"" width=""35%"" height=""75%""></img></td>
    <td width=300><img src=""static/images/keys/m.svg"" width=""35%"" height=""75%""></img></td>
  </tr>
</table>
  ",,,,,,,,,,,,,,,,,,,,,,,,,,,,
71,0,,html-keyboard-response,71,403484,0.0-4.6-3.6,7131svnkcug,2022-09-19 14:52:37.514,5d68c8aa40524c00189e8ac2,3,29,10,24,2,31,Male,,,"<p style=""font-size:50px"">You Lose!
No points this round.</p>",,,,,,,,,,,,,,,,,,,,,,,,,,,,
72,0,,html-keyboard-response,72,403999,0.0-4.6-4.6,7131svnkcug,2022-09-19 14:52:37.514,5d68c8aa40524c00189e8ac2,3,29,10,24,2,31,Male,,,,,,1.0,learning,6.0,A,,black,,moons,,,,A,black,moons,,1.0,1.0,NA,right,427.9000000358,3.0,0.0,0.0,,,
73,0,,html-keyboard-response,73,405505,0.0-4.7-0.7,7131svnkcug,2022-09-19 14:52:37.514,5d68c8aa40524c00189e8ac2,3,29,10,24,2,31,Male,,,"<img src=""static/images/cards/stack_of_red_moons.svg"" width=""175px"" height=""250px""></img>",,,,,,,,,,,,,,,,,,,,,,,,,,,,
74,0,,html-keyboard-response,74,406670,0.0-4.7-1.7,7131svnkcug,2022-09-19 14:52:37.514,5d68c8aa40524c00189e8ac2,3,29,10,24,2,31,Male,658.8000000119,,"
  <table>
  <tr height=300>
    <td width=300 height=300><img src=""static/images/cards/back_of_red_moons.svg"" width=""175px"" height=""250px""></img></td>
    <td width=300 height=300><img src=""static/images/cards/back_of_red_moons.svg"" width=""175px"" height=""250px""></img></td>
  </tr>
  <tr height=200>
    <td width=300></td>
    <td width=300><img src=""static/images/keys/m.svg"" width=""35%"" height=""75%""></img></td>
  </tr>
</table>
  ",77.0,2.0,,,,,,,,,,,,,,,,,,,,,,,,,,
75,0,,html-keyboard-response,75,408176,0.0-4.7-2.7,7131svnkcug,2022-09-19 14:52:37.514,5d68c8aa40524c00189e8ac2,3,29,10,24,2,31,Male,,,"
  <table>
  <tr height=300>
    <td width=300 height=300><img src=""static/images/cards/back_of_red_moons.svg"" width=""175px"" height=""250px""></img></td>
    <td width=300 height=300><img src=""static/images/cards/1_of_red_moons.svg"" width=""175px"" height=""250px""></img></td>
  </tr>
  <tr height=200>
    <td width=300></td>
    <td width=300><img src=""static/images/keys/m.svg"" width=""35%"" height=""75%""></img></td>
  </tr>
</table>
  ",,,,,,,,,,,,,,,,,,,,,,,,,,,,
76,0,,html-keyboard-response,76,409689,0.0-4.7-3.7,7131svnkcug,2022-09-19 14:52:37.514,5d68c8aa40524c00189e8ac2,3,29,10,24,2,31,Male,,,"<p style=""font-size:50px"">You Lose!
No points this round.</p>",,,,,,,,,,,,,,,,,,,,,,,,,,,,
77,0,,html-keyboard-response,77,410203,0.0-4.7-4.7,7131svnkcug,2022-09-19 14:52:37.514,5d68c8aa40524c00189e8ac2,3,29,10,24,2,31,Male,,,,,,1.0,learning,7.0,B,,red,,moons,,,,B,red,moons,,0.0,1.0,0,right,658.8000000119,1.0,0.0,0.0,,,
78,0,,html-keyboard-response,78,411714,0.0-4.8-0.8,7131svnkcug,2022-09-19 14:52:37.514,5d68c8aa40524c00189e8ac2,3,29,10,24,2,31,Male,,,"<img src=""static/images/cards/stack_of_black_stars.svg"" width=""175px"" height=""250px""></img>",,,,,,,,,,,,,,,,,,,,,,,,,,,,
79,0,,html-keyboard-response,79,412526,0.0-4.8-1.8,7131svnkcug,2022-09-19 14:52:37.514,5d68c8aa40524c00189e8ac2,3,29,10,24,2,31,Male,302.3000000119,,"
  <table>
  <tr height=300>
    <td width=300 height=300><img src=""static/images/cards/back_of_black_stars.svg"" width=""175px"" height=""250px""></img></td>
    <td width=300 height=300><img src=""static/images/cards/back_of_black_stars.svg"" width=""175px"" height=""250px""></img></td>
  </tr>
  <tr height=200>
    <td width=300><img src=""static/images/keys/z.svg"" width=""35%"" height=""75%""></img></td>
    <td width=300><img src=""static/images/keys/m.svg"" width=""35%"" height=""75%""></img></td>
  </tr>
</table>
  ",90.0,1.0,,,,,,,,,,,,,,,,,,,,,,,,,,
80,0,,html-keyboard-response,80,414045,0.0-4.8-2.8,7131svnkcug,2022-09-19 14:52:37.514,5d68c8aa40524c00189e8ac2,3,29,10,24,2,31,Male,,,"
  <table>
  <tr height=300>
    <td width=300 height=300><img src=""static/images/cards/2_of_black_stars.svg"" width=""175px"" height=""250px""></img></td>
    <td width=300 height=300><img src=""static/images/cards/back_of_black_stars.svg"" width=""175px"" height=""250px""></img></td>
  </tr>
  <tr height=200>
    <td width=300><img src=""static/images/keys/z.svg"" width=""35%"" height=""75%""></img></td>
    <td width=300><img src=""static/images/keys/m.svg"" width=""35%"" height=""75%""></img></td>
  </tr>
</table>
  ",,,,,,,,,,,,,,,,,,,,,,,,,,,,
81,0,,html-keyboard-response,81,415571,0.0-4.8-3.8,7131svnkcug,2022-09-19 14:52:37.514,5d68c8aa40524c00189e8ac2,3,29,10,24,2,31,Male,,,"<p style=""font-size:50px"">You Lose!
No points this round.</p>",,,,,,,,,,,,,,,,,,,,,,,,,,,,
82,0,,html-keyboard-response,82,416092,0.0-4.8-4.8,7131svnkcug,2022-09-19 14:52:37.514,5d68c8aa40524c00189e8ac2,3,29,10,24,2,31,Male,,,,,,1.0,learning,8.0,C,,black,,stars,,,,C,black,stars,,1.0,0.0,NA,left,302.3000000119,2.0,0.0,0.0,,,
83,0,,html-keyboard-response,83,417596,0.0-4.9-0.9,7131svnkcug,2022-09-19 14:52:37.514,5d68c8aa40524c00189e8ac2,3,29,10,24,2,31,Male,,,"<img src=""static/images/cards/stack_of_red_stars.svg"" width=""175px"" height=""250px""></img>",,,,,,,,,,,,,,,,,,,,,,,,,,,,
84,0,,html-keyboard-response,84,418567,0.0-4.9-1.9,7131svnkcug,2022-09-19 14:52:37.514,5d68c8aa40524c00189e8ac2,3,29,10,24,2,31,Male,464.0,,"
  <table>
  <tr height=300>
    <td width=300 height=300><img src=""static/images/cards/back_of_red_stars.svg"" width=""175px"" height=""250px""></img></td>
    <td width=300 height=300><img src=""static/images/cards/back_of_red_stars.svg"" width=""175px"" height=""250px""></img></td>
  </tr>
  <tr height=200>
    <td width=300><img src=""static/images/keys/z.svg"" width=""35%"" height=""75%""></img></td>
    <td width=300></td>
  </tr>
</table>
  ",90.0,1.0,,,,,,,,,,,,,,,,,,,,,,,,,,
85,0,,html-keyboard-response,85,420079,0.0-4.9-2.9,7131svnkcug,2022-09-19 14:52:37.514,5d68c8aa40524c00189e8ac2,3,29,10,24,2,31,Male,,,"
  <table>
  <tr height=300>
    <td width=300 height=300><img src=""static/images/cards/2_of_red_stars.svg"" width=""175px"" height=""250px""></img></td>
    <td width=300 height=300><img src=""static/images/cards/back_of_red_stars.svg"" width=""175px"" height=""250px""></img></td>
  </tr>
  <tr height=200>
    <td width=300><img src=""static/images/keys/z.svg"" width=""35%"" height=""75%""></img></td>
    <td width=300></td>
  </tr>
</table>
  ",,,,,,,,,,,,,,,,,,,,,,,,,,,,
86,0,,html-keyboard-response,86,421593,0.0-4.9-3.9,7131svnkcug,2022-09-19 14:52:37.514,5d68c8aa40524c00189e8ac2,3,29,10,24,2,31,Male,,,"<p style=""font-size:50px"">You win!
+10 points this round!</p>",,,,,,,,,,,,,,,,,,,,,,,,,,,,
87,0,,html-keyboard-response,87,422100,0.0-4.9-4.9,7131svnkcug,2022-09-19 14:52:37.514,5d68c8aa40524c00189e8ac2,3,29,10,24,2,31,Male,,,,,,1.0,learning,9.0,D,,red,,stars,,,,D,red,stars,,0.0,0.0,1,left,464.0,2.0,0.0,1.0,,,
88,0,,html-keyboard-response,88,423606,0.0-4.10-0.10,7131svnkcug,2022-09-19 14:52:37.514,5d68c8aa40524c00189e8ac2,3,29,10,24,2,31,Male,,,"<img src=""static/images/cards/stack_of_red_bolts.svg"" width=""175px"" height=""250px""></img>",,,,,,,,,,,,,,,,,,,,,,,,,,,,
89,0,,html-keyboard-response,89,424565,0.0-4.10-1.10,7131svnkcug,2022-09-19 14:52:37.514,5d68c8aa40524c00189e8ac2,3,29,10,24,2,31,Male,450.0999999642,,"
  <table>
  <tr height=300>
    <td width=300 height=300><img src=""static/images/cards/back_of_red_bolts.svg"" width=""175px"" height=""250px""></img></td>
    <td width=300 height=300><img src=""static/images/cards/back_of_red_bolts.svg"" width=""175px"" height=""250px""></img></td>
  </tr>
  <tr height=200>
    <td width=300><img src=""static/images/keys/z.svg"" width=""35%"" height=""75%""></img></td>
    <td width=300><img src=""static/images/keys/m.svg"" width=""35%"" height=""75%""></img></td>
  </tr>
</table>
  ",90.0,1.0,,,,,,,,,,,,,,,,,,,,,,,,,,
90,0,,html-keyboard-response,90,426085,0.0-4.10-2.10,7131svnkcug,2022-09-19 14:52:37.514,5d68c8aa40524c00189e8ac2,3,29,10,24,2,31,Male,,,"
  <table>
  <tr height=300>
    <td width=300 height=300><img src=""static/images/cards/3_of_red_bolts.svg"" width=""175px"" height=""250px""></img></td>
    <td width=300 height=300><img src=""static/images/cards/back_of_red_bolts.svg"" width=""175px"" height=""250px""></img></td>
  </tr>
  <tr height=200>
    <td width=300><img src=""static/images/keys/z.svg"" width=""35%"" height=""75%""></img></td>
    <td width=300><img src=""static/images/keys/m.svg"" width=""35%"" height=""75%""></img></td>
  </tr>
</table>
  ",,,,,,,,,,,,,,,,,,,,,,,,,,,,
91,0,,html-keyboard-response,91,427601,0.0-4.10-3.10,7131svnkcug,2022-09-19 14:52:37.514,5d68c8aa40524c00189e8ac2,3,29,10,24,2,31,Male,,,"<p style=""font-size:50px"">You win!
+10 points this round!</p>",,,,,,,,,,,,,,,,,,,,,,,,,,,,
92,0,,html-keyboard-response,92,428110,0.0-4.10-4.10,7131svnkcug,2022-09-19 14:52:37.514,5d68c8aa40524c00189e8ac2,3,29,10,24,2,31,Male,,,,,,1.0,learning,10.0,Xc,,red,,bolts,,,,Xc,red,bolts,,1.0,0.0,NA,left,450.0999999642,3.0,0.0,1.0,,,
93,0,,html-keyboard-response,93,429624,0.0-4.11-0.11,7131svnkcug,2022-09-19 14:52:37.514,5d68c8aa40524c00189e8ac2,3,29,10,24,2,31,Male,,,"<img src=""static/images/cards/stack_of_black_bolts.svg"" width=""175px"" height=""250px""></img>",,,,,,,,,,,,,,,,,,,,,,,,,,,,
94,0,,html-keyboard-response,94,430789,0.0-4.11-1.11,7131svnkcug,2022-09-19 14:52:37.514,5d68c8aa40524c00189e8ac2,3,29,10,24,2,31,Male,662.1000000238,,"
  <table>
  <tr height=300>
    <td width=300 height=300><img src=""static/images/cards/back_of_black_bolts.svg"" width=""175px"" height=""250px""></img></td>
    <td width=300 height=300><img src=""static/images/cards/back_of_black_bolts.svg"" width=""175px"" height=""250px""></img></td>
  </tr>
  <tr height=200>
    <td width=300></td>
    <td width=300><img src=""static/images/keys/m.svg"" width=""35%"" height=""75%""></img></td>
  </tr>
</table>
  ",77.0,2.0,,,,,,,,,,,,,,,,,,,,,,,,,,
95,0,,html-keyboard-response,95,432301,0.0-4.11-2.11,7131svnkcug,2022-09-19 14:52:37.514,5d68c8aa40524c00189e8ac2,3,29,10,24,2,31,Male,,,"
  <table>
  <tr height=300>
    <td width=300 height=300><img src=""static/images/cards/back_of_black_bolts.svg"" width=""175px"" height=""250px""></img></td>
    <td width=300 height=300><img src=""static/images/cards/6_of_black_bolts.svg"" width=""175px"" height=""250px""></img></td>
  </tr>
  <tr height=200>
    <td width=300></td>
    <td width=300><img src=""static/images/keys/m.svg"" width=""35%"" height=""75%""></img></td>
  </tr>
</table>
  ",,,,,,,,,,,,,,,,,,,,,,,,,,,,
96,0,,html-keyboard-response,96,433809,0.0-4.11-3.11,7131svnkcug,2022-09-19 14:52:37.514,5d68c8aa40524c00189e8ac2,3,29,10,24,2,31,Male,,,"<p style=""font-size:50px"">You win!
+10 points this round!</p>",,,,,,,,,,,,,,,,,,,,,,,,,,,,
97,0,,html-keyboard-response,97,434329,0.0-4.11-4.11,7131svnkcug,2022-09-19 14:52:37.514,5d68c8aa40524c00189e8ac2,3,29,10,24,2,31,Male,,,,,,1.0,learning,11.0,Xnc,,black,,bolts,,,,Xnc,black,bolts,,0.0,0.0,0,right,662.1000000238,6.0,1.0,1.0,,,
98,0,,html-keyboard-response,98,435837,0.0-4.12-0.12,7131svnkcug,2022-09-19 14:52:37.514,5d68c8aa40524c00189e8ac2,3,29,10,24,2,31,Male,,,"<img src=""static/images/cards/stack_of_black_moons.svg"" width=""175px"" height=""250px""></img>",,,,,,,,,,,,,,,,,,,,,,,,,,,,
99,0,,html-keyboard-response,99,436693,0.0-4.12-1.12,7131svnkcug,2022-09-19 14:52:37.514,5d68c8aa40524c00189e8ac2,3,29,10,24,2,31,Male,347.8000000119,,"
  <table>
  <tr height=300>
    <td width=300 height=300><img src=""static/images/cards/back_of_black_moons.svg"" width=""175px"" height=""250px""></img></td>
    <td width=300 height=300><img src=""static/images/cards/back_of_black_moons.svg"" width=""175px"" height=""250px""></img></td>
  </tr>
  <tr height=200>
    <td width=300><img src=""static/images/keys/z.svg"" width=""35%"" height=""75%""></img></td>
    <td width=300><img src=""static/images/keys/m.svg"" width=""35%"" height=""75%""></img></td>
  </tr>
</table>
  ",77.0,1.0,,,,,,,,,,,,,,,,,,,,,,,,,,
100,0,,html-keyboard-response,100,438208,0.0-4.12-2.12,7131svnkcug,2022-09-19 14:52:37.514,5d68c8aa40524c00189e8ac2,3,29,10,24,2,31,Male,,,"
  <table>
  <tr height=300>
    <td width=300 height=300><img src=""static/images/cards/back_of_black_moons.svg"" width=""175px"" height=""250px""></img></td>
    <td width=300 height=300><img src=""static/images/cards/3_of_black_moons.svg"" width=""175px"" height=""250px""></img></td>
  </tr>
  <tr height=200>
    <td width=300><img src=""static/images/keys/z.svg"" width=""35%"" height=""75%""></img></td>
    <td width=300><img src=""static/images/keys/m.svg"" width=""35%"" height=""75%""></img></td>
  </tr>
</table>
  ",,,,,,,,,,,,,,,,,,,,,,,,,,,,
101,0,,html-keyboard-response,101,439721,0.0-4.12-3.12,7131svnkcug,2022-09-19 14:52:37.514,5d68c8aa40524c00189e8ac2,3,29,10,24,2,31,Male,,,"<p style=""font-size:50px"">You Lose!
No points this round.</p>",,,,,,,,,,,,,,,,,,,,,,,,,,,,
102,0,,html-keyboard-response,102,440235,0.0-4.12-4.12,7131svnkcug,2022-09-19 14:52:37.514,5d68c8aa40524c00189e8ac2,3,29,10,24,2,31,Male,,,,,,1.0,learning,12.0,A,,black,,moons,,,,A,black,moons,,1.0,1.0,NA,right,347.8000000119,3.0,0.0,0.0,,,
103,0,,html-keyboard-response,103,441740,0.0-4.13-0.13,7131svnkcug,2022-09-19 14:52:37.514,5d68c8aa40524c00189e8ac2,3,29,10,24,2,31,Male,,,"<img src=""static/images/cards/stack_of_red_moons.svg"" width=""175px"" height=""250px""></img>",,,,,,,,,,,,,,,,,,,,,,,,,,,,
104,0,,html-keyboard-response,104,442727,0.0-4.13-1.13,7131svnkcug,2022-09-19 14:52:37.514,5d68c8aa40524c00189e8ac2,3,29,10,24,2,31,Male,470.5,,"
  <table>
  <tr height=300>
    <td width=300 height=300><img src=""static/images/cards/back_of_red_moons.svg"" width=""175px"" height=""250px""></img></td>
    <td width=300 height=300><img src=""static/images/cards/back_of_red_moons.svg"" width=""175px"" height=""250px""></img></td>
  </tr>
  <tr height=200>
    <td width=300></td>
    <td width=300><img src=""static/images/keys/m.svg"" width=""35%"" height=""75%""></img></td>
  </tr>
</table>
  ",77.0,1.0,,,,,,,,,,,,,,,,,,,,,,,,,,
105,0,,html-keyboard-response,105,444237,0.0-4.13-2.13,7131svnkcug,2022-09-19 14:52:37.514,5d68c8aa40524c00189e8ac2,3,29,10,24,2,31,Male,,,"
  <table>
  <tr height=300>
    <td width=300 height=300><img src=""static/images/cards/back_of_red_moons.svg"" width=""175px"" height=""250px""></img></td>
    <td width=300 height=300><img src=""static/images/cards/9_of_red_moons.svg"" width=""175px"" height=""250px""></img></td>
  </tr>
  <tr height=200>
    <td width=300></td>
    <td width=300><img src=""static/images/keys/m.svg"" width=""35%"" height=""75%""></img></td>
  </tr>
</table>
  ",,,,,,,,,,,,,,,,,,,,,,,,,,,,
106,0,,html-keyboard-response,106,445752,0.0-4.13-3.13,7131svnkcug,2022-09-19 14:52:37.514,5d68c8aa40524c00189e8ac2,3,29,10,24,2,31,Male,,,"<p style=""font-size:50px"">You win!
+10 points this round!</p>",,,,,,,,,,,,,,,,,,,,,,,,,,,,
107,0,,html-keyboard-response,107,446261,0.0-4.13-4.13,7131svnkcug,2022-09-19 14:52:37.514,5d68c8aa40524c00189e8ac2,3,29,10,24,2,31,Male,,,,,,1.0,learning,13.0,B,,red,,moons,,,,B,red,moons,,0.0,1.0,0,right,470.5,9.0,1.0,1.0,,,
108,0,,html-keyboard-response,108,447772,0.0-4.14-0.14,7131svnkcug,2022-09-19 14:52:37.514,5d68c8aa40524c00189e8ac2,3,29,10,24,2,31,Male,,,"<img src=""static/images/cards/stack_of_black_stars.svg"" width=""175px"" height=""250px""></img>",,,,,,,,,,,,,,,,,,,,,,,,,,,,
109,0,,html-keyboard-response,109,448908,0.0-4.14-1.14,7131svnkcug,2022-09-19 14:52:37.514,5d68c8aa40524c00189e8ac2,3,29,10,24,2,31,Male,628.3999999762,,"
  <table>
  <tr height=300>
    <td width=300 height=300><img src=""static/images/cards/back_of_black_stars.svg"" width=""175px"" height=""250px""></img></td>
    <td width=300 height=300><img src=""static/images/cards/back_of_black_stars.svg"" width=""175px"" height=""250px""></img></td>
  </tr>
  <tr height=200>
    <td width=300><img src=""static/images/keys/z.svg"" width=""35%"" height=""75%""></img></td>
    <td width=300><img src=""static/images/keys/m.svg"" width=""35%"" height=""75%""></img></td>
  </tr>
</table>
  ",90.0,1.0,,,,,,,,,,,,,,,,,,,,,,,,,,
110,0,,html-keyboard-response,110,450413,0.0-4.14-2.14,7131svnkcug,2022-09-19 14:52:37.514,5d68c8aa40524c00189e8ac2,3,29,10,24,2,31,Male,,,"
  <table>
  <tr height=300>
    <td width=300 height=300><img src=""static/images/cards/3_of_black_stars.svg"" width=""175px"" height=""250px""></img></td>
    <td width=300 height=300><img src=""static/images/cards/back_of_black_stars.svg"" width=""175px"" height=""250px""></img></td>
  </tr>
  <tr height=200>
    <td width=300><img src=""static/images/keys/z.svg"" width=""35%"" height=""75%""></img></td>
    <td width=300><img src=""static/images/keys/m.svg"" width=""35%"" height=""75%""></img></td>
  </tr>
</table>
  ",,,,,,,,,,,,,,,,,,,,,,,,,,,,
111,0,,html-keyboard-response,111,451929,0.0-4.14-3.14,7131svnkcug,2022-09-19 14:52:37.514,5d68c8aa40524c00189e8ac2,3,29,10,24,2,31,Male,,,"<p style=""font-size:50px"">You win!
+10 points this round!</p>",,,,,,,,,,,,,,,,,,,,,,,,,,,,
112,0,,html-keyboard-response,112,452437,0.0-4.14-4.14,7131svnkcug,2022-09-19 14:52:37.514,5d68c8aa40524c00189e8ac2,3,29,10,24,2,31,Male,,,,,,1.0,learning,14.0,C,,black,,stars,,,,C,black,stars,,1.0,0.0,NA,left,628.3999999762,3.0,0.0,1.0,,,
113,0,,html-keyboard-response,113,453945,0.0-4.15-0.15,7131svnkcug,2022-09-19 14:52:37.514,5d68c8aa40524c00189e8ac2,3,29,10,24,2,31,Male,,,"<img src=""static/images/cards/stack_of_red_stars.svg"" width=""175px"" height=""250px""></img>",,,,,,,,,,,,,,,,,,,,,,,,,,,,
114,0,,html-keyboard-response,114,454893,0.0-4.15-1.15,7131svnkcug,2022-09-19 14:52:37.514,5d68c8aa40524c00189e8ac2,3,29,10,24,2,31,Male,444.6999999881,,"
  <table>
  <tr height=300>
    <td width=300 height=300><img src=""static/images/cards/back_of_red_stars.svg"" width=""175px"" height=""250px""></img></td>
    <td width=300 height=300><img src=""static/images/cards/back_of_red_stars.svg"" width=""175px"" height=""250px""></img></td>
  </tr>
  <tr height=200>
    <td width=300><img src=""static/images/keys/z.svg"" width=""35%"" height=""75%""></img></td>
    <td width=300></td>
  </tr>
</table>
  ",90.0,1.0,,,,,,,,,,,,,,,,,,,,,,,,,,
115,0,,html-keyboard-response,115,456404,0.0-4.15-2.15,7131svnkcug,2022-09-19 14:52:37.514,5d68c8aa40524c00189e8ac2,3,29,10,24,2,31,Male,,,"
  <table>
  <tr height=300>
    <td width=300 height=300><img src=""static/images/cards/7_of_red_stars.svg"" width=""175px"" height=""250px""></img></td>
    <td width=300 height=300><img src=""static/images/cards/back_of_red_stars.svg"" width=""175px"" height=""250px""></img></td>
  </tr>
  <tr height=200>
    <td width=300><img src=""static/images/keys/z.svg"" width=""35%"" height=""75%""></img></td>
    <td width=300></td>
  </tr>
</table>
  ",,,,,,,,,,,,,,,,,,,,,,,,,,,,
116,0,,html-keyboard-response,116,457919,0.0-4.15-3.15,7131svnkcug,2022-09-19 14:52:37.514,5d68c8aa40524c00189e8ac2,3,29,10,24,2,31,Male,,,"<p style=""font-size:50px"">You win!
+10 points this round!</p>",,,,,,,,,,,,,,,,,,,,,,,,,,,,
117,0,,html-keyboard-response,117,458432,0.0-4.15-4.15,7131svnkcug,2022-09-19 14:52:37.514,5d68c8aa40524c00189e8ac2,3,29,10,24,2,31,Male,,,,,,1.0,learning,15.0,D,,red,,stars,,,,D,red,stars,,0.0,0.0,1,left,444.6999999881,7.0,1.0,1.0,,,
118,0,,html-keyboard-response,118,459936,0.0-4.16-0.16,7131svnkcug,2022-09-19 14:52:37.514,5d68c8aa40524c00189e8ac2,3,29,10,24,2,31,Male,,,"<img src=""static/images/cards/stack_of_red_bolts.svg"" width=""175px"" height=""250px""></img>",,,,,,,,,,,,,,,,,,,,,,,,,,,,
119,0,,html-keyboard-response,119,460700,0.0-4.16-1.16,7131svnkcug,2022-09-19 14:52:37.514,5d68c8aa40524c00189e8ac2,3,29,10,24,2,31,Male,257.9000000358,,"
  <table>
  <tr height=300>
    <td width=300 height=300><img src=""static/images/cards/back_of_red_bolts.svg"" width=""175px"" height=""250px""></img></td>
    <td width=300 height=300><img src=""static/images/cards/back_of_red_bolts.svg"" width=""175px"" height=""250px""></img></td>
  </tr>
  <tr height=200>
    <td width=300><img src=""static/images/keys/z.svg"" width=""35%"" height=""75%""></img></td>
    <td width=300><img src=""static/images/keys/m.svg"" width=""35%"" height=""75%""></img></td>
  </tr>
</table>
  ",90.0,1.0,,,,,,,,,,,,,,,,,,,,,,,,,,
120,0,,html-keyboard-response,120,462218,0.0-4.16-2.16,7131svnkcug,2022-09-19 14:52:37.514,5d68c8aa40524c00189e8ac2,3,29,10,24,2,31,Male,,,"
  <table>
  <tr height=300>
    <td width=300 height=300><img src=""static/images/cards/8_of_red_bolts.svg"" width=""175px"" height=""250px""></img></td>
    <td width=300 height=300><img src=""static/images/cards/back_of_red_bolts.svg"" width=""175px"" height=""250px""></img></td>
  </tr>
  <tr height=200>
    <td width=300><img src=""static/images/keys/z.svg"" width=""35%"" height=""75%""></img></td>
    <td width=300><img src=""static/images/keys/m.svg"" width=""35%"" height=""75%""></img></td>
  </tr>
</table>
  ",,,,,,,,,,,,,,,,,,,,,,,,,,,,
121,0,,html-keyboard-response,121,463739,0.0-4.16-3.16,7131svnkcug,2022-09-19 14:52:37.514,5d68c8aa40524c00189e8ac2,3,29,10,24,2,31,Male,,,"<p style=""font-size:50px"">You win!
+10 points this round!</p>",,,,,,,,,,,,,,,,,,,,,,,,,,,,
122,0,,html-keyboard-response,122,464252,0.0-4.16-4.16,7131svnkcug,2022-09-19 14:52:37.514,5d68c8aa40524c00189e8ac2,3,29,10,24,2,31,Male,,,,,,1.0,learning,16.0,Xc,,red,,bolts,,,,Xc,red,bolts,,1.0,0.0,NA,left,257.9000000358,8.0,1.0,1.0,,,
123,0,,html-keyboard-response,123,465769,0.0-4.17-0.17,7131svnkcug,2022-09-19 14:52:37.514,5d68c8aa40524c00189e8ac2,3,29,10,24,2,31,Male,,,"<img src=""static/images/cards/stack_of_black_bolts.svg"" width=""175px"" height=""250px""></img>",,,,,,,,,,,,,,,,,,,,,,,,,,,,
124,0,,html-keyboard-response,124,466693,0.0-4.17-1.17,7131svnkcug,2022-09-19 14:52:37.514,5d68c8aa40524c00189e8ac2,3,29,10,24,2,31,Male,415.2999999523,,"
  <table>
  <tr height=300>
    <td width=300 height=300><img src=""static/images/cards/back_of_black_bolts.svg"" width=""175px"" height=""250px""></img></td>
    <td width=300 height=300><img src=""static/images/cards/back_of_black_bolts.svg"" width=""175px"" height=""250px""></img></td>
  </tr>
  <tr height=200>
    <td width=300><img src=""static/images/keys/z.svg"" width=""35%"" height=""75%""></img></td>
    <td width=300></td>
  </tr>
</table>
  ",90.0,1.0,,,,,,,,,,,,,,,,,,,,,,,,,,
125,0,,html-keyboard-response,125,468210,0.0-4.17-2.17,7131svnkcug,2022-09-19 14:52:37.514,5d68c8aa40524c00189e8ac2,3,29,10,24,2,31,Male,,,"
  <table>
  <tr height=300>
    <td width=300 height=300><img src=""static/images/cards/6_of_black_bolts.svg"" width=""175px"" height=""250px""></img></td>
    <td width=300 height=300><img src=""static/images/cards/back_of_black_bolts.svg"" width=""175px"" height=""250px""></img></td>
  </tr>
  <tr height=200>
    <td width=300><img src=""static/images/keys/z.svg"" width=""35%"" height=""75%""></img></td>
    <td width=300></td>
  </tr>
</table>
  ",,,,,,,,,,,,,,,,,,,,,,,,,,,,
126,0,,html-keyboard-response,126,469726,0.0-4.17-3.17,7131svnkcug,2022-09-19 14:52:37.514,5d68c8aa40524c00189e8ac2,3,29,10,24,2,31,Male,,,"<p style=""font-size:50px"">You win!
+10 points this round!</p>",,,,,,,,,,,,,,,,,,,,,,,,,,,,
127,0,,html-keyboard-response,127,470240,0.0-4.17-4.17,7131svnkcug,2022-09-19 14:52:37.514,5d68c8aa40524c00189e8ac2,3,29,10,24,2,31,Male,,,,,,1.0,learning,17.0,Xnc,,black,,bolts,,,,Xnc,black,bolts,,0.0,0.0,1,left,415.2999999523,6.0,1.0,1.0,,,
128,0,,html-keyboard-response,128,471742,0.0-4.18-0.18,7131svnkcug,2022-09-19 14:52:37.514,5d68c8aa40524c00189e8ac2,3,29,10,24,2,31,Male,,,"<img src=""static/images/cards/stack_of_black_moons.svg"" width=""175px"" height=""250px""></img>",,,,,,,,,,,,,,,,,,,,,,,,,,,,
129,0,,html-keyboard-response,129,472948,0.0-4.18-1.18,7131svnkcug,2022-09-19 14:52:37.514,5d68c8aa40524c00189e8ac2,3,29,10,24,2,31,Male,699.1999999881,,"
  <table>
  <tr height=300>
    <td width=300 height=300><img src=""static/images/cards/back_of_black_moons.svg"" width=""175px"" height=""250px""></img></td>
    <td width=300 height=300><img src=""static/images/cards/back_of_black_moons.svg"" width=""175px"" height=""250px""></img></td>
  </tr>
  <tr height=200>
    <td width=300><img src=""static/images/keys/z.svg"" width=""35%"" height=""75%""></img></td>
    <td width=300><img src=""static/images/keys/m.svg"" width=""35%"" height=""75%""></img></td>
  </tr>
</table>
  ",90.0,1.0,,,,,,,,,,,,,,,,,,,,,,,,,,
130,0,,html-keyboard-response,130,474458,0.0-4.18-2.18,7131svnkcug,2022-09-19 14:52:37.514,5d68c8aa40524c00189e8ac2,3,29,10,24,2,31,Male,,,"
  <table>
  <tr height=300>
    <td width=300 height=300><img src=""static/images/cards/7_of_black_moons.svg"" width=""175px"" height=""250px""></img></td>
    <td width=300 height=300><img src=""static/images/cards/back_of_black_moons.svg"" width=""175px"" height=""250px""></img></td>
  </tr>
  <tr height=200>
    <td width=300><img src=""static/images/keys/z.svg"" width=""35%"" height=""75%""></img></td>
    <td width=300><img src=""static/images/keys/m.svg"" width=""35%"" height=""75%""></img></td>
  </tr>
</table>
  ",,,,,,,,,,,,,,,,,,,,,,,,,,,,
131,0,,html-keyboard-response,131,475972,0.0-4.18-3.18,7131svnkcug,2022-09-19 14:52:37.514,5d68c8aa40524c00189e8ac2,3,29,10,24,2,31,Male,,,"<p style=""font-size:50px"">You win!
+10 points this round!</p>",,,,,,,,,,,,,,,,,,,,,,,,,,,,
132,0,,html-keyboard-response,132,476488,0.0-4.18-4.18,7131svnkcug,2022-09-19 14:52:37.514,5d68c8aa40524c00189e8ac2,3,29,10,24,2,31,Male,,,,,,1.0,learning,18.0,A,,black,,moons,,,,A,black,moons,,1.0,1.0,NA,left,699.1999999881,7.0,1.0,1.0,,,
133,0,,html-keyboard-response,133,477996,0.0-4.19-0.19,7131svnkcug,2022-09-19 14:52:37.514,5d68c8aa40524c00189e8ac2,3,29,10,24,2,31,Male,,,"<img src=""static/images/cards/stack_of_red_moons.svg"" width=""175px"" height=""250px""></img>",,,,,,,,,,,,,,,,,,,,,,,,,,,,
134,0,,html-keyboard-response,134,478948,0.0-4.19-1.19,7131svnkcug,2022-09-19 14:52:37.514,5d68c8aa40524c00189e8ac2,3,29,10,24,2,31,Male,447.3000000119,,"
  <table>
  <tr height=300>
    <td width=300 height=300><img src=""static/images/cards/back_of_red_moons.svg"" width=""175px"" height=""250px""></img></td>
    <td width=300 height=300><img src=""static/images/cards/back_of_red_moons.svg"" width=""175px"" height=""250px""></img></td>
  </tr>
  <tr height=200>
    <td width=300></td>
    <td width=300><img src=""static/images/keys/m.svg"" width=""35%"" height=""75%""></img></td>
  </tr>
</table>
  ",77.0,1.0,,,,,,,,,,,,,,,,,,,,,,,,,,
135,0,,html-keyboard-response,135,480451,0.0-4.19-2.19,7131svnkcug,2022-09-19 14:52:37.514,5d68c8aa40524c00189e8ac2,3,29,10,24,2,31,Male,,,"
  <table>
  <tr height=300>
    <td width=300 height=300><img src=""static/images/cards/back_of_red_moons.svg"" width=""175px"" height=""250px""></img></td>
    <td width=300 height=300><img src=""static/images/cards/3_of_red_moons.svg"" width=""175px"" height=""250px""></img></td>
  </tr>
  <tr height=200>
    <td width=300></td>
    <td width=300><img src=""static/images/keys/m.svg"" width=""35%"" height=""75%""></img></td>
  </tr>
</table>
  ",,,,,,,,,,,,,,,,,,,,,,,,,,,,
136,0,,html-keyboard-response,136,481965,0.0-4.19-3.19,7131svnkcug,2022-09-19 14:52:37.514,5d68c8aa40524c00189e8ac2,3,29,10,24,2,31,Male,,,"<p style=""font-size:50px"">You Lose!
No points this round.</p>",,,,,,,,,,,,,,,,,,,,,,,,,,,,
137,0,,html-keyboard-response,137,482479,0.0-4.19-4.19,7131svnkcug,2022-09-19 14:52:37.514,5d68c8aa40524c00189e8ac2,3,29,10,24,2,31,Male,,,,,,1.0,learning,19.0,B,,red,,moons,,,,B,red,moons,,0.0,1.0,0,right,447.3000000119,3.0,0.0,0.0,,,
138,0,,html-keyboard-response,138,483990,0.0-4.20-0.20,7131svnkcug,2022-09-19 14:52:37.514,5d68c8aa40524c00189e8ac2,3,29,10,24,2,31,Male,,,"<img src=""static/images/cards/stack_of_black_stars.svg"" width=""175px"" height=""250px""></img>",,,,,,,,,,,,,,,,,,,,,,,,,,,,
139,0,,html-keyboard-response,139,484853,0.0-4.20-1.20,7131svnkcug,2022-09-19 14:52:37.514,5d68c8aa40524c00189e8ac2,3,29,10,24,2,31,Male,357.0,,"
  <table>
  <tr height=300>
    <td width=300 height=300><img src=""static/images/cards/back_of_black_stars.svg"" width=""175px"" height=""250px""></img></td>
    <td width=300 height=300><img src=""static/images/cards/back_of_black_stars.svg"" width=""175px"" height=""250px""></img></td>
  </tr>
  <tr height=200>
    <td width=300><img src=""static/images/keys/z.svg"" width=""35%"" height=""75%""></img></td>
    <td width=300><img src=""static/images/keys/m.svg"" width=""35%"" height=""75%""></img></td>
  </tr>
</table>
  ",77.0,1.0,,,,,,,,,,,,,,,,,,,,,,,,,,
140,0,,html-keyboard-response,140,486360,0.0-4.20-2.20,7131svnkcug,2022-09-19 14:52:37.514,5d68c8aa40524c00189e8ac2,3,29,10,24,2,31,Male,,,"
  <table>
  <tr height=300>
    <td width=300 height=300><img src=""static/images/cards/back_of_black_stars.svg"" width=""175px"" height=""250px""></img></td>
    <td width=300 height=300><img src=""static/images/cards/9_of_black_stars.svg"" width=""175px"" height=""250px""></img></td>
  </tr>
  <tr height=200>
    <td width=300><img src=""static/images/keys/z.svg"" width=""35%"" height=""75%""></img></td>
    <td width=300><img src=""static/images/keys/m.svg"" width=""35%"" height=""75%""></img></td>
  </tr>
</table>
  ",,,,,,,,,,,,,,,,,,,,,,,,,,,,
141,0,,html-keyboard-response,141,487875,0.0-4.20-3.20,7131svnkcug,2022-09-19 14:52:37.514,5d68c8aa40524c00189e8ac2,3,29,10,24,2,31,Male,,,"<p style=""font-size:50px"">You Lose!
No points this round.</p>",,,,,,,,,,,,,,,,,,,,,,,,,,,,
142,0,,html-keyboard-response,142,488387,0.0-4.20-4.20,7131svnkcug,2022-09-19 14:52:37.514,5d68c8aa40524c00189e8ac2,3,29,10,24,2,31,Male,,,,,,1.0,learning,20.0,C,,black,,stars,,,,C,black,stars,,1.0,0.0,NA,right,357.0,9.0,1.0,0.0,,,
143,0,,html-keyboard-response,143,489895,0.0-4.21-0.21,7131svnkcug,2022-09-19 14:52:37.514,5d68c8aa40524c00189e8ac2,3,29,10,24,2,31,Male,,,"<img src=""static/images/cards/stack_of_red_stars.svg"" width=""175px"" height=""250px""></img>",,,,,,,,,,,,,,,,,,,,,,,,,,,,
144,0,,html-keyboard-response,144,490837,0.0-4.21-1.21,7131svnkcug,2022-09-19 14:52:37.514,5d68c8aa40524c00189e8ac2,3,29,10,24,2,31,Male,435.7000000477,,"
  <table>
  <tr height=300>
    <td width=300 height=300><img src=""static/images/cards/back_of_red_stars.svg"" width=""175px"" height=""250px""></img></td>
    <td width=300 height=300><img src=""static/images/cards/back_of_red_stars.svg"" width=""175px"" height=""250px""></img></td>
  </tr>
  <tr height=200>
    <td width=300></td>
    <td width=300><img src=""static/images/keys/m.svg"" width=""35%"" height=""75%""></img></td>
  </tr>
</table>
  ",77.0,1.0,,,,,,,,,,,,,,,,,,,,,,,,,,
145,0,,html-keyboard-response,145,492344,0.0-4.21-2.21,7131svnkcug,2022-09-19 14:52:37.514,5d68c8aa40524c00189e8ac2,3,29,10,24,2,31,Male,,,"
  <table>
  <tr height=300>
    <td width=300 height=300><img src=""static/images/cards/back_of_red_stars.svg"" width=""175px"" height=""250px""></img></td>
    <td width=300 height=300><img src=""static/images/cards/8_of_red_stars.svg"" width=""175px"" height=""250px""></img></td>
  </tr>
  <tr height=200>
    <td width=300></td>
    <td width=300><img src=""static/images/keys/m.svg"" width=""35%"" height=""75%""></img></td>
  </tr>
</table>
  ",,,,,,,,,,,,,,,,,,,,,,,,,,,,
146,0,,html-keyboard-response,146,493862,0.0-4.21-3.21,7131svnkcug,2022-09-19 14:52:37.514,5d68c8aa40524c00189e8ac2,3,29,10,24,2,31,Male,,,"<p style=""font-size:50px"">You Lose!
No points this round.</p>",,,,,,,,,,,,,,,,,,,,,,,,,,,,
147,0,,html-keyboard-response,147,494378,0.0-4.21-4.21,7131svnkcug,2022-09-19 14:52:37.514,5d68c8aa40524c00189e8ac2,3,29,10,24,2,31,Male,,,,,,1.0,learning,21.0,D,,red,,stars,,,,D,red,stars,,0.0,0.0,0,right,435.7000000477,8.0,1.0,0.0,,,
148,0,,html-keyboard-response,148,495884,0.0-4.22-0.22,7131svnkcug,2022-09-19 14:52:37.514,5d68c8aa40524c00189e8ac2,3,29,10,24,2,31,Male,,,"<img src=""static/images/cards/stack_of_red_bolts.svg"" width=""175px"" height=""250px""></img>",,,,,,,,,,,,,,,,,,,,,,,,,,,,
149,0,,html-keyboard-response,149,496964,0.0-4.22-1.22,7131svnkcug,2022-09-19 14:52:37.514,5d68c8aa40524c00189e8ac2,3,29,10,24,2,31,Male,571.9000000358,,"
  <table>
  <tr height=300>
    <td width=300 height=300><img src=""static/images/cards/back_of_red_bolts.svg"" width=""175px"" height=""250px""></img></td>
    <td width=300 height=300><img src=""static/images/cards/back_of_red_bolts.svg"" width=""175px"" height=""250px""></img></td>
  </tr>
  <tr height=200>
    <td width=300><img src=""static/images/keys/z.svg"" width=""35%"" height=""75%""></img></td>
    <td width=300><img src=""static/images/keys/m.svg"" width=""35%"" height=""75%""></img></td>
  </tr>
</table>
  ",90.0,1.0,,,,,,,,,,,,,,,,,,,,,,,,,,
150,0,,html-keyboard-response,150,498473,0.0-4.22-2.22,7131svnkcug,2022-09-19 14:52:37.514,5d68c8aa40524c00189e8ac2,3,29,10,24,2,31,Male,,,"
  <table>
  <tr height=300>
    <td width=300 height=300><img src=""static/images/cards/1_of_red_bolts.svg"" width=""175px"" height=""250px""></img></td>
    <td width=300 height=300><img src=""static/images/cards/back_of_red_bolts.svg"" width=""175px"" height=""250px""></img></td>
  </tr>
  <tr height=200>
    <td width=300><img src=""static/images/keys/z.svg"" width=""35%"" height=""75%""></img></td>
    <td width=300><img src=""static/images/keys/m.svg"" width=""35%"" height=""75%""></img></td>
  </tr>
</table>
  ",,,,,,,,,,,,,,,,,,,,,,,,,,,,
151,0,,html-keyboard-response,151,499982,0.0-4.22-3.22,7131svnkcug,2022-09-19 14:52:37.514,5d68c8aa40524c00189e8ac2,3,29,10,24,2,31,Male,,,"<p style=""font-size:50px"">You win!
+10 points this round!</p>",,,,,,,,,,,,,,,,,,,,,,,,,,,,
152,0,,html-keyboard-response,152,500492,0.0-4.22-4.22,7131svnkcug,2022-09-19 14:52:37.514,5d68c8aa40524c00189e8ac2,3,29,10,24,2,31,Male,,,,,,1.0,learning,22.0,Xc,,red,,bolts,,,,Xc,red,bolts,,1.0,0.0,NA,left,571.9000000358,1.0,0.0,1.0,,,
153,0,,html-keyboard-response,153,501998,0.0-4.23-0.23,7131svnkcug,2022-09-19 14:52:37.514,5d68c8aa40524c00189e8ac2,3,29,10,24,2,31,Male,,,"<img src=""static/images/cards/stack_of_black_bolts.svg"" width=""175px"" height=""250px""></img>",,,,,,,,,,,,,,,,,,,,,,,,,,,,
154,0,,html-keyboard-response,154,503484,0.0-4.23-1.23,7131svnkcug,2022-09-19 14:52:37.514,5d68c8aa40524c00189e8ac2,3,29,10,24,2,31,Male,978.5999999642,,"
  <table>
  <tr height=300>
    <td width=300 height=300><img src=""static/images/cards/back_of_black_bolts.svg"" width=""175px"" height=""250px""></img></td>
    <td width=300 height=300><img src=""static/images/cards/back_of_black_bolts.svg"" width=""175px"" height=""250px""></img></td>
  </tr>
  <tr height=200>
    <td width=300><img src=""static/images/keys/z.svg"" width=""35%"" height=""75%""></img></td>
    <td width=300></td>
  </tr>
</table>
  ",90.0,1.0,,,,,,,,,,,,,,,,,,,,,,,,,,
155,0,,html-keyboard-response,155,504991,0.0-4.23-2.23,7131svnkcug,2022-09-19 14:52:37.514,5d68c8aa40524c00189e8ac2,3,29,10,24,2,31,Male,,,"
  <table>
  <tr height=300>
    <td width=300 height=300><img src=""static/images/cards/4_of_black_bolts.svg"" width=""175px"" height=""250px""></img></td>
    <td width=300 height=300><img src=""static/images/cards/back_of_black_bolts.svg"" width=""175px"" height=""250px""></img></td>
  </tr>
  <tr height=200>
    <td width=300><img src=""static/images/keys/z.svg"" width=""35%"" height=""75%""></img></td>
    <td width=300></td>
  </tr>
</table>
  ",,,,,,,,,,,,,,,,,,,,,,,,,,,,
156,0,,html-keyboard-response,156,506503,0.0-4.23-3.23,7131svnkcug,2022-09-19 14:52:37.514,5d68c8aa40524c00189e8ac2,3,29,10,24,2,31,Male,,,"<p style=""font-size:50px"">You win!
+10 points this round!</p>",,,,,,,,,,,,,,,,,,,,,,,,,,,,
157,0,,html-keyboard-response,157,507013,0.0-4.23-4.23,7131svnkcug,2022-09-19 14:52:37.514,5d68c8aa40524c00189e8ac2,3,29,10,24,2,31,Male,,,,,,1.0,learning,23.0,Xnc,,black,,bolts,,,,Xnc,black,bolts,,0.0,0.0,1,left,978.5999999642,4.0,0.0,1.0,,,
158,0,,call-function,158,507025,0.0-5.0,7131svnkcug,2022-09-19 14:52:37.514,5d68c8aa40524c00189e8ac2,3,29,10,24,2,31,Male,,,,,,,,,,,,,,,,,,,,,,,,,,,,,,,
159,0,,image-keyboard-response,159,513741,0.0-6.0-0.0,7131svnkcug,2022-09-19 14:52:37.514,5d68c8aa40524c00189e8ac2,3,29,10,24,2,31,Male,6713.3000000119,,static/images/instructions_CB_3/Slide20.png,39.0,,,,,,,,,,,,,,,,,,,,,,,,,,,
160,0,,image-keyboard-response,160,518276,0.0-6.1-0.1,7131svnkcug,2022-09-19 14:52:37.514,5d68c8aa40524c00189e8ac2,3,29,10,24,2,31,Male,4534.0,,static/images/instructions_CB_3/Slide21.png,37.0,,,,,,,,,,,,,,,,,,,,,,,,,,,
161,0,,image-keyboard-response,161,519620,0.0-6.2-0.2,7131svnkcug,2022-09-19 14:52:37.514,5d68c8aa40524c00189e8ac2,3,29,10,24,2,31,Male,1342.0,,static/images/instructions_CB_3/Slide20.png,39.0,,,,,,,,,,,,,,,,,,,,,,,,,,,
162,0,,image-keyboard-response,162,526060,0.0-6.3-0.3,7131svnkcug,2022-09-19 14:52:37.514,5d68c8aa40524c00189e8ac2,3,29,10,24,2,31,Male,6438.7000000477,,static/images/instructions_CB_3/Slide21.png,39.0,,,,,,,,,,,,,,,,,,,,,,,,,,,
163,0,,image-keyboard-response,163,531869,0.0-6.4-0.4,7131svnkcug,2022-09-19 14:52:37.514,5d68c8aa40524c00189e8ac2,3,29,10,24,2,31,Male,5805.6000000238,,static/images/instructions_CB_3/Slide22.png,39.0,,,,,,,,,,,,,,,,,,,,,,,,,,,
164,0,,image-keyboard-response,164,538267,0.0-6.5-0.5,7131svnkcug,2022-09-19 14:52:37.514,5d68c8aa40524c00189e8ac2,3,29,10,24,2,31,Male,6397.4000000358,,static/images/instructions_CB_3/Slide23.png,39.0,,,,,,,,,,,,,,,,,,,,,,,,,,,
165,0,,image-keyboard-response,165,539052,0.0-6.6-0.6,7131svnkcug,2022-09-19 14:52:37.514,5d68c8aa40524c00189e8ac2,3,29,10,24,2,31,Male,783.1000000238,,static/images/instructions_CB_3/Slide24.png,37.0,,,,,,,,,,,,,,,,,,,,,,,,,,,
166,0,,image-keyboard-response,166,553396,0.0-6.7-0.7,7131svnkcug,2022-09-19 14:52:37.514,5d68c8aa40524c00189e8ac2,3,29,10,24,2,31,Male,14342.8000000119,,static/images/instructions_CB_3/Slide23.png,39.0,,,,,,,,,,,,,,,,,,,,,,,,,,,
167,0,,image-keyboard-response,167,554619,0.0-6.8-0.8,7131svnkcug,2022-09-19 14:52:37.514,5d68c8aa40524c00189e8ac2,3,29,10,24,2,31,Male,1221.6999999881,,static/images/instructions_CB_3/Slide24.png,39.0,,,,,,,,,,,,,,,,,,,,,,,,,,,
168,0,,html-keyboard-response,168,557931,0.0-7.0-0.0,7131svnkcug,2022-09-19 14:52:37.514,5d68c8aa40524c00189e8ac2,3,29,10,24,2,31,Male,3307.8000000119,,"
  <table>
  <tr height=300>
    <td width=300 height=300><img src=""static/images/cards/stack_of_red_moons.svg"" width=""175px"" height=""250px""></img></td>
    <td width=300 height=300><img src=""static/images/cards/stack_of_black_moons.svg"" width=""175px"" height=""250px""></img></td>
  </tr>
  <tr height=200>
    <td width=300><img src=""static/images/keys/w.svg"" width=""35%"" height=""75%""></img></td>
    <td width=300><img src=""static/images/keys/o.svg"" width=""35%"" height=""75%""></img></td>
  </tr>
</table>
  ",79.0,1.0,,,,,,,,,,,,,,,,,,,,,,,,,,
169,0,,html-keyboard-response,169,560388,0.0-7.0-1.0,7131svnkcug,2022-09-19 14:52:37.514,5d68c8aa40524c00189e8ac2,3,29,10,24,2,31,Male,1950.3000000119,,"
  <table>
  <tr height=300>
    <td width=300 height=300><img src=""static/images/cards/back_of_black_moons.svg"" width=""175px"" height=""250px""></img></td>
    <td width=300 height=300><img src=""static/images/cards/back_of_black_moons.svg"" width=""175px"" height=""250px""></img></td>
  </tr>
  <tr height=200>
    <td width=300><img src=""static/images/keys/z.svg"" width=""35%"" height=""75%""></img></td>
    <td width=300><img src=""static/images/keys/m.svg"" width=""35%"" height=""75%""></img></td>
  </tr>
</table>
  ",90.0,1.0,,,,,,,,,,,,,,,,,,,,,,,,,,
170,0,,html-keyboard-response,170,561891,0.0-7.0-2.0,7131svnkcug,2022-09-19 14:52:37.514,5d68c8aa40524c00189e8ac2,3,29,10,24,2,31,Male,,,"
  <table>
  <tr height=300>
    <td width=300 height=300><img src=""static/images/cards/8_of_black_moons.svg"" width=""175px"" height=""250px""></img></td>
    <td width=300 height=300><img src=""static/images/cards/back_of_black_moons.svg"" width=""175px"" height=""250px""></img></td>
  </tr>
  <tr height=200>
    <td width=300><img src=""static/images/keys/z.svg"" width=""35%"" height=""75%""></img></td>
    <td width=300><img src=""static/images/keys/m.svg"" width=""35%"" height=""75%""></img></td>
  </tr>
</table>
  ",,,,,,,,,,,,,,,,,,,,,,,,,,,,
171,0,,html-keyboard-response,171,563401,0.0-7.0-3.0,7131svnkcug,2022-09-19 14:52:37.514,5d68c8aa40524c00189e8ac2,3,29,10,24,2,31,Male,,,"<p style=""font-size:50px"">You win!
+10 points this round!</p>",,,,,,,,,,,,,,,,,,,,,,,,,,,,
172,0,,html-keyboard-response,172,563909,0.0-7.0-4.0,7131svnkcug,2022-09-19 14:52:37.514,5d68c8aa40524c00189e8ac2,3,29,10,24,2,31,Male,,,,,,1.0,choice,0.0,A,B,red,black,moons,moons,B,A,A,black,moons,3307.8000000119,1.0,1.0,NA,left,1950.3000000119,8.0,1.0,1.0,,,
173,0,,html-keyboard-response,173,566789,0.0-7.1-0.1,7131svnkcug,2022-09-19 14:52:37.514,5d68c8aa40524c00189e8ac2,3,29,10,24,2,31,Male,2877.6000000238,,"
  <table>
  <tr height=300>
    <td width=300 height=300><img src=""static/images/cards/stack_of_black_moons.svg"" width=""175px"" height=""250px""></img></td>
    <td width=300 height=300><img src=""static/images/cards/stack_of_red_stars.svg"" width=""175px"" height=""250px""></img></td>
  </tr>
  <tr height=200>
    <td width=300><img src=""static/images/keys/w.svg"" width=""35%"" height=""75%""></img></td>
    <td width=300><img src=""static/images/keys/o.svg"" width=""35%"" height=""75%""></img></td>
  </tr>
</table>
  ",87.0,1.0,,,,,,,,,,,,,,,,,,,,,,,,,,
174,0,,html-keyboard-response,174,567740,0.0-7.1-1.1,7131svnkcug,2022-09-19 14:52:37.514,5d68c8aa40524c00189e8ac2,3,29,10,24,2,31,Male,441.3999999762,,"
  <table>
  <tr height=300>
    <td width=300 height=300><img src=""static/images/cards/back_of_black_moons.svg"" width=""175px"" height=""250px""></img></td>
    <td width=300 height=300><img src=""static/images/cards/back_of_black_moons.svg"" width=""175px"" height=""250px""></img></td>
  </tr>
  <tr height=200>
    <td width=300><img src=""static/images/keys/z.svg"" width=""35%"" height=""75%""></img></td>
    <td width=300><img src=""static/images/keys/m.svg"" width=""35%"" height=""75%""></img></td>
  </tr>
</table>
  ",90.0,1.0,,,,,,,,,,,,,,,,,,,,,,,,,,
175,0,,html-keyboard-response,175,569252,0.0-7.1-2.1,7131svnkcug,2022-09-19 14:52:37.514,5d68c8aa40524c00189e8ac2,3,29,10,24,2,31,Male,,,"
  <table>
  <tr height=300>
    <td width=300 height=300><img src=""static/images/cards/2_of_black_moons.svg"" width=""175px"" height=""250px""></img></td>
    <td width=300 height=300><img src=""static/images/cards/back_of_black_moons.svg"" width=""175px"" height=""250px""></img></td>
  </tr>
  <tr height=200>
    <td width=300><img src=""static/images/keys/z.svg"" width=""35%"" height=""75%""></img></td>
    <td width=300><img src=""static/images/keys/m.svg"" width=""35%"" height=""75%""></img></td>
  </tr>
</table>
  ",,,,,,,,,,,,,,,,,,,,,,,,,,,,
176,0,,html-keyboard-response,176,570769,0.0-7.1-3.1,7131svnkcug,2022-09-19 14:52:37.514,5d68c8aa40524c00189e8ac2,3,29,10,24,2,31,Male,,,"<p style=""font-size:50px"">You Lose!
No points this round.</p>",,,,,,,,,,,,,,,,,,,,,,,,,,,,
177,0,,html-keyboard-response,177,571280,0.0-7.1-4.1,7131svnkcug,2022-09-19 14:52:37.514,5d68c8aa40524c00189e8ac2,3,29,10,24,2,31,Male,,,,,,1.0,choice,1.0,A,D,black,red,moons,stars,A,D,A,black,moons,2877.6000000238,1.0,1.0,NA,left,441.3999999762,2.0,0.0,0.0,,,
178,0,,html-keyboard-response,178,572874,0.0-7.2-0.2,7131svnkcug,2022-09-19 14:52:37.514,5d68c8aa40524c00189e8ac2,3,29,10,24,2,31,Male,1591.5999999642,,"
  <table>
  <tr height=300>
    <td width=300 height=300><img src=""static/images/cards/stack_of_red_moons.svg"" width=""175px"" height=""250px""></img></td>
    <td width=300 height=300><img src=""static/images/cards/stack_of_red_stars.svg"" width=""175px"" height=""250px""></img></td>
  </tr>
  <tr height=200>
    <td width=300><img src=""static/images/keys/w.svg"" width=""35%"" height=""75%""></img></td>
    <td width=300><img src=""static/images/keys/o.svg"" width=""35%"" height=""75%""></img></td>
  </tr>
</table>
  ",87.0,1.0,,,,,,,,,,,,,,,,,,,,,,,,,,
179,0,,html-keyboard-response,179,574068,0.0-7.2-1.2,7131svnkcug,2022-09-19 14:52:37.514,5d68c8aa40524c00189e8ac2,3,29,10,24,2,31,Male,683.6999999881,,"
  <table>
  <tr height=300>
    <td width=300 height=300><img src=""static/images/cards/back_of_red_moons.svg"" width=""175px"" height=""250px""></img></td>
    <td width=300 height=300><img src=""static/images/cards/back_of_red_moons.svg"" width=""175px"" height=""250px""></img></td>
  </tr>
  <tr height=200>
    <td width=300><img src=""static/images/keys/z.svg"" width=""35%"" height=""75%""></img></td>
    <td width=300></td>
  </tr>
</table>
  ",90.0,1.0,,,,,,,,,,,,,,,,,,,,,,,,,,
180,0,,html-keyboard-response,180,575578,0.0-7.2-2.2,7131svnkcug,2022-09-19 14:52:37.514,5d68c8aa40524c00189e8ac2,3,29,10,24,2,31,Male,,,"
  <table>
  <tr height=300>
    <td width=300 height=300><img src=""static/images/cards/2_of_red_moons.svg"" width=""175px"" height=""250px""></img></td>
    <td width=300 height=300><img src=""static/images/cards/back_of_red_moons.svg"" width=""175px"" height=""250px""></img></td>
  </tr>
  <tr height=200>
    <td width=300><img src=""static/images/keys/z.svg"" width=""35%"" height=""75%""></img></td>
    <td width=300></td>
  </tr>
</table>
  ",,,,,,,,,,,,,,,,,,,,,,,,,,,,
181,0,,html-keyboard-response,181,577098,0.0-7.2-3.2,7131svnkcug,2022-09-19 14:52:37.514,5d68c8aa40524c00189e8ac2,3,29,10,24,2,31,Male,,,"<p style=""font-size:50px"">You Lose!
No points this round.</p>",,,,,,,,,,,,,,,,,,,,,,,,,,,,
182,0,,html-keyboard-response,182,577610,0.0-7.2-4.2,7131svnkcug,2022-09-19 14:52:37.514,5d68c8aa40524c00189e8ac2,3,29,10,24,2,31,Male,,,,,,1.0,choice,2.0,B,D,red,red,moons,stars,B,D,B,red,moons,1591.5999999642,0.0,1.0,1,left,683.6999999881,2.0,0.0,0.0,,,
183,0,,html-keyboard-response,183,579380,0.0-7.3-0.3,7131svnkcug,2022-09-19 14:52:37.514,5d68c8aa40524c00189e8ac2,3,29,10,24,2,31,Male,1767.3999999762,,"
  <table>
  <tr height=300>
    <td width=300 height=300><img src=""static/images/cards/stack_of_black_moons.svg"" width=""175px"" height=""250px""></img></td>
    <td width=300 height=300><img src=""static/images/cards/stack_of_red_moons.svg"" width=""175px"" height=""250px""></img></td>
  </tr>
  <tr height=200>
    <td width=300><img src=""static/images/keys/w.svg"" width=""35%"" height=""75%""></img></td>
    <td width=300><img src=""static/images/keys/o.svg"" width=""35%"" height=""75%""></img></td>
  </tr>
</table>
  ",87.0,1.0,,,,,,,,,,,,,,,,,,,,,,,,,,
184,0,,html-keyboard-response,184,580524,0.0-7.3-1.3,7131svnkcug,2022-09-19 14:52:37.514,5d68c8aa40524c00189e8ac2,3,29,10,24,2,31,Male,636.1999999881,,"
  <table>
  <tr height=300>
    <td width=300 height=300><img src=""static/images/cards/back_of_black_moons.svg"" width=""175px"" height=""250px""></img></td>
    <td width=300 height=300><img src=""static/images/cards/back_of_black_moons.svg"" width=""175px"" height=""250px""></img></td>
  </tr>
  <tr height=200>
    <td width=300><img src=""static/images/keys/z.svg"" width=""35%"" height=""75%""></img></td>
    <td width=300><img src=""static/images/keys/m.svg"" width=""35%"" height=""75%""></img></td>
  </tr>
</table>
  ",77.0,1.0,,,,,,,,,,,,,,,,,,,,,,,,,,
185,0,,html-keyboard-response,185,582036,0.0-7.3-2.3,7131svnkcug,2022-09-19 14:52:37.514,5d68c8aa40524c00189e8ac2,3,29,10,24,2,31,Male,,,"
  <table>
  <tr height=300>
    <td width=300 height=300><img src=""static/images/cards/back_of_black_moons.svg"" width=""175px"" height=""250px""></img></td>
    <td width=300 height=300><img src=""static/images/cards/8_of_black_moons.svg"" width=""175px"" height=""250px""></img></td>
  </tr>
  <tr height=200>
    <td width=300><img src=""static/images/keys/z.svg"" width=""35%"" height=""75%""></img></td>
    <td width=300><img src=""static/images/keys/m.svg"" width=""35%"" height=""75%""></img></td>
  </tr>
</table>
  ",,,,,,,,,,,,,,,,,,,,,,,,,,,,
186,0,,html-keyboard-response,186,583548,0.0-7.3-3.3,7131svnkcug,2022-09-19 14:52:37.514,5d68c8aa40524c00189e8ac2,3,29,10,24,2,31,Male,,,"<p style=""font-size:50px"">You win!
+10 points this round!</p>",,,,,,,,,,,,,,,,,,,,,,,,,,,,
187,0,,html-keyboard-response,187,584054,0.0-7.3-4.3,7131svnkcug,2022-09-19 14:52:37.514,5d68c8aa40524c00189e8ac2,3,29,10,24,2,31,Male,,,,,,1.0,choice,3.0,A,B,black,red,moons,moons,A,B,A,black,moons,1767.3999999762,1.0,1.0,NA,right,636.1999999881,8.0,1.0,1.0,,,
188,0,,html-keyboard-response,188,584972,0.0-7.4-0.4,7131svnkcug,2022-09-19 14:52:37.514,5d68c8aa40524c00189e8ac2,3,29,10,24,2,31,Male,913.6000000238,,"
  <table>
  <tr height=300>
    <td width=300 height=300><img src=""static/images/cards/stack_of_black_bolts.svg"" width=""175px"" height=""250px""></img></td>
    <td width=300 height=300><img src=""static/images/cards/stack_of_black_moons.svg"" width=""175px"" height=""250px""></img></td>
  </tr>
  <tr height=200>
    <td width=300><img src=""static/images/keys/w.svg"" width=""35%"" height=""75%""></img></td>
    <td width=300><img src=""static/images/keys/o.svg"" width=""35%"" height=""75%""></img></td>
  </tr>
</table>
  ",87.0,1.0,,,,,,,,,,,,,,,,,,,,,,,,,,
189,0,,html-keyboard-response,189,585931,0.0-7.4-1.4,7131svnkcug,2022-09-19 14:52:37.514,5d68c8aa40524c00189e8ac2,3,29,10,24,2,31,Male,455.2999999523,,"
  <table>
  <tr height=300>
    <td width=300 height=300><img src=""static/images/cards/back_of_black_bolts.svg"" width=""175px"" height=""250px""></img></td>
    <td width=300 height=300><img src=""static/images/cards/back_of_black_bolts.svg"" width=""175px"" height=""250px""></img></td>
  </tr>
  <tr height=200>
    <td width=300><img src=""static/images/keys/z.svg"" width=""35%"" height=""75%""></img></td>
    <td width=300></td>
  </tr>
</table>
  ",90.0,1.0,,,,,,,,,,,,,,,,,,,,,,,,,,
190,0,,html-keyboard-response,190,587436,0.0-7.4-2.4,7131svnkcug,2022-09-19 14:52:37.514,5d68c8aa40524c00189e8ac2,3,29,10,24,2,31,Male,,,"
  <table>
  <tr height=300>
    <td width=300 height=300><img src=""static/images/cards/3_of_black_bolts.svg"" width=""175px"" height=""250px""></img></td>
    <td width=300 height=300><img src=""static/images/cards/back_of_black_bolts.svg"" width=""175px"" height=""250px""></img></td>
  </tr>
  <tr height=200>
    <td width=300><img src=""static/images/keys/z.svg"" width=""35%"" height=""75%""></img></td>
    <td width=300></td>
  </tr>
</table>
  ",,,,,,,,,,,,,,,,,,,,,,,,,,,,
191,0,,html-keyboard-response,191,588951,0.0-7.4-3.4,7131svnkcug,2022-09-19 14:52:37.514,5d68c8aa40524c00189e8ac2,3,29,10,24,2,31,Male,,,"<p style=""font-size:50px"">You win!
+10 points this round!</p>",,,,,,,,,,,,,,,,,,,,,,,,,,,,
192,0,,html-keyboard-response,192,589462,0.0-7.4-4.4,7131svnkcug,2022-09-19 14:52:37.514,5d68c8aa40524c00189e8ac2,3,29,10,24,2,31,Male,,,,,,1.0,choice,4.0,A,Xnc,black,black,bolts,moons,Xnc,A,Xnc,black,bolts,913.6000000238,0.0,0.0,1,left,455.2999999523,3.0,0.0,1.0,,,
193,0,,html-keyboard-response,193,591453,0.0-7.5-0.5,7131svnkcug,2022-09-19 14:52:37.514,5d68c8aa40524c00189e8ac2,3,29,10,24,2,31,Male,1986.0999999642,,"
  <table>
  <tr height=300>
    <td width=300 height=300><img src=""static/images/cards/stack_of_black_moons.svg"" width=""175px"" height=""250px""></img></td>
    <td width=300 height=300><img src=""static/images/cards/stack_of_black_stars.svg"" width=""175px"" height=""250px""></img></td>
  </tr>
  <tr height=200>
    <td width=300><img src=""static/images/keys/w.svg"" width=""35%"" height=""75%""></img></td>
    <td width=300><img src=""static/images/keys/o.svg"" width=""35%"" height=""75%""></img></td>
  </tr>
</table>
  ",87.0,1.0,,,,,,,,,,,,,,,,,,,,,,,,,,
194,0,,html-keyboard-response,194,592354,0.0-7.5-1.5,7131svnkcug,2022-09-19 14:52:37.514,5d68c8aa40524c00189e8ac2,3,29,10,24,2,31,Male,390.0999999642,,"
  <table>
  <tr height=300>
    <td width=300 height=300><img src=""static/images/cards/back_of_black_moons.svg"" width=""175px"" height=""250px""></img></td>
    <td width=300 height=300><img src=""static/images/cards/back_of_black_moons.svg"" width=""175px"" height=""250px""></img></td>
  </tr>
  <tr height=200>
    <td width=300><img src=""static/images/keys/z.svg"" width=""35%"" height=""75%""></img></td>
    <td width=300><img src=""static/images/keys/m.svg"" width=""35%"" height=""75%""></img></td>
  </tr>
</table>
  ",77.0,1.0,,,,,,,,,,,,,,,,,,,,,,,,,,
195,0,,html-keyboard-response,195,593859,0.0-7.5-2.5,7131svnkcug,2022-09-19 14:52:37.514,5d68c8aa40524c00189e8ac2,3,29,10,24,2,31,Male,,,"
  <table>
  <tr height=300>
    <td width=300 height=300><img src=""static/images/cards/back_of_black_moons.svg"" width=""175px"" height=""250px""></img></td>
    <td width=300 height=300><img src=""static/images/cards/8_of_black_moons.svg"" width=""175px"" height=""250px""></img></td>
  </tr>
  <tr height=200>
    <td width=300><img src=""static/images/keys/z.svg"" width=""35%"" height=""75%""></img></td>
    <td width=300><img src=""static/images/keys/m.svg"" width=""35%"" height=""75%""></img></td>
  </tr>
</table>
  ",,,,,,,,,,,,,,,,,,,,,,,,,,,,
196,0,,html-keyboard-response,196,595369,0.0-7.5-3.5,7131svnkcug,2022-09-19 14:52:37.514,5d68c8aa40524c00189e8ac2,3,29,10,24,2,31,Male,,,"<p style=""font-size:50px"">You win!
+10 points this round!</p>",,,,,,,,,,,,,,,,,,,,,,,,,,,,
197,0,,html-keyboard-response,197,595877,0.0-7.5-4.5,7131svnkcug,2022-09-19 14:52:37.514,5d68c8aa40524c00189e8ac2,3,29,10,24,2,31,Male,,,,,,1.0,choice,5.0,A,C,black,black,moons,stars,A,C,A,black,moons,1986.0999999642,1.0,1.0,NA,right,390.0999999642,8.0,1.0,1.0,,,
198,0,,html-keyboard-response,198,597595,0.0-7.6-0.6,7131svnkcug,2022-09-19 14:52:37.514,5d68c8aa40524c00189e8ac2,3,29,10,24,2,31,Male,1716.3999999762,,"
  <table>
  <tr height=300>
    <td width=300 height=300><img src=""static/images/cards/stack_of_red_moons.svg"" width=""175px"" height=""250px""></img></td>
    <td width=300 height=300><img src=""static/images/cards/stack_of_red_stars.svg"" width=""175px"" height=""250px""></img></td>
  </tr>
  <tr height=200>
    <td width=300><img src=""static/images/keys/w.svg"" width=""35%"" height=""75%""></img></td>
    <td width=300><img src=""static/images/keys/o.svg"" width=""35%"" height=""75%""></img></td>
  </tr>
</table>
  ",87.0,1.0,,,,,,,,,,,,,,,,,,,,,,,,,,
199,0,,html-keyboard-response,199,598707,0.0-7.6-1.6,7131svnkcug,2022-09-19 14:52:37.514,5d68c8aa40524c00189e8ac2,3,29,10,24,2,31,Male,597.5999999642,,"
  <table>
  <tr height=300>
    <td width=300 height=300><img src=""static/images/cards/back_of_red_moons.svg"" width=""175px"" height=""250px""></img></td>
    <td width=300 height=300><img src=""static/images/cards/back_of_red_moons.svg"" width=""175px"" height=""250px""></img></td>
  </tr>
  <tr height=200>
    <td width=300></td>
    <td width=300><img src=""static/images/keys/m.svg"" width=""35%"" height=""75%""></img></td>
  </tr>
</table>
  ",77.0,1.0,,,,,,,,,,,,,,,,,,,,,,,,,,
200,0,,html-keyboard-response,200,600217,0.0-7.6-2.6,7131svnkcug,2022-09-19 14:52:37.514,5d68c8aa40524c00189e8ac2,3,29,10,24,2,31,Male,,,"
  <table>
  <tr height=300>
    <td width=300 height=300><img src=""static/images/cards/back_of_red_moons.svg"" width=""175px"" height=""250px""></img></td>
    <td width=300 height=300><img src=""static/images/cards/1_of_red_moons.svg"" width=""175px"" height=""250px""></img></td>
  </tr>
  <tr height=200>
    <td width=300></td>
    <td width=300><img src=""static/images/keys/m.svg"" width=""35%"" height=""75%""></img></td>
  </tr>
</table>
  ",,,,,,,,,,,,,,,,,,,,,,,,,,,,
201,0,,html-keyboard-response,201,601735,0.0-7.6-3.6,7131svnkcug,2022-09-19 14:52:37.514,5d68c8aa40524c00189e8ac2,3,29,10,24,2,31,Male,,,"<p style=""font-size:50px"">You Lose!
No points this round.</p>",,,,,,,,,,,,,,,,,,,,,,,,,,,,
202,0,,html-keyboard-response,202,602243,0.0-7.6-4.6,7131svnkcug,2022-09-19 14:52:37.514,5d68c8aa40524c00189e8ac2,3,29,10,24,2,31,Male,,,,,,1.0,choice,6.0,B,D,red,red,moons,stars,B,D,B,red,moons,1716.3999999762,0.0,1.0,0,right,597.5999999642,1.0,0.0,0.0,,,
203,0,,html-keyboard-response,203,603788,0.0-7.7-0.7,7131svnkcug,2022-09-19 14:52:37.514,5d68c8aa40524c00189e8ac2,3,29,10,24,2,31,Male,1541.6000000238,,"
  <table>
  <tr height=300>
    <td width=300 height=300><img src=""static/images/cards/stack_of_black_stars.svg"" width=""175px"" height=""250px""></img></td>
    <td width=300 height=300><img src=""static/images/cards/stack_of_black_moons.svg"" width=""175px"" height=""250px""></img></td>
  </tr>
  <tr height=200>
    <td width=300><img src=""static/images/keys/w.svg"" width=""35%"" height=""75%""></img></td>
    <td width=300><img src=""static/images/keys/o.svg"" width=""35%"" height=""75%""></img></td>
  </tr>
</table>
  ",79.0,1.0,,,,,,,,,,,,,,,,,,,,,,,,,,
204,0,,html-keyboard-response,204,605042,0.0-7.7-1.7,7131svnkcug,2022-09-19 14:52:37.514,5d68c8aa40524c00189e8ac2,3,29,10,24,2,31,Male,750.8000000119,,"
  <table>
  <tr height=300>
    <td width=300 height=300><img src=""static/images/cards/back_of_black_moons.svg"" width=""175px"" height=""250px""></img></td>
    <td width=300 height=300><img src=""static/images/cards/back_of_black_moons.svg"" width=""175px"" height=""250px""></img></td>
  </tr>
  <tr height=200>
    <td width=300><img src=""static/images/keys/z.svg"" width=""35%"" height=""75%""></img></td>
    <td width=300><img src=""static/images/keys/m.svg"" width=""35%"" height=""75%""></img></td>
  </tr>
</table>
  ",90.0,1.0,,,,,,,,,,,,,,,,,,,,,,,,,,
205,0,,html-keyboard-response,205,606548,0.0-7.7-2.7,7131svnkcug,2022-09-19 14:52:37.514,5d68c8aa40524c00189e8ac2,3,29,10,24,2,31,Male,,,"
  <table>
  <tr height=300>
    <td width=300 height=300><img src=""static/images/cards/10_of_black_moons.svg"" width=""175px"" height=""250px""></img></td>
    <td width=300 height=300><img src=""static/images/cards/back_of_black_moons.svg"" width=""175px"" height=""250px""></img></td>
  </tr>
  <tr height=200>
    <td width=300><img src=""static/images/keys/z.svg"" width=""35%"" height=""75%""></img></td>
    <td width=300><img src=""static/images/keys/m.svg"" width=""35%"" height=""75%""></img></td>
  </tr>
</table>
  ",,,,,,,,,,,,,,,,,,,,,,,,,,,,
206,0,,html-keyboard-response,206,608063,0.0-7.7-3.7,7131svnkcug,2022-09-19 14:52:37.514,5d68c8aa40524c00189e8ac2,3,29,10,24,2,31,Male,,,"<p style=""font-size:50px"">You win!
+10 points this round!</p>",,,,,,,,,,,,,,,,,,,,,,,,,,,,
207,0,,html-keyboard-response,207,608573,0.0-7.7-4.7,7131svnkcug,2022-09-19 14:52:37.514,5d68c8aa40524c00189e8ac2,3,29,10,24,2,31,Male,,,,,,1.0,choice,7.0,A,C,black,black,stars,moons,C,A,A,black,moons,1541.6000000238,1.0,1.0,NA,left,750.8000000119,10.0,1.0,1.0,,,
208,0,,html-keyboard-response,208,609780,0.0-7.8-0.8,7131svnkcug,2022-09-19 14:52:37.514,5d68c8aa40524c00189e8ac2,3,29,10,24,2,31,Male,1203.6999999881,,"
  <table>
  <tr height=300>
    <td width=300 height=300><img src=""static/images/cards/stack_of_black_moons.svg"" width=""175px"" height=""250px""></img></td>
    <td width=300 height=300><img src=""static/images/cards/stack_of_red_stars.svg"" width=""175px"" height=""250px""></img></td>
  </tr>
  <tr height=200>
    <td width=300><img src=""static/images/keys/w.svg"" width=""35%"" height=""75%""></img></td>
    <td width=300><img src=""static/images/keys/o.svg"" width=""35%"" height=""75%""></img></td>
  </tr>
</table>
  ",87.0,1.0,,,,,,,,,,,,,,,,,,,,,,,,,,
209,0,,html-keyboard-response,209,610914,0.0-7.8-1.8,7131svnkcug,2022-09-19 14:52:37.514,5d68c8aa40524c00189e8ac2,3,29,10,24,2,31,Male,631.0,,"
  <table>
  <tr height=300>
    <td width=300 height=300><img src=""static/images/cards/back_of_black_moons.svg"" width=""175px"" height=""250px""></img></td>
    <td width=300 height=300><img src=""static/images/cards/back_of_black_moons.svg"" width=""175px"" height=""250px""></img></td>
  </tr>
  <tr height=200>
    <td width=300><img src=""static/images/keys/z.svg"" width=""35%"" height=""75%""></img></td>
    <td width=300><img src=""static/images/keys/m.svg"" width=""35%"" height=""75%""></img></td>
  </tr>
</table>
  ",77.0,1.0,,,,,,,,,,,,,,,,,,,,,,,,,,
210,0,,html-keyboard-response,210,612420,0.0-7.8-2.8,7131svnkcug,2022-09-19 14:52:37.514,5d68c8aa40524c00189e8ac2,3,29,10,24,2,31,Male,,,"
  <table>
  <tr height=300>
    <td width=300 height=300><img src=""static/images/cards/back_of_black_moons.svg"" width=""175px"" height=""250px""></img></td>
    <td width=300 height=300><img src=""static/images/cards/7_of_black_moons.svg"" width=""175px"" height=""250px""></img></td>
  </tr>
  <tr height=200>
    <td width=300><img src=""static/images/keys/z.svg"" width=""35%"" height=""75%""></img></td>
    <td width=300><img src=""static/images/keys/m.svg"" width=""35%"" height=""75%""></img></td>
  </tr>
</table>
  ",,,,,,,,,,,,,,,,,,,,,,,,,,,,
211,0,,html-keyboard-response,211,613933,0.0-7.8-3.8,7131svnkcug,2022-09-19 14:52:37.514,5d68c8aa40524c00189e8ac2,3,29,10,24,2,31,Male,,,"<p style=""font-size:50px"">You win!
+10 points this round!</p>",,,,,,,,,,,,,,,,,,,,,,,,,,,,
212,0,,html-keyboard-response,212,614447,0.0-7.8-4.8,7131svnkcug,2022-09-19 14:52:37.514,5d68c8aa40524c00189e8ac2,3,29,10,24,2,31,Male,,,,,,1.0,choice,8.0,A,D,black,red,moons,stars,A,D,A,black,moons,1203.6999999881,1.0,1.0,NA,right,631.0,7.0,1.0,1.0,,,
213,0,,html-keyboard-response,213,616788,0.0-7.9-0.9,7131svnkcug,2022-09-19 14:52:37.514,5d68c8aa40524c00189e8ac2,3,29,10,24,2,31,Male,2338.8000000119,,"
  <table>
  <tr height=300>
    <td width=300 height=300><img src=""static/images/cards/stack_of_black_stars.svg"" width=""175px"" height=""250px""></img></td>
    <td width=300 height=300><img src=""static/images/cards/stack_of_red_stars.svg"" width=""175px"" height=""250px""></img></td>
  </tr>
  <tr height=200>
    <td width=300><img src=""static/images/keys/w.svg"" width=""35%"" height=""75%""></img></td>
    <td width=300><img src=""static/images/keys/o.svg"" width=""35%"" height=""75%""></img></td>
  </tr>
</table>
  ",87.0,1.0,,,,,,,,,,,,,,,,,,,,,,,,,,
214,0,,html-keyboard-response,214,617914,0.0-7.9-1.9,7131svnkcug,2022-09-19 14:52:37.514,5d68c8aa40524c00189e8ac2,3,29,10,24,2,31,Male,620.3999999762,,"
  <table>
  <tr height=300>
    <td width=300 height=300><img src=""static/images/cards/back_of_black_stars.svg"" width=""175px"" height=""250px""></img></td>
    <td width=300 height=300><img src=""static/images/cards/back_of_black_stars.svg"" width=""175px"" height=""250px""></img></td>
  </tr>
  <tr height=200>
    <td width=300><img src=""static/images/keys/z.svg"" width=""35%"" height=""75%""></img></td>
    <td width=300><img src=""static/images/keys/m.svg"" width=""35%"" height=""75%""></img></td>
  </tr>
</table>
  ",77.0,1.0,,,,,,,,,,,,,,,,,,,,,,,,,,
215,0,,html-keyboard-response,215,619423,0.0-7.9-2.9,7131svnkcug,2022-09-19 14:52:37.514,5d68c8aa40524c00189e8ac2,3,29,10,24,2,31,Male,,,"
  <table>
  <tr height=300>
    <td width=300 height=300><img src=""static/images/cards/back_of_black_stars.svg"" width=""175px"" height=""250px""></img></td>
    <td width=300 height=300><img src=""static/images/cards/3_of_black_stars.svg"" width=""175px"" height=""250px""></img></td>
  </tr>
  <tr height=200>
    <td width=300><img src=""static/images/keys/z.svg"" width=""35%"" height=""75%""></img></td>
    <td width=300><img src=""static/images/keys/m.svg"" width=""35%"" height=""75%""></img></td>
  </tr>
</table>
  ",,,,,,,,,,,,,,,,,,,,,,,,,,,,
216,0,,html-keyboard-response,216,620943,0.0-7.9-3.9,7131svnkcug,2022-09-19 14:52:37.514,5d68c8aa40524c00189e8ac2,3,29,10,24,2,31,Male,,,"<p style=""font-size:50px"">You Lose!
No points this round.</p>",,,,,,,,,,,,,,,,,,,,,,,,,,,,
217,0,,html-keyboard-response,217,621455,0.0-7.9-4.9,7131svnkcug,2022-09-19 14:52:37.514,5d68c8aa40524c00189e8ac2,3,29,10,24,2,31,Male,,,,,,1.0,choice,9.0,C,D,black,red,stars,stars,C,D,C,black,stars,2338.8000000119,1.0,0.0,NA,right,620.3999999762,3.0,0.0,0.0,,,
218,0,,html-keyboard-response,218,623371,0.0-7.10-0.10,7131svnkcug,2022-09-19 14:52:37.514,5d68c8aa40524c00189e8ac2,3,29,10,24,2,31,Male,1912.8000000119,,"
  <table>
  <tr height=300>
    <td width=300 height=300><img src=""static/images/cards/stack_of_black_stars.svg"" width=""175px"" height=""250px""></img></td>
    <td width=300 height=300><img src=""static/images/cards/stack_of_red_moons.svg"" width=""175px"" height=""250px""></img></td>
  </tr>
  <tr height=200>
    <td width=300><img src=""static/images/keys/w.svg"" width=""35%"" height=""75%""></img></td>
    <td width=300><img src=""static/images/keys/o.svg"" width=""35%"" height=""75%""></img></td>
  </tr>
</table>
  ",87.0,1.0,,,,,,,,,,,,,,,,,,,,,,,,,,
219,0,,html-keyboard-response,219,624563,0.0-7.10-1.10,7131svnkcug,2022-09-19 14:52:37.514,5d68c8aa40524c00189e8ac2,3,29,10,24,2,31,Male,683.6999999881,,"
  <table>
  <tr height=300>
    <td width=300 height=300><img src=""static/images/cards/back_of_black_stars.svg"" width=""175px"" height=""250px""></img></td>
    <td width=300 height=300><img src=""static/images/cards/back_of_black_stars.svg"" width=""175px"" height=""250px""></img></td>
  </tr>
  <tr height=200>
    <td width=300><img src=""static/images/keys/z.svg"" width=""35%"" height=""75%""></img></td>
    <td width=300><img src=""static/images/keys/m.svg"" width=""35%"" height=""75%""></img></td>
  </tr>
</table>
  ",90.0,1.0,,,,,,,,,,,,,,,,,,,,,,,,,,
220,0,,html-keyboard-response,220,626072,0.0-7.10-2.10,7131svnkcug,2022-09-19 14:52:37.514,5d68c8aa40524c00189e8ac2,3,29,10,24,2,31,Male,,,"
  <table>
  <tr height=300>
    <td width=300 height=300><img src=""static/images/cards/6_of_black_stars.svg"" width=""175px"" height=""250px""></img></td>
    <td width=300 height=300><img src=""static/images/cards/back_of_black_stars.svg"" width=""175px"" height=""250px""></img></td>
  </tr>
  <tr height=200>
    <td width=300><img src=""static/images/keys/z.svg"" width=""35%"" height=""75%""></img></td>
    <td width=300><img src=""static/images/keys/m.svg"" width=""35%"" height=""75%""></img></td>
  </tr>
</table>
  ",,,,,,,,,,,,,,,,,,,,,,,,,,,,
221,0,,html-keyboard-response,221,627590,0.0-7.10-3.10,7131svnkcug,2022-09-19 14:52:37.514,5d68c8aa40524c00189e8ac2,3,29,10,24,2,31,Male,,,"<p style=""font-size:50px"">You win!
+10 points this round!</p>",,,,,,,,,,,,,,,,,,,,,,,,,,,,
222,0,,html-keyboard-response,222,628098,0.0-7.10-4.10,7131svnkcug,2022-09-19 14:52:37.514,5d68c8aa40524c00189e8ac2,3,29,10,24,2,31,Male,,,,,,1.0,choice,10.0,B,C,black,red,stars,moons,C,B,C,black,stars,1912.8000000119,1.0,0.0,NA,left,683.6999999881,6.0,1.0,1.0,,,
223,0,,html-keyboard-response,223,628829,0.0-7.11-0.11,7131svnkcug,2022-09-19 14:52:37.514,5d68c8aa40524c00189e8ac2,3,29,10,24,2,31,Male,727.1000000238,,"
  <table>
  <tr height=300>
    <td width=300 height=300><img src=""static/images/cards/stack_of_black_moons.svg"" width=""175px"" height=""250px""></img></td>
    <td width=300 height=300><img src=""static/images/cards/stack_of_red_stars.svg"" width=""175px"" height=""250px""></img></td>
  </tr>
  <tr height=200>
    <td width=300><img src=""static/images/keys/w.svg"" width=""35%"" height=""75%""></img></td>
    <td width=300><img src=""static/images/keys/o.svg"" width=""35%"" height=""75%""></img></td>
  </tr>
</table>
  ",87.0,1.0,,,,,,,,,,,,,,,,,,,,,,,,,,
224,0,,html-keyboard-response,224,629898,0.0-7.11-1.11,7131svnkcug,2022-09-19 14:52:37.514,5d68c8aa40524c00189e8ac2,3,29,10,24,2,31,Male,557.5,,"
  <table>
  <tr height=300>
    <td width=300 height=300><img src=""static/images/cards/back_of_black_moons.svg"" width=""175px"" height=""250px""></img></td>
    <td width=300 height=300><img src=""static/images/cards/back_of_black_moons.svg"" width=""175px"" height=""250px""></img></td>
  </tr>
  <tr height=200>
    <td width=300><img src=""static/images/keys/z.svg"" width=""35%"" height=""75%""></img></td>
    <td width=300><img src=""static/images/keys/m.svg"" width=""35%"" height=""75%""></img></td>
  </tr>
</table>
  ",90.0,1.0,,,,,,,,,,,,,,,,,,,,,,,,,,
225,0,,html-keyboard-response,225,631403,0.0-7.11-2.11,7131svnkcug,2022-09-19 14:52:37.514,5d68c8aa40524c00189e8ac2,3,29,10,24,2,31,Male,,,"
  <table>
  <tr height=300>
    <td width=300 height=300><img src=""static/images/cards/1_of_black_moons.svg"" width=""175px"" height=""250px""></img></td>
    <td width=300 height=300><img src=""static/images/cards/back_of_black_moons.svg"" width=""175px"" height=""250px""></img></td>
  </tr>
  <tr height=200>
    <td width=300><img src=""static/images/keys/z.svg"" width=""35%"" height=""75%""></img></td>
    <td width=300><img src=""static/images/keys/m.svg"" width=""35%"" height=""75%""></img></td>
  </tr>
</table>
  ",,,,,,,,,,,,,,,,,,,,,,,,,,,,
226,0,,html-keyboard-response,226,632913,0.0-7.11-3.11,7131svnkcug,2022-09-19 14:52:37.514,5d68c8aa40524c00189e8ac2,3,29,10,24,2,31,Male,,,"<p style=""font-size:50px"">You Lose!
No points this round.</p>",,,,,,,,,,,,,,,,,,,,,,,,,,,,
227,0,,html-keyboard-response,227,633436,0.0-7.11-4.11,7131svnkcug,2022-09-19 14:52:37.514,5d68c8aa40524c00189e8ac2,3,29,10,24,2,31,Male,,,,,,1.0,choice,11.0,A,D,black,red,moons,stars,A,D,A,black,moons,727.1000000238,1.0,1.0,NA,left,557.5,1.0,0.0,0.0,,,
228,0,,html-keyboard-response,228,636196,0.0-7.12-0.12,7131svnkcug,2022-09-19 14:52:37.514,5d68c8aa40524c00189e8ac2,3,29,10,24,2,31,Male,2754.9000000358,,"
  <table>
  <tr height=300>
    <td width=300 height=300><img src=""static/images/cards/stack_of_black_moons.svg"" width=""175px"" height=""250px""></img></td>
    <td width=300 height=300><img src=""static/images/cards/stack_of_red_stars.svg"" width=""175px"" height=""250px""></img></td>
  </tr>
  <tr height=200>
    <td width=300><img src=""static/images/keys/w.svg"" width=""35%"" height=""75%""></img></td>
    <td width=300><img src=""static/images/keys/o.svg"" width=""35%"" height=""75%""></img></td>
  </tr>
</table>
  ",87.0,1.0,,,,,,,,,,,,,,,,,,,,,,,,,,
229,0,,html-keyboard-response,229,637125,0.0-7.12-1.12,7131svnkcug,2022-09-19 14:52:37.514,5d68c8aa40524c00189e8ac2,3,29,10,24,2,31,Male,410.1000000238,,"
  <table>
  <tr height=300>
    <td width=300 height=300><img src=""static/images/cards/back_of_black_moons.svg"" width=""175px"" height=""250px""></img></td>
    <td width=300 height=300><img src=""static/images/cards/back_of_black_moons.svg"" width=""175px"" height=""250px""></img></td>
  </tr>
  <tr height=200>
    <td width=300><img src=""static/images/keys/z.svg"" width=""35%"" height=""75%""></img></td>
    <td width=300><img src=""static/images/keys/m.svg"" width=""35%"" height=""75%""></img></td>
  </tr>
</table>
  ",77.0,1.0,,,,,,,,,,,,,,,,,,,,,,,,,,
230,0,,html-keyboard-response,230,638635,0.0-7.12-2.12,7131svnkcug,2022-09-19 14:52:37.514,5d68c8aa40524c00189e8ac2,3,29,10,24,2,31,Male,,,"
  <table>
  <tr height=300>
    <td width=300 height=300><img src=""static/images/cards/back_of_black_moons.svg"" width=""175px"" height=""250px""></img></td>
    <td width=300 height=300><img src=""static/images/cards/7_of_black_moons.svg"" width=""175px"" height=""250px""></img></td>
  </tr>
  <tr height=200>
    <td width=300><img src=""static/images/keys/z.svg"" width=""35%"" height=""75%""></img></td>
    <td width=300><img src=""static/images/keys/m.svg"" width=""35%"" height=""75%""></img></td>
  </tr>
</table>
  ",,,,,,,,,,,,,,,,,,,,,,,,,,,,
231,0,,html-keyboard-response,231,640156,0.0-7.12-3.12,7131svnkcug,2022-09-19 14:52:37.514,5d68c8aa40524c00189e8ac2,3,29,10,24,2,31,Male,,,"<p style=""font-size:50px"">You win!
+10 points this round!</p>",,,,,,,,,,,,,,,,,,,,,,,,,,,,
232,0,,html-keyboard-response,232,640679,0.0-7.12-4.12,7131svnkcug,2022-09-19 14:52:37.514,5d68c8aa40524c00189e8ac2,3,29,10,24,2,31,Male,,,,,,1.0,choice,12.0,A,D,black,red,moons,stars,A,D,A,black,moons,2754.9000000358,1.0,1.0,NA,right,410.1000000238,7.0,1.0,1.0,,,
233,0,,html-keyboard-response,233,643002,0.0-7.13-0.13,7131svnkcug,2022-09-19 14:52:37.514,5d68c8aa40524c00189e8ac2,3,29,10,24,2,31,Male,2319.1999999881,,"
  <table>
  <tr height=300>
    <td width=300 height=300><img src=""static/images/cards/stack_of_red_moons.svg"" width=""175px"" height=""250px""></img></td>
    <td width=300 height=300><img src=""static/images/cards/stack_of_red_stars.svg"" width=""175px"" height=""250px""></img></td>
  </tr>
  <tr height=200>
    <td width=300><img src=""static/images/keys/w.svg"" width=""35%"" height=""75%""></img></td>
    <td width=300><img src=""static/images/keys/o.svg"" width=""35%"" height=""75%""></img></td>
  </tr>
</table>
  ",87.0,1.0,,,,,,,,,,,,,,,,,,,,,,,,,,
234,0,,html-keyboard-response,234,644011,0.0-7.13-1.13,7131svnkcug,2022-09-19 14:52:37.514,5d68c8aa40524c00189e8ac2,3,29,10,24,2,31,Male,495.6000000238,,"
  <table>
  <tr height=300>
    <td width=300 height=300><img src=""static/images/cards/back_of_red_moons.svg"" width=""175px"" height=""250px""></img></td>
    <td width=300 height=300><img src=""static/images/cards/back_of_red_moons.svg"" width=""175px"" height=""250px""></img></td>
  </tr>
  <tr height=200>
    <td width=300><img src=""static/images/keys/z.svg"" width=""35%"" height=""75%""></img></td>
    <td width=300></td>
  </tr>
</table>
  ",90.0,1.0,,,,,,,,,,,,,,,,,,,,,,,,,,
235,0,,html-keyboard-response,235,645518,0.0-7.13-2.13,7131svnkcug,2022-09-19 14:52:37.514,5d68c8aa40524c00189e8ac2,3,29,10,24,2,31,Male,,,"
  <table>
  <tr height=300>
    <td width=300 height=300><img src=""static/images/cards/10_of_red_moons.svg"" width=""175px"" height=""250px""></img></td>
    <td width=300 height=300><img src=""static/images/cards/back_of_red_moons.svg"" width=""175px"" height=""250px""></img></td>
  </tr>
  <tr height=200>
    <td width=300><img src=""static/images/keys/z.svg"" width=""35%"" height=""75%""></img></td>
    <td width=300></td>
  </tr>
</table>
  ",,,,,,,,,,,,,,,,,,,,,,,,,,,,
236,0,,html-keyboard-response,236,647027,0.0-7.13-3.13,7131svnkcug,2022-09-19 14:52:37.514,5d68c8aa40524c00189e8ac2,3,29,10,24,2,31,Male,,,"<p style=""font-size:50px"">You win!
+10 points this round!</p>",,,,,,,,,,,,,,,,,,,,,,,,,,,,
237,0,,html-keyboard-response,237,647542,0.0-7.13-4.13,7131svnkcug,2022-09-19 14:52:37.514,5d68c8aa40524c00189e8ac2,3,29,10,24,2,31,Male,,,,,,1.0,choice,13.0,B,D,red,red,moons,stars,B,D,B,red,moons,2319.1999999881,0.0,1.0,1,left,495.6000000238,10.0,1.0,1.0,,,
238,0,,html-keyboard-response,238,649554,0.0-7.14-0.14,7131svnkcug,2022-09-19 14:52:37.514,5d68c8aa40524c00189e8ac2,3,29,10,24,2,31,Male,2010.8000000119,,"
  <table>
  <tr height=300>
    <td width=300 height=300><img src=""static/images/cards/stack_of_red_stars.svg"" width=""175px"" height=""250px""></img></td>
    <td width=300 height=300><img src=""static/images/cards/stack_of_red_bolts.svg"" width=""175px"" height=""250px""></img></td>
  </tr>
  <tr height=200>
    <td width=300><img src=""static/images/keys/w.svg"" width=""35%"" height=""75%""></img></td>
    <td width=300><img src=""static/images/keys/o.svg"" width=""35%"" height=""75%""></img></td>
  </tr>
</table>
  ",79.0,1.0,,,,,,,,,,,,,,,,,,,,,,,,,,
239,0,,html-keyboard-response,239,650713,0.0-7.14-1.14,7131svnkcug,2022-09-19 14:52:37.514,5d68c8aa40524c00189e8ac2,3,29,10,24,2,31,Male,645.8000000119,,"
  <table>
  <tr height=300>
    <td width=300 height=300><img src=""static/images/cards/back_of_red_bolts.svg"" width=""175px"" height=""250px""></img></td>
    <td width=300 height=300><img src=""static/images/cards/back_of_red_bolts.svg"" width=""175px"" height=""250px""></img></td>
  </tr>
  <tr height=200>
    <td width=300><img src=""static/images/keys/z.svg"" width=""35%"" height=""75%""></img></td>
    <td width=300><img src=""static/images/keys/m.svg"" width=""35%"" height=""75%""></img></td>
  </tr>
</table>
  ",90.0,1.0,,,,,,,,,,,,,,,,,,,,,,,,,,
240,0,,html-keyboard-response,240,652217,0.0-7.14-2.14,7131svnkcug,2022-09-19 14:52:37.514,5d68c8aa40524c00189e8ac2,3,29,10,24,2,31,Male,,,"
  <table>
  <tr height=300>
    <td width=300 height=300><img src=""static/images/cards/1_of_red_bolts.svg"" width=""175px"" height=""250px""></img></td>
    <td width=300 height=300><img src=""static/images/cards/back_of_red_bolts.svg"" width=""175px"" height=""250px""></img></td>
  </tr>
  <tr height=200>
    <td width=300><img src=""static/images/keys/z.svg"" width=""35%"" height=""75%""></img></td>
    <td width=300><img src=""static/images/keys/m.svg"" width=""35%"" height=""75%""></img></td>
  </tr>
</table>
  ",,,,,,,,,,,,,,,,,,,,,,,,,,,,
241,0,,html-keyboard-response,241,653732,0.0-7.14-3.14,7131svnkcug,2022-09-19 14:52:37.514,5d68c8aa40524c00189e8ac2,3,29,10,24,2,31,Male,,,"<p style=""font-size:50px"">You win!
+10 points this round!</p>",,,,,,,,,,,,,,,,,,,,,,,,,,,,
242,0,,html-keyboard-response,242,654244,0.0-7.14-4.14,7131svnkcug,2022-09-19 14:52:37.514,5d68c8aa40524c00189e8ac2,3,29,10,24,2,31,Male,,,,,,1.0,choice,14.0,D,Xc,red,red,stars,bolts,D,Xc,Xc,red,bolts,2010.8000000119,1.0,0.0,NA,left,645.8000000119,1.0,0.0,1.0,,,
243,0,,html-keyboard-response,243,655619,0.0-7.15-0.15,7131svnkcug,2022-09-19 14:52:37.514,5d68c8aa40524c00189e8ac2,3,29,10,24,2,31,Male,1371.3999999762,,"
  <table>
  <tr height=300>
    <td width=300 height=300><img src=""static/images/cards/stack_of_black_stars.svg"" width=""175px"" height=""250px""></img></td>
    <td width=300 height=300><img src=""static/images/cards/stack_of_red_stars.svg"" width=""175px"" height=""250px""></img></td>
  </tr>
  <tr height=200>
    <td width=300><img src=""static/images/keys/w.svg"" width=""35%"" height=""75%""></img></td>
