,index,success,trial_type,trial_index,time_elapsed,internal_node_id,subject,date,prol_id,ctbl,sense_of_control_A,sense_of_control_B,sense_of_control_C,sense_of_control_D,age,gender,rt,url,stimulus,key_press,npress,is_data_trial,phase,trial,deck1,deck2,col1,col2,sym1,sym2,deck_l,deck_r,chosen_deck,chosen_col,chosen_sym,deck_rt,choose_choice,mutual_info,hidden_key,chosen_card,card_rt,player_num,win_card,outcome,mock_rating,response,responses
0,0,1.0,fullscreen,0,12910,0.0-0.0,u65ia9x0pk,2022-09-19 17:09:16.610,545d347afdf99b7f9fca22c7,3,77,48,32,26,32,Male,,,,,,,,,,,,,,,,,,,,,,,,,,,,,,,
1,0,,external-html,1,14955,0.0-1.0,u65ia9x0pk,2022-09-19 17:09:16.610,545d347afdf99b7f9fca22c7,3,77,48,32,26,32,Male,1950.8000000119,static/js/sub/consent.html,,,,,,,,,,,,,,,,,,,,,,,,,,,,,
2,0,,call-function,2,14956,0.0-2.0,u65ia9x0pk,2022-09-19 17:09:16.610,545d347afdf99b7f9fca22c7,3,77,48,32,26,32,Male,,,,,,,,,,,,,,,,,,,,,,,,,,,,,,,
3,0,,image-keyboard-response,3,20200,0.0-3.0-0.0,u65ia9x0pk,2022-09-19 17:09:16.610,545d347afdf99b7f9fca22c7,3,77,48,32,26,32,Male,5243.6999999881,,static/images/instructions_CB_3/Slide1.png,39.0,,,,,,,,,,,,,,,,,,,,,,,,,,,
4,0,,image-keyboard-response,4,35218,0.0-3.1-0.1,u65ia9x0pk,2022-09-19 17:09:16.610,545d347afdf99b7f9fca22c7,3,77,48,32,26,32,Male,15016.7999999523,,static/images/instructions_CB_3/Slide2.png,39.0,,,,,,,,,,,,,,,,,,,,,,,,,,,
5,0,,image-keyboard-response,5,45371,0.0-3.2-0.2,u65ia9x0pk,2022-09-19 17:09:16.610,545d347afdf99b7f9fca22c7,3,77,48,32,26,32,Male,10152.6999999881,,static/images/instructions_CB_3/Slide3.png,39.0,,,,,,,,,,,,,,,,,,,,,,,,,,,
6,0,,image-keyboard-response,6,55012,0.0-3.3-0.3,u65ia9x0pk,2022-09-19 17:09:16.610,545d347afdf99b7f9fca22c7,3,77,48,32,26,32,Male,9640.5999999642,,static/images/instructions_CB_3/Slide4.png,39.0,,,,,,,,,,,,,,,,,,,,,,,,,,,
7,0,,image-keyboard-response,7,61525,0.0-3.4-0.4,u65ia9x0pk,2022-09-19 17:09:16.610,545d347afdf99b7f9fca22c7,3,77,48,32,26,32,Male,6512.4000000358,,static/images/instructions_CB_3/Slide5.png,39.0,,,,,,,,,,,,,,,,,,,,,,,,,,,
8,0,,image-keyboard-response,8,64758,0.0-3.5-0.5,u65ia9x0pk,2022-09-19 17:09:16.610,545d347afdf99b7f9fca22c7,3,77,48,32,26,32,Male,3231.8000000119,,static/images/instructions_CB_3/Slide6.png,39.0,,,,,,,,,,,,,,,,,,,,,,,,,,,
9,0,,image-keyboard-response,9,71022,0.0-3.6-0.6,u65ia9x0pk,2022-09-19 17:09:16.610,545d347afdf99b7f9fca22c7,3,77,48,32,26,32,Male,6264.3000000119,,static/images/instructions_CB_3/Slide7.png,39.0,,,,,,,,,,,,,,,,,,,,,,,,,,,
10,0,,image-keyboard-response,10,85056,0.0-3.7-0.7,u65ia9x0pk,2022-09-19 17:09:16.610,545d347afdf99b7f9fca22c7,3,77,48,32,26,32,Male,14033.6000000238,,static/images/instructions_CB_3/Slide8.png,39.0,,,,,,,,,,,,,,,,,,,,,,,,,,,
11,0,,image-keyboard-response,11,91497,0.0-3.8-0.8,u65ia9x0pk,2022-09-19 17:09:16.610,545d347afdf99b7f9fca22c7,3,77,48,32,26,32,Male,6440.3000000119,,static/images/instructions_CB_3/Slide9.png,39.0,,,,,,,,,,,,,,,,,,,,,,,,,,,
12,0,,image-keyboard-response,12,125934,0.0-3.9-0.9,u65ia9x0pk,2022-09-19 17:09:16.610,545d347afdf99b7f9fca22c7,3,77,48,32,26,32,Male,34436.1000000238,,static/images/instructions_CB_3/Slide10.png,39.0,,,,,,,,,,,,,,,,,,,,,,,,,,,
13,0,,image-keyboard-response,13,137312,0.0-3.10-0.10,u65ia9x0pk,2022-09-19 17:09:16.610,545d347afdf99b7f9fca22c7,3,77,48,32,26,32,Male,11377.0,,static/images/instructions_CB_3/Slide11.png,39.0,,,,,,,,,,,,,,,,,,,,,,,,,,,
14,0,,image-keyboard-response,14,158426,0.0-3.11-0.11,u65ia9x0pk,2022-09-19 17:09:16.610,545d347afdf99b7f9fca22c7,3,77,48,32,26,32,Male,21114.3999999762,,static/images/instructions_CB_3/Slide12.png,39.0,,,,,,,,,,,,,,,,,,,,,,,,,,,
15,0,,image-keyboard-response,15,183286,0.0-3.12-0.12,u65ia9x0pk,2022-09-19 17:09:16.610,545d347afdf99b7f9fca22c7,3,77,48,32,26,32,Male,24858.8000000119,,static/images/instructions_CB_3/Slide13.png,39.0,,,,,,,,,,,,,,,,,,,,,,,,,,,
16,0,,image-keyboard-response,16,195687,0.0-3.13-0.13,u65ia9x0pk,2022-09-19 17:09:16.610,545d347afdf99b7f9fca22c7,3,77,48,32,26,32,Male,12401.1999999881,,static/images/instructions_CB_3/Slide14.png,39.0,,,,,,,,,,,,,,,,,,,,,,,,,,,
17,0,,image-keyboard-response,17,203272,0.0-3.14-0.14,u65ia9x0pk,2022-09-19 17:09:16.610,545d347afdf99b7f9fca22c7,3,77,48,32,26,32,Male,7584.3000000119,,static/images/instructions_CB_3/Slide15.png,39.0,,,,,,,,,,,,,,,,,,,,,,,,,,,
18,0,,image-keyboard-response,18,209561,0.0-3.15-0.15,u65ia9x0pk,2022-09-19 17:09:16.610,545d347afdf99b7f9fca22c7,3,77,48,32,26,32,Male,6288.3999999762,,static/images/instructions_CB_3/Slide16.png,39.0,,,,,,,,,,,,,,,,,,,,,,,,,,,
19,0,,image-keyboard-response,19,220155,0.0-3.16-0.16,u65ia9x0pk,2022-09-19 17:09:16.610,545d347afdf99b7f9fca22c7,3,77,48,32,26,32,Male,10592.8000000119,,static/images/instructions_CB_3/Slide17.png,39.0,,,,,,,,,,,,,,,,,,,,,,,,,,,
20,0,,image-keyboard-response,20,272298,0.0-3.17-0.17,u65ia9x0pk,2022-09-19 17:09:16.610,545d347afdf99b7f9fca22c7,3,77,48,32,26,32,Male,52142.5999999642,,static/images/instructions_CB_3/Slide18.png,39.0,,,,,,,,,,,,,,,,,,,,,,,,,,,
21,0,,image-keyboard-response,21,279539,0.0-3.18-0.18,u65ia9x0pk,2022-09-19 17:09:16.610,545d347afdf99b7f9fca22c7,3,77,48,32,26,32,Male,7240.1999999881,,static/images/instructions_CB_3/Slide19.png,39.0,,,,,,,,,,,,,,,,,,,,,,,,,,,
22,0,,html-keyboard-response,22,281042,0.0-4.0-0.0,u65ia9x0pk,2022-09-19 17:09:16.610,545d347afdf99b7f9fca22c7,3,77,48,32,26,32,Male,,,"<img src=""static/images/cards/stack_of_black_moons.svg"" width=""175px"" height=""250px""></img>",,,,,,,,,,,,,,,,,,,,,,,,,,,,
23,0,,html-keyboard-response,23,284219,0.0-4.0-1.0,u65ia9x0pk,2022-09-19 17:09:16.610,545d347afdf99b7f9fca22c7,3,77,48,32,26,32,Male,2664.3000000119,,"
  <table>
  <tr height=300>
    <td width=300 height=300><img src=""static/images/cards/back_of_black_moons.svg"" width=""175px"" height=""250px""></img></td>
    <td width=300 height=300><img src=""static/images/cards/back_of_black_moons.svg"" width=""175px"" height=""250px""></img></td>
  </tr>
  <tr height=200>
    <td width=300><img src=""static/images/keys/z.svg"" width=""35%"" height=""75%""></img></td>
    <td width=300><img src=""static/images/keys/m.svg"" width=""35%"" height=""75%""></img></td>
  </tr>
</table>
  ",90.0,1.0,,,,,,,,,,,,,,,,,,,,,,,,,,
24,0,,html-keyboard-response,24,285729,0.0-4.0-2.0,u65ia9x0pk,2022-09-19 17:09:16.610,545d347afdf99b7f9fca22c7,3,77,48,32,26,32,Male,,,"
  <table>
  <tr height=300>
    <td width=300 height=300><img src=""static/images/cards/1_of_black_moons.svg"" width=""175px"" height=""250px""></img></td>
    <td width=300 height=300><img src=""static/images/cards/back_of_black_moons.svg"" width=""175px"" height=""250px""></img></td>
  </tr>
  <tr height=200>
    <td width=300><img src=""static/images/keys/z.svg"" width=""35%"" height=""75%""></img></td>
    <td width=300><img src=""static/images/keys/m.svg"" width=""35%"" height=""75%""></img></td>
  </tr>
</table>
  ",,,,,,,,,,,,,,,,,,,,,,,,,,,,
25,0,,html-keyboard-response,25,287242,0.0-4.0-3.0,u65ia9x0pk,2022-09-19 17:09:16.610,545d347afdf99b7f9fca22c7,3,77,48,32,26,32,Male,,,"<p style=""font-size:50px"">You Lose!
No points this round.</p>",,,,,,,,,,,,,,,,,,,,,,,,,,,,
26,0,,html-keyboard-response,26,287748,0.0-4.0-4.0,u65ia9x0pk,2022-09-19 17:09:16.610,545d347afdf99b7f9fca22c7,3,77,48,32,26,32,Male,,,,,,1.0,learning,0.0,A,,black,,moons,,,,A,black,moons,,1.0,1.0,NA,left,2664.3000000119,1.0,0.0,0.0,,,
27,0,,html-keyboard-response,27,289250,0.0-4.1-0.1,u65ia9x0pk,2022-09-19 17:09:16.610,545d347afdf99b7f9fca22c7,3,77,48,32,26,32,Male,,,"<img src=""static/images/cards/stack_of_red_moons.svg"" width=""175px"" height=""250px""></img>",,,,,,,,,,,,,,,,,,,,,,,,,,,,
28,0,,html-keyboard-response,28,290708,0.0-4.1-1.1,u65ia9x0pk,2022-09-19 17:09:16.610,545d347afdf99b7f9fca22c7,3,77,48,32,26,32,Male,949.3999999762,,"
  <table>
  <tr height=300>
    <td width=300 height=300><img src=""static/images/cards/back_of_red_moons.svg"" width=""175px"" height=""250px""></img></td>
    <td width=300 height=300><img src=""static/images/cards/back_of_red_moons.svg"" width=""175px"" height=""250px""></img></td>
  </tr>
  <tr height=200>
    <td width=300></td>
    <td width=300><img src=""static/images/keys/m.svg"" width=""35%"" height=""75%""></img></td>
  </tr>
</table>
  ",77.0,1.0,,,,,,,,,,,,,,,,,,,,,,,,,,
29,0,,html-keyboard-response,29,292218,0.0-4.1-2.1,u65ia9x0pk,2022-09-19 17:09:16.610,545d347afdf99b7f9fca22c7,3,77,48,32,26,32,Male,,,"
  <table>
  <tr height=300>
    <td width=300 height=300><img src=""static/images/cards/back_of_red_moons.svg"" width=""175px"" height=""250px""></img></td>
    <td width=300 height=300><img src=""static/images/cards/7_of_red_moons.svg"" width=""175px"" height=""250px""></img></td>
  </tr>
  <tr height=200>
    <td width=300></td>
    <td width=300><img src=""static/images/keys/m.svg"" width=""35%"" height=""75%""></img></td>
  </tr>
</table>
  ",,,,,,,,,,,,,,,,,,,,,,,,,,,,
30,0,,html-keyboard-response,30,293739,0.0-4.1-3.1,u65ia9x0pk,2022-09-19 17:09:16.610,545d347afdf99b7f9fca22c7,3,77,48,32,26,32,Male,,,"<p style=""font-size:50px"">You win!
+10 points this round!</p>",,,,,,,,,,,,,,,,,,,,,,,,,,,,
31,0,,html-keyboard-response,31,294254,0.0-4.1-4.1,u65ia9x0pk,2022-09-19 17:09:16.610,545d347afdf99b7f9fca22c7,3,77,48,32,26,32,Male,,,,,,1.0,learning,1.0,B,,red,,moons,,,,B,red,moons,,0.0,1.0,0,right,949.3999999762,7.0,1.0,1.0,,,
32,0,,html-keyboard-response,32,295767,0.0-4.2-0.2,u65ia9x0pk,2022-09-19 17:09:16.610,545d347afdf99b7f9fca22c7,3,77,48,32,26,32,Male,,,"<img src=""static/images/cards/stack_of_black_stars.svg"" width=""175px"" height=""250px""></img>",,,,,,,,,,,,,,,,,,,,,,,,,,,,
33,0,,html-keyboard-response,33,297821,0.0-4.2-1.2,u65ia9x0pk,2022-09-19 17:09:16.610,545d347afdf99b7f9fca22c7,3,77,48,32,26,32,Male,1541.0,,"
  <table>
  <tr height=300>
    <td width=300 height=300><img src=""static/images/cards/back_of_black_stars.svg"" width=""175px"" height=""250px""></img></td>
    <td width=300 height=300><img src=""static/images/cards/back_of_black_stars.svg"" width=""175px"" height=""250px""></img></td>
  </tr>
  <tr height=200>
    <td width=300><img src=""static/images/keys/z.svg"" width=""35%"" height=""75%""></img></td>
    <td width=300><img src=""static/images/keys/m.svg"" width=""35%"" height=""75%""></img></td>
  </tr>
</table>
  ",77.0,1.0,,,,,,,,,,,,,,,,,,,,,,,,,,
34,0,,html-keyboard-response,34,299324,0.0-4.2-2.2,u65ia9x0pk,2022-09-19 17:09:16.610,545d347afdf99b7f9fca22c7,3,77,48,32,26,32,Male,,,"
  <table>
  <tr height=300>
    <td width=300 height=300><img src=""static/images/cards/back_of_black_stars.svg"" width=""175px"" height=""250px""></img></td>
    <td width=300 height=300><img src=""static/images/cards/3_of_black_stars.svg"" width=""175px"" height=""250px""></img></td>
  </tr>
  <tr height=200>
    <td width=300><img src=""static/images/keys/z.svg"" width=""35%"" height=""75%""></img></td>
    <td width=300><img src=""static/images/keys/m.svg"" width=""35%"" height=""75%""></img></td>
  </tr>
</table>
  ",,,,,,,,,,,,,,,,,,,,,,,,,,,,
35,0,,html-keyboard-response,35,300838,0.0-4.2-3.2,u65ia9x0pk,2022-09-19 17:09:16.610,545d347afdf99b7f9fca22c7,3,77,48,32,26,32,Male,,,"<p style=""font-size:50px"">You win!
+10 points this round!</p>",,,,,,,,,,,,,,,,,,,,,,,,,,,,
36,0,,html-keyboard-response,36,301351,0.0-4.2-4.2,u65ia9x0pk,2022-09-19 17:09:16.610,545d347afdf99b7f9fca22c7,3,77,48,32,26,32,Male,,,,,,1.0,learning,2.0,C,,black,,stars,,,,C,black,stars,,1.0,0.0,NA,right,1541.0,3.0,0.0,1.0,,,
37,0,,html-keyboard-response,37,302859,0.0-4.3-0.3,u65ia9x0pk,2022-09-19 17:09:16.610,545d347afdf99b7f9fca22c7,3,77,48,32,26,32,Male,,,"<img src=""static/images/cards/stack_of_red_stars.svg"" width=""175px"" height=""250px""></img>",,,,,,,,,,,,,,,,,,,,,,,,,,,,
38,0,,html-keyboard-response,38,304374,0.0-4.3-1.3,u65ia9x0pk,2022-09-19 17:09:16.610,545d347afdf99b7f9fca22c7,3,77,48,32,26,32,Male,1002.1000000238,,"
  <table>
  <tr height=300>
    <td width=300 height=300><img src=""static/images/cards/back_of_red_stars.svg"" width=""175px"" height=""250px""></img></td>
    <td width=300 height=300><img src=""static/images/cards/back_of_red_stars.svg"" width=""175px"" height=""250px""></img></td>
  </tr>
  <tr height=200>
    <td width=300><img src=""static/images/keys/z.svg"" width=""35%"" height=""75%""></img></td>
    <td width=300></td>
  </tr>
</table>
  ",90.0,1.0,,,,,,,,,,,,,,,,,,,,,,,,,,
39,0,,html-keyboard-response,39,305874,0.0-4.3-2.3,u65ia9x0pk,2022-09-19 17:09:16.610,545d347afdf99b7f9fca22c7,3,77,48,32,26,32,Male,,,"
  <table>
  <tr height=300>
    <td width=300 height=300><img src=""static/images/cards/1_of_red_stars.svg"" width=""175px"" height=""250px""></img></td>
    <td width=300 height=300><img src=""static/images/cards/back_of_red_stars.svg"" width=""175px"" height=""250px""></img></td>
  </tr>
  <tr height=200>
    <td width=300><img src=""static/images/keys/z.svg"" width=""35%"" height=""75%""></img></td>
    <td width=300></td>
  </tr>
</table>
  ",,,,,,,,,,,,,,,,,,,,,,,,,,,,
40,0,,html-keyboard-response,40,307392,0.0-4.3-3.3,u65ia9x0pk,2022-09-19 17:09:16.610,545d347afdf99b7f9fca22c7,3,77,48,32,26,32,Male,,,"<p style=""font-size:50px"">You Lose!
No points this round.</p>",,,,,,,,,,,,,,,,,,,,,,,,,,,,
41,0,,html-keyboard-response,41,307898,0.0-4.3-4.3,u65ia9x0pk,2022-09-19 17:09:16.610,545d347afdf99b7f9fca22c7,3,77,48,32,26,32,Male,,,,,,1.0,learning,3.0,D,,red,,stars,,,,D,red,stars,,0.0,0.0,1,left,1002.1000000238,1.0,0.0,0.0,,,
42,0,,html-keyboard-response,42,309399,0.0-4.4-0.4,u65ia9x0pk,2022-09-19 17:09:16.610,545d347afdf99b7f9fca22c7,3,77,48,32,26,32,Male,,,"<img src=""static/images/cards/stack_of_red_bolts.svg"" width=""175px"" height=""250px""></img>",,,,,,,,,,,,,,,,,,,,,,,,,,,,
43,0,,html-keyboard-response,43,311447,0.0-4.4-1.4,u65ia9x0pk,2022-09-19 17:09:16.610,545d347afdf99b7f9fca22c7,3,77,48,32,26,32,Male,1545.8000000119,,"
  <table>
  <tr height=300>
    <td width=300 height=300><img src=""static/images/cards/back_of_red_bolts.svg"" width=""175px"" height=""250px""></img></td>
    <td width=300 height=300><img src=""static/images/cards/back_of_red_bolts.svg"" width=""175px"" height=""250px""></img></td>
  </tr>
  <tr height=200>
    <td width=300><img src=""static/images/keys/z.svg"" width=""35%"" height=""75%""></img></td>
    <td width=300><img src=""static/images/keys/m.svg"" width=""35%"" height=""75%""></img></td>
  </tr>
</table>
  ",90.0,1.0,,,,,,,,,,,,,,,,,,,,,,,,,,
44,0,,html-keyboard-response,44,312961,0.0-4.4-2.4,u65ia9x0pk,2022-09-19 17:09:16.610,545d347afdf99b7f9fca22c7,3,77,48,32,26,32,Male,,,"
  <table>
  <tr height=300>
    <td width=300 height=300><img src=""static/images/cards/6_of_red_bolts.svg"" width=""175px"" height=""250px""></img></td>
    <td width=300 height=300><img src=""static/images/cards/back_of_red_bolts.svg"" width=""175px"" height=""250px""></img></td>
  </tr>
  <tr height=200>
    <td width=300><img src=""static/images/keys/z.svg"" width=""35%"" height=""75%""></img></td>
    <td width=300><img src=""static/images/keys/m.svg"" width=""35%"" height=""75%""></img></td>
  </tr>
</table>
  ",,,,,,,,,,,,,,,,,,,,,,,,,,,,
45,0,,html-keyboard-response,45,314479,0.0-4.4-3.4,u65ia9x0pk,2022-09-19 17:09:16.610,545d347afdf99b7f9fca22c7,3,77,48,32,26,32,Male,,,"<p style=""font-size:50px"">You win!
+10 points this round!</p>",,,,,,,,,,,,,,,,,,,,,,,,,,,,
46,0,,html-keyboard-response,46,314996,0.0-4.4-4.4,u65ia9x0pk,2022-09-19 17:09:16.610,545d347afdf99b7f9fca22c7,3,77,48,32,26,32,Male,,,,,,1.0,learning,4.0,Xc,,red,,bolts,,,,Xc,red,bolts,,1.0,0.0,NA,left,1545.8000000119,6.0,1.0,1.0,,,
47,0,,html-keyboard-response,47,316497,0.0-4.5-0.5,u65ia9x0pk,2022-09-19 17:09:16.610,545d347afdf99b7f9fca22c7,3,77,48,32,26,32,Male,,,"<img src=""static/images/cards/stack_of_black_bolts.svg"" width=""175px"" height=""250px""></img>",,,,,,,,,,,,,,,,,,,,,,,,,,,,
48,0,,html-keyboard-response,48,317919,0.0-4.5-1.5,u65ia9x0pk,2022-09-19 17:09:16.610,545d347afdf99b7f9fca22c7,3,77,48,32,26,32,Male,918.9000000358,,"
  <table>
  <tr height=300>
    <td width=300 height=300><img src=""static/images/cards/back_of_black_bolts.svg"" width=""175px"" height=""250px""></img></td>
    <td width=300 height=300><img src=""static/images/cards/back_of_black_bolts.svg"" width=""175px"" height=""250px""></img></td>
  </tr>
  <tr height=200>
    <td width=300></td>
    <td width=300><img src=""static/images/keys/m.svg"" width=""35%"" height=""75%""></img></td>
  </tr>
</table>
  ",77.0,1.0,,,,,,,,,,,,,,,,,,,,,,,,,,
49,0,,html-keyboard-response,49,319420,0.0-4.5-2.5,u65ia9x0pk,2022-09-19 17:09:16.610,545d347afdf99b7f9fca22c7,3,77,48,32,26,32,Male,,,"
  <table>
  <tr height=300>
    <td width=300 height=300><img src=""static/images/cards/back_of_black_bolts.svg"" width=""175px"" height=""250px""></img></td>
    <td width=300 height=300><img src=""static/images/cards/9_of_black_bolts.svg"" width=""175px"" height=""250px""></img></td>
  </tr>
  <tr height=200>
    <td width=300></td>
    <td width=300><img src=""static/images/keys/m.svg"" width=""35%"" height=""75%""></img></td>
  </tr>
</table>
  ",,,,,,,,,,,,,,,,,,,,,,,,,,,,
50,0,,html-keyboard-response,50,320933,0.0-4.5-3.5,u65ia9x0pk,2022-09-19 17:09:16.610,545d347afdf99b7f9fca22c7,3,77,48,32,26,32,Male,,,"<p style=""font-size:50px"">You win!
+10 points this round!</p>",,,,,,,,,,,,,,,,,,,,,,,,,,,,
51,0,,html-keyboard-response,51,321439,0.0-4.5-4.5,u65ia9x0pk,2022-09-19 17:09:16.610,545d347afdf99b7f9fca22c7,3,77,48,32,26,32,Male,,,,,,1.0,learning,5.0,Xnc,,black,,bolts,,,,Xnc,black,bolts,,0.0,0.0,0,right,918.9000000358,9.0,1.0,1.0,,,
52,0,,html-keyboard-response,52,322947,0.0-4.6-0.6,u65ia9x0pk,2022-09-19 17:09:16.610,545d347afdf99b7f9fca22c7,3,77,48,32,26,32,Male,,,"<img src=""static/images/cards/stack_of_black_moons.svg"" width=""175px"" height=""250px""></img>",,,,,,,,,,,,,,,,,,,,,,,,,,,,
53,0,,html-keyboard-response,53,324792,0.0-4.6-1.6,u65ia9x0pk,2022-09-19 17:09:16.610,545d347afdf99b7f9fca22c7,3,77,48,32,26,32,Male,1332.4000000358,,"
  <table>
  <tr height=300>
    <td width=300 height=300><img src=""static/images/cards/back_of_black_moons.svg"" width=""175px"" height=""250px""></img></td>
    <td width=300 height=300><img src=""static/images/cards/back_of_black_moons.svg"" width=""175px"" height=""250px""></img></td>
  </tr>
  <tr height=200>
    <td width=300><img src=""static/images/keys/z.svg"" width=""35%"" height=""75%""></img></td>
    <td width=300><img src=""static/images/keys/m.svg"" width=""35%"" height=""75%""></img></td>
  </tr>
</table>
  ",77.0,1.0,,,,,,,,,,,,,,,,,,,,,,,,,,
54,0,,html-keyboard-response,54,326294,0.0-4.6-2.6,u65ia9x0pk,2022-09-19 17:09:16.610,545d347afdf99b7f9fca22c7,3,77,48,32,26,32,Male,,,"
  <table>
  <tr height=300>
    <td width=300 height=300><img src=""static/images/cards/back_of_black_moons.svg"" width=""175px"" height=""250px""></img></td>
    <td width=300 height=300><img src=""static/images/cards/4_of_black_moons.svg"" width=""175px"" height=""250px""></img></td>
  </tr>
  <tr height=200>
    <td width=300><img src=""static/images/keys/z.svg"" width=""35%"" height=""75%""></img></td>
    <td width=300><img src=""static/images/keys/m.svg"" width=""35%"" height=""75%""></img></td>
  </tr>
</table>
  ",,,,,,,,,,,,,,,,,,,,,,,,,,,,
55,0,,html-keyboard-response,55,327796,0.0-4.6-3.6,u65ia9x0pk,2022-09-19 17:09:16.610,545d347afdf99b7f9fca22c7,3,77,48,32,26,32,Male,,,"<p style=""font-size:50px"">You Lose!
No points this round.</p>",,,,,,,,,,,,,,,,,,,,,,,,,,,,
56,0,,html-keyboard-response,56,328313,0.0-4.6-4.6,u65ia9x0pk,2022-09-19 17:09:16.610,545d347afdf99b7f9fca22c7,3,77,48,32,26,32,Male,,,,,,1.0,learning,6.0,A,,black,,moons,,,,A,black,moons,,1.0,1.0,NA,right,1332.4000000358,4.0,0.0,0.0,,,
57,0,,html-keyboard-response,57,329814,0.0-4.7-0.7,u65ia9x0pk,2022-09-19 17:09:16.610,545d347afdf99b7f9fca22c7,3,77,48,32,26,32,Male,,,"<img src=""static/images/cards/stack_of_red_moons.svg"" width=""175px"" height=""250px""></img>",,,,,,,,,,,,,,,,,,,,,,,,,,,,
58,0,,html-keyboard-response,58,331281,0.0-4.7-1.7,u65ia9x0pk,2022-09-19 17:09:16.610,545d347afdf99b7f9fca22c7,3,77,48,32,26,32,Male,957.6999999881,,"
  <table>
  <tr height=300>
    <td width=300 height=300><img src=""static/images/cards/back_of_red_moons.svg"" width=""175px"" height=""250px""></img></td>
    <td width=300 height=300><img src=""static/images/cards/back_of_red_moons.svg"" width=""175px"" height=""250px""></img></td>
  </tr>
  <tr height=200>
    <td width=300></td>
    <td width=300><img src=""static/images/keys/m.svg"" width=""35%"" height=""75%""></img></td>
  </tr>
</table>
  ",77.0,1.0,,,,,,,,,,,,,,,,,,,,,,,,,,
59,0,,html-keyboard-response,59,332790,0.0-4.7-2.7,u65ia9x0pk,2022-09-19 17:09:16.610,545d347afdf99b7f9fca22c7,3,77,48,32,26,32,Male,,,"
  <table>
  <tr height=300>
    <td width=300 height=300><img src=""static/images/cards/back_of_red_moons.svg"" width=""175px"" height=""250px""></img></td>
    <td width=300 height=300><img src=""static/images/cards/1_of_red_moons.svg"" width=""175px"" height=""250px""></img></td>
  </tr>
  <tr height=200>
    <td width=300></td>
    <td width=300><img src=""static/images/keys/m.svg"" width=""35%"" height=""75%""></img></td>
  </tr>
</table>
  ",,,,,,,,,,,,,,,,,,,,,,,,,,,,
60,0,,html-keyboard-response,60,334300,0.0-4.7-3.7,u65ia9x0pk,2022-09-19 17:09:16.610,545d347afdf99b7f9fca22c7,3,77,48,32,26,32,Male,,,"<p style=""font-size:50px"">You Lose!
No points this round.</p>",,,,,,,,,,,,,,,,,,,,,,,,,,,,
61,0,,html-keyboard-response,61,334807,0.0-4.7-4.7,u65ia9x0pk,2022-09-19 17:09:16.610,545d347afdf99b7f9fca22c7,3,77,48,32,26,32,Male,,,,,,1.0,learning,7.0,B,,red,,moons,,,,B,red,moons,,0.0,1.0,0,right,957.6999999881,1.0,0.0,0.0,,,
62,0,,html-keyboard-response,62,336322,0.0-4.8-0.8,u65ia9x0pk,2022-09-19 17:09:16.610,545d347afdf99b7f9fca22c7,3,77,48,32,26,32,Male,,,"<img src=""static/images/cards/stack_of_black_stars.svg"" width=""175px"" height=""250px""></img>",,,,,,,,,,,,,,,,,,,,,,,,,,,,
63,0,,html-keyboard-response,63,338074,0.0-4.8-1.8,u65ia9x0pk,2022-09-19 17:09:16.610,545d347afdf99b7f9fca22c7,3,77,48,32,26,32,Male,1239.3000000119,,"
  <table>
  <tr height=300>
    <td width=300 height=300><img src=""static/images/cards/back_of_black_stars.svg"" width=""175px"" height=""250px""></img></td>
    <td width=300 height=300><img src=""static/images/cards/back_of_black_stars.svg"" width=""175px"" height=""250px""></img></td>
  </tr>
  <tr height=200>
    <td width=300><img src=""static/images/keys/z.svg"" width=""35%"" height=""75%""></img></td>
    <td width=300><img src=""static/images/keys/m.svg"" width=""35%"" height=""75%""></img></td>
  </tr>
</table>
  ",90.0,1.0,,,,,,,,,,,,,,,,,,,,,,,,,,
64,0,,html-keyboard-response,64,339575,0.0-4.8-2.8,u65ia9x0pk,2022-09-19 17:09:16.610,545d347afdf99b7f9fca22c7,3,77,48,32,26,32,Male,,,"
  <table>
  <tr height=300>
    <td width=300 height=300><img src=""static/images/cards/10_of_black_stars.svg"" width=""175px"" height=""250px""></img></td>
    <td width=300 height=300><img src=""static/images/cards/back_of_black_stars.svg"" width=""175px"" height=""250px""></img></td>
  </tr>
  <tr height=200>
    <td width=300><img src=""static/images/keys/z.svg"" width=""35%"" height=""75%""></img></td>
    <td width=300><img src=""static/images/keys/m.svg"" width=""35%"" height=""75%""></img></td>
  </tr>
</table>
  ",,,,,,,,,,,,,,,,,,,,,,,,,,,,
65,0,,html-keyboard-response,65,341077,0.0-4.8-3.8,u65ia9x0pk,2022-09-19 17:09:16.610,545d347afdf99b7f9fca22c7,3,77,48,32,26,32,Male,,,"<p style=""font-size:50px"">You Lose!
No points this round.</p>",,,,,,,,,,,,,,,,,,,,,,,,,,,,
66,0,,html-keyboard-response,66,341596,0.0-4.8-4.8,u65ia9x0pk,2022-09-19 17:09:16.610,545d347afdf99b7f9fca22c7,3,77,48,32,26,32,Male,,,,,,1.0,learning,8.0,C,,black,,stars,,,,C,black,stars,,1.0,0.0,NA,left,1239.3000000119,10.0,1.0,0.0,,,
67,0,,html-keyboard-response,67,343097,0.0-4.9-0.9,u65ia9x0pk,2022-09-19 17:09:16.610,545d347afdf99b7f9fca22c7,3,77,48,32,26,32,Male,,,"<img src=""static/images/cards/stack_of_red_stars.svg"" width=""175px"" height=""250px""></img>",,,,,,,,,,,,,,,,,,,,,,,,,,,,
68,0,,html-keyboard-response,68,344531,0.0-4.9-1.9,u65ia9x0pk,2022-09-19 17:09:16.610,545d347afdf99b7f9fca22c7,3,77,48,32,26,32,Male,930.4000000358,,"
  <table>
  <tr height=300>
    <td width=300 height=300><img src=""static/images/cards/back_of_red_stars.svg"" width=""175px"" height=""250px""></img></td>
    <td width=300 height=300><img src=""static/images/cards/back_of_red_stars.svg"" width=""175px"" height=""250px""></img></td>
  </tr>
  <tr height=200>
    <td width=300></td>
    <td width=300><img src=""static/images/keys/m.svg"" width=""35%"" height=""75%""></img></td>
  </tr>
</table>
  ",77.0,1.0,,,,,,,,,,,,,,,,,,,,,,,,,,
69,0,,html-keyboard-response,69,346032,0.0-4.9-2.9,u65ia9x0pk,2022-09-19 17:09:16.610,545d347afdf99b7f9fca22c7,3,77,48,32,26,32,Male,,,"
  <table>
  <tr height=300>
    <td width=300 height=300><img src=""static/images/cards/back_of_red_stars.svg"" width=""175px"" height=""250px""></img></td>
    <td width=300 height=300><img src=""static/images/cards/2_of_red_stars.svg"" width=""175px"" height=""250px""></img></td>
  </tr>
  <tr height=200>
    <td width=300></td>
    <td width=300><img src=""static/images/keys/m.svg"" width=""35%"" height=""75%""></img></td>
  </tr>
</table>
  ",,,,,,,,,,,,,,,,,,,,,,,,,,,,
70,0,,html-keyboard-response,70,347539,0.0-4.9-3.9,u65ia9x0pk,2022-09-19 17:09:16.610,545d347afdf99b7f9fca22c7,3,77,48,32,26,32,Male,,,"<p style=""font-size:50px"">You Lose!
No points this round.</p>",,,,,,,,,,,,,,,,,,,,,,,,,,,,
71,0,,html-keyboard-response,71,348046,0.0-4.9-4.9,u65ia9x0pk,2022-09-19 17:09:16.610,545d347afdf99b7f9fca22c7,3,77,48,32,26,32,Male,,,,,,1.0,learning,9.0,D,,red,,stars,,,,D,red,stars,,0.0,0.0,0,right,930.4000000358,2.0,0.0,0.0,,,
72,0,,html-keyboard-response,72,349559,0.0-4.10-0.10,u65ia9x0pk,2022-09-19 17:09:16.610,545d347afdf99b7f9fca22c7,3,77,48,32,26,32,Male,,,"<img src=""static/images/cards/stack_of_red_bolts.svg"" width=""175px"" height=""250px""></img>",,,,,,,,,,,,,,,,,,,,,,,,,,,,
73,0,,html-keyboard-response,73,351036,0.0-4.10-1.10,u65ia9x0pk,2022-09-19 17:09:16.610,545d347afdf99b7f9fca22c7,3,77,48,32,26,32,Male,964.0,,"
  <table>
  <tr height=300>
    <td width=300 height=300><img src=""static/images/cards/back_of_red_bolts.svg"" width=""175px"" height=""250px""></img></td>
    <td width=300 height=300><img src=""static/images/cards/back_of_red_bolts.svg"" width=""175px"" height=""250px""></img></td>
  </tr>
  <tr height=200>
    <td width=300><img src=""static/images/keys/z.svg"" width=""35%"" height=""75%""></img></td>
    <td width=300><img src=""static/images/keys/m.svg"" width=""35%"" height=""75%""></img></td>
  </tr>
</table>
  ",77.0,1.0,,,,,,,,,,,,,,,,,,,,,,,,,,
74,0,,html-keyboard-response,74,352537,0.0-4.10-2.10,u65ia9x0pk,2022-09-19 17:09:16.610,545d347afdf99b7f9fca22c7,3,77,48,32,26,32,Male,,,"
  <table>
  <tr height=300>
    <td width=300 height=300><img src=""static/images/cards/back_of_red_bolts.svg"" width=""175px"" height=""250px""></img></td>
    <td width=300 height=300><img src=""static/images/cards/2_of_red_bolts.svg"" width=""175px"" height=""250px""></img></td>
  </tr>
  <tr height=200>
    <td width=300><img src=""static/images/keys/z.svg"" width=""35%"" height=""75%""></img></td>
    <td width=300><img src=""static/images/keys/m.svg"" width=""35%"" height=""75%""></img></td>
  </tr>
</table>
  ",,,,,,,,,,,,,,,,,,,,,,,,,,,,
75,0,,html-keyboard-response,75,354046,0.0-4.10-3.10,u65ia9x0pk,2022-09-19 17:09:16.610,545d347afdf99b7f9fca22c7,3,77,48,32,26,32,Male,,,"<p style=""font-size:50px"">You win!
+10 points this round!</p>",,,,,,,,,,,,,,,,,,,,,,,,,,,,
76,0,,html-keyboard-response,76,354555,0.0-4.10-4.10,u65ia9x0pk,2022-09-19 17:09:16.610,545d347afdf99b7f9fca22c7,3,77,48,32,26,32,Male,,,,,,1.0,learning,10.0,Xc,,red,,bolts,,,,Xc,red,bolts,,1.0,0.0,NA,right,964.0,2.0,0.0,1.0,,,
77,0,,html-keyboard-response,77,356065,0.0-4.11-0.11,u65ia9x0pk,2022-09-19 17:09:16.610,545d347afdf99b7f9fca22c7,3,77,48,32,26,32,Male,,,"<img src=""static/images/cards/stack_of_black_bolts.svg"" width=""175px"" height=""250px""></img>",,,,,,,,,,,,,,,,,,,,,,,,,,,,
78,0,,html-keyboard-response,78,357421,0.0-4.11-1.11,u65ia9x0pk,2022-09-19 17:09:16.610,545d347afdf99b7f9fca22c7,3,77,48,32,26,32,Male,847.3999999762,,"
  <table>
  <tr height=300>
    <td width=300 height=300><img src=""static/images/cards/back_of_black_bolts.svg"" width=""175px"" height=""250px""></img></td>
    <td width=300 height=300><img src=""static/images/cards/back_of_black_bolts.svg"" width=""175px"" height=""250px""></img></td>
  </tr>
  <tr height=200>
    <td width=300></td>
    <td width=300><img src=""static/images/keys/m.svg"" width=""35%"" height=""75%""></img></td>
  </tr>
</table>
  ",77.0,1.0,,,,,,,,,,,,,,,,,,,,,,,,,,
79,0,,html-keyboard-response,79,358921,0.0-4.11-2.11,u65ia9x0pk,2022-09-19 17:09:16.610,545d347afdf99b7f9fca22c7,3,77,48,32,26,32,Male,,,"
  <table>
  <tr height=300>
    <td width=300 height=300><img src=""static/images/cards/back_of_black_bolts.svg"" width=""175px"" height=""250px""></img></td>
    <td width=300 height=300><img src=""static/images/cards/1_of_black_bolts.svg"" width=""175px"" height=""250px""></img></td>
  </tr>
  <tr height=200>
    <td width=300></td>
    <td width=300><img src=""static/images/keys/m.svg"" width=""35%"" height=""75%""></img></td>
  </tr>
</table>
  ",,,,,,,,,,,,,,,,,,,,,,,,,,,,
80,0,,html-keyboard-response,80,360440,0.0-4.11-3.11,u65ia9x0pk,2022-09-19 17:09:16.610,545d347afdf99b7f9fca22c7,3,77,48,32,26,32,Male,,,"<p style=""font-size:50px"">You win!
+10 points this round!</p>",,,,,,,,,,,,,,,,,,,,,,,,,,,,
81,0,,html-keyboard-response,81,360957,0.0-4.11-4.11,u65ia9x0pk,2022-09-19 17:09:16.610,545d347afdf99b7f9fca22c7,3,77,48,32,26,32,Male,,,,,,1.0,learning,11.0,Xnc,,black,,bolts,,,,Xnc,black,bolts,,0.0,0.0,0,right,847.3999999762,1.0,0.0,1.0,,,
82,0,,html-keyboard-response,82,362466,0.0-4.12-0.12,u65ia9x0pk,2022-09-19 17:09:16.610,545d347afdf99b7f9fca22c7,3,77,48,32,26,32,Male,,,"<img src=""static/images/cards/stack_of_black_moons.svg"" width=""175px"" height=""250px""></img>",,,,,,,,,,,,,,,,,,,,,,,,,,,,
83,0,,html-keyboard-response,83,363653,0.0-4.12-1.12,u65ia9x0pk,2022-09-19 17:09:16.610,545d347afdf99b7f9fca22c7,3,77,48,32,26,32,Male,682.6000000238,,"
  <table>
  <tr height=300>
    <td width=300 height=300><img src=""static/images/cards/back_of_black_moons.svg"" width=""175px"" height=""250px""></img></td>
    <td width=300 height=300><img src=""static/images/cards/back_of_black_moons.svg"" width=""175px"" height=""250px""></img></td>
  </tr>
  <tr height=200>
    <td width=300><img src=""static/images/keys/z.svg"" width=""35%"" height=""75%""></img></td>
    <td width=300><img src=""static/images/keys/m.svg"" width=""35%"" height=""75%""></img></td>
  </tr>
</table>
  ",90.0,1.0,,,,,,,,,,,,,,,,,,,,,,,,,,
84,0,,html-keyboard-response,84,365167,0.0-4.12-2.12,u65ia9x0pk,2022-09-19 17:09:16.610,545d347afdf99b7f9fca22c7,3,77,48,32,26,32,Male,,,"
  <table>
  <tr height=300>
    <td width=300 height=300><img src=""static/images/cards/10_of_black_moons.svg"" width=""175px"" height=""250px""></img></td>
    <td width=300 height=300><img src=""static/images/cards/back_of_black_moons.svg"" width=""175px"" height=""250px""></img></td>
  </tr>
  <tr height=200>
    <td width=300><img src=""static/images/keys/z.svg"" width=""35%"" height=""75%""></img></td>
    <td width=300><img src=""static/images/keys/m.svg"" width=""35%"" height=""75%""></img></td>
  </tr>
</table>
  ",,,,,,,,,,,,,,,,,,,,,,,,,,,,
85,0,,html-keyboard-response,85,366668,0.0-4.12-3.12,u65ia9x0pk,2022-09-19 17:09:16.610,545d347afdf99b7f9fca22c7,3,77,48,32,26,32,Male,,,"<p style=""font-size:50px"">You win!
+10 points this round!</p>",,,,,,,,,,,,,,,,,,,,,,,,,,,,
86,0,,html-keyboard-response,86,367186,0.0-4.12-4.12,u65ia9x0pk,2022-09-19 17:09:16.610,545d347afdf99b7f9fca22c7,3,77,48,32,26,32,Male,,,,,,1.0,learning,12.0,A,,black,,moons,,,,A,black,moons,,1.0,1.0,NA,left,682.6000000238,10.0,1.0,1.0,,,
87,0,,html-keyboard-response,87,368687,0.0-4.13-0.13,u65ia9x0pk,2022-09-19 17:09:16.610,545d347afdf99b7f9fca22c7,3,77,48,32,26,32,Male,,,"<img src=""static/images/cards/stack_of_red_moons.svg"" width=""175px"" height=""250px""></img>",,,,,,,,,,,,,,,,,,,,,,,,,,,,
88,0,,html-keyboard-response,88,370046,0.0-4.13-1.13,u65ia9x0pk,2022-09-19 17:09:16.610,545d347afdf99b7f9fca22c7,3,77,48,32,26,32,Male,843.1000000238,,"
  <table>
  <tr height=300>
    <td width=300 height=300><img src=""static/images/cards/back_of_red_moons.svg"" width=""175px"" height=""250px""></img></td>
    <td width=300 height=300><img src=""static/images/cards/back_of_red_moons.svg"" width=""175px"" height=""250px""></img></td>
  </tr>
  <tr height=200>
    <td width=300><img src=""static/images/keys/z.svg"" width=""35%"" height=""75%""></img></td>
    <td width=300></td>
  </tr>
</table>
  ",90.0,1.0,,,,,,,,,,,,,,,,,,,,,,,,,,
89,0,,html-keyboard-response,89,371547,0.0-4.13-2.13,u65ia9x0pk,2022-09-19 17:09:16.610,545d347afdf99b7f9fca22c7,3,77,48,32,26,32,Male,,,"
  <table>
  <tr height=300>
    <td width=300 height=300><img src=""static/images/cards/3_of_red_moons.svg"" width=""175px"" height=""250px""></img></td>
    <td width=300 height=300><img src=""static/images/cards/back_of_red_moons.svg"" width=""175px"" height=""250px""></img></td>
  </tr>
  <tr height=200>
    <td width=300><img src=""static/images/keys/z.svg"" width=""35%"" height=""75%""></img></td>
    <td width=300></td>
  </tr>
</table>
  ",,,,,,,,,,,,,,,,,,,,,,,,,,,,
90,0,,html-keyboard-response,90,373053,0.0-4.13-3.13,u65ia9x0pk,2022-09-19 17:09:16.610,545d347afdf99b7f9fca22c7,3,77,48,32,26,32,Male,,,"<p style=""font-size:50px"">You Lose!
No points this round.</p>",,,,,,,,,,,,,,,,,,,,,,,,,,,,
91,0,,html-keyboard-response,91,373560,0.0-4.13-4.13,u65ia9x0pk,2022-09-19 17:09:16.610,545d347afdf99b7f9fca22c7,3,77,48,32,26,32,Male,,,,,,1.0,learning,13.0,B,,red,,moons,,,,B,red,moons,,0.0,1.0,1,left,843.1000000238,3.0,0.0,0.0,,,
92,0,,html-keyboard-response,92,375060,0.0-4.14-0.14,u65ia9x0pk,2022-09-19 17:09:16.610,545d347afdf99b7f9fca22c7,3,77,48,32,26,32,Male,,,"<img src=""static/images/cards/stack_of_black_stars.svg"" width=""175px"" height=""250px""></img>",,,,,,,,,,,,,,,,,,,,,,,,,,,,
93,0,,html-keyboard-response,93,376575,0.0-4.14-1.14,u65ia9x0pk,2022-09-19 17:09:16.610,545d347afdf99b7f9fca22c7,3,77,48,32,26,32,Male,1009.6000000238,,"
  <table>
  <tr height=300>
    <td width=300 height=300><img src=""static/images/cards/back_of_black_stars.svg"" width=""175px"" height=""250px""></img></td>
    <td width=300 height=300><img src=""static/images/cards/back_of_black_stars.svg"" width=""175px"" height=""250px""></img></td>
  </tr>
  <tr height=200>
    <td width=300><img src=""static/images/keys/z.svg"" width=""35%"" height=""75%""></img></td>
    <td width=300><img src=""static/images/keys/m.svg"" width=""35%"" height=""75%""></img></td>
  </tr>
</table>
  ",90.0,1.0,,,,,,,,,,,,,,,,,,,,,,,,,,
94,0,,html-keyboard-response,94,378077,0.0-4.14-2.14,u65ia9x0pk,2022-09-19 17:09:16.610,545d347afdf99b7f9fca22c7,3,77,48,32,26,32,Male,,,"
  <table>
  <tr height=300>
    <td width=300 height=300><img src=""static/images/cards/10_of_black_stars.svg"" width=""175px"" height=""250px""></img></td>
    <td width=300 height=300><img src=""static/images/cards/back_of_black_stars.svg"" width=""175px"" height=""250px""></img></td>
  </tr>
  <tr height=200>
    <td width=300><img src=""static/images/keys/z.svg"" width=""35%"" height=""75%""></img></td>
    <td width=300><img src=""static/images/keys/m.svg"" width=""35%"" height=""75%""></img></td>
  </tr>
</table>
  ",,,,,,,,,,,,,,,,,,,,,,,,,,,,
95,0,,html-keyboard-response,95,379592,0.0-4.14-3.14,u65ia9x0pk,2022-09-19 17:09:16.610,545d347afdf99b7f9fca22c7,3,77,48,32,26,32,Male,,,"<p style=""font-size:50px"">You win!
+10 points this round!</p>",,,,,,,,,,,,,,,,,,,,,,,,,,,,
96,0,,html-keyboard-response,96,380109,0.0-4.14-4.14,u65ia9x0pk,2022-09-19 17:09:16.610,545d347afdf99b7f9fca22c7,3,77,48,32,26,32,Male,,,,,,1.0,learning,14.0,C,,black,,stars,,,,C,black,stars,,1.0,0.0,NA,left,1009.6000000238,10.0,1.0,1.0,,,
97,0,,html-keyboard-response,97,381609,0.0-4.15-0.15,u65ia9x0pk,2022-09-19 17:09:16.610,545d347afdf99b7f9fca22c7,3,77,48,32,26,32,Male,,,"<img src=""static/images/cards/stack_of_red_stars.svg"" width=""175px"" height=""250px""></img>",,,,,,,,,,,,,,,,,,,,,,,,,,,,
98,0,,html-keyboard-response,98,383224,0.0-4.15-1.15,u65ia9x0pk,2022-09-19 17:09:16.610,545d347afdf99b7f9fca22c7,3,77,48,32,26,32,Male,1102.9000000358,,"
  <table>
  <tr height=300>
    <td width=300 height=300><img src=""static/images/cards/back_of_red_stars.svg"" width=""175px"" height=""250px""></img></td>
    <td width=300 height=300><img src=""static/images/cards/back_of_red_stars.svg"" width=""175px"" height=""250px""></img></td>
  </tr>
  <tr height=200>
    <td width=300></td>
    <td width=300><img src=""static/images/keys/m.svg"" width=""35%"" height=""75%""></img></td>
  </tr>
</table>
  ",77.0,1.0,,,,,,,,,,,,,,,,,,,,,,,,,,
99,0,,html-keyboard-response,99,384725,0.0-4.15-2.15,u65ia9x0pk,2022-09-19 17:09:16.610,545d347afdf99b7f9fca22c7,3,77,48,32,26,32,Male,,,"
  <table>
  <tr height=300>
    <td width=300 height=300><img src=""static/images/cards/back_of_red_stars.svg"" width=""175px"" height=""250px""></img></td>
    <td width=300 height=300><img src=""static/images/cards/7_of_red_stars.svg"" width=""175px"" height=""250px""></img></td>
  </tr>
  <tr height=200>
    <td width=300></td>
    <td width=300><img src=""static/images/keys/m.svg"" width=""35%"" height=""75%""></img></td>
  </tr>
</table>
  ",,,,,,,,,,,,,,,,,,,,,,,,,,,,
100,0,,html-keyboard-response,100,386236,0.0-4.15-3.15,u65ia9x0pk,2022-09-19 17:09:16.610,545d347afdf99b7f9fca22c7,3,77,48,32,26,32,Male,,,"<p style=""font-size:50px"">You Lose!
No points this round.</p>",,,,,,,,,,,,,,,,,,,,,,,,,,,,
101,0,,html-keyboard-response,101,386749,0.0-4.15-4.15,u65ia9x0pk,2022-09-19 17:09:16.610,545d347afdf99b7f9fca22c7,3,77,48,32,26,32,Male,,,,,,1.0,learning,15.0,D,,red,,stars,,,,D,red,stars,,0.0,0.0,0,right,1102.9000000358,7.0,1.0,0.0,,,
102,0,,html-keyboard-response,102,388249,0.0-4.16-0.16,u65ia9x0pk,2022-09-19 17:09:16.610,545d347afdf99b7f9fca22c7,3,77,48,32,26,32,Male,,,"<img src=""static/images/cards/stack_of_red_bolts.svg"" width=""175px"" height=""250px""></img>",,,,,,,,,,,,,,,,,,,,,,,,,,,,
103,0,,html-keyboard-response,103,389785,0.0-4.16-1.16,u65ia9x0pk,2022-09-19 17:09:16.610,545d347afdf99b7f9fca22c7,3,77,48,32,26,32,Male,1022.3000000119,,"
  <table>
  <tr height=300>
    <td width=300 height=300><img src=""static/images/cards/back_of_red_bolts.svg"" width=""175px"" height=""250px""></img></td>
    <td width=300 height=300><img src=""static/images/cards/back_of_red_bolts.svg"" width=""175px"" height=""250px""></img></td>
  </tr>
  <tr height=200>
    <td width=300><img src=""static/images/keys/z.svg"" width=""35%"" height=""75%""></img></td>
    <td width=300><img src=""static/images/keys/m.svg"" width=""35%"" height=""75%""></img></td>
  </tr>
</table>
  ",90.0,1.0,,,,,,,,,,,,,,,,,,,,,,,,,,
104,0,,html-keyboard-response,104,391286,0.0-4.16-2.16,u65ia9x0pk,2022-09-19 17:09:16.610,545d347afdf99b7f9fca22c7,3,77,48,32,26,32,Male,,,"
  <table>
  <tr height=300>
    <td width=300 height=300><img src=""static/images/cards/6_of_red_bolts.svg"" width=""175px"" height=""250px""></img></td>
    <td width=300 height=300><img src=""static/images/cards/back_of_red_bolts.svg"" width=""175px"" height=""250px""></img></td>
  </tr>
  <tr height=200>
    <td width=300><img src=""static/images/keys/z.svg"" width=""35%"" height=""75%""></img></td>
    <td width=300><img src=""static/images/keys/m.svg"" width=""35%"" height=""75%""></img></td>
  </tr>
</table>
  ",,,,,,,,,,,,,,,,,,,,,,,,,,,,
105,0,,html-keyboard-response,105,392787,0.0-4.16-3.16,u65ia9x0pk,2022-09-19 17:09:16.610,545d347afdf99b7f9fca22c7,3,77,48,32,26,32,Male,,,"<p style=""font-size:50px"">You win!
+10 points this round!</p>",,,,,,,,,,,,,,,,,,,,,,,,,,,,
106,0,,html-keyboard-response,106,393298,0.0-4.16-4.16,u65ia9x0pk,2022-09-19 17:09:16.610,545d347afdf99b7f9fca22c7,3,77,48,32,26,32,Male,,,,,,1.0,learning,16.0,Xc,,red,,bolts,,,,Xc,red,bolts,,1.0,0.0,NA,left,1022.3000000119,6.0,1.0,1.0,,,
107,0,,html-keyboard-response,107,394799,0.0-4.17-0.17,u65ia9x0pk,2022-09-19 17:09:16.610,545d347afdf99b7f9fca22c7,3,77,48,32,26,32,Male,,,"<img src=""static/images/cards/stack_of_black_bolts.svg"" width=""175px"" height=""250px""></img>",,,,,,,,,,,,,,,,,,,,,,,,,,,,
108,0,,html-keyboard-response,108,396730,0.0-4.17-1.17,u65ia9x0pk,2022-09-19 17:09:16.610,545d347afdf99b7f9fca22c7,3,77,48,32,26,32,Male,1427.8000000119,,"
  <table>
  <tr height=300>
    <td width=300 height=300><img src=""static/images/cards/back_of_black_bolts.svg"" width=""175px"" height=""250px""></img></td>
    <td width=300 height=300><img src=""static/images/cards/back_of_black_bolts.svg"" width=""175px"" height=""250px""></img></td>
  </tr>
  <tr height=200>
    <td width=300></td>
    <td width=300><img src=""static/images/keys/m.svg"" width=""35%"" height=""75%""></img></td>
  </tr>
</table>
  ",77.0,1.0,,,,,,,,,,,,,,,,,,,,,,,,,,
109,0,,html-keyboard-response,109,398244,0.0-4.17-2.17,u65ia9x0pk,2022-09-19 17:09:16.610,545d347afdf99b7f9fca22c7,3,77,48,32,26,32,Male,,,"
  <table>
  <tr height=300>
    <td width=300 height=300><img src=""static/images/cards/back_of_black_bolts.svg"" width=""175px"" height=""250px""></img></td>
    <td width=300 height=300><img src=""static/images/cards/10_of_black_bolts.svg"" width=""175px"" height=""250px""></img></td>
  </tr>
  <tr height=200>
    <td width=300></td>
    <td width=300><img src=""static/images/keys/m.svg"" width=""35%"" height=""75%""></img></td>
  </tr>
</table>
  ",,,,,,,,,,,,,,,,,,,,,,,,,,,,
110,0,,html-keyboard-response,110,399757,0.0-4.17-3.17,u65ia9x0pk,2022-09-19 17:09:16.610,545d347afdf99b7f9fca22c7,3,77,48,32,26,32,Male,,,"<p style=""font-size:50px"">You win!
+10 points this round!</p>",,,,,,,,,,,,,,,,,,,,,,,,,,,,
111,0,,html-keyboard-response,111,400274,0.0-4.17-4.17,u65ia9x0pk,2022-09-19 17:09:16.610,545d347afdf99b7f9fca22c7,3,77,48,32,26,32,Male,,,,,,1.0,learning,17.0,Xnc,,black,,bolts,,,,Xnc,black,bolts,,0.0,0.0,0,right,1427.8000000119,10.0,1.0,1.0,,,
112,0,,html-keyboard-response,112,401785,0.0-4.18-0.18,u65ia9x0pk,2022-09-19 17:09:16.610,545d347afdf99b7f9fca22c7,3,77,48,32,26,32,Male,,,"<img src=""static/images/cards/stack_of_black_moons.svg"" width=""175px"" height=""250px""></img>",,,,,,,,,,,,,,,,,,,,,,,,,,,,
113,0,,html-keyboard-response,113,403027,0.0-4.18-1.18,u65ia9x0pk,2022-09-19 17:09:16.610,545d347afdf99b7f9fca22c7,3,77,48,32,26,32,Male,734.1000000238,,"
  <table>
  <tr height=300>
    <td width=300 height=300><img src=""static/images/cards/back_of_black_moons.svg"" width=""175px"" height=""250px""></img></td>
    <td width=300 height=300><img src=""static/images/cards/back_of_black_moons.svg"" width=""175px"" height=""250px""></img></td>
  </tr>
  <tr height=200>
    <td width=300><img src=""static/images/keys/z.svg"" width=""35%"" height=""75%""></img></td>
    <td width=300><img src=""static/images/keys/m.svg"" width=""35%"" height=""75%""></img></td>
  </tr>
</table>
  ",90.0,1.0,,,,,,,,,,,,,,,,,,,,,,,,,,
114,0,,html-keyboard-response,114,404528,0.0-4.18-2.18,u65ia9x0pk,2022-09-19 17:09:16.610,545d347afdf99b7f9fca22c7,3,77,48,32,26,32,Male,,,"
  <table>
  <tr height=300>
    <td width=300 height=300><img src=""static/images/cards/9_of_black_moons.svg"" width=""175px"" height=""250px""></img></td>
    <td width=300 height=300><img src=""static/images/cards/back_of_black_moons.svg"" width=""175px"" height=""250px""></img></td>
  </tr>
  <tr height=200>
    <td width=300><img src=""static/images/keys/z.svg"" width=""35%"" height=""75%""></img></td>
    <td width=300><img src=""static/images/keys/m.svg"" width=""35%"" height=""75%""></img></td>
  </tr>
</table>
  ",,,,,,,,,,,,,,,,,,,,,,,,,,,,
115,0,,html-keyboard-response,115,406039,0.0-4.18-3.18,u65ia9x0pk,2022-09-19 17:09:16.610,545d347afdf99b7f9fca22c7,3,77,48,32,26,32,Male,,,"<p style=""font-size:50px"">You win!
+10 points this round!</p>",,,,,,,,,,,,,,,,,,,,,,,,,,,,
116,0,,html-keyboard-response,116,406546,0.0-4.18-4.18,u65ia9x0pk,2022-09-19 17:09:16.610,545d347afdf99b7f9fca22c7,3,77,48,32,26,32,Male,,,,,,1.0,learning,18.0,A,,black,,moons,,,,A,black,moons,,1.0,1.0,NA,left,734.1000000238,9.0,1.0,1.0,,,
117,0,,html-keyboard-response,117,408047,0.0-4.19-0.19,u65ia9x0pk,2022-09-19 17:09:16.610,545d347afdf99b7f9fca22c7,3,77,48,32,26,32,Male,,,"<img src=""static/images/cards/stack_of_red_moons.svg"" width=""175px"" height=""250px""></img>",,,,,,,,,,,,,,,,,,,,,,,,,,,,
118,0,,html-keyboard-response,118,409084,0.0-4.19-1.19,u65ia9x0pk,2022-09-19 17:09:16.610,545d347afdf99b7f9fca22c7,3,77,48,32,26,32,Male,529.3000000119,,"
  <table>
  <tr height=300>
    <td width=300 height=300><img src=""static/images/cards/back_of_red_moons.svg"" width=""175px"" height=""250px""></img></td>
    <td width=300 height=300><img src=""static/images/cards/back_of_red_moons.svg"" width=""175px"" height=""250px""></img></td>
  </tr>
  <tr height=200>
    <td width=300><img src=""static/images/keys/z.svg"" width=""35%"" height=""75%""></img></td>
    <td width=300></td>
  </tr>
</table>
  ",90.0,1.0,,,,,,,,,,,,,,,,,,,,,,,,,,
119,0,,html-keyboard-response,119,410592,0.0-4.19-2.19,u65ia9x0pk,2022-09-19 17:09:16.610,545d347afdf99b7f9fca22c7,3,77,48,32,26,32,Male,,,"
  <table>
  <tr height=300>
    <td width=300 height=300><img src=""static/images/cards/10_of_red_moons.svg"" width=""175px"" height=""250px""></img></td>
    <td width=300 height=300><img src=""static/images/cards/back_of_red_moons.svg"" width=""175px"" height=""250px""></img></td>
  </tr>
  <tr height=200>
    <td width=300><img src=""static/images/keys/z.svg"" width=""35%"" height=""75%""></img></td>
    <td width=300></td>
  </tr>
</table>
  ",,,,,,,,,,,,,,,,,,,,,,,,,,,,
120,0,,html-keyboard-response,120,412105,0.0-4.19-3.19,u65ia9x0pk,2022-09-19 17:09:16.610,545d347afdf99b7f9fca22c7,3,77,48,32,26,32,Male,,,"<p style=""font-size:50px"">You win!
+10 points this round!</p>",,,,,,,,,,,,,,,,,,,,,,,,,,,,
121,0,,html-keyboard-response,121,412614,0.0-4.19-4.19,u65ia9x0pk,2022-09-19 17:09:16.610,545d347afdf99b7f9fca22c7,3,77,48,32,26,32,Male,,,,,,1.0,learning,19.0,B,,red,,moons,,,,B,red,moons,,0.0,1.0,1,left,529.3000000119,10.0,1.0,1.0,,,
122,0,,html-keyboard-response,122,414114,0.0-4.20-0.20,u65ia9x0pk,2022-09-19 17:09:16.610,545d347afdf99b7f9fca22c7,3,77,48,32,26,32,Male,,,"<img src=""static/images/cards/stack_of_black_stars.svg"" width=""175px"" height=""250px""></img>",,,,,,,,,,,,,,,,,,,,,,,,,,,,
123,0,,html-keyboard-response,123,415413,0.0-4.20-1.20,u65ia9x0pk,2022-09-19 17:09:16.610,545d347afdf99b7f9fca22c7,3,77,48,32,26,32,Male,789.0,,"
  <table>
  <tr height=300>
    <td width=300 height=300><img src=""static/images/cards/back_of_black_stars.svg"" width=""175px"" height=""250px""></img></td>
    <td width=300 height=300><img src=""static/images/cards/back_of_black_stars.svg"" width=""175px"" height=""250px""></img></td>
  </tr>
  <tr height=200>
    <td width=300><img src=""static/images/keys/z.svg"" width=""35%"" height=""75%""></img></td>
    <td width=300><img src=""static/images/keys/m.svg"" width=""35%"" height=""75%""></img></td>
  </tr>
</table>
  ",77.0,1.0,,,,,,,,,,,,,,,,,,,,,,,,,,
124,0,,html-keyboard-response,124,416924,0.0-4.20-2.20,u65ia9x0pk,2022-09-19 17:09:16.610,545d347afdf99b7f9fca22c7,3,77,48,32,26,32,Male,,,"
  <table>
  <tr height=300>
    <td width=300 height=300><img src=""static/images/cards/back_of_black_stars.svg"" width=""175px"" height=""250px""></img></td>
    <td width=300 height=300><img src=""static/images/cards/4_of_black_stars.svg"" width=""175px"" height=""250px""></img></td>
  </tr>
  <tr height=200>
    <td width=300><img src=""static/images/keys/z.svg"" width=""35%"" height=""75%""></img></td>
    <td width=300><img src=""static/images/keys/m.svg"" width=""35%"" height=""75%""></img></td>
  </tr>
</table>
  ",,,,,,,,,,,,,,,,,,,,,,,,,,,,
125,0,,html-keyboard-response,125,418444,0.0-4.20-3.20,u65ia9x0pk,2022-09-19 17:09:16.610,545d347afdf99b7f9fca22c7,3,77,48,32,26,32,Male,,,"<p style=""font-size:50px"">You Lose!
No points this round.</p>",,,,,,,,,,,,,,,,,,,,,,,,,,,,
126,0,,html-keyboard-response,126,418950,0.0-4.20-4.20,u65ia9x0pk,2022-09-19 17:09:16.610,545d347afdf99b7f9fca22c7,3,77,48,32,26,32,Male,,,,,,1.0,learning,20.0,C,,black,,stars,,,,C,black,stars,,1.0,0.0,NA,right,789.0,4.0,0.0,0.0,,,
127,0,,html-keyboard-response,127,420451,0.0-4.21-0.21,u65ia9x0pk,2022-09-19 17:09:16.610,545d347afdf99b7f9fca22c7,3,77,48,32,26,32,Male,,,"<img src=""static/images/cards/stack_of_red_stars.svg"" width=""175px"" height=""250px""></img>",,,,,,,,,,,,,,,,,,,,,,,,,,,,
128,0,,html-keyboard-response,128,421909,0.0-4.21-1.21,u65ia9x0pk,2022-09-19 17:09:16.610,545d347afdf99b7f9fca22c7,3,77,48,32,26,32,Male,947.3000000119,,"
  <table>
  <tr height=300>
    <td width=300 height=300><img src=""static/images/cards/back_of_red_stars.svg"" width=""175px"" height=""250px""></img></td>
    <td width=300 height=300><img src=""static/images/cards/back_of_red_stars.svg"" width=""175px"" height=""250px""></img></td>
  </tr>
  <tr height=200>
    <td width=300><img src=""static/images/keys/z.svg"" width=""35%"" height=""75%""></img></td>
    <td width=300></td>
  </tr>
</table>
  ",90.0,1.0,,,,,,,,,,,,,,,,,,,,,,,,,,
129,0,,html-keyboard-response,129,423421,0.0-4.21-2.21,u65ia9x0pk,2022-09-19 17:09:16.610,545d347afdf99b7f9fca22c7,3,77,48,32,26,32,Male,,,"
  <table>
  <tr height=300>
    <td width=300 height=300><img src=""static/images/cards/10_of_red_stars.svg"" width=""175px"" height=""250px""></img></td>
    <td width=300 height=300><img src=""static/images/cards/back_of_red_stars.svg"" width=""175px"" height=""250px""></img></td>
  </tr>
  <tr height=200>
    <td width=300><img src=""static/images/keys/z.svg"" width=""35%"" height=""75%""></img></td>
    <td width=300></td>
  </tr>
</table>
  ",,,,,,,,,,,,,,,,,,,,,,,,,,,,
130,0,,html-keyboard-response,130,424936,0.0-4.21-3.21,u65ia9x0pk,2022-09-19 17:09:16.610,545d347afdf99b7f9fca22c7,3,77,48,32,26,32,Male,,,"<p style=""font-size:50px"">You Lose!
No points this round.</p>",,,,,,,,,,,,,,,,,,,,,,,,,,,,
131,0,,html-keyboard-response,131,425450,0.0-4.21-4.21,u65ia9x0pk,2022-09-19 17:09:16.610,545d347afdf99b7f9fca22c7,3,77,48,32,26,32,Male,,,,,,1.0,learning,21.0,D,,red,,stars,,,,D,red,stars,,0.0,0.0,1,left,947.3000000119,10.0,1.0,0.0,,,
132,0,,html-keyboard-response,132,426950,0.0-4.22-0.22,u65ia9x0pk,2022-09-19 17:09:16.610,545d347afdf99b7f9fca22c7,3,77,48,32,26,32,Male,,,"<img src=""static/images/cards/stack_of_red_bolts.svg"" width=""175px"" height=""250px""></img>",,,,,,,,,,,,,,,,,,,,,,,,,,,,
133,0,,html-keyboard-response,133,428606,0.0-4.22-1.22,u65ia9x0pk,2022-09-19 17:09:16.610,545d347afdf99b7f9fca22c7,3,77,48,32,26,32,Male,1139.9000000358,,"
  <table>
  <tr height=300>
    <td width=300 height=300><img src=""static/images/cards/back_of_red_bolts.svg"" width=""175px"" height=""250px""></img></td>
    <td width=300 height=300><img src=""static/images/cards/back_of_red_bolts.svg"" width=""175px"" height=""250px""></img></td>
  </tr>
  <tr height=200>
    <td width=300><img src=""static/images/keys/z.svg"" width=""35%"" height=""75%""></img></td>
    <td width=300><img src=""static/images/keys/m.svg"" width=""35%"" height=""75%""></img></td>
  </tr>
</table>
  ",77.0,1.0,,,,,,,,,,,,,,,,,,,,,,,,,,
134,0,,html-keyboard-response,134,430108,0.0-4.22-2.22,u65ia9x0pk,2022-09-19 17:09:16.610,545d347afdf99b7f9fca22c7,3,77,48,32,26,32,Male,,,"
  <table>
  <tr height=300>
    <td width=300 height=300><img src=""static/images/cards/back_of_red_bolts.svg"" width=""175px"" height=""250px""></img></td>
    <td width=300 height=300><img src=""static/images/cards/1_of_red_bolts.svg"" width=""175px"" height=""250px""></img></td>
  </tr>
  <tr height=200>
    <td width=300><img src=""static/images/keys/z.svg"" width=""35%"" height=""75%""></img></td>
    <td width=300><img src=""static/images/keys/m.svg"" width=""35%"" height=""75%""></img></td>
  </tr>
</table>
  ",,,,,,,,,,,,,,,,,,,,,,,,,,,,
135,0,,html-keyboard-response,135,431619,0.0-4.22-3.22,u65ia9x0pk,2022-09-19 17:09:16.610,545d347afdf99b7f9fca22c7,3,77,48,32,26,32,Male,,,"<p style=""font-size:50px"">You win!
+10 points this round!</p>",,,,,,,,,,,,,,,,,,,,,,,,,,,,
136,0,,html-keyboard-response,136,432134,0.0-4.22-4.22,u65ia9x0pk,2022-09-19 17:09:16.610,545d347afdf99b7f9fca22c7,3,77,48,32,26,32,Male,,,,,,1.0,learning,22.0,Xc,,red,,bolts,,,,Xc,red,bolts,,1.0,0.0,NA,right,1139.9000000358,1.0,0.0,1.0,,,
137,0,,html-keyboard-response,137,433635,0.0-4.23-0.23,u65ia9x0pk,2022-09-19 17:09:16.610,545d347afdf99b7f9fca22c7,3,77,48,32,26,32,Male,,,"<img src=""static/images/cards/stack_of_black_bolts.svg"" width=""175px"" height=""250px""></img>",,,,,,,,,,,,,,,,,,,,,,,,,,,,
138,0,,html-keyboard-response,138,435039,0.0-4.23-1.23,u65ia9x0pk,2022-09-19 17:09:16.610,545d347afdf99b7f9fca22c7,3,77,48,32,26,32,Male,895.0,,"
  <table>
  <tr height=300>
    <td width=300 height=300><img src=""static/images/cards/back_of_black_bolts.svg"" width=""175px"" height=""250px""></img></td>
    <td width=300 height=300><img src=""static/images/cards/back_of_black_bolts.svg"" width=""175px"" height=""250px""></img></td>
  </tr>
  <tr height=200>
    <td width=300></td>
    <td width=300><img src=""static/images/keys/m.svg"" width=""35%"" height=""75%""></img></td>
  </tr>
</table>
  ",77.0,1.0,,,,,,,,,,,,,,,,,,,,,,,,,,
139,0,,html-keyboard-response,139,436548,0.0-4.23-2.23,u65ia9x0pk,2022-09-19 17:09:16.610,545d347afdf99b7f9fca22c7,3,77,48,32,26,32,Male,,,"
  <table>
  <tr height=300>
    <td width=300 height=300><img src=""static/images/cards/back_of_black_bolts.svg"" width=""175px"" height=""250px""></img></td>
    <td width=300 height=300><img src=""static/images/cards/2_of_black_bolts.svg"" width=""175px"" height=""250px""></img></td>
  </tr>
  <tr height=200>
    <td width=300></td>
    <td width=300><img src=""static/images/keys/m.svg"" width=""35%"" height=""75%""></img></td>
  </tr>
</table>
  ",,,,,,,,,,,,,,,,,,,,,,,,,,,,
140,0,,html-keyboard-response,140,438061,0.0-4.23-3.23,u65ia9x0pk,2022-09-19 17:09:16.610,545d347afdf99b7f9fca22c7,3,77,48,32,26,32,Male,,,"<p style=""font-size:50px"">You win!
+10 points this round!</p>",,,,,,,,,,,,,,,,,,,,,,,,,,,,
141,0,,html-keyboard-response,141,438580,0.0-4.23-4.23,u65ia9x0pk,2022-09-19 17:09:16.610,545d347afdf99b7f9fca22c7,3,77,48,32,26,32,Male,,,,,,1.0,learning,23.0,Xnc,,black,,bolts,,,,Xnc,black,bolts,,0.0,0.0,0,right,895.0,2.0,0.0,1.0,,,
142,0,,call-function,142,438582,0.0-5.0,u65ia9x0pk,2022-09-19 17:09:16.610,545d347afdf99b7f9fca22c7,3,77,48,32,26,32,Male,,,,,,,,,,,,,,,,,,,,,,,,,,,,,,,
143,0,,image-keyboard-response,143,444617,0.0-6.0-0.0,u65ia9x0pk,2022-09-19 17:09:16.610,545d347afdf99b7f9fca22c7,3,77,48,32,26,32,Male,6034.3000000119,,static/images/instructions_CB_3/Slide20.png,39.0,,,,,,,,,,,,,,,,,,,,,,,,,,,
144,0,,image-keyboard-response,144,457666,0.0-6.1-0.1,u65ia9x0pk,2022-09-19 17:09:16.610,545d347afdf99b7f9fca22c7,3,77,48,32,26,32,Male,13049.1999999881,,static/images/instructions_CB_3/Slide21.png,37.0,,,,,,,,,,,,,,,,,,,,,,,,,,,
145,0,,image-keyboard-response,145,463827,0.0-6.2-0.2,u65ia9x0pk,2022-09-19 17:09:16.610,545d347afdf99b7f9fca22c7,3,77,48,32,26,32,Male,6160.1000000238,,static/images/instructions_CB_3/Slide20.png,39.0,,,,,,,,,,,,,,,,,,,,,,,,,,,
146,0,,image-keyboard-response,146,483126,0.0-6.3-0.3,u65ia9x0pk,2022-09-19 17:09:16.610,545d347afdf99b7f9fca22c7,3,77,48,32,26,32,Male,19298.1999999881,,static/images/instructions_CB_3/Slide21.png,37.0,,,,,,,,,,,,,,,,,,,,,,,,,,,
147,0,,image-keyboard-response,147,486334,0.0-6.4-0.4,u65ia9x0pk,2022-09-19 17:09:16.610,545d347afdf99b7f9fca22c7,3,77,48,32,26,32,Male,3207.3999999762,,static/images/instructions_CB_3/Slide20.png,39.0,,,,,,,,,,,,,,,,,,,,,,,,,,,
148,0,,image-keyboard-response,148,491007,0.0-6.5-0.5,u65ia9x0pk,2022-09-19 17:09:16.610,545d347afdf99b7f9fca22c7,3,77,48,32,26,32,Male,4672.1000000238,,static/images/instructions_CB_3/Slide21.png,39.0,,,,,,,,,,,,,,,,,,,,,,,,,,,
149,0,,image-keyboard-response,149,495895,0.0-6.6-0.6,u65ia9x0pk,2022-09-19 17:09:16.610,545d347afdf99b7f9fca22c7,3,77,48,32,26,32,Male,4888.1999999881,,static/images/instructions_CB_3/Slide22.png,39.0,,,,,,,,,,,,,,,,,,,,,,,,,,,
150,0,,image-keyboard-response,150,496687,0.0-6.7-0.7,u65ia9x0pk,2022-09-19 17:09:16.610,545d347afdf99b7f9fca22c7,3,77,48,32,26,32,Male,791.5,,static/images/instructions_CB_3/Slide23.png,39.0,,,,,,,,,,,,,,,,,,,,,,,,,,,
151,0,,image-keyboard-response,151,497080,0.0-6.8-0.8,u65ia9x0pk,2022-09-19 17:09:16.610,545d347afdf99b7f9fca22c7,3,77,48,32,26,32,Male,391.6000000238,,static/images/instructions_CB_3/Slide24.png,39.0,,,,,,,,,,,,,,,,,,,,,,,,,,,
152,0,,html-keyboard-response,152,501376,0.0-7.0-0.0,u65ia9x0pk,2022-09-19 17:09:16.610,545d347afdf99b7f9fca22c7,3,77,48,32,26,32,Male,4295.8999999762,,"
  <table>
  <tr height=300>
    <td width=300 height=300><img src=""static/images/cards/stack_of_red_stars.svg"" width=""175px"" height=""250px""></img></td>
    <td width=300 height=300><img src=""static/images/cards/stack_of_black_moons.svg"" width=""175px"" height=""250px""></img></td>
  </tr>
  <tr height=200>
    <td width=300><img src=""static/images/keys/w.svg"" width=""35%"" height=""75%""></img></td>
    <td width=300><img src=""static/images/keys/o.svg"" width=""35%"" height=""75%""></img></td>
  </tr>
</table>
  ",87.0,2.0,,,,,,,,,,,,,,,,,,,,,,,,,,
153,0,,html-keyboard-response,153,503584,0.0-7.0-1.0,u65ia9x0pk,2022-09-19 17:09:16.610,545d347afdf99b7f9fca22c7,3,77,48,32,26,32,Male,1696.8999999762,,"
  <table>
  <tr height=300>
    <td width=300 height=300><img src=""static/images/cards/back_of_red_stars.svg"" width=""175px"" height=""250px""></img></td>
    <td width=300 height=300><img src=""static/images/cards/back_of_red_stars.svg"" width=""175px"" height=""250px""></img></td>
  </tr>
  <tr height=200>
    <td width=300></td>
    <td width=300><img src=""static/images/keys/m.svg"" width=""35%"" height=""75%""></img></td>
  </tr>
</table>
  ",77.0,1.0,,,,,,,,,,,,,,,,,,,,,,,,,,
154,0,,html-keyboard-response,154,505096,0.0-7.0-2.0,u65ia9x0pk,2022-09-19 17:09:16.610,545d347afdf99b7f9fca22c7,3,77,48,32,26,32,Male,,,"
  <table>
  <tr height=300>
    <td width=300 height=300><img src=""static/images/cards/back_of_red_stars.svg"" width=""175px"" height=""250px""></img></td>
    <td width=300 height=300><img src=""static/images/cards/1_of_red_stars.svg"" width=""175px"" height=""250px""></img></td>
  </tr>
  <tr height=200>
    <td width=300></td>
    <td width=300><img src=""static/images/keys/m.svg"" width=""35%"" height=""75%""></img></td>
  </tr>
</table>
  ",,,,,,,,,,,,,,,,,,,,,,,,,,,,
155,0,,html-keyboard-response,155,506597,0.0-7.0-3.0,u65ia9x0pk,2022-09-19 17:09:16.610,545d347afdf99b7f9fca22c7,3,77,48,32,26,32,Male,,,"<p style=""font-size:50px"">You win!
+10 points this round!</p>",,,,,,,,,,,,,,,,,,,,,,,,,,,,
156,0,,html-keyboard-response,156,507115,0.0-7.0-4.0,u65ia9x0pk,2022-09-19 17:09:16.610,545d347afdf99b7f9fca22c7,3,77,48,32,26,32,Male,,,,,,1.0,choice,0.0,A,D,red,black,stars,moons,D,A,D,red,stars,4295.8999999762,0.0,0.0,0,right,1696.8999999762,1.0,0.0,1.0,,,
157,0,,html-keyboard-response,157,509121,0.0-7.1-0.1,u65ia9x0pk,2022-09-19 17:09:16.610,545d347afdf99b7f9fca22c7,3,77,48,32,26,32,Male,2005.5999999642,,"
  <table>
  <tr height=300>
    <td width=300 height=300><img src=""static/images/cards/stack_of_red_stars.svg"" width=""175px"" height=""250px""></img></td>
    <td width=300 height=300><img src=""static/images/cards/stack_of_red_bolts.svg"" width=""175px"" height=""250px""></img></td>
  </tr>
  <tr height=200>
    <td width=300><img src=""static/images/keys/w.svg"" width=""35%"" height=""75%""></img></td>
    <td width=300><img src=""static/images/keys/o.svg"" width=""35%"" height=""75%""></img></td>
  </tr>
</table>
  ",87.0,1.0,,,,,,,,,,,,,,,,,,,,,,,,,,
158,0,,html-keyboard-response,158,511161,0.0-7.1-1.1,u65ia9x0pk,2022-09-19 17:09:16.610,545d347afdf99b7f9fca22c7,3,77,48,32,26,32,Male,1539.0,,"
  <table>
  <tr height=300>
    <td width=300 height=300><img src=""static/images/cards/back_of_red_stars.svg"" width=""175px"" height=""250px""></img></td>
    <td width=300 height=300><img src=""static/images/cards/back_of_red_stars.svg"" width=""175px"" height=""250px""></img></td>
  </tr>
  <tr height=200>
    <td width=300><img src=""static/images/keys/z.svg"" width=""35%"" height=""75%""></img></td>
    <td width=300></td>
  </tr>
</table>
  ",90.0,1.0,,,,,,,,,,,,,,,,,,,,,,,,,,
159,0,,html-keyboard-response,159,512668,0.0-7.1-2.1,u65ia9x0pk,2022-09-19 17:09:16.610,545d347afdf99b7f9fca22c7,3,77,48,32,26,32,Male,,,"
  <table>
  <tr height=300>
    <td width=300 height=300><img src=""static/images/cards/8_of_red_stars.svg"" width=""175px"" height=""250px""></img></td>
    <td width=300 height=300><img src=""static/images/cards/back_of_red_stars.svg"" width=""175px"" height=""250px""></img></td>
  </tr>
  <tr height=200>
    <td width=300><img src=""static/images/keys/z.svg"" width=""35%"" height=""75%""></img></td>
    <td width=300></td>
  </tr>
</table>
  ",,,,,,,,,,,,,,,,,,,,,,,,,,,,
160,0,,html-keyboard-response,160,514182,0.0-7.1-3.1,u65ia9x0pk,2022-09-19 17:09:16.610,545d347afdf99b7f9fca22c7,3,77,48,32,26,32,Male,,,"<p style=""font-size:50px"">You win!
+10 points this round!</p>",,,,,,,,,,,,,,,,,,,,,,,,,,,,
161,0,,html-keyboard-response,161,514697,0.0-7.1-4.1,u65ia9x0pk,2022-09-19 17:09:16.610,545d347afdf99b7f9fca22c7,3,77,48,32,26,32,Male,,,,,,1.0,choice,1.0,D,Xc,red,red,stars,bolts,D,Xc,D,red,stars,2005.5999999642,0.0,0.0,1,left,1539.0,8.0,1.0,1.0,,,
162,0,,html-keyboard-response,162,516802,0.0-7.2-0.2,u65ia9x0pk,2022-09-19 17:09:16.610,545d347afdf99b7f9fca22c7,3,77,48,32,26,32,Male,2104.6999999881,,"
  <table>
  <tr height=300>
    <td width=300 height=300><img src=""static/images/cards/stack_of_black_stars.svg"" width=""175px"" height=""250px""></img></td>
    <td width=300 height=300><img src=""static/images/cards/stack_of_red_stars.svg"" width=""175px"" height=""250px""></img></td>
  </tr>
  <tr height=200>
    <td width=300><img src=""static/images/keys/w.svg"" width=""35%"" height=""75%""></img></td>
    <td width=300><img src=""static/images/keys/o.svg"" width=""35%"" height=""75%""></img></td>
  </tr>
</table>
  ",79.0,1.0,,,,,,,,,,,,,,,,,,,,,,,,,,
163,0,,html-keyboard-response,163,518434,0.0-7.2-1.2,u65ia9x0pk,2022-09-19 17:09:16.610,545d347afdf99b7f9fca22c7,3,77,48,32,26,32,Male,1131.3999999762,,"
  <table>
  <tr height=300>
    <td width=300 height=300><img src=""static/images/cards/back_of_red_stars.svg"" width=""175px"" height=""250px""></img></td>
    <td width=300 height=300><img src=""static/images/cards/back_of_red_stars.svg"" width=""175px"" height=""250px""></img></td>
  </tr>
  <tr height=200>
    <td width=300><img src=""static/images/keys/z.svg"" width=""35%"" height=""75%""></img></td>
    <td width=300></td>
  </tr>
</table>
  ",90.0,1.0,,,,,,,,,,,,,,,,,,,,,,,,,,
164,0,,html-keyboard-response,164,519935,0.0-7.2-2.2,u65ia9x0pk,2022-09-19 17:09:16.610,545d347afdf99b7f9fca22c7,3,77,48,32,26,32,Male,,,"
  <table>
  <tr height=300>
    <td width=300 height=300><img src=""static/images/cards/7_of_red_stars.svg"" width=""175px"" height=""250px""></img></td>
    <td width=300 height=300><img src=""static/images/cards/back_of_red_stars.svg"" width=""175px"" height=""250px""></img></td>
  </tr>
  <tr height=200>
    <td width=300><img src=""static/images/keys/z.svg"" width=""35%"" height=""75%""></img></td>
    <td width=300></td>
  </tr>
</table>
  ",,,,,,,,,,,,,,,,,,,,,,,,,,,,
165,0,,html-keyboard-response,165,521458,0.0-7.2-3.2,u65ia9x0pk,2022-09-19 17:09:16.610,545d347afdf99b7f9fca22c7,3,77,48,32,26,32,Male,,,"<p style=""font-size:50px"">You Lose!
No points this round.</p>",,,,,,,,,,,,,,,,,,,,,,,,,,,,
166,0,,html-keyboard-response,166,521971,0.0-7.2-4.2,u65ia9x0pk,2022-09-19 17:09:16.610,545d347afdf99b7f9fca22c7,3,77,48,32,26,32,Male,,,,,,1.0,choice,2.0,C,D,black,red,stars,stars,C,D,D,red,stars,2104.6999999881,0.0,0.0,1,left,1131.3999999762,7.0,1.0,0.0,,,
167,0,,html-keyboard-response,167,523851,0.0-7.3-0.3,u65ia9x0pk,2022-09-19 17:09:16.610,545d347afdf99b7f9fca22c7,3,77,48,32,26,32,Male,1880.1999999881,,"
  <table>
  <tr height=300>
    <td width=300 height=300><img src=""static/images/cards/stack_of_red_stars.svg"" width=""175px"" height=""250px""></img></td>
    <td width=300 height=300><img src=""static/images/cards/stack_of_red_moons.svg"" width=""175px"" height=""250px""></img></td>
  </tr>
  <tr height=200>
    <td width=300><img src=""static/images/keys/w.svg"" width=""35%"" height=""75%""></img></td>
    <td width=300><img src=""static/images/keys/o.svg"" width=""35%"" height=""75%""></img></td>
  </tr>
</table>
  ",79.0,1.0,,,,,,,,,,,,,,,,,,,,,,,,,,
168,0,,html-keyboard-response,168,525780,0.0-7.3-1.3,u65ia9x0pk,2022-09-19 17:09:16.610,545d347afdf99b7f9fca22c7,3,77,48,32,26,32,Male,1416.6999999881,,"
  <table>
  <tr height=300>
    <td width=300 height=300><img src=""static/images/cards/back_of_red_moons.svg"" width=""175px"" height=""250px""></img></td>
    <td width=300 height=300><img src=""static/images/cards/back_of_red_moons.svg"" width=""175px"" height=""250px""></img></td>
  </tr>
  <tr height=200>
    <td width=300><img src=""static/images/keys/z.svg"" width=""35%"" height=""75%""></img></td>
    <td width=300></td>
  </tr>
</table>
  ",90.0,1.0,,,,,,,,,,,,,,,,,,,,,,,,,,
169,0,,html-keyboard-response,169,527291,0.0-7.3-2.3,u65ia9x0pk,2022-09-19 17:09:16.610,545d347afdf99b7f9fca22c7,3,77,48,32,26,32,Male,,,"
  <table>
  <tr height=300>
    <td width=300 height=300><img src=""static/images/cards/7_of_red_moons.svg"" width=""175px"" height=""250px""></img></td>
    <td width=300 height=300><img src=""static/images/cards/back_of_red_moons.svg"" width=""175px"" height=""250px""></img></td>
  </tr>
  <tr height=200>
    <td width=300><img src=""static/images/keys/z.svg"" width=""35%"" height=""75%""></img></td>
    <td width=300></td>
  </tr>
</table>
  ",,,,,,,,,,,,,,,,,,,,,,,,,,,,
170,0,,html-keyboard-response,170,528804,0.0-7.3-3.3,u65ia9x0pk,2022-09-19 17:09:16.610,545d347afdf99b7f9fca22c7,3,77,48,32,26,32,Male,,,"<p style=""font-size:50px"">You win!
+10 points this round!</p>",,,,,,,,,,,,,,,,,,,,,,,,,,,,
171,0,,html-keyboard-response,171,529320,0.0-7.3-4.3,u65ia9x0pk,2022-09-19 17:09:16.610,545d347afdf99b7f9fca22c7,3,77,48,32,26,32,Male,,,,,,1.0,choice,3.0,B,D,red,red,stars,moons,D,B,B,red,moons,1880.1999999881,0.0,1.0,1,left,1416.6999999881,7.0,1.0,1.0,,,
172,0,,html-keyboard-response,172,532181,0.0-7.4-0.4,u65ia9x0pk,2022-09-19 17:09:16.610,545d347afdf99b7f9fca22c7,3,77,48,32,26,32,Male,2859.3999999762,,"
  <table>
  <tr height=300>
    <td width=300 height=300><img src=""static/images/cards/stack_of_red_stars.svg"" width=""175px"" height=""250px""></img></td>
    <td width=300 height=300><img src=""static/images/cards/stack_of_black_stars.svg"" width=""175px"" height=""250px""></img></td>
  </tr>
  <tr height=200>
    <td width=300><img src=""static/images/keys/w.svg"" width=""35%"" height=""75%""></img></td>
    <td width=300><img src=""static/images/keys/o.svg"" width=""35%"" height=""75%""></img></td>
  </tr>
</table>
  ",87.0,1.0,,,,,,,,,,,,,,,,,,,,,,,,,,
173,0,,html-keyboard-response,173,534189,0.0-7.4-1.4,u65ia9x0pk,2022-09-19 17:09:16.610,545d347afdf99b7f9fca22c7,3,77,48,32,26,32,Male,1496.0999999642,,"
  <table>
  <tr height=300>
    <td width=300 height=300><img src=""static/images/cards/back_of_red_stars.svg"" width=""175px"" height=""250px""></img></td>
    <td width=300 height=300><img src=""static/images/cards/back_of_red_stars.svg"" width=""175px"" height=""250px""></img></td>
  </tr>
  <tr height=200>
    <td width=300><img src=""static/images/keys/z.svg"" width=""35%"" height=""75%""></img></td>
    <td width=300></td>
  </tr>
</table>
  ",90.0,1.0,,,,,,,,,,,,,,,,,,,,,,,,,,
174,0,,html-keyboard-response,174,535690,0.0-7.4-2.4,u65ia9x0pk,2022-09-19 17:09:16.610,545d347afdf99b7f9fca22c7,3,77,48,32,26,32,Male,,,"
  <table>
  <tr height=300>
    <td width=300 height=300><img src=""static/images/cards/9_of_red_stars.svg"" width=""175px"" height=""250px""></img></td>
    <td width=300 height=300><img src=""static/images/cards/back_of_red_stars.svg"" width=""175px"" height=""250px""></img></td>
  </tr>
  <tr height=200>
    <td width=300><img src=""static/images/keys/z.svg"" width=""35%"" height=""75%""></img></td>
    <td width=300></td>
  </tr>
</table>
  ",,,,,,,,,,,,,,,,,,,,,,,,,,,,
175,0,,html-keyboard-response,175,537199,0.0-7.4-3.4,u65ia9x0pk,2022-09-19 17:09:16.610,545d347afdf99b7f9fca22c7,3,77,48,32,26,32,Male,,,"<p style=""font-size:50px"">You win!
+10 points this round!</p>",,,,,,,,,,,,,,,,,,,,,,,,,,,,
176,0,,html-keyboard-response,176,537716,0.0-7.4-4.4,u65ia9x0pk,2022-09-19 17:09:16.610,545d347afdf99b7f9fca22c7,3,77,48,32,26,32,Male,,,,,,1.0,choice,4.0,C,D,red,black,stars,stars,D,C,D,red,stars,2859.3999999762,0.0,0.0,1,left,1496.0999999642,9.0,1.0,1.0,,,
177,0,,html-keyboard-response,177,541662,0.0-7.5-0.5,u65ia9x0pk,2022-09-19 17:09:16.610,545d347afdf99b7f9fca22c7,3,77,48,32,26,32,Male,3944.9000000358,,"
  <table>
  <tr height=300>
    <td width=300 height=300><img src=""static/images/cards/stack_of_red_moons.svg"" width=""175px"" height=""250px""></img></td>
    <td width=300 height=300><img src=""static/images/cards/stack_of_black_moons.svg"" width=""175px"" height=""250px""></img></td>
  </tr>
  <tr height=200>
    <td width=300><img src=""static/images/keys/w.svg"" width=""35%"" height=""75%""></img></td>
    <td width=300><img src=""static/images/keys/o.svg"" width=""35%"" height=""75%""></img></td>
  </tr>
</table>
  ",87.0,1.0,,,,,,,,,,,,,,,,,,,,,,,,,,
178,0,,html-keyboard-response,178,543558,0.0-7.5-1.5,u65ia9x0pk,2022-09-19 17:09:16.610,545d347afdf99b7f9fca22c7,3,77,48,32,26,32,Male,1383.1999999881,,"
  <table>
  <tr height=300>
    <td width=300 height=300><img src=""static/images/cards/back_of_red_moons.svg"" width=""175px"" height=""250px""></img></td>
    <td width=300 height=300><img src=""static/images/cards/back_of_red_moons.svg"" width=""175px"" height=""250px""></img></td>
  </tr>
  <tr height=200>
    <td width=300><img src=""static/images/keys/z.svg"" width=""35%"" height=""75%""></img></td>
    <td width=300></td>
  </tr>
</table>
  ",90.0,1.0,,,,,,,,,,,,,,,,,,,,,,,,,,
179,0,,html-keyboard-response,179,545067,0.0-7.5-2.5,u65ia9x0pk,2022-09-19 17:09:16.610,545d347afdf99b7f9fca22c7,3,77,48,32,26,32,Male,,,"
  <table>
  <tr height=300>
    <td width=300 height=300><img src=""static/images/cards/8_of_red_moons.svg"" width=""175px"" height=""250px""></img></td>
    <td width=300 height=300><img src=""static/images/cards/back_of_red_moons.svg"" width=""175px"" height=""250px""></img></td>
  </tr>
  <tr height=200>
    <td width=300><img src=""static/images/keys/z.svg"" width=""35%"" height=""75%""></img></td>
    <td width=300></td>
  </tr>
</table>
  ",,,,,,,,,,,,,,,,,,,,,,,,,,,,
180,0,,html-keyboard-response,180,546585,0.0-7.5-3.5,u65ia9x0pk,2022-09-19 17:09:16.610,545d347afdf99b7f9fca22c7,3,77,48,32,26,32,Male,,,"<p style=""font-size:50px"">You win!
+10 points this round!</p>",,,,,,,,,,,,,,,,,,,,,,,,,,,,
181,0,,html-keyboard-response,181,547100,0.0-7.5-4.5,u65ia9x0pk,2022-09-19 17:09:16.610,545d347afdf99b7f9fca22c7,3,77,48,32,26,32,Male,,,,,,1.0,choice,5.0,A,B,red,black,moons,moons,B,A,B,red,moons,3944.9000000358,0.0,1.0,1,left,1383.1999999881,8.0,1.0,1.0,,,
182,0,,html-keyboard-response,182,549855,0.0-7.6-0.6,u65ia9x0pk,2022-09-19 17:09:16.610,545d347afdf99b7f9fca22c7,3,77,48,32,26,32,Male,2754.0,,"
  <table>
  <tr height=300>
    <td width=300 height=300><img src=""static/images/cards/stack_of_black_moons.svg"" width=""175px"" height=""250px""></img></td>
    <td width=300 height=300><img src=""static/images/cards/stack_of_red_stars.svg"" width=""175px"" height=""250px""></img></td>
  </tr>
  <tr height=200>
    <td width=300><img src=""static/images/keys/w.svg"" width=""35%"" height=""75%""></img></td>
    <td width=300><img src=""static/images/keys/o.svg"" width=""35%"" height=""75%""></img></td>
  </tr>
</table>
  ",79.0,1.0,,,,,,,,,,,,,,,,,,,,,,,,,,
183,0,,html-keyboard-response,183,551439,0.0-7.6-1.6,u65ia9x0pk,2022-09-19 17:09:16.610,545d347afdf99b7f9fca22c7,3,77,48,32,26,32,Male,1083.2999999523,,"
  <table>
  <tr height=300>
    <td width=300 height=300><img src=""static/images/cards/back_of_red_stars.svg"" width=""175px"" height=""250px""></img></td>
    <td width=300 height=300><img src=""static/images/cards/back_of_red_stars.svg"" width=""175px"" height=""250px""></img></td>
  </tr>
  <tr height=200>
    <td width=300></td>
    <td width=300><img src=""static/images/keys/m.svg"" width=""35%"" height=""75%""></img></td>
  </tr>
</table>
  ",77.0,1.0,,,,,,,,,,,,,,,,,,,,,,,,,,
184,0,,html-keyboard-response,184,552940,0.0-7.6-2.6,u65ia9x0pk,2022-09-19 17:09:16.610,545d347afdf99b7f9fca22c7,3,77,48,32,26,32,Male,,,"
  <table>
  <tr height=300>
    <td width=300 height=300><img src=""static/images/cards/back_of_red_stars.svg"" width=""175px"" height=""250px""></img></td>
    <td width=300 height=300><img src=""static/images/cards/10_of_red_stars.svg"" width=""175px"" height=""250px""></img></td>
  </tr>
  <tr height=200>
    <td width=300></td>
    <td width=300><img src=""static/images/keys/m.svg"" width=""35%"" height=""75%""></img></td>
  </tr>
</table>
  ",,,,,,,,,,,,,,,,,,,,,,,,,,,,
185,0,,html-keyboard-response,185,554449,0.0-7.6-3.6,u65ia9x0pk,2022-09-19 17:09:16.610,545d347afdf99b7f9fca22c7,3,77,48,32,26,32,Male,,,"<p style=""font-size:50px"">You Lose!
No points this round.</p>",,,,,,,,,,,,,,,,,,,,,,,,,,,,
186,0,,html-keyboard-response,186,554966,0.0-7.6-4.6,u65ia9x0pk,2022-09-19 17:09:16.610,545d347afdf99b7f9fca22c7,3,77,48,32,26,32,Male,,,,,,1.0,choice,6.0,A,D,black,red,moons,stars,A,D,D,red,stars,2754.0,0.0,0.0,0,right,1083.2999999523,10.0,1.0,0.0,,,
187,0,,html-keyboard-response,187,557352,0.0-7.7-0.7,u65ia9x0pk,2022-09-19 17:09:16.610,545d347afdf99b7f9fca22c7,3,77,48,32,26,32,Male,2385.0,,"
  <table>
  <tr height=300>
    <td width=300 height=300><img src=""static/images/cards/stack_of_red_stars.svg"" width=""175px"" height=""250px""></img></td>
    <td width=300 height=300><img src=""static/images/cards/stack_of_black_moons.svg"" width=""175px"" height=""250px""></img></td>
  </tr>
  <tr height=200>
    <td width=300><img src=""static/images/keys/w.svg"" width=""35%"" height=""75%""></img></td>
    <td width=300><img src=""static/images/keys/o.svg"" width=""35%"" height=""75%""></img></td>
  </tr>
</table>
  ",79.0,1.0,,,,,,,,,,,,,,,,,,,,,,,,,,
188,0,,html-keyboard-response,188,559256,0.0-7.7-1.7,u65ia9x0pk,2022-09-19 17:09:16.610,545d347afdf99b7f9fca22c7,3,77,48,32,26,32,Male,1395.3999999762,,"
  <table>
  <tr height=300>
    <td width=300 height=300><img src=""static/images/cards/back_of_black_moons.svg"" width=""175px"" height=""250px""></img></td>
    <td width=300 height=300><img src=""static/images/cards/back_of_black_moons.svg"" width=""175px"" height=""250px""></img></td>
  </tr>
  <tr height=200>
    <td width=300><img src=""static/images/keys/z.svg"" width=""35%"" height=""75%""></img></td>
    <td width=300><img src=""static/images/keys/m.svg"" width=""35%"" height=""75%""></img></td>
  </tr>
</table>
  ",90.0,1.0,,,,,,,,,,,,,,,,,,,,,,,,,,
189,0,,html-keyboard-response,189,560758,0.0-7.7-2.7,u65ia9x0pk,2022-09-19 17:09:16.610,545d347afdf99b7f9fca22c7,3,77,48,32,26,32,Male,,,"
  <table>
  <tr height=300>
    <td width=300 height=300><img src=""static/images/cards/4_of_black_moons.svg"" width=""175px"" height=""250px""></img></td>
    <td width=300 height=300><img src=""static/images/cards/back_of_black_moons.svg"" width=""175px"" height=""250px""></img></td>
  </tr>
  <tr height=200>
    <td width=300><img src=""static/images/keys/z.svg"" width=""35%"" height=""75%""></img></td>
    <td width=300><img src=""static/images/keys/m.svg"" width=""35%"" height=""75%""></img></td>
  </tr>
</table>
  ",,,,,,,,,,,,,,,,,,,,,,,,,,,,
190,0,,html-keyboard-response,190,562274,0.0-7.7-3.7,u65ia9x0pk,2022-09-19 17:09:16.610,545d347afdf99b7f9fca22c7,3,77,48,32,26,32,Male,,,"<p style=""font-size:50px"">You Lose!
No points this round.</p>",,,,,,,,,,,,,,,,,,,,,,,,,,,,
191,0,,html-keyboard-response,191,562792,0.0-7.7-4.7,u65ia9x0pk,2022-09-19 17:09:16.610,545d347afdf99b7f9fca22c7,3,77,48,32,26,32,Male,,,,,,1.0,choice,7.0,A,D,red,black,stars,moons,D,A,A,black,moons,2385.0,1.0,1.0,NA,left,1395.3999999762,4.0,0.0,0.0,,,
192,0,,html-keyboard-response,192,565601,0.0-7.8-0.8,u65ia9x0pk,2022-09-19 17:09:16.610,545d347afdf99b7f9fca22c7,3,77,48,32,26,32,Male,2808.2999999523,,"
  <table>
  <tr height=300>
    <td width=300 height=300><img src=""static/images/cards/stack_of_red_moons.svg"" width=""175px"" height=""250px""></img></td>
    <td width=300 height=300><img src=""static/images/cards/stack_of_black_moons.svg"" width=""175px"" height=""250px""></img></td>
  </tr>
  <tr height=200>
    <td width=300><img src=""static/images/keys/w.svg"" width=""35%"" height=""75%""></img></td>
    <td width=300><img src=""static/images/keys/o.svg"" width=""35%"" height=""75%""></img></td>
  </tr>
</table>
  ",87.0,1.0,,,,,,,,,,,,,,,,,,,,,,,,,,
193,0,,html-keyboard-response,193,567073,0.0-7.8-1.8,u65ia9x0pk,2022-09-19 17:09:16.610,545d347afdf99b7f9fca22c7,3,77,48,32,26,32,Male,966.6999999881,,"
  <table>
  <tr height=300>
    <td width=300 height=300><img src=""static/images/cards/back_of_red_moons.svg"" width=""175px"" height=""250px""></img></td>
    <td width=300 height=300><img src=""static/images/cards/back_of_red_moons.svg"" width=""175px"" height=""250px""></img></td>
  </tr>
  <tr height=200>
    <td width=300></td>
    <td width=300><img src=""static/images/keys/m.svg"" width=""35%"" height=""75%""></img></td>
  </tr>
</table>
  ",77.0,1.0,,,,,,,,,,,,,,,,,,,,,,,,,,
194,0,,html-keyboard-response,194,568574,0.0-7.8-2.8,u65ia9x0pk,2022-09-19 17:09:16.610,545d347afdf99b7f9fca22c7,3,77,48,32,26,32,Male,,,"
  <table>
  <tr height=300>
    <td width=300 height=300><img src=""static/images/cards/back_of_red_moons.svg"" width=""175px"" height=""250px""></img></td>
    <td width=300 height=300><img src=""static/images/cards/4_of_red_moons.svg"" width=""175px"" height=""250px""></img></td>
  </tr>
  <tr height=200>
    <td width=300></td>
    <td width=300><img src=""static/images/keys/m.svg"" width=""35%"" height=""75%""></img></td>
  </tr>
</table>
  ",,,,,,,,,,,,,,,,,,,,,,,,,,,,
195,0,,html-keyboard-response,195,570093,0.0-7.8-3.8,u65ia9x0pk,2022-09-19 17:09:16.610,545d347afdf99b7f9fca22c7,3,77,48,32,26,32,Male,,,"<p style=""font-size:50px"">You Lose!
No points this round.</p>",,,,,,,,,,,,,,,,,,,,,,,,,,,,
196,0,,html-keyboard-response,196,570599,0.0-7.8-4.8,u65ia9x0pk,2022-09-19 17:09:16.610,545d347afdf99b7f9fca22c7,3,77,48,32,26,32,Male,,,,,,1.0,choice,8.0,A,B,red,black,moons,moons,B,A,B,red,moons,2808.2999999523,0.0,1.0,0,right,966.6999999881,4.0,0.0,0.0,,,
197,0,,html-keyboard-response,197,573554,0.0-7.9-0.9,u65ia9x0pk,2022-09-19 17:09:16.610,545d347afdf99b7f9fca22c7,3,77,48,32,26,32,Male,2954.6999999881,,"
  <table>
  <tr height=300>
    <td width=300 height=300><img src=""static/images/cards/stack_of_black_stars.svg"" width=""175px"" height=""250px""></img></td>
    <td width=300 height=300><img src=""static/images/cards/stack_of_red_moons.svg"" width=""175px"" height=""250px""></img></td>
  </tr>
  <tr height=200>
    <td width=300><img src=""static/images/keys/w.svg"" width=""35%"" height=""75%""></img></td>
    <td width=300><img src=""static/images/keys/o.svg"" width=""35%"" height=""75%""></img></td>
  </tr>
</table>
  ",79.0,1.0,,,,,,,,,,,,,,,,,,,,,,,,,,
198,0,,html-keyboard-response,198,575354,0.0-7.9-1.9,u65ia9x0pk,2022-09-19 17:09:16.610,545d347afdf99b7f9fca22c7,3,77,48,32,26,32,Male,1299.1000000238,,"
  <table>
  <tr height=300>
    <td width=300 height=300><img src=""static/images/cards/back_of_red_moons.svg"" width=""175px"" height=""250px""></img></td>
    <td width=300 height=300><img src=""static/images/cards/back_of_red_moons.svg"" width=""175px"" height=""250px""></img></td>
  </tr>
  <tr height=200>
    <td width=300><img src=""static/images/keys/z.svg"" width=""35%"" height=""75%""></img></td>
    <td width=300></td>
  </tr>
</table>
  ",90.0,1.0,,,,,,,,,,,,,,,,,,,,,,,,,,
199,0,,html-keyboard-response,199,576855,0.0-7.9-2.9,u65ia9x0pk,2022-09-19 17:09:16.610,545d347afdf99b7f9fca22c7,3,77,48,32,26,32,Male,,,"
  <table>
  <tr height=300>
    <td width=300 height=300><img src=""static/images/cards/8_of_red_moons.svg"" width=""175px"" height=""250px""></img></td>
    <td width=300 height=300><img src=""static/images/cards/back_of_red_moons.svg"" width=""175px"" height=""250px""></img></td>
  </tr>
  <tr height=200>
    <td width=300><img src=""static/images/keys/z.svg"" width=""35%"" height=""75%""></img></td>
    <td width=300></td>
  </tr>
</table>
  ",,,,,,,,,,,,,,,,,,,,,,,,,,,,
200,0,,html-keyboard-response,200,578377,0.0-7.9-3.9,u65ia9x0pk,2022-09-19 17:09:16.610,545d347afdf99b7f9fca22c7,3,77,48,32,26,32,Male,,,"<p style=""font-size:50px"">You win!
+10 points this round!</p>",,,,,,,,,,,,,,,,,,,,,,,,,,,,
201,0,,html-keyboard-response,201,578883,0.0-7.9-4.9,u65ia9x0pk,2022-09-19 17:09:16.610,545d347afdf99b7f9fca22c7,3,77,48,32,26,32,Male,,,,,,1.0,choice,9.0,B,C,black,red,stars,moons,C,B,B,red,moons,2954.6999999881,0.0,1.0,1,left,1299.1000000238,8.0,1.0,1.0,,,
202,0,,html-keyboard-response,202,582059,0.0-7.10-0.10,u65ia9x0pk,2022-09-19 17:09:16.610,545d347afdf99b7f9fca22c7,3,77,48,32,26,32,Male,3176.1000000238,,"
  <table>
  <tr height=300>
    <td width=300 height=300><img src=""static/images/cards/stack_of_red_stars.svg"" width=""175px"" height=""250px""></img></td>
    <td width=300 height=300><img src=""static/images/cards/stack_of_black_moons.svg"" width=""175px"" height=""250px""></img></td>
  </tr>
  <tr height=200>
    <td width=300><img src=""static/images/keys/w.svg"" width=""35%"" height=""75%""></img></td>
    <td width=300><img src=""static/images/keys/o.svg"" width=""35%"" height=""75%""></img></td>
  </tr>
</table>
  ",87.0,1.0,,,,,,,,,,,,,,,,,,,,,,,,,,
203,0,,html-keyboard-response,203,583579,0.0-7.10-1.10,u65ia9x0pk,2022-09-19 17:09:16.610,545d347afdf99b7f9fca22c7,3,77,48,32,26,32,Male,1011.3000000119,,"
  <table>
  <tr height=300>
    <td width=300 height=300><img src=""static/images/cards/back_of_red_stars.svg"" width=""175px"" height=""250px""></img></td>
    <td width=300 height=300><img src=""static/images/cards/back_of_red_stars.svg"" width=""175px"" height=""250px""></img></td>
  </tr>
  <tr height=200>
    <td width=300><img src=""static/images/keys/z.svg"" width=""35%"" height=""75%""></img></td>
    <td width=300></td>
  </tr>
</table>
  ",90.0,1.0,,,,,,,,,,,,,,,,,,,,,,,,,,
204,0,,html-keyboard-response,204,585080,0.0-7.10-2.10,u65ia9x0pk,2022-09-19 17:09:16.610,545d347afdf99b7f9fca22c7,3,77,48,32,26,32,Male,,,"
  <table>
  <tr height=300>
    <td width=300 height=300><img src=""static/images/cards/6_of_red_stars.svg"" width=""175px"" height=""250px""></img></td>
    <td width=300 height=300><img src=""static/images/cards/back_of_red_stars.svg"" width=""175px"" height=""250px""></img></td>
  </tr>
  <tr height=200>
    <td width=300><img src=""static/images/keys/z.svg"" width=""35%"" height=""75%""></img></td>
    <td width=300></td>
  </tr>
</table>
  ",,,,,,,,,,,,,,,,,,,,,,,,,,,,
205,0,,html-keyboard-response,205,586586,0.0-7.10-3.10,u65ia9x0pk,2022-09-19 17:09:16.610,545d347afdf99b7f9fca22c7,3,77,48,32,26,32,Male,,,"<p style=""font-size:50px"">You Lose!
No points this round.</p>",,,,,,,,,,,,,,,,,,,,,,,,,,,,
206,0,,html-keyboard-response,206,587105,0.0-7.10-4.10,u65ia9x0pk,2022-09-19 17:09:16.610,545d347afdf99b7f9fca22c7,3,77,48,32,26,32,Male,,,,,,1.0,choice,10.0,A,D,red,black,stars,moons,D,A,D,red,stars,3176.1000000238,0.0,0.0,1,left,1011.3000000119,6.0,1.0,0.0,,,
207,0,,html-keyboard-response,207,589692,0.0-7.11-0.11,u65ia9x0pk,2022-09-19 17:09:16.610,545d347afdf99b7f9fca22c7,3,77,48,32,26,32,Male,2586.0999999642,,"
  <table>
  <tr height=300>
    <td width=300 height=300><img src=""static/images/cards/stack_of_black_moons.svg"" width=""175px"" height=""250px""></img></td>
    <td width=300 height=300><img src=""static/images/cards/stack_of_black_stars.svg"" width=""175px"" height=""250px""></img></td>
  </tr>
  <tr height=200>
    <td width=300><img src=""static/images/keys/w.svg"" width=""35%"" height=""75%""></img></td>
    <td width=300><img src=""static/images/keys/o.svg"" width=""35%"" height=""75%""></img></td>
  </tr>
</table>
  ",87.0,1.0,,,,,,,,,,,,,,,,,,,,,,,,,,
208,0,,html-keyboard-response,208,591852,0.0-7.11-1.11,u65ia9x0pk,2022-09-19 17:09:16.610,545d347afdf99b7f9fca22c7,3,77,48,32,26,32,Male,1648.5999999642,,"
  <table>
  <tr height=300>
    <td width=300 height=300><img src=""static/images/cards/back_of_black_moons.svg"" width=""175px"" height=""250px""></img></td>
    <td width=300 height=300><img src=""static/images/cards/back_of_black_moons.svg"" width=""175px"" height=""250px""></img></td>
  </tr>
  <tr height=200>
    <td width=300><img src=""static/images/keys/z.svg"" width=""35%"" height=""75%""></img></td>
    <td width=300><img src=""static/images/keys/m.svg"" width=""35%"" height=""75%""></img></td>
  </tr>
</table>
  ",90.0,1.0,,,,,,,,,,,,,,,,,,,,,,,,,,
209,0,,html-keyboard-response,209,593368,0.0-7.11-2.11,u65ia9x0pk,2022-09-19 17:09:16.610,545d347afdf99b7f9fca22c7,3,77,48,32,26,32,Male,,,"
  <table>
  <tr height=300>
    <td width=300 height=300><img src=""static/images/cards/2_of_black_moons.svg"" width=""175px"" height=""250px""></img></td>
    <td width=300 height=300><img src=""static/images/cards/back_of_black_moons.svg"" width=""175px"" height=""250px""></img></td>
  </tr>
  <tr height=200>
    <td width=300><img src=""static/images/keys/z.svg"" width=""35%"" height=""75%""></img></td>
    <td width=300><img src=""static/images/keys/m.svg"" width=""35%"" height=""75%""></img></td>
  </tr>
</table>
  ",,,,,,,,,,,,,,,,,,,,,,,,,,,,
210,0,,html-keyboard-response,210,594884,0.0-7.11-3.11,u65ia9x0pk,2022-09-19 17:09:16.610,545d347afdf99b7f9fca22c7,3,77,48,32,26,32,Male,,,"<p style=""font-size:50px"">You Lose!
No points this round.</p>",,,,,,,,,,,,,,,,,,,,,,,,,,,,
211,0,,html-keyboard-response,211,595399,0.0-7.11-4.11,u65ia9x0pk,2022-09-19 17:09:16.610,545d347afdf99b7f9fca22c7,3,77,48,32,26,32,Male,,,,,,1.0,choice,11.0,A,C,black,black,moons,stars,A,C,A,black,moons,2586.0999999642,1.0,1.0,NA,left,1648.5999999642,2.0,0.0,0.0,,,
212,0,,html-keyboard-response,212,597477,0.0-7.12-0.12,u65ia9x0pk,2022-09-19 17:09:16.610,545d347afdf99b7f9fca22c7,3,77,48,32,26,32,Male,2077.5,,"
  <table>
  <tr height=300>
    <td width=300 height=300><img src=""static/images/cards/stack_of_black_moons.svg"" width=""175px"" height=""250px""></img></td>
    <td width=300 height=300><img src=""static/images/cards/stack_of_red_stars.svg"" width=""175px"" height=""250px""></img></td>
  </tr>
  <tr height=200>
    <td width=300><img src=""static/images/keys/w.svg"" width=""35%"" height=""75%""></img></td>
    <td width=300><img src=""static/images/keys/o.svg"" width=""35%"" height=""75%""></img></td>
  </tr>
</table>
  ",87.0,1.0,,,,,,,,,,,,,,,,,,,,,,,,,,
213,0,,html-keyboard-response,213,599677,0.0-7.12-1.12,u65ia9x0pk,2022-09-19 17:09:16.610,545d347afdf99b7f9fca22c7,3,77,48,32,26,32,Male,1693.9000000358,,"
  <table>
  <tr height=300>
    <td width=300 height=300><img src=""static/images/cards/back_of_black_moons.svg"" width=""175px"" height=""250px""></img></td>
    <td width=300 height=300><img src=""static/images/cards/back_of_black_moons.svg"" width=""175px"" height=""250px""></img></td>
  </tr>
  <tr height=200>
    <td width=300><img src=""static/images/keys/z.svg"" width=""35%"" height=""75%""></img></td>
    <td width=300><img src=""static/images/keys/m.svg"" width=""35%"" height=""75%""></img></td>
  </tr>
</table>
  ",77.0,1.0,,,,,,,,,,,,,,,,,,,,,,,,,,
214,0,,html-keyboard-response,214,601192,0.0-7.12-2.12,u65ia9x0pk,2022-09-19 17:09:16.610,545d347afdf99b7f9fca22c7,3,77,48,32,26,32,Male,,,"
  <table>
  <tr height=300>
    <td width=300 height=300><img src=""static/images/cards/back_of_black_moons.svg"" width=""175px"" height=""250px""></img></td>
    <td width=300 height=300><img src=""static/images/cards/1_of_black_moons.svg"" width=""175px"" height=""250px""></img></td>
  </tr>
  <tr height=200>
    <td width=300><img src=""static/images/keys/z.svg"" width=""35%"" height=""75%""></img></td>
    <td width=300><img src=""static/images/keys/m.svg"" width=""35%"" height=""75%""></img></td>
  </tr>
</table>
  ",,,,,,,,,,,,,,,,,,,,,,,,,,,,
215,0,,html-keyboard-response,215,602704,0.0-7.12-3.12,u65ia9x0pk,2022-09-19 17:09:16.610,545d347afdf99b7f9fca22c7,3,77,48,32,26,32,Male,,,"<p style=""font-size:50px"">You Lose!
No points this round.</p>",,,,,,,,,,,,,,,,,,,,,,,,,,,,
216,0,,html-keyboard-response,216,603216,0.0-7.12-4.12,u65ia9x0pk,2022-09-19 17:09:16.610,545d347afdf99b7f9fca22c7,3,77,48,32,26,32,Male,,,,,,1.0,choice,12.0,A,D,black,red,moons,stars,A,D,A,black,moons,2077.5,1.0,1.0,NA,right,1693.9000000358,1.0,0.0,0.0,,,
217,0,,html-keyboard-response,217,605542,0.0-7.13-0.13,u65ia9x0pk,2022-09-19 17:09:16.610,545d347afdf99b7f9fca22c7,3,77,48,32,26,32,Male,2325.7000000477,,"
  <table>
  <tr height=300>
    <td width=300 height=300><img src=""static/images/cards/stack_of_black_moons.svg"" width=""175px"" height=""250px""></img></td>
    <td width=300 height=300><img src=""static/images/cards/stack_of_red_moons.svg"" width=""175px"" height=""250px""></img></td>
  </tr>
  <tr height=200>
    <td width=300><img src=""static/images/keys/w.svg"" width=""35%"" height=""75%""></img></td>
    <td width=300><img src=""static/images/keys/o.svg"" width=""35%"" height=""75%""></img></td>
  </tr>
</table>
  ",79.0,1.0,,,,,,,,,,,,,,,,,,,,,,,,,,
218,0,,html-keyboard-response,218,607134,0.0-7.13-1.13,u65ia9x0pk,2022-09-19 17:09:16.610,545d347afdf99b7f9fca22c7,3,77,48,32,26,32,Male,1090.1000000238,,"
  <table>
  <tr height=300>
    <td width=300 height=300><img src=""static/images/cards/back_of_red_moons.svg"" width=""175px"" height=""250px""></img></td>
    <td width=300 height=300><img src=""static/images/cards/back_of_red_moons.svg"" width=""175px"" height=""250px""></img></td>
  </tr>
  <tr height=200>
    <td width=300><img src=""static/images/keys/z.svg"" width=""35%"" height=""75%""></img></td>
    <td width=300></td>
  </tr>
</table>
  ",90.0,1.0,,,,,,,,,,,,,,,,,,,,,,,,,,
219,0,,html-keyboard-response,219,608635,0.0-7.13-2.13,u65ia9x0pk,2022-09-19 17:09:16.610,545d347afdf99b7f9fca22c7,3,77,48,32,26,32,Male,,,"
  <table>
  <tr height=300>
    <td width=300 height=300><img src=""static/images/cards/4_of_red_moons.svg"" width=""175px"" height=""250px""></img></td>
    <td width=300 height=300><img src=""static/images/cards/back_of_red_moons.svg"" width=""175px"" height=""250px""></img></td>
  </tr>
  <tr height=200>
    <td width=300><img src=""static/images/keys/z.svg"" width=""35%"" height=""75%""></img></td>
    <td width=300></td>
  </tr>
</table>
  ",,,,,,,,,,,,,,,,,,,,,,,,,,,,
220,0,,html-keyboard-response,220,610145,0.0-7.13-3.13,u65ia9x0pk,2022-09-19 17:09:16.610,545d347afdf99b7f9fca22c7,3,77,48,32,26,32,Male,,,"<p style=""font-size:50px"">You Lose!
No points this round.</p>",,,,,,,,,,,,,,,,,,,,,,,,,,,,
221,0,,html-keyboard-response,221,610658,0.0-7.13-4.13,u65ia9x0pk,2022-09-19 17:09:16.610,545d347afdf99b7f9fca22c7,3,77,48,32,26,32,Male,,,,,,1.0,choice,13.0,A,B,black,red,moons,moons,A,B,B,red,moons,2325.7000000477,0.0,1.0,1,left,1090.1000000238,4.0,0.0,0.0,,,
222,0,,html-keyboard-response,222,615664,0.0-7.14-0.14,u65ia9x0pk,2022-09-19 17:09:16.610,545d347afdf99b7f9fca22c7,3,77,48,32,26,32,Male,,,"
  <table>
  <tr height=300>
    <td width=300 height=300><img src=""static/images/cards/stack_of_red_moons.svg"" width=""175px"" height=""250px""></img></td>
    <td width=300 height=300><img src=""static/images/cards/stack_of_black_moons.svg"" width=""175px"" height=""250px""></img></td>
  </tr>
  <tr height=200>
    <td width=300><img src=""static/images/keys/w.svg"" width=""35%"" height=""75%""></img></td>
    <td width=300><img src=""static/images/keys/o.svg"" width=""35%"" height=""75%""></img></td>
  </tr>
</table>
  ",,,,,,,,,,,,,,,,,,,,,,,,,,,,
223,0,,html-keyboard-response,223,616181,0.0-7.14-1.14,u65ia9x0pk,2022-09-19 17:09:16.610,545d347afdf99b7f9fca22c7,3,77,48,32,26,32,Male,,,,,,,,,,,,,,,,,,,,,,,,,,,,,,,
224,0,,html-keyboard-response,224,616186,0.0-7.14-2.14,u65ia9x0pk,2022-09-19 17:09:16.610,545d347afdf99b7f9fca22c7,3,77,48,32,26,32,Male,,,,,,,,,,,,,,,,,,,,,,,,,,,,,,,
225,0,,html-keyboard-response,225,617688,0.0-7.14-3.14,u65ia9x0pk,2022-09-19 17:09:16.610,545d347afdf99b7f9fca22c7,3,77,48,32,26,32,Male,,,"<p style=""font-size:50px"">Too slow!</p>",,,,,,,,,,,,,,,,,,,,,,,,,,,,
226,0,,html-keyboard-response,226,618195,0.0-7.14-4.14,u65ia9x0pk,2022-09-19 17:09:16.610,545d347afdf99b7f9fca22c7,3,77,48,32,26,32,Male,,,,,,1.0,choice,14.0,A,B,red,black,moons,moons,B,A,,,,,0.0,1.0,1,,,4.0,0.0,0.0,,,
227,0,,html-keyboard-response,227,620848,0.0-7.15-0.15,u65ia9x0pk,2022-09-19 17:09:16.610,545d347afdf99b7f9fca22c7,3,77,48,32,26,32,Male,2652.1000000238,,"
  <table>
  <tr height=300>
    <td width=300 height=300><img src=""static/images/cards/stack_of_red_moons.svg"" width=""175px"" height=""250px""></img></td>
    <td width=300 height=300><img src=""static/images/cards/stack_of_red_stars.svg"" width=""175px"" height=""250px""></img></td>
  </tr>
  <tr height=200>
    <td width=300><img src=""static/images/keys/w.svg"" width=""35%"" height=""75%""></img></td>
    <td width=300><img src=""static/images/keys/o.svg"" width=""35%"" height=""75%""></img></td>
  </tr>
</table>
  ",87.0,1.0,,,,,,,,,,,,,,,,,,,,,,,,,,
228,0,,html-keyboard-response,228,623048,0.0-7.15-1.15,u65ia9x0pk,2022-09-19 17:09:16.610,545d347afdf99b7f9fca22c7,3,77,48,32,26,32,Male,1692.8999999762,,"
  <table>
  <tr height=300>
    <td width=300 height=300><img src=""static/images/cards/back_of_red_moons.svg"" width=""175px"" height=""250px""></img></td>
    <td width=300 height=300><img src=""static/images/cards/back_of_red_moons.svg"" width=""175px"" height=""250px""></img></td>
  </tr>
  <tr height=200>
    <td width=300><img src=""static/images/keys/z.svg"" width=""35%"" height=""75%""></img></td>
    <td width=300></td>
  </tr>
</table>
  ",90.0,2.0,,,,,,,,,,,,,,,,,,,,,,,,,,
229,0,,html-keyboard-response,229,624562,0.0-7.15-2.15,u65ia9x0pk,2022-09-19 17:09:16.610,545d347afdf99b7f9fca22c7,3,77,48,32,26,32,Male,,,"
  <table>
  <tr height=300>
    <td width=300 height=300><img src=""static/images/cards/4_of_red_moons.svg"" width=""175px"" height=""250px""></img></td>
    <td width=300 height=300><img src=""static/images/cards/back_of_red_moons.svg"" width=""175px"" height=""250px""></img></td>
  </tr>
  <tr height=200>
    <td width=300><img src=""static/images/keys/z.svg"" width=""35%"" height=""75%""></img></td>
    <td width=300></td>
  </tr>
</table>
  ",,,,,,,,,,,,,,,,,,,,,,,,,,,,
230,0,,html-keyboard-response,230,626074,0.0-7.15-3.15,u65ia9x0pk,2022-09-19 17:09:16.610,545d347afdf99b7f9fca22c7,3,77,48,32,26,32,Male,,,"<p style=""font-size:50px"">You Lose!
No points this round.</p>",,,,,,,,,,,,,,,,,,,,,,,,,,,,
231,0,,html-keyboard-response,231,626583,0.0-7.15-4.15,u65ia9x0pk,2022-09-19 17:09:16.610,545d347afdf99b7f9fca22c7,3,77,48,32,26,32,Male,,,,,,1.0,choice,15.0,B,D,red,red,moons,stars,B,D,B,red,moons,2652.1000000238,0.0,1.0,1,left,1692.8999999762,4.0,0.0,0.0,,,
232,0,,html-keyboard-response,232,629321,0.0-7.16-0.16,u65ia9x0pk,2022-09-19 17:09:16.610,545d347afdf99b7f9fca22c7,3,77,48,32,26,32,Male,2737.5999999642,,"
  <table>
  <tr height=300>
    <td width=300 height=300><img src=""static/images/cards/stack_of_red_moons.svg"" width=""175px"" height=""250px""></img></td>
    <td width=300 height=300><img src=""static/images/cards/stack_of_red_stars.svg"" width=""175px"" height=""250px""></img></td>
  </tr>
  <tr height=200>
    <td width=300><img src=""static/images/keys/w.svg"" width=""35%"" height=""75%""></img></td>
    <td width=300><img src=""static/images/keys/o.svg"" width=""35%"" height=""75%""></img></td>
  </tr>
</table>
  ",87.0,1.0,,,,,,,,,,,,,,,,,,,,,,,,,,
233,0,,html-keyboard-response,233,631082,0.0-7.16-1.16,u65ia9x0pk,2022-09-19 17:09:16.610,545d347afdf99b7f9fca22c7,3,77,48,32,26,32,Male,1259.1000000238,,"
  <table>
  <tr height=300>
    <td width=300 height=300><img src=""static/images/cards/back_of_red_moons.svg"" width=""175px"" height=""250px""></img></td>
    <td width=300 height=300><img src=""static/images/cards/back_of_red_moons.svg"" width=""175px"" height=""250px""></img></td>
  </tr>
  <tr height=200>
    <td width=300></td>
    <td width=300><img src=""static/images/keys/m.svg"" width=""35%"" height=""75%""></img></td>
  </tr>
</table>
  ",77.0,1.0,,,,,,,,,,,,,,,,,,,,,,,,,,
234,0,,html-keyboard-response,234,632583,0.0-7.16-2.16,u65ia9x0pk,2022-09-19 17:09:16.610,545d347afdf99b7f9fca22c7,3,77,48,32,26,32,Male,,,"
  <table>
  <tr height=300>
    <td width=300 height=300><img src=""static/images/cards/back_of_red_moons.svg"" width=""175px"" height=""250px""></img></td>
    <td width=300 height=300><img src=""static/images/cards/4_of_red_moons.svg"" width=""175px"" height=""250px""></img></td>
  </tr>
  <tr height=200>
    <td width=300></td>
    <td width=300><img src=""static/images/keys/m.svg"" width=""35%"" height=""75%""></img></td>
  </tr>
</table>
  ",,,,,,,,,,,,,,,,,,,,,,,,,,,,
235,0,,html-keyboard-response,235,634090,0.0-7.16-3.16,u65ia9x0pk,2022-09-19 17:09:16.610,545d347afdf99b7f9fca22c7,3,77,48,32,26,32,Male,,,"<p style=""font-size:50px"">You Lose!
No points this round.</p>",,,,,,,,,,,,,,,,,,,,,,,,,,,,
236,0,,html-keyboard-response,236,634607,0.0-7.16-4.16,u65ia9x0pk,2022-09-19 17:09:16.610,545d347afdf99b7f9fca22c7,3,77,48,32,26,32,Male,,,,,,1.0,choice,16.0,B,D,red,red,moons,stars,B,D,B,red,moons,2737.5999999642,0.0,1.0,0,right,1259.1000000238,4.0,0.0,0.0,,,
237,0,,html-keyboard-response,237,636786,0.0-7.17-0.17,u65ia9x0pk,2022-09-19 17:09:16.610,545d347afdf99b7f9fca22c7,3,77,48,32,26,32,Male,2178.6000000238,,"
  <table>
  <tr height=300>
    <td width=300 height=300><img src=""static/images/cards/stack_of_red_stars.svg"" width=""175px"" height=""250px""></img></td>
    <td width=300 height=300><img src=""static/images/cards/stack_of_black_moons.svg"" width=""175px"" height=""250px""></img></td>
  </tr>
  <tr height=200>
    <td width=300><img src=""static/images/keys/w.svg"" width=""35%"" height=""75%""></img></td>
    <td width=300><img src=""static/images/keys/o.svg"" width=""35%"" height=""75%""></img></td>
  </tr>
</table>
  ",87.0,1.0,,,,,,,,,,,,,,,,,,,,,,,,,,
238,0,,html-keyboard-response,238,638275,0.0-7.17-1.17,u65ia9x0pk,2022-09-19 17:09:16.610,545d347afdf99b7f9fca22c7,3,77,48,32,26,32,Male,985.1999999881,,"
  <table>
  <tr height=300>
    <td width=300 height=300><img src=""static/images/cards/back_of_red_stars.svg"" width=""175px"" height=""250px""></img></td>
    <td width=300 height=300><img src=""static/images/cards/back_of_red_stars.svg"" width=""175px"" height=""250px""></img></td>
  </tr>
  <tr height=200>
    <td width=300></td>
    <td width=300><img src=""static/images/keys/m.svg"" width=""35%"" height=""75%""></img></td>
  </tr>
</table>
  ",77.0,1.0,,,,,,,,,,,,,,,,,,,,,,,,,,
239,0,,html-keyboard-response,239,639781,0.0-7.17-2.17,u65ia9x0pk,2022-09-19 17:09:16.610,545d347afdf99b7f9fca22c7,3,77,48,32,26,32,Male,,,"
