,index,success,trial_type,trial_index,time_elapsed,internal_node_id,subject,date,prol_id,ctbl,sense_of_control_A,sense_of_control_B,sense_of_control_C,sense_of_control_D,age,gender,rt,url,stimulus,key_press,npress,is_data_trial,phase,trial,deck1,deck2,col1,col2,sym1,sym2,deck_l,deck_r,chosen_deck,chosen_col,chosen_sym,deck_rt,choose_choice,mutual_info,hidden_key,chosen_card,card_rt,player_num,win_card,outcome,mock_rating,response,responses
0,0,1.0,fullscreen,0,5563,0.0-0.0,b4gcww2cpo,2022-09-19 15:32:46.776,543e85adfdf99b7356902e90,3,52,52,16,82,50,male,,,,,,,,,,,,,,,,,,,,,,,,,,,,,,,
1,0,,external-html,1,19691,0.0-1.0,b4gcww2cpo,2022-09-19 15:32:46.776,543e85adfdf99b7356902e90,3,52,52,16,82,50,male,13526.1999999993,static/js/sub/consent.html,,,,,,,,,,,,,,,,,,,,,,,,,,,,,
2,0,,call-function,2,19694,0.0-2.0,b4gcww2cpo,2022-09-19 15:32:46.776,543e85adfdf99b7356902e90,3,52,52,16,82,50,male,,,,,,,,,,,,,,,,,,,,,,,,,,,,,,,
3,0,,image-keyboard-response,3,25443,0.0-3.0-0.0,b4gcww2cpo,2022-09-19 15:32:46.776,543e85adfdf99b7356902e90,3,52,52,16,82,50,male,5744.700000003,,static/images/instructions_CB_3/Slide1.png,39.0,,,,,,,,,,,,,,,,,,,,,,,,,,,
4,0,,image-keyboard-response,4,37880,0.0-3.1-0.1,b4gcww2cpo,2022-09-19 15:32:46.776,543e85adfdf99b7356902e90,3,52,52,16,82,50,male,12434.0,,static/images/instructions_CB_3/Slide2.png,39.0,,,,,,,,,,,,,,,,,,,,,,,,,,,
5,0,,image-keyboard-response,5,44694,0.0-3.2-0.2,b4gcww2cpo,2022-09-19 15:32:46.776,543e85adfdf99b7356902e90,3,52,52,16,82,50,male,6810.6999999993,,static/images/instructions_CB_3/Slide3.png,39.0,,,,,,,,,,,,,,,,,,,,,,,,,,,
6,0,,image-keyboard-response,6,63944,0.0-3.3-0.3,b4gcww2cpo,2022-09-19 15:32:46.776,543e85adfdf99b7356902e90,3,52,52,16,82,50,male,19248.0,,static/images/instructions_CB_3/Slide4.png,39.0,,,,,,,,,,,,,,,,,,,,,,,,,,,
7,0,,image-keyboard-response,7,72126,0.0-3.4-0.4,b4gcww2cpo,2022-09-19 15:32:46.776,543e85adfdf99b7356902e90,3,52,52,16,82,50,male,8178.6000000015,,static/images/instructions_CB_3/Slide5.png,39.0,,,,,,,,,,,,,,,,,,,,,,,,,,,
8,0,,image-keyboard-response,8,76397,0.0-3.5-0.5,b4gcww2cpo,2022-09-19 15:32:46.776,543e85adfdf99b7356902e90,3,52,52,16,82,50,male,4268.8999999985,,static/images/instructions_CB_3/Slide6.png,39.0,,,,,,,,,,,,,,,,,,,,,,,,,,,
9,0,,image-keyboard-response,9,81820,0.0-3.6-0.6,b4gcww2cpo,2022-09-19 15:32:46.776,543e85adfdf99b7356902e90,3,52,52,16,82,50,male,5421.6999999993,,static/images/instructions_CB_3/Slide7.png,39.0,,,,,,,,,,,,,,,,,,,,,,,,,,,
10,0,,image-keyboard-response,10,95644,0.0-3.7-0.7,b4gcww2cpo,2022-09-19 15:32:46.776,543e85adfdf99b7356902e90,3,52,52,16,82,50,male,13822.6999999993,,static/images/instructions_CB_3/Slide8.png,39.0,,,,,,,,,,,,,,,,,,,,,,,,,,,
11,0,,image-keyboard-response,11,102519,0.0-3.8-0.8,b4gcww2cpo,2022-09-19 15:32:46.776,543e85adfdf99b7356902e90,3,52,52,16,82,50,male,6872.1999999993,,static/images/instructions_CB_3/Slide9.png,39.0,,,,,,,,,,,,,,,,,,,,,,,,,,,
12,0,,image-keyboard-response,12,109928,0.0-3.9-0.9,b4gcww2cpo,2022-09-19 15:32:46.776,543e85adfdf99b7356902e90,3,52,52,16,82,50,male,7406.1999999993,,static/images/instructions_CB_3/Slide10.png,39.0,,,,,,,,,,,,,,,,,,,,,,,,,,,
13,0,,image-keyboard-response,13,117355,0.0-3.10-0.10,b4gcww2cpo,2022-09-19 15:32:46.776,543e85adfdf99b7356902e90,3,52,52,16,82,50,male,7425.3000000007,,static/images/instructions_CB_3/Slide11.png,39.0,,,,,,,,,,,,,,,,,,,,,,,,,,,
14,0,,image-keyboard-response,14,131529,0.0-3.11-0.11,b4gcww2cpo,2022-09-19 15:32:46.776,543e85adfdf99b7356902e90,3,52,52,16,82,50,male,14171.8000000007,,static/images/instructions_CB_3/Slide12.png,39.0,,,,,,,,,,,,,,,,,,,,,,,,,,,
15,0,,image-keyboard-response,15,153872,0.0-3.12-0.12,b4gcww2cpo,2022-09-19 15:32:46.776,543e85adfdf99b7356902e90,3,52,52,16,82,50,male,22340.8999999985,,static/images/instructions_CB_3/Slide13.png,37.0,,,,,,,,,,,,,,,,,,,,,,,,,,,
16,0,,image-keyboard-response,16,154281,0.0-3.13-0.13,b4gcww2cpo,2022-09-19 15:32:46.776,543e85adfdf99b7356902e90,3,52,52,16,82,50,male,406.8000000007,,static/images/instructions_CB_3/Slide12.png,37.0,,,,,,,,,,,,,,,,,,,,,,,,,,,
17,0,,image-keyboard-response,17,155088,0.0-3.14-0.14,b4gcww2cpo,2022-09-19 15:32:46.776,543e85adfdf99b7356902e90,3,52,52,16,82,50,male,804.5,,static/images/instructions_CB_3/Slide11.png,37.0,,,,,,,,,,,,,,,,,,,,,,,,,,,
18,0,,image-keyboard-response,18,165440,0.0-3.15-0.15,b4gcww2cpo,2022-09-19 15:32:46.776,543e85adfdf99b7356902e90,3,52,52,16,82,50,male,10351.0999999978,,static/images/instructions_CB_3/Slide10.png,39.0,,,,,,,,,,,,,,,,,,,,,,,,,,,
19,0,,image-keyboard-response,19,165773,0.0-3.16-0.16,b4gcww2cpo,2022-09-19 15:32:46.776,543e85adfdf99b7356902e90,3,52,52,16,82,50,male,330.3000000007,,static/images/instructions_CB_3/Slide11.png,39.0,,,,,,,,,,,,,,,,,,,,,,,,,,,
20,0,,image-keyboard-response,20,166394,0.0-3.17-0.17,b4gcww2cpo,2022-09-19 15:32:46.776,543e85adfdf99b7356902e90,3,52,52,16,82,50,male,619.6000000015,,static/images/instructions_CB_3/Slide12.png,39.0,,,,,,,,,,,,,,,,,,,,,,,,,,,
21,0,,image-keyboard-response,21,175662,0.0-3.18-0.18,b4gcww2cpo,2022-09-19 15:32:46.776,543e85adfdf99b7356902e90,3,52,52,16,82,50,male,9266.6000000015,,static/images/instructions_CB_3/Slide13.png,39.0,,,,,,,,,,,,,,,,,,,,,,,,,,,
22,0,,image-keyboard-response,22,183747,0.0-3.19-0.19,b4gcww2cpo,2022-09-19 15:32:46.776,543e85adfdf99b7356902e90,3,52,52,16,82,50,male,8083.5,,static/images/instructions_CB_3/Slide14.png,39.0,,,,,,,,,,,,,,,,,,,,,,,,,,,
23,0,,image-keyboard-response,23,197776,0.0-3.20-0.20,b4gcww2cpo,2022-09-19 15:32:46.776,543e85adfdf99b7356902e90,3,52,52,16,82,50,male,14026.1999999993,,static/images/instructions_CB_3/Slide15.png,39.0,,,,,,,,,,,,,,,,,,,,,,,,,,,
24,0,,image-keyboard-response,24,206585,0.0-3.21-0.21,b4gcww2cpo,2022-09-19 15:32:46.776,543e85adfdf99b7356902e90,3,52,52,16,82,50,male,8806.799999997,,static/images/instructions_CB_3/Slide16.png,39.0,,,,,,,,,,,,,,,,,,,,,,,,,,,
25,0,,image-keyboard-response,25,215153,0.0-3.22-0.22,b4gcww2cpo,2022-09-19 15:32:46.776,543e85adfdf99b7356902e90,3,52,52,16,82,50,male,8566.1999999993,,static/images/instructions_CB_3/Slide17.png,39.0,,,,,,,,,,,,,,,,,,,,,,,,,,,
26,0,,image-keyboard-response,26,239603,0.0-3.23-0.23,b4gcww2cpo,2022-09-19 15:32:46.776,543e85adfdf99b7356902e90,3,52,52,16,82,50,male,24448.1999999993,,static/images/instructions_CB_3/Slide18.png,39.0,,,,,,,,,,,,,,,,,,,,,,,,,,,
27,0,,image-keyboard-response,27,249335,0.0-3.24-0.24,b4gcww2cpo,2022-09-19 15:32:46.776,543e85adfdf99b7356902e90,3,52,52,16,82,50,male,9729.5,,static/images/instructions_CB_3/Slide19.png,39.0,,,,,,,,,,,,,,,,,,,,,,,,,,,
28,0,,html-keyboard-response,28,250838,0.0-4.0-0.0,b4gcww2cpo,2022-09-19 15:32:46.776,543e85adfdf99b7356902e90,3,52,52,16,82,50,male,,,"<img src=""static/images/cards/stack_of_black_moons.svg"" width=""175px"" height=""250px""></img>",,,,,,,,,,,,,,,,,,,,,,,,,,,,
29,0,,html-keyboard-response,29,252693,0.0-4.0-1.0,b4gcww2cpo,2022-09-19 15:32:46.776,543e85adfdf99b7356902e90,3,52,52,16,82,50,male,1352.0,,"
  <table>
  <tr height=300>
    <td width=300 height=300><img src=""static/images/cards/back_of_black_moons.svg"" width=""175px"" height=""250px""></img></td>
    <td width=300 height=300><img src=""static/images/cards/back_of_black_moons.svg"" width=""175px"" height=""250px""></img></td>
  </tr>
  <tr height=200>
    <td width=300><img src=""static/images/keys/z.svg"" width=""35%"" height=""75%""></img></td>
    <td width=300><img src=""static/images/keys/m.svg"" width=""35%"" height=""75%""></img></td>
  </tr>
</table>
  ",90.0,1.0,,,,,,,,,,,,,,,,,,,,,,,,,,
30,0,,html-keyboard-response,30,254195,0.0-4.0-2.0,b4gcww2cpo,2022-09-19 15:32:46.776,543e85adfdf99b7356902e90,3,52,52,16,82,50,male,,,"
  <table>
  <tr height=300>
    <td width=300 height=300><img src=""static/images/cards/10_of_black_moons.svg"" width=""175px"" height=""250px""></img></td>
    <td width=300 height=300><img src=""static/images/cards/back_of_black_moons.svg"" width=""175px"" height=""250px""></img></td>
  </tr>
  <tr height=200>
    <td width=300><img src=""static/images/keys/z.svg"" width=""35%"" height=""75%""></img></td>
    <td width=300><img src=""static/images/keys/m.svg"" width=""35%"" height=""75%""></img></td>
  </tr>
</table>
  ",,,,,,,,,,,,,,,,,,,,,,,,,,,,
31,0,,html-keyboard-response,31,255697,0.0-4.0-3.0,b4gcww2cpo,2022-09-19 15:32:46.776,543e85adfdf99b7356902e90,3,52,52,16,82,50,male,,,"<p style=""font-size:50px"">You win!
+10 points this round!</p>",,,,,,,,,,,,,,,,,,,,,,,,,,,,
32,0,,html-keyboard-response,32,256203,0.0-4.0-4.0,b4gcww2cpo,2022-09-19 15:32:46.776,543e85adfdf99b7356902e90,3,52,52,16,82,50,male,,,,,,1.0,learning,0.0,A,,black,,moons,,,,A,black,moons,,1.0,1.0,NA,left,1352.0,10.0,1.0,1.0,,,
33,0,,html-keyboard-response,33,257705,0.0-4.1-0.1,b4gcww2cpo,2022-09-19 15:32:46.776,543e85adfdf99b7356902e90,3,52,52,16,82,50,male,,,"<img src=""static/images/cards/stack_of_red_moons.svg"" width=""175px"" height=""250px""></img>",,,,,,,,,,,,,,,,,,,,,,,,,,,,
34,0,,html-keyboard-response,34,258783,0.0-4.1-1.1,b4gcww2cpo,2022-09-19 15:32:46.776,543e85adfdf99b7356902e90,3,52,52,16,82,50,male,574.6000000015,,"
  <table>
  <tr height=300>
    <td width=300 height=300><img src=""static/images/cards/back_of_red_moons.svg"" width=""175px"" height=""250px""></img></td>
    <td width=300 height=300><img src=""static/images/cards/back_of_red_moons.svg"" width=""175px"" height=""250px""></img></td>
  </tr>
  <tr height=200>
    <td width=300><img src=""static/images/keys/z.svg"" width=""35%"" height=""75%""></img></td>
    <td width=300></td>
  </tr>
</table>
  ",90.0,1.0,,,,,,,,,,,,,,,,,,,,,,,,,,
35,0,,html-keyboard-response,35,260286,0.0-4.1-2.1,b4gcww2cpo,2022-09-19 15:32:46.776,543e85adfdf99b7356902e90,3,52,52,16,82,50,male,,,"
  <table>
  <tr height=300>
    <td width=300 height=300><img src=""static/images/cards/4_of_red_moons.svg"" width=""175px"" height=""250px""></img></td>
    <td width=300 height=300><img src=""static/images/cards/back_of_red_moons.svg"" width=""175px"" height=""250px""></img></td>
  </tr>
  <tr height=200>
    <td width=300><img src=""static/images/keys/z.svg"" width=""35%"" height=""75%""></img></td>
    <td width=300></td>
  </tr>
</table>
  ",,,,,,,,,,,,,,,,,,,,,,,,,,,,
36,0,,html-keyboard-response,36,261788,0.0-4.1-3.1,b4gcww2cpo,2022-09-19 15:32:46.776,543e85adfdf99b7356902e90,3,52,52,16,82,50,male,,,"<p style=""font-size:50px"">You Lose!
No points this round.</p>",,,,,,,,,,,,,,,,,,,,,,,,,,,,
37,0,,html-keyboard-response,37,262293,0.0-4.1-4.1,b4gcww2cpo,2022-09-19 15:32:46.776,543e85adfdf99b7356902e90,3,52,52,16,82,50,male,,,,,,1.0,learning,1.0,B,,red,,moons,,,,B,red,moons,,0.0,1.0,1,left,574.6000000015,4.0,0.0,0.0,,,
38,0,,html-keyboard-response,38,263796,0.0-4.2-0.2,b4gcww2cpo,2022-09-19 15:32:46.776,543e85adfdf99b7356902e90,3,52,52,16,82,50,male,,,"<img src=""static/images/cards/stack_of_black_stars.svg"" width=""175px"" height=""250px""></img>",,,,,,,,,,,,,,,,,,,,,,,,,,,,
39,0,,html-keyboard-response,39,265190,0.0-4.2-1.2,b4gcww2cpo,2022-09-19 15:32:46.776,543e85adfdf99b7356902e90,3,52,52,16,82,50,male,890.299999997,,"
  <table>
  <tr height=300>
    <td width=300 height=300><img src=""static/images/cards/back_of_black_stars.svg"" width=""175px"" height=""250px""></img></td>
    <td width=300 height=300><img src=""static/images/cards/back_of_black_stars.svg"" width=""175px"" height=""250px""></img></td>
  </tr>
  <tr height=200>
    <td width=300><img src=""static/images/keys/z.svg"" width=""35%"" height=""75%""></img></td>
    <td width=300><img src=""static/images/keys/m.svg"" width=""35%"" height=""75%""></img></td>
  </tr>
</table>
  ",77.0,1.0,,,,,,,,,,,,,,,,,,,,,,,,,,
40,0,,html-keyboard-response,40,266693,0.0-4.2-2.2,b4gcww2cpo,2022-09-19 15:32:46.776,543e85adfdf99b7356902e90,3,52,52,16,82,50,male,,,"
  <table>
  <tr height=300>
    <td width=300 height=300><img src=""static/images/cards/back_of_black_stars.svg"" width=""175px"" height=""250px""></img></td>
    <td width=300 height=300><img src=""static/images/cards/4_of_black_stars.svg"" width=""175px"" height=""250px""></img></td>
  </tr>
  <tr height=200>
    <td width=300><img src=""static/images/keys/z.svg"" width=""35%"" height=""75%""></img></td>
    <td width=300><img src=""static/images/keys/m.svg"" width=""35%"" height=""75%""></img></td>
  </tr>
</table>
  ",,,,,,,,,,,,,,,,,,,,,,,,,,,,
41,0,,html-keyboard-response,41,268194,0.0-4.2-3.2,b4gcww2cpo,2022-09-19 15:32:46.776,543e85adfdf99b7356902e90,3,52,52,16,82,50,male,,,"<p style=""font-size:50px"">You Lose!
No points this round.</p>",,,,,,,,,,,,,,,,,,,,,,,,,,,,
42,0,,html-keyboard-response,42,268699,0.0-4.2-4.2,b4gcww2cpo,2022-09-19 15:32:46.776,543e85adfdf99b7356902e90,3,52,52,16,82,50,male,,,,,,1.0,learning,2.0,C,,black,,stars,,,,C,black,stars,,1.0,0.0,NA,right,890.299999997,4.0,0.0,0.0,,,
43,0,,html-keyboard-response,43,270202,0.0-4.3-0.3,b4gcww2cpo,2022-09-19 15:32:46.776,543e85adfdf99b7356902e90,3,52,52,16,82,50,male,,,"<img src=""static/images/cards/stack_of_red_stars.svg"" width=""175px"" height=""250px""></img>",,,,,,,,,,,,,,,,,,,,,,,,,,,,
44,0,,html-keyboard-response,44,271143,0.0-4.3-1.3,b4gcww2cpo,2022-09-19 15:32:46.776,543e85adfdf99b7356902e90,3,52,52,16,82,50,male,438.799999997,,"
  <table>
  <tr height=300>
    <td width=300 height=300><img src=""static/images/cards/back_of_red_stars.svg"" width=""175px"" height=""250px""></img></td>
    <td width=300 height=300><img src=""static/images/cards/back_of_red_stars.svg"" width=""175px"" height=""250px""></img></td>
  </tr>
  <tr height=200>
    <td width=300><img src=""static/images/keys/z.svg"" width=""35%"" height=""75%""></img></td>
    <td width=300></td>
  </tr>
</table>
  ",90.0,1.0,,,,,,,,,,,,,,,,,,,,,,,,,,
45,0,,html-keyboard-response,45,272646,0.0-4.3-2.3,b4gcww2cpo,2022-09-19 15:32:46.776,543e85adfdf99b7356902e90,3,52,52,16,82,50,male,,,"
  <table>
  <tr height=300>
    <td width=300 height=300><img src=""static/images/cards/2_of_red_stars.svg"" width=""175px"" height=""250px""></img></td>
    <td width=300 height=300><img src=""static/images/cards/back_of_red_stars.svg"" width=""175px"" height=""250px""></img></td>
  </tr>
  <tr height=200>
    <td width=300><img src=""static/images/keys/z.svg"" width=""35%"" height=""75%""></img></td>
    <td width=300></td>
  </tr>
</table>
  ",,,,,,,,,,,,,,,,,,,,,,,,,,,,
46,0,,html-keyboard-response,46,274148,0.0-4.3-3.3,b4gcww2cpo,2022-09-19 15:32:46.776,543e85adfdf99b7356902e90,3,52,52,16,82,50,male,,,"<p style=""font-size:50px"">You win!
+10 points this round!</p>",,,,,,,,,,,,,,,,,,,,,,,,,,,,
47,0,,html-keyboard-response,47,274653,0.0-4.3-4.3,b4gcww2cpo,2022-09-19 15:32:46.776,543e85adfdf99b7356902e90,3,52,52,16,82,50,male,,,,,,1.0,learning,3.0,D,,red,,stars,,,,D,red,stars,,0.0,0.0,1,left,438.799999997,2.0,0.0,1.0,,,
48,0,,html-keyboard-response,48,276155,0.0-4.4-0.4,b4gcww2cpo,2022-09-19 15:32:46.776,543e85adfdf99b7356902e90,3,52,52,16,82,50,male,,,"<img src=""static/images/cards/stack_of_red_bolts.svg"" width=""175px"" height=""250px""></img>",,,,,,,,,,,,,,,,,,,,,,,,,,,,
49,0,,html-keyboard-response,49,277488,0.0-4.4-1.4,b4gcww2cpo,2022-09-19 15:32:46.776,543e85adfdf99b7356902e90,3,52,52,16,82,50,male,825.6999999993,,"
  <table>
  <tr height=300>
    <td width=300 height=300><img src=""static/images/cards/back_of_red_bolts.svg"" width=""175px"" height=""250px""></img></td>
    <td width=300 height=300><img src=""static/images/cards/back_of_red_bolts.svg"" width=""175px"" height=""250px""></img></td>
  </tr>
  <tr height=200>
    <td width=300><img src=""static/images/keys/z.svg"" width=""35%"" height=""75%""></img></td>
    <td width=300><img src=""static/images/keys/m.svg"" width=""35%"" height=""75%""></img></td>
  </tr>
</table>
  ",77.0,1.0,,,,,,,,,,,,,,,,,,,,,,,,,,
50,0,,html-keyboard-response,50,278991,0.0-4.4-2.4,b4gcww2cpo,2022-09-19 15:32:46.776,543e85adfdf99b7356902e90,3,52,52,16,82,50,male,,,"
  <table>
  <tr height=300>
    <td width=300 height=300><img src=""static/images/cards/back_of_red_bolts.svg"" width=""175px"" height=""250px""></img></td>
    <td width=300 height=300><img src=""static/images/cards/10_of_red_bolts.svg"" width=""175px"" height=""250px""></img></td>
  </tr>
  <tr height=200>
    <td width=300><img src=""static/images/keys/z.svg"" width=""35%"" height=""75%""></img></td>
    <td width=300><img src=""static/images/keys/m.svg"" width=""35%"" height=""75%""></img></td>
  </tr>
</table>
  ",,,,,,,,,,,,,,,,,,,,,,,,,,,,
51,0,,html-keyboard-response,51,280493,0.0-4.4-3.4,b4gcww2cpo,2022-09-19 15:32:46.776,543e85adfdf99b7356902e90,3,52,52,16,82,50,male,,,"<p style=""font-size:50px"">You win!
+10 points this round!</p>",,,,,,,,,,,,,,,,,,,,,,,,,,,,
52,0,,html-keyboard-response,52,280998,0.0-4.4-4.4,b4gcww2cpo,2022-09-19 15:32:46.776,543e85adfdf99b7356902e90,3,52,52,16,82,50,male,,,,,,1.0,learning,4.0,Xc,,red,,bolts,,,,Xc,red,bolts,,1.0,0.0,NA,right,825.6999999993,10.0,1.0,1.0,,,
53,0,,html-keyboard-response,53,282500,0.0-4.5-0.5,b4gcww2cpo,2022-09-19 15:32:46.776,543e85adfdf99b7356902e90,3,52,52,16,82,50,male,,,"<img src=""static/images/cards/stack_of_black_bolts.svg"" width=""175px"" height=""250px""></img>",,,,,,,,,,,,,,,,,,,,,,,,,,,,
54,0,,html-keyboard-response,54,283472,0.0-4.5-1.5,b4gcww2cpo,2022-09-19 15:32:46.776,543e85adfdf99b7356902e90,3,52,52,16,82,50,male,469.0,,"
  <table>
  <tr height=300>
    <td width=300 height=300><img src=""static/images/cards/back_of_black_bolts.svg"" width=""175px"" height=""250px""></img></td>
    <td width=300 height=300><img src=""static/images/cards/back_of_black_bolts.svg"" width=""175px"" height=""250px""></img></td>
  </tr>
  <tr height=200>
    <td width=300><img src=""static/images/keys/z.svg"" width=""35%"" height=""75%""></img></td>
    <td width=300></td>
  </tr>
</table>
  ",90.0,1.0,,,,,,,,,,,,,,,,,,,,,,,,,,
55,0,,html-keyboard-response,55,284976,0.0-4.5-2.5,b4gcww2cpo,2022-09-19 15:32:46.776,543e85adfdf99b7356902e90,3,52,52,16,82,50,male,,,"
  <table>
  <tr height=300>
    <td width=300 height=300><img src=""static/images/cards/3_of_black_bolts.svg"" width=""175px"" height=""250px""></img></td>
    <td width=300 height=300><img src=""static/images/cards/back_of_black_bolts.svg"" width=""175px"" height=""250px""></img></td>
  </tr>
  <tr height=200>
    <td width=300><img src=""static/images/keys/z.svg"" width=""35%"" height=""75%""></img></td>
    <td width=300></td>
  </tr>
</table>
  ",,,,,,,,,,,,,,,,,,,,,,,,,,,,
56,0,,html-keyboard-response,56,286478,0.0-4.5-3.5,b4gcww2cpo,2022-09-19 15:32:46.776,543e85adfdf99b7356902e90,3,52,52,16,82,50,male,,,"<p style=""font-size:50px"">You win!
+10 points this round!</p>",,,,,,,,,,,,,,,,,,,,,,,,,,,,
57,0,,html-keyboard-response,57,286983,0.0-4.5-4.5,b4gcww2cpo,2022-09-19 15:32:46.776,543e85adfdf99b7356902e90,3,52,52,16,82,50,male,,,,,,1.0,learning,5.0,Xnc,,black,,bolts,,,,Xnc,black,bolts,,0.0,0.0,1,left,469.0,3.0,0.0,1.0,,,
58,0,,html-keyboard-response,58,288485,0.0-4.6-0.6,b4gcww2cpo,2022-09-19 15:32:46.776,543e85adfdf99b7356902e90,3,52,52,16,82,50,male,,,"<img src=""static/images/cards/stack_of_black_moons.svg"" width=""175px"" height=""250px""></img>",,,,,,,,,,,,,,,,,,,,,,,,,,,,
59,0,,html-keyboard-response,59,289554,0.0-4.6-1.6,b4gcww2cpo,2022-09-19 15:32:46.776,543e85adfdf99b7356902e90,3,52,52,16,82,50,male,564.8000000007,,"
  <table>
  <tr height=300>
    <td width=300 height=300><img src=""static/images/cards/back_of_black_moons.svg"" width=""175px"" height=""250px""></img></td>
    <td width=300 height=300><img src=""static/images/cards/back_of_black_moons.svg"" width=""175px"" height=""250px""></img></td>
  </tr>
  <tr height=200>
    <td width=300><img src=""static/images/keys/z.svg"" width=""35%"" height=""75%""></img></td>
    <td width=300><img src=""static/images/keys/m.svg"" width=""35%"" height=""75%""></img></td>
  </tr>
</table>
  ",77.0,1.0,,,,,,,,,,,,,,,,,,,,,,,,,,
60,0,,html-keyboard-response,60,291057,0.0-4.6-2.6,b4gcww2cpo,2022-09-19 15:32:46.776,543e85adfdf99b7356902e90,3,52,52,16,82,50,male,,,"
  <table>
  <tr height=300>
    <td width=300 height=300><img src=""static/images/cards/back_of_black_moons.svg"" width=""175px"" height=""250px""></img></td>
    <td width=300 height=300><img src=""static/images/cards/3_of_black_moons.svg"" width=""175px"" height=""250px""></img></td>
  </tr>
  <tr height=200>
    <td width=300><img src=""static/images/keys/z.svg"" width=""35%"" height=""75%""></img></td>
    <td width=300><img src=""static/images/keys/m.svg"" width=""35%"" height=""75%""></img></td>
  </tr>
</table>
  ",,,,,,,,,,,,,,,,,,,,,,,,,,,,
61,0,,html-keyboard-response,61,292558,0.0-4.6-3.6,b4gcww2cpo,2022-09-19 15:32:46.776,543e85adfdf99b7356902e90,3,52,52,16,82,50,male,,,"<p style=""font-size:50px"">You Lose!
No points this round.</p>",,,,,,,,,,,,,,,,,,,,,,,,,,,,
62,0,,html-keyboard-response,62,293064,0.0-4.6-4.6,b4gcww2cpo,2022-09-19 15:32:46.776,543e85adfdf99b7356902e90,3,52,52,16,82,50,male,,,,,,1.0,learning,6.0,A,,black,,moons,,,,A,black,moons,,1.0,1.0,NA,right,564.8000000007,3.0,0.0,0.0,,,
63,0,,html-keyboard-response,63,294565,0.0-4.7-0.7,b4gcww2cpo,2022-09-19 15:32:46.776,543e85adfdf99b7356902e90,3,52,52,16,82,50,male,,,"<img src=""static/images/cards/stack_of_red_moons.svg"" width=""175px"" height=""250px""></img>",,,,,,,,,,,,,,,,,,,,,,,,,,,,
64,0,,html-keyboard-response,64,295530,0.0-4.7-1.7,b4gcww2cpo,2022-09-19 15:32:46.776,543e85adfdf99b7356902e90,3,52,52,16,82,50,male,460.9000000022,,"
  <table>
  <tr height=300>
    <td width=300 height=300><img src=""static/images/cards/back_of_red_moons.svg"" width=""175px"" height=""250px""></img></td>
    <td width=300 height=300><img src=""static/images/cards/back_of_red_moons.svg"" width=""175px"" height=""250px""></img></td>
  </tr>
  <tr height=200>
    <td width=300></td>
    <td width=300><img src=""static/images/keys/m.svg"" width=""35%"" height=""75%""></img></td>
  </tr>
</table>
  ",77.0,1.0,,,,,,,,,,,,,,,,,,,,,,,,,,
65,0,,html-keyboard-response,65,297033,0.0-4.7-2.7,b4gcww2cpo,2022-09-19 15:32:46.776,543e85adfdf99b7356902e90,3,52,52,16,82,50,male,,,"
  <table>
  <tr height=300>
    <td width=300 height=300><img src=""static/images/cards/back_of_red_moons.svg"" width=""175px"" height=""250px""></img></td>
    <td width=300 height=300><img src=""static/images/cards/1_of_red_moons.svg"" width=""175px"" height=""250px""></img></td>
  </tr>
  <tr height=200>
    <td width=300></td>
    <td width=300><img src=""static/images/keys/m.svg"" width=""35%"" height=""75%""></img></td>
  </tr>
</table>
  ",,,,,,,,,,,,,,,,,,,,,,,,,,,,
66,0,,html-keyboard-response,66,298534,0.0-4.7-3.7,b4gcww2cpo,2022-09-19 15:32:46.776,543e85adfdf99b7356902e90,3,52,52,16,82,50,male,,,"<p style=""font-size:50px"">You Lose!
No points this round.</p>",,,,,,,,,,,,,,,,,,,,,,,,,,,,
67,0,,html-keyboard-response,67,299040,0.0-4.7-4.7,b4gcww2cpo,2022-09-19 15:32:46.776,543e85adfdf99b7356902e90,3,52,52,16,82,50,male,,,,,,1.0,learning,7.0,B,,red,,moons,,,,B,red,moons,,0.0,1.0,0,right,460.9000000022,1.0,0.0,0.0,,,
68,0,,html-keyboard-response,68,300542,0.0-4.8-0.8,b4gcww2cpo,2022-09-19 15:32:46.776,543e85adfdf99b7356902e90,3,52,52,16,82,50,male,,,"<img src=""static/images/cards/stack_of_black_stars.svg"" width=""175px"" height=""250px""></img>",,,,,,,,,,,,,,,,,,,,,,,,,,,,
69,0,,html-keyboard-response,69,301613,0.0-4.8-1.8,b4gcww2cpo,2022-09-19 15:32:46.776,543e85adfdf99b7356902e90,3,52,52,16,82,50,male,567.1999999993,,"
  <table>
  <tr height=300>
    <td width=300 height=300><img src=""static/images/cards/back_of_black_stars.svg"" width=""175px"" height=""250px""></img></td>
    <td width=300 height=300><img src=""static/images/cards/back_of_black_stars.svg"" width=""175px"" height=""250px""></img></td>
  </tr>
  <tr height=200>
    <td width=300><img src=""static/images/keys/z.svg"" width=""35%"" height=""75%""></img></td>
    <td width=300><img src=""static/images/keys/m.svg"" width=""35%"" height=""75%""></img></td>
  </tr>
</table>
  ",90.0,1.0,,,,,,,,,,,,,,,,,,,,,,,,,,
70,0,,html-keyboard-response,70,303117,0.0-4.8-2.8,b4gcww2cpo,2022-09-19 15:32:46.776,543e85adfdf99b7356902e90,3,52,52,16,82,50,male,,,"
  <table>
  <tr height=300>
    <td width=300 height=300><img src=""static/images/cards/6_of_black_stars.svg"" width=""175px"" height=""250px""></img></td>
    <td width=300 height=300><img src=""static/images/cards/back_of_black_stars.svg"" width=""175px"" height=""250px""></img></td>
  </tr>
  <tr height=200>
    <td width=300><img src=""static/images/keys/z.svg"" width=""35%"" height=""75%""></img></td>
    <td width=300><img src=""static/images/keys/m.svg"" width=""35%"" height=""75%""></img></td>
  </tr>
</table>
  ",,,,,,,,,,,,,,,,,,,,,,,,,,,,
71,0,,html-keyboard-response,71,304618,0.0-4.8-3.8,b4gcww2cpo,2022-09-19 15:32:46.776,543e85adfdf99b7356902e90,3,52,52,16,82,50,male,,,"<p style=""font-size:50px"">You Lose!
No points this round.</p>",,,,,,,,,,,,,,,,,,,,,,,,,,,,
72,0,,html-keyboard-response,72,305124,0.0-4.8-4.8,b4gcww2cpo,2022-09-19 15:32:46.776,543e85adfdf99b7356902e90,3,52,52,16,82,50,male,,,,,,1.0,learning,8.0,C,,black,,stars,,,,C,black,stars,,1.0,0.0,NA,left,567.1999999993,6.0,1.0,0.0,,,
73,0,,html-keyboard-response,73,306626,0.0-4.9-0.9,b4gcww2cpo,2022-09-19 15:32:46.776,543e85adfdf99b7356902e90,3,52,52,16,82,50,male,,,"<img src=""static/images/cards/stack_of_red_stars.svg"" width=""175px"" height=""250px""></img>",,,,,,,,,,,,,,,,,,,,,,,,,,,,
74,0,,html-keyboard-response,74,308242,0.0-4.9-1.9,b4gcww2cpo,2022-09-19 15:32:46.776,543e85adfdf99b7356902e90,3,52,52,16,82,50,male,1113.1999999993,,"
  <table>
  <tr height=300>
    <td width=300 height=300><img src=""static/images/cards/back_of_red_stars.svg"" width=""175px"" height=""250px""></img></td>
    <td width=300 height=300><img src=""static/images/cards/back_of_red_stars.svg"" width=""175px"" height=""250px""></img></td>
  </tr>
  <tr height=200>
    <td width=300><img src=""static/images/keys/z.svg"" width=""35%"" height=""75%""></img></td>
    <td width=300></td>
  </tr>
</table>
  ",90.0,1.0,,,,,,,,,,,,,,,,,,,,,,,,,,
75,0,,html-keyboard-response,75,309745,0.0-4.9-2.9,b4gcww2cpo,2022-09-19 15:32:46.776,543e85adfdf99b7356902e90,3,52,52,16,82,50,male,,,"
  <table>
  <tr height=300>
    <td width=300 height=300><img src=""static/images/cards/9_of_red_stars.svg"" width=""175px"" height=""250px""></img></td>
    <td width=300 height=300><img src=""static/images/cards/back_of_red_stars.svg"" width=""175px"" height=""250px""></img></td>
  </tr>
  <tr height=200>
    <td width=300><img src=""static/images/keys/z.svg"" width=""35%"" height=""75%""></img></td>
    <td width=300></td>
  </tr>
</table>
  ",,,,,,,,,,,,,,,,,,,,,,,,,,,,
76,0,,html-keyboard-response,76,311247,0.0-4.9-3.9,b4gcww2cpo,2022-09-19 15:32:46.776,543e85adfdf99b7356902e90,3,52,52,16,82,50,male,,,"<p style=""font-size:50px"">You win!
+10 points this round!</p>",,,,,,,,,,,,,,,,,,,,,,,,,,,,
77,0,,html-keyboard-response,77,311752,0.0-4.9-4.9,b4gcww2cpo,2022-09-19 15:32:46.776,543e85adfdf99b7356902e90,3,52,52,16,82,50,male,,,,,,1.0,learning,9.0,D,,red,,stars,,,,D,red,stars,,0.0,0.0,1,left,1113.1999999993,9.0,1.0,1.0,,,
78,0,,html-keyboard-response,78,313254,0.0-4.10-0.10,b4gcww2cpo,2022-09-19 15:32:46.776,543e85adfdf99b7356902e90,3,52,52,16,82,50,male,,,"<img src=""static/images/cards/stack_of_red_bolts.svg"" width=""175px"" height=""250px""></img>",,,,,,,,,,,,,,,,,,,,,,,,,,,,
79,0,,html-keyboard-response,79,314180,0.0-4.10-1.10,b4gcww2cpo,2022-09-19 15:32:46.776,543e85adfdf99b7356902e90,3,52,52,16,82,50,male,423.5999999978,,"
  <table>
  <tr height=300>
    <td width=300 height=300><img src=""static/images/cards/back_of_red_bolts.svg"" width=""175px"" height=""250px""></img></td>
    <td width=300 height=300><img src=""static/images/cards/back_of_red_bolts.svg"" width=""175px"" height=""250px""></img></td>
  </tr>
  <tr height=200>
    <td width=300><img src=""static/images/keys/z.svg"" width=""35%"" height=""75%""></img></td>
    <td width=300><img src=""static/images/keys/m.svg"" width=""35%"" height=""75%""></img></td>
  </tr>
</table>
  ",77.0,1.0,,,,,,,,,,,,,,,,,,,,,,,,,,
80,0,,html-keyboard-response,80,315684,0.0-4.10-2.10,b4gcww2cpo,2022-09-19 15:32:46.776,543e85adfdf99b7356902e90,3,52,52,16,82,50,male,,,"
  <table>
  <tr height=300>
    <td width=300 height=300><img src=""static/images/cards/back_of_red_bolts.svg"" width=""175px"" height=""250px""></img></td>
    <td width=300 height=300><img src=""static/images/cards/8_of_red_bolts.svg"" width=""175px"" height=""250px""></img></td>
  </tr>
  <tr height=200>
    <td width=300><img src=""static/images/keys/z.svg"" width=""35%"" height=""75%""></img></td>
    <td width=300><img src=""static/images/keys/m.svg"" width=""35%"" height=""75%""></img></td>
  </tr>
</table>
  ",,,,,,,,,,,,,,,,,,,,,,,,,,,,
81,0,,html-keyboard-response,81,317186,0.0-4.10-3.10,b4gcww2cpo,2022-09-19 15:32:46.776,543e85adfdf99b7356902e90,3,52,52,16,82,50,male,,,"<p style=""font-size:50px"">You win!
+10 points this round!</p>",,,,,,,,,,,,,,,,,,,,,,,,,,,,
82,0,,html-keyboard-response,82,317691,0.0-4.10-4.10,b4gcww2cpo,2022-09-19 15:32:46.776,543e85adfdf99b7356902e90,3,52,52,16,82,50,male,,,,,,1.0,learning,10.0,Xc,,red,,bolts,,,,Xc,red,bolts,,1.0,0.0,NA,right,423.5999999978,8.0,1.0,1.0,,,
83,0,,html-keyboard-response,83,319192,0.0-4.11-0.11,b4gcww2cpo,2022-09-19 15:32:46.776,543e85adfdf99b7356902e90,3,52,52,16,82,50,male,,,"<img src=""static/images/cards/stack_of_black_bolts.svg"" width=""175px"" height=""250px""></img>",,,,,,,,,,,,,,,,,,,,,,,,,,,,
84,0,,html-keyboard-response,84,320077,0.0-4.11-1.11,b4gcww2cpo,2022-09-19 15:32:46.776,543e85adfdf99b7356902e90,3,52,52,16,82,50,male,382.6999999993,,"
  <table>
  <tr height=300>
    <td width=300 height=300><img src=""static/images/cards/back_of_black_bolts.svg"" width=""175px"" height=""250px""></img></td>
    <td width=300 height=300><img src=""static/images/cards/back_of_black_bolts.svg"" width=""175px"" height=""250px""></img></td>
  </tr>
  <tr height=200>
    <td width=300><img src=""static/images/keys/z.svg"" width=""35%"" height=""75%""></img></td>
    <td width=300></td>
  </tr>
</table>
  ",90.0,1.0,,,,,,,,,,,,,,,,,,,,,,,,,,
85,0,,html-keyboard-response,85,321580,0.0-4.11-2.11,b4gcww2cpo,2022-09-19 15:32:46.776,543e85adfdf99b7356902e90,3,52,52,16,82,50,male,,,"
  <table>
  <tr height=300>
    <td width=300 height=300><img src=""static/images/cards/6_of_black_bolts.svg"" width=""175px"" height=""250px""></img></td>
    <td width=300 height=300><img src=""static/images/cards/back_of_black_bolts.svg"" width=""175px"" height=""250px""></img></td>
  </tr>
  <tr height=200>
    <td width=300><img src=""static/images/keys/z.svg"" width=""35%"" height=""75%""></img></td>
    <td width=300></td>
  </tr>
</table>
  ",,,,,,,,,,,,,,,,,,,,,,,,,,,,
86,0,,html-keyboard-response,86,323081,0.0-4.11-3.11,b4gcww2cpo,2022-09-19 15:32:46.776,543e85adfdf99b7356902e90,3,52,52,16,82,50,male,,,"<p style=""font-size:50px"">You win!
+10 points this round!</p>",,,,,,,,,,,,,,,,,,,,,,,,,,,,
87,0,,html-keyboard-response,87,323587,0.0-4.11-4.11,b4gcww2cpo,2022-09-19 15:32:46.776,543e85adfdf99b7356902e90,3,52,52,16,82,50,male,,,,,,1.0,learning,11.0,Xnc,,black,,bolts,,,,Xnc,black,bolts,,0.0,0.0,1,left,382.6999999993,6.0,1.0,1.0,,,
88,0,,html-keyboard-response,88,325089,0.0-4.12-0.12,b4gcww2cpo,2022-09-19 15:32:46.776,543e85adfdf99b7356902e90,3,52,52,16,82,50,male,,,"<img src=""static/images/cards/stack_of_black_moons.svg"" width=""175px"" height=""250px""></img>",,,,,,,,,,,,,,,,,,,,,,,,,,,,
89,0,,html-keyboard-response,89,326322,0.0-4.12-1.12,b4gcww2cpo,2022-09-19 15:32:46.776,543e85adfdf99b7356902e90,3,52,52,16,82,50,male,731.0999999978,,"
  <table>
  <tr height=300>
    <td width=300 height=300><img src=""static/images/cards/back_of_black_moons.svg"" width=""175px"" height=""250px""></img></td>
    <td width=300 height=300><img src=""static/images/cards/back_of_black_moons.svg"" width=""175px"" height=""250px""></img></td>
  </tr>
  <tr height=200>
    <td width=300><img src=""static/images/keys/z.svg"" width=""35%"" height=""75%""></img></td>
    <td width=300><img src=""static/images/keys/m.svg"" width=""35%"" height=""75%""></img></td>
  </tr>
</table>
  ",90.0,1.0,,,,,,,,,,,,,,,,,,,,,,,,,,
90,0,,html-keyboard-response,90,327824,0.0-4.12-2.12,b4gcww2cpo,2022-09-19 15:32:46.776,543e85adfdf99b7356902e90,3,52,52,16,82,50,male,,,"
  <table>
  <tr height=300>
    <td width=300 height=300><img src=""static/images/cards/1_of_black_moons.svg"" width=""175px"" height=""250px""></img></td>
    <td width=300 height=300><img src=""static/images/cards/back_of_black_moons.svg"" width=""175px"" height=""250px""></img></td>
  </tr>
  <tr height=200>
    <td width=300><img src=""static/images/keys/z.svg"" width=""35%"" height=""75%""></img></td>
    <td width=300><img src=""static/images/keys/m.svg"" width=""35%"" height=""75%""></img></td>
  </tr>
</table>
  ",,,,,,,,,,,,,,,,,,,,,,,,,,,,
91,0,,html-keyboard-response,91,329326,0.0-4.12-3.12,b4gcww2cpo,2022-09-19 15:32:46.776,543e85adfdf99b7356902e90,3,52,52,16,82,50,male,,,"<p style=""font-size:50px"">You Lose!
No points this round.</p>",,,,,,,,,,,,,,,,,,,,,,,,,,,,
92,0,,html-keyboard-response,92,329831,0.0-4.12-4.12,b4gcww2cpo,2022-09-19 15:32:46.776,543e85adfdf99b7356902e90,3,52,52,16,82,50,male,,,,,,1.0,learning,12.0,A,,black,,moons,,,,A,black,moons,,1.0,1.0,NA,left,731.0999999978,1.0,0.0,0.0,,,
93,0,,html-keyboard-response,93,331333,0.0-4.13-0.13,b4gcww2cpo,2022-09-19 15:32:46.776,543e85adfdf99b7356902e90,3,52,52,16,82,50,male,,,"<img src=""static/images/cards/stack_of_red_moons.svg"" width=""175px"" height=""250px""></img>",,,,,,,,,,,,,,,,,,,,,,,,,,,,
94,0,,html-keyboard-response,94,332280,0.0-4.13-1.13,b4gcww2cpo,2022-09-19 15:32:46.776,543e85adfdf99b7356902e90,3,52,52,16,82,50,male,442.8000000007,,"
  <table>
  <tr height=300>
    <td width=300 height=300><img src=""static/images/cards/back_of_red_moons.svg"" width=""175px"" height=""250px""></img></td>
    <td width=300 height=300><img src=""static/images/cards/back_of_red_moons.svg"" width=""175px"" height=""250px""></img></td>
  </tr>
  <tr height=200>
    <td width=300></td>
    <td width=300><img src=""static/images/keys/m.svg"" width=""35%"" height=""75%""></img></td>
  </tr>
</table>
  ",77.0,1.0,,,,,,,,,,,,,,,,,,,,,,,,,,
95,0,,html-keyboard-response,95,333783,0.0-4.13-2.13,b4gcww2cpo,2022-09-19 15:32:46.776,543e85adfdf99b7356902e90,3,52,52,16,82,50,male,,,"
  <table>
  <tr height=300>
    <td width=300 height=300><img src=""static/images/cards/back_of_red_moons.svg"" width=""175px"" height=""250px""></img></td>
    <td width=300 height=300><img src=""static/images/cards/8_of_red_moons.svg"" width=""175px"" height=""250px""></img></td>
  </tr>
  <tr height=200>
    <td width=300></td>
    <td width=300><img src=""static/images/keys/m.svg"" width=""35%"" height=""75%""></img></td>
  </tr>
</table>
  ",,,,,,,,,,,,,,,,,,,,,,,,,,,,
96,0,,html-keyboard-response,96,335284,0.0-4.13-3.13,b4gcww2cpo,2022-09-19 15:32:46.776,543e85adfdf99b7356902e90,3,52,52,16,82,50,male,,,"<p style=""font-size:50px"">You win!
+10 points this round!</p>",,,,,,,,,,,,,,,,,,,,,,,,,,,,
97,0,,html-keyboard-response,97,335789,0.0-4.13-4.13,b4gcww2cpo,2022-09-19 15:32:46.776,543e85adfdf99b7356902e90,3,52,52,16,82,50,male,,,,,,1.0,learning,13.0,B,,red,,moons,,,,B,red,moons,,0.0,1.0,0,right,442.8000000007,8.0,1.0,1.0,,,
98,0,,html-keyboard-response,98,337293,0.0-4.14-0.14,b4gcww2cpo,2022-09-19 15:32:46.776,543e85adfdf99b7356902e90,3,52,52,16,82,50,male,,,"<img src=""static/images/cards/stack_of_black_stars.svg"" width=""175px"" height=""250px""></img>",,,,,,,,,,,,,,,,,,,,,,,,,,,,
99,0,,html-keyboard-response,99,338909,0.0-4.14-1.14,b4gcww2cpo,2022-09-19 15:32:46.776,543e85adfdf99b7356902e90,3,52,52,16,82,50,male,1112.200000003,,"
  <table>
  <tr height=300>
    <td width=300 height=300><img src=""static/images/cards/back_of_black_stars.svg"" width=""175px"" height=""250px""></img></td>
    <td width=300 height=300><img src=""static/images/cards/back_of_black_stars.svg"" width=""175px"" height=""250px""></img></td>
  </tr>
  <tr height=200>
    <td width=300><img src=""static/images/keys/z.svg"" width=""35%"" height=""75%""></img></td>
    <td width=300><img src=""static/images/keys/m.svg"" width=""35%"" height=""75%""></img></td>
  </tr>
</table>
  ",77.0,1.0,,,,,,,,,,,,,,,,,,,,,,,,,,
100,0,,html-keyboard-response,100,340412,0.0-4.14-2.14,b4gcww2cpo,2022-09-19 15:32:46.776,543e85adfdf99b7356902e90,3,52,52,16,82,50,male,,,"
  <table>
  <tr height=300>
    <td width=300 height=300><img src=""static/images/cards/back_of_black_stars.svg"" width=""175px"" height=""250px""></img></td>
    <td width=300 height=300><img src=""static/images/cards/1_of_black_stars.svg"" width=""175px"" height=""250px""></img></td>
  </tr>
  <tr height=200>
    <td width=300><img src=""static/images/keys/z.svg"" width=""35%"" height=""75%""></img></td>
    <td width=300><img src=""static/images/keys/m.svg"" width=""35%"" height=""75%""></img></td>
  </tr>
</table>
  ",,,,,,,,,,,,,,,,,,,,,,,,,,,,
101,0,,html-keyboard-response,101,341914,0.0-4.14-3.14,b4gcww2cpo,2022-09-19 15:32:46.776,543e85adfdf99b7356902e90,3,52,52,16,82,50,male,,,"<p style=""font-size:50px"">You Lose!
No points this round.</p>",,,,,,,,,,,,,,,,,,,,,,,,,,,,
102,0,,html-keyboard-response,102,342419,0.0-4.14-4.14,b4gcww2cpo,2022-09-19 15:32:46.776,543e85adfdf99b7356902e90,3,52,52,16,82,50,male,,,,,,1.0,learning,14.0,C,,black,,stars,,,,C,black,stars,,1.0,0.0,NA,right,1112.200000003,1.0,0.0,0.0,,,
103,0,,html-keyboard-response,103,343921,0.0-4.15-0.15,b4gcww2cpo,2022-09-19 15:32:46.776,543e85adfdf99b7356902e90,3,52,52,16,82,50,male,,,"<img src=""static/images/cards/stack_of_red_stars.svg"" width=""175px"" height=""250px""></img>",,,,,,,,,,,,,,,,,,,,,,,,,,,,
104,0,,html-keyboard-response,104,345130,0.0-4.15-1.15,b4gcww2cpo,2022-09-19 15:32:46.776,543e85adfdf99b7356902e90,3,52,52,16,82,50,male,705.8000000007,,"
  <table>
  <tr height=300>
    <td width=300 height=300><img src=""static/images/cards/back_of_red_stars.svg"" width=""175px"" height=""250px""></img></td>
    <td width=300 height=300><img src=""static/images/cards/back_of_red_stars.svg"" width=""175px"" height=""250px""></img></td>
  </tr>
  <tr height=200>
    <td width=300></td>
    <td width=300><img src=""static/images/keys/m.svg"" width=""35%"" height=""75%""></img></td>
  </tr>
</table>
  ",77.0,1.0,,,,,,,,,,,,,,,,,,,,,,,,,,
105,0,,html-keyboard-response,105,346633,0.0-4.15-2.15,b4gcww2cpo,2022-09-19 15:32:46.776,543e85adfdf99b7356902e90,3,52,52,16,82,50,male,,,"
  <table>
  <tr height=300>
    <td width=300 height=300><img src=""static/images/cards/back_of_red_stars.svg"" width=""175px"" height=""250px""></img></td>
    <td width=300 height=300><img src=""static/images/cards/6_of_red_stars.svg"" width=""175px"" height=""250px""></img></td>
  </tr>
  <tr height=200>
    <td width=300></td>
    <td width=300><img src=""static/images/keys/m.svg"" width=""35%"" height=""75%""></img></td>
  </tr>
</table>
  ",,,,,,,,,,,,,,,,,,,,,,,,,,,,
106,0,,html-keyboard-response,106,348134,0.0-4.15-3.15,b4gcww2cpo,2022-09-19 15:32:46.776,543e85adfdf99b7356902e90,3,52,52,16,82,50,male,,,"<p style=""font-size:50px"">You win!
+10 points this round!</p>",,,,,,,,,,,,,,,,,,,,,,,,,,,,
107,0,,html-keyboard-response,107,348640,0.0-4.15-4.15,b4gcww2cpo,2022-09-19 15:32:46.776,543e85adfdf99b7356902e90,3,52,52,16,82,50,male,,,,,,1.0,learning,15.0,D,,red,,stars,,,,D,red,stars,,0.0,0.0,0,right,705.8000000007,6.0,1.0,1.0,,,
108,0,,html-keyboard-response,108,350141,0.0-4.16-0.16,b4gcww2cpo,2022-09-19 15:32:46.776,543e85adfdf99b7356902e90,3,52,52,16,82,50,male,,,"<img src=""static/images/cards/stack_of_red_bolts.svg"" width=""175px"" height=""250px""></img>",,,,,,,,,,,,,,,,,,,,,,,,,,,,
109,0,,html-keyboard-response,109,350963,0.0-4.16-1.16,b4gcww2cpo,2022-09-19 15:32:46.776,543e85adfdf99b7356902e90,3,52,52,16,82,50,male,318.9000000022,,"
  <table>
  <tr height=300>
    <td width=300 height=300><img src=""static/images/cards/back_of_red_bolts.svg"" width=""175px"" height=""250px""></img></td>
    <td width=300 height=300><img src=""static/images/cards/back_of_red_bolts.svg"" width=""175px"" height=""250px""></img></td>
  </tr>
  <tr height=200>
    <td width=300><img src=""static/images/keys/z.svg"" width=""35%"" height=""75%""></img></td>
    <td width=300><img src=""static/images/keys/m.svg"" width=""35%"" height=""75%""></img></td>
  </tr>
</table>
  ",90.0,1.0,,,,,,,,,,,,,,,,,,,,,,,,,,
110,0,,html-keyboard-response,110,352467,0.0-4.16-2.16,b4gcww2cpo,2022-09-19 15:32:46.776,543e85adfdf99b7356902e90,3,52,52,16,82,50,male,,,"
  <table>
  <tr height=300>
    <td width=300 height=300><img src=""static/images/cards/2_of_red_bolts.svg"" width=""175px"" height=""250px""></img></td>
    <td width=300 height=300><img src=""static/images/cards/back_of_red_bolts.svg"" width=""175px"" height=""250px""></img></td>
  </tr>
  <tr height=200>
    <td width=300><img src=""static/images/keys/z.svg"" width=""35%"" height=""75%""></img></td>
    <td width=300><img src=""static/images/keys/m.svg"" width=""35%"" height=""75%""></img></td>
  </tr>
</table>
  ",,,,,,,,,,,,,,,,,,,,,,,,,,,,
111,0,,html-keyboard-response,111,353968,0.0-4.16-3.16,b4gcww2cpo,2022-09-19 15:32:46.776,543e85adfdf99b7356902e90,3,52,52,16,82,50,male,,,"<p style=""font-size:50px"">You win!
+10 points this round!</p>",,,,,,,,,,,,,,,,,,,,,,,,,,,,
112,0,,html-keyboard-response,112,354474,0.0-4.16-4.16,b4gcww2cpo,2022-09-19 15:32:46.776,543e85adfdf99b7356902e90,3,52,52,16,82,50,male,,,,,,1.0,learning,16.0,Xc,,red,,bolts,,,,Xc,red,bolts,,1.0,0.0,NA,left,318.9000000022,2.0,0.0,1.0,,,
113,0,,html-keyboard-response,113,355975,0.0-4.17-0.17,b4gcww2cpo,2022-09-19 15:32:46.776,543e85adfdf99b7356902e90,3,52,52,16,82,50,male,,,"<img src=""static/images/cards/stack_of_black_bolts.svg"" width=""175px"" height=""250px""></img>",,,,,,,,,,,,,,,,,,,,,,,,,,,,
114,0,,html-keyboard-response,114,356868,0.0-4.17-1.17,b4gcww2cpo,2022-09-19 15:32:46.776,543e85adfdf99b7356902e90,3,52,52,16,82,50,male,390.3999999985,,"
  <table>
  <tr height=300>
    <td width=300 height=300><img src=""static/images/cards/back_of_black_bolts.svg"" width=""175px"" height=""250px""></img></td>
    <td width=300 height=300><img src=""static/images/cards/back_of_black_bolts.svg"" width=""175px"" height=""250px""></img></td>
  </tr>
  <tr height=200>
    <td width=300></td>
    <td width=300><img src=""static/images/keys/m.svg"" width=""35%"" height=""75%""></img></td>
  </tr>
</table>
  ",77.0,1.0,,,,,,,,,,,,,,,,,,,,,,,,,,
115,0,,html-keyboard-response,115,358371,0.0-4.17-2.17,b4gcww2cpo,2022-09-19 15:32:46.776,543e85adfdf99b7356902e90,3,52,52,16,82,50,male,,,"
  <table>
  <tr height=300>
    <td width=300 height=300><img src=""static/images/cards/back_of_black_bolts.svg"" width=""175px"" height=""250px""></img></td>
    <td width=300 height=300><img src=""static/images/cards/2_of_black_bolts.svg"" width=""175px"" height=""250px""></img></td>
  </tr>
  <tr height=200>
    <td width=300></td>
    <td width=300><img src=""static/images/keys/m.svg"" width=""35%"" height=""75%""></img></td>
  </tr>
</table>
  ",,,,,,,,,,,,,,,,,,,,,,,,,,,,
116,0,,html-keyboard-response,116,359873,0.0-4.17-3.17,b4gcww2cpo,2022-09-19 15:32:46.776,543e85adfdf99b7356902e90,3,52,52,16,82,50,male,,,"<p style=""font-size:50px"">You win!
+10 points this round!</p>",,,,,,,,,,,,,,,,,,,,,,,,,,,,
117,0,,html-keyboard-response,117,360378,0.0-4.17-4.17,b4gcww2cpo,2022-09-19 15:32:46.776,543e85adfdf99b7356902e90,3,52,52,16,82,50,male,,,,,,1.0,learning,17.0,Xnc,,black,,bolts,,,,Xnc,black,bolts,,0.0,0.0,0,right,390.3999999985,2.0,0.0,1.0,,,
118,0,,html-keyboard-response,118,361880,0.0-4.18-0.18,b4gcww2cpo,2022-09-19 15:32:46.776,543e85adfdf99b7356902e90,3,52,52,16,82,50,male,,,"<img src=""static/images/cards/stack_of_black_moons.svg"" width=""175px"" height=""250px""></img>",,,,,,,,,,,,,,,,,,,,,,,,,,,,
119,0,,html-keyboard-response,119,362992,0.0-4.18-1.18,b4gcww2cpo,2022-09-19 15:32:46.776,543e85adfdf99b7356902e90,3,52,52,16,82,50,male,609.0,,"
  <table>
  <tr height=300>
    <td width=300 height=300><img src=""static/images/cards/back_of_black_moons.svg"" width=""175px"" height=""250px""></img></td>
    <td width=300 height=300><img src=""static/images/cards/back_of_black_moons.svg"" width=""175px"" height=""250px""></img></td>
  </tr>
  <tr height=200>
    <td width=300><img src=""static/images/keys/z.svg"" width=""35%"" height=""75%""></img></td>
    <td width=300><img src=""static/images/keys/m.svg"" width=""35%"" height=""75%""></img></td>
  </tr>
</table>
  ",90.0,1.0,,,,,,,,,,,,,,,,,,,,,,,,,,
120,0,,html-keyboard-response,120,364495,0.0-4.18-2.18,b4gcww2cpo,2022-09-19 15:32:46.776,543e85adfdf99b7356902e90,3,52,52,16,82,50,male,,,"
  <table>
  <tr height=300>
    <td width=300 height=300><img src=""static/images/cards/9_of_black_moons.svg"" width=""175px"" height=""250px""></img></td>
    <td width=300 height=300><img src=""static/images/cards/back_of_black_moons.svg"" width=""175px"" height=""250px""></img></td>
  </tr>
  <tr height=200>
    <td width=300><img src=""static/images/keys/z.svg"" width=""35%"" height=""75%""></img></td>
    <td width=300><img src=""static/images/keys/m.svg"" width=""35%"" height=""75%""></img></td>
  </tr>
</table>
  ",,,,,,,,,,,,,,,,,,,,,,,,,,,,
121,0,,html-keyboard-response,121,365997,0.0-4.18-3.18,b4gcww2cpo,2022-09-19 15:32:46.776,543e85adfdf99b7356902e90,3,52,52,16,82,50,male,,,"<p style=""font-size:50px"">You win!
+10 points this round!</p>",,,,,,,,,,,,,,,,,,,,,,,,,,,,
122,0,,html-keyboard-response,122,366502,0.0-4.18-4.18,b4gcww2cpo,2022-09-19 15:32:46.776,543e85adfdf99b7356902e90,3,52,52,16,82,50,male,,,,,,1.0,learning,18.0,A,,black,,moons,,,,A,black,moons,,1.0,1.0,NA,left,609.0,9.0,1.0,1.0,,,
123,0,,html-keyboard-response,123,368004,0.0-4.19-0.19,b4gcww2cpo,2022-09-19 15:32:46.776,543e85adfdf99b7356902e90,3,52,52,16,82,50,male,,,"<img src=""static/images/cards/stack_of_red_moons.svg"" width=""175px"" height=""250px""></img>",,,,,,,,,,,,,,,,,,,,,,,,,,,,
124,0,,html-keyboard-response,124,368952,0.0-4.19-1.19,b4gcww2cpo,2022-09-19 15:32:46.776,543e85adfdf99b7356902e90,3,52,52,16,82,50,male,445.8999999985,,"
  <table>
  <tr height=300>
    <td width=300 height=300><img src=""static/images/cards/back_of_red_moons.svg"" width=""175px"" height=""250px""></img></td>
    <td width=300 height=300><img src=""static/images/cards/back_of_red_moons.svg"" width=""175px"" height=""250px""></img></td>
  </tr>
  <tr height=200>
    <td width=300></td>
    <td width=300><img src=""static/images/keys/m.svg"" width=""35%"" height=""75%""></img></td>
  </tr>
</table>
  ",77.0,1.0,,,,,,,,,,,,,,,,,,,,,,,,,,
125,0,,html-keyboard-response,125,370455,0.0-4.19-2.19,b4gcww2cpo,2022-09-19 15:32:46.776,543e85adfdf99b7356902e90,3,52,52,16,82,50,male,,,"
  <table>
  <tr height=300>
    <td width=300 height=300><img src=""static/images/cards/back_of_red_moons.svg"" width=""175px"" height=""250px""></img></td>
    <td width=300 height=300><img src=""static/images/cards/8_of_red_moons.svg"" width=""175px"" height=""250px""></img></td>
  </tr>
  <tr height=200>
    <td width=300></td>
    <td width=300><img src=""static/images/keys/m.svg"" width=""35%"" height=""75%""></img></td>
  </tr>
</table>
  ",,,,,,,,,,,,,,,,,,,,,,,,,,,,
126,0,,html-keyboard-response,126,371956,0.0-4.19-3.19,b4gcww2cpo,2022-09-19 15:32:46.776,543e85adfdf99b7356902e90,3,52,52,16,82,50,male,,,"<p style=""font-size:50px"">You win!
+10 points this round!</p>",,,,,,,,,,,,,,,,,,,,,,,,,,,,
127,0,,html-keyboard-response,127,372462,0.0-4.19-4.19,b4gcww2cpo,2022-09-19 15:32:46.776,543e85adfdf99b7356902e90,3,52,52,16,82,50,male,,,,,,1.0,learning,19.0,B,,red,,moons,,,,B,red,moons,,0.0,1.0,0,right,445.8999999985,8.0,1.0,1.0,,,
128,0,,html-keyboard-response,128,373963,0.0-4.20-0.20,b4gcww2cpo,2022-09-19 15:32:46.776,543e85adfdf99b7356902e90,3,52,52,16,82,50,male,,,"<img src=""static/images/cards/stack_of_black_stars.svg"" width=""175px"" height=""250px""></img>",,,,,,,,,,,,,,,,,,,,,,,,,,,,
129,0,,html-keyboard-response,129,375370,0.0-4.20-1.20,b4gcww2cpo,2022-09-19 15:32:46.776,543e85adfdf99b7356902e90,3,52,52,16,82,50,male,902.6999999993,,"
  <table>
  <tr height=300>
    <td width=300 height=300><img src=""static/images/cards/back_of_black_stars.svg"" width=""175px"" height=""250px""></img></td>
    <td width=300 height=300><img src=""static/images/cards/back_of_black_stars.svg"" width=""175px"" height=""250px""></img></td>
  </tr>
  <tr height=200>
    <td width=300><img src=""static/images/keys/z.svg"" width=""35%"" height=""75%""></img></td>
    <td width=300><img src=""static/images/keys/m.svg"" width=""35%"" height=""75%""></img></td>
  </tr>
</table>
  ",90.0,1.0,,,,,,,,,,,,,,,,,,,,,,,,,,
130,0,,html-keyboard-response,130,376873,0.0-4.20-2.20,b4gcww2cpo,2022-09-19 15:32:46.776,543e85adfdf99b7356902e90,3,52,52,16,82,50,male,,,"
  <table>
  <tr height=300>
    <td width=300 height=300><img src=""static/images/cards/6_of_black_stars.svg"" width=""175px"" height=""250px""></img></td>
    <td width=300 height=300><img src=""static/images/cards/back_of_black_stars.svg"" width=""175px"" height=""250px""></img></td>
  </tr>
  <tr height=200>
    <td width=300><img src=""static/images/keys/z.svg"" width=""35%"" height=""75%""></img></td>
    <td width=300><img src=""static/images/keys/m.svg"" width=""35%"" height=""75%""></img></td>
  </tr>
</table>
  ",,,,,,,,,,,,,,,,,,,,,,,,,,,,
131,0,,html-keyboard-response,131,378374,0.0-4.20-3.20,b4gcww2cpo,2022-09-19 15:32:46.776,543e85adfdf99b7356902e90,3,52,52,16,82,50,male,,,"<p style=""font-size:50px"">You Lose!
No points this round.</p>",,,,,,,,,,,,,,,,,,,,,,,,,,,,
132,0,,html-keyboard-response,132,378880,0.0-4.20-4.20,b4gcww2cpo,2022-09-19 15:32:46.776,543e85adfdf99b7356902e90,3,52,52,16,82,50,male,,,,,,1.0,learning,20.0,C,,black,,stars,,,,C,black,stars,,1.0,0.0,NA,left,902.6999999993,6.0,1.0,0.0,,,
133,0,,html-keyboard-response,133,380381,0.0-4.21-0.21,b4gcww2cpo,2022-09-19 15:32:46.776,543e85adfdf99b7356902e90,3,52,52,16,82,50,male,,,"<img src=""static/images/cards/stack_of_red_stars.svg"" width=""175px"" height=""250px""></img>",,,,,,,,,,,,,,,,,,,,,,,,,,,,
134,0,,html-keyboard-response,134,381425,0.0-4.21-1.21,b4gcww2cpo,2022-09-19 15:32:46.776,543e85adfdf99b7356902e90,3,52,52,16,82,50,male,540.8000000007,,"
  <table>
  <tr height=300>
    <td width=300 height=300><img src=""static/images/cards/back_of_red_stars.svg"" width=""175px"" height=""250px""></img></td>
    <td width=300 height=300><img src=""static/images/cards/back_of_red_stars.svg"" width=""175px"" height=""250px""></img></td>
  </tr>
  <tr height=200>
    <td width=300></td>
    <td width=300><img src=""static/images/keys/m.svg"" width=""35%"" height=""75%""></img></td>
  </tr>
</table>
  ",77.0,1.0,,,,,,,,,,,,,,,,,,,,,,,,,,
135,0,,html-keyboard-response,135,382928,0.0-4.21-2.21,b4gcww2cpo,2022-09-19 15:32:46.776,543e85adfdf99b7356902e90,3,52,52,16,82,50,male,,,"
  <table>
  <tr height=300>
    <td width=300 height=300><img src=""static/images/cards/back_of_red_stars.svg"" width=""175px"" height=""250px""></img></td>
    <td width=300 height=300><img src=""static/images/cards/1_of_red_stars.svg"" width=""175px"" height=""250px""></img></td>
  </tr>
  <tr height=200>
    <td width=300></td>
    <td width=300><img src=""static/images/keys/m.svg"" width=""35%"" height=""75%""></img></td>
  </tr>
</table>
  ",,,,,,,,,,,,,,,,,,,,,,,,,,,,
136,0,,html-keyboard-response,136,384430,0.0-4.21-3.21,b4gcww2cpo,2022-09-19 15:32:46.776,543e85adfdf99b7356902e90,3,52,52,16,82,50,male,,,"<p style=""font-size:50px"">You win!
+10 points this round!</p>",,,,,,,,,,,,,,,,,,,,,,,,,,,,
137,0,,html-keyboard-response,137,384935,0.0-4.21-4.21,b4gcww2cpo,2022-09-19 15:32:46.776,543e85adfdf99b7356902e90,3,52,52,16,82,50,male,,,,,,1.0,learning,21.0,D,,red,,stars,,,,D,red,stars,,0.0,0.0,0,right,540.8000000007,1.0,0.0,1.0,,,
138,0,,html-keyboard-response,138,386437,0.0-4.22-0.22,b4gcww2cpo,2022-09-19 15:32:46.776,543e85adfdf99b7356902e90,3,52,52,16,82,50,male,,,"<img src=""static/images/cards/stack_of_red_bolts.svg"" width=""175px"" height=""250px""></img>",,,,,,,,,,,,,,,,,,,,,,,,,,,,
139,0,,html-keyboard-response,139,387323,0.0-4.22-1.22,b4gcww2cpo,2022-09-19 15:32:46.776,543e85adfdf99b7356902e90,3,52,52,16,82,50,male,382.8999999985,,"
  <table>
  <tr height=300>
    <td width=300 height=300><img src=""static/images/cards/back_of_red_bolts.svg"" width=""175px"" height=""250px""></img></td>
    <td width=300 height=300><img src=""static/images/cards/back_of_red_bolts.svg"" width=""175px"" height=""250px""></img></td>
  </tr>
  <tr height=200>
    <td width=300><img src=""static/images/keys/z.svg"" width=""35%"" height=""75%""></img></td>
    <td width=300><img src=""static/images/keys/m.svg"" width=""35%"" height=""75%""></img></td>
  </tr>
</table>
  ",77.0,1.0,,,,,,,,,,,,,,,,,,,,,,,,,,
140,0,,html-keyboard-response,140,388825,0.0-4.22-2.22,b4gcww2cpo,2022-09-19 15:32:46.776,543e85adfdf99b7356902e90,3,52,52,16,82,50,male,,,"
  <table>
  <tr height=300>
    <td width=300 height=300><img src=""static/images/cards/back_of_red_bolts.svg"" width=""175px"" height=""250px""></img></td>
    <td width=300 height=300><img src=""static/images/cards/3_of_red_bolts.svg"" width=""175px"" height=""250px""></img></td>
  </tr>
  <tr height=200>
    <td width=300><img src=""static/images/keys/z.svg"" width=""35%"" height=""75%""></img></td>
    <td width=300><img src=""static/images/keys/m.svg"" width=""35%"" height=""75%""></img></td>
  </tr>
</table>
  ",,,,,,,,,,,,,,,,,,,,,,,,,,,,
141,0,,html-keyboard-response,141,390326,0.0-4.22-3.22,b4gcww2cpo,2022-09-19 15:32:46.776,543e85adfdf99b7356902e90,3,52,52,16,82,50,male,,,"<p style=""font-size:50px"">You win!
+10 points this round!</p>",,,,,,,,,,,,,,,,,,,,,,,,,,,,
142,0,,html-keyboard-response,142,390832,0.0-4.22-4.22,b4gcww2cpo,2022-09-19 15:32:46.776,543e85adfdf99b7356902e90,3,52,52,16,82,50,male,,,,,,1.0,learning,22.0,Xc,,red,,bolts,,,,Xc,red,bolts,,1.0,0.0,NA,right,382.8999999985,3.0,0.0,1.0,,,
143,0,,html-keyboard-response,143,392334,0.0-4.23-0.23,b4gcww2cpo,2022-09-19 15:32:46.776,543e85adfdf99b7356902e90,3,52,52,16,82,50,male,,,"<img src=""static/images/cards/stack_of_black_bolts.svg"" width=""175px"" height=""250px""></img>",,,,,,,,,,,,,,,,,,,,,,,,,,,,
144,0,,html-keyboard-response,144,393441,0.0-4.23-1.23,b4gcww2cpo,2022-09-19 15:32:46.776,543e85adfdf99b7356902e90,3,52,52,16,82,50,male,601.3999999985,,"
  <table>
  <tr height=300>
    <td width=300 height=300><img src=""static/images/cards/back_of_black_bolts.svg"" width=""175px"" height=""250px""></img></td>
    <td width=300 height=300><img src=""static/images/cards/back_of_black_bolts.svg"" width=""175px"" height=""250px""></img></td>
  </tr>
  <tr height=200>
    <td width=300><img src=""static/images/keys/z.svg"" width=""35%"" height=""75%""></img></td>
    <td width=300></td>
  </tr>
</table>
  ",90.0,1.0,,,,,,,,,,,,,,,,,,,,,,,,,,
145,0,,html-keyboard-response,145,394944,0.0-4.23-2.23,b4gcww2cpo,2022-09-19 15:32:46.776,543e85adfdf99b7356902e90,3,52,52,16,82,50,male,,,"
  <table>
  <tr height=300>
    <td width=300 height=300><img src=""static/images/cards/7_of_black_bolts.svg"" width=""175px"" height=""250px""></img></td>
    <td width=300 height=300><img src=""static/images/cards/back_of_black_bolts.svg"" width=""175px"" height=""250px""></img></td>
  </tr>
  <tr height=200>
    <td width=300><img src=""static/images/keys/z.svg"" width=""35%"" height=""75%""></img></td>
    <td width=300></td>
  </tr>
</table>
  ",,,,,,,,,,,,,,,,,,,,,,,,,,,,
146,0,,html-keyboard-response,146,396445,0.0-4.23-3.23,b4gcww2cpo,2022-09-19 15:32:46.776,543e85adfdf99b7356902e90,3,52,52,16,82,50,male,,,"<p style=""font-size:50px"">You win!
+10 points this round!</p>",,,,,,,,,,,,,,,,,,,,,,,,,,,,
147,0,,html-keyboard-response,147,396951,0.0-4.23-4.23,b4gcww2cpo,2022-09-19 15:32:46.776,543e85adfdf99b7356902e90,3,52,52,16,82,50,male,,,,,,1.0,learning,23.0,Xnc,,black,,bolts,,,,Xnc,black,bolts,,0.0,0.0,1,left,601.3999999985,7.0,1.0,1.0,,,
148,0,,call-function,148,396964,0.0-5.0,b4gcww2cpo,2022-09-19 15:32:46.776,543e85adfdf99b7356902e90,3,52,52,16,82,50,male,,,,,,,,,,,,,,,,,,,,,,,,,,,,,,,
149,0,,image-keyboard-response,149,406474,0.0-6.0-0.0,b4gcww2cpo,2022-09-19 15:32:46.776,543e85adfdf99b7356902e90,3,52,52,16,82,50,male,9508.6999999993,,static/images/instructions_CB_3/Slide20.png,39.0,,,,,,,,,,,,,,,,,,,,,,,,,,,
150,0,,image-keyboard-response,150,432205,0.0-6.1-0.1,b4gcww2cpo,2022-09-19 15:32:46.776,543e85adfdf99b7356902e90,3,52,52,16,82,50,male,25728.799999997,,static/images/instructions_CB_3/Slide21.png,39.0,,,,,,,,,,,,,,,,,,,,,,,,,,,
151,0,,image-keyboard-response,151,441332,0.0-6.2-0.2,b4gcww2cpo,2022-09-19 15:32:46.776,543e85adfdf99b7356902e90,3,52,52,16,82,50,male,9124.6000000015,,static/images/instructions_CB_3/Slide22.png,39.0,,,,,,,,,,,,,,,,,,,,,,,,,,,
152,0,,image-keyboard-response,152,467063,0.0-6.3-0.3,b4gcww2cpo,2022-09-19 15:32:46.776,543e85adfdf99b7356902e90,3,52,52,16,82,50,male,25728.5,,static/images/instructions_CB_3/Slide23.png,39.0,,,,,,,,,,,,,,,,,,,,,,,,,,,
153,0,,image-keyboard-response,153,471162,0.0-6.4-0.4,b4gcww2cpo,2022-09-19 15:32:46.776,543e85adfdf99b7356902e90,3,52,52,16,82,50,male,4096.799999997,,static/images/instructions_CB_3/Slide24.png,39.0,,,,,,,,,,,,,,,,,,,,,,,,,,,
154,0,,html-keyboard-response,154,472739,0.0-7.0-0.0,b4gcww2cpo,2022-09-19 15:32:46.776,543e85adfdf99b7356902e90,3,52,52,16,82,50,male,1574.6999999993,,"
  <table>
  <tr height=300>
    <td width=300 height=300><img src=""static/images/cards/stack_of_red_stars.svg"" width=""175px"" height=""250px""></img></td>
    <td width=300 height=300><img src=""static/images/cards/stack_of_red_moons.svg"" width=""175px"" height=""250px""></img></td>
  </tr>
  <tr height=200>
    <td width=300><img src=""static/images/keys/w.svg"" width=""35%"" height=""75%""></img></td>
    <td width=300><img src=""static/images/keys/o.svg"" width=""35%"" height=""75%""></img></td>
  </tr>
</table>
  ",79.0,1.0,,,,,,,,,,,,,,,,,,,,,,,,,,
155,0,,html-keyboard-response,155,474336,0.0-7.0-1.0,b4gcww2cpo,2022-09-19 15:32:46.776,543e85adfdf99b7356902e90,3,52,52,16,82,50,male,1093.8000000007,,"
  <table>
  <tr height=300>
    <td width=300 height=300><img src=""static/images/cards/back_of_red_moons.svg"" width=""175px"" height=""250px""></img></td>
    <td width=300 height=300><img src=""static/images/cards/back_of_red_moons.svg"" width=""175px"" height=""250px""></img></td>
  </tr>
  <tr height=200>
    <td width=300></td>
    <td width=300><img src=""static/images/keys/m.svg"" width=""35%"" height=""75%""></img></td>
  </tr>
</table>
  ",77.0,1.0,,,,,,,,,,,,,,,,,,,,,,,,,,
156,0,,html-keyboard-response,156,475839,0.0-7.0-2.0,b4gcww2cpo,2022-09-19 15:32:46.776,543e85adfdf99b7356902e90,3,52,52,16,82,50,male,,,"
  <table>
  <tr height=300>
    <td width=300 height=300><img src=""static/images/cards/back_of_red_moons.svg"" width=""175px"" height=""250px""></img></td>
    <td width=300 height=300><img src=""static/images/cards/7_of_red_moons.svg"" width=""175px"" height=""250px""></img></td>
  </tr>
  <tr height=200>
    <td width=300></td>
    <td width=300><img src=""static/images/keys/m.svg"" width=""35%"" height=""75%""></img></td>
  </tr>
</table>
  ",,,,,,,,,,,,,,,,,,,,,,,,,,,,
157,0,,html-keyboard-response,157,477340,0.0-7.0-3.0,b4gcww2cpo,2022-09-19 15:32:46.776,543e85adfdf99b7356902e90,3,52,52,16,82,50,male,,,"<p style=""font-size:50px"">You win!
+10 points this round!</p>",,,,,,,,,,,,,,,,,,,,,,,,,,,,
158,0,,html-keyboard-response,158,477847,0.0-7.0-4.0,b4gcww2cpo,2022-09-19 15:32:46.776,543e85adfdf99b7356902e90,3,52,52,16,82,50,male,,,,,,1.0,choice,0.0,B,D,red,red,stars,moons,D,B,B,red,moons,1574.6999999993,0.0,1.0,0,right,1093.8000000007,7.0,1.0,1.0,,,
159,0,,html-keyboard-response,159,479327,0.0-7.1-0.1,b4gcww2cpo,2022-09-19 15:32:46.776,543e85adfdf99b7356902e90,3,52,52,16,82,50,male,1476.5,,"
  <table>
  <tr height=300>
    <td width=300 height=300><img src=""static/images/cards/stack_of_black_moons.svg"" width=""175px"" height=""250px""></img></td>
    <td width=300 height=300><img src=""static/images/cards/stack_of_red_stars.svg"" width=""175px"" height=""250px""></img></td>
  </tr>
  <tr height=200>
    <td width=300><img src=""static/images/keys/w.svg"" width=""35%"" height=""75%""></img></td>
    <td width=300><img src=""static/images/keys/o.svg"" width=""35%"" height=""75%""></img></td>
  </tr>
</table>
  ",87.0,1.0,,,,,,,,,,,,,,,,,,,,,,,,,,
160,0,,html-keyboard-response,160,481254,0.0-7.1-1.1,b4gcww2cpo,2022-09-19 15:32:46.776,543e85adfdf99b7356902e90,3,52,52,16,82,50,male,1424.5,,"
  <table>
  <tr height=300>
    <td width=300 height=300><img src=""static/images/cards/back_of_black_moons.svg"" width=""175px"" height=""250px""></img></td>
    <td width=300 height=300><img src=""static/images/cards/back_of_black_moons.svg"" width=""175px"" height=""250px""></img></td>
  </tr>
  <tr height=200>
    <td width=300><img src=""static/images/keys/z.svg"" width=""35%"" height=""75%""></img></td>
    <td width=300><img src=""static/images/keys/m.svg"" width=""35%"" height=""75%""></img></td>
  </tr>
</table>
  ",90.0,1.0,,,,,,,,,,,,,,,,,,,,,,,,,,
161,0,,html-keyboard-response,161,482757,0.0-7.1-2.1,b4gcww2cpo,2022-09-19 15:32:46.776,543e85adfdf99b7356902e90,3,52,52,16,82,50,male,,,"
  <table>
  <tr height=300>
    <td width=300 height=300><img src=""static/images/cards/7_of_black_moons.svg"" width=""175px"" height=""250px""></img></td>
    <td width=300 height=300><img src=""static/images/cards/back_of_black_moons.svg"" width=""175px"" height=""250px""></img></td>
  </tr>
  <tr height=200>
    <td width=300><img src=""static/images/keys/z.svg"" width=""35%"" height=""75%""></img></td>
    <td width=300><img src=""static/images/keys/m.svg"" width=""35%"" height=""75%""></img></td>
  </tr>
</table>
  ",,,,,,,,,,,,,,,,,,,,,,,,,,,,
162,0,,html-keyboard-response,162,484259,0.0-7.1-3.1,b4gcww2cpo,2022-09-19 15:32:46.776,543e85adfdf99b7356902e90,3,52,52,16,82,50,male,,,"<p style=""font-size:50px"">You win!
+10 points this round!</p>",,,,,,,,,,,,,,,,,,,,,,,,,,,,
163,0,,html-keyboard-response,163,484764,0.0-7.1-4.1,b4gcww2cpo,2022-09-19 15:32:46.776,543e85adfdf99b7356902e90,3,52,52,16,82,50,male,,,,,,1.0,choice,1.0,A,D,black,red,moons,stars,A,D,A,black,moons,1476.5,1.0,1.0,NA,left,1424.5,7.0,1.0,1.0,,,
164,0,,html-keyboard-response,164,487283,0.0-7.2-0.2,b4gcww2cpo,2022-09-19 15:32:46.776,543e85adfdf99b7356902e90,3,52,52,16,82,50,male,2516.0,,"
  <table>
  <tr height=300>
    <td width=300 height=300><img src=""static/images/cards/stack_of_black_stars.svg"" width=""175px"" height=""250px""></img></td>
    <td width=300 height=300><img src=""static/images/cards/stack_of_red_stars.svg"" width=""175px"" height=""250px""></img></td>
  </tr>
  <tr height=200>
    <td width=300><img src=""static/images/keys/w.svg"" width=""35%"" height=""75%""></img></td>
    <td width=300><img src=""static/images/keys/o.svg"" width=""35%"" height=""75%""></img></td>
  </tr>
</table>
  ",87.0,1.0,,,,,,,,,,,,,,,,,,,,,,,,,,
165,0,,html-keyboard-response,165,488554,0.0-7.2-1.2,b4gcww2cpo,2022-09-19 15:32:46.776,543e85adfdf99b7356902e90,3,52,52,16,82,50,male,768.1000000015,,"
  <table>
  <tr height=300>
    <td width=300 height=300><img src=""static/images/cards/back_of_black_stars.svg"" width=""175px"" height=""250px""></img></td>
    <td width=300 height=300><img src=""static/images/cards/back_of_black_stars.svg"" width=""175px"" height=""250px""></img></td>
  </tr>
  <tr height=200>
    <td width=300><img src=""static/images/keys/z.svg"" width=""35%"" height=""75%""></img></td>
    <td width=300><img src=""static/images/keys/m.svg"" width=""35%"" height=""75%""></img></td>
  </tr>
</table>
  ",90.0,1.0,,,,,,,,,,,,,,,,,,,,,,,,,,
166,0,,html-keyboard-response,166,490057,0.0-7.2-2.2,b4gcww2cpo,2022-09-19 15:32:46.776,543e85adfdf99b7356902e90,3,52,52,16,82,50,male,,,"
  <table>
  <tr height=300>
    <td width=300 height=300><img src=""static/images/cards/1_of_black_stars.svg"" width=""175px"" height=""250px""></img></td>
    <td width=300 height=300><img src=""static/images/cards/back_of_black_stars.svg"" width=""175px"" height=""250px""></img></td>
  </tr>
  <tr height=200>
    <td width=300><img src=""static/images/keys/z.svg"" width=""35%"" height=""75%""></img></td>
    <td width=300><img src=""static/images/keys/m.svg"" width=""35%"" height=""75%""></img></td>
  </tr>
</table>
  ",,,,,,,,,,,,,,,,,,,,,,,,,,,,
167,0,,html-keyboard-response,167,491559,0.0-7.2-3.2,b4gcww2cpo,2022-09-19 15:32:46.776,543e85adfdf99b7356902e90,3,52,52,16,82,50,male,,,"<p style=""font-size:50px"">You win!
+10 points this round!</p>",,,,,,,,,,,,,,,,,,,,,,,,,,,,
168,0,,html-keyboard-response,168,492065,0.0-7.2-4.2,b4gcww2cpo,2022-09-19 15:32:46.776,543e85adfdf99b7356902e90,3,52,52,16,82,50,male,,,,,,1.0,choice,2.0,C,D,black,red,stars,stars,C,D,C,black,stars,2516.0,1.0,0.0,NA,left,768.1000000015,1.0,0.0,1.0,,,
169,0,,html-keyboard-response,169,494904,0.0-7.3-0.3,b4gcww2cpo,2022-09-19 15:32:46.776,543e85adfdf99b7356902e90,3,52,52,16,82,50,male,2836.6000000015,,"
  <table>
  <tr height=300>
    <td width=300 height=300><img src=""static/images/cards/stack_of_red_stars.svg"" width=""175px"" height=""250px""></img></td>
    <td width=300 height=300><img src=""static/images/cards/stack_of_black_moons.svg"" width=""175px"" height=""250px""></img></td>
  </tr>
  <tr height=200>
    <td width=300><img src=""static/images/keys/w.svg"" width=""35%"" height=""75%""></img></td>
    <td width=300><img src=""static/images/keys/o.svg"" width=""35%"" height=""75%""></img></td>
  </tr>
</table>
  ",79.0,1.0,,,,,,,,,,,,,,,,,,,,,,,,,,
170,0,,html-keyboard-response,170,496590,0.0-7.3-1.3,b4gcww2cpo,2022-09-19 15:32:46.776,543e85adfdf99b7356902e90,3,52,52,16,82,50,male,1180.8000000007,,"
  <table>
  <tr height=300>
    <td width=300 height=300><img src=""static/images/cards/back_of_black_moons.svg"" width=""175px"" height=""250px""></img></td>
    <td width=300 height=300><img src=""static/images/cards/back_of_black_moons.svg"" width=""175px"" height=""250px""></img></td>
  </tr>
  <tr height=200>
    <td width=300><img src=""static/images/keys/z.svg"" width=""35%"" height=""75%""></img></td>
    <td width=300><img src=""static/images/keys/m.svg"" width=""35%"" height=""75%""></img></td>
  </tr>
</table>
  ",77.0,1.0,,,,,,,,,,,,,,,,,,,,,,,,,,
171,0,,html-keyboard-response,171,498093,0.0-7.3-2.3,b4gcww2cpo,2022-09-19 15:32:46.776,543e85adfdf99b7356902e90,3,52,52,16,82,50,male,,,"
  <table>
  <tr height=300>
    <td width=300 height=300><img src=""static/images/cards/back_of_black_moons.svg"" width=""175px"" height=""250px""></img></td>
    <td width=300 height=300><img src=""static/images/cards/4_of_black_moons.svg"" width=""175px"" height=""250px""></img></td>
  </tr>
  <tr height=200>
    <td width=300><img src=""static/images/keys/z.svg"" width=""35%"" height=""75%""></img></td>
    <td width=300><img src=""static/images/keys/m.svg"" width=""35%"" height=""75%""></img></td>
  </tr>
</table>
  ",,,,,,,,,,,,,,,,,,,,,,,,,,,,
172,0,,html-keyboard-response,172,499594,0.0-7.3-3.3,b4gcww2cpo,2022-09-19 15:32:46.776,543e85adfdf99b7356902e90,3,52,52,16,82,50,male,,,"<p style=""font-size:50px"">You Lose!
No points this round.</p>",,,,,,,,,,,,,,,,,,,,,,,,,,,,
173,0,,html-keyboard-response,173,500100,0.0-7.3-4.3,b4gcww2cpo,2022-09-19 15:32:46.776,543e85adfdf99b7356902e90,3,52,52,16,82,50,male,,,,,,1.0,choice,3.0,A,D,red,black,stars,moons,D,A,A,black,moons,2836.6000000015,1.0,1.0,NA,right,1180.8000000007,4.0,0.0,0.0,,,
174,0,,html-keyboard-response,174,501873,0.0-7.4-0.4,b4gcww2cpo,2022-09-19 15:32:46.776,543e85adfdf99b7356902e90,3,52,52,16,82,50,male,1770.3000000007,,"
  <table>
  <tr height=300>
    <td width=300 height=300><img src=""static/images/cards/stack_of_black_moons.svg"" width=""175px"" height=""250px""></img></td>
    <td width=300 height=300><img src=""static/images/cards/stack_of_red_moons.svg"" width=""175px"" height=""250px""></img></td>
  </tr>
  <tr height=200>
    <td width=300><img src=""static/images/keys/w.svg"" width=""35%"" height=""75%""></img></td>
    <td width=300><img src=""static/images/keys/o.svg"" width=""35%"" height=""75%""></img></td>
  </tr>
</table>
  ",79.0,1.0,,,,,,,,,,,,,,,,,,,,,,,,,,
175,0,,html-keyboard-response,175,503148,0.0-7.4-1.4,b4gcww2cpo,2022-09-19 15:32:46.776,543e85adfdf99b7356902e90,3,52,52,16,82,50,male,771.8999999985,,"
  <table>
  <tr height=300>
    <td width=300 height=300><img src=""static/images/cards/back_of_red_moons.svg"" width=""175px"" height=""250px""></img></td>
    <td width=300 height=300><img src=""static/images/cards/back_of_red_moons.svg"" width=""175px"" height=""250px""></img></td>
  </tr>
  <tr height=200>
    <td width=300></td>
    <td width=300><img src=""static/images/keys/m.svg"" width=""35%"" height=""75%""></img></td>
  </tr>
</table>
  ",77.0,1.0,,,,,,,,,,,,,,,,,,,,,,,,,,
176,0,,html-keyboard-response,176,504651,0.0-7.4-2.4,b4gcww2cpo,2022-09-19 15:32:46.776,543e85adfdf99b7356902e90,3,52,52,16,82,50,male,,,"
  <table>
  <tr height=300>
    <td width=300 height=300><img src=""static/images/cards/back_of_red_moons.svg"" width=""175px"" height=""250px""></img></td>
    <td width=300 height=300><img src=""static/images/cards/10_of_red_moons.svg"" width=""175px"" height=""250px""></img></td>
  </tr>
  <tr height=200>
    <td width=300></td>
    <td width=300><img src=""static/images/keys/m.svg"" width=""35%"" height=""75%""></img></td>
  </tr>
</table>
  ",,,,,,,,,,,,,,,,,,,,,,,,,,,,
177,0,,html-keyboard-response,177,506152,0.0-7.4-3.4,b4gcww2cpo,2022-09-19 15:32:46.776,543e85adfdf99b7356902e90,3,52,52,16,82,50,male,,,"<p style=""font-size:50px"">You win!
+10 points this round!</p>",,,,,,,,,,,,,,,,,,,,,,,,,,,,
178,0,,html-keyboard-response,178,506658,0.0-7.4-4.4,b4gcww2cpo,2022-09-19 15:32:46.776,543e85adfdf99b7356902e90,3,52,52,16,82,50,male,,,,,,1.0,choice,4.0,A,B,black,red,moons,moons,A,B,B,red,moons,1770.3000000007,0.0,1.0,0,right,771.8999999985,10.0,1.0,1.0,,,
179,0,,html-keyboard-response,179,508530,0.0-7.5-0.5,b4gcww2cpo,2022-09-19 15:32:46.776,543e85adfdf99b7356902e90,3,52,52,16,82,50,male,1869.1999999993,,"
  <table>
  <tr height=300>
    <td width=300 height=300><img src=""static/images/cards/stack_of_red_stars.svg"" width=""175px"" height=""250px""></img></td>
    <td width=300 height=300><img src=""static/images/cards/stack_of_black_stars.svg"" width=""175px"" height=""250px""></img></td>
  </tr>
  <tr height=200>
    <td width=300><img src=""static/images/keys/w.svg"" width=""35%"" height=""75%""></img></td>
    <td width=300><img src=""static/images/keys/o.svg"" width=""35%"" height=""75%""></img></td>
  </tr>
</table>
  ",87.0,1.0,,,,,,,,,,,,,,,,,,,,,,,,,,
180,0,,html-keyboard-response,180,509885,0.0-7.5-1.5,b4gcww2cpo,2022-09-19 15:32:46.776,543e85adfdf99b7356902e90,3,52,52,16,82,50,male,852.3000000007,,"
  <table>
  <tr height=300>
    <td width=300 height=300><img src=""static/images/cards/back_of_red_stars.svg"" width=""175px"" height=""250px""></img></td>
    <td width=300 height=300><img src=""static/images/cards/back_of_red_stars.svg"" width=""175px"" height=""250px""></img></td>
  </tr>
  <tr height=200>
    <td width=300></td>
    <td width=300><img src=""static/images/keys/m.svg"" width=""35%"" height=""75%""></img></td>
  </tr>
</table>
  ",77.0,1.0,,,,,,,,,,,,,,,,,,,,,,,,,,
181,0,,html-keyboard-response,181,511388,0.0-7.5-2.5,b4gcww2cpo,2022-09-19 15:32:46.776,543e85adfdf99b7356902e90,3,52,52,16,82,50,male,,,"
  <table>
  <tr height=300>
    <td width=300 height=300><img src=""static/images/cards/back_of_red_stars.svg"" width=""175px"" height=""250px""></img></td>
    <td width=300 height=300><img src=""static/images/cards/2_of_red_stars.svg"" width=""175px"" height=""250px""></img></td>
  </tr>
  <tr height=200>
    <td width=300></td>
    <td width=300><img src=""static/images/keys/m.svg"" width=""35%"" height=""75%""></img></td>
  </tr>
</table>
  ",,,,,,,,,,,,,,,,,,,,,,,,,,,,
182,0,,html-keyboard-response,182,512890,0.0-7.5-3.5,b4gcww2cpo,2022-09-19 15:32:46.776,543e85adfdf99b7356902e90,3,52,52,16,82,50,male,,,"<p style=""font-size:50px"">You Lose!
No points this round.</p>",,,,,,,,,,,,,,,,,,,,,,,,,,,,
183,0,,html-keyboard-response,183,513395,0.0-7.5-4.5,b4gcww2cpo,2022-09-19 15:32:46.776,543e85adfdf99b7356902e90,3,52,52,16,82,50,male,,,,,,1.0,choice,5.0,C,D,red,black,stars,stars,D,C,D,red,stars,1869.1999999993,0.0,0.0,0,right,852.3000000007,2.0,0.0,0.0,,,
184,0,,html-keyboard-response,184,514557,0.0-7.6-0.6,b4gcww2cpo,2022-09-19 15:32:46.776,543e85adfdf99b7356902e90,3,52,52,16,82,50,male,1158.5,,"
  <table>
  <tr height=300>
    <td width=300 height=300><img src=""static/images/cards/stack_of_black_moons.svg"" width=""175px"" height=""250px""></img></td>
    <td width=300 height=300><img src=""static/images/cards/stack_of_black_stars.svg"" width=""175px"" height=""250px""></img></td>
  </tr>
  <tr height=200>
    <td width=300><img src=""static/images/keys/w.svg"" width=""35%"" height=""75%""></img></td>
    <td width=300><img src=""static/images/keys/o.svg"" width=""35%"" height=""75%""></img></td>
  </tr>
</table>
  ",87.0,1.0,,,,,,,,,,,,,,,,,,,,,,,,,,
185,0,,html-keyboard-response,185,516325,0.0-7.6-1.6,b4gcww2cpo,2022-09-19 15:32:46.776,543e85adfdf99b7356902e90,3,52,52,16,82,50,male,1264.8000000007,,"
  <table>
  <tr height=300>
    <td width=300 height=300><img src=""static/images/cards/back_of_black_moons.svg"" width=""175px"" height=""250px""></img></td>
    <td width=300 height=300><img src=""static/images/cards/back_of_black_moons.svg"" width=""175px"" height=""250px""></img></td>
  </tr>
  <tr height=200>
    <td width=300><img src=""static/images/keys/z.svg"" width=""35%"" height=""75%""></img></td>
    <td width=300><img src=""static/images/keys/m.svg"" width=""35%"" height=""75%""></img></td>
  </tr>
</table>
  ",90.0,1.0,,,,,,,,,,,,,,,,,,,,,,,,,,
186,0,,html-keyboard-response,186,517828,0.0-7.6-2.6,b4gcww2cpo,2022-09-19 15:32:46.776,543e85adfdf99b7356902e90,3,52,52,16,82,50,male,,,"
  <table>
  <tr height=300>
    <td width=300 height=300><img src=""static/images/cards/10_of_black_moons.svg"" width=""175px"" height=""250px""></img></td>
    <td width=300 height=300><img src=""static/images/cards/back_of_black_moons.svg"" width=""175px"" height=""250px""></img></td>
  </tr>
  <tr height=200>
    <td width=300><img src=""static/images/keys/z.svg"" width=""35%"" height=""75%""></img></td>
    <td width=300><img src=""static/images/keys/m.svg"" width=""35%"" height=""75%""></img></td>
  </tr>
</table>
  ",,,,,,,,,,,,,,,,,,,,,,,,,,,,
187,0,,html-keyboard-response,187,519329,0.0-7.6-3.6,b4gcww2cpo,2022-09-19 15:32:46.776,543e85adfdf99b7356902e90,3,52,52,16,82,50,male,,,"<p style=""font-size:50px"">You win!
+10 points this round!</p>",,,,,,,,,,,,,,,,,,,,,,,,,,,,
188,0,,html-keyboard-response,188,519835,0.0-7.6-4.6,b4gcww2cpo,2022-09-19 15:32:46.776,543e85adfdf99b7356902e90,3,52,52,16,82,50,male,,,,,,1.0,choice,6.0,A,C,black,black,moons,stars,A,C,A,black,moons,1158.5,1.0,1.0,NA,left,1264.8000000007,10.0,1.0,1.0,,,
189,0,,html-keyboard-response,189,520728,0.0-7.7-0.7,b4gcww2cpo,2022-09-19 15:32:46.776,543e85adfdf99b7356902e90,3,52,52,16,82,50,male,890.700000003,,"
  <table>
  <tr height=300>
    <td width=300 height=300><img src=""static/images/cards/stack_of_red_moons.svg"" width=""175px"" height=""250px""></img></td>
    <td width=300 height=300><img src=""static/images/cards/stack_of_red_stars.svg"" width=""175px"" height=""250px""></img></td>
  </tr>
  <tr height=200>
    <td width=300><img src=""static/images/keys/w.svg"" width=""35%"" height=""75%""></img></td>
    <td width=300><img src=""static/images/keys/o.svg"" width=""35%"" height=""75%""></img></td>
  </tr>
</table>
  ",87.0,1.0,,,,,,,,,,,,,,,,,,,,,,,,,,
190,0,,html-keyboard-response,190,522306,0.0-7.7-1.7,b4gcww2cpo,2022-09-19 15:32:46.776,543e85adfdf99b7356902e90,3,52,52,16,82,50,male,1073.3000000007,,"
  <table>
  <tr height=300>
    <td width=300 height=300><img src=""static/images/cards/back_of_red_moons.svg"" width=""175px"" height=""250px""></img></td>
    <td width=300 height=300><img src=""static/images/cards/back_of_red_moons.svg"" width=""175px"" height=""250px""></img></td>
  </tr>
  <tr height=200>
    <td width=300><img src=""static/images/keys/z.svg"" width=""35%"" height=""75%""></img></td>
    <td width=300></td>
  </tr>
</table>
  ",90.0,1.0,,,,,,,,,,,,,,,,,,,,,,,,,,
191,0,,html-keyboard-response,191,523808,0.0-7.7-2.7,b4gcww2cpo,2022-09-19 15:32:46.776,543e85adfdf99b7356902e90,3,52,52,16,82,50,male,,,"
  <table>
  <tr height=300>
    <td width=300 height=300><img src=""static/images/cards/4_of_red_moons.svg"" width=""175px"" height=""250px""></img></td>
    <td width=300 height=300><img src=""static/images/cards/back_of_red_moons.svg"" width=""175px"" height=""250px""></img></td>
  </tr>
  <tr height=200>
    <td width=300><img src=""static/images/keys/z.svg"" width=""35%"" height=""75%""></img></td>
    <td width=300></td>
  </tr>
</table>
  ",,,,,,,,,,,,,,,,,,,,,,,,,,,,
192,0,,html-keyboard-response,192,525310,0.0-7.7-3.7,b4gcww2cpo,2022-09-19 15:32:46.776,543e85adfdf99b7356902e90,3,52,52,16,82,50,male,,,"<p style=""font-size:50px"">You Lose!
No points this round.</p>",,,,,,,,,,,,,,,,,,,,,,,,,,,,
193,0,,html-keyboard-response,193,525816,0.0-7.7-4.7,b4gcww2cpo,2022-09-19 15:32:46.776,543e85adfdf99b7356902e90,3,52,52,16,82,50,male,,,,,,1.0,choice,7.0,B,D,red,red,moons,stars,B,D,B,red,moons,890.700000003,0.0,1.0,1,left,1073.3000000007,4.0,0.0,0.0,,,
194,0,,html-keyboard-response,194,526883,0.0-7.8-0.8,b4gcww2cpo,2022-09-19 15:32:46.776,543e85adfdf99b7356902e90,3,52,52,16,82,50,male,1063.1999999993,,"
  <table>
  <tr height=300>
    <td width=300 height=300><img src=""static/images/cards/stack_of_black_moons.svg"" width=""175px"" height=""250px""></img></td>
    <td width=300 height=300><img src=""static/images/cards/stack_of_red_moons.svg"" width=""175px"" height=""250px""></img></td>
  </tr>
  <tr height=200>
    <td width=300><img src=""static/images/keys/w.svg"" width=""35%"" height=""75%""></img></td>
    <td width=300><img src=""static/images/keys/o.svg"" width=""35%"" height=""75%""></img></td>
  </tr>
</table>
  ",87.0,1.0,,,,,,,,,,,,,,,,,,,,,,,,,,
195,0,,html-keyboard-response,195,527917,0.0-7.8-1.8,b4gcww2cpo,2022-09-19 15:32:46.776,543e85adfdf99b7356902e90,3,52,52,16,82,50,male,530.8000000007,,"
  <table>
  <tr height=300>
    <td width=300 height=300><img src=""static/images/cards/back_of_black_moons.svg"" width=""175px"" height=""250px""></img></td>
    <td width=300 height=300><img src=""static/images/cards/back_of_black_moons.svg"" width=""175px"" height=""250px""></img></td>
  </tr>
  <tr height=200>
    <td width=300><img src=""static/images/keys/z.svg"" width=""35%"" height=""75%""></img></td>
    <td width=300><img src=""static/images/keys/m.svg"" width=""35%"" height=""75%""></img></td>
  </tr>
</table>
  ",90.0,1.0,,,,,,,,,,,,,,,,,,,,,,,,,,
196,0,,html-keyboard-response,196,529419,0.0-7.8-2.8,b4gcww2cpo,2022-09-19 15:32:46.776,543e85adfdf99b7356902e90,3,52,52,16,82,50,male,,,"
  <table>
  <tr height=300>
    <td width=300 height=300><img src=""static/images/cards/3_of_black_moons.svg"" width=""175px"" height=""250px""></img></td>
    <td width=300 height=300><img src=""static/images/cards/back_of_black_moons.svg"" width=""175px"" height=""250px""></img></td>
  </tr>
  <tr height=200>
    <td width=300><img src=""static/images/keys/z.svg"" width=""35%"" height=""75%""></img></td>
    <td width=300><img src=""static/images/keys/m.svg"" width=""35%"" height=""75%""></img></td>
  </tr>
</table>
  ",,,,,,,,,,,,,,,,,,,,,,,,,,,,
197,0,,html-keyboard-response,197,530921,0.0-7.8-3.8,b4gcww2cpo,2022-09-19 15:32:46.776,543e85adfdf99b7356902e90,3,52,52,16,82,50,male,,,"<p style=""font-size:50px"">You Lose!
No points this round.</p>",,,,,,,,,,,,,,,,,,,,,,,,,,,,
198,0,,html-keyboard-response,198,531426,0.0-7.8-4.8,b4gcww2cpo,2022-09-19 15:32:46.776,543e85adfdf99b7356902e90,3,52,52,16,82,50,male,,,,,,1.0,choice,8.0,A,B,black,red,moons,moons,A,B,A,black,moons,1063.1999999993,1.0,1.0,NA,left,530.8000000007,3.0,0.0,0.0,,,
199,0,,html-keyboard-response,199,532899,0.0-7.9-0.9,b4gcww2cpo,2022-09-19 15:32:46.776,543e85adfdf99b7356902e90,3,52,52,16,82,50,male,1468.1999999993,,"
  <table>
  <tr height=300>
    <td width=300 height=300><img src=""static/images/cards/stack_of_black_moons.svg"" width=""175px"" height=""250px""></img></td>
    <td width=300 height=300><img src=""static/images/cards/stack_of_red_moons.svg"" width=""175px"" height=""250px""></img></td>
  </tr>
  <tr height=200>
    <td width=300><img src=""static/images/keys/w.svg"" width=""35%"" height=""75%""></img></td>
    <td width=300><img src=""static/images/keys/o.svg"" width=""35%"" height=""75%""></img></td>
  </tr>
</table>
  ",87.0,1.0,,,,,,,,,,,,,,,,,,,,,,,,,,
200,0,,html-keyboard-response,200,533981,0.0-7.9-1.9,b4gcww2cpo,2022-09-19 15:32:46.776,543e85adfdf99b7356902e90,3,52,52,16,82,50,male,577.200000003,,"
  <table>
  <tr height=300>
    <td width=300 height=300><img src=""static/images/cards/back_of_black_moons.svg"" width=""175px"" height=""250px""></img></td>
    <td width=300 height=300><img src=""static/images/cards/back_of_black_moons.svg"" width=""175px"" height=""250px""></img></td>
  </tr>
  <tr height=200>
    <td width=300><img src=""static/images/keys/z.svg"" width=""35%"" height=""75%""></img></td>
    <td width=300><img src=""static/images/keys/m.svg"" width=""35%"" height=""75%""></img></td>
  </tr>
</table>
  ",77.0,1.0,,,,,,,,,,,,,,,,,,,,,,,,,,
201,0,,html-keyboard-response,201,535483,0.0-7.9-2.9,b4gcww2cpo,2022-09-19 15:32:46.776,543e85adfdf99b7356902e90,3,52,52,16,82,50,male,,,"
  <table>
  <tr height=300>
    <td width=300 height=300><img src=""static/images/cards/back_of_black_moons.svg"" width=""175px"" height=""250px""></img></td>
    <td width=300 height=300><img src=""static/images/cards/1_of_black_moons.svg"" width=""175px"" height=""250px""></img></td>
  </tr>
  <tr height=200>
    <td width=300><img src=""static/images/keys/z.svg"" width=""35%"" height=""75%""></img></td>
    <td width=300><img src=""static/images/keys/m.svg"" width=""35%"" height=""75%""></img></td>
  </tr>
</table>
  ",,,,,,,,,,,,,,,,,,,,,,,,,,,,
202,0,,html-keyboard-response,202,536985,0.0-7.9-3.9,b4gcww2cpo,2022-09-19 15:32:46.776,543e85adfdf99b7356902e90,3,52,52,16,82,50,male,,,"<p style=""font-size:50px"">You Lose!
No points this round.</p>",,,,,,,,,,,,,,,,,,,,,,,,,,,,
203,0,,html-keyboard-response,203,537491,0.0-7.9-4.9,b4gcww2cpo,2022-09-19 15:32:46.776,543e85adfdf99b7356902e90,3,52,52,16,82,50,male,,,,,,1.0,choice,9.0,A,B,black,red,moons,moons,A,B,A,black,moons,1468.1999999993,1.0,1.0,NA,right,577.200000003,1.0,0.0,0.0,,,
204,0,,html-keyboard-response,204,538292,0.0-7.10-0.10,b4gcww2cpo,2022-09-19 15:32:46.776,543e85adfdf99b7356902e90,3,52,52,16,82,50,male,798.3999999985,,"
  <table>
  <tr height=300>
    <td width=300 height=300><img src=""static/images/cards/stack_of_black_stars.svg"" width=""175px"" height=""250px""></img></td>
    <td width=300 height=300><img src=""static/images/cards/stack_of_red_moons.svg"" width=""175px"" height=""250px""></img></td>
  </tr>
  <tr height=200>
    <td width=300><img src=""static/images/keys/w.svg"" width=""35%"" height=""75%""></img></td>
    <td width=300><img src=""static/images/keys/o.svg"" width=""35%"" height=""75%""></img></td>
  </tr>
</table>
  ",79.0,1.0,,,,,,,,,,,,,,,,,,,,,,,,,,
205,0,,html-keyboard-response,205,539580,0.0-7.10-1.10,b4gcww2cpo,2022-09-19 15:32:46.776,543e85adfdf99b7356902e90,3,52,52,16,82,50,male,786.0999999978,,"
  <table>
  <tr height=300>
    <td width=300 height=300><img src=""static/images/cards/back_of_red_moons.svg"" width=""175px"" height=""250px""></img></td>
    <td width=300 height=300><img src=""static/images/cards/back_of_red_moons.svg"" width=""175px"" height=""250px""></img></td>
  </tr>
  <tr height=200>
    <td width=300><img src=""static/images/keys/z.svg"" width=""35%"" height=""75%""></img></td>
    <td width=300></td>
  </tr>
</table>
  ",90.0,1.0,,,,,,,,,,,,,,,,,,,,,,,,,,
206,0,,html-keyboard-response,206,541082,0.0-7.10-2.10,b4gcww2cpo,2022-09-19 15:32:46.776,543e85adfdf99b7356902e90,3,52,52,16,82,50,male,,,"
  <table>
  <tr height=300>
    <td width=300 height=300><img src=""static/images/cards/10_of_red_moons.svg"" width=""175px"" height=""250px""></img></td>
    <td width=300 height=300><img src=""static/images/cards/back_of_red_moons.svg"" width=""175px"" height=""250px""></img></td>
  </tr>
  <tr height=200>
    <td width=300><img src=""static/images/keys/z.svg"" width=""35%"" height=""75%""></img></td>
    <td width=300></td>
  </tr>
</table>
  ",,,,,,,,,,,,,,,,,,,,,,,,,,,,
207,0,,html-keyboard-response,207,542584,0.0-7.10-3.10,b4gcww2cpo,2022-09-19 15:32:46.776,543e85adfdf99b7356902e90,3,52,52,16,82,50,male,,,"<p style=""font-size:50px"">You win!
+10 points this round!</p>",,,,,,,,,,,,,,,,,,,,,,,,,,,,
208,0,,html-keyboard-response,208,543089,0.0-7.10-4.10,b4gcww2cpo,2022-09-19 15:32:46.776,543e85adfdf99b7356902e90,3,52,52,16,82,50,male,,,,,,1.0,choice,10.0,B,C,black,red,stars,moons,C,B,B,red,moons,798.3999999985,0.0,1.0,1,left,786.0999999978,10.0,1.0,1.0,,,
209,0,,html-keyboard-response,209,544948,0.0-7.11-0.11,b4gcww2cpo,2022-09-19 15:32:46.776,543e85adfdf99b7356902e90,3,52,52,16,82,50,male,1856.1999999993,,"
  <table>
  <tr height=300>
    <td width=300 height=300><img src=""static/images/cards/stack_of_black_stars.svg"" width=""175px"" height=""250px""></img></td>
    <td width=300 height=300><img src=""static/images/cards/stack_of_red_stars.svg"" width=""175px"" height=""250px""></img></td>
  </tr>
  <tr height=200>
    <td width=300><img src=""static/images/keys/w.svg"" width=""35%"" height=""75%""></img></td>
    <td width=300><img src=""static/images/keys/o.svg"" width=""35%"" height=""75%""></img></td>
  </tr>
</table>
  ",87.0,1.0,,,,,,,,,,,,,,,,,,,,,,,,,,
210,0,,html-keyboard-response,210,546287,0.0-7.11-1.11,b4gcww2cpo,2022-09-19 15:32:46.776,543e85adfdf99b7356902e90,3,52,52,16,82,50,male,835.6999999993,,"
  <table>
  <tr height=300>
    <td width=300 height=300><img src=""static/images/cards/back_of_black_stars.svg"" width=""175px"" height=""250px""></img></td>
    <td width=300 height=300><img src=""static/images/cards/back_of_black_stars.svg"" width=""175px"" height=""250px""></img></td>
  </tr>
  <tr height=200>
    <td width=300><img src=""static/images/keys/z.svg"" width=""35%"" height=""75%""></img></td>
    <td width=300><img src=""static/images/keys/m.svg"" width=""35%"" height=""75%""></img></td>
  </tr>
</table>
  ",77.0,1.0,,,,,,,,,,,,,,,,,,,,,,,,,,
211,0,,html-keyboard-response,211,547789,0.0-7.11-2.11,b4gcww2cpo,2022-09-19 15:32:46.776,543e85adfdf99b7356902e90,3,52,52,16,82,50,male,,,"
  <table>
  <tr height=300>
    <td width=300 height=300><img src=""static/images/cards/back_of_black_stars.svg"" width=""175px"" height=""250px""></img></td>
    <td width=300 height=300><img src=""static/images/cards/1_of_black_stars.svg"" width=""175px"" height=""250px""></img></td>
  </tr>
  <tr height=200>
    <td width=300><img src=""static/images/keys/z.svg"" width=""35%"" height=""75%""></img></td>
    <td width=300><img src=""static/images/keys/m.svg"" width=""35%"" height=""75%""></img></td>
  </tr>
</table>
  ",,,,,,,,,,,,,,,,,,,,,,,,,,,,
212,0,,html-keyboard-response,212,549291,0.0-7.11-3.11,b4gcww2cpo,2022-09-19 15:32:46.776,543e85adfdf99b7356902e90,3,52,52,16,82,50,male,,,"<p style=""font-size:50px"">You win!
+10 points this round!</p>",,,,,,,,,,,,,,,,,,,,,,,,,,,,
213,0,,html-keyboard-response,213,549796,0.0-7.11-4.11,b4gcww2cpo,2022-09-19 15:32:46.776,543e85adfdf99b7356902e90,3,52,52,16,82,50,male,,,,,,1.0,choice,11.0,C,D,black,red,stars,stars,C,D,C,black,stars,1856.1999999993,1.0,0.0,NA,right,835.6999999993,1.0,0.0,1.0,,,
214,0,,html-keyboard-response,214,552193,0.0-7.12-0.12,b4gcww2cpo,2022-09-19 15:32:46.776,543e85adfdf99b7356902e90,3,52,52,16,82,50,male,2393.1999999993,,"
  <table>
  <tr height=300>
    <td width=300 height=300><img src=""static/images/cards/stack_of_black_stars.svg"" width=""175px"" height=""250px""></img></td>
    <td width=300 height=300><img src=""static/images/cards/stack_of_black_moons.svg"" width=""175px"" height=""250px""></img></td>
  </tr>
  <tr height=200>
    <td width=300><img src=""static/images/keys/w.svg"" width=""35%"" height=""75%""></img></td>
    <td width=300><img src=""static/images/keys/o.svg"" width=""35%"" height=""75%""></img></td>
  </tr>
</table>
  ",79.0,1.0,,,,,,,,,,,,,,,,,,,,,,,,,,
215,0,,html-keyboard-response,215,553962,0.0-7.12-1.12,b4gcww2cpo,2022-09-19 15:32:46.776,543e85adfdf99b7356902e90,3,52,52,16,82,50,male,1266.3000000007,,"
  <table>
  <tr height=300>
    <td width=300 height=300><img src=""static/images/cards/back_of_black_moons.svg"" width=""175px"" height=""250px""></img></td>
    <td width=300 height=300><img src=""static/images/cards/back_of_black_moons.svg"" width=""175px"" height=""250px""></img></td>
  </tr>
  <tr height=200>
    <td width=300><img src=""static/images/keys/z.svg"" width=""35%"" height=""75%""></img></td>
    <td width=300><img src=""static/images/keys/m.svg"" width=""35%"" height=""75%""></img></td>
  </tr>
</table>
  ",77.0,1.0,,,,,,,,,,,,,,,,,,,,,,,,,,
216,0,,html-keyboard-response,216,555465,0.0-7.12-2.12,b4gcww2cpo,2022-09-19 15:32:46.776,543e85adfdf99b7356902e90,3,52,52,16,82,50,male,,,"
  <table>
  <tr height=300>
    <td width=300 height=300><img src=""static/images/cards/back_of_black_moons.svg"" width=""175px"" height=""250px""></img></td>
    <td width=300 height=300><img src=""static/images/cards/4_of_black_moons.svg"" width=""175px"" height=""250px""></img></td>
  </tr>
  <tr height=200>
    <td width=300><img src=""static/images/keys/z.svg"" width=""35%"" height=""75%""></img></td>
    <td width=300><img src=""static/images/keys/m.svg"" width=""35%"" height=""75%""></img></td>
  </tr>
</table>
  ",,,,,,,,,,,,,,,,,,,,,,,,,,,,
217,0,,html-keyboard-response,217,556967,0.0-7.12-3.12,b4gcww2cpo,2022-09-19 15:32:46.776,543e85adfdf99b7356902e90,3,52,52,16,82,50,male,,,"<p style=""font-size:50px"">You Lose!
No points this round.</p>",,,,,,,,,,,,,,,,,,,,,,,,,,,,
218,0,,html-keyboard-response,218,557472,0.0-7.12-4.12,b4gcww2cpo,2022-09-19 15:32:46.776,543e85adfdf99b7356902e90,3,52,52,16,82,50,male,,,,,,1.0,choice,12.0,A,C,black,black,stars,moons,C,A,A,black,moons,2393.1999999993,1.0,1.0,NA,right,1266.3000000007,4.0,0.0,0.0,,,
219,0,,html-keyboard-response,219,558502,0.0-7.13-0.13,b4gcww2cpo,2022-09-19 15:32:46.776,543e85adfdf99b7356902e90,3,52,52,16,82,50,male,1027.0,,"
  <table>
  <tr height=300>
    <td width=300 height=300><img src=""static/images/cards/stack_of_red_stars.svg"" width=""175px"" height=""250px""></img></td>
    <td width=300 height=300><img src=""static/images/cards/stack_of_black_moons.svg"" width=""175px"" height=""250px""></img></td>
  </tr>
  <tr height=200>
    <td width=300><img src=""static/images/keys/w.svg"" width=""35%"" height=""75%""></img></td>
    <td width=300><img src=""static/images/keys/o.svg"" width=""35%"" height=""75%""></img></td>
  </tr>
</table>
  ",87.0,1.0,,,,,,,,,,,,,,,,,,,,,,,,,,
220,0,,html-keyboard-response,220,560063,0.0-7.13-1.13,b4gcww2cpo,2022-09-19 15:32:46.776,543e85adfdf99b7356902e90,3,52,52,16,82,50,male,1058.5,,"
  <table>
  <tr height=300>
    <td width=300 height=300><img src=""static/images/cards/back_of_red_stars.svg"" width=""175px"" height=""250px""></img></td>
    <td width=300 height=300><img src=""static/images/cards/back_of_red_stars.svg"" width=""175px"" height=""250px""></img></td>
  </tr>
  <tr height=200>
    <td width=300></td>
    <td width=300><img src=""static/images/keys/m.svg"" width=""35%"" height=""75%""></img></td>
  </tr>
</table>
  ",77.0,1.0,,,,,,,,,,,,,,,,,,,,,,,,,,
221,0,,html-keyboard-response,221,561566,0.0-7.13-2.13,b4gcww2cpo,2022-09-19 15:32:46.776,543e85adfdf99b7356902e90,3,52,52,16,82,50,male,,,"
  <table>
  <tr height=300>
    <td width=300 height=300><img src=""static/images/cards/back_of_red_stars.svg"" width=""175px"" height=""250px""></img></td>
    <td width=300 height=300><img src=""static/images/cards/6_of_red_stars.svg"" width=""175px"" height=""250px""></img></td>
  </tr>
  <tr height=200>
    <td width=300></td>
    <td width=300><img src=""static/images/keys/m.svg"" width=""35%"" height=""75%""></img></td>
  </tr>
</table>
  ",,,,,,,,,,,,,,,,,,,,,,,,,,,,
222,0,,html-keyboard-response,222,563068,0.0-7.13-3.13,b4gcww2cpo,2022-09-19 15:32:46.776,543e85adfdf99b7356902e90,3,52,52,16,82,50,male,,,"<p style=""font-size:50px"">You Lose!
No points this round.</p>",,,,,,,,,,,,,,,,,,,,,,,,,,,,
223,0,,html-keyboard-response,223,563573,0.0-7.13-4.13,b4gcww2cpo,2022-09-19 15:32:46.776,543e85adfdf99b7356902e90,3,52,52,16,82,50,male,,,,,,1.0,choice,13.0,A,D,red,black,stars,moons,D,A,D,red,stars,1027.0,0.0,0.0,0,right,1058.5,6.0,1.0,0.0,,,
224,0,,html-keyboard-response,224,564722,0.0-7.14-0.14,b4gcww2cpo,2022-09-19 15:32:46.776,543e85adfdf99b7356902e90,3,52,52,16,82,50,male,1145.3000000007,,"
  <table>
  <tr height=300>
    <td width=300 height=300><img src=""static/images/cards/stack_of_red_moons.svg"" width=""175px"" height=""250px""></img></td>
    <td width=300 height=300><img src=""static/images/cards/stack_of_red_stars.svg"" width=""175px"" height=""250px""></img></td>
  </tr>
  <tr height=200>
    <td width=300><img src=""static/images/keys/w.svg"" width=""35%"" height=""75%""></img></td>
    <td width=300><img src=""static/images/keys/o.svg"" width=""35%"" height=""75%""></img></td>
  </tr>
</table>
  ",87.0,1.0,,,,,,,,,,,,,,,,,,,,,,,,,,
225,0,,html-keyboard-response,225,566179,0.0-7.14-1.14,b4gcww2cpo,2022-09-19 15:32:46.776,543e85adfdf99b7356902e90,3,52,52,16,82,50,male,953.6000000015,,"
  <table>
  <tr height=300>
    <td width=300 height=300><img src=""static/images/cards/back_of_red_moons.svg"" width=""175px"" height=""250px""></img></td>
    <td width=300 height=300><img src=""static/images/cards/back_of_red_moons.svg"" width=""175px"" height=""250px""></img></td>
  </tr>
  <tr height=200>
    <td width=300></td>
    <td width=300><img src=""static/images/keys/m.svg"" width=""35%"" height=""75%""></img></td>
  </tr>
</table>
  ",77.0,1.0,,,,,,,,,,,,,,,,,,,,,,,,,,
226,0,,html-keyboard-response,226,567681,0.0-7.14-2.14,b4gcww2cpo,2022-09-19 15:32:46.776,543e85adfdf99b7356902e90,3,52,52,16,82,50,male,,,"
  <table>
  <tr height=300>
    <td width=300 height=300><img src=""static/images/cards/back_of_red_moons.svg"" width=""175px"" height=""250px""></img></td>
    <td width=300 height=300><img src=""static/images/cards/7_of_red_moons.svg"" width=""175px"" height=""250px""></img></td>
  </tr>
  <tr height=200>
    <td width=300></td>
    <td width=300><img src=""static/images/keys/m.svg"" width=""35%"" height=""75%""></img></td>
  </tr>
</table>
  ",,,,,,,,,,,,,,,,,,,,,,,,,,,,
227,0,,html-keyboard-response,227,569183,0.0-7.14-3.14,b4gcww2cpo,2022-09-19 15:32:46.776,543e85adfdf99b7356902e90,3,52,52,16,82,50,male,,,"<p style=""font-size:50px"">You win!
+10 points this round!</p>",,,,,,,,,,,,,,,,,,,,,,,,,,,,
228,0,,html-keyboard-response,228,569688,0.0-7.14-4.14,b4gcww2cpo,2022-09-19 15:32:46.776,543e85adfdf99b7356902e90,3,52,52,16,82,50,male,,,,,,1.0,choice,14.0,B,D,red,red,moons,stars,B,D,B,red,moons,1145.3000000007,0.0,1.0,0,right,953.6000000015,7.0,1.0,1.0,,,
229,0,,html-keyboard-response,229,571707,0.0-7.15-0.15,b4gcww2cpo,2022-09-19 15:32:46.776,543e85adfdf99b7356902e90,3,52,52,16,82,50,male,2016.1999999993,,"
  <table>
  <tr height=300>
    <td width=300 height=300><img src=""static/images/cards/stack_of_black_moons.svg"" width=""175px"" height=""250px""></img></td>
    <td width=300 height=300><img src=""static/images/cards/stack_of_red_moons.svg"" width=""175px"" height=""250px""></img></td>
  </tr>
  <tr height=200>
    <td width=300><img src=""static/images/keys/w.svg"" width=""35%"" height=""75%""></img></td>
    <td width=300><img src=""static/images/keys/o.svg"" width=""35%"" height=""75%""></img></td>
  </tr>
</table>
  ",87.0,1.0,,,,,,,,,,,,,,,,,,,,,,,,,,
230,0,,html-keyboard-response,230,573218,0.0-7.15-1.15,b4gcww2cpo,2022-09-19 15:32:46.776,543e85adfdf99b7356902e90,3,52,52,16,82,50,male,1007.8999999985,,"
  <table>
  <tr height=300>
    <td width=300 height=300><img src=""static/images/cards/back_of_black_moons.svg"" width=""175px"" height=""250px""></img></td>
    <td width=300 height=300><img src=""static/images/cards/back_of_black_moons.svg"" width=""175px"" height=""250px""></img></td>
  </tr>
  <tr height=200>
    <td width=300><img src=""static/images/keys/z.svg"" width=""35%"" height=""75%""></img></td>
    <td width=300><img src=""static/images/keys/m.svg"" width=""35%"" height=""75%""></img></td>
  </tr>
</table>
  ",90.0,1.0,,,,,,,,,,,,,,,,,,,,,,,,,,
231,0,,html-keyboard-response,231,574721,0.0-7.15-2.15,b4gcww2cpo,2022-09-19 15:32:46.776,543e85adfdf99b7356902e90,3,52,52,16,82,50,male,,,"
  <table>
  <tr height=300>
    <td width=300 height=300><img src=""static/images/cards/10_of_black_moons.svg"" width=""175px"" height=""250px""></img></td>
    <td width=300 height=300><img src=""static/images/cards/back_of_black_moons.svg"" width=""175px"" height=""250px""></img></td>
  </tr>
  <tr height=200>
    <td width=300><img src=""static/images/keys/z.svg"" width=""35%"" height=""75%""></img></td>
    <td width=300><img src=""static/images/keys/m.svg"" width=""35%"" height=""75%""></img></td>
  </tr>
</table>
  ",,,,,,,,,,,,,,,,,,,,,,,,,,,,
232,0,,html-keyboard-response,232,576223,0.0-7.15-3.15,b4gcww2cpo,2022-09-19 15:32:46.776,543e85adfdf99b7356902e90,3,52,52,16,82,50,male,,,"<p style=""font-size:50px"">You win!
+10 points this round!</p>",,,,,,,,,,,,,,,,,,,,,,,,,,,,
233,0,,html-keyboard-response,233,576728,0.0-7.15-4.15,b4gcww2cpo,2022-09-19 15:32:46.776,543e85adfdf99b7356902e90,3,52,52,16,82,50,male,,,,,,1.0,choice,15.0,A,B,black,red,moons,moons,A,B,A,black,moons,2016.1999999993,1.0,1.0,NA,left,1007.8999999985,10.0,1.0,1.0,,,
234,0,,html-keyboard-response,234,577498,0.0-7.16-0.16,b4gcww2cpo,2022-09-19 15:32:46.776,543e85adfdf99b7356902e90,3,52,52,16,82,50,male,766.700000003,,"
  <table>
  <tr height=300>
    <td width=300 height=300><img src=""static/images/cards/stack_of_red_moons.svg"" width=""175px"" height=""250px""></img></td>
    <td width=300 height=300><img src=""static/images/cards/stack_of_black_bolts.svg"" width=""175px"" height=""250px""></img></td>
  </tr>
  <tr height=200>
    <td width=300><img src=""static/images/keys/w.svg"" width=""35%"" height=""75%""></img></td>
    <td width=300><img src=""static/images/keys/o.svg"" width=""35%"" height=""75%""></img></td>
  </tr>
</table>
  ",79.0,1.0,,,,,,,,,,,,,,,,,,,,,,,,,,
235,0,,html-keyboard-response,235,579076,0.0-7.16-1.16,b4gcww2cpo,2022-09-19 15:32:46.776,543e85adfdf99b7356902e90,3,52,52,16,82,50,male,1075.6999999993,,"
  <table>
  <tr height=300>
    <td width=300 height=300><img src=""static/images/cards/back_of_black_bolts.svg"" width=""175px"" height=""250px""></img></td>
    <td width=300 height=300><img src=""static/images/cards/back_of_black_bolts.svg"" width=""175px"" height=""250px""></img></td>
  </tr>
  <tr height=200>
    <td width=300><img src=""static/images/keys/z.svg"" width=""35%"" height=""75%""></img></td>
    <td width=300></td>
  </tr>
</table>
  ",90.0,1.0,,,,,,,,,,,,,,,,,,,,,,,,,,
236,0,,html-keyboard-response,236,580579,0.0-7.16-2.16,b4gcww2cpo,2022-09-19 15:32:46.776,543e85adfdf99b7356902e90,3,52,52,16,82,50,male,,,"
  <table>
  <tr height=300>
