,index,success,trial_type,trial_index,time_elapsed,internal_node_id,subject,date,prol_id,ctbl,sense_of_control_A,sense_of_control_B,sense_of_control_C,sense_of_control_D,age,gender,rt,url,stimulus,key_press,npress,is_data_trial,phase,trial,deck1,deck2,col1,col2,sym1,sym2,deck_l,deck_r,chosen_deck,chosen_col,chosen_sym,deck_rt,choose_choice,mutual_info,hidden_key,chosen_card,card_rt,player_num,win_card,outcome,mock_rating,response,responses
0,0,1.0,fullscreen,0,5268,0.0-0.0,ww3wizfw8lj,2022-09-19 17:33:41.238,57843b986475d400015a8e45,0,14,46,61,40,25,Male,,,,,,,,,,,,,,,,,,,,,,,,,,,,,,,
1,0,,external-html,1,16116,0.0-1.0,ww3wizfw8lj,2022-09-19 17:33:41.238,57843b986475d400015a8e45,0,14,46,61,40,25,Male,10712.8000000007,static/js/sub/consent.html,,,,,,,,,,,,,,,,,,,,,,,,,,,,,
2,0,,call-function,2,16118,0.0-2.0,ww3wizfw8lj,2022-09-19 17:33:41.238,57843b986475d400015a8e45,0,14,46,61,40,25,Male,,,,,,,,,,,,,,,,,,,,,,,,,,,,,,,
3,0,,image-keyboard-response,3,27060,0.0-3.0-0.0,ww3wizfw8lj,2022-09-19 17:33:41.238,57843b986475d400015a8e45,0,14,46,61,40,25,Male,10940.6999999993,,static/images/instructions_CB_0/Slide1.png,39.0,,,,,,,,,,,,,,,,,,,,,,,,,,,
4,0,,image-keyboard-response,4,27332,0.0-3.1-0.1,ww3wizfw8lj,2022-09-19 17:33:41.238,57843b986475d400015a8e45,0,14,46,61,40,25,Male,271.1999999993,,static/images/instructions_CB_0/Slide2.png,37.0,,,,,,,,,,,,,,,,,,,,,,,,,,,
5,0,,image-keyboard-response,5,27460,0.0-3.2-0.2,ww3wizfw8lj,2022-09-19 17:33:41.238,57843b986475d400015a8e45,0,14,46,61,40,25,Male,127.3000000007,,static/images/instructions_CB_0/Slide1.png,39.0,,,,,,,,,,,,,,,,,,,,,,,,,,,
6,0,,image-keyboard-response,6,27876,0.0-3.3-0.3,ww3wizfw8lj,2022-09-19 17:33:41.238,57843b986475d400015a8e45,0,14,46,61,40,25,Male,415.5,,static/images/instructions_CB_0/Slide2.png,37.0,,,,,,,,,,,,,,,,,,,,,,,,,,,
7,0,,image-keyboard-response,7,28036,0.0-3.4-0.4,ww3wizfw8lj,2022-09-19 17:33:41.238,57843b986475d400015a8e45,0,14,46,61,40,25,Male,159.5,,static/images/instructions_CB_0/Slide1.png,39.0,,,,,,,,,,,,,,,,,,,,,,,,,,,
8,0,,image-keyboard-response,8,39796,0.0-3.5-0.5,ww3wizfw8lj,2022-09-19 17:33:41.238,57843b986475d400015a8e45,0,14,46,61,40,25,Male,11759.5,,static/images/instructions_CB_0/Slide2.png,39.0,,,,,,,,,,,,,,,,,,,,,,,,,,,
9,0,,image-keyboard-response,9,40436,0.0-3.6-0.6,ww3wizfw8lj,2022-09-19 17:33:41.238,57843b986475d400015a8e45,0,14,46,61,40,25,Male,639.5,,static/images/instructions_CB_0/Slide3.png,37.0,,,,,,,,,,,,,,,,,,,,,,,,,,,
10,0,,image-keyboard-response,10,40804,0.0-3.7-0.7,ww3wizfw8lj,2022-09-19 17:33:41.238,57843b986475d400015a8e45,0,14,46,61,40,25,Male,367.3999999985,,static/images/instructions_CB_0/Slide2.png,39.0,,,,,,,,,,,,,,,,,,,,,,,,,,,
11,0,,image-keyboard-response,11,45540,0.0-3.8-0.8,ww3wizfw8lj,2022-09-19 17:33:41.238,57843b986475d400015a8e45,0,14,46,61,40,25,Male,4735.299999997,,static/images/instructions_CB_0/Slide3.png,39.0,,,,,,,,,,,,,,,,,,,,,,,,,,,
12,0,,image-keyboard-response,12,49685,0.0-3.9-0.9,ww3wizfw8lj,2022-09-19 17:33:41.238,57843b986475d400015a8e45,0,14,46,61,40,25,Male,4143.6999999993,,static/images/instructions_CB_0/Slide4.png,39.0,,,,,,,,,,,,,,,,,,,,,,,,,,,
13,0,,image-keyboard-response,13,54356,0.0-3.10-0.10,ww3wizfw8lj,2022-09-19 17:33:41.238,57843b986475d400015a8e45,0,14,46,61,40,25,Male,4671.3000000007,,static/images/instructions_CB_0/Slide5.png,39.0,,,,,,,,,,,,,,,,,,,,,,,,,,,
14,0,,image-keyboard-response,14,55476,0.0-3.11-0.11,ww3wizfw8lj,2022-09-19 17:33:41.238,57843b986475d400015a8e45,0,14,46,61,40,25,Male,1119.5,,static/images/instructions_CB_0/Slide6.png,39.0,,,,,,,,,,,,,,,,,,,,,,,,,,,
15,0,,image-keyboard-response,15,57748,0.0-3.12-0.12,ww3wizfw8lj,2022-09-19 17:33:41.238,57843b986475d400015a8e45,0,14,46,61,40,25,Male,2271.1999999993,,static/images/instructions_CB_0/Slide7.png,39.0,,,,,,,,,,,,,,,,,,,,,,,,,,,
16,0,,image-keyboard-response,16,70260,0.0-3.13-0.13,ww3wizfw8lj,2022-09-19 17:33:41.238,57843b986475d400015a8e45,0,14,46,61,40,25,Male,12511.5,,static/images/instructions_CB_0/Slide8.png,39.0,,,,,,,,,,,,,,,,,,,,,,,,,,,
17,0,,image-keyboard-response,17,71333,0.0-3.14-0.14,ww3wizfw8lj,2022-09-19 17:33:41.238,57843b986475d400015a8e45,0,14,46,61,40,25,Male,1071.8000000007,,static/images/instructions_CB_0/Slide9.png,37.0,,,,,,,,,,,,,,,,,,,,,,,,,,,
18,0,,image-keyboard-response,18,73300,0.0-3.15-0.15,ww3wizfw8lj,2022-09-19 17:33:41.238,57843b986475d400015a8e45,0,14,46,61,40,25,Male,1967.0999999978,,static/images/instructions_CB_0/Slide8.png,39.0,,,,,,,,,,,,,,,,,,,,,,,,,,,
19,0,,image-keyboard-response,19,77221,0.0-3.16-0.16,ww3wizfw8lj,2022-09-19 17:33:41.238,57843b986475d400015a8e45,0,14,46,61,40,25,Male,3920.0,,static/images/instructions_CB_0/Slide9.png,39.0,,,,,,,,,,,,,,,,,,,,,,,,,,,
20,0,,image-keyboard-response,20,376308,0.0-3.17-0.17,ww3wizfw8lj,2022-09-19 17:33:41.238,57843b986475d400015a8e45,0,14,46,61,40,25,Male,299087.3000000007,,static/images/instructions_CB_0/Slide10.png,39.0,,,,,,,,,,,,,,,,,,,,,,,,,,,
21,0,,image-keyboard-response,21,386116,0.0-3.18-0.18,ww3wizfw8lj,2022-09-19 17:33:41.238,57843b986475d400015a8e45,0,14,46,61,40,25,Male,9807.0,,static/images/instructions_CB_0/Slide11.png,39.0,,,,,,,,,,,,,,,,,,,,,,,,,,,
22,0,,image-keyboard-response,22,409892,0.0-3.19-0.19,ww3wizfw8lj,2022-09-19 17:33:41.238,57843b986475d400015a8e45,0,14,46,61,40,25,Male,23775.3999999985,,static/images/instructions_CB_0/Slide12.png,39.0,,,,,,,,,,,,,,,,,,,,,,,,,,,
23,0,,image-keyboard-response,23,411284,0.0-3.20-0.20,ww3wizfw8lj,2022-09-19 17:33:41.238,57843b986475d400015a8e45,0,14,46,61,40,25,Male,1391.6999999993,,static/images/instructions_CB_0/Slide13.png,37.0,,,,,,,,,,,,,,,,,,,,,,,,,,,
24,0,,image-keyboard-response,24,411396,0.0-3.21-0.21,ww3wizfw8lj,2022-09-19 17:33:41.238,57843b986475d400015a8e45,0,14,46,61,40,25,Male,111.3000000007,,static/images/instructions_CB_0/Slide12.png,39.0,,,,,,,,,,,,,,,,,,,,,,,,,,,
25,0,,image-keyboard-response,25,431844,0.0-3.22-0.22,ww3wizfw8lj,2022-09-19 17:33:41.238,57843b986475d400015a8e45,0,14,46,61,40,25,Male,20447.5999999978,,static/images/instructions_CB_0/Slide13.png,39.0,,,,,,,,,,,,,,,,,,,,,,,,,,,
26,0,,image-keyboard-response,26,441716,0.0-3.23-0.23,ww3wizfw8lj,2022-09-19 17:33:41.238,57843b986475d400015a8e45,0,14,46,61,40,25,Male,9871.3000000007,,static/images/instructions_CB_0/Slide14.png,39.0,,,,,,,,,,,,,,,,,,,,,,,,,,,
27,0,,image-keyboard-response,27,445844,0.0-3.24-0.24,ww3wizfw8lj,2022-09-19 17:33:41.238,57843b986475d400015a8e45,0,14,46,61,40,25,Male,4127.4000000022,,static/images/instructions_CB_0/Slide15.png,39.0,,,,,,,,,,,,,,,,,,,,,,,,,,,
28,0,,image-keyboard-response,28,451604,0.0-3.25-0.25,ww3wizfw8lj,2022-09-19 17:33:41.238,57843b986475d400015a8e45,0,14,46,61,40,25,Male,5759.3000000007,,static/images/instructions_CB_0/Slide16.png,39.0,,,,,,,,,,,,,,,,,,,,,,,,,,,
29,0,,image-keyboard-response,29,452131,0.0-3.26-0.26,ww3wizfw8lj,2022-09-19 17:33:41.238,57843b986475d400015a8e45,0,14,46,61,40,25,Male,527.3000000007,,static/images/instructions_CB_0/Slide17.png,39.0,,,,,,,,,,,,,,,,,,,,,,,,,,,
30,0,,image-keyboard-response,30,452804,0.0-3.27-0.27,ww3wizfw8lj,2022-09-19 17:33:41.238,57843b986475d400015a8e45,0,14,46,61,40,25,Male,671.6999999993,,static/images/instructions_CB_0/Slide18.png,37.0,,,,,,,,,,,,,,,,,,,,,,,,,,,
31,0,,image-keyboard-response,31,460004,0.0-3.28-0.28,ww3wizfw8lj,2022-09-19 17:33:41.238,57843b986475d400015a8e45,0,14,46,61,40,25,Male,7199.5999999978,,static/images/instructions_CB_0/Slide17.png,39.0,,,,,,,,,,,,,,,,,,,,,,,,,,,
32,0,,image-keyboard-response,32,463411,0.0-3.29-0.29,ww3wizfw8lj,2022-09-19 17:33:41.238,57843b986475d400015a8e45,0,14,46,61,40,25,Male,3407.3000000007,,static/images/instructions_CB_0/Slide18.png,39.0,,,,,,,,,,,,,,,,,,,,,,,,,,,
33,0,,image-keyboard-response,33,473700,0.0-3.30-0.30,ww3wizfw8lj,2022-09-19 17:33:41.238,57843b986475d400015a8e45,0,14,46,61,40,25,Male,10288.1999999993,,static/images/instructions_CB_0/Slide19.png,39.0,,,,,,,,,,,,,,,,,,,,,,,,,,,
34,0,,html-keyboard-response,34,475211,0.0-4.0-0.0,ww3wizfw8lj,2022-09-19 17:33:41.238,57843b986475d400015a8e45,0,14,46,61,40,25,Male,,,"<img src=""static/images/cards/stack_of_red_stars.svg"" width=""175px"" height=""250px""></img>",,,,,,,,,,,,,,,,,,,,,,,,,,,,
35,0,,html-keyboard-response,35,478452,0.0-4.0-1.0,ww3wizfw8lj,2022-09-19 17:33:41.238,57843b986475d400015a8e45,0,14,46,61,40,25,Male,2738.5,,"
  <table>
  <tr height=300>
    <td width=300 height=300><img src=""static/images/cards/back_of_red_stars.svg"" width=""175px"" height=""250px""></img></td>
    <td width=300 height=300><img src=""static/images/cards/back_of_red_stars.svg"" width=""175px"" height=""250px""></img></td>
  </tr>
  <tr height=200>
    <td width=300><img src=""static/images/keys/z.svg"" width=""35%"" height=""75%""></img></td>
    <td width=300><img src=""static/images/keys/m.svg"" width=""35%"" height=""75%""></img></td>
  </tr>
</table>
  ",77.0,1.0,,,,,,,,,,,,,,,,,,,,,,,,,,
36,0,,html-keyboard-response,36,479967,0.0-4.0-2.0,ww3wizfw8lj,2022-09-19 17:33:41.238,57843b986475d400015a8e45,0,14,46,61,40,25,Male,,,"
  <table>
  <tr height=300>
    <td width=300 height=300><img src=""static/images/cards/back_of_red_stars.svg"" width=""175px"" height=""250px""></img></td>
    <td width=300 height=300><img src=""static/images/cards/7_of_red_stars.svg"" width=""175px"" height=""250px""></img></td>
  </tr>
  <tr height=200>
    <td width=300><img src=""static/images/keys/z.svg"" width=""35%"" height=""75%""></img></td>
    <td width=300><img src=""static/images/keys/m.svg"" width=""35%"" height=""75%""></img></td>
  </tr>
</table>
  ",,,,,,,,,,,,,,,,,,,,,,,,,,,,
37,0,,html-keyboard-response,37,481475,0.0-4.0-3.0,ww3wizfw8lj,2022-09-19 17:33:41.238,57843b986475d400015a8e45,0,14,46,61,40,25,Male,,,"<p style=""font-size:50px"">You win!
+10 points this round!</p>",,,,,,,,,,,,,,,,,,,,,,,,,,,,
38,0,,html-keyboard-response,38,481982,0.0-4.0-4.0,ww3wizfw8lj,2022-09-19 17:33:41.238,57843b986475d400015a8e45,0,14,46,61,40,25,Male,,,,,,1.0,learning,0.0,A,,red,,stars,,,,A,red,stars,,1.0,1.0,NA,right,2738.5,7.0,1.0,1.0,,,
39,0,,html-keyboard-response,39,483484,0.0-4.1-0.1,ww3wizfw8lj,2022-09-19 17:33:41.238,57843b986475d400015a8e45,0,14,46,61,40,25,Male,,,"<img src=""static/images/cards/stack_of_black_stars.svg"" width=""175px"" height=""250px""></img>",,,,,,,,,,,,,,,,,,,,,,,,,,,,
40,0,,html-keyboard-response,40,484452,0.0-4.1-1.1,ww3wizfw8lj,2022-09-19 17:33:41.238,57843b986475d400015a8e45,0,14,46,61,40,25,Male,464.0,,"
  <table>
  <tr height=300>
    <td width=300 height=300><img src=""static/images/cards/back_of_black_stars.svg"" width=""175px"" height=""250px""></img></td>
    <td width=300 height=300><img src=""static/images/cards/back_of_black_stars.svg"" width=""175px"" height=""250px""></img></td>
  </tr>
  <tr height=200>
    <td width=300><img src=""static/images/keys/z.svg"" width=""35%"" height=""75%""></img></td>
    <td width=300></td>
  </tr>
</table>
  ",90.0,1.0,,,,,,,,,,,,,,,,,,,,,,,,,,
41,0,,html-keyboard-response,41,485967,0.0-4.1-2.1,ww3wizfw8lj,2022-09-19 17:33:41.238,57843b986475d400015a8e45,0,14,46,61,40,25,Male,,,"
  <table>
  <tr height=300>
    <td width=300 height=300><img src=""static/images/cards/7_of_black_stars.svg"" width=""175px"" height=""250px""></img></td>
    <td width=300 height=300><img src=""static/images/cards/back_of_black_stars.svg"" width=""175px"" height=""250px""></img></td>
  </tr>
  <tr height=200>
    <td width=300><img src=""static/images/keys/z.svg"" width=""35%"" height=""75%""></img></td>
    <td width=300></td>
  </tr>
</table>
  ",,,,,,,,,,,,,,,,,,,,,,,,,,,,
42,0,,html-keyboard-response,42,487473,0.0-4.1-3.1,ww3wizfw8lj,2022-09-19 17:33:41.238,57843b986475d400015a8e45,0,14,46,61,40,25,Male,,,"<p style=""font-size:50px"">You win!
+10 points this round!</p>",,,,,,,,,,,,,,,,,,,,,,,,,,,,
43,0,,html-keyboard-response,43,487982,0.0-4.1-4.1,ww3wizfw8lj,2022-09-19 17:33:41.238,57843b986475d400015a8e45,0,14,46,61,40,25,Male,,,,,,1.0,learning,1.0,B,,black,,stars,,,,B,black,stars,,0.0,1.0,1,left,464.0,7.0,1.0,1.0,,,
44,0,,html-keyboard-response,44,489485,0.0-4.2-0.2,ww3wizfw8lj,2022-09-19 17:33:41.238,57843b986475d400015a8e45,0,14,46,61,40,25,Male,,,"<img src=""static/images/cards/stack_of_red_moons.svg"" width=""175px"" height=""250px""></img>",,,,,,,,,,,,,,,,,,,,,,,,,,,,
45,0,,html-keyboard-response,45,490883,0.0-4.2-1.2,ww3wizfw8lj,2022-09-19 17:33:41.238,57843b986475d400015a8e45,0,14,46,61,40,25,Male,895.0,,"
  <table>
  <tr height=300>
    <td width=300 height=300><img src=""static/images/cards/back_of_red_moons.svg"" width=""175px"" height=""250px""></img></td>
    <td width=300 height=300><img src=""static/images/cards/back_of_red_moons.svg"" width=""175px"" height=""250px""></img></td>
  </tr>
  <tr height=200>
    <td width=300><img src=""static/images/keys/z.svg"" width=""35%"" height=""75%""></img></td>
    <td width=300><img src=""static/images/keys/m.svg"" width=""35%"" height=""75%""></img></td>
  </tr>
</table>
  ",90.0,1.0,,,,,,,,,,,,,,,,,,,,,,,,,,
46,0,,html-keyboard-response,46,492388,0.0-4.2-2.2,ww3wizfw8lj,2022-09-19 17:33:41.238,57843b986475d400015a8e45,0,14,46,61,40,25,Male,,,"
  <table>
  <tr height=300>
    <td width=300 height=300><img src=""static/images/cards/8_of_red_moons.svg"" width=""175px"" height=""250px""></img></td>
    <td width=300 height=300><img src=""static/images/cards/back_of_red_moons.svg"" width=""175px"" height=""250px""></img></td>
  </tr>
  <tr height=200>
    <td width=300><img src=""static/images/keys/z.svg"" width=""35%"" height=""75%""></img></td>
    <td width=300><img src=""static/images/keys/m.svg"" width=""35%"" height=""75%""></img></td>
  </tr>
</table>
  ",,,,,,,,,,,,,,,,,,,,,,,,,,,,
47,0,,html-keyboard-response,47,493895,0.0-4.2-3.2,ww3wizfw8lj,2022-09-19 17:33:41.238,57843b986475d400015a8e45,0,14,46,61,40,25,Male,,,"<p style=""font-size:50px"">You win!
+10 points this round!</p>",,,,,,,,,,,,,,,,,,,,,,,,,,,,
48,0,,html-keyboard-response,48,494402,0.0-4.2-4.2,ww3wizfw8lj,2022-09-19 17:33:41.238,57843b986475d400015a8e45,0,14,46,61,40,25,Male,,,,,,1.0,learning,2.0,C,,red,,moons,,,,C,red,moons,,1.0,0.0,NA,left,895.0,8.0,1.0,1.0,,,
49,0,,html-keyboard-response,49,495904,0.0-4.3-0.3,ww3wizfw8lj,2022-09-19 17:33:41.238,57843b986475d400015a8e45,0,14,46,61,40,25,Male,,,"<img src=""static/images/cards/stack_of_black_moons.svg"" width=""175px"" height=""250px""></img>",,,,,,,,,,,,,,,,,,,,,,,,,,,,
50,0,,html-keyboard-response,50,496964,0.0-4.3-1.3,ww3wizfw8lj,2022-09-19 17:33:41.238,57843b986475d400015a8e45,0,14,46,61,40,25,Male,555.6999999993,,"
  <table>
  <tr height=300>
    <td width=300 height=300><img src=""static/images/cards/back_of_black_moons.svg"" width=""175px"" height=""250px""></img></td>
    <td width=300 height=300><img src=""static/images/cards/back_of_black_moons.svg"" width=""175px"" height=""250px""></img></td>
  </tr>
  <tr height=200>
    <td width=300><img src=""static/images/keys/z.svg"" width=""35%"" height=""75%""></img></td>
    <td width=300></td>
  </tr>
</table>
  ",90.0,1.0,,,,,,,,,,,,,,,,,,,,,,,,,,
51,0,,html-keyboard-response,51,498467,0.0-4.3-2.3,ww3wizfw8lj,2022-09-19 17:33:41.238,57843b986475d400015a8e45,0,14,46,61,40,25,Male,,,"
  <table>
  <tr height=300>
    <td width=300 height=300><img src=""static/images/cards/8_of_black_moons.svg"" width=""175px"" height=""250px""></img></td>
    <td width=300 height=300><img src=""static/images/cards/back_of_black_moons.svg"" width=""175px"" height=""250px""></img></td>
  </tr>
  <tr height=200>
    <td width=300><img src=""static/images/keys/z.svg"" width=""35%"" height=""75%""></img></td>
    <td width=300></td>
  </tr>
</table>
  ",,,,,,,,,,,,,,,,,,,,,,,,,,,,
52,0,,html-keyboard-response,52,499976,0.0-4.3-3.3,ww3wizfw8lj,2022-09-19 17:33:41.238,57843b986475d400015a8e45,0,14,46,61,40,25,Male,,,"<p style=""font-size:50px"">You Lose!
No points this round.</p>",,,,,,,,,,,,,,,,,,,,,,,,,,,,
53,0,,html-keyboard-response,53,500487,0.0-4.3-4.3,ww3wizfw8lj,2022-09-19 17:33:41.238,57843b986475d400015a8e45,0,14,46,61,40,25,Male,,,,,,1.0,learning,3.0,D,,black,,moons,,,,D,black,moons,,0.0,0.0,1,left,555.6999999993,8.0,1.0,0.0,,,
54,0,,html-keyboard-response,54,501991,0.0-4.4-0.4,ww3wizfw8lj,2022-09-19 17:33:41.238,57843b986475d400015a8e45,0,14,46,61,40,25,Male,,,"<img src=""static/images/cards/stack_of_red_bolts.svg"" width=""175px"" height=""250px""></img>",,,,,,,,,,,,,,,,,,,,,,,,,,,,
55,0,,html-keyboard-response,55,502852,0.0-4.4-1.4,ww3wizfw8lj,2022-09-19 17:33:41.238,57843b986475d400015a8e45,0,14,46,61,40,25,Male,360.1000000015,,"
  <table>
  <tr height=300>
    <td width=300 height=300><img src=""static/images/cards/back_of_red_bolts.svg"" width=""175px"" height=""250px""></img></td>
    <td width=300 height=300><img src=""static/images/cards/back_of_red_bolts.svg"" width=""175px"" height=""250px""></img></td>
  </tr>
  <tr height=200>
    <td width=300><img src=""static/images/keys/z.svg"" width=""35%"" height=""75%""></img></td>
    <td width=300><img src=""static/images/keys/m.svg"" width=""35%"" height=""75%""></img></td>
  </tr>
</table>
  ",77.0,1.0,,,,,,,,,,,,,,,,,,,,,,,,,,
56,0,,html-keyboard-response,56,504358,0.0-4.4-2.4,ww3wizfw8lj,2022-09-19 17:33:41.238,57843b986475d400015a8e45,0,14,46,61,40,25,Male,,,"
  <table>
  <tr height=300>
    <td width=300 height=300><img src=""static/images/cards/back_of_red_bolts.svg"" width=""175px"" height=""250px""></img></td>
    <td width=300 height=300><img src=""static/images/cards/1_of_red_bolts.svg"" width=""175px"" height=""250px""></img></td>
  </tr>
  <tr height=200>
    <td width=300><img src=""static/images/keys/z.svg"" width=""35%"" height=""75%""></img></td>
    <td width=300><img src=""static/images/keys/m.svg"" width=""35%"" height=""75%""></img></td>
  </tr>
</table>
  ",,,,,,,,,,,,,,,,,,,,,,,,,,,,
57,0,,html-keyboard-response,57,505865,0.0-4.4-3.4,ww3wizfw8lj,2022-09-19 17:33:41.238,57843b986475d400015a8e45,0,14,46,61,40,25,Male,,,"<p style=""font-size:50px"">You win!
+10 points this round!</p>",,,,,,,,,,,,,,,,,,,,,,,,,,,,
58,0,,html-keyboard-response,58,506372,0.0-4.4-4.4,ww3wizfw8lj,2022-09-19 17:33:41.238,57843b986475d400015a8e45,0,14,46,61,40,25,Male,,,,,,1.0,learning,4.0,Xc,,red,,bolts,,,,Xc,red,bolts,,1.0,0.0,NA,right,360.1000000015,1.0,0.0,1.0,,,
59,0,,html-keyboard-response,59,507874,0.0-4.5-0.5,ww3wizfw8lj,2022-09-19 17:33:41.238,57843b986475d400015a8e45,0,14,46,61,40,25,Male,,,"<img src=""static/images/cards/stack_of_black_bolts.svg"" width=""175px"" height=""250px""></img>",,,,,,,,,,,,,,,,,,,,,,,,,,,,
60,0,,html-keyboard-response,60,508980,0.0-4.5-1.5,ww3wizfw8lj,2022-09-19 17:33:41.238,57843b986475d400015a8e45,0,14,46,61,40,25,Male,602.5,,"
  <table>
  <tr height=300>
    <td width=300 height=300><img src=""static/images/cards/back_of_black_bolts.svg"" width=""175px"" height=""250px""></img></td>
    <td width=300 height=300><img src=""static/images/cards/back_of_black_bolts.svg"" width=""175px"" height=""250px""></img></td>
  </tr>
  <tr height=200>
    <td width=300></td>
    <td width=300><img src=""static/images/keys/m.svg"" width=""35%"" height=""75%""></img></td>
  </tr>
</table>
  ",77.0,1.0,,,,,,,,,,,,,,,,,,,,,,,,,,
61,0,,html-keyboard-response,61,510496,0.0-4.5-2.5,ww3wizfw8lj,2022-09-19 17:33:41.238,57843b986475d400015a8e45,0,14,46,61,40,25,Male,,,"
  <table>
  <tr height=300>
    <td width=300 height=300><img src=""static/images/cards/back_of_black_bolts.svg"" width=""175px"" height=""250px""></img></td>
    <td width=300 height=300><img src=""static/images/cards/8_of_black_bolts.svg"" width=""175px"" height=""250px""></img></td>
  </tr>
  <tr height=200>
    <td width=300></td>
    <td width=300><img src=""static/images/keys/m.svg"" width=""35%"" height=""75%""></img></td>
  </tr>
</table>
  ",,,,,,,,,,,,,,,,,,,,,,,,,,,,
62,0,,html-keyboard-response,62,512003,0.0-4.5-3.5,ww3wizfw8lj,2022-09-19 17:33:41.238,57843b986475d400015a8e45,0,14,46,61,40,25,Male,,,"<p style=""font-size:50px"">You win!
+10 points this round!</p>",,,,,,,,,,,,,,,,,,,,,,,,,,,,
63,0,,html-keyboard-response,63,512511,0.0-4.5-4.5,ww3wizfw8lj,2022-09-19 17:33:41.238,57843b986475d400015a8e45,0,14,46,61,40,25,Male,,,,,,1.0,learning,5.0,Xnc,,black,,bolts,,,,Xnc,black,bolts,,0.0,0.0,0,right,602.5,8.0,1.0,1.0,,,
64,0,,html-keyboard-response,64,514025,0.0-4.6-0.6,ww3wizfw8lj,2022-09-19 17:33:41.238,57843b986475d400015a8e45,0,14,46,61,40,25,Male,,,"<img src=""static/images/cards/stack_of_red_stars.svg"" width=""175px"" height=""250px""></img>",,,,,,,,,,,,,,,,,,,,,,,,,,,,
65,0,,html-keyboard-response,65,515380,0.0-4.6-1.6,ww3wizfw8lj,2022-09-19 17:33:41.238,57843b986475d400015a8e45,0,14,46,61,40,25,Male,852.9000000022,,"
  <table>
  <tr height=300>
    <td width=300 height=300><img src=""static/images/cards/back_of_red_stars.svg"" width=""175px"" height=""250px""></img></td>
    <td width=300 height=300><img src=""static/images/cards/back_of_red_stars.svg"" width=""175px"" height=""250px""></img></td>
  </tr>
  <tr height=200>
    <td width=300><img src=""static/images/keys/z.svg"" width=""35%"" height=""75%""></img></td>
    <td width=300><img src=""static/images/keys/m.svg"" width=""35%"" height=""75%""></img></td>
  </tr>
</table>
  ",77.0,1.0,,,,,,,,,,,,,,,,,,,,,,,,,,
66,0,,html-keyboard-response,66,516885,0.0-4.6-2.6,ww3wizfw8lj,2022-09-19 17:33:41.238,57843b986475d400015a8e45,0,14,46,61,40,25,Male,,,"
  <table>
  <tr height=300>
    <td width=300 height=300><img src=""static/images/cards/back_of_red_stars.svg"" width=""175px"" height=""250px""></img></td>
    <td width=300 height=300><img src=""static/images/cards/1_of_red_stars.svg"" width=""175px"" height=""250px""></img></td>
  </tr>
  <tr height=200>
    <td width=300><img src=""static/images/keys/z.svg"" width=""35%"" height=""75%""></img></td>
    <td width=300><img src=""static/images/keys/m.svg"" width=""35%"" height=""75%""></img></td>
  </tr>
</table>
  ",,,,,,,,,,,,,,,,,,,,,,,,,,,,
67,0,,html-keyboard-response,67,518389,0.0-4.6-3.6,ww3wizfw8lj,2022-09-19 17:33:41.238,57843b986475d400015a8e45,0,14,46,61,40,25,Male,,,"<p style=""font-size:50px"">You Lose!
No points this round.</p>",,,,,,,,,,,,,,,,,,,,,,,,,,,,
68,0,,html-keyboard-response,68,518898,0.0-4.6-4.6,ww3wizfw8lj,2022-09-19 17:33:41.238,57843b986475d400015a8e45,0,14,46,61,40,25,Male,,,,,,1.0,learning,6.0,A,,red,,stars,,,,A,red,stars,,1.0,1.0,NA,right,852.9000000022,1.0,0.0,0.0,,,
69,0,,html-keyboard-response,69,520415,0.0-4.7-0.7,ww3wizfw8lj,2022-09-19 17:33:41.238,57843b986475d400015a8e45,0,14,46,61,40,25,Male,,,"<img src=""static/images/cards/stack_of_black_stars.svg"" width=""175px"" height=""250px""></img>",,,,,,,,,,,,,,,,,,,,,,,,,,,,
70,0,,html-keyboard-response,70,521396,0.0-4.7-1.7,ww3wizfw8lj,2022-09-19 17:33:41.238,57843b986475d400015a8e45,0,14,46,61,40,25,Male,479.6000000015,,"
  <table>
  <tr height=300>
    <td width=300 height=300><img src=""static/images/cards/back_of_black_stars.svg"" width=""175px"" height=""250px""></img></td>
    <td width=300 height=300><img src=""static/images/cards/back_of_black_stars.svg"" width=""175px"" height=""250px""></img></td>
  </tr>
  <tr height=200>
    <td width=300></td>
    <td width=300><img src=""static/images/keys/m.svg"" width=""35%"" height=""75%""></img></td>
  </tr>
</table>
  ",77.0,1.0,,,,,,,,,,,,,,,,,,,,,,,,,,
71,0,,html-keyboard-response,71,522912,0.0-4.7-2.7,ww3wizfw8lj,2022-09-19 17:33:41.238,57843b986475d400015a8e45,0,14,46,61,40,25,Male,,,"
  <table>
  <tr height=300>
    <td width=300 height=300><img src=""static/images/cards/back_of_black_stars.svg"" width=""175px"" height=""250px""></img></td>
    <td width=300 height=300><img src=""static/images/cards/4_of_black_stars.svg"" width=""175px"" height=""250px""></img></td>
  </tr>
  <tr height=200>
    <td width=300></td>
    <td width=300><img src=""static/images/keys/m.svg"" width=""35%"" height=""75%""></img></td>
  </tr>
</table>
  ",,,,,,,,,,,,,,,,,,,,,,,,,,,,
72,0,,html-keyboard-response,72,524420,0.0-4.7-3.7,ww3wizfw8lj,2022-09-19 17:33:41.238,57843b986475d400015a8e45,0,14,46,61,40,25,Male,,,"<p style=""font-size:50px"">You Lose!
No points this round.</p>",,,,,,,,,,,,,,,,,,,,,,,,,,,,
73,0,,html-keyboard-response,73,524927,0.0-4.7-4.7,ww3wizfw8lj,2022-09-19 17:33:41.238,57843b986475d400015a8e45,0,14,46,61,40,25,Male,,,,,,1.0,learning,7.0,B,,black,,stars,,,,B,black,stars,,0.0,1.0,0,right,479.6000000015,4.0,0.0,0.0,,,
74,0,,html-keyboard-response,74,526431,0.0-4.8-0.8,ww3wizfw8lj,2022-09-19 17:33:41.238,57843b986475d400015a8e45,0,14,46,61,40,25,Male,,,"<img src=""static/images/cards/stack_of_red_moons.svg"" width=""175px"" height=""250px""></img>",,,,,,,,,,,,,,,,,,,,,,,,,,,,
75,0,,html-keyboard-response,75,527956,0.0-4.8-1.8,ww3wizfw8lj,2022-09-19 17:33:41.238,57843b986475d400015a8e45,0,14,46,61,40,25,Male,1020.3999999985,,"
  <table>
  <tr height=300>
    <td width=300 height=300><img src=""static/images/cards/back_of_red_moons.svg"" width=""175px"" height=""250px""></img></td>
    <td width=300 height=300><img src=""static/images/cards/back_of_red_moons.svg"" width=""175px"" height=""250px""></img></td>
  </tr>
  <tr height=200>
    <td width=300><img src=""static/images/keys/z.svg"" width=""35%"" height=""75%""></img></td>
    <td width=300><img src=""static/images/keys/m.svg"" width=""35%"" height=""75%""></img></td>
  </tr>
</table>
  ",90.0,1.0,,,,,,,,,,,,,,,,,,,,,,,,,,
76,0,,html-keyboard-response,76,529464,0.0-4.8-2.8,ww3wizfw8lj,2022-09-19 17:33:41.238,57843b986475d400015a8e45,0,14,46,61,40,25,Male,,,"
  <table>
  <tr height=300>
    <td width=300 height=300><img src=""static/images/cards/1_of_red_moons.svg"" width=""175px"" height=""250px""></img></td>
    <td width=300 height=300><img src=""static/images/cards/back_of_red_moons.svg"" width=""175px"" height=""250px""></img></td>
  </tr>
  <tr height=200>
    <td width=300><img src=""static/images/keys/z.svg"" width=""35%"" height=""75%""></img></td>
    <td width=300><img src=""static/images/keys/m.svg"" width=""35%"" height=""75%""></img></td>
  </tr>
</table>
  ",,,,,,,,,,,,,,,,,,,,,,,,,,,,
77,0,,html-keyboard-response,77,530974,0.0-4.8-3.8,ww3wizfw8lj,2022-09-19 17:33:41.238,57843b986475d400015a8e45,0,14,46,61,40,25,Male,,,"<p style=""font-size:50px"">You win!
+10 points this round!</p>",,,,,,,,,,,,,,,,,,,,,,,,,,,,
78,0,,html-keyboard-response,78,531482,0.0-4.8-4.8,ww3wizfw8lj,2022-09-19 17:33:41.238,57843b986475d400015a8e45,0,14,46,61,40,25,Male,,,,,,1.0,learning,8.0,C,,red,,moons,,,,C,red,moons,,1.0,0.0,NA,left,1020.3999999985,1.0,0.0,1.0,,,
79,0,,html-keyboard-response,79,532986,0.0-4.9-0.9,ww3wizfw8lj,2022-09-19 17:33:41.238,57843b986475d400015a8e45,0,14,46,61,40,25,Male,,,"<img src=""static/images/cards/stack_of_black_moons.svg"" width=""175px"" height=""250px""></img>",,,,,,,,,,,,,,,,,,,,,,,,,,,,
80,0,,html-keyboard-response,80,534132,0.0-4.9-1.9,ww3wizfw8lj,2022-09-19 17:33:41.238,57843b986475d400015a8e45,0,14,46,61,40,25,Male,644.1999999993,,"
  <table>
  <tr height=300>
    <td width=300 height=300><img src=""static/images/cards/back_of_black_moons.svg"" width=""175px"" height=""250px""></img></td>
    <td width=300 height=300><img src=""static/images/cards/back_of_black_moons.svg"" width=""175px"" height=""250px""></img></td>
  </tr>
  <tr height=200>
    <td width=300><img src=""static/images/keys/z.svg"" width=""35%"" height=""75%""></img></td>
    <td width=300></td>
  </tr>
</table>
  ",90.0,1.0,,,,,,,,,,,,,,,,,,,,,,,,,,
81,0,,html-keyboard-response,81,535639,0.0-4.9-2.9,ww3wizfw8lj,2022-09-19 17:33:41.238,57843b986475d400015a8e45,0,14,46,61,40,25,Male,,,"
  <table>
  <tr height=300>
    <td width=300 height=300><img src=""static/images/cards/1_of_black_moons.svg"" width=""175px"" height=""250px""></img></td>
    <td width=300 height=300><img src=""static/images/cards/back_of_black_moons.svg"" width=""175px"" height=""250px""></img></td>
  </tr>
  <tr height=200>
    <td width=300><img src=""static/images/keys/z.svg"" width=""35%"" height=""75%""></img></td>
    <td width=300></td>
  </tr>
</table>
  ",,,,,,,,,,,,,,,,,,,,,,,,,,,,
82,0,,html-keyboard-response,82,537145,0.0-4.9-3.9,ww3wizfw8lj,2022-09-19 17:33:41.238,57843b986475d400015a8e45,0,14,46,61,40,25,Male,,,"<p style=""font-size:50px"">You Lose!
No points this round.</p>",,,,,,,,,,,,,,,,,,,,,,,,,,,,
83,0,,html-keyboard-response,83,537653,0.0-4.9-4.9,ww3wizfw8lj,2022-09-19 17:33:41.238,57843b986475d400015a8e45,0,14,46,61,40,25,Male,,,,,,1.0,learning,9.0,D,,black,,moons,,,,D,black,moons,,0.0,0.0,1,left,644.1999999993,1.0,0.0,0.0,,,
84,0,,html-keyboard-response,84,539159,0.0-4.10-0.10,ww3wizfw8lj,2022-09-19 17:33:41.238,57843b986475d400015a8e45,0,14,46,61,40,25,Male,,,"<img src=""static/images/cards/stack_of_red_bolts.svg"" width=""175px"" height=""250px""></img>",,,,,,,,,,,,,,,,,,,,,,,,,,,,
85,0,,html-keyboard-response,85,541045,0.0-4.10-1.10,ww3wizfw8lj,2022-09-19 17:33:41.238,57843b986475d400015a8e45,0,14,46,61,40,25,Male,1369.1999999993,,"
  <table>
  <tr height=300>
    <td width=300 height=300><img src=""static/images/cards/back_of_red_bolts.svg"" width=""175px"" height=""250px""></img></td>
    <td width=300 height=300><img src=""static/images/cards/back_of_red_bolts.svg"" width=""175px"" height=""250px""></img></td>
  </tr>
  <tr height=200>
    <td width=300><img src=""static/images/keys/z.svg"" width=""35%"" height=""75%""></img></td>
    <td width=300><img src=""static/images/keys/m.svg"" width=""35%"" height=""75%""></img></td>
  </tr>
</table>
  ",77.0,1.0,,,,,,,,,,,,,,,,,,,,,,,,,,
86,0,,html-keyboard-response,86,542550,0.0-4.10-2.10,ww3wizfw8lj,2022-09-19 17:33:41.238,57843b986475d400015a8e45,0,14,46,61,40,25,Male,,,"
  <table>
  <tr height=300>
    <td width=300 height=300><img src=""static/images/cards/back_of_red_bolts.svg"" width=""175px"" height=""250px""></img></td>
    <td width=300 height=300><img src=""static/images/cards/7_of_red_bolts.svg"" width=""175px"" height=""250px""></img></td>
  </tr>
  <tr height=200>
    <td width=300><img src=""static/images/keys/z.svg"" width=""35%"" height=""75%""></img></td>
    <td width=300><img src=""static/images/keys/m.svg"" width=""35%"" height=""75%""></img></td>
  </tr>
</table>
  ",,,,,,,,,,,,,,,,,,,,,,,,,,,,
87,0,,html-keyboard-response,87,544060,0.0-4.10-3.10,ww3wizfw8lj,2022-09-19 17:33:41.238,57843b986475d400015a8e45,0,14,46,61,40,25,Male,,,"<p style=""font-size:50px"">You win!
+10 points this round!</p>",,,,,,,,,,,,,,,,,,,,,,,,,,,,
88,0,,html-keyboard-response,88,544568,0.0-4.10-4.10,ww3wizfw8lj,2022-09-19 17:33:41.238,57843b986475d400015a8e45,0,14,46,61,40,25,Male,,,,,,1.0,learning,10.0,Xc,,red,,bolts,,,,Xc,red,bolts,,1.0,0.0,NA,right,1369.1999999993,7.0,1.0,1.0,,,
89,0,,html-keyboard-response,89,546069,0.0-4.11-0.11,ww3wizfw8lj,2022-09-19 17:33:41.238,57843b986475d400015a8e45,0,14,46,61,40,25,Male,,,"<img src=""static/images/cards/stack_of_black_bolts.svg"" width=""175px"" height=""250px""></img>",,,,,,,,,,,,,,,,,,,,,,,,,,,,
90,0,,html-keyboard-response,90,546932,0.0-4.11-1.11,ww3wizfw8lj,2022-09-19 17:33:41.238,57843b986475d400015a8e45,0,14,46,61,40,25,Male,358.1999999993,,"
  <table>
  <tr height=300>
    <td width=300 height=300><img src=""static/images/cards/back_of_black_bolts.svg"" width=""175px"" height=""250px""></img></td>
    <td width=300 height=300><img src=""static/images/cards/back_of_black_bolts.svg"" width=""175px"" height=""250px""></img></td>
  </tr>
  <tr height=200>
    <td width=300><img src=""static/images/keys/z.svg"" width=""35%"" height=""75%""></img></td>
    <td width=300></td>
  </tr>
</table>
  ",90.0,1.0,,,,,,,,,,,,,,,,,,,,,,,,,,
91,0,,html-keyboard-response,91,548447,0.0-4.11-2.11,ww3wizfw8lj,2022-09-19 17:33:41.238,57843b986475d400015a8e45,0,14,46,61,40,25,Male,,,"
  <table>
  <tr height=300>
    <td width=300 height=300><img src=""static/images/cards/2_of_black_bolts.svg"" width=""175px"" height=""250px""></img></td>
    <td width=300 height=300><img src=""static/images/cards/back_of_black_bolts.svg"" width=""175px"" height=""250px""></img></td>
  </tr>
  <tr height=200>
    <td width=300><img src=""static/images/keys/z.svg"" width=""35%"" height=""75%""></img></td>
    <td width=300></td>
  </tr>
</table>
  ",,,,,,,,,,,,,,,,,,,,,,,,,,,,
92,0,,html-keyboard-response,92,549955,0.0-4.11-3.11,ww3wizfw8lj,2022-09-19 17:33:41.238,57843b986475d400015a8e45,0,14,46,61,40,25,Male,,,"<p style=""font-size:50px"">You win!
+10 points this round!</p>",,,,,,,,,,,,,,,,,,,,,,,,,,,,
93,0,,html-keyboard-response,93,550462,0.0-4.11-4.11,ww3wizfw8lj,2022-09-19 17:33:41.238,57843b986475d400015a8e45,0,14,46,61,40,25,Male,,,,,,1.0,learning,11.0,Xnc,,black,,bolts,,,,Xnc,black,bolts,,0.0,0.0,1,left,358.1999999993,2.0,0.0,1.0,,,
94,0,,html-keyboard-response,94,551966,0.0-4.12-0.12,ww3wizfw8lj,2022-09-19 17:33:41.238,57843b986475d400015a8e45,0,14,46,61,40,25,Male,,,"<img src=""static/images/cards/stack_of_red_stars.svg"" width=""175px"" height=""250px""></img>",,,,,,,,,,,,,,,,,,,,,,,,,,,,
95,0,,html-keyboard-response,95,553620,0.0-4.12-1.12,ww3wizfw8lj,2022-09-19 17:33:41.238,57843b986475d400015a8e45,0,14,46,61,40,25,Male,1149.200000003,,"
  <table>
  <tr height=300>
    <td width=300 height=300><img src=""static/images/cards/back_of_red_stars.svg"" width=""175px"" height=""250px""></img></td>
    <td width=300 height=300><img src=""static/images/cards/back_of_red_stars.svg"" width=""175px"" height=""250px""></img></td>
  </tr>
  <tr height=200>
    <td width=300><img src=""static/images/keys/z.svg"" width=""35%"" height=""75%""></img></td>
    <td width=300><img src=""static/images/keys/m.svg"" width=""35%"" height=""75%""></img></td>
  </tr>
</table>
  ",90.0,1.0,,,,,,,,,,,,,,,,,,,,,,,,,,
96,0,,html-keyboard-response,96,555125,0.0-4.12-2.12,ww3wizfw8lj,2022-09-19 17:33:41.238,57843b986475d400015a8e45,0,14,46,61,40,25,Male,,,"
  <table>
  <tr height=300>
    <td width=300 height=300><img src=""static/images/cards/3_of_red_stars.svg"" width=""175px"" height=""250px""></img></td>
    <td width=300 height=300><img src=""static/images/cards/back_of_red_stars.svg"" width=""175px"" height=""250px""></img></td>
  </tr>
  <tr height=200>
    <td width=300><img src=""static/images/keys/z.svg"" width=""35%"" height=""75%""></img></td>
    <td width=300><img src=""static/images/keys/m.svg"" width=""35%"" height=""75%""></img></td>
  </tr>
</table>
  ",,,,,,,,,,,,,,,,,,,,,,,,,,,,
97,0,,html-keyboard-response,97,556634,0.0-4.12-3.12,ww3wizfw8lj,2022-09-19 17:33:41.238,57843b986475d400015a8e45,0,14,46,61,40,25,Male,,,"<p style=""font-size:50px"">You Lose!
No points this round.</p>",,,,,,,,,,,,,,,,,,,,,,,,,,,,
98,0,,html-keyboard-response,98,557154,0.0-4.12-4.12,ww3wizfw8lj,2022-09-19 17:33:41.238,57843b986475d400015a8e45,0,14,46,61,40,25,Male,,,,,,1.0,learning,12.0,A,,red,,stars,,,,A,red,stars,,1.0,1.0,NA,left,1149.200000003,3.0,0.0,0.0,,,
99,0,,html-keyboard-response,99,558659,0.0-4.13-0.13,ww3wizfw8lj,2022-09-19 17:33:41.238,57843b986475d400015a8e45,0,14,46,61,40,25,Male,,,"<img src=""static/images/cards/stack_of_black_stars.svg"" width=""175px"" height=""250px""></img>",,,,,,,,,,,,,,,,,,,,,,,,,,,,
100,0,,html-keyboard-response,100,559636,0.0-4.13-1.13,ww3wizfw8lj,2022-09-19 17:33:41.238,57843b986475d400015a8e45,0,14,46,61,40,25,Male,473.3000000007,,"
  <table>
  <tr height=300>
    <td width=300 height=300><img src=""static/images/cards/back_of_black_stars.svg"" width=""175px"" height=""250px""></img></td>
    <td width=300 height=300><img src=""static/images/cards/back_of_black_stars.svg"" width=""175px"" height=""250px""></img></td>
  </tr>
  <tr height=200>
    <td width=300></td>
    <td width=300><img src=""static/images/keys/m.svg"" width=""35%"" height=""75%""></img></td>
  </tr>
</table>
  ",77.0,1.0,,,,,,,,,,,,,,,,,,,,,,,,,,
101,0,,html-keyboard-response,101,561139,0.0-4.13-2.13,ww3wizfw8lj,2022-09-19 17:33:41.238,57843b986475d400015a8e45,0,14,46,61,40,25,Male,,,"
  <table>
  <tr height=300>
    <td width=300 height=300><img src=""static/images/cards/back_of_black_stars.svg"" width=""175px"" height=""250px""></img></td>
    <td width=300 height=300><img src=""static/images/cards/2_of_black_stars.svg"" width=""175px"" height=""250px""></img></td>
  </tr>
  <tr height=200>
    <td width=300></td>
    <td width=300><img src=""static/images/keys/m.svg"" width=""35%"" height=""75%""></img></td>
  </tr>
</table>
  ",,,,,,,,,,,,,,,,,,,,,,,,,,,,
102,0,,html-keyboard-response,102,562649,0.0-4.13-3.13,ww3wizfw8lj,2022-09-19 17:33:41.238,57843b986475d400015a8e45,0,14,46,61,40,25,Male,,,"<p style=""font-size:50px"">You Lose!
No points this round.</p>",,,,,,,,,,,,,,,,,,,,,,,,,,,,
103,0,,html-keyboard-response,103,563157,0.0-4.13-4.13,ww3wizfw8lj,2022-09-19 17:33:41.238,57843b986475d400015a8e45,0,14,46,61,40,25,Male,,,,,,1.0,learning,13.0,B,,black,,stars,,,,B,black,stars,,0.0,1.0,0,right,473.3000000007,2.0,0.0,0.0,,,
104,0,,html-keyboard-response,104,564659,0.0-4.14-0.14,ww3wizfw8lj,2022-09-19 17:33:41.238,57843b986475d400015a8e45,0,14,46,61,40,25,Male,,,"<img src=""static/images/cards/stack_of_red_moons.svg"" width=""175px"" height=""250px""></img>",,,,,,,,,,,,,,,,,,,,,,,,,,,,
105,0,,html-keyboard-response,105,566164,0.0-4.14-1.14,ww3wizfw8lj,2022-09-19 17:33:41.238,57843b986475d400015a8e45,0,14,46,61,40,25,Male,1003.9000000022,,"
  <table>
  <tr height=300>
    <td width=300 height=300><img src=""static/images/cards/back_of_red_moons.svg"" width=""175px"" height=""250px""></img></td>
    <td width=300 height=300><img src=""static/images/cards/back_of_red_moons.svg"" width=""175px"" height=""250px""></img></td>
  </tr>
  <tr height=200>
    <td width=300><img src=""static/images/keys/z.svg"" width=""35%"" height=""75%""></img></td>
    <td width=300><img src=""static/images/keys/m.svg"" width=""35%"" height=""75%""></img></td>
  </tr>
</table>
  ",90.0,1.0,,,,,,,,,,,,,,,,,,,,,,,,,,
106,0,,html-keyboard-response,106,567669,0.0-4.14-2.14,ww3wizfw8lj,2022-09-19 17:33:41.238,57843b986475d400015a8e45,0,14,46,61,40,25,Male,,,"
  <table>
  <tr height=300>
    <td width=300 height=300><img src=""static/images/cards/6_of_red_moons.svg"" width=""175px"" height=""250px""></img></td>
    <td width=300 height=300><img src=""static/images/cards/back_of_red_moons.svg"" width=""175px"" height=""250px""></img></td>
  </tr>
  <tr height=200>
    <td width=300><img src=""static/images/keys/z.svg"" width=""35%"" height=""75%""></img></td>
    <td width=300><img src=""static/images/keys/m.svg"" width=""35%"" height=""75%""></img></td>
  </tr>
</table>
  ",,,,,,,,,,,,,,,,,,,,,,,,,,,,
107,0,,html-keyboard-response,107,569179,0.0-4.14-3.14,ww3wizfw8lj,2022-09-19 17:33:41.238,57843b986475d400015a8e45,0,14,46,61,40,25,Male,,,"<p style=""font-size:50px"">You Lose!
No points this round.</p>",,,,,,,,,,,,,,,,,,,,,,,,,,,,
108,0,,html-keyboard-response,108,569688,0.0-4.14-4.14,ww3wizfw8lj,2022-09-19 17:33:41.238,57843b986475d400015a8e45,0,14,46,61,40,25,Male,,,,,,1.0,learning,14.0,C,,red,,moons,,,,C,red,moons,,1.0,0.0,NA,left,1003.9000000022,6.0,1.0,0.0,,,
109,0,,html-keyboard-response,109,571190,0.0-4.15-0.15,ww3wizfw8lj,2022-09-19 17:33:41.238,57843b986475d400015a8e45,0,14,46,61,40,25,Male,,,"<img src=""static/images/cards/stack_of_black_moons.svg"" width=""175px"" height=""250px""></img>",,,,,,,,,,,,,,,,,,,,,,,,,,,,
110,0,,html-keyboard-response,110,572276,0.0-4.15-1.15,ww3wizfw8lj,2022-09-19 17:33:41.238,57843b986475d400015a8e45,0,14,46,61,40,25,Male,583.0999999978,,"
  <table>
  <tr height=300>
    <td width=300 height=300><img src=""static/images/cards/back_of_black_moons.svg"" width=""175px"" height=""250px""></img></td>
    <td width=300 height=300><img src=""static/images/cards/back_of_black_moons.svg"" width=""175px"" height=""250px""></img></td>
  </tr>
  <tr height=200>
    <td width=300><img src=""static/images/keys/z.svg"" width=""35%"" height=""75%""></img></td>
    <td width=300></td>
  </tr>
</table>
  ",90.0,1.0,,,,,,,,,,,,,,,,,,,,,,,,,,
111,0,,html-keyboard-response,111,573780,0.0-4.15-2.15,ww3wizfw8lj,2022-09-19 17:33:41.238,57843b986475d400015a8e45,0,14,46,61,40,25,Male,,,"
  <table>
  <tr height=300>
    <td width=300 height=300><img src=""static/images/cards/6_of_black_moons.svg"" width=""175px"" height=""250px""></img></td>
    <td width=300 height=300><img src=""static/images/cards/back_of_black_moons.svg"" width=""175px"" height=""250px""></img></td>
  </tr>
  <tr height=200>
    <td width=300><img src=""static/images/keys/z.svg"" width=""35%"" height=""75%""></img></td>
    <td width=300></td>
  </tr>
</table>
  ",,,,,,,,,,,,,,,,,,,,,,,,,,,,
112,0,,html-keyboard-response,112,575289,0.0-4.15-3.15,ww3wizfw8lj,2022-09-19 17:33:41.238,57843b986475d400015a8e45,0,14,46,61,40,25,Male,,,"<p style=""font-size:50px"">You win!
+10 points this round!</p>",,,,,,,,,,,,,,,,,,,,,,,,,,,,
113,0,,html-keyboard-response,113,575795,0.0-4.15-4.15,ww3wizfw8lj,2022-09-19 17:33:41.238,57843b986475d400015a8e45,0,14,46,61,40,25,Male,,,,,,1.0,learning,15.0,D,,black,,moons,,,,D,black,moons,,0.0,0.0,1,left,583.0999999978,6.0,1.0,1.0,,,
114,0,,html-keyboard-response,114,577298,0.0-4.16-0.16,ww3wizfw8lj,2022-09-19 17:33:41.238,57843b986475d400015a8e45,0,14,46,61,40,25,Male,,,"<img src=""static/images/cards/stack_of_red_bolts.svg"" width=""175px"" height=""250px""></img>",,,,,,,,,,,,,,,,,,,,,,,,,,,,
115,0,,html-keyboard-response,115,578212,0.0-4.16-1.16,ww3wizfw8lj,2022-09-19 17:33:41.238,57843b986475d400015a8e45,0,14,46,61,40,25,Male,410.0,,"
  <table>
  <tr height=300>
    <td width=300 height=300><img src=""static/images/cards/back_of_red_bolts.svg"" width=""175px"" height=""250px""></img></td>
    <td width=300 height=300><img src=""static/images/cards/back_of_red_bolts.svg"" width=""175px"" height=""250px""></img></td>
  </tr>
  <tr height=200>
    <td width=300><img src=""static/images/keys/z.svg"" width=""35%"" height=""75%""></img></td>
    <td width=300><img src=""static/images/keys/m.svg"" width=""35%"" height=""75%""></img></td>
  </tr>
</table>
  ",90.0,1.0,,,,,,,,,,,,,,,,,,,,,,,,,,
116,0,,html-keyboard-response,116,579718,0.0-4.16-2.16,ww3wizfw8lj,2022-09-19 17:33:41.238,57843b986475d400015a8e45,0,14,46,61,40,25,Male,,,"
  <table>
  <tr height=300>
    <td width=300 height=300><img src=""static/images/cards/8_of_red_bolts.svg"" width=""175px"" height=""250px""></img></td>
    <td width=300 height=300><img src=""static/images/cards/back_of_red_bolts.svg"" width=""175px"" height=""250px""></img></td>
  </tr>
  <tr height=200>
    <td width=300><img src=""static/images/keys/z.svg"" width=""35%"" height=""75%""></img></td>
    <td width=300><img src=""static/images/keys/m.svg"" width=""35%"" height=""75%""></img></td>
  </tr>
</table>
  ",,,,,,,,,,,,,,,,,,,,,,,,,,,,
117,0,,html-keyboard-response,117,581228,0.0-4.16-3.16,ww3wizfw8lj,2022-09-19 17:33:41.238,57843b986475d400015a8e45,0,14,46,61,40,25,Male,,,"<p style=""font-size:50px"">You win!
+10 points this round!</p>",,,,,,,,,,,,,,,,,,,,,,,,,,,,
118,0,,html-keyboard-response,118,581736,0.0-4.16-4.16,ww3wizfw8lj,2022-09-19 17:33:41.238,57843b986475d400015a8e45,0,14,46,61,40,25,Male,,,,,,1.0,learning,16.0,Xc,,red,,bolts,,,,Xc,red,bolts,,1.0,0.0,NA,left,410.0,8.0,1.0,1.0,,,
119,0,,html-keyboard-response,119,583239,0.0-4.17-0.17,ww3wizfw8lj,2022-09-19 17:33:41.238,57843b986475d400015a8e45,0,14,46,61,40,25,Male,,,"<img src=""static/images/cards/stack_of_black_bolts.svg"" width=""175px"" height=""250px""></img>",,,,,,,,,,,,,,,,,,,,,,,,,,,,
120,0,,html-keyboard-response,120,584132,0.0-4.17-1.17,ww3wizfw8lj,2022-09-19 17:33:41.238,57843b986475d400015a8e45,0,14,46,61,40,25,Male,390.1999999993,,"
  <table>
  <tr height=300>
    <td width=300 height=300><img src=""static/images/cards/back_of_black_bolts.svg"" width=""175px"" height=""250px""></img></td>
    <td width=300 height=300><img src=""static/images/cards/back_of_black_bolts.svg"" width=""175px"" height=""250px""></img></td>
  </tr>
  <tr height=200>
    <td width=300><img src=""static/images/keys/z.svg"" width=""35%"" height=""75%""></img></td>
    <td width=300></td>
  </tr>
</table>
  ",90.0,1.0,,,,,,,,,,,,,,,,,,,,,,,,,,
121,0,,html-keyboard-response,121,585643,0.0-4.17-2.17,ww3wizfw8lj,2022-09-19 17:33:41.238,57843b986475d400015a8e45,0,14,46,61,40,25,Male,,,"
  <table>
  <tr height=300>
    <td width=300 height=300><img src=""static/images/cards/6_of_black_bolts.svg"" width=""175px"" height=""250px""></img></td>
    <td width=300 height=300><img src=""static/images/cards/back_of_black_bolts.svg"" width=""175px"" height=""250px""></img></td>
  </tr>
  <tr height=200>
    <td width=300><img src=""static/images/keys/z.svg"" width=""35%"" height=""75%""></img></td>
    <td width=300></td>
  </tr>
</table>
  ",,,,,,,,,,,,,,,,,,,,,,,,,,,,
122,0,,html-keyboard-response,122,587150,0.0-4.17-3.17,ww3wizfw8lj,2022-09-19 17:33:41.238,57843b986475d400015a8e45,0,14,46,61,40,25,Male,,,"<p style=""font-size:50px"">You win!
+10 points this round!</p>",,,,,,,,,,,,,,,,,,,,,,,,,,,,
123,0,,html-keyboard-response,123,587658,0.0-4.17-4.17,ww3wizfw8lj,2022-09-19 17:33:41.238,57843b986475d400015a8e45,0,14,46,61,40,25,Male,,,,,,1.0,learning,17.0,Xnc,,black,,bolts,,,,Xnc,black,bolts,,0.0,0.0,1,left,390.1999999993,6.0,1.0,1.0,,,
124,0,,html-keyboard-response,124,589161,0.0-4.18-0.18,ww3wizfw8lj,2022-09-19 17:33:41.238,57843b986475d400015a8e45,0,14,46,61,40,25,Male,,,"<img src=""static/images/cards/stack_of_red_stars.svg"" width=""175px"" height=""250px""></img>",,,,,,,,,,,,,,,,,,,,,,,,,,,,
125,0,,html-keyboard-response,125,590196,0.0-4.18-1.18,ww3wizfw8lj,2022-09-19 17:33:41.238,57843b986475d400015a8e45,0,14,46,61,40,25,Male,531.0,,"
  <table>
  <tr height=300>
    <td width=300 height=300><img src=""static/images/cards/back_of_red_stars.svg"" width=""175px"" height=""250px""></img></td>
    <td width=300 height=300><img src=""static/images/cards/back_of_red_stars.svg"" width=""175px"" height=""250px""></img></td>
  </tr>
  <tr height=200>
    <td width=300><img src=""static/images/keys/z.svg"" width=""35%"" height=""75%""></img></td>
    <td width=300><img src=""static/images/keys/m.svg"" width=""35%"" height=""75%""></img></td>
  </tr>
</table>
  ",77.0,1.0,,,,,,,,,,,,,,,,,,,,,,,,,,
126,0,,html-keyboard-response,126,591705,0.0-4.18-2.18,ww3wizfw8lj,2022-09-19 17:33:41.238,57843b986475d400015a8e45,0,14,46,61,40,25,Male,,,"
  <table>
  <tr height=300>
    <td width=300 height=300><img src=""static/images/cards/back_of_red_stars.svg"" width=""175px"" height=""250px""></img></td>
    <td width=300 height=300><img src=""static/images/cards/10_of_red_stars.svg"" width=""175px"" height=""250px""></img></td>
  </tr>
  <tr height=200>
    <td width=300><img src=""static/images/keys/z.svg"" width=""35%"" height=""75%""></img></td>
    <td width=300><img src=""static/images/keys/m.svg"" width=""35%"" height=""75%""></img></td>
  </tr>
</table>
  ",,,,,,,,,,,,,,,,,,,,,,,,,,,,
127,0,,html-keyboard-response,127,593214,0.0-4.18-3.18,ww3wizfw8lj,2022-09-19 17:33:41.238,57843b986475d400015a8e45,0,14,46,61,40,25,Male,,,"<p style=""font-size:50px"">You win!
+10 points this round!</p>",,,,,,,,,,,,,,,,,,,,,,,,,,,,
128,0,,html-keyboard-response,128,593721,0.0-4.18-4.18,ww3wizfw8lj,2022-09-19 17:33:41.238,57843b986475d400015a8e45,0,14,46,61,40,25,Male,,,,,,1.0,learning,18.0,A,,red,,stars,,,,A,red,stars,,1.0,1.0,NA,right,531.0,10.0,1.0,1.0,,,
129,0,,html-keyboard-response,129,595237,0.0-4.19-0.19,ww3wizfw8lj,2022-09-19 17:33:41.238,57843b986475d400015a8e45,0,14,46,61,40,25,Male,,,"<img src=""static/images/cards/stack_of_black_stars.svg"" width=""175px"" height=""250px""></img>",,,,,,,,,,,,,,,,,,,,,,,,,,,,
130,0,,html-keyboard-response,130,596244,0.0-4.19-1.19,ww3wizfw8lj,2022-09-19 17:33:41.238,57843b986475d400015a8e45,0,14,46,61,40,25,Male,505.1999999993,,"
  <table>
  <tr height=300>
    <td width=300 height=300><img src=""static/images/cards/back_of_black_stars.svg"" width=""175px"" height=""250px""></img></td>
    <td width=300 height=300><img src=""static/images/cards/back_of_black_stars.svg"" width=""175px"" height=""250px""></img></td>
  </tr>
  <tr height=200>
    <td width=300></td>
    <td width=300><img src=""static/images/keys/m.svg"" width=""35%"" height=""75%""></img></td>
  </tr>
</table>
  ",77.0,1.0,,,,,,,,,,,,,,,,,,,,,,,,,,
131,0,,html-keyboard-response,131,597752,0.0-4.19-2.19,ww3wizfw8lj,2022-09-19 17:33:41.238,57843b986475d400015a8e45,0,14,46,61,40,25,Male,,,"
  <table>
  <tr height=300>
    <td width=300 height=300><img src=""static/images/cards/back_of_black_stars.svg"" width=""175px"" height=""250px""></img></td>
    <td width=300 height=300><img src=""static/images/cards/6_of_black_stars.svg"" width=""175px"" height=""250px""></img></td>
  </tr>
  <tr height=200>
    <td width=300></td>
    <td width=300><img src=""static/images/keys/m.svg"" width=""35%"" height=""75%""></img></td>
  </tr>
</table>
  ",,,,,,,,,,,,,,,,,,,,,,,,,,,,
132,0,,html-keyboard-response,132,599262,0.0-4.19-3.19,ww3wizfw8lj,2022-09-19 17:33:41.238,57843b986475d400015a8e45,0,14,46,61,40,25,Male,,,"<p style=""font-size:50px"">You win!
+10 points this round!</p>",,,,,,,,,,,,,,,,,,,,,,,,,,,,
133,0,,html-keyboard-response,133,599772,0.0-4.19-4.19,ww3wizfw8lj,2022-09-19 17:33:41.238,57843b986475d400015a8e45,0,14,46,61,40,25,Male,,,,,,1.0,learning,19.0,B,,black,,stars,,,,B,black,stars,,0.0,1.0,0,right,505.1999999993,6.0,1.0,1.0,,,
134,0,,html-keyboard-response,134,601275,0.0-4.20-0.20,ww3wizfw8lj,2022-09-19 17:33:41.238,57843b986475d400015a8e45,0,14,46,61,40,25,Male,,,"<img src=""static/images/cards/stack_of_red_moons.svg"" width=""175px"" height=""250px""></img>",,,,,,,,,,,,,,,,,,,,,,,,,,,,
135,0,,html-keyboard-response,135,602500,0.0-4.20-1.20,ww3wizfw8lj,2022-09-19 17:33:41.238,57843b986475d400015a8e45,0,14,46,61,40,25,Male,723.1000000015,,"
  <table>
  <tr height=300>
    <td width=300 height=300><img src=""static/images/cards/back_of_red_moons.svg"" width=""175px"" height=""250px""></img></td>
    <td width=300 height=300><img src=""static/images/cards/back_of_red_moons.svg"" width=""175px"" height=""250px""></img></td>
  </tr>
  <tr height=200>
    <td width=300><img src=""static/images/keys/z.svg"" width=""35%"" height=""75%""></img></td>
    <td width=300><img src=""static/images/keys/m.svg"" width=""35%"" height=""75%""></img></td>
  </tr>
</table>
  ",90.0,1.0,,,,,,,,,,,,,,,,,,,,,,,,,,
136,0,,html-keyboard-response,136,604002,0.0-4.20-2.20,ww3wizfw8lj,2022-09-19 17:33:41.238,57843b986475d400015a8e45,0,14,46,61,40,25,Male,,,"
  <table>
  <tr height=300>
    <td width=300 height=300><img src=""static/images/cards/3_of_red_moons.svg"" width=""175px"" height=""250px""></img></td>
    <td width=300 height=300><img src=""static/images/cards/back_of_red_moons.svg"" width=""175px"" height=""250px""></img></td>
  </tr>
  <tr height=200>
    <td width=300><img src=""static/images/keys/z.svg"" width=""35%"" height=""75%""></img></td>
    <td width=300><img src=""static/images/keys/m.svg"" width=""35%"" height=""75%""></img></td>
  </tr>
</table>
  ",,,,,,,,,,,,,,,,,,,,,,,,,,,,
137,0,,html-keyboard-response,137,605506,0.0-4.20-3.20,ww3wizfw8lj,2022-09-19 17:33:41.238,57843b986475d400015a8e45,0,14,46,61,40,25,Male,,,"<p style=""font-size:50px"">You Lose!
No points this round.</p>",,,,,,,,,,,,,,,,,,,,,,,,,,,,
138,0,,html-keyboard-response,138,606012,0.0-4.20-4.20,ww3wizfw8lj,2022-09-19 17:33:41.238,57843b986475d400015a8e45,0,14,46,61,40,25,Male,,,,,,1.0,learning,20.0,C,,red,,moons,,,,C,red,moons,,1.0,0.0,NA,left,723.1000000015,3.0,0.0,0.0,,,
139,0,,html-keyboard-response,139,607514,0.0-4.21-0.21,ww3wizfw8lj,2022-09-19 17:33:41.238,57843b986475d400015a8e45,0,14,46,61,40,25,Male,,,"<img src=""static/images/cards/stack_of_black_moons.svg"" width=""175px"" height=""250px""></img>",,,,,,,,,,,,,,,,,,,,,,,,,,,,
140,0,,html-keyboard-response,140,608532,0.0-4.21-1.21,ww3wizfw8lj,2022-09-19 17:33:41.238,57843b986475d400015a8e45,0,14,46,61,40,25,Male,514.1999999993,,"
  <table>
  <tr height=300>
    <td width=300 height=300><img src=""static/images/cards/back_of_black_moons.svg"" width=""175px"" height=""250px""></img></td>
    <td width=300 height=300><img src=""static/images/cards/back_of_black_moons.svg"" width=""175px"" height=""250px""></img></td>
  </tr>
  <tr height=200>
    <td width=300><img src=""static/images/keys/z.svg"" width=""35%"" height=""75%""></img></td>
    <td width=300></td>
  </tr>
</table>
  ",90.0,1.0,,,,,,,,,,,,,,,,,,,,,,,,,,
141,0,,html-keyboard-response,141,610047,0.0-4.21-2.21,ww3wizfw8lj,2022-09-19 17:33:41.238,57843b986475d400015a8e45,0,14,46,61,40,25,Male,,,"
  <table>
  <tr height=300>
    <td width=300 height=300><img src=""static/images/cards/4_of_black_moons.svg"" width=""175px"" height=""250px""></img></td>
    <td width=300 height=300><img src=""static/images/cards/back_of_black_moons.svg"" width=""175px"" height=""250px""></img></td>
  </tr>
  <tr height=200>
    <td width=300><img src=""static/images/keys/z.svg"" width=""35%"" height=""75%""></img></td>
    <td width=300></td>
  </tr>
</table>
  ",,,,,,,,,,,,,,,,,,,,,,,,,,,,
142,0,,html-keyboard-response,142,611553,0.0-4.21-3.21,ww3wizfw8lj,2022-09-19 17:33:41.238,57843b986475d400015a8e45,0,14,46,61,40,25,Male,,,"<p style=""font-size:50px"">You win!
+10 points this round!</p>",,,,,,,,,,,,,,,,,,,,,,,,,,,,
143,0,,html-keyboard-response,143,612063,0.0-4.21-4.21,ww3wizfw8lj,2022-09-19 17:33:41.238,57843b986475d400015a8e45,0,14,46,61,40,25,Male,,,,,,1.0,learning,21.0,D,,black,,moons,,,,D,black,moons,,0.0,0.0,1,left,514.1999999993,4.0,0.0,1.0,,,
144,0,,html-keyboard-response,144,613568,0.0-4.22-0.22,ww3wizfw8lj,2022-09-19 17:33:41.238,57843b986475d400015a8e45,0,14,46,61,40,25,Male,,,"<img src=""static/images/cards/stack_of_red_bolts.svg"" width=""175px"" height=""250px""></img>",,,,,,,,,,,,,,,,,,,,,,,,,,,,
145,0,,html-keyboard-response,145,615012,0.0-4.22-1.22,ww3wizfw8lj,2022-09-19 17:33:41.238,57843b986475d400015a8e45,0,14,46,61,40,25,Male,939.0,,"
  <table>
  <tr height=300>
    <td width=300 height=300><img src=""static/images/cards/back_of_red_bolts.svg"" width=""175px"" height=""250px""></img></td>
    <td width=300 height=300><img src=""static/images/cards/back_of_red_bolts.svg"" width=""175px"" height=""250px""></img></td>
  </tr>
  <tr height=200>
    <td width=300><img src=""static/images/keys/z.svg"" width=""35%"" height=""75%""></img></td>
    <td width=300><img src=""static/images/keys/m.svg"" width=""35%"" height=""75%""></img></td>
  </tr>
</table>
  ",77.0,1.0,,,,,,,,,,,,,,,,,,,,,,,,,,
146,0,,html-keyboard-response,146,616521,0.0-4.22-2.22,ww3wizfw8lj,2022-09-19 17:33:41.238,57843b986475d400015a8e45,0,14,46,61,40,25,Male,,,"
  <table>
  <tr height=300>
    <td width=300 height=300><img src=""static/images/cards/back_of_red_bolts.svg"" width=""175px"" height=""250px""></img></td>
    <td width=300 height=300><img src=""static/images/cards/3_of_red_bolts.svg"" width=""175px"" height=""250px""></img></td>
  </tr>
  <tr height=200>
    <td width=300><img src=""static/images/keys/z.svg"" width=""35%"" height=""75%""></img></td>
    <td width=300><img src=""static/images/keys/m.svg"" width=""35%"" height=""75%""></img></td>
  </tr>
</table>
  ",,,,,,,,,,,,,,,,,,,,,,,,,,,,
147,0,,html-keyboard-response,147,618029,0.0-4.22-3.22,ww3wizfw8lj,2022-09-19 17:33:41.238,57843b986475d400015a8e45,0,14,46,61,40,25,Male,,,"<p style=""font-size:50px"">You win!
+10 points this round!</p>",,,,,,,,,,,,,,,,,,,,,,,,,,,,
148,0,,html-keyboard-response,148,618537,0.0-4.22-4.22,ww3wizfw8lj,2022-09-19 17:33:41.238,57843b986475d400015a8e45,0,14,46,61,40,25,Male,,,,,,1.0,learning,22.0,Xc,,red,,bolts,,,,Xc,red,bolts,,1.0,0.0,NA,right,939.0,3.0,0.0,1.0,,,
149,0,,html-keyboard-response,149,620052,0.0-4.23-0.23,ww3wizfw8lj,2022-09-19 17:33:41.238,57843b986475d400015a8e45,0,14,46,61,40,25,Male,,,"<img src=""static/images/cards/stack_of_black_bolts.svg"" width=""175px"" height=""250px""></img>",,,,,,,,,,,,,,,,,,,,,,,,,,,,
150,0,,html-keyboard-response,150,620996,0.0-4.23-1.23,ww3wizfw8lj,2022-09-19 17:33:41.238,57843b986475d400015a8e45,0,14,46,61,40,25,Male,440.200000003,,"
  <table>
  <tr height=300>
    <td width=300 height=300><img src=""static/images/cards/back_of_black_bolts.svg"" width=""175px"" height=""250px""></img></td>
    <td width=300 height=300><img src=""static/images/cards/back_of_black_bolts.svg"" width=""175px"" height=""250px""></img></td>
  </tr>
  <tr height=200>
    <td width=300><img src=""static/images/keys/z.svg"" width=""35%"" height=""75%""></img></td>
    <td width=300></td>
  </tr>
</table>
  ",90.0,1.0,,,,,,,,,,,,,,,,,,,,,,,,,,
151,0,,html-keyboard-response,151,622504,0.0-4.23-2.23,ww3wizfw8lj,2022-09-19 17:33:41.238,57843b986475d400015a8e45,0,14,46,61,40,25,Male,,,"
  <table>
  <tr height=300>
    <td width=300 height=300><img src=""static/images/cards/1_of_black_bolts.svg"" width=""175px"" height=""250px""></img></td>
    <td width=300 height=300><img src=""static/images/cards/back_of_black_bolts.svg"" width=""175px"" height=""250px""></img></td>
  </tr>
  <tr height=200>
    <td width=300><img src=""static/images/keys/z.svg"" width=""35%"" height=""75%""></img></td>
    <td width=300></td>
  </tr>
</table>
  ",,,,,,,,,,,,,,,,,,,,,,,,,,,,
152,0,,html-keyboard-response,152,624013,0.0-4.23-3.23,ww3wizfw8lj,2022-09-19 17:33:41.238,57843b986475d400015a8e45,0,14,46,61,40,25,Male,,,"<p style=""font-size:50px"">You win!
+10 points this round!</p>",,,,,,,,,,,,,,,,,,,,,,,,,,,,
153,0,,html-keyboard-response,153,624520,0.0-4.23-4.23,ww3wizfw8lj,2022-09-19 17:33:41.238,57843b986475d400015a8e45,0,14,46,61,40,25,Male,,,,,,1.0,learning,23.0,Xnc,,black,,bolts,,,,Xnc,black,bolts,,0.0,0.0,1,left,440.200000003,1.0,0.0,1.0,,,
154,0,,call-function,154,624523,0.0-5.0,ww3wizfw8lj,2022-09-19 17:33:41.238,57843b986475d400015a8e45,0,14,46,61,40,25,Male,,,,,,,,,,,,,,,,,,,,,,,,,,,,,,,
155,0,,image-keyboard-response,155,630020,0.0-6.0-0.0,ww3wizfw8lj,2022-09-19 17:33:41.238,57843b986475d400015a8e45,0,14,46,61,40,25,Male,5496.1999999993,,static/images/instructions_CB_0/Slide20.png,39.0,,,,,,,,,,,,,,,,,,,,,,,,,,,
156,0,,image-keyboard-response,156,644612,0.0-6.1-0.1,ww3wizfw8lj,2022-09-19 17:33:41.238,57843b986475d400015a8e45,0,14,46,61,40,25,Male,14591.6000000015,,static/images/instructions_CB_0/Slide21.png,37.0,,,,,,,,,,,,,,,,,,,,,,,,,,,
157,0,,image-keyboard-response,157,646228,0.0-6.2-0.2,ww3wizfw8lj,2022-09-19 17:33:41.238,57843b986475d400015a8e45,0,14,46,61,40,25,Male,1615.200000003,,static/images/instructions_CB_0/Slide20.png,39.0,,,,,,,,,,,,,,,,,,,,,,,,,,,
158,0,,image-keyboard-response,158,646820,0.0-6.3-0.3,ww3wizfw8lj,2022-09-19 17:33:41.238,57843b986475d400015a8e45,0,14,46,61,40,25,Male,591.5,,static/images/instructions_CB_0/Slide21.png,39.0,,,,,,,,,,,,,,,,,,,,,,,,,,,
159,0,,image-keyboard-response,159,655556,0.0-6.4-0.4,ww3wizfw8lj,2022-09-19 17:33:41.238,57843b986475d400015a8e45,0,14,46,61,40,25,Male,8735.5,,static/images/instructions_CB_0/Slide22.png,39.0,,,,,,,,,,,,,,,,,,,,,,,,,,,
160,0,,image-keyboard-response,160,657156,0.0-6.5-0.5,ww3wizfw8lj,2022-09-19 17:33:41.238,57843b986475d400015a8e45,0,14,46,61,40,25,Male,1599.4000000022,,static/images/instructions_CB_0/Slide23.png,39.0,,,,,,,,,,,,,,,,,,,,,,,,,,,
161,0,,image-keyboard-response,161,660084,0.0-6.6-0.6,ww3wizfw8lj,2022-09-19 17:33:41.238,57843b986475d400015a8e45,0,14,46,61,40,25,Male,2927.5,,static/images/instructions_CB_0/Slide24.png,39.0,,,,,,,,,,,,,,,,,,,,,,,,,,,
162,0,,html-keyboard-response,162,661828,0.0-7.0-0.0,ww3wizfw8lj,2022-09-19 17:33:41.238,57843b986475d400015a8e45,0,14,46,61,40,25,Male,1743.1000000015,,"
  <table>
  <tr height=300>
    <td width=300 height=300><img src=""static/images/cards/stack_of_red_stars.svg"" width=""175px"" height=""250px""></img></td>
    <td width=300 height=300><img src=""static/images/cards/stack_of_red_moons.svg"" width=""175px"" height=""250px""></img></td>
  </tr>
  <tr height=200>
    <td width=300><img src=""static/images/keys/w.svg"" width=""35%"" height=""75%""></img></td>
    <td width=300><img src=""static/images/keys/o.svg"" width=""35%"" height=""75%""></img></td>
  </tr>
</table>
  ",87.0,1.0,,,,,,,,,,,,,,,,,,,,,,,,,,
163,0,,html-keyboard-response,163,663412,0.0-7.0-1.0,ww3wizfw8lj,2022-09-19 17:33:41.238,57843b986475d400015a8e45,0,14,46,61,40,25,Male,1074.4000000022,,"
  <table>
  <tr height=300>
    <td width=300 height=300><img src=""static/images/cards/back_of_red_stars.svg"" width=""175px"" height=""250px""></img></td>
    <td width=300 height=300><img src=""static/images/cards/back_of_red_stars.svg"" width=""175px"" height=""250px""></img></td>
  </tr>
  <tr height=200>
    <td width=300><img src=""static/images/keys/z.svg"" width=""35%"" height=""75%""></img></td>
    <td width=300><img src=""static/images/keys/m.svg"" width=""35%"" height=""75%""></img></td>
  </tr>
</table>
  ",90.0,1.0,,,,,,,,,,,,,,,,,,,,,,,,,,
164,0,,html-keyboard-response,164,664915,0.0-7.0-2.0,ww3wizfw8lj,2022-09-19 17:33:41.238,57843b986475d400015a8e45,0,14,46,61,40,25,Male,,,"
  <table>
  <tr height=300>
    <td width=300 height=300><img src=""static/images/cards/10_of_red_stars.svg"" width=""175px"" height=""250px""></img></td>
    <td width=300 height=300><img src=""static/images/cards/back_of_red_stars.svg"" width=""175px"" height=""250px""></img></td>
  </tr>
  <tr height=200>
    <td width=300><img src=""static/images/keys/z.svg"" width=""35%"" height=""75%""></img></td>
    <td width=300><img src=""static/images/keys/m.svg"" width=""35%"" height=""75%""></img></td>
  </tr>
</table>
  ",,,,,,,,,,,,,,,,,,,,,,,,,,,,
165,0,,html-keyboard-response,165,666425,0.0-7.0-3.0,ww3wizfw8lj,2022-09-19 17:33:41.238,57843b986475d400015a8e45,0,14,46,61,40,25,Male,,,"<p style=""font-size:50px"">You win!
+10 points this round!</p>",,,,,,,,,,,,,,,,,,,,,,,,,,,,
166,0,,html-keyboard-response,166,666933,0.0-7.0-4.0,ww3wizfw8lj,2022-09-19 17:33:41.238,57843b986475d400015a8e45,0,14,46,61,40,25,Male,,,,,,1.0,choice,0.0,A,C,red,red,stars,moons,A,C,A,red,stars,1743.1000000015,1.0,1.0,NA,left,1074.4000000022,10.0,1.0,1.0,,,
167,0,,html-keyboard-response,167,667924,0.0-7.1-0.1,ww3wizfw8lj,2022-09-19 17:33:41.238,57843b986475d400015a8e45,0,14,46,61,40,25,Male,990.0,,"
  <table>
  <tr height=300>
    <td width=300 height=300><img src=""static/images/cards/stack_of_red_stars.svg"" width=""175px"" height=""250px""></img></td>
    <td width=300 height=300><img src=""static/images/cards/stack_of_black_moons.svg"" width=""175px"" height=""250px""></img></td>
  </tr>
  <tr height=200>
    <td width=300><img src=""static/images/keys/w.svg"" width=""35%"" height=""75%""></img></td>
    <td width=300><img src=""static/images/keys/o.svg"" width=""35%"" height=""75%""></img></td>
  </tr>
</table>
  ",79.0,1.0,,,,,,,,,,,,,,,,,,,,,,,,,,
168,0,,html-keyboard-response,168,669780,0.0-7.1-1.1,ww3wizfw8lj,2022-09-19 17:33:41.238,57843b986475d400015a8e45,0,14,46,61,40,25,Male,1342.3000000007,,"
  <table>
  <tr height=300>
    <td width=300 height=300><img src=""static/images/cards/back_of_black_moons.svg"" width=""175px"" height=""250px""></img></td>
    <td width=300 height=300><img src=""static/images/cards/back_of_black_moons.svg"" width=""175px"" height=""250px""></img></td>
  </tr>
  <tr height=200>
    <td width=300><img src=""static/images/keys/z.svg"" width=""35%"" height=""75%""></img></td>
    <td width=300></td>
  </tr>
</table>
  ",90.0,2.0,,,,,,,,,,,,,,,,,,,,,,,,,,
169,0,,html-keyboard-response,169,671281,0.0-7.1-2.1,ww3wizfw8lj,2022-09-19 17:33:41.238,57843b986475d400015a8e45,0,14,46,61,40,25,Male,,,"
  <table>
  <tr height=300>
    <td width=300 height=300><img src=""static/images/cards/6_of_black_moons.svg"" width=""175px"" height=""250px""></img></td>
    <td width=300 height=300><img src=""static/images/cards/back_of_black_moons.svg"" width=""175px"" height=""250px""></img></td>
  </tr>
  <tr height=200>
    <td width=300><img src=""static/images/keys/z.svg"" width=""35%"" height=""75%""></img></td>
    <td width=300></td>
  </tr>
</table>
  ",,,,,,,,,,,,,,,,,,,,,,,,,,,,
170,0,,html-keyboard-response,170,672785,0.0-7.1-3.1,ww3wizfw8lj,2022-09-19 17:33:41.238,57843b986475d400015a8e45,0,14,46,61,40,25,Male,,,"<p style=""font-size:50px"">You Lose!
No points this round.</p>",,,,,,,,,,,,,,,,,,,,,,,,,,,,
171,0,,html-keyboard-response,171,673294,0.0-7.1-4.1,ww3wizfw8lj,2022-09-19 17:33:41.238,57843b986475d400015a8e45,0,14,46,61,40,25,Male,,,,,,1.0,choice,1.0,A,D,red,black,stars,moons,A,D,D,black,moons,990.0,0.0,0.0,1,left,1342.3000000007,6.0,1.0,0.0,,,
172,0,,html-keyboard-response,172,675060,0.0-7.2-0.2,ww3wizfw8lj,2022-09-19 17:33:41.238,57843b986475d400015a8e45,0,14,46,61,40,25,Male,1765.5,,"
  <table>
  <tr height=300>
    <td width=300 height=300><img src=""static/images/cards/stack_of_red_bolts.svg"" width=""175px"" height=""250px""></img></td>
    <td width=300 height=300><img src=""static/images/cards/stack_of_black_stars.svg"" width=""175px"" height=""250px""></img></td>
  </tr>
  <tr height=200>
    <td width=300><img src=""static/images/keys/w.svg"" width=""35%"" height=""75%""></img></td>
    <td width=300><img src=""static/images/keys/o.svg"" width=""35%"" height=""75%""></img></td>
  </tr>
</table>
  ",87.0,1.0,,,,,,,,,,,,,,,,,,,,,,,,,,
173,0,,html-keyboard-response,173,676884,0.0-7.2-1.2,ww3wizfw8lj,2022-09-19 17:33:41.238,57843b986475d400015a8e45,0,14,46,61,40,25,Male,1317.3000000007,,"
  <table>
  <tr height=300>
    <td width=300 height=300><img src=""static/images/cards/back_of_red_bolts.svg"" width=""175px"" height=""250px""></img></td>
    <td width=300 height=300><img src=""static/images/cards/back_of_red_bolts.svg"" width=""175px"" height=""250px""></img></td>
  </tr>
  <tr height=200>
    <td width=300><img src=""static/images/keys/z.svg"" width=""35%"" height=""75%""></img></td>
    <td width=300><img src=""static/images/keys/m.svg"" width=""35%"" height=""75%""></img></td>
  </tr>
</table>
  ",90.0,1.0,,,,,,,,,,,,,,,,,,,,,,,,,,
174,0,,html-keyboard-response,174,678397,0.0-7.2-2.2,ww3wizfw8lj,2022-09-19 17:33:41.238,57843b986475d400015a8e45,0,14,46,61,40,25,Male,,,"
  <table>
  <tr height=300>
    <td width=300 height=300><img src=""static/images/cards/9_of_red_bolts.svg"" width=""175px"" height=""250px""></img></td>
    <td width=300 height=300><img src=""static/images/cards/back_of_red_bolts.svg"" width=""175px"" height=""250px""></img></td>
  </tr>
  <tr height=200>
    <td width=300><img src=""static/images/keys/z.svg"" width=""35%"" height=""75%""></img></td>
    <td width=300><img src=""static/images/keys/m.svg"" width=""35%"" height=""75%""></img></td>
  </tr>
</table>
  ",,,,,,,,,,,,,,,,,,,,,,,,,,,,
175,0,,html-keyboard-response,175,679906,0.0-7.2-3.2,ww3wizfw8lj,2022-09-19 17:33:41.238,57843b986475d400015a8e45,0,14,46,61,40,25,Male,,,"<p style=""font-size:50px"">You win!
+10 points this round!</p>",,,,,,,,,,,,,,,,,,,,,,,,,,,,
176,0,,html-keyboard-response,176,680416,0.0-7.2-4.2,ww3wizfw8lj,2022-09-19 17:33:41.238,57843b986475d400015a8e45,0,14,46,61,40,25,Male,,,,,,1.0,choice,2.0,B,Xc,red,black,bolts,stars,Xc,B,Xc,red,bolts,1765.5,1.0,0.0,NA,left,1317.3000000007,9.0,1.0,1.0,,,
177,0,,html-keyboard-response,177,681604,0.0-7.3-0.3,ww3wizfw8lj,2022-09-19 17:33:41.238,57843b986475d400015a8e45,0,14,46,61,40,25,Male,1187.1999999993,,"
  <table>
  <tr height=300>
    <td width=300 height=300><img src=""static/images/cards/stack_of_black_moons.svg"" width=""175px"" height=""250px""></img></td>
    <td width=300 height=300><img src=""static/images/cards/stack_of_red_stars.svg"" width=""175px"" height=""250px""></img></td>
  </tr>
  <tr height=200>
    <td width=300><img src=""static/images/keys/w.svg"" width=""35%"" height=""75%""></img></td>
    <td width=300><img src=""static/images/keys/o.svg"" width=""35%"" height=""75%""></img></td>
  </tr>
</table>
  ",79.0,1.0,,,,,,,,,,,,,,,,,,,,,,,,,,
178,0,,html-keyboard-response,178,683075,0.0-7.3-1.3,ww3wizfw8lj,2022-09-19 17:33:41.238,57843b986475d400015a8e45,0,14,46,61,40,25,Male,955.8000000007,,"
  <table>
  <tr height=300>
    <td width=300 height=300><img src=""static/images/cards/back_of_red_stars.svg"" width=""175px"" height=""250px""></img></td>
    <td width=300 height=300><img src=""static/images/cards/back_of_red_stars.svg"" width=""175px"" height=""250px""></img></td>
  </tr>
  <tr height=200>
    <td width=300><img src=""static/images/keys/z.svg"" width=""35%"" height=""75%""></img></td>
    <td width=300><img src=""static/images/keys/m.svg"" width=""35%"" height=""75%""></img></td>
  </tr>
</table>
  ",90.0,1.0,,,,,,,,,,,,,,,,,,,,,,,,,,
179,0,,html-keyboard-response,179,684587,0.0-7.3-2.3,ww3wizfw8lj,2022-09-19 17:33:41.238,57843b986475d400015a8e45,0,14,46,61,40,25,Male,,,"
  <table>
  <tr height=300>
    <td width=300 height=300><img src=""static/images/cards/9_of_red_stars.svg"" width=""175px"" height=""250px""></img></td>
    <td width=300 height=300><img src=""static/images/cards/back_of_red_stars.svg"" width=""175px"" height=""250px""></img></td>
  </tr>
  <tr height=200>
    <td width=300><img src=""static/images/keys/z.svg"" width=""35%"" height=""75%""></img></td>
    <td width=300><img src=""static/images/keys/m.svg"" width=""35%"" height=""75%""></img></td>
  </tr>
</table>
  ",,,,,,,,,,,,,,,,,,,,,,,,,,,,
180,0,,html-keyboard-response,180,686093,0.0-7.3-3.3,ww3wizfw8lj,2022-09-19 17:33:41.238,57843b986475d400015a8e45,0,14,46,61,40,25,Male,,,"<p style=""font-size:50px"">You win!
+10 points this round!</p>",,,,,,,,,,,,,,,,,,,,,,,,,,,,
181,0,,html-keyboard-response,181,686599,0.0-7.3-4.3,ww3wizfw8lj,2022-09-19 17:33:41.238,57843b986475d400015a8e45,0,14,46,61,40,25,Male,,,,,,1.0,choice,3.0,A,D,black,red,moons,stars,D,A,A,red,stars,1187.1999999993,1.0,1.0,NA,left,955.8000000007,9.0,1.0,1.0,,,
182,0,,html-keyboard-response,182,688291,0.0-7.4-0.4,ww3wizfw8lj,2022-09-19 17:33:41.238,57843b986475d400015a8e45,0,14,46,61,40,25,Male,1691.4000000022,,"
  <table>
  <tr height=300>
    <td width=300 height=300><img src=""static/images/cards/stack_of_red_moons.svg"" width=""175px"" height=""250px""></img></td>
    <td width=300 height=300><img src=""static/images/cards/stack_of_black_stars.svg"" width=""175px"" height=""250px""></img></td>
  </tr>
  <tr height=200>
    <td width=300><img src=""static/images/keys/w.svg"" width=""35%"" height=""75%""></img></td>
    <td width=300><img src=""static/images/keys/o.svg"" width=""35%"" height=""75%""></img></td>
  </tr>
</table>
  ",79.0,1.0,,,,,,,,,,,,,,,,,,,,,,,,,,
183,0,,html-keyboard-response,183,689812,0.0-7.4-1.4,ww3wizfw8lj,2022-09-19 17:33:41.238,57843b986475d400015a8e45,0,14,46,61,40,25,Male,1012.5999999978,,"
  <table>
  <tr height=300>
    <td width=300 height=300><img src=""static/images/cards/back_of_black_stars.svg"" width=""175px"" height=""250px""></img></td>
    <td width=300 height=300><img src=""static/images/cards/back_of_black_stars.svg"" width=""175px"" height=""250px""></img></td>
  </tr>
  <tr height=200>
    <td width=300></td>
    <td width=300><img src=""static/images/keys/m.svg"" width=""35%"" height=""75%""></img></td>
  </tr>
</table>
  ",77.0,1.0,,,,,,,,,,,,,,,,,,,,,,,,,,
184,0,,html-keyboard-response,184,691327,0.0-7.4-2.4,ww3wizfw8lj,2022-09-19 17:33:41.238,57843b986475d400015a8e45,0,14,46,61,40,25,Male,,,"
  <table>
  <tr height=300>
    <td width=300 height=300><img src=""static/images/cards/back_of_black_stars.svg"" width=""175px"" height=""250px""></img></td>
    <td width=300 height=300><img src=""static/images/cards/10_of_black_stars.svg"" width=""175px"" height=""250px""></img></td>
  </tr>
  <tr height=200>
    <td width=300></td>
    <td width=300><img src=""static/images/keys/m.svg"" width=""35%"" height=""75%""></img></td>
  </tr>
</table>
  ",,,,,,,,,,,,,,,,,,,,,,,,,,,,
185,0,,html-keyboard-response,185,692837,0.0-7.4-3.4,ww3wizfw8lj,2022-09-19 17:33:41.238,57843b986475d400015a8e45,0,14,46,61,40,25,Male,,,"<p style=""font-size:50px"">You win!
+10 points this round!</p>",,,,,,,,,,,,,,,,,,,,,,,,,,,,
186,0,,html-keyboard-response,186,693344,0.0-7.4-4.4,ww3wizfw8lj,2022-09-19 17:33:41.238,57843b986475d400015a8e45,0,14,46,61,40,25,Male,,,,,,1.0,choice,4.0,B,C,red,black,moons,stars,C,B,B,black,stars,1691.4000000022,0.0,1.0,0,right,1012.5999999978,10.0,1.0,1.0,,,
187,0,,html-keyboard-response,187,694628,0.0-7.5-0.5,ww3wizfw8lj,2022-09-19 17:33:41.238,57843b986475d400015a8e45,0,14,46,61,40,25,Male,1282.3000000007,,"
  <table>
  <tr height=300>
    <td width=300 height=300><img src=""static/images/cards/stack_of_red_moons.svg"" width=""175px"" height=""250px""></img></td>
    <td width=300 height=300><img src=""static/images/cards/stack_of_black_moons.svg"" width=""175px"" height=""250px""></img></td>
  </tr>
  <tr height=200>
    <td width=300><img src=""static/images/keys/w.svg"" width=""35%"" height=""75%""></img></td>
    <td width=300><img src=""static/images/keys/o.svg"" width=""35%"" height=""75%""></img></td>
  </tr>
</table>
  ",87.0,1.0,,,,,,,,,,,,,,,,,,,,,,,,,,
188,0,,html-keyboard-response,188,696323,0.0-7.5-1.5,ww3wizfw8lj,2022-09-19 17:33:41.238,57843b986475d400015a8e45,0,14,46,61,40,25,Male,1194.3999999985,,"
  <table>
  <tr height=300>
    <td width=300 height=300><img src=""static/images/cards/back_of_red_moons.svg"" width=""175px"" height=""250px""></img></td>
    <td width=300 height=300><img src=""static/images/cards/back_of_red_moons.svg"" width=""175px"" height=""250px""></img></td>
  </tr>
  <tr height=200>
    <td width=300><img src=""static/images/keys/z.svg"" width=""35%"" height=""75%""></img></td>
    <td width=300><img src=""static/images/keys/m.svg"" width=""35%"" height=""75%""></img></td>
  </tr>
</table>
  ",77.0,1.0,,,,,,,,,,,,,,,,,,,,,,,,,,
189,0,,html-keyboard-response,189,697828,0.0-7.5-2.5,ww3wizfw8lj,2022-09-19 17:33:41.238,57843b986475d400015a8e45,0,14,46,61,40,25,Male,,,"
  <table>
  <tr height=300>
    <td width=300 height=300><img src=""static/images/cards/back_of_red_moons.svg"" width=""175px"" height=""250px""></img></td>
    <td width=300 height=300><img src=""static/images/cards/6_of_red_moons.svg"" width=""175px"" height=""250px""></img></td>
  </tr>
  <tr height=200>
    <td width=300><img src=""static/images/keys/z.svg"" width=""35%"" height=""75%""></img></td>
    <td width=300><img src=""static/images/keys/m.svg"" width=""35%"" height=""75%""></img></td>
  </tr>
</table>
  ",,,,,,,,,,,,,,,,,,,,,,,,,,,,
190,0,,html-keyboard-response,190,699335,0.0-7.5-3.5,ww3wizfw8lj,2022-09-19 17:33:41.238,57843b986475d400015a8e45,0,14,46,61,40,25,Male,,,"<p style=""font-size:50px"">You win!
+10 points this round!</p>",,,,,,,,,,,,,,,,,,,,,,,,,,,,
191,0,,html-keyboard-response,191,699842,0.0-7.5-4.5,ww3wizfw8lj,2022-09-19 17:33:41.238,57843b986475d400015a8e45,0,14,46,61,40,25,Male,,,,,,1.0,choice,5.0,C,D,red,black,moons,moons,C,D,C,red,moons,1282.3000000007,1.0,0.0,NA,right,1194.3999999985,6.0,1.0,1.0,,,
192,0,,html-keyboard-response,192,701843,0.0-7.6-0.6,ww3wizfw8lj,2022-09-19 17:33:41.238,57843b986475d400015a8e45,0,14,46,61,40,25,Male,2000.700000003,,"
  <table>
  <tr height=300>
    <td width=300 height=300><img src=""static/images/cards/stack_of_black_moons.svg"" width=""175px"" height=""250px""></img></td>
    <td width=300 height=300><img src=""static/images/cards/stack_of_black_stars.svg"" width=""175px"" height=""250px""></img></td>
  </tr>
  <tr height=200>
    <td width=300><img src=""static/images/keys/w.svg"" width=""35%"" height=""75%""></img></td>
    <td width=300><img src=""static/images/keys/o.svg"" width=""35%"" height=""75%""></img></td>
  </tr>
</table>
  ",79.0,1.0,,,,,,,,,,,,,,,,,,,,,,,,,,
193,0,,html-keyboard-response,193,703379,0.0-7.6-1.6,ww3wizfw8lj,2022-09-19 17:33:41.238,57843b986475d400015a8e45,0,14,46,61,40,25,Male,1030.0,,"
  <table>
  <tr height=300>
    <td width=300 height=300><img src=""static/images/cards/back_of_black_stars.svg"" width=""175px"" height=""250px""></img></td>
    <td width=300 height=300><img src=""static/images/cards/back_of_black_stars.svg"" width=""175px"" height=""250px""></img></td>
  </tr>
  <tr height=200>
    <td width=300><img src=""static/images/keys/z.svg"" width=""35%"" height=""75%""></img></td>
    <td width=300></td>
  </tr>
</table>
  ",90.0,1.0,,,,,,,,,,,,,,,,,,,,,,,,,,
194,0,,html-keyboard-response,194,704880,0.0-7.6-2.6,ww3wizfw8lj,2022-09-19 17:33:41.238,57843b986475d400015a8e45,0,14,46,61,40,25,Male,,,"
  <table>
  <tr height=300>
    <td width=300 height=300><img src=""static/images/cards/6_of_black_stars.svg"" width=""175px"" height=""250px""></img></td>
    <td width=300 height=300><img src=""static/images/cards/back_of_black_stars.svg"" width=""175px"" height=""250px""></img></td>
  </tr>
  <tr height=200>
    <td width=300><img src=""static/images/keys/z.svg"" width=""35%"" height=""75%""></img></td>
    <td width=300></td>
  </tr>
</table>
  ",,,,,,,,,,,,,,,,,,,,,,,,,,,,
195,0,,html-keyboard-response,195,706386,0.0-7.6-3.6,ww3wizfw8lj,2022-09-19 17:33:41.238,57843b986475d400015a8e45,0,14,46,61,40,25,Male,,,"<p style=""font-size:50px"">You win!
+10 points this round!</p>",,,,,,,,,,,,,,,,,,,,,,,,,,,,
196,0,,html-keyboard-response,196,706895,0.0-7.6-4.6,ww3wizfw8lj,2022-09-19 17:33:41.238,57843b986475d400015a8e45,0,14,46,61,40,25,Male,,,,,,1.0,choice,6.0,B,D,black,black,moons,stars,D,B,B,black,stars,2000.700000003,0.0,1.0,1,left,1030.0,6.0,1.0,1.0,,,
197,0,,html-keyboard-response,197,708771,0.0-7.7-0.7,ww3wizfw8lj,2022-09-19 17:33:41.238,57843b986475d400015a8e45,0,14,46,61,40,25,Male,1875.8999999985,,"
  <table>
  <tr height=300>
    <td width=300 height=300><img src=""static/images/cards/stack_of_red_stars.svg"" width=""175px"" height=""250px""></img></td>
    <td width=300 height=300><img src=""static/images/cards/stack_of_red_moons.svg"" width=""175px"" height=""250px""></img></td>
  </tr>
  <tr height=200>
    <td width=300><img src=""static/images/keys/w.svg"" width=""35%"" height=""75%""></img></td>
    <td width=300><img src=""static/images/keys/o.svg"" width=""35%"" height=""75%""></img></td>
  </tr>
</table>
  ",79.0,1.0,,,,,,,,,,,,,,,,,,,,,,,,,,
198,0,,html-keyboard-response,198,710419,0.0-7.7-1.7,ww3wizfw8lj,2022-09-19 17:33:41.238,57843b986475d400015a8e45,0,14,46,61,40,25,Male,1136.6999999993,,"
  <table>
  <tr height=300>
    <td width=300 height=300><img src=""static/images/cards/back_of_red_moons.svg"" width=""175px"" height=""250px""></img></td>
    <td width=300 height=300><img src=""static/images/cards/back_of_red_moons.svg"" width=""175px"" height=""250px""></img></td>
  </tr>
  <tr height=200>
    <td width=300><img src=""static/images/keys/z.svg"" width=""35%"" height=""75%""></img></td>
    <td width=300><img src=""static/images/keys/m.svg"" width=""35%"" height=""75%""></img></td>
  </tr>
</table>
  ",77.0,1.0,,,,,,,,,,,,,,,,,,,,,,,,,,
199,0,,html-keyboard-response,199,711932,0.0-7.7-2.7,ww3wizfw8lj,2022-09-19 17:33:41.238,57843b986475d400015a8e45,0,14,46,61,40,25,Male,,,"
  <table>
  <tr height=300>
    <td width=300 height=300><img src=""static/images/cards/back_of_red_moons.svg"" width=""175px"" height=""250px""></img></td>
    <td width=300 height=300><img src=""static/images/cards/4_of_red_moons.svg"" width=""175px"" height=""250px""></img></td>
  </tr>
  <tr height=200>
    <td width=300><img src=""static/images/keys/z.svg"" width=""35%"" height=""75%""></img></td>
    <td width=300><img src=""static/images/keys/m.svg"" width=""35%"" height=""75%""></img></td>
  </tr>
</table>
  ",,,,,,,,,,,,,,,,,,,,,,,,,,,,
200,0,,html-keyboard-response,200,713442,0.0-7.7-3.7,ww3wizfw8lj,2022-09-19 17:33:41.238,57843b986475d400015a8e45,0,14,46,61,40,25,Male,,,"<p style=""font-size:50px"">You win!
+10 points this round!</p>",,,,,,,,,,,,,,,,,,,,,,,,,,,,
201,0,,html-keyboard-response,201,713949,0.0-7.7-4.7,ww3wizfw8lj,2022-09-19 17:33:41.238,57843b986475d400015a8e45,0,14,46,61,40,25,Male,,,,,,1.0,choice,7.0,A,C,red,red,stars,moons,A,C,C,red,moons,1875.8999999985,1.0,0.0,NA,right,1136.6999999993,4.0,0.0,1.0,,,
202,0,,html-keyboard-response,202,715795,0.0-7.8-0.8,ww3wizfw8lj,2022-09-19 17:33:41.238,57843b986475d400015a8e45,0,14,46,61,40,25,Male,1845.1999999993,,"
  <table>
  <tr height=300>
    <td width=300 height=300><img src=""static/images/cards/stack_of_red_moons.svg"" width=""175px"" height=""250px""></img></td>
    <td width=300 height=300><img src=""static/images/cards/stack_of_black_moons.svg"" width=""175px"" height=""250px""></img></td>
  </tr>
  <tr height=200>
    <td width=300><img src=""static/images/keys/w.svg"" width=""35%"" height=""75%""></img></td>
    <td width=300><img src=""static/images/keys/o.svg"" width=""35%"" height=""75%""></img></td>
  </tr>
</table>
  ",87.0,1.0,,,,,,,,,,,,,,,,,,,,,,,,,,
203,0,,html-keyboard-response,203,717347,0.0-7.8-1.8,ww3wizfw8lj,2022-09-19 17:33:41.238,57843b986475d400015a8e45,0,14,46,61,40,25,Male,1047.8999999985,,"
  <table>
  <tr height=300>
    <td width=300 height=300><img src=""static/images/cards/back_of_red_moons.svg"" width=""175px"" height=""250px""></img></td>
    <td width=300 height=300><img src=""static/images/cards/back_of_red_moons.svg"" width=""175px"" height=""250px""></img></td>
  </tr>
  <tr height=200>
    <td width=300><img src=""static/images/keys/z.svg"" width=""35%"" height=""75%""></img></td>
    <td width=300><img src=""static/images/keys/m.svg"" width=""35%"" height=""75%""></img></td>
  </tr>
</table>
  ",90.0,1.0,,,,,,,,,,,,,,,,,,,,,,,,,,
204,0,,html-keyboard-response,204,718860,0.0-7.8-2.8,ww3wizfw8lj,2022-09-19 17:33:41.238,57843b986475d400015a8e45,0,14,46,61,40,25,Male,,,"
  <table>
  <tr height=300>
    <td width=300 height=300><img src=""static/images/cards/3_of_red_moons.svg"" width=""175px"" height=""250px""></img></td>
    <td width=300 height=300><img src=""static/images/cards/back_of_red_moons.svg"" width=""175px"" height=""250px""></img></td>
  </tr>
  <tr height=200>
    <td width=300><img src=""static/images/keys/z.svg"" width=""35%"" height=""75%""></img></td>
    <td width=300><img src=""static/images/keys/m.svg"" width=""35%"" height=""75%""></img></td>
  </tr>
</table>
  ",,,,,,,,,,,,,,,,,,,,,,,,,,,,
205,0,,html-keyboard-response,205,720369,0.0-7.8-3.8,ww3wizfw8lj,2022-09-19 17:33:41.238,57843b986475d400015a8e45,0,14,46,61,40,25,Male,,,"<p style=""font-size:50px"">You win!
+10 points this round!</p>",,,,,,,,,,,,,,,,,,,,,,,,,,,,
206,0,,html-keyboard-response,206,720880,0.0-7.8-4.8,ww3wizfw8lj,2022-09-19 17:33:41.238,57843b986475d400015a8e45,0,14,46,61,40,25,Male,,,,,,1.0,choice,8.0,C,D,red,black,moons,moons,C,D,C,red,moons,1845.1999999993,1.0,0.0,NA,left,1047.8999999985,3.0,0.0,1.0,,,
207,0,,html-keyboard-response,207,722019,0.0-7.9-0.9,ww3wizfw8lj,2022-09-19 17:33:41.238,57843b986475d400015a8e45,0,14,46,61,40,25,Male,1138.0999999978,,"
  <table>
  <tr height=300>
    <td width=300 height=300><img src=""static/images/cards/stack_of_black_stars.svg"" width=""175px"" height=""250px""></img></td>
    <td width=300 height=300><img src=""static/images/cards/stack_of_red_stars.svg"" width=""175px"" height=""250px""></img></td>
  </tr>
  <tr height=200>
    <td width=300><img src=""static/images/keys/w.svg"" width=""35%"" height=""75%""></img></td>
    <td width=300><img src=""static/images/keys/o.svg"" width=""35%"" height=""75%""></img></td>
  </tr>
</table>
  ",87.0,1.0,,,,,,,,,,,,,,,,,,,,,,,,,,
208,0,,html-keyboard-response,208,723299,0.0-7.9-1.9,ww3wizfw8lj,2022-09-19 17:33:41.238,57843b986475d400015a8e45,0,14,46,61,40,25,Male,770.6999999993,,"
  <table>
  <tr height=300>
    <td width=300 height=300><img src=""static/images/cards/back_of_black_stars.svg"" width=""175px"" height=""250px""></img></td>
    <td width=300 height=300><img src=""static/images/cards/back_of_black_stars.svg"" width=""175px"" height=""250px""></img></td>
  </tr>
  <tr height=200>
    <td width=300></td>
    <td width=300><img src=""static/images/keys/m.svg"" width=""35%"" height=""75%""></img></td>
  </tr>
</table>
  ",77.0,1.0,,,,,,,,,,,,,,,,,,,,,,,,,,
209,0,,html-keyboard-response,209,724801,0.0-7.9-2.9,ww3wizfw8lj,2022-09-19 17:33:41.238,57843b986475d400015a8e45,0,14,46,61,40,25,Male,,,"
  <table>
  <tr height=300>
    <td width=300 height=300><img src=""static/images/cards/back_of_black_stars.svg"" width=""175px"" height=""250px""></img></td>
    <td width=300 height=300><img src=""static/images/cards/3_of_black_stars.svg"" width=""175px"" height=""250px""></img></td>
  </tr>
  <tr height=200>
    <td width=300></td>
    <td width=300><img src=""static/images/keys/m.svg"" width=""35%"" height=""75%""></img></td>
  </tr>
</table>
  ",,,,,,,,,,,,,,,,,,,,,,,,,,,,
210,0,,html-keyboard-response,210,726307,0.0-7.9-3.9,ww3wizfw8lj,2022-09-19 17:33:41.238,57843b986475d400015a8e45,0,14,46,61,40,25,Male,,,"<p style=""font-size:50px"">You Lose!
No points this round.</p>",,,,,,,,,,,,,,,,,,,,,,,,,,,,
211,0,,html-keyboard-response,211,726814,0.0-7.9-4.9,ww3wizfw8lj,2022-09-19 17:33:41.238,57843b986475d400015a8e45,0,14,46,61,40,25,Male,,,,,,1.0,choice,9.0,A,B,black,red,stars,stars,B,A,B,black,stars,1138.0999999978,0.0,1.0,0,right,770.6999999993,3.0,0.0,0.0,,,
212,0,,html-keyboard-response,212,728051,0.0-7.10-0.10,ww3wizfw8lj,2022-09-19 17:33:41.238,57843b986475d400015a8e45,0,14,46,61,40,25,Male,1236.5,,"
  <table>
  <tr height=300>
    <td width=300 height=300><img src=""static/images/cards/stack_of_red_moons.svg"" width=""175px"" height=""250px""></img></td>
    <td width=300 height=300><img src=""static/images/cards/stack_of_black_stars.svg"" width=""175px"" height=""250px""></img></td>
  </tr>
  <tr height=200>
    <td width=300><img src=""static/images/keys/w.svg"" width=""35%"" height=""75%""></img></td>
    <td width=300><img src=""static/images/keys/o.svg"" width=""35%"" height=""75%""></img></td>
  </tr>
</table>
  ",87.0,1.0,,,,,,,,,,,,,,,,,,,,,,,,,,
213,0,,html-keyboard-response,213,730627,0.0-7.10-1.10,ww3wizfw8lj,2022-09-19 17:33:41.238,57843b986475d400015a8e45,0,14,46,61,40,25,Male,2060.1000000015,,"
  <table>
  <tr height=300>
    <td width=300 height=300><img src=""static/images/cards/back_of_red_moons.svg"" width=""175px"" height=""250px""></img></td>
    <td width=300 height=300><img src=""static/images/cards/back_of_red_moons.svg"" width=""175px"" height=""250px""></img></td>
  </tr>
  <tr height=200>
    <td width=300><img src=""static/images/keys/z.svg"" width=""35%"" height=""75%""></img></td>
    <td width=300><img src=""static/images/keys/m.svg"" width=""35%"" height=""75%""></img></td>
  </tr>
</table>
  ",90.0,1.0,,,,,,,,,,,,,,,,,,,,,,,,,,
214,0,,html-keyboard-response,214,732134,0.0-7.10-2.10,ww3wizfw8lj,2022-09-19 17:33:41.238,57843b986475d400015a8e45,0,14,46,61,40,25,Male,,,"
  <table>
  <tr height=300>
    <td width=300 height=300><img src=""static/images/cards/2_of_red_moons.svg"" width=""175px"" height=""250px""></img></td>
    <td width=300 height=300><img src=""static/images/cards/back_of_red_moons.svg"" width=""175px"" height=""250px""></img></td>
  </tr>
  <tr height=200>
    <td width=300><img src=""static/images/keys/z.svg"" width=""35%"" height=""75%""></img></td>
    <td width=300><img src=""static/images/keys/m.svg"" width=""35%"" height=""75%""></img></td>
  </tr>
</table>
  ",,,,,,,,,,,,,,,,,,,,,,,,,,,,
215,0,,html-keyboard-response,215,733644,0.0-7.10-3.10,ww3wizfw8lj,2022-09-19 17:33:41.238,57843b986475d400015a8e45,0,14,46,61,40,25,Male,,,"<p style=""font-size:50px"">You Lose!
No points this round.</p>",,,,,,,,,,,,,,,,,,,,,,,,,,,,
216,0,,html-keyboard-response,216,734150,0.0-7.10-4.10,ww3wizfw8lj,2022-09-19 17:33:41.238,57843b986475d400015a8e45,0,14,46,61,40,25,Male,,,,,,1.0,choice,10.0,B,C,red,black,moons,stars,C,B,C,red,moons,1236.5,1.0,0.0,NA,left,2060.1000000015,2.0,0.0,0.0,,,
217,0,,html-keyboard-response,217,734868,0.0-7.11-0.11,ww3wizfw8lj,2022-09-19 17:33:41.238,57843b986475d400015a8e45,0,14,46,61,40,25,Male,717.1000000015,,"
  <table>
  <tr height=300>
    <td width=300 height=300><img src=""static/images/cards/stack_of_red_moons.svg"" width=""175px"" height=""250px""></img></td>
    <td width=300 height=300><img src=""static/images/cards/stack_of_black_bolts.svg"" width=""175px"" height=""250px""></img></td>
  </tr>
  <tr height=200>
    <td width=300><img src=""static/images/keys/w.svg"" width=""35%"" height=""75%""></img></td>
    <td width=300><img src=""static/images/keys/o.svg"" width=""35%"" height=""75%""></img></td>
  </tr>
</table>
  ",79.0,1.0,,,,,,,,,,,,,,,,,,,,,,,,,,
218,0,,html-keyboard-response,218,735972,0.0-7.11-1.11,ww3wizfw8lj,2022-09-19 17:33:41.238,57843b986475d400015a8e45,0,14,46,61,40,25,Male,600.8000000007,,"
  <table>
  <tr height=300>
    <td width=300 height=300><img src=""static/images/cards/back_of_black_bolts.svg"" width=""175px"" height=""250px""></img></td>
    <td width=300 height=300><img src=""static/images/cards/back_of_black_bolts.svg"" width=""175px"" height=""250px""></img></td>
  </tr>
  <tr height=200>
    <td width=300></td>
    <td width=300><img src=""static/images/keys/m.svg"" width=""35%"" height=""75%""></img></td>
  </tr>
</table>
  ",77.0,1.0,,,,,,,,,,,,,,,,,,,,,,,,,,
219,0,,html-keyboard-response,219,737475,0.0-7.11-2.11,ww3wizfw8lj,2022-09-19 17:33:41.238,57843b986475d400015a8e45,0,14,46,61,40,25,Male,,,"
  <table>
  <tr height=300>
    <td width=300 height=300><img src=""static/images/cards/back_of_black_bolts.svg"" width=""175px"" height=""250px""></img></td>
    <td width=300 height=300><img src=""static/images/cards/8_of_black_bolts.svg"" width=""175px"" height=""250px""></img></td>
  </tr>
  <tr height=200>
    <td width=300></td>
    <td width=300><img src=""static/images/keys/m.svg"" width=""35%"" height=""75%""></img></td>
  </tr>
</table>
  ",,,,,,,,,,,,,,,,,,,,,,,,,,,,
220,0,,html-keyboard-response,220,738981,0.0-7.11-3.11,ww3wizfw8lj,2022-09-19 17:33:41.238,57843b986475d400015a8e45,0,14,46,61,40,25,Male,,,"<p style=""font-size:50px"">You win!
+10 points this round!</p>",,,,,,,,,,,,,,,,,,,,,,,,,,,,
221,0,,html-keyboard-response,221,739502,0.0-7.11-4.11,ww3wizfw8lj,2022-09-19 17:33:41.238,57843b986475d400015a8e45,0,14,46,61,40,25,Male,,,,,,1.0,choice,11.0,C,Xnc,red,black,moons,bolts,C,Xnc,Xnc,black,bolts,717.1000000015,0.0,0.0,0,right,600.8000000007,8.0,1.0,1.0,,,
222,0,,html-keyboard-response,222,740819,0.0-7.12-0.12,ww3wizfw8lj,2022-09-19 17:33:41.238,57843b986475d400015a8e45,0,14,46,61,40,25,Male,1316.6999999993,,"
  <table>
  <tr height=300>
    <td width=300 height=300><img src=""static/images/cards/stack_of_black_moons.svg"" width=""175px"" height=""250px""></img></td>
    <td width=300 height=300><img src=""static/images/cards/stack_of_red_moons.svg"" width=""175px"" height=""250px""></img></td>
  </tr>
  <tr height=200>
    <td width=300><img src=""static/images/keys/w.svg"" width=""35%"" height=""75%""></img></td>
    <td width=300><img src=""static/images/keys/o.svg"" width=""35%"" height=""75%""></img></td>
  </tr>
</table>
  ",79.0,1.0,,,,,,,,,,,,,,,,,,,,,,,,,,
223,0,,html-keyboard-response,223,742051,0.0-7.12-1.12,ww3wizfw8lj,2022-09-19 17:33:41.238,57843b986475d400015a8e45,0,14,46,61,40,25,Male,718.3999999985,,"
  <table>
  <tr height=300>
    <td width=300 height=300><img src=""static/images/cards/back_of_red_moons.svg"" width=""175px"" height=""250px""></img></td>
    <td width=300 height=300><img src=""static/images/cards/back_of_red_moons.svg"" width=""175px"" height=""250px""></img></td>
  </tr>
  <tr height=200>
    <td width=300><img src=""static/images/keys/z.svg"" width=""35%"" height=""75%""></img></td>
    <td width=300><img src=""static/images/keys/m.svg"" width=""35%"" height=""75%""></img></td>
  </tr>
</table>
  ",90.0,1.0,,,,,,,,,,,,,,,,,,,,,,,,,,
224,0,,html-keyboard-response,224,743562,0.0-7.12-2.12,ww3wizfw8lj,2022-09-19 17:33:41.238,57843b986475d400015a8e45,0,14,46,61,40,25,Male,,,"
  <table>
  <tr height=300>
    <td width=300 height=300><img src=""static/images/cards/9_of_red_moons.svg"" width=""175px"" height=""250px""></img></td>
    <td width=300 height=300><img src=""static/images/cards/back_of_red_moons.svg"" width=""175px"" height=""250px""></img></td>
  </tr>
  <tr height=200>
    <td width=300><img src=""static/images/keys/z.svg"" width=""35%"" height=""75%""></img></td>
    <td width=300><img src=""static/images/keys/m.svg"" width=""35%"" height=""75%""></img></td>
  </tr>
</table>
  ",,,,,,,,,,,,,,,,,,,,,,,,,,,,
225,0,,html-keyboard-response,225,745067,0.0-7.12-3.12,ww3wizfw8lj,2022-09-19 17:33:41.238,57843b986475d400015a8e45,0,14,46,61,40,25,Male,,,"<p style=""font-size:50px"">You Lose!
No points this round.</p>",,,,,,,,,,,,,,,,,,,,,,,,,,,,
226,0,,html-keyboard-response,226,745576,0.0-7.12-4.12,ww3wizfw8lj,2022-09-19 17:33:41.238,57843b986475d400015a8e45,0,14,46,61,40,25,Male,,,,,,1.0,choice,12.0,C,D,black,red,moons,moons,D,C,C,red,moons,1316.6999999993,1.0,0.0,NA,left,718.3999999985,9.0,1.0,0.0,,,
227,0,,html-keyboard-response,227,746724,0.0-7.13-0.13,ww3wizfw8lj,2022-09-19 17:33:41.238,57843b986475d400015a8e45,0,14,46,61,40,25,Male,1147.1999999993,,"
  <table>
  <tr height=300>
    <td width=300 height=300><img src=""static/images/cards/stack_of_black_stars.svg"" width=""175px"" height=""250px""></img></td>
    <td width=300 height=300><img src=""static/images/cards/stack_of_red_moons.svg"" width=""175px"" height=""250px""></img></td>
  </tr>
  <tr height=200>
    <td width=300><img src=""static/images/keys/w.svg"" width=""35%"" height=""75%""></img></td>
    <td width=300><img src=""static/images/keys/o.svg"" width=""35%"" height=""75%""></img></td>
  </tr>
</table>
  ",87.0,1.0,,,,,,,,,,,,,,,,,,,,,,,,,,
228,0,,html-keyboard-response,228,748228,0.0-7.13-1.13,ww3wizfw8lj,2022-09-19 17:33:41.238,57843b986475d400015a8e45,0,14,46,61,40,25,Male,989.0,,"
  <table>
  <tr height=300>
    <td width=300 height=300><img src=""static/images/cards/back_of_black_stars.svg"" width=""175px"" height=""250px""></img></td>
    <td width=300 height=300><img src=""static/images/cards/back_of_black_stars.svg"" width=""175px"" height=""250px""></img></td>
  </tr>
  <tr height=200>
    <td width=300></td>
    <td width=300><img src=""static/images/keys/m.svg"" width=""35%"" height=""75%""></img></td>
  </tr>
</table>
  ",77.0,1.0,,,,,,,,,,,,,,,,,,,,,,,,,,
229,0,,html-keyboard-response,229,749729,0.0-7.13-2.13,ww3wizfw8lj,2022-09-19 17:33:41.238,57843b986475d400015a8e45,0,14,46,61,40,25,Male,,,"
  <table>
  <tr height=300>
    <td width=300 height=300><img src=""static/images/cards/back_of_black_stars.svg"" width=""175px"" height=""250px""></img></td>
    <td width=300 height=300><img src=""static/images/cards/7_of_black_stars.svg"" width=""175px"" height=""250px""></img></td>
  </tr>
  <tr height=200>
    <td width=300></td>
    <td width=300><img src=""static/images/keys/m.svg"" width=""35%"" height=""75%""></img></td>
  </tr>
</table>
  ",,,,,,,,,,,,,,,,,,,,,,,,,,,,
230,0,,html-keyboard-response,230,751236,0.0-7.13-3.13,ww3wizfw8lj,2022-09-19 17:33:41.238,57843b986475d400015a8e45,0,14,46,61,40,25,Male,,,"<p style=""font-size:50px"">You win!
+10 points this round!</p>",,,,,,,,,,,,,,,,,,,,,,,,,,,,
231,0,,html-keyboard-response,231,751744,0.0-7.13-4.13,ww3wizfw8lj,2022-09-19 17:33:41.238,57843b986475d400015a8e45,0,14,46,61,40,25,Male,,,,,,1.0,choice,13.0,B,C,black,red,stars,moons,B,C,B,black,stars,1147.1999999993,0.0,1.0,0,right,989.0,7.0,1.0,1.0,,,
232,0,,html-keyboard-response,232,752660,0.0-7.14-0.14,ww3wizfw8lj,2022-09-19 17:33:41.238,57843b986475d400015a8e45,0,14,46,61,40,25,Male,915.6000000015,,"
  <table>
  <tr height=300>
    <td width=300 height=300><img src=""static/images/cards/stack_of_black_stars.svg"" width=""175px"" height=""250px""></img></td>
    <td width=300 height=300><img src=""static/images/cards/stack_of_red_stars.svg"" width=""175px"" height=""250px""></img></td>
  </tr>
  <tr height=200>
    <td width=300><img src=""static/images/keys/w.svg"" width=""35%"" height=""75%""></img></td>
    <td width=300><img src=""static/images/keys/o.svg"" width=""35%"" height=""75%""></img></td>
  </tr>
</table>
  ",79.0,1.0,,,,,,,,,,,,,,,,,,,,,,,,,,
233,0,,html-keyboard-response,233,755156,0.0-7.14-1.14,ww3wizfw8lj,2022-09-19 17:33:41.238,57843b986475d400015a8e45,0,14,46,61,40,25,Male,1990.6999999993,,"
  <table>
  <tr height=300>
    <td width=300 height=300><img src=""static/images/cards/back_of_red_stars.svg"" width=""175px"" height=""250px""></img></td>
    <td width=300 height=300><img src=""static/images/cards/back_of_red_stars.svg"" width=""175px"" height=""250px""></img></td>
  </tr>
  <tr height=200>
    <td width=300><img src=""static/images/keys/z.svg"" width=""35%"" height=""75%""></img></td>
    <td width=300><img src=""static/images/keys/m.svg"" width=""35%"" height=""75%""></img></td>
  </tr>
</table>
  ",77.0,1.0,,,,,,,,,,,,,,,,,,,,,,,,,,
234,0,,html-keyboard-response,234,756667,0.0-7.14-2.14,ww3wizfw8lj,2022-09-19 17:33:41.238,57843b986475d400015a8e45,0,14,46,61,40,25,Male,,,"
  <table>
  <tr height=300>
    <td width=300 height=300><img src=""static/images/cards/back_of_red_stars.svg"" width=""175px"" height=""250px""></img></td>
    <td width=300 height=300><img src=""static/images/cards/9_of_red_stars.svg"" width=""175px"" height=""250px""></img></td>
  </tr>
  <tr height=200>
    <td width=300><img src=""static/images/keys/z.svg"" width=""35%"" height=""75%""></img></td>
    <td width=300><img src=""static/images/keys/m.svg"" width=""35%"" height=""75%""></img></td>
  </tr>
</table>
  ",,,,,,,,,,,,,,,,,,,,,,,,,,,,
235,0,,html-keyboard-response,235,758177,0.0-7.14-3.14,ww3wizfw8lj,2022-09-19 17:33:41.238,57843b986475d400015a8e45,0,14,46,61,40,25,Male,,,"<p style=""font-size:50px"">You win!
+10 points this round!</p>",,,,,,,,,,,,,,,,,,,,,,,,,,,,
236,0,,html-keyboard-response,236,758697,0.0-7.14-4.14,ww3wizfw8lj,2022-09-19 17:33:41.238,57843b986475d400015a8e45,0,14,46,61,40,25,Male,,,,,,1.0,choice,14.0,A,B,black,red,stars,stars,B,A,A,red,stars,915.6000000015,1.0,1.0,NA,right,1990.6999999993,9.0,1.0,1.0,,,
237,0,,html-keyboard-response,237,759892,0.0-7.15-0.15,ww3wizfw8lj,2022-09-19 17:33:41.238,57843b986475d400015a8e45,0,14,46,61,40,25,Male,1194.0,,"
  <table>
  <tr height=300>
    <td width=300 height=300><img src=""static/images/cards/stack_of_red_moons.svg"" width=""175px"" height=""250px""></img></td>
    <td width=300 height=300><img src=""static/images/cards/stack_of_black_stars.svg"" width=""175px"" height=""250px""></img></td>
  </tr>
  <tr height=200>
    <td width=300><img src=""static/images/keys/w.svg"" width=""35%"" height=""75%""></img></td>
    <td width=300><img src=""static/images/keys/o.svg"" width=""35%"" height=""75%""></img></td>
  </tr>
</table>
  ",79.0,1.0,,,,,,,,,,,,,,,,,,,,,,,,,,
238,0,,html-keyboard-response,238,761124,0.0-7.15-1.15,ww3wizfw8lj,2022-09-19 17:33:41.238,57843b986475d400015a8e45,0,14,46,61,40,25,Male,719.0,,"
  <table>
  <tr height=300>
    <td width=300 height=300><img src=""static/images/cards/back_of_black_stars.svg"" width=""175px"" height=""250px""></img></td>
    <td width=300 height=300><img src=""static/images/cards/back_of_black_stars.svg"" width=""175px"" height=""250px""></img></td>
  </tr>
  <tr height=200>
    <td width=300><img src=""static/images/keys/z.svg"" width=""35%"" height=""75%""></img></td>
    <td width=300></td>
  </tr>
</table>
  ",90.0,1.0,,,,,,,,,,,,,,,,,,,,,,,,,,
239,0,,html-keyboard-response,239,762634,0.0-7.15-2.15,ww3wizfw8lj,2022-09-19 17:33:41.238,57843b986475d400015a8e45,0,14,46,61,40,25,Male,,,"
  <table>
  <tr height=300>
    <td width=300 height=300><img src=""static/images/cards/3_of_black_stars.svg"" width=""175px"" height=""250px""></img></td>
    <td width=300 height=300><img src=""static/images/cards/back_of_black_stars.svg"" width=""175px"" height=""250px""></img></td>
  </tr>
  <tr height=200>
    <td width=300><img src=""static/images/keys/z.svg"" width=""35%"" height=""75%""></img></td>
    <td width=300></td>
  </tr>
</table>
  ",,,,,,,,,,,,,,,,,,,,,,,,,,,,
240,0,,html-keyboard-response,240,764141,0.0-7.15-3.15,ww3wizfw8lj,2022-09-19 17:33:41.238,57843b986475d400015a8e45,0,14,46,61,40,25,Male,,,"<p style=""font-size:50px"">You Lose!
