,index,success,trial_type,trial_index,time_elapsed,internal_node_id,subject,date,prol_id,ctbl,sense_of_control_A,sense_of_control_B,sense_of_control_C,sense_of_control_D,age,gender,rt,url,stimulus,key_press,npress,is_data_trial,phase,trial,deck1,deck2,col1,col2,sym1,sym2,deck_l,deck_r,chosen_deck,chosen_col,chosen_sym,deck_rt,choose_choice,mutual_info,hidden_key,chosen_card,card_rt,player_num,win_card,outcome,mock_rating,response,responses
0,0,1.0,fullscreen,0,3151,0.0-0.0,xyrdm932b3,2022-09-19 17:09:15.709,5cd310705882710018e544b0,0,77,57,49,25,57,Male,,,,,,,,,,,,,,,,,,,,,,,,,,,,,,,
1,0,,external-html,1,8872,0.0-1.0,xyrdm932b3,2022-09-19 17:09:15.709,5cd310705882710018e544b0,0,77,57,49,25,57,Male,5600.6999998093,static/js/sub/consent.html,,,,,,,,,,,,,,,,,,,,,,,,,,,,,
2,0,,call-function,2,8873,0.0-2.0,xyrdm932b3,2022-09-19 17:09:15.709,5cd310705882710018e544b0,0,77,57,49,25,57,Male,,,,,,,,,,,,,,,,,,,,,,,,,,,,,,,
3,0,,image-keyboard-response,3,15205,0.0-3.0-0.0,xyrdm932b3,2022-09-19 17:09:15.709,5cd310705882710018e544b0,0,77,57,49,25,57,Male,6329.5999999046,,static/images/instructions_CB_0/Slide1.png,39.0,,,,,,,,,,,,,,,,,,,,,,,,,,,
4,0,,image-keyboard-response,4,26348,0.0-3.1-0.1,xyrdm932b3,2022-09-19 17:09:15.709,5cd310705882710018e544b0,0,77,57,49,25,57,Male,11138.1999998093,,static/images/instructions_CB_0/Slide2.png,39.0,,,,,,,,,,,,,,,,,,,,,,,,,,,
5,0,,image-keyboard-response,5,31219,0.0-3.2-0.2,xyrdm932b3,2022-09-19 17:09:15.709,5cd310705882710018e544b0,0,77,57,49,25,57,Male,4867.5999999046,,static/images/instructions_CB_0/Slide3.png,39.0,,,,,,,,,,,,,,,,,,,,,,,,,,,
6,0,,image-keyboard-response,6,38715,0.0-3.3-0.3,xyrdm932b3,2022-09-19 17:09:15.709,5cd310705882710018e544b0,0,77,57,49,25,57,Male,7493.5,,static/images/instructions_CB_0/Slide4.png,39.0,,,,,,,,,,,,,,,,,,,,,,,,,,,
7,0,,image-keyboard-response,7,44595,0.0-3.4-0.4,xyrdm932b3,2022-09-19 17:09:15.709,5cd310705882710018e544b0,0,77,57,49,25,57,Male,5876.9000000954,,static/images/instructions_CB_0/Slide5.png,39.0,,,,,,,,,,,,,,,,,,,,,,,,,,,
8,0,,image-keyboard-response,8,46498,0.0-3.5-0.5,xyrdm932b3,2022-09-19 17:09:15.709,5cd310705882710018e544b0,0,77,57,49,25,57,Male,1901.3000001907,,static/images/instructions_CB_0/Slide6.png,37.0,,,,,,,,,,,,,,,,,,,,,,,,,,,
9,0,,image-keyboard-response,9,48354,0.0-3.6-0.6,xyrdm932b3,2022-09-19 17:09:15.709,5cd310705882710018e544b0,0,77,57,49,25,57,Male,1853.2000002861,,static/images/instructions_CB_0/Slide5.png,39.0,,,,,,,,,,,,,,,,,,,,,,,,,,,
10,0,,image-keyboard-response,10,52571,0.0-3.7-0.7,xyrdm932b3,2022-09-19 17:09:15.709,5cd310705882710018e544b0,0,77,57,49,25,57,Male,4214.8000001907,,static/images/instructions_CB_0/Slide6.png,39.0,,,,,,,,,,,,,,,,,,,,,,,,,,,
11,0,,image-keyboard-response,11,57906,0.0-3.8-0.8,xyrdm932b3,2022-09-19 17:09:15.709,5cd310705882710018e544b0,0,77,57,49,25,57,Male,5332.3000001907,,static/images/instructions_CB_0/Slide7.png,39.0,,,,,,,,,,,,,,,,,,,,,,,,,,,
12,0,,image-keyboard-response,12,75323,0.0-3.9-0.9,xyrdm932b3,2022-09-19 17:09:15.709,5cd310705882710018e544b0,0,77,57,49,25,57,Male,17414.4000000954,,static/images/instructions_CB_0/Slide8.png,39.0,,,,,,,,,,,,,,,,,,,,,,,,,,,
13,0,,image-keyboard-response,13,81194,0.0-3.10-0.10,xyrdm932b3,2022-09-19 17:09:15.709,5cd310705882710018e544b0,0,77,57,49,25,57,Male,5868.8000001907,,static/images/instructions_CB_0/Slide9.png,39.0,,,,,,,,,,,,,,,,,,,,,,,,,,,
14,0,,image-keyboard-response,14,91131,0.0-3.11-0.11,xyrdm932b3,2022-09-19 17:09:15.709,5cd310705882710018e544b0,0,77,57,49,25,57,Male,9934.5,,static/images/instructions_CB_0/Slide10.png,39.0,,,,,,,,,,,,,,,,,,,,,,,,,,,
15,0,,image-keyboard-response,15,97626,0.0-3.12-0.12,xyrdm932b3,2022-09-19 17:09:15.709,5cd310705882710018e544b0,0,77,57,49,25,57,Male,6492.9000000954,,static/images/instructions_CB_0/Slide11.png,39.0,,,,,,,,,,,,,,,,,,,,,,,,,,,
16,0,,image-keyboard-response,16,117067,0.0-3.13-0.13,xyrdm932b3,2022-09-19 17:09:15.709,5cd310705882710018e544b0,0,77,57,49,25,57,Male,19438.3000001907,,static/images/instructions_CB_0/Slide12.png,39.0,,,,,,,,,,,,,,,,,,,,,,,,,,,
17,0,,image-keyboard-response,17,122762,0.0-3.14-0.14,xyrdm932b3,2022-09-19 17:09:15.709,5cd310705882710018e544b0,0,77,57,49,25,57,Male,5692.8000001907,,static/images/instructions_CB_0/Slide13.png,39.0,,,,,,,,,,,,,,,,,,,,,,,,,,,
18,0,,image-keyboard-response,18,132907,0.0-3.15-0.15,xyrdm932b3,2022-09-19 17:09:15.709,5cd310705882710018e544b0,0,77,57,49,25,57,Male,10142.5,,static/images/instructions_CB_0/Slide14.png,39.0,,,,,,,,,,,,,,,,,,,,,,,,,,,
19,0,,image-keyboard-response,19,140370,0.0-3.16-0.16,xyrdm932b3,2022-09-19 17:09:15.709,5cd310705882710018e544b0,0,77,57,49,25,57,Male,7460.8999996185,,static/images/instructions_CB_0/Slide15.png,39.0,,,,,,,,,,,,,,,,,,,,,,,,,,,
20,0,,image-keyboard-response,20,149938,0.0-3.17-0.17,xyrdm932b3,2022-09-19 17:09:15.709,5cd310705882710018e544b0,0,77,57,49,25,57,Male,9566.0999999046,,static/images/instructions_CB_0/Slide16.png,39.0,,,,,,,,,,,,,,,,,,,,,,,,,,,
21,0,,image-keyboard-response,21,158761,0.0-3.18-0.18,xyrdm932b3,2022-09-19 17:09:15.709,5cd310705882710018e544b0,0,77,57,49,25,57,Male,8821.2000002861,,static/images/instructions_CB_0/Slide17.png,39.0,,,,,,,,,,,,,,,,,,,,,,,,,,,
22,0,,image-keyboard-response,22,182250,0.0-3.19-0.19,xyrdm932b3,2022-09-19 17:09:15.709,5cd310705882710018e544b0,0,77,57,49,25,57,Male,23486.0,,static/images/instructions_CB_0/Slide18.png,39.0,,,,,,,,,,,,,,,,,,,,,,,,,,,
23,0,,image-keyboard-response,23,189729,0.0-3.20-0.20,xyrdm932b3,2022-09-19 17:09:15.709,5cd310705882710018e544b0,0,77,57,49,25,57,Male,7477.0,,static/images/instructions_CB_0/Slide19.png,39.0,,,,,,,,,,,,,,,,,,,,,,,,,,,
24,0,,html-keyboard-response,24,191245,0.0-4.0-0.0,xyrdm932b3,2022-09-19 17:09:15.709,5cd310705882710018e544b0,0,77,57,49,25,57,Male,,,"<img src=""static/images/cards/stack_of_red_stars.svg"" width=""175px"" height=""250px""></img>",,,,,,,,,,,,,,,,,,,,,,,,,,,,
25,0,,html-keyboard-response,25,193971,0.0-4.0-1.0,xyrdm932b3,2022-09-19 17:09:15.709,5cd310705882710018e544b0,0,77,57,49,25,57,Male,2216.0,,"
  <table>
  <tr height=300>
    <td width=300 height=300><img src=""static/images/cards/back_of_red_stars.svg"" width=""175px"" height=""250px""></img></td>
    <td width=300 height=300><img src=""static/images/cards/back_of_red_stars.svg"" width=""175px"" height=""250px""></img></td>
  </tr>
  <tr height=200>
    <td width=300><img src=""static/images/keys/z.svg"" width=""35%"" height=""75%""></img></td>
    <td width=300><img src=""static/images/keys/m.svg"" width=""35%"" height=""75%""></img></td>
  </tr>
</table>
  ",77.0,1.0,,,,,,,,,,,,,,,,,,,,,,,,,,
26,0,,html-keyboard-response,26,195476,0.0-4.0-2.0,xyrdm932b3,2022-09-19 17:09:15.709,5cd310705882710018e544b0,0,77,57,49,25,57,Male,,,"
  <table>
  <tr height=300>
    <td width=300 height=300><img src=""static/images/cards/back_of_red_stars.svg"" width=""175px"" height=""250px""></img></td>
    <td width=300 height=300><img src=""static/images/cards/6_of_red_stars.svg"" width=""175px"" height=""250px""></img></td>
  </tr>
  <tr height=200>
    <td width=300><img src=""static/images/keys/z.svg"" width=""35%"" height=""75%""></img></td>
    <td width=300><img src=""static/images/keys/m.svg"" width=""35%"" height=""75%""></img></td>
  </tr>
</table>
  ",,,,,,,,,,,,,,,,,,,,,,,,,,,,
27,0,,html-keyboard-response,27,196997,0.0-4.0-3.0,xyrdm932b3,2022-09-19 17:09:15.709,5cd310705882710018e544b0,0,77,57,49,25,57,Male,,,"<p style=""font-size:50px"">You win!
+10 points this round!</p>",,,,,,,,,,,,,,,,,,,,,,,,,,,,
28,0,,html-keyboard-response,28,197514,0.0-4.0-4.0,xyrdm932b3,2022-09-19 17:09:15.709,5cd310705882710018e544b0,0,77,57,49,25,57,Male,,,,,,1.0,learning,0.0,A,,red,,stars,,,,A,red,stars,,1.0,1.0,NA,right,2216.0,6.0,1.0,1.0,,,
29,0,,html-keyboard-response,29,199017,0.0-4.1-0.1,xyrdm932b3,2022-09-19 17:09:15.709,5cd310705882710018e544b0,0,77,57,49,25,57,Male,,,"<img src=""static/images/cards/stack_of_black_stars.svg"" width=""175px"" height=""250px""></img>",,,,,,,,,,,,,,,,,,,,,,,,,,,,
30,0,,html-keyboard-response,30,201218,0.0-4.1-1.1,xyrdm932b3,2022-09-19 17:09:15.709,5cd310705882710018e544b0,0,77,57,49,25,57,Male,1684.9000000954,,"
  <table>
  <tr height=300>
    <td width=300 height=300><img src=""static/images/cards/back_of_black_stars.svg"" width=""175px"" height=""250px""></img></td>
    <td width=300 height=300><img src=""static/images/cards/back_of_black_stars.svg"" width=""175px"" height=""250px""></img></td>
  </tr>
  <tr height=200>
    <td width=300></td>
    <td width=300><img src=""static/images/keys/m.svg"" width=""35%"" height=""75%""></img></td>
  </tr>
</table>
  ",77.0,1.0,,,,,,,,,,,,,,,,,,,,,,,,,,
31,0,,html-keyboard-response,31,202730,0.0-4.1-2.1,xyrdm932b3,2022-09-19 17:09:15.709,5cd310705882710018e544b0,0,77,57,49,25,57,Male,,,"
  <table>
  <tr height=300>
    <td width=300 height=300><img src=""static/images/cards/back_of_black_stars.svg"" width=""175px"" height=""250px""></img></td>
    <td width=300 height=300><img src=""static/images/cards/8_of_black_stars.svg"" width=""175px"" height=""250px""></img></td>
  </tr>
  <tr height=200>
    <td width=300></td>
    <td width=300><img src=""static/images/keys/m.svg"" width=""35%"" height=""75%""></img></td>
  </tr>
</table>
  ",,,,,,,,,,,,,,,,,,,,,,,,,,,,
32,0,,html-keyboard-response,32,204245,0.0-4.1-3.1,xyrdm932b3,2022-09-19 17:09:15.709,5cd310705882710018e544b0,0,77,57,49,25,57,Male,,,"<p style=""font-size:50px"">You win!
+10 points this round!</p>",,,,,,,,,,,,,,,,,,,,,,,,,,,,
33,0,,html-keyboard-response,33,204759,0.0-4.1-4.1,xyrdm932b3,2022-09-19 17:09:15.709,5cd310705882710018e544b0,0,77,57,49,25,57,Male,,,,,,1.0,learning,1.0,B,,black,,stars,,,,B,black,stars,,0.0,1.0,0,right,1684.9000000954,8.0,1.0,1.0,,,
34,0,,html-keyboard-response,34,206265,0.0-4.2-0.2,xyrdm932b3,2022-09-19 17:09:15.709,5cd310705882710018e544b0,0,77,57,49,25,57,Male,,,"<img src=""static/images/cards/stack_of_red_moons.svg"" width=""175px"" height=""250px""></img>",,,,,,,,,,,,,,,,,,,,,,,,,,,,
35,0,,html-keyboard-response,35,208274,0.0-4.2-1.2,xyrdm932b3,2022-09-19 17:09:15.709,5cd310705882710018e544b0,0,77,57,49,25,57,Male,1495.4000000954,,"
  <table>
  <tr height=300>
    <td width=300 height=300><img src=""static/images/cards/back_of_red_moons.svg"" width=""175px"" height=""250px""></img></td>
    <td width=300 height=300><img src=""static/images/cards/back_of_red_moons.svg"" width=""175px"" height=""250px""></img></td>
  </tr>
  <tr height=200>
    <td width=300><img src=""static/images/keys/z.svg"" width=""35%"" height=""75%""></img></td>
    <td width=300><img src=""static/images/keys/m.svg"" width=""35%"" height=""75%""></img></td>
  </tr>
</table>
  ",77.0,1.0,,,,,,,,,,,,,,,,,,,,,,,,,,
36,0,,html-keyboard-response,36,209785,0.0-4.2-2.2,xyrdm932b3,2022-09-19 17:09:15.709,5cd310705882710018e544b0,0,77,57,49,25,57,Male,,,"
  <table>
  <tr height=300>
    <td width=300 height=300><img src=""static/images/cards/back_of_red_moons.svg"" width=""175px"" height=""250px""></img></td>
    <td width=300 height=300><img src=""static/images/cards/7_of_red_moons.svg"" width=""175px"" height=""250px""></img></td>
  </tr>
  <tr height=200>
    <td width=300><img src=""static/images/keys/z.svg"" width=""35%"" height=""75%""></img></td>
    <td width=300><img src=""static/images/keys/m.svg"" width=""35%"" height=""75%""></img></td>
  </tr>
</table>
  ",,,,,,,,,,,,,,,,,,,,,,,,,,,,
37,0,,html-keyboard-response,37,211310,0.0-4.2-3.2,xyrdm932b3,2022-09-19 17:09:15.709,5cd310705882710018e544b0,0,77,57,49,25,57,Male,,,"<p style=""font-size:50px"">You win!
+10 points this round!</p>",,,,,,,,,,,,,,,,,,,,,,,,,,,,
38,0,,html-keyboard-response,38,211821,0.0-4.2-4.2,xyrdm932b3,2022-09-19 17:09:15.709,5cd310705882710018e544b0,0,77,57,49,25,57,Male,,,,,,1.0,learning,2.0,C,,red,,moons,,,,C,red,moons,,1.0,0.0,NA,right,1495.4000000954,7.0,1.0,1.0,,,
39,0,,html-keyboard-response,39,213323,0.0-4.3-0.3,xyrdm932b3,2022-09-19 17:09:15.709,5cd310705882710018e544b0,0,77,57,49,25,57,Male,,,"<img src=""static/images/cards/stack_of_black_moons.svg"" width=""175px"" height=""250px""></img>",,,,,,,,,,,,,,,,,,,,,,,,,,,,
40,0,,html-keyboard-response,40,214817,0.0-4.3-1.3,xyrdm932b3,2022-09-19 17:09:15.709,5cd310705882710018e544b0,0,77,57,49,25,57,Male,988.6999998093,,"
  <table>
  <tr height=300>
    <td width=300 height=300><img src=""static/images/cards/back_of_black_moons.svg"" width=""175px"" height=""250px""></img></td>
    <td width=300 height=300><img src=""static/images/cards/back_of_black_moons.svg"" width=""175px"" height=""250px""></img></td>
  </tr>
  <tr height=200>
    <td width=300><img src=""static/images/keys/z.svg"" width=""35%"" height=""75%""></img></td>
    <td width=300></td>
  </tr>
</table>
  ",90.0,1.0,,,,,,,,,,,,,,,,,,,,,,,,,,
41,0,,html-keyboard-response,41,216326,0.0-4.3-2.3,xyrdm932b3,2022-09-19 17:09:15.709,5cd310705882710018e544b0,0,77,57,49,25,57,Male,,,"
  <table>
  <tr height=300>
    <td width=300 height=300><img src=""static/images/cards/3_of_black_moons.svg"" width=""175px"" height=""250px""></img></td>
    <td width=300 height=300><img src=""static/images/cards/back_of_black_moons.svg"" width=""175px"" height=""250px""></img></td>
  </tr>
  <tr height=200>
    <td width=300><img src=""static/images/keys/z.svg"" width=""35%"" height=""75%""></img></td>
    <td width=300></td>
  </tr>
</table>
  ",,,,,,,,,,,,,,,,,,,,,,,,,,,,
42,0,,html-keyboard-response,42,217850,0.0-4.3-3.3,xyrdm932b3,2022-09-19 17:09:15.709,5cd310705882710018e544b0,0,77,57,49,25,57,Male,,,"<p style=""font-size:50px"">You Lose!
No points this round.</p>",,,,,,,,,,,,,,,,,,,,,,,,,,,,
43,0,,html-keyboard-response,43,218360,0.0-4.3-4.3,xyrdm932b3,2022-09-19 17:09:15.709,5cd310705882710018e544b0,0,77,57,49,25,57,Male,,,,,,1.0,learning,3.0,D,,black,,moons,,,,D,black,moons,,0.0,0.0,1,left,988.6999998093,3.0,0.0,0.0,,,
44,0,,html-keyboard-response,44,219874,0.0-4.4-0.4,xyrdm932b3,2022-09-19 17:09:15.709,5cd310705882710018e544b0,0,77,57,49,25,57,Male,,,"<img src=""static/images/cards/stack_of_red_bolts.svg"" width=""175px"" height=""250px""></img>",,,,,,,,,,,,,,,,,,,,,,,,,,,,
45,0,,html-keyboard-response,45,221586,0.0-4.4-1.4,xyrdm932b3,2022-09-19 17:09:15.709,5cd310705882710018e544b0,0,77,57,49,25,57,Male,1206.9000000954,,"
  <table>
  <tr height=300>
    <td width=300 height=300><img src=""static/images/cards/back_of_red_bolts.svg"" width=""175px"" height=""250px""></img></td>
    <td width=300 height=300><img src=""static/images/cards/back_of_red_bolts.svg"" width=""175px"" height=""250px""></img></td>
  </tr>
  <tr height=200>
    <td width=300><img src=""static/images/keys/z.svg"" width=""35%"" height=""75%""></img></td>
    <td width=300><img src=""static/images/keys/m.svg"" width=""35%"" height=""75%""></img></td>
  </tr>
</table>
  ",90.0,1.0,,,,,,,,,,,,,,,,,,,,,,,,,,
46,0,,html-keyboard-response,46,223094,0.0-4.4-2.4,xyrdm932b3,2022-09-19 17:09:15.709,5cd310705882710018e544b0,0,77,57,49,25,57,Male,,,"
  <table>
  <tr height=300>
    <td width=300 height=300><img src=""static/images/cards/10_of_red_bolts.svg"" width=""175px"" height=""250px""></img></td>
    <td width=300 height=300><img src=""static/images/cards/back_of_red_bolts.svg"" width=""175px"" height=""250px""></img></td>
  </tr>
  <tr height=200>
    <td width=300><img src=""static/images/keys/z.svg"" width=""35%"" height=""75%""></img></td>
    <td width=300><img src=""static/images/keys/m.svg"" width=""35%"" height=""75%""></img></td>
  </tr>
</table>
  ",,,,,,,,,,,,,,,,,,,,,,,,,,,,
47,0,,html-keyboard-response,47,224603,0.0-4.4-3.4,xyrdm932b3,2022-09-19 17:09:15.709,5cd310705882710018e544b0,0,77,57,49,25,57,Male,,,"<p style=""font-size:50px"">You win!
+10 points this round!</p>",,,,,,,,,,,,,,,,,,,,,,,,,,,,
48,0,,html-keyboard-response,48,225120,0.0-4.4-4.4,xyrdm932b3,2022-09-19 17:09:15.709,5cd310705882710018e544b0,0,77,57,49,25,57,Male,,,,,,1.0,learning,4.0,Xc,,red,,bolts,,,,Xc,red,bolts,,1.0,0.0,NA,left,1206.9000000954,10.0,1.0,1.0,,,
49,0,,html-keyboard-response,49,226623,0.0-4.5-0.5,xyrdm932b3,2022-09-19 17:09:15.709,5cd310705882710018e544b0,0,77,57,49,25,57,Male,,,"<img src=""static/images/cards/stack_of_black_bolts.svg"" width=""175px"" height=""250px""></img>",,,,,,,,,,,,,,,,,,,,,,,,,,,,
50,0,,html-keyboard-response,50,227994,0.0-4.5-1.5,xyrdm932b3,2022-09-19 17:09:15.709,5cd310705882710018e544b0,0,77,57,49,25,57,Male,864.8000001907,,"
  <table>
  <tr height=300>
    <td width=300 height=300><img src=""static/images/cards/back_of_black_bolts.svg"" width=""175px"" height=""250px""></img></td>
    <td width=300 height=300><img src=""static/images/cards/back_of_black_bolts.svg"" width=""175px"" height=""250px""></img></td>
  </tr>
  <tr height=200>
    <td width=300><img src=""static/images/keys/z.svg"" width=""35%"" height=""75%""></img></td>
    <td width=300></td>
  </tr>
</table>
  ",90.0,1.0,,,,,,,,,,,,,,,,,,,,,,,,,,
51,0,,html-keyboard-response,51,229509,0.0-4.5-2.5,xyrdm932b3,2022-09-19 17:09:15.709,5cd310705882710018e544b0,0,77,57,49,25,57,Male,,,"
  <table>
  <tr height=300>
    <td width=300 height=300><img src=""static/images/cards/2_of_black_bolts.svg"" width=""175px"" height=""250px""></img></td>
    <td width=300 height=300><img src=""static/images/cards/back_of_black_bolts.svg"" width=""175px"" height=""250px""></img></td>
  </tr>
  <tr height=200>
    <td width=300><img src=""static/images/keys/z.svg"" width=""35%"" height=""75%""></img></td>
    <td width=300></td>
  </tr>
</table>
  ",,,,,,,,,,,,,,,,,,,,,,,,,,,,
52,0,,html-keyboard-response,52,231023,0.0-4.5-3.5,xyrdm932b3,2022-09-19 17:09:15.709,5cd310705882710018e544b0,0,77,57,49,25,57,Male,,,"<p style=""font-size:50px"">You win!
+10 points this round!</p>",,,,,,,,,,,,,,,,,,,,,,,,,,,,
53,0,,html-keyboard-response,53,231543,0.0-4.5-4.5,xyrdm932b3,2022-09-19 17:09:15.709,5cd310705882710018e544b0,0,77,57,49,25,57,Male,,,,,,1.0,learning,5.0,Xnc,,black,,bolts,,,,Xnc,black,bolts,,0.0,0.0,1,left,864.8000001907,2.0,0.0,1.0,,,
54,0,,html-keyboard-response,54,233047,0.0-4.6-0.6,xyrdm932b3,2022-09-19 17:09:15.709,5cd310705882710018e544b0,0,77,57,49,25,57,Male,,,"<img src=""static/images/cards/stack_of_red_stars.svg"" width=""175px"" height=""250px""></img>",,,,,,,,,,,,,,,,,,,,,,,,,,,,
55,0,,html-keyboard-response,55,234760,0.0-4.6-1.6,xyrdm932b3,2022-09-19 17:09:15.709,5cd310705882710018e544b0,0,77,57,49,25,57,Male,1206.0,,"
  <table>
  <tr height=300>
    <td width=300 height=300><img src=""static/images/cards/back_of_red_stars.svg"" width=""175px"" height=""250px""></img></td>
    <td width=300 height=300><img src=""static/images/cards/back_of_red_stars.svg"" width=""175px"" height=""250px""></img></td>
  </tr>
  <tr height=200>
    <td width=300><img src=""static/images/keys/z.svg"" width=""35%"" height=""75%""></img></td>
    <td width=300><img src=""static/images/keys/m.svg"" width=""35%"" height=""75%""></img></td>
  </tr>
</table>
  ",90.0,1.0,,,,,,,,,,,,,,,,,,,,,,,,,,
56,0,,html-keyboard-response,56,236264,0.0-4.6-2.6,xyrdm932b3,2022-09-19 17:09:15.709,5cd310705882710018e544b0,0,77,57,49,25,57,Male,,,"
  <table>
  <tr height=300>
    <td width=300 height=300><img src=""static/images/cards/3_of_red_stars.svg"" width=""175px"" height=""250px""></img></td>
    <td width=300 height=300><img src=""static/images/cards/back_of_red_stars.svg"" width=""175px"" height=""250px""></img></td>
  </tr>
  <tr height=200>
    <td width=300><img src=""static/images/keys/z.svg"" width=""35%"" height=""75%""></img></td>
    <td width=300><img src=""static/images/keys/m.svg"" width=""35%"" height=""75%""></img></td>
  </tr>
</table>
  ",,,,,,,,,,,,,,,,,,,,,,,,,,,,
57,0,,html-keyboard-response,57,237785,0.0-4.6-3.6,xyrdm932b3,2022-09-19 17:09:15.709,5cd310705882710018e544b0,0,77,57,49,25,57,Male,,,"<p style=""font-size:50px"">You Lose!
No points this round.</p>",,,,,,,,,,,,,,,,,,,,,,,,,,,,
58,0,,html-keyboard-response,58,238304,0.0-4.6-4.6,xyrdm932b3,2022-09-19 17:09:15.709,5cd310705882710018e544b0,0,77,57,49,25,57,Male,,,,,,1.0,learning,6.0,A,,red,,stars,,,,A,red,stars,,1.0,1.0,NA,left,1206.0,3.0,0.0,0.0,,,
59,0,,html-keyboard-response,59,239812,0.0-4.7-0.7,xyrdm932b3,2022-09-19 17:09:15.709,5cd310705882710018e544b0,0,77,57,49,25,57,Male,,,"<img src=""static/images/cards/stack_of_black_stars.svg"" width=""175px"" height=""250px""></img>",,,,,,,,,,,,,,,,,,,,,,,,,,,,
60,0,,html-keyboard-response,60,241105,0.0-4.7-1.7,xyrdm932b3,2022-09-19 17:09:15.709,5cd310705882710018e544b0,0,77,57,49,25,57,Male,781.6999998093,,"
  <table>
  <tr height=300>
    <td width=300 height=300><img src=""static/images/cards/back_of_black_stars.svg"" width=""175px"" height=""250px""></img></td>
    <td width=300 height=300><img src=""static/images/cards/back_of_black_stars.svg"" width=""175px"" height=""250px""></img></td>
  </tr>
  <tr height=200>
    <td width=300></td>
    <td width=300><img src=""static/images/keys/m.svg"" width=""35%"" height=""75%""></img></td>
  </tr>
</table>
  ",77.0,1.0,,,,,,,,,,,,,,,,,,,,,,,,,,
61,0,,html-keyboard-response,61,242620,0.0-4.7-2.7,xyrdm932b3,2022-09-19 17:09:15.709,5cd310705882710018e544b0,0,77,57,49,25,57,Male,,,"
  <table>
  <tr height=300>
    <td width=300 height=300><img src=""static/images/cards/back_of_black_stars.svg"" width=""175px"" height=""250px""></img></td>
    <td width=300 height=300><img src=""static/images/cards/6_of_black_stars.svg"" width=""175px"" height=""250px""></img></td>
  </tr>
  <tr height=200>
    <td width=300></td>
    <td width=300><img src=""static/images/keys/m.svg"" width=""35%"" height=""75%""></img></td>
  </tr>
</table>
  ",,,,,,,,,,,,,,,,,,,,,,,,,,,,
62,0,,html-keyboard-response,62,244137,0.0-4.7-3.7,xyrdm932b3,2022-09-19 17:09:15.709,5cd310705882710018e544b0,0,77,57,49,25,57,Male,,,"<p style=""font-size:50px"">You win!
+10 points this round!</p>",,,,,,,,,,,,,,,,,,,,,,,,,,,,
63,0,,html-keyboard-response,63,244649,0.0-4.7-4.7,xyrdm932b3,2022-09-19 17:09:15.709,5cd310705882710018e544b0,0,77,57,49,25,57,Male,,,,,,1.0,learning,7.0,B,,black,,stars,,,,B,black,stars,,0.0,1.0,0,right,781.6999998093,6.0,1.0,1.0,,,
64,0,,html-keyboard-response,64,246166,0.0-4.8-0.8,xyrdm932b3,2022-09-19 17:09:15.709,5cd310705882710018e544b0,0,77,57,49,25,57,Male,,,"<img src=""static/images/cards/stack_of_red_moons.svg"" width=""175px"" height=""250px""></img>",,,,,,,,,,,,,,,,,,,,,,,,,,,,
65,0,,html-keyboard-response,65,247626,0.0-4.8-1.8,xyrdm932b3,2022-09-19 17:09:15.709,5cd310705882710018e544b0,0,77,57,49,25,57,Male,955.4000000954,,"
  <table>
  <tr height=300>
    <td width=300 height=300><img src=""static/images/cards/back_of_red_moons.svg"" width=""175px"" height=""250px""></img></td>
    <td width=300 height=300><img src=""static/images/cards/back_of_red_moons.svg"" width=""175px"" height=""250px""></img></td>
  </tr>
  <tr height=200>
    <td width=300><img src=""static/images/keys/z.svg"" width=""35%"" height=""75%""></img></td>
    <td width=300><img src=""static/images/keys/m.svg"" width=""35%"" height=""75%""></img></td>
  </tr>
</table>
  ",77.0,1.0,,,,,,,,,,,,,,,,,,,,,,,,,,
66,0,,html-keyboard-response,66,249138,0.0-4.8-2.8,xyrdm932b3,2022-09-19 17:09:15.709,5cd310705882710018e544b0,0,77,57,49,25,57,Male,,,"
  <table>
  <tr height=300>
    <td width=300 height=300><img src=""static/images/cards/back_of_red_moons.svg"" width=""175px"" height=""250px""></img></td>
    <td width=300 height=300><img src=""static/images/cards/7_of_red_moons.svg"" width=""175px"" height=""250px""></img></td>
  </tr>
  <tr height=200>
    <td width=300><img src=""static/images/keys/z.svg"" width=""35%"" height=""75%""></img></td>
    <td width=300><img src=""static/images/keys/m.svg"" width=""35%"" height=""75%""></img></td>
  </tr>
</table>
  ",,,,,,,,,,,,,,,,,,,,,,,,,,,,
67,0,,html-keyboard-response,67,250643,0.0-4.8-3.8,xyrdm932b3,2022-09-19 17:09:15.709,5cd310705882710018e544b0,0,77,57,49,25,57,Male,,,"<p style=""font-size:50px"">You Lose!
No points this round.</p>",,,,,,,,,,,,,,,,,,,,,,,,,,,,
68,0,,html-keyboard-response,68,251157,0.0-4.8-4.8,xyrdm932b3,2022-09-19 17:09:15.709,5cd310705882710018e544b0,0,77,57,49,25,57,Male,,,,,,1.0,learning,8.0,C,,red,,moons,,,,C,red,moons,,1.0,0.0,NA,right,955.4000000954,7.0,1.0,0.0,,,
69,0,,html-keyboard-response,69,252665,0.0-4.9-0.9,xyrdm932b3,2022-09-19 17:09:15.709,5cd310705882710018e544b0,0,77,57,49,25,57,Male,,,"<img src=""static/images/cards/stack_of_black_moons.svg"" width=""175px"" height=""250px""></img>",,,,,,,,,,,,,,,,,,,,,,,,,,,,
70,0,,html-keyboard-response,70,253895,0.0-4.9-1.9,xyrdm932b3,2022-09-19 17:09:15.709,5cd310705882710018e544b0,0,77,57,49,25,57,Male,714.5,,"
  <table>
  <tr height=300>
    <td width=300 height=300><img src=""static/images/cards/back_of_black_moons.svg"" width=""175px"" height=""250px""></img></td>
    <td width=300 height=300><img src=""static/images/cards/back_of_black_moons.svg"" width=""175px"" height=""250px""></img></td>
  </tr>
  <tr height=200>
    <td width=300></td>
    <td width=300><img src=""static/images/keys/m.svg"" width=""35%"" height=""75%""></img></td>
  </tr>
</table>
  ",77.0,1.0,,,,,,,,,,,,,,,,,,,,,,,,,,
71,0,,html-keyboard-response,71,255410,0.0-4.9-2.9,xyrdm932b3,2022-09-19 17:09:15.709,5cd310705882710018e544b0,0,77,57,49,25,57,Male,,,"
  <table>
  <tr height=300>
    <td width=300 height=300><img src=""static/images/cards/back_of_black_moons.svg"" width=""175px"" height=""250px""></img></td>
    <td width=300 height=300><img src=""static/images/cards/8_of_black_moons.svg"" width=""175px"" height=""250px""></img></td>
  </tr>
  <tr height=200>
    <td width=300></td>
    <td width=300><img src=""static/images/keys/m.svg"" width=""35%"" height=""75%""></img></td>
  </tr>
</table>
  ",,,,,,,,,,,,,,,,,,,,,,,,,,,,
72,0,,html-keyboard-response,72,256924,0.0-4.9-3.9,xyrdm932b3,2022-09-19 17:09:15.709,5cd310705882710018e544b0,0,77,57,49,25,57,Male,,,"<p style=""font-size:50px"">You Lose!
No points this round.</p>",,,,,,,,,,,,,,,,,,,,,,,,,,,,
73,0,,html-keyboard-response,73,257439,0.0-4.9-4.9,xyrdm932b3,2022-09-19 17:09:15.709,5cd310705882710018e544b0,0,77,57,49,25,57,Male,,,,,,1.0,learning,9.0,D,,black,,moons,,,,D,black,moons,,0.0,0.0,0,right,714.5,8.0,1.0,0.0,,,
74,0,,html-keyboard-response,74,258955,0.0-4.10-0.10,xyrdm932b3,2022-09-19 17:09:15.709,5cd310705882710018e544b0,0,77,57,49,25,57,Male,,,"<img src=""static/images/cards/stack_of_red_bolts.svg"" width=""175px"" height=""250px""></img>",,,,,,,,,,,,,,,,,,,,,,,,,,,,
75,0,,html-keyboard-response,75,260434,0.0-4.10-1.10,xyrdm932b3,2022-09-19 17:09:15.709,5cd310705882710018e544b0,0,77,57,49,25,57,Male,965.5,,"
  <table>
  <tr height=300>
    <td width=300 height=300><img src=""static/images/cards/back_of_red_bolts.svg"" width=""175px"" height=""250px""></img></td>
    <td width=300 height=300><img src=""static/images/cards/back_of_red_bolts.svg"" width=""175px"" height=""250px""></img></td>
  </tr>
  <tr height=200>
    <td width=300><img src=""static/images/keys/z.svg"" width=""35%"" height=""75%""></img></td>
    <td width=300><img src=""static/images/keys/m.svg"" width=""35%"" height=""75%""></img></td>
  </tr>
</table>
  ",90.0,1.0,,,,,,,,,,,,,,,,,,,,,,,,,,
76,0,,html-keyboard-response,76,261949,0.0-4.10-2.10,xyrdm932b3,2022-09-19 17:09:15.709,5cd310705882710018e544b0,0,77,57,49,25,57,Male,,,"
  <table>
  <tr height=300>
    <td width=300 height=300><img src=""static/images/cards/10_of_red_bolts.svg"" width=""175px"" height=""250px""></img></td>
    <td width=300 height=300><img src=""static/images/cards/back_of_red_bolts.svg"" width=""175px"" height=""250px""></img></td>
  </tr>
  <tr height=200>
    <td width=300><img src=""static/images/keys/z.svg"" width=""35%"" height=""75%""></img></td>
    <td width=300><img src=""static/images/keys/m.svg"" width=""35%"" height=""75%""></img></td>
  </tr>
</table>
  ",,,,,,,,,,,,,,,,,,,,,,,,,,,,
77,0,,html-keyboard-response,77,263472,0.0-4.10-3.10,xyrdm932b3,2022-09-19 17:09:15.709,5cd310705882710018e544b0,0,77,57,49,25,57,Male,,,"<p style=""font-size:50px"">You win!
+10 points this round!</p>",,,,,,,,,,,,,,,,,,,,,,,,,,,,
78,0,,html-keyboard-response,78,263992,0.0-4.10-4.10,xyrdm932b3,2022-09-19 17:09:15.709,5cd310705882710018e544b0,0,77,57,49,25,57,Male,,,,,,1.0,learning,10.0,Xc,,red,,bolts,,,,Xc,red,bolts,,1.0,0.0,NA,left,965.5,10.0,1.0,1.0,,,
79,0,,html-keyboard-response,79,265504,0.0-4.11-0.11,xyrdm932b3,2022-09-19 17:09:15.709,5cd310705882710018e544b0,0,77,57,49,25,57,Male,,,"<img src=""static/images/cards/stack_of_black_bolts.svg"" width=""175px"" height=""250px""></img>",,,,,,,,,,,,,,,,,,,,,,,,,,,,
80,0,,html-keyboard-response,80,266569,0.0-4.11-1.11,xyrdm932b3,2022-09-19 17:09:15.709,5cd310705882710018e544b0,0,77,57,49,25,57,Male,558.7999997139,,"
  <table>
  <tr height=300>
    <td width=300 height=300><img src=""static/images/cards/back_of_black_bolts.svg"" width=""175px"" height=""250px""></img></td>
    <td width=300 height=300><img src=""static/images/cards/back_of_black_bolts.svg"" width=""175px"" height=""250px""></img></td>
  </tr>
  <tr height=200>
    <td width=300><img src=""static/images/keys/z.svg"" width=""35%"" height=""75%""></img></td>
    <td width=300></td>
  </tr>
</table>
  ",90.0,1.0,,,,,,,,,,,,,,,,,,,,,,,,,,
81,0,,html-keyboard-response,81,268083,0.0-4.11-2.11,xyrdm932b3,2022-09-19 17:09:15.709,5cd310705882710018e544b0,0,77,57,49,25,57,Male,,,"
  <table>
  <tr height=300>
    <td width=300 height=300><img src=""static/images/cards/10_of_black_bolts.svg"" width=""175px"" height=""250px""></img></td>
    <td width=300 height=300><img src=""static/images/cards/back_of_black_bolts.svg"" width=""175px"" height=""250px""></img></td>
  </tr>
  <tr height=200>
    <td width=300><img src=""static/images/keys/z.svg"" width=""35%"" height=""75%""></img></td>
    <td width=300></td>
  </tr>
</table>
  ",,,,,,,,,,,,,,,,,,,,,,,,,,,,
82,0,,html-keyboard-response,82,269591,0.0-4.11-3.11,xyrdm932b3,2022-09-19 17:09:15.709,5cd310705882710018e544b0,0,77,57,49,25,57,Male,,,"<p style=""font-size:50px"">You win!
+10 points this round!</p>",,,,,,,,,,,,,,,,,,,,,,,,,,,,
83,0,,html-keyboard-response,83,270106,0.0-4.11-4.11,xyrdm932b3,2022-09-19 17:09:15.709,5cd310705882710018e544b0,0,77,57,49,25,57,Male,,,,,,1.0,learning,11.0,Xnc,,black,,bolts,,,,Xnc,black,bolts,,0.0,0.0,1,left,558.7999997139,10.0,1.0,1.0,,,
84,0,,html-keyboard-response,84,271617,0.0-4.12-0.12,xyrdm932b3,2022-09-19 17:09:15.709,5cd310705882710018e544b0,0,77,57,49,25,57,Male,,,"<img src=""static/images/cards/stack_of_red_stars.svg"" width=""175px"" height=""250px""></img>",,,,,,,,,,,,,,,,,,,,,,,,,,,,
85,0,,html-keyboard-response,85,272993,0.0-4.12-1.12,xyrdm932b3,2022-09-19 17:09:15.709,5cd310705882710018e544b0,0,77,57,49,25,57,Male,861.7999997139,,"
  <table>
  <tr height=300>
    <td width=300 height=300><img src=""static/images/cards/back_of_red_stars.svg"" width=""175px"" height=""250px""></img></td>
    <td width=300 height=300><img src=""static/images/cards/back_of_red_stars.svg"" width=""175px"" height=""250px""></img></td>
  </tr>
  <tr height=200>
    <td width=300><img src=""static/images/keys/z.svg"" width=""35%"" height=""75%""></img></td>
    <td width=300><img src=""static/images/keys/m.svg"" width=""35%"" height=""75%""></img></td>
  </tr>
</table>
  ",77.0,1.0,,,,,,,,,,,,,,,,,,,,,,,,,,
86,0,,html-keyboard-response,86,274508,0.0-4.12-2.12,xyrdm932b3,2022-09-19 17:09:15.709,5cd310705882710018e544b0,0,77,57,49,25,57,Male,,,"
  <table>
  <tr height=300>
    <td width=300 height=300><img src=""static/images/cards/back_of_red_stars.svg"" width=""175px"" height=""250px""></img></td>
    <td width=300 height=300><img src=""static/images/cards/6_of_red_stars.svg"" width=""175px"" height=""250px""></img></td>
  </tr>
  <tr height=200>
    <td width=300><img src=""static/images/keys/z.svg"" width=""35%"" height=""75%""></img></td>
    <td width=300><img src=""static/images/keys/m.svg"" width=""35%"" height=""75%""></img></td>
  </tr>
</table>
  ",,,,,,,,,,,,,,,,,,,,,,,,,,,,
87,0,,html-keyboard-response,87,276028,0.0-4.12-3.12,xyrdm932b3,2022-09-19 17:09:15.709,5cd310705882710018e544b0,0,77,57,49,25,57,Male,,,"<p style=""font-size:50px"">You win!
+10 points this round!</p>",,,,,,,,,,,,,,,,,,,,,,,,,,,,
88,0,,html-keyboard-response,88,276547,0.0-4.12-4.12,xyrdm932b3,2022-09-19 17:09:15.709,5cd310705882710018e544b0,0,77,57,49,25,57,Male,,,,,,1.0,learning,12.0,A,,red,,stars,,,,A,red,stars,,1.0,1.0,NA,right,861.7999997139,6.0,1.0,1.0,,,
89,0,,html-keyboard-response,89,278056,0.0-4.13-0.13,xyrdm932b3,2022-09-19 17:09:15.709,5cd310705882710018e544b0,0,77,57,49,25,57,Male,,,"<img src=""static/images/cards/stack_of_black_stars.svg"" width=""175px"" height=""250px""></img>",,,,,,,,,,,,,,,,,,,,,,,,,,,,
90,0,,html-keyboard-response,90,279161,0.0-4.13-1.13,xyrdm932b3,2022-09-19 17:09:15.709,5cd310705882710018e544b0,0,77,57,49,25,57,Male,590.5999999046,,"
  <table>
  <tr height=300>
    <td width=300 height=300><img src=""static/images/cards/back_of_black_stars.svg"" width=""175px"" height=""250px""></img></td>
    <td width=300 height=300><img src=""static/images/cards/back_of_black_stars.svg"" width=""175px"" height=""250px""></img></td>
  </tr>
  <tr height=200>
    <td width=300></td>
    <td width=300><img src=""static/images/keys/m.svg"" width=""35%"" height=""75%""></img></td>
  </tr>
</table>
  ",77.0,1.0,,,,,,,,,,,,,,,,,,,,,,,,,,
91,0,,html-keyboard-response,91,280666,0.0-4.13-2.13,xyrdm932b3,2022-09-19 17:09:15.709,5cd310705882710018e544b0,0,77,57,49,25,57,Male,,,"
  <table>
  <tr height=300>
    <td width=300 height=300><img src=""static/images/cards/back_of_black_stars.svg"" width=""175px"" height=""250px""></img></td>
    <td width=300 height=300><img src=""static/images/cards/3_of_black_stars.svg"" width=""175px"" height=""250px""></img></td>
  </tr>
  <tr height=200>
    <td width=300></td>
    <td width=300><img src=""static/images/keys/m.svg"" width=""35%"" height=""75%""></img></td>
  </tr>
</table>
  ",,,,,,,,,,,,,,,,,,,,,,,,,,,,
92,0,,html-keyboard-response,92,282181,0.0-4.13-3.13,xyrdm932b3,2022-09-19 17:09:15.709,5cd310705882710018e544b0,0,77,57,49,25,57,Male,,,"<p style=""font-size:50px"">You Lose!
No points this round.</p>",,,,,,,,,,,,,,,,,,,,,,,,,,,,
93,0,,html-keyboard-response,93,282699,0.0-4.13-4.13,xyrdm932b3,2022-09-19 17:09:15.709,5cd310705882710018e544b0,0,77,57,49,25,57,Male,,,,,,1.0,learning,13.0,B,,black,,stars,,,,B,black,stars,,0.0,1.0,0,right,590.5999999046,3.0,0.0,0.0,,,
94,0,,html-keyboard-response,94,284208,0.0-4.14-0.14,xyrdm932b3,2022-09-19 17:09:15.709,5cd310705882710018e544b0,0,77,57,49,25,57,Male,,,"<img src=""static/images/cards/stack_of_red_moons.svg"" width=""175px"" height=""250px""></img>",,,,,,,,,,,,,,,,,,,,,,,,,,,,
95,0,,html-keyboard-response,95,285569,0.0-4.14-1.14,xyrdm932b3,2022-09-19 17:09:15.709,5cd310705882710018e544b0,0,77,57,49,25,57,Male,848.8999996185,,"
  <table>
  <tr height=300>
    <td width=300 height=300><img src=""static/images/cards/back_of_red_moons.svg"" width=""175px"" height=""250px""></img></td>
    <td width=300 height=300><img src=""static/images/cards/back_of_red_moons.svg"" width=""175px"" height=""250px""></img></td>
  </tr>
  <tr height=200>
    <td width=300><img src=""static/images/keys/z.svg"" width=""35%"" height=""75%""></img></td>
    <td width=300><img src=""static/images/keys/m.svg"" width=""35%"" height=""75%""></img></td>
  </tr>
</table>
  ",90.0,1.0,,,,,,,,,,,,,,,,,,,,,,,,,,
96,0,,html-keyboard-response,96,287084,0.0-4.14-2.14,xyrdm932b3,2022-09-19 17:09:15.709,5cd310705882710018e544b0,0,77,57,49,25,57,Male,,,"
  <table>
  <tr height=300>
    <td width=300 height=300><img src=""static/images/cards/4_of_red_moons.svg"" width=""175px"" height=""250px""></img></td>
    <td width=300 height=300><img src=""static/images/cards/back_of_red_moons.svg"" width=""175px"" height=""250px""></img></td>
  </tr>
  <tr height=200>
    <td width=300><img src=""static/images/keys/z.svg"" width=""35%"" height=""75%""></img></td>
    <td width=300><img src=""static/images/keys/m.svg"" width=""35%"" height=""75%""></img></td>
  </tr>
</table>
  ",,,,,,,,,,,,,,,,,,,,,,,,,,,,
97,0,,html-keyboard-response,97,288602,0.0-4.14-3.14,xyrdm932b3,2022-09-19 17:09:15.709,5cd310705882710018e544b0,0,77,57,49,25,57,Male,,,"<p style=""font-size:50px"">You win!
+10 points this round!</p>",,,,,,,,,,,,,,,,,,,,,,,,,,,,
98,0,,html-keyboard-response,98,289121,0.0-4.14-4.14,xyrdm932b3,2022-09-19 17:09:15.709,5cd310705882710018e544b0,0,77,57,49,25,57,Male,,,,,,1.0,learning,14.0,C,,red,,moons,,,,C,red,moons,,1.0,0.0,NA,left,848.8999996185,4.0,0.0,1.0,,,
99,0,,html-keyboard-response,99,290637,0.0-4.15-0.15,xyrdm932b3,2022-09-19 17:09:15.709,5cd310705882710018e544b0,0,77,57,49,25,57,Male,,,"<img src=""static/images/cards/stack_of_black_moons.svg"" width=""175px"" height=""250px""></img>",,,,,,,,,,,,,,,,,,,,,,,,,,,,
100,0,,html-keyboard-response,100,291897,0.0-4.15-1.15,xyrdm932b3,2022-09-19 17:09:15.709,5cd310705882710018e544b0,0,77,57,49,25,57,Male,751.4000000954,,"
  <table>
  <tr height=300>
    <td width=300 height=300><img src=""static/images/cards/back_of_black_moons.svg"" width=""175px"" height=""250px""></img></td>
    <td width=300 height=300><img src=""static/images/cards/back_of_black_moons.svg"" width=""175px"" height=""250px""></img></td>
  </tr>
  <tr height=200>
    <td width=300><img src=""static/images/keys/z.svg"" width=""35%"" height=""75%""></img></td>
    <td width=300></td>
  </tr>
</table>
  ",90.0,1.0,,,,,,,,,,,,,,,,,,,,,,,,,,
101,0,,html-keyboard-response,101,293404,0.0-4.15-2.15,xyrdm932b3,2022-09-19 17:09:15.709,5cd310705882710018e544b0,0,77,57,49,25,57,Male,,,"
  <table>
  <tr height=300>
    <td width=300 height=300><img src=""static/images/cards/2_of_black_moons.svg"" width=""175px"" height=""250px""></img></td>
    <td width=300 height=300><img src=""static/images/cards/back_of_black_moons.svg"" width=""175px"" height=""250px""></img></td>
  </tr>
  <tr height=200>
    <td width=300><img src=""static/images/keys/z.svg"" width=""35%"" height=""75%""></img></td>
    <td width=300></td>
  </tr>
</table>
  ",,,,,,,,,,,,,,,,,,,,,,,,,,,,
102,0,,html-keyboard-response,102,294921,0.0-4.15-3.15,xyrdm932b3,2022-09-19 17:09:15.709,5cd310705882710018e544b0,0,77,57,49,25,57,Male,,,"<p style=""font-size:50px"">You Lose!
No points this round.</p>",,,,,,,,,,,,,,,,,,,,,,,,,,,,
103,0,,html-keyboard-response,103,295433,0.0-4.15-4.15,xyrdm932b3,2022-09-19 17:09:15.709,5cd310705882710018e544b0,0,77,57,49,25,57,Male,,,,,,1.0,learning,15.0,D,,black,,moons,,,,D,black,moons,,0.0,0.0,1,left,751.4000000954,2.0,0.0,0.0,,,
104,0,,html-keyboard-response,104,296949,0.0-4.16-0.16,xyrdm932b3,2022-09-19 17:09:15.709,5cd310705882710018e544b0,0,77,57,49,25,57,Male,,,"<img src=""static/images/cards/stack_of_red_bolts.svg"" width=""175px"" height=""250px""></img>",,,,,,,,,,,,,,,,,,,,,,,,,,,,
105,0,,html-keyboard-response,105,298242,0.0-4.16-1.16,xyrdm932b3,2022-09-19 17:09:15.709,5cd310705882710018e544b0,0,77,57,49,25,57,Male,775.9000000954,,"
  <table>
  <tr height=300>
    <td width=300 height=300><img src=""static/images/cards/back_of_red_bolts.svg"" width=""175px"" height=""250px""></img></td>
    <td width=300 height=300><img src=""static/images/cards/back_of_red_bolts.svg"" width=""175px"" height=""250px""></img></td>
  </tr>
  <tr height=200>
    <td width=300><img src=""static/images/keys/z.svg"" width=""35%"" height=""75%""></img></td>
    <td width=300><img src=""static/images/keys/m.svg"" width=""35%"" height=""75%""></img></td>
  </tr>
</table>
  ",90.0,1.0,,,,,,,,,,,,,,,,,,,,,,,,,,
106,0,,html-keyboard-response,106,299750,0.0-4.16-2.16,xyrdm932b3,2022-09-19 17:09:15.709,5cd310705882710018e544b0,0,77,57,49,25,57,Male,,,"
  <table>
  <tr height=300>
    <td width=300 height=300><img src=""static/images/cards/1_of_red_bolts.svg"" width=""175px"" height=""250px""></img></td>
    <td width=300 height=300><img src=""static/images/cards/back_of_red_bolts.svg"" width=""175px"" height=""250px""></img></td>
  </tr>
  <tr height=200>
    <td width=300><img src=""static/images/keys/z.svg"" width=""35%"" height=""75%""></img></td>
    <td width=300><img src=""static/images/keys/m.svg"" width=""35%"" height=""75%""></img></td>
  </tr>
</table>
  ",,,,,,,,,,,,,,,,,,,,,,,,,,,,
107,0,,html-keyboard-response,107,301274,0.0-4.16-3.16,xyrdm932b3,2022-09-19 17:09:15.709,5cd310705882710018e544b0,0,77,57,49,25,57,Male,,,"<p style=""font-size:50px"">You win!
+10 points this round!</p>",,,,,,,,,,,,,,,,,,,,,,,,,,,,
108,0,,html-keyboard-response,108,301788,0.0-4.16-4.16,xyrdm932b3,2022-09-19 17:09:15.709,5cd310705882710018e544b0,0,77,57,49,25,57,Male,,,,,,1.0,learning,16.0,Xc,,red,,bolts,,,,Xc,red,bolts,,1.0,0.0,NA,left,775.9000000954,1.0,0.0,1.0,,,
109,0,,html-keyboard-response,109,303290,0.0-4.17-0.17,xyrdm932b3,2022-09-19 17:09:15.709,5cd310705882710018e544b0,0,77,57,49,25,57,Male,,,"<img src=""static/images/cards/stack_of_black_bolts.svg"" width=""175px"" height=""250px""></img>",,,,,,,,,,,,,,,,,,,,,,,,,,,,
110,0,,html-keyboard-response,110,304468,0.0-4.17-1.17,xyrdm932b3,2022-09-19 17:09:15.709,5cd310705882710018e544b0,0,77,57,49,25,57,Male,667.4000000954,,"
  <table>
  <tr height=300>
    <td width=300 height=300><img src=""static/images/cards/back_of_black_bolts.svg"" width=""175px"" height=""250px""></img></td>
    <td width=300 height=300><img src=""static/images/cards/back_of_black_bolts.svg"" width=""175px"" height=""250px""></img></td>
  </tr>
  <tr height=200>
    <td width=300></td>
    <td width=300><img src=""static/images/keys/m.svg"" width=""35%"" height=""75%""></img></td>
  </tr>
</table>
  ",77.0,1.0,,,,,,,,,,,,,,,,,,,,,,,,,,
111,0,,html-keyboard-response,111,305986,0.0-4.17-2.17,xyrdm932b3,2022-09-19 17:09:15.709,5cd310705882710018e544b0,0,77,57,49,25,57,Male,,,"
  <table>
  <tr height=300>
    <td width=300 height=300><img src=""static/images/cards/back_of_black_bolts.svg"" width=""175px"" height=""250px""></img></td>
    <td width=300 height=300><img src=""static/images/cards/1_of_black_bolts.svg"" width=""175px"" height=""250px""></img></td>
  </tr>
  <tr height=200>
    <td width=300></td>
    <td width=300><img src=""static/images/keys/m.svg"" width=""35%"" height=""75%""></img></td>
  </tr>
</table>
  ",,,,,,,,,,,,,,,,,,,,,,,,,,,,
112,0,,html-keyboard-response,112,307500,0.0-4.17-3.17,xyrdm932b3,2022-09-19 17:09:15.709,5cd310705882710018e544b0,0,77,57,49,25,57,Male,,,"<p style=""font-size:50px"">You win!
+10 points this round!</p>",,,,,,,,,,,,,,,,,,,,,,,,,,,,
113,0,,html-keyboard-response,113,308016,0.0-4.17-4.17,xyrdm932b3,2022-09-19 17:09:15.709,5cd310705882710018e544b0,0,77,57,49,25,57,Male,,,,,,1.0,learning,17.0,Xnc,,black,,bolts,,,,Xnc,black,bolts,,0.0,0.0,0,right,667.4000000954,1.0,0.0,1.0,,,
114,0,,html-keyboard-response,114,309522,0.0-4.18-0.18,xyrdm932b3,2022-09-19 17:09:15.709,5cd310705882710018e544b0,0,77,57,49,25,57,Male,,,"<img src=""static/images/cards/stack_of_red_stars.svg"" width=""175px"" height=""250px""></img>",,,,,,,,,,,,,,,,,,,,,,,,,,,,
115,0,,html-keyboard-response,115,310850,0.0-4.18-1.18,xyrdm932b3,2022-09-19 17:09:15.709,5cd310705882710018e544b0,0,77,57,49,25,57,Male,821.5999999046,,"
  <table>
  <tr height=300>
    <td width=300 height=300><img src=""static/images/cards/back_of_red_stars.svg"" width=""175px"" height=""250px""></img></td>
    <td width=300 height=300><img src=""static/images/cards/back_of_red_stars.svg"" width=""175px"" height=""250px""></img></td>
  </tr>
  <tr height=200>
    <td width=300><img src=""static/images/keys/z.svg"" width=""35%"" height=""75%""></img></td>
    <td width=300><img src=""static/images/keys/m.svg"" width=""35%"" height=""75%""></img></td>
  </tr>
</table>
  ",90.0,1.0,,,,,,,,,,,,,,,,,,,,,,,,,,
116,0,,html-keyboard-response,116,312364,0.0-4.18-2.18,xyrdm932b3,2022-09-19 17:09:15.709,5cd310705882710018e544b0,0,77,57,49,25,57,Male,,,"
  <table>
  <tr height=300>
    <td width=300 height=300><img src=""static/images/cards/2_of_red_stars.svg"" width=""175px"" height=""250px""></img></td>
    <td width=300 height=300><img src=""static/images/cards/back_of_red_stars.svg"" width=""175px"" height=""250px""></img></td>
  </tr>
  <tr height=200>
    <td width=300><img src=""static/images/keys/z.svg"" width=""35%"" height=""75%""></img></td>
    <td width=300><img src=""static/images/keys/m.svg"" width=""35%"" height=""75%""></img></td>
  </tr>
</table>
  ",,,,,,,,,,,,,,,,,,,,,,,,,,,,
117,0,,html-keyboard-response,117,313887,0.0-4.18-3.18,xyrdm932b3,2022-09-19 17:09:15.709,5cd310705882710018e544b0,0,77,57,49,25,57,Male,,,"<p style=""font-size:50px"">You Lose!
No points this round.</p>",,,,,,,,,,,,,,,,,,,,,,,,,,,,
118,0,,html-keyboard-response,118,314395,0.0-4.18-4.18,xyrdm932b3,2022-09-19 17:09:15.709,5cd310705882710018e544b0,0,77,57,49,25,57,Male,,,,,,1.0,learning,18.0,A,,red,,stars,,,,A,red,stars,,1.0,1.0,NA,left,821.5999999046,2.0,0.0,0.0,,,
119,0,,html-keyboard-response,119,315898,0.0-4.19-0.19,xyrdm932b3,2022-09-19 17:09:15.709,5cd310705882710018e544b0,0,77,57,49,25,57,Male,,,"<img src=""static/images/cards/stack_of_black_stars.svg"" width=""175px"" height=""250px""></img>",,,,,,,,,,,,,,,,,,,,,,,,,,,,
120,0,,html-keyboard-response,120,317073,0.0-4.19-1.19,xyrdm932b3,2022-09-19 17:09:15.709,5cd310705882710018e544b0,0,77,57,49,25,57,Male,671.1999998093,,"
  <table>
  <tr height=300>
    <td width=300 height=300><img src=""static/images/cards/back_of_black_stars.svg"" width=""175px"" height=""250px""></img></td>
    <td width=300 height=300><img src=""static/images/cards/back_of_black_stars.svg"" width=""175px"" height=""250px""></img></td>
  </tr>
  <tr height=200>
    <td width=300><img src=""static/images/keys/z.svg"" width=""35%"" height=""75%""></img></td>
    <td width=300></td>
  </tr>
</table>
  ",90.0,1.0,,,,,,,,,,,,,,,,,,,,,,,,,,
121,0,,html-keyboard-response,121,318582,0.0-4.19-2.19,xyrdm932b3,2022-09-19 17:09:15.709,5cd310705882710018e544b0,0,77,57,49,25,57,Male,,,"
  <table>
  <tr height=300>
    <td width=300 height=300><img src=""static/images/cards/1_of_black_stars.svg"" width=""175px"" height=""250px""></img></td>
    <td width=300 height=300><img src=""static/images/cards/back_of_black_stars.svg"" width=""175px"" height=""250px""></img></td>
  </tr>
  <tr height=200>
    <td width=300><img src=""static/images/keys/z.svg"" width=""35%"" height=""75%""></img></td>
    <td width=300></td>
  </tr>
</table>
  ",,,,,,,,,,,,,,,,,,,,,,,,,,,,
122,0,,html-keyboard-response,122,320095,0.0-4.19-3.19,xyrdm932b3,2022-09-19 17:09:15.709,5cd310705882710018e544b0,0,77,57,49,25,57,Male,,,"<p style=""font-size:50px"">You Lose!
No points this round.</p>",,,,,,,,,,,,,,,,,,,,,,,,,,,,
123,0,,html-keyboard-response,123,320605,0.0-4.19-4.19,xyrdm932b3,2022-09-19 17:09:15.709,5cd310705882710018e544b0,0,77,57,49,25,57,Male,,,,,,1.0,learning,19.0,B,,black,,stars,,,,B,black,stars,,0.0,1.0,1,left,671.1999998093,1.0,0.0,0.0,,,
124,0,,html-keyboard-response,124,322114,0.0-4.20-0.20,xyrdm932b3,2022-09-19 17:09:15.709,5cd310705882710018e544b0,0,77,57,49,25,57,Male,,,"<img src=""static/images/cards/stack_of_red_moons.svg"" width=""175px"" height=""250px""></img>",,,,,,,,,,,,,,,,,,,,,,,,,,,,
125,0,,html-keyboard-response,125,323442,0.0-4.20-1.20,xyrdm932b3,2022-09-19 17:09:15.709,5cd310705882710018e544b0,0,77,57,49,25,57,Male,811.6999998093,,"
  <table>
  <tr height=300>
    <td width=300 height=300><img src=""static/images/cards/back_of_red_moons.svg"" width=""175px"" height=""250px""></img></td>
    <td width=300 height=300><img src=""static/images/cards/back_of_red_moons.svg"" width=""175px"" height=""250px""></img></td>
  </tr>
  <tr height=200>
    <td width=300><img src=""static/images/keys/z.svg"" width=""35%"" height=""75%""></img></td>
    <td width=300><img src=""static/images/keys/m.svg"" width=""35%"" height=""75%""></img></td>
  </tr>
</table>
  ",90.0,1.0,,,,,,,,,,,,,,,,,,,,,,,,,,
126,0,,html-keyboard-response,126,324946,0.0-4.20-2.20,xyrdm932b3,2022-09-19 17:09:15.709,5cd310705882710018e544b0,0,77,57,49,25,57,Male,,,"
  <table>
  <tr height=300>
    <td width=300 height=300><img src=""static/images/cards/2_of_red_moons.svg"" width=""175px"" height=""250px""></img></td>
    <td width=300 height=300><img src=""static/images/cards/back_of_red_moons.svg"" width=""175px"" height=""250px""></img></td>
  </tr>
  <tr height=200>
    <td width=300><img src=""static/images/keys/z.svg"" width=""35%"" height=""75%""></img></td>
    <td width=300><img src=""static/images/keys/m.svg"" width=""35%"" height=""75%""></img></td>
  </tr>
</table>
  ",,,,,,,,,,,,,,,,,,,,,,,,,,,,
127,0,,html-keyboard-response,127,326476,0.0-4.20-3.20,xyrdm932b3,2022-09-19 17:09:15.709,5cd310705882710018e544b0,0,77,57,49,25,57,Male,,,"<p style=""font-size:50px"">You Lose!
No points this round.</p>",,,,,,,,,,,,,,,,,,,,,,,,,,,,
128,0,,html-keyboard-response,128,326989,0.0-4.20-4.20,xyrdm932b3,2022-09-19 17:09:15.709,5cd310705882710018e544b0,0,77,57,49,25,57,Male,,,,,,1.0,learning,20.0,C,,red,,moons,,,,C,red,moons,,1.0,0.0,NA,left,811.6999998093,2.0,0.0,0.0,,,
129,0,,html-keyboard-response,129,328500,0.0-4.21-0.21,xyrdm932b3,2022-09-19 17:09:15.709,5cd310705882710018e544b0,0,77,57,49,25,57,Male,,,"<img src=""static/images/cards/stack_of_black_moons.svg"" width=""175px"" height=""250px""></img>",,,,,,,,,,,,,,,,,,,,,,,,,,,,
130,0,,html-keyboard-response,130,329657,0.0-4.21-1.21,xyrdm932b3,2022-09-19 17:09:15.709,5cd310705882710018e544b0,0,77,57,49,25,57,Male,641.3000001907,,"
  <table>
  <tr height=300>
    <td width=300 height=300><img src=""static/images/cards/back_of_black_moons.svg"" width=""175px"" height=""250px""></img></td>
    <td width=300 height=300><img src=""static/images/cards/back_of_black_moons.svg"" width=""175px"" height=""250px""></img></td>
  </tr>
  <tr height=200>
    <td width=300><img src=""static/images/keys/z.svg"" width=""35%"" height=""75%""></img></td>
    <td width=300></td>
  </tr>
</table>
  ",90.0,1.0,,,,,,,,,,,,,,,,,,,,,,,,,,
131,0,,html-keyboard-response,131,331170,0.0-4.21-2.21,xyrdm932b3,2022-09-19 17:09:15.709,5cd310705882710018e544b0,0,77,57,49,25,57,Male,,,"
  <table>
  <tr height=300>
    <td width=300 height=300><img src=""static/images/cards/8_of_black_moons.svg"" width=""175px"" height=""250px""></img></td>
    <td width=300 height=300><img src=""static/images/cards/back_of_black_moons.svg"" width=""175px"" height=""250px""></img></td>
  </tr>
  <tr height=200>
    <td width=300><img src=""static/images/keys/z.svg"" width=""35%"" height=""75%""></img></td>
    <td width=300></td>
  </tr>
</table>
  ",,,,,,,,,,,,,,,,,,,,,,,,,,,,
132,0,,html-keyboard-response,132,332698,0.0-4.21-3.21,xyrdm932b3,2022-09-19 17:09:15.709,5cd310705882710018e544b0,0,77,57,49,25,57,Male,,,"<p style=""font-size:50px"">You Lose!
No points this round.</p>",,,,,,,,,,,,,,,,,,,,,,,,,,,,
133,0,,html-keyboard-response,133,333220,0.0-4.21-4.21,xyrdm932b3,2022-09-19 17:09:15.709,5cd310705882710018e544b0,0,77,57,49,25,57,Male,,,,,,1.0,learning,21.0,D,,black,,moons,,,,D,black,moons,,0.0,0.0,1,left,641.3000001907,8.0,1.0,0.0,,,
134,0,,html-keyboard-response,134,334735,0.0-4.22-0.22,xyrdm932b3,2022-09-19 17:09:15.709,5cd310705882710018e544b0,0,77,57,49,25,57,Male,,,"<img src=""static/images/cards/stack_of_red_bolts.svg"" width=""175px"" height=""250px""></img>",,,,,,,,,,,,,,,,,,,,,,,,,,,,
135,0,,html-keyboard-response,135,336050,0.0-4.22-1.22,xyrdm932b3,2022-09-19 17:09:15.709,5cd310705882710018e544b0,0,77,57,49,25,57,Male,810.5,,"
  <table>
  <tr height=300>
    <td width=300 height=300><img src=""static/images/cards/back_of_red_bolts.svg"" width=""175px"" height=""250px""></img></td>
    <td width=300 height=300><img src=""static/images/cards/back_of_red_bolts.svg"" width=""175px"" height=""250px""></img></td>
  </tr>
  <tr height=200>
    <td width=300><img src=""static/images/keys/z.svg"" width=""35%"" height=""75%""></img></td>
    <td width=300><img src=""static/images/keys/m.svg"" width=""35%"" height=""75%""></img></td>
  </tr>
</table>
  ",77.0,1.0,,,,,,,,,,,,,,,,,,,,,,,,,,
136,0,,html-keyboard-response,136,337562,0.0-4.22-2.22,xyrdm932b3,2022-09-19 17:09:15.709,5cd310705882710018e544b0,0,77,57,49,25,57,Male,,,"
  <table>
  <tr height=300>
    <td width=300 height=300><img src=""static/images/cards/back_of_red_bolts.svg"" width=""175px"" height=""250px""></img></td>
    <td width=300 height=300><img src=""static/images/cards/4_of_red_bolts.svg"" width=""175px"" height=""250px""></img></td>
  </tr>
  <tr height=200>
    <td width=300><img src=""static/images/keys/z.svg"" width=""35%"" height=""75%""></img></td>
    <td width=300><img src=""static/images/keys/m.svg"" width=""35%"" height=""75%""></img></td>
  </tr>
</table>
  ",,,,,,,,,,,,,,,,,,,,,,,,,,,,
137,0,,html-keyboard-response,137,339085,0.0-4.22-3.22,xyrdm932b3,2022-09-19 17:09:15.709,5cd310705882710018e544b0,0,77,57,49,25,57,Male,,,"<p style=""font-size:50px"">You win!
+10 points this round!</p>",,,,,,,,,,,,,,,,,,,,,,,,,,,,
138,0,,html-keyboard-response,138,339597,0.0-4.22-4.22,xyrdm932b3,2022-09-19 17:09:15.709,5cd310705882710018e544b0,0,77,57,49,25,57,Male,,,,,,1.0,learning,22.0,Xc,,red,,bolts,,,,Xc,red,bolts,,1.0,0.0,NA,right,810.5,4.0,0.0,1.0,,,
139,0,,html-keyboard-response,139,341100,0.0-4.23-0.23,xyrdm932b3,2022-09-19 17:09:15.709,5cd310705882710018e544b0,0,77,57,49,25,57,Male,,,"<img src=""static/images/cards/stack_of_black_bolts.svg"" width=""175px"" height=""250px""></img>",,,,,,,,,,,,,,,,,,,,,,,,,,,,
140,0,,html-keyboard-response,140,342209,0.0-4.23-1.23,xyrdm932b3,2022-09-19 17:09:15.709,5cd310705882710018e544b0,0,77,57,49,25,57,Male,604.0999999046,,"
  <table>
  <tr height=300>
    <td width=300 height=300><img src=""static/images/cards/back_of_black_bolts.svg"" width=""175px"" height=""250px""></img></td>
    <td width=300 height=300><img src=""static/images/cards/back_of_black_bolts.svg"" width=""175px"" height=""250px""></img></td>
  </tr>
  <tr height=200>
    <td width=300></td>
    <td width=300><img src=""static/images/keys/m.svg"" width=""35%"" height=""75%""></img></td>
  </tr>
</table>
  ",77.0,1.0,,,,,,,,,,,,,,,,,,,,,,,,,,
141,0,,html-keyboard-response,141,343720,0.0-4.23-2.23,xyrdm932b3,2022-09-19 17:09:15.709,5cd310705882710018e544b0,0,77,57,49,25,57,Male,,,"
  <table>
  <tr height=300>
    <td width=300 height=300><img src=""static/images/cards/back_of_black_bolts.svg"" width=""175px"" height=""250px""></img></td>
    <td width=300 height=300><img src=""static/images/cards/7_of_black_bolts.svg"" width=""175px"" height=""250px""></img></td>
  </tr>
  <tr height=200>
    <td width=300></td>
    <td width=300><img src=""static/images/keys/m.svg"" width=""35%"" height=""75%""></img></td>
  </tr>
</table>
  ",,,,,,,,,,,,,,,,,,,,,,,,,,,,
142,0,,html-keyboard-response,142,345239,0.0-4.23-3.23,xyrdm932b3,2022-09-19 17:09:15.709,5cd310705882710018e544b0,0,77,57,49,25,57,Male,,,"<p style=""font-size:50px"">You win!
+10 points this round!</p>",,,,,,,,,,,,,,,,,,,,,,,,,,,,
143,0,,html-keyboard-response,143,345747,0.0-4.23-4.23,xyrdm932b3,2022-09-19 17:09:15.709,5cd310705882710018e544b0,0,77,57,49,25,57,Male,,,,,,1.0,learning,23.0,Xnc,,black,,bolts,,,,Xnc,black,bolts,,0.0,0.0,0,right,604.0999999046,7.0,1.0,1.0,,,
144,0,,call-function,144,345763,0.0-5.0,xyrdm932b3,2022-09-19 17:09:15.709,5cd310705882710018e544b0,0,77,57,49,25,57,Male,,,,,,,,,,,,,,,,,,,,,,,,,,,,,,,
145,0,,image-keyboard-response,145,354137,0.0-6.0-0.0,xyrdm932b3,2022-09-19 17:09:15.709,5cd310705882710018e544b0,0,77,57,49,25,57,Male,8372.5999999046,,static/images/instructions_CB_0/Slide20.png,39.0,,,,,,,,,,,,,,,,,,,,,,,,,,,
146,0,,image-keyboard-response,146,366385,0.0-6.1-0.1,xyrdm932b3,2022-09-19 17:09:15.709,5cd310705882710018e544b0,0,77,57,49,25,57,Male,12245.5,,static/images/instructions_CB_0/Slide21.png,39.0,,,,,,,,,,,,,,,,,,,,,,,,,,,
147,0,,image-keyboard-response,147,377481,0.0-6.2-0.2,xyrdm932b3,2022-09-19 17:09:15.709,5cd310705882710018e544b0,0,77,57,49,25,57,Male,11093.7000002861,,static/images/instructions_CB_0/Slide22.png,39.0,,,,,,,,,,,,,,,,,,,,,,,,,,,
148,0,,image-keyboard-response,148,386336,0.0-6.3-0.3,xyrdm932b3,2022-09-19 17:09:15.709,5cd310705882710018e544b0,0,77,57,49,25,57,Male,8849.3999996185,,static/images/instructions_CB_0/Slide23.png,39.0,,,,,,,,,,,,,,,,,,,,,,,,,,,
149,0,,image-keyboard-response,149,388824,0.0-6.4-0.4,xyrdm932b3,2022-09-19 17:09:15.709,5cd310705882710018e544b0,0,77,57,49,25,57,Male,2486.1000003815,,static/images/instructions_CB_0/Slide24.png,39.0,,,,,,,,,,,,,,,,,,,,,,,,,,,
150,0,,html-keyboard-response,150,391824,0.0-7.0-0.0,xyrdm932b3,2022-09-19 17:09:15.709,5cd310705882710018e544b0,0,77,57,49,25,57,Male,2996.0,,"
  <table>
  <tr height=300>
    <td width=300 height=300><img src=""static/images/cards/stack_of_red_moons.svg"" width=""175px"" height=""250px""></img></td>
    <td width=300 height=300><img src=""static/images/cards/stack_of_black_moons.svg"" width=""175px"" height=""250px""></img></td>
  </tr>
  <tr height=200>
    <td width=300><img src=""static/images/keys/w.svg"" width=""35%"" height=""75%""></img></td>
    <td width=300><img src=""static/images/keys/o.svg"" width=""35%"" height=""75%""></img></td>
  </tr>
</table>
  ",87.0,1.0,,,,,,,,,,,,,,,,,,,,,,,,,,
151,0,,html-keyboard-response,151,394815,0.0-7.0-1.0,xyrdm932b3,2022-09-19 17:09:15.709,5cd310705882710018e544b0,0,77,57,49,25,57,Male,2474.2999997139,,"
  <table>
  <tr height=300>
    <td width=300 height=300><img src=""static/images/cards/back_of_red_moons.svg"" width=""175px"" height=""250px""></img></td>
    <td width=300 height=300><img src=""static/images/cards/back_of_red_moons.svg"" width=""175px"" height=""250px""></img></td>
  </tr>
  <tr height=200>
    <td width=300><img src=""static/images/keys/z.svg"" width=""35%"" height=""75%""></img></td>
    <td width=300><img src=""static/images/keys/m.svg"" width=""35%"" height=""75%""></img></td>
  </tr>
</table>
  ",90.0,1.0,,,,,,,,,,,,,,,,,,,,,,,,,,
152,0,,html-keyboard-response,152,396322,0.0-7.0-2.0,xyrdm932b3,2022-09-19 17:09:15.709,5cd310705882710018e544b0,0,77,57,49,25,57,Male,,,"
  <table>
  <tr height=300>
    <td width=300 height=300><img src=""static/images/cards/3_of_red_moons.svg"" width=""175px"" height=""250px""></img></td>
    <td width=300 height=300><img src=""static/images/cards/back_of_red_moons.svg"" width=""175px"" height=""250px""></img></td>
  </tr>
  <tr height=200>
    <td width=300><img src=""static/images/keys/z.svg"" width=""35%"" height=""75%""></img></td>
    <td width=300><img src=""static/images/keys/m.svg"" width=""35%"" height=""75%""></img></td>
  </tr>
</table>
  ",,,,,,,,,,,,,,,,,,,,,,,,,,,,
153,0,,html-keyboard-response,153,397847,0.0-7.0-3.0,xyrdm932b3,2022-09-19 17:09:15.709,5cd310705882710018e544b0,0,77,57,49,25,57,Male,,,"<p style=""font-size:50px"">You Lose!
No points this round.</p>",,,,,,,,,,,,,,,,,,,,,,,,,,,,
154,0,,html-keyboard-response,154,398366,0.0-7.0-4.0,xyrdm932b3,2022-09-19 17:09:15.709,5cd310705882710018e544b0,0,77,57,49,25,57,Male,,,,,,1.0,choice,0.0,C,D,red,black,moons,moons,C,D,C,red,moons,2996.0,1.0,0.0,NA,left,2474.2999997139,3.0,0.0,0.0,,,
155,0,,html-keyboard-response,155,401544,0.0-7.1-0.1,xyrdm932b3,2022-09-19 17:09:15.709,5cd310705882710018e544b0,0,77,57,49,25,57,Male,3173.8999996185,,"
  <table>
  <tr height=300>
    <td width=300 height=300><img src=""static/images/cards/stack_of_red_stars.svg"" width=""175px"" height=""250px""></img></td>
    <td width=300 height=300><img src=""static/images/cards/stack_of_red_moons.svg"" width=""175px"" height=""250px""></img></td>
  </tr>
  <tr height=200>
    <td width=300><img src=""static/images/keys/w.svg"" width=""35%"" height=""75%""></img></td>
    <td width=300><img src=""static/images/keys/o.svg"" width=""35%"" height=""75%""></img></td>
  </tr>
</table>
  ",87.0,2.0,,,,,,,,,,,,,,,,,,,,,,,,,,
156,0,,html-keyboard-response,156,403936,0.0-7.1-1.1,xyrdm932b3,2022-09-19 17:09:15.709,5cd310705882710018e544b0,0,77,57,49,25,57,Male,1881.6999998093,,"
  <table>
  <tr height=300>
    <td width=300 height=300><img src=""static/images/cards/back_of_red_stars.svg"" width=""175px"" height=""250px""></img></td>
    <td width=300 height=300><img src=""static/images/cards/back_of_red_stars.svg"" width=""175px"" height=""250px""></img></td>
  </tr>
  <tr height=200>
    <td width=300><img src=""static/images/keys/z.svg"" width=""35%"" height=""75%""></img></td>
    <td width=300><img src=""static/images/keys/m.svg"" width=""35%"" height=""75%""></img></td>
  </tr>
</table>
  ",90.0,1.0,,,,,,,,,,,,,,,,,,,,,,,,,,
157,0,,html-keyboard-response,157,405440,0.0-7.1-2.1,xyrdm932b3,2022-09-19 17:09:15.709,5cd310705882710018e544b0,0,77,57,49,25,57,Male,,,"
  <table>
  <tr height=300>
    <td width=300 height=300><img src=""static/images/cards/3_of_red_stars.svg"" width=""175px"" height=""250px""></img></td>
    <td width=300 height=300><img src=""static/images/cards/back_of_red_stars.svg"" width=""175px"" height=""250px""></img></td>
  </tr>
  <tr height=200>
    <td width=300><img src=""static/images/keys/z.svg"" width=""35%"" height=""75%""></img></td>
    <td width=300><img src=""static/images/keys/m.svg"" width=""35%"" height=""75%""></img></td>
  </tr>
</table>
  ",,,,,,,,,,,,,,,,,,,,,,,,,,,,
158,0,,html-keyboard-response,158,406963,0.0-7.1-3.1,xyrdm932b3,2022-09-19 17:09:15.709,5cd310705882710018e544b0,0,77,57,49,25,57,Male,,,"<p style=""font-size:50px"">You Lose!
No points this round.</p>",,,,,,,,,,,,,,,,,,,,,,,,,,,,
159,0,,html-keyboard-response,159,407476,0.0-7.1-4.1,xyrdm932b3,2022-09-19 17:09:15.709,5cd310705882710018e544b0,0,77,57,49,25,57,Male,,,,,,1.0,choice,1.0,A,C,red,red,stars,moons,A,C,A,red,stars,3173.8999996185,1.0,1.0,NA,left,1881.6999998093,3.0,0.0,0.0,,,
160,0,,html-keyboard-response,160,410785,0.0-7.2-0.2,xyrdm932b3,2022-09-19 17:09:15.709,5cd310705882710018e544b0,0,77,57,49,25,57,Male,3304.8999996185,,"
  <table>
  <tr height=300>
    <td width=300 height=300><img src=""static/images/cards/stack_of_black_moons.svg"" width=""175px"" height=""250px""></img></td>
    <td width=300 height=300><img src=""static/images/cards/stack_of_red_moons.svg"" width=""175px"" height=""250px""></img></td>
  </tr>
  <tr height=200>
    <td width=300><img src=""static/images/keys/w.svg"" width=""35%"" height=""75%""></img></td>
    <td width=300><img src=""static/images/keys/o.svg"" width=""35%"" height=""75%""></img></td>
  </tr>
</table>
  ",79.0,1.0,,,,,,,,,,,,,,,,,,,,,,,,,,
161,0,,html-keyboard-response,161,412744,0.0-7.2-1.2,xyrdm932b3,2022-09-19 17:09:15.709,5cd310705882710018e544b0,0,77,57,49,25,57,Male,1448.1999998093,,"
  <table>
  <tr height=300>
    <td width=300 height=300><img src=""static/images/cards/back_of_red_moons.svg"" width=""175px"" height=""250px""></img></td>
    <td width=300 height=300><img src=""static/images/cards/back_of_red_moons.svg"" width=""175px"" height=""250px""></img></td>
  </tr>
  <tr height=200>
    <td width=300><img src=""static/images/keys/z.svg"" width=""35%"" height=""75%""></img></td>
    <td width=300><img src=""static/images/keys/m.svg"" width=""35%"" height=""75%""></img></td>
  </tr>
</table>
  ",77.0,1.0,,,,,,,,,,,,,,,,,,,,,,,,,,
162,0,,html-keyboard-response,162,414257,0.0-7.2-2.2,xyrdm932b3,2022-09-19 17:09:15.709,5cd310705882710018e544b0,0,77,57,49,25,57,Male,,,"
  <table>
  <tr height=300>
    <td width=300 height=300><img src=""static/images/cards/back_of_red_moons.svg"" width=""175px"" height=""250px""></img></td>
    <td width=300 height=300><img src=""static/images/cards/1_of_red_moons.svg"" width=""175px"" height=""250px""></img></td>
  </tr>
  <tr height=200>
    <td width=300><img src=""static/images/keys/z.svg"" width=""35%"" height=""75%""></img></td>
    <td width=300><img src=""static/images/keys/m.svg"" width=""35%"" height=""75%""></img></td>
  </tr>
</table>
  ",,,,,,,,,,,,,,,,,,,,,,,,,,,,
163,0,,html-keyboard-response,163,415772,0.0-7.2-3.2,xyrdm932b3,2022-09-19 17:09:15.709,5cd310705882710018e544b0,0,77,57,49,25,57,Male,,,"<p style=""font-size:50px"">You win!
+10 points this round!</p>",,,,,,,,,,,,,,,,,,,,,,,,,,,,
164,0,,html-keyboard-response,164,416279,0.0-7.2-4.2,xyrdm932b3,2022-09-19 17:09:15.709,5cd310705882710018e544b0,0,77,57,49,25,57,Male,,,,,,1.0,choice,2.0,C,D,black,red,moons,moons,D,C,C,red,moons,3304.8999996185,1.0,0.0,NA,right,1448.1999998093,1.0,0.0,1.0,,,
165,0,,html-keyboard-response,165,419768,0.0-7.3-0.3,xyrdm932b3,2022-09-19 17:09:15.709,5cd310705882710018e544b0,0,77,57,49,25,57,Male,3484.5999999046,,"
  <table>
  <tr height=300>
    <td width=300 height=300><img src=""static/images/cards/stack_of_black_moons.svg"" width=""175px"" height=""250px""></img></td>
    <td width=300 height=300><img src=""static/images/cards/stack_of_red_moons.svg"" width=""175px"" height=""250px""></img></td>
  </tr>
  <tr height=200>
    <td width=300><img src=""static/images/keys/w.svg"" width=""35%"" height=""75%""></img></td>
    <td width=300><img src=""static/images/keys/o.svg"" width=""35%"" height=""75%""></img></td>
  </tr>
</table>
  ",79.0,1.0,,,,,,,,,,,,,,,,,,,,,,,,,,
166,0,,html-keyboard-response,166,421280,0.0-7.3-1.3,xyrdm932b3,2022-09-19 17:09:15.709,5cd310705882710018e544b0,0,77,57,49,25,57,Male,994.4000000954,,"
  <table>
  <tr height=300>
    <td width=300 height=300><img src=""static/images/cards/back_of_red_moons.svg"" width=""175px"" height=""250px""></img></td>
    <td width=300 height=300><img src=""static/images/cards/back_of_red_moons.svg"" width=""175px"" height=""250px""></img></td>
  </tr>
  <tr height=200>
    <td width=300><img src=""static/images/keys/z.svg"" width=""35%"" height=""75%""></img></td>
    <td width=300><img src=""static/images/keys/m.svg"" width=""35%"" height=""75%""></img></td>
  </tr>
</table>
  ",77.0,1.0,,,,,,,,,,,,,,,,,,,,,,,,,,
167,0,,html-keyboard-response,167,422788,0.0-7.3-2.3,xyrdm932b3,2022-09-19 17:09:15.709,5cd310705882710018e544b0,0,77,57,49,25,57,Male,,,"
  <table>
  <tr height=300>
    <td width=300 height=300><img src=""static/images/cards/back_of_red_moons.svg"" width=""175px"" height=""250px""></img></td>
    <td width=300 height=300><img src=""static/images/cards/4_of_red_moons.svg"" width=""175px"" height=""250px""></img></td>
  </tr>
  <tr height=200>
    <td width=300><img src=""static/images/keys/z.svg"" width=""35%"" height=""75%""></img></td>
    <td width=300><img src=""static/images/keys/m.svg"" width=""35%"" height=""75%""></img></td>
  </tr>
</table>
  ",,,,,,,,,,,,,,,,,,,,,,,,,,,,
168,0,,html-keyboard-response,168,424308,0.0-7.3-3.3,xyrdm932b3,2022-09-19 17:09:15.709,5cd310705882710018e544b0,0,77,57,49,25,57,Male,,,"<p style=""font-size:50px"">You win!
+10 points this round!</p>",,,,,,,,,,,,,,,,,,,,,,,,,,,,
169,0,,html-keyboard-response,169,424817,0.0-7.3-4.3,xyrdm932b3,2022-09-19 17:09:15.709,5cd310705882710018e544b0,0,77,57,49,25,57,Male,,,,,,1.0,choice,3.0,C,D,black,red,moons,moons,D,C,C,red,moons,3484.5999999046,1.0,0.0,NA,right,994.4000000954,4.0,0.0,1.0,,,
170,0,,html-keyboard-response,170,426847,0.0-7.4-0.4,xyrdm932b3,2022-09-19 17:09:15.709,5cd310705882710018e544b0,0,77,57,49,25,57,Male,2027.1000003815,,"
  <table>
  <tr height=300>
    <td width=300 height=300><img src=""static/images/cards/stack_of_red_moons.svg"" width=""175px"" height=""250px""></img></td>
    <td width=300 height=300><img src=""static/images/cards/stack_of_red_stars.svg"" width=""175px"" height=""250px""></img></td>
  </tr>
  <tr height=200>
    <td width=300><img src=""static/images/keys/w.svg"" width=""35%"" height=""75%""></img></td>
    <td width=300><img src=""static/images/keys/o.svg"" width=""35%"" height=""75%""></img></td>
  </tr>
</table>
  ",79.0,1.0,,,,,,,,,,,,,,,,,,,,,,,,,,
171,0,,html-keyboard-response,171,428967,0.0-7.4-1.4,xyrdm932b3,2022-09-19 17:09:15.709,5cd310705882710018e544b0,0,77,57,49,25,57,Male,1609.6000003815,,"
  <table>
  <tr height=300>
    <td width=300 height=300><img src=""static/images/cards/back_of_red_stars.svg"" width=""175px"" height=""250px""></img></td>
    <td width=300 height=300><img src=""static/images/cards/back_of_red_stars.svg"" width=""175px"" height=""250px""></img></td>
  </tr>
  <tr height=200>
    <td width=300><img src=""static/images/keys/z.svg"" width=""35%"" height=""75%""></img></td>
    <td width=300><img src=""static/images/keys/m.svg"" width=""35%"" height=""75%""></img></td>
  </tr>
</table>
  ",90.0,1.0,,,,,,,,,,,,,,,,,,,,,,,,,,
172,0,,html-keyboard-response,172,430479,0.0-7.4-2.4,xyrdm932b3,2022-09-19 17:09:15.709,5cd310705882710018e544b0,0,77,57,49,25,57,Male,,,"
  <table>
  <tr height=300>
    <td width=300 height=300><img src=""static/images/cards/8_of_red_stars.svg"" width=""175px"" height=""250px""></img></td>
    <td width=300 height=300><img src=""static/images/cards/back_of_red_stars.svg"" width=""175px"" height=""250px""></img></td>
  </tr>
  <tr height=200>
    <td width=300><img src=""static/images/keys/z.svg"" width=""35%"" height=""75%""></img></td>
    <td width=300><img src=""static/images/keys/m.svg"" width=""35%"" height=""75%""></img></td>
  </tr>
</table>
  ",,,,,,,,,,,,,,,,,,,,,,,,,,,,
173,0,,html-keyboard-response,173,431981,0.0-7.4-3.4,xyrdm932b3,2022-09-19 17:09:15.709,5cd310705882710018e544b0,0,77,57,49,25,57,Male,,,"<p style=""font-size:50px"">You win!
+10 points this round!</p>",,,,,,,,,,,,,,,,,,,,,,,,,,,,
174,0,,html-keyboard-response,174,432487,0.0-7.4-4.4,xyrdm932b3,2022-09-19 17:09:15.709,5cd310705882710018e544b0,0,77,57,49,25,57,Male,,,,,,1.0,choice,4.0,A,C,red,red,moons,stars,C,A,A,red,stars,2027.1000003815,1.0,1.0,NA,left,1609.6000003815,8.0,1.0,1.0,,,
175,0,,html-keyboard-response,175,434569,0.0-7.5-0.5,xyrdm932b3,2022-09-19 17:09:15.709,5cd310705882710018e544b0,0,77,57,49,25,57,Male,2077.7999997139,,"
  <table>
  <tr height=300>
    <td width=300 height=300><img src=""static/images/cards/stack_of_black_stars.svg"" width=""175px"" height=""250px""></img></td>
    <td width=300 height=300><img src=""static/images/cards/stack_of_black_moons.svg"" width=""175px"" height=""250px""></img></td>
  </tr>
  <tr height=200>
    <td width=300><img src=""static/images/keys/w.svg"" width=""35%"" height=""75%""></img></td>
    <td width=300><img src=""static/images/keys/o.svg"" width=""35%"" height=""75%""></img></td>
  </tr>
</table>
  ",87.0,1.0,,,,,,,,,,,,,,,,,,,,,,,,,,
176,0,,html-keyboard-response,176,436168,0.0-7.5-1.5,xyrdm932b3,2022-09-19 17:09:15.709,5cd310705882710018e544b0,0,77,57,49,25,57,Male,1084.1999998093,,"
  <table>
  <tr height=300>
    <td width=300 height=300><img src=""static/images/cards/back_of_black_stars.svg"" width=""175px"" height=""250px""></img></td>
    <td width=300 height=300><img src=""static/images/cards/back_of_black_stars.svg"" width=""175px"" height=""250px""></img></td>
  </tr>
  <tr height=200>
    <td width=300><img src=""static/images/keys/z.svg"" width=""35%"" height=""75%""></img></td>
    <td width=300></td>
  </tr>
</table>
  ",90.0,1.0,,,,,,,,,,,,,,,,,,,,,,,,,,
177,0,,html-keyboard-response,177,437679,0.0-7.5-2.5,xyrdm932b3,2022-09-19 17:09:15.709,5cd310705882710018e544b0,0,77,57,49,25,57,Male,,,"
  <table>
  <tr height=300>
    <td width=300 height=300><img src=""static/images/cards/3_of_black_stars.svg"" width=""175px"" height=""250px""></img></td>
    <td width=300 height=300><img src=""static/images/cards/back_of_black_stars.svg"" width=""175px"" height=""250px""></img></td>
  </tr>
  <tr height=200>
    <td width=300><img src=""static/images/keys/z.svg"" width=""35%"" height=""75%""></img></td>
    <td width=300></td>
  </tr>
</table>
  ",,,,,,,,,,,,,,,,,,,,,,,,,,,,
178,0,,html-keyboard-response,178,439190,0.0-7.5-3.5,xyrdm932b3,2022-09-19 17:09:15.709,5cd310705882710018e544b0,0,77,57,49,25,57,Male,,,"<p style=""font-size:50px"">You Lose!
No points this round.</p>",,,,,,,,,,,,,,,,,,,,,,,,,,,,
179,0,,html-keyboard-response,179,439703,0.0-7.5-4.5,xyrdm932b3,2022-09-19 17:09:15.709,5cd310705882710018e544b0,0,77,57,49,25,57,Male,,,,,,1.0,choice,5.0,B,D,black,black,stars,moons,B,D,B,black,stars,2077.7999997139,0.0,1.0,1,left,1084.1999998093,3.0,0.0,0.0,,,
180,0,,html-keyboard-response,180,442927,0.0-7.6-0.6,xyrdm932b3,2022-09-19 17:09:15.709,5cd310705882710018e544b0,0,77,57,49,25,57,Male,3220.9000000954,,"
  <table>
  <tr height=300>
    <td width=300 height=300><img src=""static/images/cards/stack_of_black_bolts.svg"" width=""175px"" height=""250px""></img></td>
    <td width=300 height=300><img src=""static/images/cards/stack_of_black_moons.svg"" width=""175px"" height=""250px""></img></td>
  </tr>
  <tr height=200>
    <td width=300><img src=""static/images/keys/w.svg"" width=""35%"" height=""75%""></img></td>
    <td width=300><img src=""static/images/keys/o.svg"" width=""35%"" height=""75%""></img></td>
  </tr>
</table>
  ",87.0,1.0,,,,,,,,,,,,,,,,,,,,,,,,,,
181,0,,html-keyboard-response,181,444768,0.0-7.6-1.6,xyrdm932b3,2022-09-19 17:09:15.709,5cd310705882710018e544b0,0,77,57,49,25,57,Male,1324.7000002861,,"
  <table>
  <tr height=300>
    <td width=300 height=300><img src=""static/images/cards/back_of_black_bolts.svg"" width=""175px"" height=""250px""></img></td>
    <td width=300 height=300><img src=""static/images/cards/back_of_black_bolts.svg"" width=""175px"" height=""250px""></img></td>
  </tr>
  <tr height=200>
    <td width=300></td>
    <td width=300><img src=""static/images/keys/m.svg"" width=""35%"" height=""75%""></img></td>
  </tr>
</table>
  ",77.0,1.0,,,,,,,,,,,,,,,,,,,,,,,,,,
182,0,,html-keyboard-response,182,446275,0.0-7.6-2.6,xyrdm932b3,2022-09-19 17:09:15.709,5cd310705882710018e544b0,0,77,57,49,25,57,Male,,,"
  <table>
  <tr height=300>
    <td width=300 height=300><img src=""static/images/cards/back_of_black_bolts.svg"" width=""175px"" height=""250px""></img></td>
    <td width=300 height=300><img src=""static/images/cards/1_of_black_bolts.svg"" width=""175px"" height=""250px""></img></td>
  </tr>
  <tr height=200>
    <td width=300></td>
    <td width=300><img src=""static/images/keys/m.svg"" width=""35%"" height=""75%""></img></td>
  </tr>
</table>
  ",,,,,,,,,,,,,,,,,,,,,,,,,,,,
183,0,,html-keyboard-response,183,447806,0.0-7.6-3.6,xyrdm932b3,2022-09-19 17:09:15.709,5cd310705882710018e544b0,0,77,57,49,25,57,Male,,,"<p style=""font-size:50px"">You win!
+10 points this round!</p>",,,,,,,,,,,,,,,,,,,,,,,,,,,,
184,0,,html-keyboard-response,184,448322,0.0-7.6-4.6,xyrdm932b3,2022-09-19 17:09:15.709,5cd310705882710018e544b0,0,77,57,49,25,57,Male,,,,,,1.0,choice,6.0,D,Xnc,black,black,bolts,moons,Xnc,D,Xnc,black,bolts,3220.9000000954,0.0,0.0,0,right,1324.7000002861,1.0,0.0,1.0,,,
185,0,,html-keyboard-response,185,449847,0.0-7.7-0.7,xyrdm932b3,2022-09-19 17:09:15.709,5cd310705882710018e544b0,0,77,57,49,25,57,Male,1521.7000002861,,"
  <table>
  <tr height=300>
    <td width=300 height=300><img src=""static/images/cards/stack_of_black_stars.svg"" width=""175px"" height=""250px""></img></td>
    <td width=300 height=300><img src=""static/images/cards/stack_of_red_moons.svg"" width=""175px"" height=""250px""></img></td>
  </tr>
  <tr height=200>
    <td width=300><img src=""static/images/keys/w.svg"" width=""35%"" height=""75%""></img></td>
    <td width=300><img src=""static/images/keys/o.svg"" width=""35%"" height=""75%""></img></td>
  </tr>
</table>
  ",87.0,1.0,,,,,,,,,,,,,,,,,,,,,,,,,,
186,0,,html-keyboard-response,186,451079,0.0-7.7-1.7,xyrdm932b3,2022-09-19 17:09:15.709,5cd310705882710018e544b0,0,77,57,49,25,57,Male,714.5,,"
  <table>
  <tr height=300>
    <td width=300 height=300><img src=""static/images/cards/back_of_black_stars.svg"" width=""175px"" height=""250px""></img></td>
    <td width=300 height=300><img src=""static/images/cards/back_of_black_stars.svg"" width=""175px"" height=""250px""></img></td>
  </tr>
  <tr height=200>
    <td width=300><img src=""static/images/keys/z.svg"" width=""35%"" height=""75%""></img></td>
    <td width=300></td>
  </tr>
</table>
  ",90.0,1.0,,,,,,,,,,,,,,,,,,,,,,,,,,
187,0,,html-keyboard-response,187,452598,0.0-7.7-2.7,xyrdm932b3,2022-09-19 17:09:15.709,5cd310705882710018e544b0,0,77,57,49,25,57,Male,,,"
  <table>
  <tr height=300>
    <td width=300 height=300><img src=""static/images/cards/1_of_black_stars.svg"" width=""175px"" height=""250px""></img></td>
    <td width=300 height=300><img src=""static/images/cards/back_of_black_stars.svg"" width=""175px"" height=""250px""></img></td>
  </tr>
  <tr height=200>
    <td width=300><img src=""static/images/keys/z.svg"" width=""35%"" height=""75%""></img></td>
    <td width=300></td>
  </tr>
</table>
  ",,,,,,,,,,,,,,,,,,,,,,,,,,,,
188,0,,html-keyboard-response,188,454103,0.0-7.7-3.7,xyrdm932b3,2022-09-19 17:09:15.709,5cd310705882710018e544b0,0,77,57,49,25,57,Male,,,"<p style=""font-size:50px"">You Lose!
No points this round.</p>",,,,,,,,,,,,,,,,,,,,,,,,,,,,
189,0,,html-keyboard-response,189,454621,0.0-7.7-4.7,xyrdm932b3,2022-09-19 17:09:15.709,5cd310705882710018e544b0,0,77,57,49,25,57,Male,,,,,,1.0,choice,7.0,B,C,black,red,stars,moons,B,C,B,black,stars,1521.7000002861,0.0,1.0,1,left,714.5,1.0,0.0,0.0,,,
190,0,,html-keyboard-response,190,456064,0.0-7.8-0.8,xyrdm932b3,2022-09-19 17:09:15.709,5cd310705882710018e544b0,0,77,57,49,25,57,Male,1439.5,,"
  <table>
  <tr height=300>
    <td width=300 height=300><img src=""static/images/cards/stack_of_red_stars.svg"" width=""175px"" height=""250px""></img></td>
    <td width=300 height=300><img src=""static/images/cards/stack_of_black_bolts.svg"" width=""175px"" height=""250px""></img></td>
  </tr>
  <tr height=200>
    <td width=300><img src=""static/images/keys/w.svg"" width=""35%"" height=""75%""></img></td>
    <td width=300><img src=""static/images/keys/o.svg"" width=""35%"" height=""75%""></img></td>
  </tr>
</table>
  ",79.0,1.0,,,,,,,,,,,,,,,,,,,,,,,,,,
191,0,,html-keyboard-response,191,457231,0.0-7.8-1.8,xyrdm932b3,2022-09-19 17:09:15.709,5cd310705882710018e544b0,0,77,57,49,25,57,Male,657.6999998093,,"
  <table>
  <tr height=300>
    <td width=300 height=300><img src=""static/images/cards/back_of_black_bolts.svg"" width=""175px"" height=""250px""></img></td>
    <td width=300 height=300><img src=""static/images/cards/back_of_black_bolts.svg"" width=""175px"" height=""250px""></img></td>
  </tr>
  <tr height=200>
    <td width=300></td>
    <td width=300><img src=""static/images/keys/m.svg"" width=""35%"" height=""75%""></img></td>
  </tr>
</table>
  ",77.0,1.0,,,,,,,,,,,,,,,,,,,,,,,,,,
192,0,,html-keyboard-response,192,458742,0.0-7.8-2.8,xyrdm932b3,2022-09-19 17:09:15.709,5cd310705882710018e544b0,0,77,57,49,25,57,Male,,,"
  <table>
  <tr height=300>
    <td width=300 height=300><img src=""static/images/cards/back_of_black_bolts.svg"" width=""175px"" height=""250px""></img></td>
    <td width=300 height=300><img src=""static/images/cards/9_of_black_bolts.svg"" width=""175px"" height=""250px""></img></td>
  </tr>
  <tr height=200>
    <td width=300></td>
    <td width=300><img src=""static/images/keys/m.svg"" width=""35%"" height=""75%""></img></td>
  </tr>
</table>
  ",,,,,,,,,,,,,,,,,,,,,,,,,,,,
193,0,,html-keyboard-response,193,460271,0.0-7.8-3.8,xyrdm932b3,2022-09-19 17:09:15.709,5cd310705882710018e544b0,0,77,57,49,25,57,Male,,,"<p style=""font-size:50px"">You win!
+10 points this round!</p>",,,,,,,,,,,,,,,,,,,,,,,,,,,,
194,0,,html-keyboard-response,194,460777,0.0-7.8-4.8,xyrdm932b3,2022-09-19 17:09:15.709,5cd310705882710018e544b0,0,77,57,49,25,57,Male,,,,,,1.0,choice,8.0,A,Xnc,red,black,stars,bolts,A,Xnc,Xnc,black,bolts,1439.5,0.0,0.0,0,right,657.6999998093,9.0,1.0,1.0,,,
195,0,,html-keyboard-response,195,462063,0.0-7.9-0.9,xyrdm932b3,2022-09-19 17:09:15.709,5cd310705882710018e544b0,0,77,57,49,25,57,Male,1282.5999999046,,"
  <table>
  <tr height=300>
    <td width=300 height=300><img src=""static/images/cards/stack_of_black_moons.svg"" width=""175px"" height=""250px""></img></td>
    <td width=300 height=300><img src=""static/images/cards/stack_of_black_stars.svg"" width=""175px"" height=""250px""></img></td>
  </tr>
  <tr height=200>
    <td width=300><img src=""static/images/keys/w.svg"" width=""35%"" height=""75%""></img></td>
    <td width=300><img src=""static/images/keys/o.svg"" width=""35%"" height=""75%""></img></td>
  </tr>
</table>
  ",79.0,1.0,,,,,,,,,,,,,,,,,,,,,,,,,,
196,0,,html-keyboard-response,196,463287,0.0-7.9-1.9,xyrdm932b3,2022-09-19 17:09:15.709,5cd310705882710018e544b0,0,77,57,49,25,57,Male,713.0,,"
  <table>
  <tr height=300>
    <td width=300 height=300><img src=""static/images/cards/back_of_black_stars.svg"" width=""175px"" height=""250px""></img></td>
    <td width=300 height=300><img src=""static/images/cards/back_of_black_stars.svg"" width=""175px"" height=""250px""></img></td>
  </tr>
  <tr height=200>
    <td width=300><img src=""static/images/keys/z.svg"" width=""35%"" height=""75%""></img></td>
    <td width=300></td>
  </tr>
</table>
  ",90.0,1.0,,,,,,,,,,,,,,,,,,,,,,,,,,
197,0,,html-keyboard-response,197,464798,0.0-7.9-2.9,xyrdm932b3,2022-09-19 17:09:15.709,5cd310705882710018e544b0,0,77,57,49,25,57,Male,,,"
  <table>
  <tr height=300>
    <td width=300 height=300><img src=""static/images/cards/3_of_black_stars.svg"" width=""175px"" height=""250px""></img></td>
    <td width=300 height=300><img src=""static/images/cards/back_of_black_stars.svg"" width=""175px"" height=""250px""></img></td>
  </tr>
  <tr height=200>
    <td width=300><img src=""static/images/keys/z.svg"" width=""35%"" height=""75%""></img></td>
    <td width=300></td>
  </tr>
</table>
  ",,,,,,,,,,,,,,,,,,,,,,,,,,,,
198,0,,html-keyboard-response,198,466304,0.0-7.9-3.9,xyrdm932b3,2022-09-19 17:09:15.709,5cd310705882710018e544b0,0,77,57,49,25,57,Male,,,"<p style=""font-size:50px"">You Lose!
No points this round.</p>",,,,,,,,,,,,,,,,,,,,,,,,,,,,
199,0,,html-keyboard-response,199,466815,0.0-7.9-4.9,xyrdm932b3,2022-09-19 17:09:15.709,5cd310705882710018e544b0,0,77,57,49,25,57,Male,,,,,,1.0,choice,9.0,B,D,black,black,moons,stars,D,B,B,black,stars,1282.5999999046,0.0,1.0,1,left,713.0,3.0,0.0,0.0,,,
200,0,,html-keyboard-response,200,467774,0.0-7.10-0.10,xyrdm932b3,2022-09-19 17:09:15.709,5cd310705882710018e544b0,0,77,57,49,25,57,Male,957.5,,"
  <table>
  <tr height=300>
    <td width=300 height=300><img src=""static/images/cards/stack_of_red_moons.svg"" width=""175px"" height=""250px""></img></td>
    <td width=300 height=300><img src=""static/images/cards/stack_of_black_stars.svg"" width=""175px"" height=""250px""></img></td>
  </tr>
  <tr height=200>
    <td width=300><img src=""static/images/keys/w.svg"" width=""35%"" height=""75%""></img></td>
    <td width=300><img src=""static/images/keys/o.svg"" width=""35%"" height=""75%""></img></td>
  </tr>
</table>
  ",87.0,1.0,,,,,,,,,,,,,,,,,,,,,,,,,,
201,0,,html-keyboard-response,201,469079,0.0-7.10-1.10,xyrdm932b3,2022-09-19 17:09:15.709,5cd310705882710018e544b0,0,77,57,49,25,57,Male,800.9000000954,,"
  <table>
  <tr height=300>
    <td width=300 height=300><img src=""static/images/cards/back_of_red_moons.svg"" width=""175px"" height=""250px""></img></td>
    <td width=300 height=300><img src=""static/images/cards/back_of_red_moons.svg"" width=""175px"" height=""250px""></img></td>
  </tr>
  <tr height=200>
    <td width=300><img src=""static/images/keys/z.svg"" width=""35%"" height=""75%""></img></td>
    <td width=300><img src=""static/images/keys/m.svg"" width=""35%"" height=""75%""></img></td>
  </tr>
</table>
  ",90.0,1.0,,,,,,,,,,,,,,,,,,,,,,,,,,
202,0,,html-keyboard-response,202,470591,0.0-7.10-2.10,xyrdm932b3,2022-09-19 17:09:15.709,5cd310705882710018e544b0,0,77,57,49,25,57,Male,,,"
  <table>
  <tr height=300>
    <td width=300 height=300><img src=""static/images/cards/10_of_red_moons.svg"" width=""175px"" height=""250px""></img></td>
    <td width=300 height=300><img src=""static/images/cards/back_of_red_moons.svg"" width=""175px"" height=""250px""></img></td>
  </tr>
  <tr height=200>
    <td width=300><img src=""static/images/keys/z.svg"" width=""35%"" height=""75%""></img></td>
    <td width=300><img src=""static/images/keys/m.svg"" width=""35%"" height=""75%""></img></td>
  </tr>
</table>
  ",,,,,,,,,,,,,,,,,,,,,,,,,,,,
203,0,,html-keyboard-response,203,472111,0.0-7.10-3.10,xyrdm932b3,2022-09-19 17:09:15.709,5cd310705882710018e544b0,0,77,57,49,25,57,Male,,,"<p style=""font-size:50px"">You Lose!
No points this round.</p>",,,,,,,,,,,,,,,,,,,,,,,,,,,,
204,0,,html-keyboard-response,204,472629,0.0-7.10-4.10,xyrdm932b3,2022-09-19 17:09:15.709,5cd310705882710018e544b0,0,77,57,49,25,57,Male,,,,,,1.0,choice,10.0,B,C,red,black,moons,stars,C,B,C,red,moons,957.5,1.0,0.0,NA,left,800.9000000954,10.0,1.0,0.0,,,
205,0,,html-keyboard-response,205,475223,0.0-7.11-0.11,xyrdm932b3,2022-09-19 17:09:15.709,5cd310705882710018e544b0,0,77,57,49,25,57,Male,2591.0,,"
  <table>
  <tr height=300>
    <td width=300 height=300><img src=""static/images/cards/stack_of_red_moons.svg"" width=""175px"" height=""250px""></img></td>
    <td width=300 height=300><img src=""static/images/cards/stack_of_black_moons.svg"" width=""175px"" height=""250px""></img></td>
  </tr>
  <tr height=200>
    <td width=300><img src=""static/images/keys/w.svg"" width=""35%"" height=""75%""></img></td>
    <td width=300><img src=""static/images/keys/o.svg"" width=""35%"" height=""75%""></img></td>
  </tr>
</table>
  ",87.0,2.0,,,,,,,,,,,,,,,,,,,,,,,,,,
206,0,,html-keyboard-response,206,476463,0.0-7.11-1.11,xyrdm932b3,2022-09-19 17:09:15.709,5cd310705882710018e544b0,0,77,57,49,25,57,Male,732.6999998093,,"
  <table>
  <tr height=300>
    <td width=300 height=300><img src=""static/images/cards/back_of_red_moons.svg"" width=""175px"" height=""250px""></img></td>
    <td width=300 height=300><img src=""static/images/cards/back_of_red_moons.svg"" width=""175px"" height=""250px""></img></td>
  </tr>
  <tr height=200>
    <td width=300><img src=""static/images/keys/z.svg"" width=""35%"" height=""75%""></img></td>
    <td width=300><img src=""static/images/keys/m.svg"" width=""35%"" height=""75%""></img></td>
  </tr>
</table>
  ",90.0,1.0,,,,,,,,,,,,,,,,,,,,,,,,,,
207,0,,html-keyboard-response,207,477980,0.0-7.11-2.11,xyrdm932b3,2022-09-19 17:09:15.709,5cd310705882710018e544b0,0,77,57,49,25,57,Male,,,"
  <table>
  <tr height=300>
    <td width=300 height=300><img src=""static/images/cards/2_of_red_moons.svg"" width=""175px"" height=""250px""></img></td>
    <td width=300 height=300><img src=""static/images/cards/back_of_red_moons.svg"" width=""175px"" height=""250px""></img></td>
  </tr>
  <tr height=200>
    <td width=300><img src=""static/images/keys/z.svg"" width=""35%"" height=""75%""></img></td>
    <td width=300><img src=""static/images/keys/m.svg"" width=""35%"" height=""75%""></img></td>
  </tr>
</table>
  ",,,,,,,,,,,,,,,,,,,,,,,,,,,,
208,0,,html-keyboard-response,208,479499,0.0-7.11-3.11,xyrdm932b3,2022-09-19 17:09:15.709,5cd310705882710018e544b0,0,77,57,49,25,57,Male,,,"<p style=""font-size:50px"">You win!
+10 points this round!</p>",,,,,,,,,,,,,,,,,,,,,,,,,,,,
209,0,,html-keyboard-response,209,480011,0.0-7.11-4.11,xyrdm932b3,2022-09-19 17:09:15.709,5cd310705882710018e544b0,0,77,57,49,25,57,Male,,,,,,1.0,choice,11.0,C,D,red,black,moons,moons,C,D,C,red,moons,2591.0,1.0,0.0,NA,left,732.6999998093,2.0,0.0,1.0,,,
210,0,,html-keyboard-response,210,480864,0.0-7.12-0.12,xyrdm932b3,2022-09-19 17:09:15.709,5cd310705882710018e544b0,0,77,57,49,25,57,Male,849.3000001907,,"
  <table>
  <tr height=300>
    <td width=300 height=300><img src=""static/images/cards/stack_of_red_moons.svg"" width=""175px"" height=""250px""></img></td>
    <td width=300 height=300><img src=""static/images/cards/stack_of_black_stars.svg"" width=""175px"" height=""250px""></img></td>
  </tr>
  <tr height=200>
    <td width=300><img src=""static/images/keys/w.svg"" width=""35%"" height=""75%""></img></td>
    <td width=300><img src=""static/images/keys/o.svg"" width=""35%"" height=""75%""></img></td>
  </tr>
</table>
  ",87.0,1.0,,,,,,,,,,,,,,,,,,,,,,,,,,
211,0,,html-keyboard-response,211,481943,0.0-7.12-1.12,xyrdm932b3,2022-09-19 17:09:15.709,5cd310705882710018e544b0,0,77,57,49,25,57,Male,561.6999998093,,"
  <table>
  <tr height=300>
    <td width=300 height=300><img src=""static/images/cards/back_of_red_moons.svg"" width=""175px"" height=""250px""></img></td>
    <td width=300 height=300><img src=""static/images/cards/back_of_red_moons.svg"" width=""175px"" height=""250px""></img></td>
  </tr>
  <tr height=200>
    <td width=300><img src=""static/images/keys/z.svg"" width=""35%"" height=""75%""></img></td>
    <td width=300><img src=""static/images/keys/m.svg"" width=""35%"" height=""75%""></img></td>
  </tr>
</table>
  ",90.0,1.0,,,,,,,,,,,,,,,,,,,,,,,,,,
212,0,,html-keyboard-response,212,483456,0.0-7.12-2.12,xyrdm932b3,2022-09-19 17:09:15.709,5cd310705882710018e544b0,0,77,57,49,25,57,Male,,,"
  <table>
  <tr height=300>
    <td width=300 height=300><img src=""static/images/cards/9_of_red_moons.svg"" width=""175px"" height=""250px""></img></td>
    <td width=300 height=300><img src=""static/images/cards/back_of_red_moons.svg"" width=""175px"" height=""250px""></img></td>
  </tr>
  <tr height=200>
    <td width=300><img src=""static/images/keys/z.svg"" width=""35%"" height=""75%""></img></td>
    <td width=300><img src=""static/images/keys/m.svg"" width=""35%"" height=""75%""></img></td>
  </tr>
</table>
  ",,,,,,,,,,,,,,,,,,,,,,,,,,,,
213,0,,html-keyboard-response,213,484977,0.0-7.12-3.12,xyrdm932b3,2022-09-19 17:09:15.709,5cd310705882710018e544b0,0,77,57,49,25,57,Male,,,"<p style=""font-size:50px"">You Lose!
No points this round.</p>",,,,,,,,,,,,,,,,,,,,,,,,,,,,
214,0,,html-keyboard-response,214,485496,0.0-7.12-4.12,xyrdm932b3,2022-09-19 17:09:15.709,5cd310705882710018e544b0,0,77,57,49,25,57,Male,,,,,,1.0,choice,12.0,B,C,red,black,moons,stars,C,B,C,red,moons,849.3000001907,1.0,0.0,NA,left,561.6999998093,9.0,1.0,0.0,,,
215,0,,html-keyboard-response,215,487128,0.0-7.13-0.13,xyrdm932b3,2022-09-19 17:09:15.709,5cd310705882710018e544b0,0,77,57,49,25,57,Male,1627.2000002861,,"
  <table>
  <tr height=300>
    <td width=300 height=300><img src=""static/images/cards/stack_of_black_moons.svg"" width=""175px"" height=""250px""></img></td>
    <td width=300 height=300><img src=""static/images/cards/stack_of_red_stars.svg"" width=""175px"" height=""250px""></img></td>
  </tr>
  <tr height=200>
    <td width=300><img src=""static/images/keys/w.svg"" width=""35%"" height=""75%""></img></td>
    <td width=300><img src=""static/images/keys/o.svg"" width=""35%"" height=""75%""></img></td>
  </tr>
</table>
  ",79.0,1.0,,,,,,,,,,,,,,,,,,,,,,,,,,
216,0,,html-keyboard-response,216,488840,0.0-7.13-1.13,xyrdm932b3,2022-09-19 17:09:15.709,5cd310705882710018e544b0,0,77,57,49,25,57,Male,1204.2999997139,,"
  <table>
  <tr height=300>
    <td width=300 height=300><img src=""static/images/cards/back_of_red_stars.svg"" width=""175px"" height=""250px""></img></td>
    <td width=300 height=300><img src=""static/images/cards/back_of_red_stars.svg"" width=""175px"" height=""250px""></img></td>
  </tr>
  <tr height=200>
    <td width=300><img src=""static/images/keys/z.svg"" width=""35%"" height=""75%""></img></td>
    <td width=300><img src=""static/images/keys/m.svg"" width=""35%"" height=""75%""></img></td>
  </tr>
</table>
  ",90.0,1.0,,,,,,,,,,,,,,,,,,,,,,,,,,
217,0,,html-keyboard-response,217,490353,0.0-7.13-2.13,xyrdm932b3,2022-09-19 17:09:15.709,5cd310705882710018e544b0,0,77,57,49,25,57,Male,,,"
  <table>
  <tr height=300>
    <td width=300 height=300><img src=""static/images/cards/1_of_red_stars.svg"" width=""175px"" height=""250px""></img></td>
    <td width=300 height=300><img src=""static/images/cards/back_of_red_stars.svg"" width=""175px"" height=""250px""></img></td>
  </tr>
  <tr height=200>
    <td width=300><img src=""static/images/keys/z.svg"" width=""35%"" height=""75%""></img></td>
    <td width=300><img src=""static/images/keys/m.svg"" width=""35%"" height=""75%""></img></td>
  </tr>
</table>
  ",,,,,,,,,,,,,,,,,,,,,,,,,,,,
218,0,,html-keyboard-response,218,491869,0.0-7.13-3.13,xyrdm932b3,2022-09-19 17:09:15.709,5cd310705882710018e544b0,0,77,57,49,25,57,Male,,,"<p style=""font-size:50px"">You Lose!
No points this round.</p>",,,,,,,,,,,,,,,,,,,,,,,,,,,,
219,0,,html-keyboard-response,219,492378,0.0-7.13-4.13,xyrdm932b3,2022-09-19 17:09:15.709,5cd310705882710018e544b0,0,77,57,49,25,57,Male,,,,,,1.0,choice,13.0,A,D,black,red,moons,stars,D,A,A,red,stars,1627.2000002861,1.0,1.0,NA,left,1204.2999997139,1.0,0.0,0.0,,,
220,0,,html-keyboard-response,220,493983,0.0-7.14-0.14,xyrdm932b3,2022-09-19 17:09:15.709,5cd310705882710018e544b0,0,77,57,49,25,57,Male,1601.2999997139,,"
  <table>
  <tr height=300>
    <td width=300 height=300><img src=""static/images/cards/stack_of_black_stars.svg"" width=""175px"" height=""250px""></img></td>
    <td width=300 height=300><img src=""static/images/cards/stack_of_red_stars.svg"" width=""175px"" height=""250px""></img></td>
  </tr>
  <tr height=200>
    <td width=300><img src=""static/images/keys/w.svg"" width=""35%"" height=""75%""></img></td>
    <td width=300><img src=""static/images/keys/o.svg"" width=""35%"" height=""75%""></img></td>
  </tr>
</table>
  ",79.0,1.0,,,,,,,,,,,,,,,,,,,,,,,,,,
221,0,,html-keyboard-response,221,495320,0.0-7.14-1.14,xyrdm932b3,2022-09-19 17:09:15.709,5cd310705882710018e544b0,0,77,57,49,25,57,Male,830.5,,"
  <table>
  <tr height=300>
    <td width=300 height=300><img src=""static/images/cards/back_of_red_stars.svg"" width=""175px"" height=""250px""></img></td>
    <td width=300 height=300><img src=""static/images/cards/back_of_red_stars.svg"" width=""175px"" height=""250px""></img></td>
  </tr>
  <tr height=200>
    <td width=300><img src=""static/images/keys/z.svg"" width=""35%"" height=""75%""></img></td>
    <td width=300><img src=""static/images/keys/m.svg"" width=""35%"" height=""75%""></img></td>
  </tr>
</table>
  ",77.0,1.0,,,,,,,,,,,,,,,,,,,,,,,,,,
222,0,,html-keyboard-response,222,496829,0.0-7.14-2.14,xyrdm932b3,2022-09-19 17:09:15.709,5cd310705882710018e544b0,0,77,57,49,25,57,Male,,,"
  <table>
  <tr height=300>
    <td width=300 height=300><img src=""static/images/cards/back_of_red_stars.svg"" width=""175px"" height=""250px""></img></td>
    <td width=300 height=300><img src=""static/images/cards/7_of_red_stars.svg"" width=""175px"" height=""250px""></img></td>
  </tr>
  <tr height=200>
    <td width=300><img src=""static/images/keys/z.svg"" width=""35%"" height=""75%""></img></td>
    <td width=300><img src=""static/images/keys/m.svg"" width=""35%"" height=""75%""></img></td>
  </tr>
</table>
  ",,,,,,,,,,,,,,,,,,,,,,,,,,,,
223,0,,html-keyboard-response,223,498351,0.0-7.14-3.14,xyrdm932b3,2022-09-19 17:09:15.709,5cd310705882710018e544b0,0,77,57,49,25,57,Male,,,"<p style=""font-size:50px"">You win!
+10 points this round!</p>",,,,,,,,,,,,,,,,,,,,,,,,,,,,
224,0,,html-keyboard-response,224,498871,0.0-7.14-4.14,xyrdm932b3,2022-09-19 17:09:15.709,5cd310705882710018e544b0,0,77,57,49,25,57,Male,,,,,,1.0,choice,14.0,A,B,black,red,stars,stars,B,A,A,red,stars,1601.2999997139,1.0,1.0,NA,right,830.5,7.0,1.0,1.0,,,
225,0,,html-keyboard-response,225,500488,0.0-7.15-0.15,xyrdm932b3,2022-09-19 17:09:15.709,5cd310705882710018e544b0,0,77,57,49,25,57,Male,1613.0999999046,,"
  <table>
  <tr height=300>
    <td width=300 height=300><img src=""static/images/cards/stack_of_black_stars.svg"" width=""175px"" height=""250px""></img></td>
    <td width=300 height=300><img src=""static/images/cards/stack_of_black_moons.svg"" width=""175px"" height=""250px""></img></td>
  </tr>
  <tr height=200>
    <td width=300><img src=""static/images/keys/w.svg"" width=""35%"" height=""75%""></img></td>
    <td width=300><img src=""static/images/keys/o.svg"" width=""35%"" height=""75%""></img></td>
  </tr>
</table>
  ",87.0,1.0,,,,,,,,,,,,,,,,,,,,,,,,,,
226,0,,html-keyboard-response,226,501718,0.0-7.15-1.15,xyrdm932b3,2022-09-19 17:09:15.709,5cd310705882710018e544b0,0,77,57,49,25,57,Male,724.0999999046,,"
  <table>
  <tr height=300>
    <td width=300 height=300><img src=""static/images/cards/back_of_black_stars.svg"" width=""175px"" height=""250px""></img></td>
    <td width=300 height=300><img src=""static/images/cards/back_of_black_stars.svg"" width=""175px"" height=""250px""></img></td>
  </tr>
  <tr height=200>
    <td width=300><img src=""static/images/keys/z.svg"" width=""35%"" height=""75%""></img></td>
    <td width=300></td>
  </tr>
</table>
  ",90.0,1.0,,,,,,,,,,,,,,,,,,,,,,,,,,
227,0,,html-keyboard-response,227,503225,0.0-7.15-2.15,xyrdm932b3,2022-09-19 17:09:15.709,5cd310705882710018e544b0,0,77,57,49,25,57,Male,,,"
  <table>
  <tr height=300>
    <td width=300 height=300><img src=""static/images/cards/9_of_black_stars.svg"" width=""175px"" height=""250px""></img></td>
    <td width=300 height=300><img src=""static/images/cards/back_of_black_stars.svg"" width=""175px"" height=""250px""></img></td>
  </tr>
  <tr height=200>
    <td width=300><img src=""static/images/keys/z.svg"" width=""35%"" height=""75%""></img></td>
    <td width=300></td>
  </tr>
</table>
  ",,,,,,,,,,,,,,,,,,,,,,,,,,,,
228,0,,html-keyboard-response,228,504745,0.0-7.15-3.15,xyrdm932b3,2022-09-19 17:09:15.709,5cd310705882710018e544b0,0,77,57,49,25,57,Male,,,"<p style=""font-size:50px"">You win!
+10 points this round!</p>",,,,,,,,,,,,,,,,,,,,,,,,,,,,
229,0,,html-keyboard-response,229,505255,0.0-7.15-4.15,xyrdm932b3,2022-09-19 17:09:15.709,5cd310705882710018e544b0,0,77,57,49,25,57,Male,,,,,,1.0,choice,15.0,B,D,black,black,stars,moons,B,D,B,black,stars,1613.0999999046,0.0,1.0,1,left,724.0999999046,9.0,1.0,1.0,,,
230,0,,html-keyboard-response,230,506481,0.0-7.16-0.16,xyrdm932b3,2022-09-19 17:09:15.709,5cd310705882710018e544b0,0,77,57,49,25,57,Male,1222.6000003815,,"
  <table>
  <tr height=300>
    <td width=300 height=300><img src=""static/images/cards/stack_of_black_moons.svg"" width=""175px"" height=""250px""></img></td>
    <td width=300 height=300><img src=""static/images/cards/stack_of_red_moons.svg"" width=""175px"" height=""250px""></img></td>
  </tr>
  <tr height=200>
    <td width=300><img src=""static/images/keys/w.svg"" width=""35%"" height=""75%""></img></td>
    <td width=300><img src=""static/images/keys/o.svg"" width=""35%"" height=""75%""></img></td>
  </tr>
</table>
  ",79.0,1.0,,,,,,,,,,,,,,,,,,,,,,,,,,
231,0,,html-keyboard-response,231,507872,0.0-7.16-1.16,xyrdm932b3,2022-09-19 17:09:15.709,5cd310705882710018e544b0,0,77,57,49,25,57,Male,878.4000000954,,"
  <table>
  <tr height=300>
    <td width=300 height=300><img src=""static/images/cards/back_of_red_moons.svg"" width=""175px"" height=""250px""></img></td>
    <td width=300 height=300><img src=""static/images/cards/back_of_red_moons.svg"" width=""175px"" height=""250px""></img></td>
  </tr>
  <tr height=200>
    <td width=300><img src=""static/images/keys/z.svg"" width=""35%"" height=""75%""></img></td>
    <td width=300><img src=""static/images/keys/m.svg"" width=""35%"" height=""75%""></img></td>
  </tr>
</table>
  ",90.0,1.0,,,,,,,,,,,,,,,,,,,,,,,,,,
232,0,,html-keyboard-response,232,509390,0.0-7.16-2.16,xyrdm932b3,2022-09-19 17:09:15.709,5cd310705882710018e544b0,0,77,57,49,25,57,Male,,,"
  <table>
  <tr height=300>
    <td width=300 height=300><img src=""static/images/cards/6_of_red_moons.svg"" width=""175px"" height=""250px""></img></td>
    <td width=300 height=300><img src=""static/images/cards/back_of_red_moons.svg"" width=""175px"" height=""250px""></img></td>
  </tr>
  <tr height=200>
    <td width=300><img src=""static/images/keys/z.svg"" width=""35%"" height=""75%""></img></td>
    <td width=300><img src=""static/images/keys/m.svg"" width=""35%"" height=""75%""></img></td>
  </tr>
</table>
  ",,,,,,,,,,,,,,,,,,,,,,,,,,,,
233,0,,html-keyboard-response,233,510905,0.0-7.16-3.16,xyrdm932b3,2022-09-19 17:09:15.709,5cd310705882710018e544b0,0,77,57,49,25,57,Male,,,"<p style=""font-size:50px"">You win!
+10 points this round!</p>",,,,,,,,,,,,,,,,,,,,,,,,,,,,
