,index,success,trial_type,trial_index,time_elapsed,internal_node_id,subject,date,prol_id,ctbl,sense_of_control_A,sense_of_control_B,sense_of_control_C,sense_of_control_D,age,gender,rt,url,stimulus,key_press,npress,is_data_trial,phase,trial,deck1,deck2,col1,col2,sym1,sym2,deck_l,deck_r,chosen_deck,chosen_col,chosen_sym,deck_rt,choose_choice,mutual_info,hidden_key,chosen_card,card_rt,player_num,win_card,outcome,mock_rating,response,responses
0,0,1.0,fullscreen,0,18541,0.0-0.0,gfuy4yxi454,2022-09-19 16:22:30.400,615efd1df11a7d21f0f12f68,1,56,79,62,62,33,FEMALE,,,,,,,,,,,,,,,,,,,,,,,,,,,,,,,
1,0,,external-html,1,23899,0.0-1.0,gfuy4yxi454,2022-09-19 16:22:30.400,615efd1df11a7d21f0f12f68,1,56,79,62,62,33,FEMALE,3809.0,static/js/sub/consent.html,,,,,,,,,,,,,,,,,,,,,,,,,,,,,
2,0,,call-function,2,23904,0.0-2.0,gfuy4yxi454,2022-09-19 16:22:30.400,615efd1df11a7d21f0f12f68,1,56,79,62,62,33,FEMALE,,,,,,,,,,,,,,,,,,,,,,,,,,,,,,,
3,0,,image-keyboard-response,3,31681,0.0-3.0-0.0,gfuy4yxi454,2022-09-19 16:22:30.400,615efd1df11a7d21f0f12f68,1,56,79,62,62,33,FEMALE,7772.0,,static/images/instructions_CB_1/Slide1.png,39.0,,,,,,,,,,,,,,,,,,,,,,,,,,,
4,0,,image-keyboard-response,4,44267,0.0-3.1-0.1,gfuy4yxi454,2022-09-19 16:22:30.400,615efd1df11a7d21f0f12f68,1,56,79,62,62,33,FEMALE,12582.0,,static/images/instructions_CB_1/Slide2.png,39.0,,,,,,,,,,,,,,,,,,,,,,,,,,,
5,0,,image-keyboard-response,5,52562,0.0-3.2-0.2,gfuy4yxi454,2022-09-19 16:22:30.400,615efd1df11a7d21f0f12f68,1,56,79,62,62,33,FEMALE,8266.0,,static/images/instructions_CB_1/Slide3.png,39.0,,,,,,,,,,,,,,,,,,,,,,,,,,,
6,0,,image-keyboard-response,6,59028,0.0-3.3-0.3,gfuy4yxi454,2022-09-19 16:22:30.400,615efd1df11a7d21f0f12f68,1,56,79,62,62,33,FEMALE,6455.0,,static/images/instructions_CB_1/Slide4.png,39.0,,,,,,,,,,,,,,,,,,,,,,,,,,,
7,0,,image-keyboard-response,7,75241,0.0-3.4-0.4,gfuy4yxi454,2022-09-19 16:22:30.400,615efd1df11a7d21f0f12f68,1,56,79,62,62,33,FEMALE,16206.0,,static/images/instructions_CB_1/Slide5.png,39.0,,,,,,,,,,,,,,,,,,,,,,,,,,,
8,0,,image-keyboard-response,8,80010,0.0-3.5-0.5,gfuy4yxi454,2022-09-19 16:22:30.400,615efd1df11a7d21f0f12f68,1,56,79,62,62,33,FEMALE,4755.0,,static/images/instructions_CB_1/Slide6.png,39.0,,,,,,,,,,,,,,,,,,,,,,,,,,,
9,0,,image-keyboard-response,9,90013,0.0-3.6-0.6,gfuy4yxi454,2022-09-19 16:22:30.400,615efd1df11a7d21f0f12f68,1,56,79,62,62,33,FEMALE,9991.0,,static/images/instructions_CB_1/Slide7.png,39.0,,,,,,,,,,,,,,,,,,,,,,,,,,,
10,0,,image-keyboard-response,10,113295,0.0-3.7-0.7,gfuy4yxi454,2022-09-19 16:22:30.400,615efd1df11a7d21f0f12f68,1,56,79,62,62,33,FEMALE,23278.0,,static/images/instructions_CB_1/Slide8.png,39.0,,,,,,,,,,,,,,,,,,,,,,,,,,,
11,0,,image-keyboard-response,11,128560,0.0-3.8-0.8,gfuy4yxi454,2022-09-19 16:22:30.400,615efd1df11a7d21f0f12f68,1,56,79,62,62,33,FEMALE,15251.0,,static/images/instructions_CB_1/Slide9.png,39.0,,,,,,,,,,,,,,,,,,,,,,,,,,,
12,0,,image-keyboard-response,12,161973,0.0-3.9-0.9,gfuy4yxi454,2022-09-19 16:22:30.400,615efd1df11a7d21f0f12f68,1,56,79,62,62,33,FEMALE,33400.0,,static/images/instructions_CB_1/Slide10.png,39.0,,,,,,,,,,,,,,,,,,,,,,,,,,,
13,0,,image-keyboard-response,13,175182,0.0-3.10-0.10,gfuy4yxi454,2022-09-19 16:22:30.400,615efd1df11a7d21f0f12f68,1,56,79,62,62,33,FEMALE,13197.0,,static/images/instructions_CB_1/Slide11.png,39.0,,,,,,,,,,,,,,,,,,,,,,,,,,,
14,0,,image-keyboard-response,14,192958,0.0-3.11-0.11,gfuy4yxi454,2022-09-19 16:22:30.400,615efd1df11a7d21f0f12f68,1,56,79,62,62,33,FEMALE,17774.0,,static/images/instructions_CB_1/Slide12.png,39.0,,,,,,,,,,,,,,,,,,,,,,,,,,,
15,0,,image-keyboard-response,15,211401,0.0-3.12-0.12,gfuy4yxi454,2022-09-19 16:22:30.400,615efd1df11a7d21f0f12f68,1,56,79,62,62,33,FEMALE,18437.0,,static/images/instructions_CB_1/Slide13.png,39.0,,,,,,,,,,,,,,,,,,,,,,,,,,,
16,0,,image-keyboard-response,16,215761,0.0-3.13-0.13,gfuy4yxi454,2022-09-19 16:22:30.400,615efd1df11a7d21f0f12f68,1,56,79,62,62,33,FEMALE,4348.0,,static/images/instructions_CB_1/Slide14.png,39.0,,,,,,,,,,,,,,,,,,,,,,,,,,,
17,0,,image-keyboard-response,17,219759,0.0-3.14-0.14,gfuy4yxi454,2022-09-19 16:22:30.400,615efd1df11a7d21f0f12f68,1,56,79,62,62,33,FEMALE,3996.0,,static/images/instructions_CB_1/Slide15.png,39.0,,,,,,,,,,,,,,,,,,,,,,,,,,,
18,0,,image-keyboard-response,18,228626,0.0-3.15-0.15,gfuy4yxi454,2022-09-19 16:22:30.400,615efd1df11a7d21f0f12f68,1,56,79,62,62,33,FEMALE,8856.0,,static/images/instructions_CB_1/Slide16.png,39.0,,,,,,,,,,,,,,,,,,,,,,,,,,,
19,0,,image-keyboard-response,19,233938,0.0-3.16-0.16,gfuy4yxi454,2022-09-19 16:22:30.400,615efd1df11a7d21f0f12f68,1,56,79,62,62,33,FEMALE,5306.0,,static/images/instructions_CB_1/Slide17.png,39.0,,,,,,,,,,,,,,,,,,,,,,,,,,,
20,0,,image-keyboard-response,20,259244,0.0-3.17-0.17,gfuy4yxi454,2022-09-19 16:22:30.400,615efd1df11a7d21f0f12f68,1,56,79,62,62,33,FEMALE,25302.0,,static/images/instructions_CB_1/Slide18.png,39.0,,,,,,,,,,,,,,,,,,,,,,,,,,,
21,0,,image-keyboard-response,21,261024,0.0-3.18-0.18,gfuy4yxi454,2022-09-19 16:22:30.400,615efd1df11a7d21f0f12f68,1,56,79,62,62,33,FEMALE,1778.0,,static/images/instructions_CB_1/Slide19.png,39.0,,,,,,,,,,,,,,,,,,,,,,,,,,,
22,0,,html-keyboard-response,22,262527,0.0-4.0-0.0,gfuy4yxi454,2022-09-19 16:22:30.400,615efd1df11a7d21f0f12f68,1,56,79,62,62,33,FEMALE,,,"<img src=""static/images/cards/stack_of_red_moons.svg"" width=""175px"" height=""250px""></img>",,,,,,,,,,,,,,,,,,,,,,,,,,,,
23,0,,html-keyboard-response,23,264048,0.0-4.0-1.0,gfuy4yxi454,2022-09-19 16:22:30.400,615efd1df11a7d21f0f12f68,1,56,79,62,62,33,FEMALE,1000.0,,"
  <table>
  <tr height=300>
    <td width=300 height=300><img src=""static/images/cards/back_of_red_moons.svg"" width=""175px"" height=""250px""></img></td>
    <td width=300 height=300><img src=""static/images/cards/back_of_red_moons.svg"" width=""175px"" height=""250px""></img></td>
  </tr>
  <tr height=200>
    <td width=300><img src=""static/images/keys/z.svg"" width=""35%"" height=""75%""></img></td>
    <td width=300><img src=""static/images/keys/m.svg"" width=""35%"" height=""75%""></img></td>
  </tr>
</table>
  ",90.0,1.0,,,,,,,,,,,,,,,,,,,,,,,,,,
24,0,,html-keyboard-response,24,265562,0.0-4.0-2.0,gfuy4yxi454,2022-09-19 16:22:30.400,615efd1df11a7d21f0f12f68,1,56,79,62,62,33,FEMALE,,,"
  <table>
  <tr height=300>
    <td width=300 height=300><img src=""static/images/cards/10_of_red_moons.svg"" width=""175px"" height=""250px""></img></td>
    <td width=300 height=300><img src=""static/images/cards/back_of_red_moons.svg"" width=""175px"" height=""250px""></img></td>
  </tr>
  <tr height=200>
    <td width=300><img src=""static/images/keys/z.svg"" width=""35%"" height=""75%""></img></td>
    <td width=300><img src=""static/images/keys/m.svg"" width=""35%"" height=""75%""></img></td>
  </tr>
</table>
  ",,,,,,,,,,,,,,,,,,,,,,,,,,,,
25,0,,html-keyboard-response,25,267064,0.0-4.0-3.0,gfuy4yxi454,2022-09-19 16:22:30.400,615efd1df11a7d21f0f12f68,1,56,79,62,62,33,FEMALE,,,"<p style=""font-size:50px"">You win!
+10 points this round!</p>",,,,,,,,,,,,,,,,,,,,,,,,,,,,
26,0,,html-keyboard-response,26,267598,0.0-4.0-4.0,gfuy4yxi454,2022-09-19 16:22:30.400,615efd1df11a7d21f0f12f68,1,56,79,62,62,33,FEMALE,,,,,,1.0,learning,0.0,A,,red,,moons,,,,A,red,moons,,1.0,1.0,NA,left,1000.0,10.0,1.0,1.0,,,
27,0,,html-keyboard-response,27,269118,0.0-4.1-0.1,gfuy4yxi454,2022-09-19 16:22:30.400,615efd1df11a7d21f0f12f68,1,56,79,62,62,33,FEMALE,,,"<img src=""static/images/cards/stack_of_black_moons.svg"" width=""175px"" height=""250px""></img>",,,,,,,,,,,,,,,,,,,,,,,,,,,,
28,0,,html-keyboard-response,28,270791,0.0-4.1-1.1,gfuy4yxi454,2022-09-19 16:22:30.400,615efd1df11a7d21f0f12f68,1,56,79,62,62,33,FEMALE,1149.0,,"
  <table>
  <tr height=300>
    <td width=300 height=300><img src=""static/images/cards/back_of_black_moons.svg"" width=""175px"" height=""250px""></img></td>
    <td width=300 height=300><img src=""static/images/cards/back_of_black_moons.svg"" width=""175px"" height=""250px""></img></td>
  </tr>
  <tr height=200>
    <td width=300><img src=""static/images/keys/z.svg"" width=""35%"" height=""75%""></img></td>
    <td width=300></td>
  </tr>
</table>
  ",90.0,1.0,,,,,,,,,,,,,,,,,,,,,,,,,,
29,0,,html-keyboard-response,29,272308,0.0-4.1-2.1,gfuy4yxi454,2022-09-19 16:22:30.400,615efd1df11a7d21f0f12f68,1,56,79,62,62,33,FEMALE,,,"
  <table>
  <tr height=300>
    <td width=300 height=300><img src=""static/images/cards/9_of_black_moons.svg"" width=""175px"" height=""250px""></img></td>
    <td width=300 height=300><img src=""static/images/cards/back_of_black_moons.svg"" width=""175px"" height=""250px""></img></td>
  </tr>
  <tr height=200>
    <td width=300><img src=""static/images/keys/z.svg"" width=""35%"" height=""75%""></img></td>
    <td width=300></td>
  </tr>
</table>
  ",,,,,,,,,,,,,,,,,,,,,,,,,,,,
30,0,,html-keyboard-response,30,273814,0.0-4.1-3.1,gfuy4yxi454,2022-09-19 16:22:30.400,615efd1df11a7d21f0f12f68,1,56,79,62,62,33,FEMALE,,,"<p style=""font-size:50px"">You win!
+10 points this round!</p>",,,,,,,,,,,,,,,,,,,,,,,,,,,,
31,0,,html-keyboard-response,31,274335,0.0-4.1-4.1,gfuy4yxi454,2022-09-19 16:22:30.400,615efd1df11a7d21f0f12f68,1,56,79,62,62,33,FEMALE,,,,,,1.0,learning,1.0,B,,black,,moons,,,,B,black,moons,,0.0,1.0,1,left,1149.0,9.0,1.0,1.0,,,
32,0,,html-keyboard-response,32,275836,0.0-4.2-0.2,gfuy4yxi454,2022-09-19 16:22:30.400,615efd1df11a7d21f0f12f68,1,56,79,62,62,33,FEMALE,,,"<img src=""static/images/cards/stack_of_red_stars.svg"" width=""175px"" height=""250px""></img>",,,,,,,,,,,,,,,,,,,,,,,,,,,,
33,0,,html-keyboard-response,33,277725,0.0-4.2-1.2,gfuy4yxi454,2022-09-19 16:22:30.400,615efd1df11a7d21f0f12f68,1,56,79,62,62,33,FEMALE,1382.0,,"
  <table>
  <tr height=300>
    <td width=300 height=300><img src=""static/images/cards/back_of_red_stars.svg"" width=""175px"" height=""250px""></img></td>
    <td width=300 height=300><img src=""static/images/cards/back_of_red_stars.svg"" width=""175px"" height=""250px""></img></td>
  </tr>
  <tr height=200>
    <td width=300><img src=""static/images/keys/z.svg"" width=""35%"" height=""75%""></img></td>
    <td width=300><img src=""static/images/keys/m.svg"" width=""35%"" height=""75%""></img></td>
  </tr>
</table>
  ",90.0,1.0,,,,,,,,,,,,,,,,,,,,,,,,,,
34,0,,html-keyboard-response,34,279241,0.0-4.2-2.2,gfuy4yxi454,2022-09-19 16:22:30.400,615efd1df11a7d21f0f12f68,1,56,79,62,62,33,FEMALE,,,"
  <table>
  <tr height=300>
    <td width=300 height=300><img src=""static/images/cards/4_of_red_stars.svg"" width=""175px"" height=""250px""></img></td>
    <td width=300 height=300><img src=""static/images/cards/back_of_red_stars.svg"" width=""175px"" height=""250px""></img></td>
  </tr>
  <tr height=200>
    <td width=300><img src=""static/images/keys/z.svg"" width=""35%"" height=""75%""></img></td>
    <td width=300><img src=""static/images/keys/m.svg"" width=""35%"" height=""75%""></img></td>
  </tr>
</table>
  ",,,,,,,,,,,,,,,,,,,,,,,,,,,,
35,0,,html-keyboard-response,35,280763,0.0-4.2-3.2,gfuy4yxi454,2022-09-19 16:22:30.400,615efd1df11a7d21f0f12f68,1,56,79,62,62,33,FEMALE,,,"<p style=""font-size:50px"">You Lose!
No points this round.</p>",,,,,,,,,,,,,,,,,,,,,,,,,,,,
36,0,,html-keyboard-response,36,281270,0.0-4.2-4.2,gfuy4yxi454,2022-09-19 16:22:30.400,615efd1df11a7d21f0f12f68,1,56,79,62,62,33,FEMALE,,,,,,1.0,learning,2.0,C,,red,,stars,,,,C,red,stars,,1.0,0.0,NA,left,1382.0,4.0,0.0,0.0,,,
37,0,,html-keyboard-response,37,282785,0.0-4.3-0.3,gfuy4yxi454,2022-09-19 16:22:30.400,615efd1df11a7d21f0f12f68,1,56,79,62,62,33,FEMALE,,,"<img src=""static/images/cards/stack_of_black_stars.svg"" width=""175px"" height=""250px""></img>",,,,,,,,,,,,,,,,,,,,,,,,,,,,
38,0,,html-keyboard-response,38,285296,0.0-4.3-1.3,gfuy4yxi454,2022-09-19 16:22:30.400,615efd1df11a7d21f0f12f68,1,56,79,62,62,33,FEMALE,2000.0,,"
  <table>
  <tr height=300>
    <td width=300 height=300><img src=""static/images/cards/back_of_black_stars.svg"" width=""175px"" height=""250px""></img></td>
    <td width=300 height=300><img src=""static/images/cards/back_of_black_stars.svg"" width=""175px"" height=""250px""></img></td>
  </tr>
  <tr height=200>
    <td width=300><img src=""static/images/keys/z.svg"" width=""35%"" height=""75%""></img></td>
    <td width=300></td>
  </tr>
</table>
  ",90.0,1.0,,,,,,,,,,,,,,,,,,,,,,,,,,
39,0,,html-keyboard-response,39,286809,0.0-4.3-2.3,gfuy4yxi454,2022-09-19 16:22:30.400,615efd1df11a7d21f0f12f68,1,56,79,62,62,33,FEMALE,,,"
  <table>
  <tr height=300>
    <td width=300 height=300><img src=""static/images/cards/4_of_black_stars.svg"" width=""175px"" height=""250px""></img></td>
    <td width=300 height=300><img src=""static/images/cards/back_of_black_stars.svg"" width=""175px"" height=""250px""></img></td>
  </tr>
  <tr height=200>
    <td width=300><img src=""static/images/keys/z.svg"" width=""35%"" height=""75%""></img></td>
    <td width=300></td>
  </tr>
</table>
  ",,,,,,,,,,,,,,,,,,,,,,,,,,,,
40,0,,html-keyboard-response,40,288346,0.0-4.3-3.3,gfuy4yxi454,2022-09-19 16:22:30.400,615efd1df11a7d21f0f12f68,1,56,79,62,62,33,FEMALE,,,"<p style=""font-size:50px"">You win!
+10 points this round!</p>",,,,,,,,,,,,,,,,,,,,,,,,,,,,
41,0,,html-keyboard-response,41,288870,0.0-4.3-4.3,gfuy4yxi454,2022-09-19 16:22:30.400,615efd1df11a7d21f0f12f68,1,56,79,62,62,33,FEMALE,,,,,,1.0,learning,3.0,D,,black,,stars,,,,D,black,stars,,0.0,0.0,1,left,2000.0,4.0,0.0,1.0,,,
42,0,,html-keyboard-response,42,290384,0.0-4.4-0.4,gfuy4yxi454,2022-09-19 16:22:30.400,615efd1df11a7d21f0f12f68,1,56,79,62,62,33,FEMALE,,,"<img src=""static/images/cards/stack_of_red_bolts.svg"" width=""175px"" height=""250px""></img>",,,,,,,,,,,,,,,,,,,,,,,,,,,,
43,0,,html-keyboard-response,43,291996,0.0-4.4-1.4,gfuy4yxi454,2022-09-19 16:22:30.400,615efd1df11a7d21f0f12f68,1,56,79,62,62,33,FEMALE,1080.0,,"
  <table>
  <tr height=300>
    <td width=300 height=300><img src=""static/images/cards/back_of_red_bolts.svg"" width=""175px"" height=""250px""></img></td>
    <td width=300 height=300><img src=""static/images/cards/back_of_red_bolts.svg"" width=""175px"" height=""250px""></img></td>
  </tr>
  <tr height=200>
    <td width=300><img src=""static/images/keys/z.svg"" width=""35%"" height=""75%""></img></td>
    <td width=300><img src=""static/images/keys/m.svg"" width=""35%"" height=""75%""></img></td>
  </tr>
</table>
  ",77.0,1.0,,,,,,,,,,,,,,,,,,,,,,,,,,
44,0,,html-keyboard-response,44,293509,0.0-4.4-2.4,gfuy4yxi454,2022-09-19 16:22:30.400,615efd1df11a7d21f0f12f68,1,56,79,62,62,33,FEMALE,,,"
  <table>
  <tr height=300>
    <td width=300 height=300><img src=""static/images/cards/back_of_red_bolts.svg"" width=""175px"" height=""250px""></img></td>
    <td width=300 height=300><img src=""static/images/cards/10_of_red_bolts.svg"" width=""175px"" height=""250px""></img></td>
  </tr>
  <tr height=200>
    <td width=300><img src=""static/images/keys/z.svg"" width=""35%"" height=""75%""></img></td>
    <td width=300><img src=""static/images/keys/m.svg"" width=""35%"" height=""75%""></img></td>
  </tr>
</table>
  ",,,,,,,,,,,,,,,,,,,,,,,,,,,,
45,0,,html-keyboard-response,45,295047,0.0-4.4-3.4,gfuy4yxi454,2022-09-19 16:22:30.400,615efd1df11a7d21f0f12f68,1,56,79,62,62,33,FEMALE,,,"<p style=""font-size:50px"">You win!
+10 points this round!</p>",,,,,,,,,,,,,,,,,,,,,,,,,,,,
46,0,,html-keyboard-response,46,295563,0.0-4.4-4.4,gfuy4yxi454,2022-09-19 16:22:30.400,615efd1df11a7d21f0f12f68,1,56,79,62,62,33,FEMALE,,,,,,1.0,learning,4.0,Xc,,red,,bolts,,,,Xc,red,bolts,,1.0,0.0,NA,right,1080.0,10.0,1.0,1.0,,,
47,0,,html-keyboard-response,47,297076,0.0-4.5-0.5,gfuy4yxi454,2022-09-19 16:22:30.400,615efd1df11a7d21f0f12f68,1,56,79,62,62,33,FEMALE,,,"<img src=""static/images/cards/stack_of_black_bolts.svg"" width=""175px"" height=""250px""></img>",,,,,,,,,,,,,,,,,,,,,,,,,,,,
48,0,,html-keyboard-response,48,299242,0.0-4.5-1.5,gfuy4yxi454,2022-09-19 16:22:30.400,615efd1df11a7d21f0f12f68,1,56,79,62,62,33,FEMALE,1630.0,,"
  <table>
  <tr height=300>
    <td width=300 height=300><img src=""static/images/cards/back_of_black_bolts.svg"" width=""175px"" height=""250px""></img></td>
    <td width=300 height=300><img src=""static/images/cards/back_of_black_bolts.svg"" width=""175px"" height=""250px""></img></td>
  </tr>
  <tr height=200>
    <td width=300><img src=""static/images/keys/z.svg"" width=""35%"" height=""75%""></img></td>
    <td width=300></td>
  </tr>
</table>
  ",90.0,1.0,,,,,,,,,,,,,,,,,,,,,,,,,,
49,0,,html-keyboard-response,49,300754,0.0-4.5-2.5,gfuy4yxi454,2022-09-19 16:22:30.400,615efd1df11a7d21f0f12f68,1,56,79,62,62,33,FEMALE,,,"
  <table>
  <tr height=300>
    <td width=300 height=300><img src=""static/images/cards/1_of_black_bolts.svg"" width=""175px"" height=""250px""></img></td>
    <td width=300 height=300><img src=""static/images/cards/back_of_black_bolts.svg"" width=""175px"" height=""250px""></img></td>
  </tr>
  <tr height=200>
    <td width=300><img src=""static/images/keys/z.svg"" width=""35%"" height=""75%""></img></td>
    <td width=300></td>
  </tr>
</table>
  ",,,,,,,,,,,,,,,,,,,,,,,,,,,,
50,0,,html-keyboard-response,50,302272,0.0-4.5-3.5,gfuy4yxi454,2022-09-19 16:22:30.400,615efd1df11a7d21f0f12f68,1,56,79,62,62,33,FEMALE,,,"<p style=""font-size:50px"">You win!
+10 points this round!</p>",,,,,,,,,,,,,,,,,,,,,,,,,,,,
51,0,,html-keyboard-response,51,302789,0.0-4.5-4.5,gfuy4yxi454,2022-09-19 16:22:30.400,615efd1df11a7d21f0f12f68,1,56,79,62,62,33,FEMALE,,,,,,1.0,learning,5.0,Xnc,,black,,bolts,,,,Xnc,black,bolts,,0.0,0.0,1,left,1630.0,1.0,0.0,1.0,,,
52,0,,html-keyboard-response,52,304301,0.0-4.6-0.6,gfuy4yxi454,2022-09-19 16:22:30.400,615efd1df11a7d21f0f12f68,1,56,79,62,62,33,FEMALE,,,"<img src=""static/images/cards/stack_of_red_moons.svg"" width=""175px"" height=""250px""></img>",,,,,,,,,,,,,,,,,,,,,,,,,,,,
53,0,,html-keyboard-response,53,306182,0.0-4.6-1.6,gfuy4yxi454,2022-09-19 16:22:30.400,615efd1df11a7d21f0f12f68,1,56,79,62,62,33,FEMALE,1357.0,,"
  <table>
  <tr height=300>
    <td width=300 height=300><img src=""static/images/cards/back_of_red_moons.svg"" width=""175px"" height=""250px""></img></td>
    <td width=300 height=300><img src=""static/images/cards/back_of_red_moons.svg"" width=""175px"" height=""250px""></img></td>
  </tr>
  <tr height=200>
    <td width=300><img src=""static/images/keys/z.svg"" width=""35%"" height=""75%""></img></td>
    <td width=300><img src=""static/images/keys/m.svg"" width=""35%"" height=""75%""></img></td>
  </tr>
</table>
  ",77.0,1.0,,,,,,,,,,,,,,,,,,,,,,,,,,
54,0,,html-keyboard-response,54,307692,0.0-4.6-2.6,gfuy4yxi454,2022-09-19 16:22:30.400,615efd1df11a7d21f0f12f68,1,56,79,62,62,33,FEMALE,,,"
  <table>
  <tr height=300>
    <td width=300 height=300><img src=""static/images/cards/back_of_red_moons.svg"" width=""175px"" height=""250px""></img></td>
    <td width=300 height=300><img src=""static/images/cards/3_of_red_moons.svg"" width=""175px"" height=""250px""></img></td>
  </tr>
  <tr height=200>
    <td width=300><img src=""static/images/keys/z.svg"" width=""35%"" height=""75%""></img></td>
    <td width=300><img src=""static/images/keys/m.svg"" width=""35%"" height=""75%""></img></td>
  </tr>
</table>
  ",,,,,,,,,,,,,,,,,,,,,,,,,,,,
55,0,,html-keyboard-response,55,309204,0.0-4.6-3.6,gfuy4yxi454,2022-09-19 16:22:30.400,615efd1df11a7d21f0f12f68,1,56,79,62,62,33,FEMALE,,,"<p style=""font-size:50px"">You Lose!
No points this round.</p>",,,,,,,,,,,,,,,,,,,,,,,,,,,,
56,0,,html-keyboard-response,56,309714,0.0-4.6-4.6,gfuy4yxi454,2022-09-19 16:22:30.400,615efd1df11a7d21f0f12f68,1,56,79,62,62,33,FEMALE,,,,,,1.0,learning,6.0,A,,red,,moons,,,,A,red,moons,,1.0,1.0,NA,right,1357.0,3.0,0.0,0.0,,,
57,0,,html-keyboard-response,57,311237,0.0-4.7-0.7,gfuy4yxi454,2022-09-19 16:22:30.400,615efd1df11a7d21f0f12f68,1,56,79,62,62,33,FEMALE,,,"<img src=""static/images/cards/stack_of_black_moons.svg"" width=""175px"" height=""250px""></img>",,,,,,,,,,,,,,,,,,,,,,,,,,,,
58,0,,html-keyboard-response,58,312963,0.0-4.7-1.7,gfuy4yxi454,2022-09-19 16:22:30.400,615efd1df11a7d21f0f12f68,1,56,79,62,62,33,FEMALE,1205.0,,"
  <table>
  <tr height=300>
    <td width=300 height=300><img src=""static/images/cards/back_of_black_moons.svg"" width=""175px"" height=""250px""></img></td>
    <td width=300 height=300><img src=""static/images/cards/back_of_black_moons.svg"" width=""175px"" height=""250px""></img></td>
  </tr>
  <tr height=200>
    <td width=300></td>
    <td width=300><img src=""static/images/keys/m.svg"" width=""35%"" height=""75%""></img></td>
  </tr>
</table>
  ",77.0,1.0,,,,,,,,,,,,,,,,,,,,,,,,,,
59,0,,html-keyboard-response,59,314476,0.0-4.7-2.7,gfuy4yxi454,2022-09-19 16:22:30.400,615efd1df11a7d21f0f12f68,1,56,79,62,62,33,FEMALE,,,"
  <table>
  <tr height=300>
    <td width=300 height=300><img src=""static/images/cards/back_of_black_moons.svg"" width=""175px"" height=""250px""></img></td>
    <td width=300 height=300><img src=""static/images/cards/2_of_black_moons.svg"" width=""175px"" height=""250px""></img></td>
  </tr>
  <tr height=200>
    <td width=300></td>
    <td width=300><img src=""static/images/keys/m.svg"" width=""35%"" height=""75%""></img></td>
  </tr>
</table>
  ",,,,,,,,,,,,,,,,,,,,,,,,,,,,
60,0,,html-keyboard-response,60,316007,0.0-4.7-3.7,gfuy4yxi454,2022-09-19 16:22:30.400,615efd1df11a7d21f0f12f68,1,56,79,62,62,33,FEMALE,,,"<p style=""font-size:50px"">You Lose!
No points this round.</p>",,,,,,,,,,,,,,,,,,,,,,,,,,,,
61,0,,html-keyboard-response,61,316528,0.0-4.7-4.7,gfuy4yxi454,2022-09-19 16:22:30.400,615efd1df11a7d21f0f12f68,1,56,79,62,62,33,FEMALE,,,,,,1.0,learning,7.0,B,,black,,moons,,,,B,black,moons,,0.0,1.0,0,right,1205.0,2.0,0.0,0.0,,,
62,0,,html-keyboard-response,62,318050,0.0-4.8-0.8,gfuy4yxi454,2022-09-19 16:22:30.400,615efd1df11a7d21f0f12f68,1,56,79,62,62,33,FEMALE,,,"<img src=""static/images/cards/stack_of_red_stars.svg"" width=""175px"" height=""250px""></img>",,,,,,,,,,,,,,,,,,,,,,,,,,,,
63,0,,html-keyboard-response,63,319407,0.0-4.8-1.8,gfuy4yxi454,2022-09-19 16:22:30.400,615efd1df11a7d21f0f12f68,1,56,79,62,62,33,FEMALE,822.0,,"
  <table>
  <tr height=300>
    <td width=300 height=300><img src=""static/images/cards/back_of_red_stars.svg"" width=""175px"" height=""250px""></img></td>
    <td width=300 height=300><img src=""static/images/cards/back_of_red_stars.svg"" width=""175px"" height=""250px""></img></td>
  </tr>
  <tr height=200>
    <td width=300><img src=""static/images/keys/z.svg"" width=""35%"" height=""75%""></img></td>
    <td width=300><img src=""static/images/keys/m.svg"" width=""35%"" height=""75%""></img></td>
  </tr>
</table>
  ",90.0,1.0,,,,,,,,,,,,,,,,,,,,,,,,,,
64,0,,html-keyboard-response,64,320924,0.0-4.8-2.8,gfuy4yxi454,2022-09-19 16:22:30.400,615efd1df11a7d21f0f12f68,1,56,79,62,62,33,FEMALE,,,"
  <table>
  <tr height=300>
    <td width=300 height=300><img src=""static/images/cards/8_of_red_stars.svg"" width=""175px"" height=""250px""></img></td>
    <td width=300 height=300><img src=""static/images/cards/back_of_red_stars.svg"" width=""175px"" height=""250px""></img></td>
  </tr>
  <tr height=200>
    <td width=300><img src=""static/images/keys/z.svg"" width=""35%"" height=""75%""></img></td>
    <td width=300><img src=""static/images/keys/m.svg"" width=""35%"" height=""75%""></img></td>
  </tr>
</table>
  ",,,,,,,,,,,,,,,,,,,,,,,,,,,,
65,0,,html-keyboard-response,65,322438,0.0-4.8-3.8,gfuy4yxi454,2022-09-19 16:22:30.400,615efd1df11a7d21f0f12f68,1,56,79,62,62,33,FEMALE,,,"<p style=""font-size:50px"">You Lose!
No points this round.</p>",,,,,,,,,,,,,,,,,,,,,,,,,,,,
66,0,,html-keyboard-response,66,322950,0.0-4.8-4.8,gfuy4yxi454,2022-09-19 16:22:30.400,615efd1df11a7d21f0f12f68,1,56,79,62,62,33,FEMALE,,,,,,1.0,learning,8.0,C,,red,,stars,,,,C,red,stars,,1.0,0.0,NA,left,822.0,8.0,1.0,0.0,,,
67,0,,html-keyboard-response,67,324465,0.0-4.9-0.9,gfuy4yxi454,2022-09-19 16:22:30.400,615efd1df11a7d21f0f12f68,1,56,79,62,62,33,FEMALE,,,"<img src=""static/images/cards/stack_of_black_stars.svg"" width=""175px"" height=""250px""></img>",,,,,,,,,,,,,,,,,,,,,,,,,,,,
68,0,,html-keyboard-response,68,325839,0.0-4.9-1.9,gfuy4yxi454,2022-09-19 16:22:30.400,615efd1df11a7d21f0f12f68,1,56,79,62,62,33,FEMALE,846.0,,"
  <table>
  <tr height=300>
    <td width=300 height=300><img src=""static/images/cards/back_of_black_stars.svg"" width=""175px"" height=""250px""></img></td>
    <td width=300 height=300><img src=""static/images/cards/back_of_black_stars.svg"" width=""175px"" height=""250px""></img></td>
  </tr>
  <tr height=200>
    <td width=300></td>
    <td width=300><img src=""static/images/keys/m.svg"" width=""35%"" height=""75%""></img></td>
  </tr>
</table>
  ",77.0,1.0,,,,,,,,,,,,,,,,,,,,,,,,,,
69,0,,html-keyboard-response,69,327343,0.0-4.9-2.9,gfuy4yxi454,2022-09-19 16:22:30.400,615efd1df11a7d21f0f12f68,1,56,79,62,62,33,FEMALE,,,"
  <table>
  <tr height=300>
    <td width=300 height=300><img src=""static/images/cards/back_of_black_stars.svg"" width=""175px"" height=""250px""></img></td>
    <td width=300 height=300><img src=""static/images/cards/3_of_black_stars.svg"" width=""175px"" height=""250px""></img></td>
  </tr>
  <tr height=200>
    <td width=300></td>
    <td width=300><img src=""static/images/keys/m.svg"" width=""35%"" height=""75%""></img></td>
  </tr>
</table>
  ",,,,,,,,,,,,,,,,,,,,,,,,,,,,
70,0,,html-keyboard-response,70,328857,0.0-4.9-3.9,gfuy4yxi454,2022-09-19 16:22:30.400,615efd1df11a7d21f0f12f68,1,56,79,62,62,33,FEMALE,,,"<p style=""font-size:50px"">You win!
+10 points this round!</p>",,,,,,,,,,,,,,,,,,,,,,,,,,,,
71,0,,html-keyboard-response,71,329382,0.0-4.9-4.9,gfuy4yxi454,2022-09-19 16:22:30.400,615efd1df11a7d21f0f12f68,1,56,79,62,62,33,FEMALE,,,,,,1.0,learning,9.0,D,,black,,stars,,,,D,black,stars,,0.0,0.0,0,right,846.0,3.0,0.0,1.0,,,
72,0,,html-keyboard-response,72,330884,0.0-4.10-0.10,gfuy4yxi454,2022-09-19 16:22:30.400,615efd1df11a7d21f0f12f68,1,56,79,62,62,33,FEMALE,,,"<img src=""static/images/cards/stack_of_red_bolts.svg"" width=""175px"" height=""250px""></img>",,,,,,,,,,,,,,,,,,,,,,,,,,,,
73,0,,html-keyboard-response,73,332598,0.0-4.10-1.10,gfuy4yxi454,2022-09-19 16:22:30.400,615efd1df11a7d21f0f12f68,1,56,79,62,62,33,FEMALE,1194.0,,"
  <table>
  <tr height=300>
    <td width=300 height=300><img src=""static/images/cards/back_of_red_bolts.svg"" width=""175px"" height=""250px""></img></td>
    <td width=300 height=300><img src=""static/images/cards/back_of_red_bolts.svg"" width=""175px"" height=""250px""></img></td>
  </tr>
  <tr height=200>
    <td width=300><img src=""static/images/keys/z.svg"" width=""35%"" height=""75%""></img></td>
    <td width=300><img src=""static/images/keys/m.svg"" width=""35%"" height=""75%""></img></td>
  </tr>
</table>
  ",90.0,1.0,,,,,,,,,,,,,,,,,,,,,,,,,,
74,0,,html-keyboard-response,74,334105,0.0-4.10-2.10,gfuy4yxi454,2022-09-19 16:22:30.400,615efd1df11a7d21f0f12f68,1,56,79,62,62,33,FEMALE,,,"
  <table>
  <tr height=300>
    <td width=300 height=300><img src=""static/images/cards/8_of_red_bolts.svg"" width=""175px"" height=""250px""></img></td>
    <td width=300 height=300><img src=""static/images/cards/back_of_red_bolts.svg"" width=""175px"" height=""250px""></img></td>
  </tr>
  <tr height=200>
    <td width=300><img src=""static/images/keys/z.svg"" width=""35%"" height=""75%""></img></td>
    <td width=300><img src=""static/images/keys/m.svg"" width=""35%"" height=""75%""></img></td>
  </tr>
</table>
  ",,,,,,,,,,,,,,,,,,,,,,,,,,,,
75,0,,html-keyboard-response,75,335629,0.0-4.10-3.10,gfuy4yxi454,2022-09-19 16:22:30.400,615efd1df11a7d21f0f12f68,1,56,79,62,62,33,FEMALE,,,"<p style=""font-size:50px"">You win!
+10 points this round!</p>",,,,,,,,,,,,,,,,,,,,,,,,,,,,
76,0,,html-keyboard-response,76,336142,0.0-4.10-4.10,gfuy4yxi454,2022-09-19 16:22:30.400,615efd1df11a7d21f0f12f68,1,56,79,62,62,33,FEMALE,,,,,,1.0,learning,10.0,Xc,,red,,bolts,,,,Xc,red,bolts,,1.0,0.0,NA,left,1194.0,8.0,1.0,1.0,,,
77,0,,html-keyboard-response,77,337655,0.0-4.11-0.11,gfuy4yxi454,2022-09-19 16:22:30.400,615efd1df11a7d21f0f12f68,1,56,79,62,62,33,FEMALE,,,"<img src=""static/images/cards/stack_of_black_bolts.svg"" width=""175px"" height=""250px""></img>",,,,,,,,,,,,,,,,,,,,,,,,,,,,
78,0,,html-keyboard-response,78,339151,0.0-4.11-1.11,gfuy4yxi454,2022-09-19 16:22:30.400,615efd1df11a7d21f0f12f68,1,56,79,62,62,33,FEMALE,976.0,,"
  <table>
  <tr height=300>
    <td width=300 height=300><img src=""static/images/cards/back_of_black_bolts.svg"" width=""175px"" height=""250px""></img></td>
    <td width=300 height=300><img src=""static/images/cards/back_of_black_bolts.svg"" width=""175px"" height=""250px""></img></td>
  </tr>
  <tr height=200>
    <td width=300><img src=""static/images/keys/z.svg"" width=""35%"" height=""75%""></img></td>
    <td width=300></td>
  </tr>
</table>
  ",90.0,1.0,,,,,,,,,,,,,,,,,,,,,,,,,,
79,0,,html-keyboard-response,79,340663,0.0-4.11-2.11,gfuy4yxi454,2022-09-19 16:22:30.400,615efd1df11a7d21f0f12f68,1,56,79,62,62,33,FEMALE,,,"
  <table>
  <tr height=300>
    <td width=300 height=300><img src=""static/images/cards/8_of_black_bolts.svg"" width=""175px"" height=""250px""></img></td>
    <td width=300 height=300><img src=""static/images/cards/back_of_black_bolts.svg"" width=""175px"" height=""250px""></img></td>
  </tr>
  <tr height=200>
    <td width=300><img src=""static/images/keys/z.svg"" width=""35%"" height=""75%""></img></td>
    <td width=300></td>
  </tr>
</table>
  ",,,,,,,,,,,,,,,,,,,,,,,,,,,,
80,0,,html-keyboard-response,80,342182,0.0-4.11-3.11,gfuy4yxi454,2022-09-19 16:22:30.400,615efd1df11a7d21f0f12f68,1,56,79,62,62,33,FEMALE,,,"<p style=""font-size:50px"">You win!
+10 points this round!</p>",,,,,,,,,,,,,,,,,,,,,,,,,,,,
81,0,,html-keyboard-response,81,342695,0.0-4.11-4.11,gfuy4yxi454,2022-09-19 16:22:30.400,615efd1df11a7d21f0f12f68,1,56,79,62,62,33,FEMALE,,,,,,1.0,learning,11.0,Xnc,,black,,bolts,,,,Xnc,black,bolts,,0.0,0.0,1,left,976.0,8.0,1.0,1.0,,,
82,0,,html-keyboard-response,82,344212,0.0-4.12-0.12,gfuy4yxi454,2022-09-19 16:22:30.400,615efd1df11a7d21f0f12f68,1,56,79,62,62,33,FEMALE,,,"<img src=""static/images/cards/stack_of_red_moons.svg"" width=""175px"" height=""250px""></img>",,,,,,,,,,,,,,,,,,,,,,,,,,,,
83,0,,html-keyboard-response,83,345733,0.0-4.12-1.12,gfuy4yxi454,2022-09-19 16:22:30.400,615efd1df11a7d21f0f12f68,1,56,79,62,62,33,FEMALE,1010.0,,"
  <table>
  <tr height=300>
    <td width=300 height=300><img src=""static/images/cards/back_of_red_moons.svg"" width=""175px"" height=""250px""></img></td>
    <td width=300 height=300><img src=""static/images/cards/back_of_red_moons.svg"" width=""175px"" height=""250px""></img></td>
  </tr>
  <tr height=200>
    <td width=300><img src=""static/images/keys/z.svg"" width=""35%"" height=""75%""></img></td>
    <td width=300><img src=""static/images/keys/m.svg"" width=""35%"" height=""75%""></img></td>
  </tr>
</table>
  ",77.0,1.0,,,,,,,,,,,,,,,,,,,,,,,,,,
84,0,,html-keyboard-response,84,347252,0.0-4.12-2.12,gfuy4yxi454,2022-09-19 16:22:30.400,615efd1df11a7d21f0f12f68,1,56,79,62,62,33,FEMALE,,,"
  <table>
  <tr height=300>
    <td width=300 height=300><img src=""static/images/cards/back_of_red_moons.svg"" width=""175px"" height=""250px""></img></td>
    <td width=300 height=300><img src=""static/images/cards/6_of_red_moons.svg"" width=""175px"" height=""250px""></img></td>
  </tr>
  <tr height=200>
    <td width=300><img src=""static/images/keys/z.svg"" width=""35%"" height=""75%""></img></td>
    <td width=300><img src=""static/images/keys/m.svg"" width=""35%"" height=""75%""></img></td>
  </tr>
</table>
  ",,,,,,,,,,,,,,,,,,,,,,,,,,,,
85,0,,html-keyboard-response,85,348783,0.0-4.12-3.12,gfuy4yxi454,2022-09-19 16:22:30.400,615efd1df11a7d21f0f12f68,1,56,79,62,62,33,FEMALE,,,"<p style=""font-size:50px"">You win!
+10 points this round!</p>",,,,,,,,,,,,,,,,,,,,,,,,,,,,
86,0,,html-keyboard-response,86,349298,0.0-4.12-4.12,gfuy4yxi454,2022-09-19 16:22:30.400,615efd1df11a7d21f0f12f68,1,56,79,62,62,33,FEMALE,,,,,,1.0,learning,12.0,A,,red,,moons,,,,A,red,moons,,1.0,1.0,NA,right,1010.0,6.0,1.0,1.0,,,
87,0,,html-keyboard-response,87,350804,0.0-4.13-0.13,gfuy4yxi454,2022-09-19 16:22:30.400,615efd1df11a7d21f0f12f68,1,56,79,62,62,33,FEMALE,,,"<img src=""static/images/cards/stack_of_black_moons.svg"" width=""175px"" height=""250px""></img>",,,,,,,,,,,,,,,,,,,,,,,,,,,,
88,0,,html-keyboard-response,88,352103,0.0-4.13-1.13,gfuy4yxi454,2022-09-19 16:22:30.400,615efd1df11a7d21f0f12f68,1,56,79,62,62,33,FEMALE,763.0,,"
  <table>
  <tr height=300>
    <td width=300 height=300><img src=""static/images/cards/back_of_black_moons.svg"" width=""175px"" height=""250px""></img></td>
    <td width=300 height=300><img src=""static/images/cards/back_of_black_moons.svg"" width=""175px"" height=""250px""></img></td>
  </tr>
  <tr height=200>
    <td width=300><img src=""static/images/keys/z.svg"" width=""35%"" height=""75%""></img></td>
    <td width=300></td>
  </tr>
</table>
  ",90.0,1.0,,,,,,,,,,,,,,,,,,,,,,,,,,
89,0,,html-keyboard-response,89,353618,0.0-4.13-2.13,gfuy4yxi454,2022-09-19 16:22:30.400,615efd1df11a7d21f0f12f68,1,56,79,62,62,33,FEMALE,,,"
  <table>
  <tr height=300>
    <td width=300 height=300><img src=""static/images/cards/10_of_black_moons.svg"" width=""175px"" height=""250px""></img></td>
    <td width=300 height=300><img src=""static/images/cards/back_of_black_moons.svg"" width=""175px"" height=""250px""></img></td>
  </tr>
  <tr height=200>
    <td width=300><img src=""static/images/keys/z.svg"" width=""35%"" height=""75%""></img></td>
    <td width=300></td>
  </tr>
</table>
  ",,,,,,,,,,,,,,,,,,,,,,,,,,,,
90,0,,html-keyboard-response,90,355151,0.0-4.13-3.13,gfuy4yxi454,2022-09-19 16:22:30.400,615efd1df11a7d21f0f12f68,1,56,79,62,62,33,FEMALE,,,"<p style=""font-size:50px"">You win!
+10 points this round!</p>",,,,,,,,,,,,,,,,,,,,,,,,,,,,
91,0,,html-keyboard-response,91,355674,0.0-4.13-4.13,gfuy4yxi454,2022-09-19 16:22:30.400,615efd1df11a7d21f0f12f68,1,56,79,62,62,33,FEMALE,,,,,,1.0,learning,13.0,B,,black,,moons,,,,B,black,moons,,0.0,1.0,1,left,763.0,10.0,1.0,1.0,,,
92,0,,html-keyboard-response,92,357187,0.0-4.14-0.14,gfuy4yxi454,2022-09-19 16:22:30.400,615efd1df11a7d21f0f12f68,1,56,79,62,62,33,FEMALE,,,"<img src=""static/images/cards/stack_of_red_stars.svg"" width=""175px"" height=""250px""></img>",,,,,,,,,,,,,,,,,,,,,,,,,,,,
93,0,,html-keyboard-response,93,358588,0.0-4.14-1.14,gfuy4yxi454,2022-09-19 16:22:30.400,615efd1df11a7d21f0f12f68,1,56,79,62,62,33,FEMALE,877.0,,"
  <table>
  <tr height=300>
    <td width=300 height=300><img src=""static/images/cards/back_of_red_stars.svg"" width=""175px"" height=""250px""></img></td>
    <td width=300 height=300><img src=""static/images/cards/back_of_red_stars.svg"" width=""175px"" height=""250px""></img></td>
  </tr>
  <tr height=200>
    <td width=300><img src=""static/images/keys/z.svg"" width=""35%"" height=""75%""></img></td>
    <td width=300><img src=""static/images/keys/m.svg"" width=""35%"" height=""75%""></img></td>
  </tr>
</table>
  ",77.0,1.0,,,,,,,,,,,,,,,,,,,,,,,,,,
94,0,,html-keyboard-response,94,360091,0.0-4.14-2.14,gfuy4yxi454,2022-09-19 16:22:30.400,615efd1df11a7d21f0f12f68,1,56,79,62,62,33,FEMALE,,,"
  <table>
  <tr height=300>
    <td width=300 height=300><img src=""static/images/cards/back_of_red_stars.svg"" width=""175px"" height=""250px""></img></td>
    <td width=300 height=300><img src=""static/images/cards/10_of_red_stars.svg"" width=""175px"" height=""250px""></img></td>
  </tr>
  <tr height=200>
    <td width=300><img src=""static/images/keys/z.svg"" width=""35%"" height=""75%""></img></td>
    <td width=300><img src=""static/images/keys/m.svg"" width=""35%"" height=""75%""></img></td>
  </tr>
</table>
  ",,,,,,,,,,,,,,,,,,,,,,,,,,,,
95,0,,html-keyboard-response,95,361595,0.0-4.14-3.14,gfuy4yxi454,2022-09-19 16:22:30.400,615efd1df11a7d21f0f12f68,1,56,79,62,62,33,FEMALE,,,"<p style=""font-size:50px"">You win!
+10 points this round!</p>",,,,,,,,,,,,,,,,,,,,,,,,,,,,
96,0,,html-keyboard-response,96,362103,0.0-4.14-4.14,gfuy4yxi454,2022-09-19 16:22:30.400,615efd1df11a7d21f0f12f68,1,56,79,62,62,33,FEMALE,,,,,,1.0,learning,14.0,C,,red,,stars,,,,C,red,stars,,1.0,0.0,NA,right,877.0,10.0,1.0,1.0,,,
97,0,,html-keyboard-response,97,363616,0.0-4.15-0.15,gfuy4yxi454,2022-09-19 16:22:30.400,615efd1df11a7d21f0f12f68,1,56,79,62,62,33,FEMALE,,,"<img src=""static/images/cards/stack_of_black_stars.svg"" width=""175px"" height=""250px""></img>",,,,,,,,,,,,,,,,,,,,,,,,,,,,
98,0,,html-keyboard-response,98,364843,0.0-4.15-1.15,gfuy4yxi454,2022-09-19 16:22:30.400,615efd1df11a7d21f0f12f68,1,56,79,62,62,33,FEMALE,718.0,,"
  <table>
  <tr height=300>
    <td width=300 height=300><img src=""static/images/cards/back_of_black_stars.svg"" width=""175px"" height=""250px""></img></td>
    <td width=300 height=300><img src=""static/images/cards/back_of_black_stars.svg"" width=""175px"" height=""250px""></img></td>
  </tr>
  <tr height=200>
    <td width=300></td>
    <td width=300><img src=""static/images/keys/m.svg"" width=""35%"" height=""75%""></img></td>
  </tr>
</table>
  ",77.0,1.0,,,,,,,,,,,,,,,,,,,,,,,,,,
99,0,,html-keyboard-response,99,366365,0.0-4.15-2.15,gfuy4yxi454,2022-09-19 16:22:30.400,615efd1df11a7d21f0f12f68,1,56,79,62,62,33,FEMALE,,,"
  <table>
  <tr height=300>
    <td width=300 height=300><img src=""static/images/cards/back_of_black_stars.svg"" width=""175px"" height=""250px""></img></td>
    <td width=300 height=300><img src=""static/images/cards/8_of_black_stars.svg"" width=""175px"" height=""250px""></img></td>
  </tr>
  <tr height=200>
    <td width=300></td>
    <td width=300><img src=""static/images/keys/m.svg"" width=""35%"" height=""75%""></img></td>
  </tr>
</table>
  ",,,,,,,,,,,,,,,,,,,,,,,,,,,,
100,0,,html-keyboard-response,100,367895,0.0-4.15-3.15,gfuy4yxi454,2022-09-19 16:22:30.400,615efd1df11a7d21f0f12f68,1,56,79,62,62,33,FEMALE,,,"<p style=""font-size:50px"">You win!
+10 points this round!</p>",,,,,,,,,,,,,,,,,,,,,,,,,,,,
101,0,,html-keyboard-response,101,368403,0.0-4.15-4.15,gfuy4yxi454,2022-09-19 16:22:30.400,615efd1df11a7d21f0f12f68,1,56,79,62,62,33,FEMALE,,,,,,1.0,learning,15.0,D,,black,,stars,,,,D,black,stars,,0.0,0.0,0,right,718.0,8.0,1.0,1.0,,,
102,0,,html-keyboard-response,102,369916,0.0-4.16-0.16,gfuy4yxi454,2022-09-19 16:22:30.400,615efd1df11a7d21f0f12f68,1,56,79,62,62,33,FEMALE,,,"<img src=""static/images/cards/stack_of_red_bolts.svg"" width=""175px"" height=""250px""></img>",,,,,,,,,,,,,,,,,,,,,,,,,,,,
103,0,,html-keyboard-response,103,370980,0.0-4.16-1.16,gfuy4yxi454,2022-09-19 16:22:30.400,615efd1df11a7d21f0f12f68,1,56,79,62,62,33,FEMALE,554.0,,"
  <table>
  <tr height=300>
    <td width=300 height=300><img src=""static/images/cards/back_of_red_bolts.svg"" width=""175px"" height=""250px""></img></td>
    <td width=300 height=300><img src=""static/images/cards/back_of_red_bolts.svg"" width=""175px"" height=""250px""></img></td>
  </tr>
  <tr height=200>
    <td width=300><img src=""static/images/keys/z.svg"" width=""35%"" height=""75%""></img></td>
    <td width=300><img src=""static/images/keys/m.svg"" width=""35%"" height=""75%""></img></td>
  </tr>
</table>
  ",90.0,1.0,,,,,,,,,,,,,,,,,,,,,,,,,,
104,0,,html-keyboard-response,104,372488,0.0-4.16-2.16,gfuy4yxi454,2022-09-19 16:22:30.400,615efd1df11a7d21f0f12f68,1,56,79,62,62,33,FEMALE,,,"
  <table>
  <tr height=300>
    <td width=300 height=300><img src=""static/images/cards/3_of_red_bolts.svg"" width=""175px"" height=""250px""></img></td>
    <td width=300 height=300><img src=""static/images/cards/back_of_red_bolts.svg"" width=""175px"" height=""250px""></img></td>
  </tr>
  <tr height=200>
    <td width=300><img src=""static/images/keys/z.svg"" width=""35%"" height=""75%""></img></td>
    <td width=300><img src=""static/images/keys/m.svg"" width=""35%"" height=""75%""></img></td>
  </tr>
</table>
  ",,,,,,,,,,,,,,,,,,,,,,,,,,,,
105,0,,html-keyboard-response,105,373990,0.0-4.16-3.16,gfuy4yxi454,2022-09-19 16:22:30.400,615efd1df11a7d21f0f12f68,1,56,79,62,62,33,FEMALE,,,"<p style=""font-size:50px"">You win!
+10 points this round!</p>",,,,,,,,,,,,,,,,,,,,,,,,,,,,
106,0,,html-keyboard-response,106,374507,0.0-4.16-4.16,gfuy4yxi454,2022-09-19 16:22:30.400,615efd1df11a7d21f0f12f68,1,56,79,62,62,33,FEMALE,,,,,,1.0,learning,16.0,Xc,,red,,bolts,,,,Xc,red,bolts,,1.0,0.0,NA,left,554.0,3.0,0.0,1.0,,,
107,0,,html-keyboard-response,107,376018,0.0-4.17-0.17,gfuy4yxi454,2022-09-19 16:22:30.400,615efd1df11a7d21f0f12f68,1,56,79,62,62,33,FEMALE,,,"<img src=""static/images/cards/stack_of_black_bolts.svg"" width=""175px"" height=""250px""></img>",,,,,,,,,,,,,,,,,,,,,,,,,,,,
108,0,,html-keyboard-response,108,377215,0.0-4.17-1.17,gfuy4yxi454,2022-09-19 16:22:30.400,615efd1df11a7d21f0f12f68,1,56,79,62,62,33,FEMALE,675.0,,"
  <table>
  <tr height=300>
    <td width=300 height=300><img src=""static/images/cards/back_of_black_bolts.svg"" width=""175px"" height=""250px""></img></td>
    <td width=300 height=300><img src=""static/images/cards/back_of_black_bolts.svg"" width=""175px"" height=""250px""></img></td>
  </tr>
  <tr height=200>
    <td width=300></td>
    <td width=300><img src=""static/images/keys/m.svg"" width=""35%"" height=""75%""></img></td>
  </tr>
</table>
  ",77.0,1.0,,,,,,,,,,,,,,,,,,,,,,,,,,
109,0,,html-keyboard-response,109,378727,0.0-4.17-2.17,gfuy4yxi454,2022-09-19 16:22:30.400,615efd1df11a7d21f0f12f68,1,56,79,62,62,33,FEMALE,,,"
  <table>
  <tr height=300>
    <td width=300 height=300><img src=""static/images/cards/back_of_black_bolts.svg"" width=""175px"" height=""250px""></img></td>
    <td width=300 height=300><img src=""static/images/cards/3_of_black_bolts.svg"" width=""175px"" height=""250px""></img></td>
  </tr>
  <tr height=200>
    <td width=300></td>
    <td width=300><img src=""static/images/keys/m.svg"" width=""35%"" height=""75%""></img></td>
  </tr>
</table>
  ",,,,,,,,,,,,,,,,,,,,,,,,,,,,
110,0,,html-keyboard-response,110,380257,0.0-4.17-3.17,gfuy4yxi454,2022-09-19 16:22:30.400,615efd1df11a7d21f0f12f68,1,56,79,62,62,33,FEMALE,,,"<p style=""font-size:50px"">You win!
+10 points this round!</p>",,,,,,,,,,,,,,,,,,,,,,,,,,,,
111,0,,html-keyboard-response,111,380777,0.0-4.17-4.17,gfuy4yxi454,2022-09-19 16:22:30.400,615efd1df11a7d21f0f12f68,1,56,79,62,62,33,FEMALE,,,,,,1.0,learning,17.0,Xnc,,black,,bolts,,,,Xnc,black,bolts,,0.0,0.0,0,right,675.0,3.0,0.0,1.0,,,
112,0,,html-keyboard-response,112,382299,0.0-4.18-0.18,gfuy4yxi454,2022-09-19 16:22:30.400,615efd1df11a7d21f0f12f68,1,56,79,62,62,33,FEMALE,,,"<img src=""static/images/cards/stack_of_red_moons.svg"" width=""175px"" height=""250px""></img>",,,,,,,,,,,,,,,,,,,,,,,,,,,,
113,0,,html-keyboard-response,113,383710,0.0-4.18-1.18,gfuy4yxi454,2022-09-19 16:22:30.400,615efd1df11a7d21f0f12f68,1,56,79,62,62,33,FEMALE,880.0,,"
  <table>
  <tr height=300>
    <td width=300 height=300><img src=""static/images/cards/back_of_red_moons.svg"" width=""175px"" height=""250px""></img></td>
    <td width=300 height=300><img src=""static/images/cards/back_of_red_moons.svg"" width=""175px"" height=""250px""></img></td>
  </tr>
  <tr height=200>
    <td width=300><img src=""static/images/keys/z.svg"" width=""35%"" height=""75%""></img></td>
    <td width=300><img src=""static/images/keys/m.svg"" width=""35%"" height=""75%""></img></td>
  </tr>
</table>
  ",90.0,1.0,,,,,,,,,,,,,,,,,,,,,,,,,,
114,0,,html-keyboard-response,114,385226,0.0-4.18-2.18,gfuy4yxi454,2022-09-19 16:22:30.400,615efd1df11a7d21f0f12f68,1,56,79,62,62,33,FEMALE,,,"
  <table>
  <tr height=300>
    <td width=300 height=300><img src=""static/images/cards/4_of_red_moons.svg"" width=""175px"" height=""250px""></img></td>
    <td width=300 height=300><img src=""static/images/cards/back_of_red_moons.svg"" width=""175px"" height=""250px""></img></td>
  </tr>
  <tr height=200>
    <td width=300><img src=""static/images/keys/z.svg"" width=""35%"" height=""75%""></img></td>
    <td width=300><img src=""static/images/keys/m.svg"" width=""35%"" height=""75%""></img></td>
  </tr>
</table>
  ",,,,,,,,,,,,,,,,,,,,,,,,,,,,
115,0,,html-keyboard-response,115,386738,0.0-4.18-3.18,gfuy4yxi454,2022-09-19 16:22:30.400,615efd1df11a7d21f0f12f68,1,56,79,62,62,33,FEMALE,,,"<p style=""font-size:50px"">You Lose!
No points this round.</p>",,,,,,,,,,,,,,,,,,,,,,,,,,,,
116,0,,html-keyboard-response,116,387252,0.0-4.18-4.18,gfuy4yxi454,2022-09-19 16:22:30.400,615efd1df11a7d21f0f12f68,1,56,79,62,62,33,FEMALE,,,,,,1.0,learning,18.0,A,,red,,moons,,,,A,red,moons,,1.0,1.0,NA,left,880.0,4.0,0.0,0.0,,,
117,0,,html-keyboard-response,117,388761,0.0-4.19-0.19,gfuy4yxi454,2022-09-19 16:22:30.400,615efd1df11a7d21f0f12f68,1,56,79,62,62,33,FEMALE,,,"<img src=""static/images/cards/stack_of_black_moons.svg"" width=""175px"" height=""250px""></img>",,,,,,,,,,,,,,,,,,,,,,,,,,,,
118,0,,html-keyboard-response,118,390088,0.0-4.19-1.19,gfuy4yxi454,2022-09-19 16:22:30.400,615efd1df11a7d21f0f12f68,1,56,79,62,62,33,FEMALE,802.0,,"
  <table>
  <tr height=300>
    <td width=300 height=300><img src=""static/images/cards/back_of_black_moons.svg"" width=""175px"" height=""250px""></img></td>
    <td width=300 height=300><img src=""static/images/cards/back_of_black_moons.svg"" width=""175px"" height=""250px""></img></td>
  </tr>
  <tr height=200>
    <td width=300><img src=""static/images/keys/z.svg"" width=""35%"" height=""75%""></img></td>
    <td width=300></td>
  </tr>
</table>
  ",90.0,1.0,,,,,,,,,,,,,,,,,,,,,,,,,,
119,0,,html-keyboard-response,119,391596,0.0-4.19-2.19,gfuy4yxi454,2022-09-19 16:22:30.400,615efd1df11a7d21f0f12f68,1,56,79,62,62,33,FEMALE,,,"
  <table>
  <tr height=300>
    <td width=300 height=300><img src=""static/images/cards/4_of_black_moons.svg"" width=""175px"" height=""250px""></img></td>
    <td width=300 height=300><img src=""static/images/cards/back_of_black_moons.svg"" width=""175px"" height=""250px""></img></td>
  </tr>
  <tr height=200>
    <td width=300><img src=""static/images/keys/z.svg"" width=""35%"" height=""75%""></img></td>
    <td width=300></td>
  </tr>
</table>
  ",,,,,,,,,,,,,,,,,,,,,,,,,,,,
120,0,,html-keyboard-response,120,393104,0.0-4.19-3.19,gfuy4yxi454,2022-09-19 16:22:30.400,615efd1df11a7d21f0f12f68,1,56,79,62,62,33,FEMALE,,,"<p style=""font-size:50px"">You Lose!
No points this round.</p>",,,,,,,,,,,,,,,,,,,,,,,,,,,,
121,0,,html-keyboard-response,121,393612,0.0-4.19-4.19,gfuy4yxi454,2022-09-19 16:22:30.400,615efd1df11a7d21f0f12f68,1,56,79,62,62,33,FEMALE,,,,,,1.0,learning,19.0,B,,black,,moons,,,,B,black,moons,,0.0,1.0,1,left,802.0,4.0,0.0,0.0,,,
122,0,,html-keyboard-response,122,395118,0.0-4.20-0.20,gfuy4yxi454,2022-09-19 16:22:30.400,615efd1df11a7d21f0f12f68,1,56,79,62,62,33,FEMALE,,,"<img src=""static/images/cards/stack_of_red_stars.svg"" width=""175px"" height=""250px""></img>",,,,,,,,,,,,,,,,,,,,,,,,,,,,
123,0,,html-keyboard-response,123,396346,0.0-4.20-1.20,gfuy4yxi454,2022-09-19 16:22:30.400,615efd1df11a7d21f0f12f68,1,56,79,62,62,33,FEMALE,697.0,,"
  <table>
  <tr height=300>
    <td width=300 height=300><img src=""static/images/cards/back_of_red_stars.svg"" width=""175px"" height=""250px""></img></td>
    <td width=300 height=300><img src=""static/images/cards/back_of_red_stars.svg"" width=""175px"" height=""250px""></img></td>
  </tr>
  <tr height=200>
    <td width=300><img src=""static/images/keys/z.svg"" width=""35%"" height=""75%""></img></td>
    <td width=300><img src=""static/images/keys/m.svg"" width=""35%"" height=""75%""></img></td>
  </tr>
</table>
  ",90.0,1.0,,,,,,,,,,,,,,,,,,,,,,,,,,
124,0,,html-keyboard-response,124,397856,0.0-4.20-2.20,gfuy4yxi454,2022-09-19 16:22:30.400,615efd1df11a7d21f0f12f68,1,56,79,62,62,33,FEMALE,,,"
  <table>
  <tr height=300>
    <td width=300 height=300><img src=""static/images/cards/4_of_red_stars.svg"" width=""175px"" height=""250px""></img></td>
    <td width=300 height=300><img src=""static/images/cards/back_of_red_stars.svg"" width=""175px"" height=""250px""></img></td>
  </tr>
  <tr height=200>
    <td width=300><img src=""static/images/keys/z.svg"" width=""35%"" height=""75%""></img></td>
    <td width=300><img src=""static/images/keys/m.svg"" width=""35%"" height=""75%""></img></td>
  </tr>
</table>
  ",,,,,,,,,,,,,,,,,,,,,,,,,,,,
125,0,,html-keyboard-response,125,399376,0.0-4.20-3.20,gfuy4yxi454,2022-09-19 16:22:30.400,615efd1df11a7d21f0f12f68,1,56,79,62,62,33,FEMALE,,,"<p style=""font-size:50px"">You win!
+10 points this round!</p>",,,,,,,,,,,,,,,,,,,,,,,,,,,,
126,0,,html-keyboard-response,126,399901,0.0-4.20-4.20,gfuy4yxi454,2022-09-19 16:22:30.400,615efd1df11a7d21f0f12f68,1,56,79,62,62,33,FEMALE,,,,,,1.0,learning,20.0,C,,red,,stars,,,,C,red,stars,,1.0,0.0,NA,left,697.0,4.0,0.0,1.0,,,
127,0,,html-keyboard-response,127,401407,0.0-4.21-0.21,gfuy4yxi454,2022-09-19 16:22:30.400,615efd1df11a7d21f0f12f68,1,56,79,62,62,33,FEMALE,,,"<img src=""static/images/cards/stack_of_black_stars.svg"" width=""175px"" height=""250px""></img>",,,,,,,,,,,,,,,,,,,,,,,,,,,,
128,0,,html-keyboard-response,128,403224,0.0-4.21-1.21,gfuy4yxi454,2022-09-19 16:22:30.400,615efd1df11a7d21f0f12f68,1,56,79,62,62,33,FEMALE,1302.0,,"
  <table>
  <tr height=300>
    <td width=300 height=300><img src=""static/images/cards/back_of_black_stars.svg"" width=""175px"" height=""250px""></img></td>
    <td width=300 height=300><img src=""static/images/cards/back_of_black_stars.svg"" width=""175px"" height=""250px""></img></td>
  </tr>
  <tr height=200>
    <td width=300><img src=""static/images/keys/z.svg"" width=""35%"" height=""75%""></img></td>
    <td width=300></td>
  </tr>
</table>
  ",90.0,1.0,,,,,,,,,,,,,,,,,,,,,,,,,,
129,0,,html-keyboard-response,129,404739,0.0-4.21-2.21,gfuy4yxi454,2022-09-19 16:22:30.400,615efd1df11a7d21f0f12f68,1,56,79,62,62,33,FEMALE,,,"
  <table>
  <tr height=300>
    <td width=300 height=300><img src=""static/images/cards/7_of_black_stars.svg"" width=""175px"" height=""250px""></img></td>
    <td width=300 height=300><img src=""static/images/cards/back_of_black_stars.svg"" width=""175px"" height=""250px""></img></td>
  </tr>
  <tr height=200>
    <td width=300><img src=""static/images/keys/z.svg"" width=""35%"" height=""75%""></img></td>
    <td width=300></td>
  </tr>
</table>
  ",,,,,,,,,,,,,,,,,,,,,,,,,,,,
130,0,,html-keyboard-response,130,406260,0.0-4.21-3.21,gfuy4yxi454,2022-09-19 16:22:30.400,615efd1df11a7d21f0f12f68,1,56,79,62,62,33,FEMALE,,,"<p style=""font-size:50px"">You win!
+10 points this round!</p>",,,,,,,,,,,,,,,,,,,,,,,,,,,,
131,0,,html-keyboard-response,131,406767,0.0-4.21-4.21,gfuy4yxi454,2022-09-19 16:22:30.400,615efd1df11a7d21f0f12f68,1,56,79,62,62,33,FEMALE,,,,,,1.0,learning,21.0,D,,black,,stars,,,,D,black,stars,,0.0,0.0,1,left,1302.0,7.0,1.0,1.0,,,
132,0,,html-keyboard-response,132,408281,0.0-4.22-0.22,gfuy4yxi454,2022-09-19 16:22:30.400,615efd1df11a7d21f0f12f68,1,56,79,62,62,33,FEMALE,,,"<img src=""static/images/cards/stack_of_red_bolts.svg"" width=""175px"" height=""250px""></img>",,,,,,,,,,,,,,,,,,,,,,,,,,,,
133,0,,html-keyboard-response,133,409367,0.0-4.22-1.22,gfuy4yxi454,2022-09-19 16:22:30.400,615efd1df11a7d21f0f12f68,1,56,79,62,62,33,FEMALE,576.0,,"
  <table>
  <tr height=300>
    <td width=300 height=300><img src=""static/images/cards/back_of_red_bolts.svg"" width=""175px"" height=""250px""></img></td>
    <td width=300 height=300><img src=""static/images/cards/back_of_red_bolts.svg"" width=""175px"" height=""250px""></img></td>
  </tr>
  <tr height=200>
    <td width=300><img src=""static/images/keys/z.svg"" width=""35%"" height=""75%""></img></td>
    <td width=300><img src=""static/images/keys/m.svg"" width=""35%"" height=""75%""></img></td>
  </tr>
</table>
  ",90.0,1.0,,,,,,,,,,,,,,,,,,,,,,,,,,
134,0,,html-keyboard-response,134,410883,0.0-4.22-2.22,gfuy4yxi454,2022-09-19 16:22:30.400,615efd1df11a7d21f0f12f68,1,56,79,62,62,33,FEMALE,,,"
  <table>
  <tr height=300>
    <td width=300 height=300><img src=""static/images/cards/1_of_red_bolts.svg"" width=""175px"" height=""250px""></img></td>
    <td width=300 height=300><img src=""static/images/cards/back_of_red_bolts.svg"" width=""175px"" height=""250px""></img></td>
  </tr>
  <tr height=200>
    <td width=300><img src=""static/images/keys/z.svg"" width=""35%"" height=""75%""></img></td>
    <td width=300><img src=""static/images/keys/m.svg"" width=""35%"" height=""75%""></img></td>
  </tr>
</table>
  ",,,,,,,,,,,,,,,,,,,,,,,,,,,,
135,0,,html-keyboard-response,135,412400,0.0-4.22-3.22,gfuy4yxi454,2022-09-19 16:22:30.400,615efd1df11a7d21f0f12f68,1,56,79,62,62,33,FEMALE,,,"<p style=""font-size:50px"">You win!
+10 points this round!</p>",,,,,,,,,,,,,,,,,,,,,,,,,,,,
136,0,,html-keyboard-response,136,412908,0.0-4.22-4.22,gfuy4yxi454,2022-09-19 16:22:30.400,615efd1df11a7d21f0f12f68,1,56,79,62,62,33,FEMALE,,,,,,1.0,learning,22.0,Xc,,red,,bolts,,,,Xc,red,bolts,,1.0,0.0,NA,left,576.0,1.0,0.0,1.0,,,
137,0,,html-keyboard-response,137,414421,0.0-4.23-0.23,gfuy4yxi454,2022-09-19 16:22:30.400,615efd1df11a7d21f0f12f68,1,56,79,62,62,33,FEMALE,,,"<img src=""static/images/cards/stack_of_black_bolts.svg"" width=""175px"" height=""250px""></img>",,,,,,,,,,,,,,,,,,,,,,,,,,,,
138,0,,html-keyboard-response,138,415537,0.0-4.23-1.23,gfuy4yxi454,2022-09-19 16:22:30.400,615efd1df11a7d21f0f12f68,1,56,79,62,62,33,FEMALE,592.0,,"
  <table>
  <tr height=300>
    <td width=300 height=300><img src=""static/images/cards/back_of_black_bolts.svg"" width=""175px"" height=""250px""></img></td>
    <td width=300 height=300><img src=""static/images/cards/back_of_black_bolts.svg"" width=""175px"" height=""250px""></img></td>
  </tr>
  <tr height=200>
    <td width=300></td>
    <td width=300><img src=""static/images/keys/m.svg"" width=""35%"" height=""75%""></img></td>
  </tr>
</table>
  ",77.0,1.0,,,,,,,,,,,,,,,,,,,,,,,,,,
139,0,,html-keyboard-response,139,417052,0.0-4.23-2.23,gfuy4yxi454,2022-09-19 16:22:30.400,615efd1df11a7d21f0f12f68,1,56,79,62,62,33,FEMALE,,,"
  <table>
  <tr height=300>
    <td width=300 height=300><img src=""static/images/cards/back_of_black_bolts.svg"" width=""175px"" height=""250px""></img></td>
    <td width=300 height=300><img src=""static/images/cards/7_of_black_bolts.svg"" width=""175px"" height=""250px""></img></td>
  </tr>
  <tr height=200>
    <td width=300></td>
    <td width=300><img src=""static/images/keys/m.svg"" width=""35%"" height=""75%""></img></td>
  </tr>
</table>
  ",,,,,,,,,,,,,,,,,,,,,,,,,,,,
140,0,,html-keyboard-response,140,418562,0.0-4.23-3.23,gfuy4yxi454,2022-09-19 16:22:30.400,615efd1df11a7d21f0f12f68,1,56,79,62,62,33,FEMALE,,,"<p style=""font-size:50px"">You win!
+10 points this round!</p>",,,,,,,,,,,,,,,,,,,,,,,,,,,,
141,0,,html-keyboard-response,141,419072,0.0-4.23-4.23,gfuy4yxi454,2022-09-19 16:22:30.400,615efd1df11a7d21f0f12f68,1,56,79,62,62,33,FEMALE,,,,,,1.0,learning,23.0,Xnc,,black,,bolts,,,,Xnc,black,bolts,,0.0,0.0,0,right,592.0,7.0,1.0,1.0,,,
142,0,,call-function,142,419096,0.0-5.0,gfuy4yxi454,2022-09-19 16:22:30.400,615efd1df11a7d21f0f12f68,1,56,79,62,62,33,FEMALE,,,,,,,,,,,,,,,,,,,,,,,,,,,,,,,
143,0,,image-keyboard-response,143,426651,0.0-6.0-0.0,gfuy4yxi454,2022-09-19 16:22:30.400,615efd1df11a7d21f0f12f68,1,56,79,62,62,33,FEMALE,7554.0,,static/images/instructions_CB_1/Slide20.png,39.0,,,,,,,,,,,,,,,,,,,,,,,,,,,
144,0,,image-keyboard-response,144,428484,0.0-6.1-0.1,gfuy4yxi454,2022-09-19 16:22:30.400,615efd1df11a7d21f0f12f68,1,56,79,62,62,33,FEMALE,1821.0,,static/images/instructions_CB_1/Slide21.png,39.0,,,,,,,,,,,,,,,,,,,,,,,,,,,
145,0,,image-keyboard-response,145,429071,0.0-6.2-0.2,gfuy4yxi454,2022-09-19 16:22:30.400,615efd1df11a7d21f0f12f68,1,56,79,62,62,33,FEMALE,579.0,,static/images/instructions_CB_1/Slide22.png,39.0,,,,,,,,,,,,,,,,,,,,,,,,,,,
146,0,,image-keyboard-response,146,429879,0.0-6.3-0.3,gfuy4yxi454,2022-09-19 16:22:30.400,615efd1df11a7d21f0f12f68,1,56,79,62,62,33,FEMALE,804.0,,static/images/instructions_CB_1/Slide23.png,39.0,,,,,,,,,,,,,,,,,,,,,,,,,,,
147,0,,image-keyboard-response,147,430496,0.0-6.4-0.4,gfuy4yxi454,2022-09-19 16:22:30.400,615efd1df11a7d21f0f12f68,1,56,79,62,62,33,FEMALE,613.0,,static/images/instructions_CB_1/Slide24.png,39.0,,,,,,,,,,,,,,,,,,,,,,,,,,,
148,0,,html-keyboard-response,148,435512,0.0-7.0-0.0,gfuy4yxi454,2022-09-19 16:22:30.400,615efd1df11a7d21f0f12f68,1,56,79,62,62,33,FEMALE,,,"
  <table>
  <tr height=300>
    <td width=300 height=300><img src=""static/images/cards/stack_of_red_moons.svg"" width=""175px"" height=""250px""></img></td>
    <td width=300 height=300><img src=""static/images/cards/stack_of_black_moons.svg"" width=""175px"" height=""250px""></img></td>
  </tr>
  <tr height=200>
    <td width=300><img src=""static/images/keys/w.svg"" width=""35%"" height=""75%""></img></td>
    <td width=300><img src=""static/images/keys/o.svg"" width=""35%"" height=""75%""></img></td>
  </tr>
</table>
  ",,,,,,,,,,,,,,,,,,,,,,,,,,,,
149,0,,html-keyboard-response,149,436030,0.0-7.0-1.0,gfuy4yxi454,2022-09-19 16:22:30.400,615efd1df11a7d21f0f12f68,1,56,79,62,62,33,FEMALE,,,,,,,,,,,,,,,,,,,,,,,,,,,,,,,
150,0,,html-keyboard-response,150,436035,0.0-7.0-2.0,gfuy4yxi454,2022-09-19 16:22:30.400,615efd1df11a7d21f0f12f68,1,56,79,62,62,33,FEMALE,,,,,,,,,,,,,,,,,,,,,,,,,,,,,,,
151,0,,html-keyboard-response,151,437562,0.0-7.0-3.0,gfuy4yxi454,2022-09-19 16:22:30.400,615efd1df11a7d21f0f12f68,1,56,79,62,62,33,FEMALE,,,"<p style=""font-size:50px"">Too slow!</p>",,,,,,,,,,,,,,,,,,,,,,,,,,,,
152,0,,html-keyboard-response,152,438068,0.0-7.0-4.0,gfuy4yxi454,2022-09-19 16:22:30.400,615efd1df11a7d21f0f12f68,1,56,79,62,62,33,FEMALE,,,,,,1.0,choice,0.0,A,B,red,black,moons,moons,A,B,,,,,0.0,0.0,0,,,7.0,1.0,1.0,,,
153,0,,html-keyboard-response,153,443080,0.0-7.1-0.1,gfuy4yxi454,2022-09-19 16:22:30.400,615efd1df11a7d21f0f12f68,1,56,79,62,62,33,FEMALE,,,"
  <table>
  <tr height=300>
    <td width=300 height=300><img src=""static/images/cards/stack_of_red_stars.svg"" width=""175px"" height=""250px""></img></td>
    <td width=300 height=300><img src=""static/images/cards/stack_of_red_moons.svg"" width=""175px"" height=""250px""></img></td>
  </tr>
  <tr height=200>
    <td width=300><img src=""static/images/keys/w.svg"" width=""35%"" height=""75%""></img></td>
    <td width=300><img src=""static/images/keys/o.svg"" width=""35%"" height=""75%""></img></td>
  </tr>
</table>
  ",,,,,,,,,,,,,,,,,,,,,,,,,,,,
154,0,,html-keyboard-response,154,443603,0.0-7.1-1.1,gfuy4yxi454,2022-09-19 16:22:30.400,615efd1df11a7d21f0f12f68,1,56,79,62,62,33,FEMALE,,,,,,,,,,,,,,,,,,,,,,,,,,,,,,,
155,0,,html-keyboard-response,155,443608,0.0-7.1-2.1,gfuy4yxi454,2022-09-19 16:22:30.400,615efd1df11a7d21f0f12f68,1,56,79,62,62,33,FEMALE,,,,,,,,,,,,,,,,,,,,,,,,,,,,,,,
156,0,,html-keyboard-response,156,445135,0.0-7.1-3.1,gfuy4yxi454,2022-09-19 16:22:30.400,615efd1df11a7d21f0f12f68,1,56,79,62,62,33,FEMALE,,,"<p style=""font-size:50px"">Too slow!</p>",,,,,,,,,,,,,,,,,,,,,,,,,,,,
157,0,,html-keyboard-response,157,445659,0.0-7.1-4.1,gfuy4yxi454,2022-09-19 16:22:30.400,615efd1df11a7d21f0f12f68,1,56,79,62,62,33,FEMALE,,,,,,1.0,choice,1.0,A,C,red,red,stars,moons,C,A,,,,,0.0,0.0,0,,,7.0,1.0,1.0,,,
158,0,,html-keyboard-response,158,450665,0.0-7.2-0.2,gfuy4yxi454,2022-09-19 16:22:30.400,615efd1df11a7d21f0f12f68,1,56,79,62,62,33,FEMALE,,,"
  <table>
  <tr height=300>
    <td width=300 height=300><img src=""static/images/cards/stack_of_black_stars.svg"" width=""175px"" height=""250px""></img></td>
    <td width=300 height=300><img src=""static/images/cards/stack_of_red_moons.svg"" width=""175px"" height=""250px""></img></td>
  </tr>
  <tr height=200>
    <td width=300><img src=""static/images/keys/w.svg"" width=""35%"" height=""75%""></img></td>
    <td width=300><img src=""static/images/keys/o.svg"" width=""35%"" height=""75%""></img></td>
  </tr>
</table>
  ",,,,,,,,,,,,,,,,,,,,,,,,,,,,
159,0,,html-keyboard-response,159,451188,0.0-7.2-1.2,gfuy4yxi454,2022-09-19 16:22:30.400,615efd1df11a7d21f0f12f68,1,56,79,62,62,33,FEMALE,,,,,,,,,,,,,,,,,,,,,,,,,,,,,,,
160,0,,html-keyboard-response,160,451193,0.0-7.2-2.2,gfuy4yxi454,2022-09-19 16:22:30.400,615efd1df11a7d21f0f12f68,1,56,79,62,62,33,FEMALE,,,,,,,,,,,,,,,,,,,,,,,,,,,,,,,
161,0,,html-keyboard-response,161,452714,0.0-7.2-3.2,gfuy4yxi454,2022-09-19 16:22:30.400,615efd1df11a7d21f0f12f68,1,56,79,62,62,33,FEMALE,,,"<p style=""font-size:50px"">Too slow!</p>",,,,,,,,,,,,,,,,,,,,,,,,,,,,
162,0,,html-keyboard-response,162,453221,0.0-7.2-4.2,gfuy4yxi454,2022-09-19 16:22:30.400,615efd1df11a7d21f0f12f68,1,56,79,62,62,33,FEMALE,,,,,,1.0,choice,2.0,A,D,black,red,stars,moons,D,A,,,,,0.0,0.0,0,,,7.0,1.0,1.0,,,
163,0,,html-keyboard-response,163,458109,0.0-7.3-0.3,gfuy4yxi454,2022-09-19 16:22:30.400,615efd1df11a7d21f0f12f68,1,56,79,62,62,33,FEMALE,4876.0,,"
  <table>
  <tr height=300>
    <td width=300 height=300><img src=""static/images/cards/stack_of_red_stars.svg"" width=""175px"" height=""250px""></img></td>
    <td width=300 height=300><img src=""static/images/cards/stack_of_black_stars.svg"" width=""175px"" height=""250px""></img></td>
  </tr>
  <tr height=200>
    <td width=300><img src=""static/images/keys/w.svg"" width=""35%"" height=""75%""></img></td>
    <td width=300><img src=""static/images/keys/o.svg"" width=""35%"" height=""75%""></img></td>
  </tr>
</table>
  ",87.0,4.0,,,,,,,,,,,,,,,,,,,,,,,,,,
164,0,,html-keyboard-response,164,461028,0.0-7.3-1.3,gfuy4yxi454,2022-09-19 16:22:30.400,615efd1df11a7d21f0f12f68,1,56,79,62,62,33,FEMALE,2405.0,,"
  <table>
  <tr height=300>
    <td width=300 height=300><img src=""static/images/cards/back_of_red_stars.svg"" width=""175px"" height=""250px""></img></td>
    <td width=300 height=300><img src=""static/images/cards/back_of_red_stars.svg"" width=""175px"" height=""250px""></img></td>
  </tr>
  <tr height=200>
    <td width=300><img src=""static/images/keys/z.svg"" width=""35%"" height=""75%""></img></td>
    <td width=300><img src=""static/images/keys/m.svg"" width=""35%"" height=""75%""></img></td>
  </tr>
</table>
  ",90.0,1.0,,,,,,,,,,,,,,,,,,,,,,,,,,
165,0,,html-keyboard-response,165,462542,0.0-7.3-2.3,gfuy4yxi454,2022-09-19 16:22:30.400,615efd1df11a7d21f0f12f68,1,56,79,62,62,33,FEMALE,,,"
  <table>
  <tr height=300>
    <td width=300 height=300><img src=""static/images/cards/3_of_red_stars.svg"" width=""175px"" height=""250px""></img></td>
    <td width=300 height=300><img src=""static/images/cards/back_of_red_stars.svg"" width=""175px"" height=""250px""></img></td>
  </tr>
  <tr height=200>
    <td width=300><img src=""static/images/keys/z.svg"" width=""35%"" height=""75%""></img></td>
    <td width=300><img src=""static/images/keys/m.svg"" width=""35%"" height=""75%""></img></td>
  </tr>
</table>
  ",,,,,,,,,,,,,,,,,,,,,,,,,,,,
166,0,,html-keyboard-response,166,464047,0.0-7.3-3.3,gfuy4yxi454,2022-09-19 16:22:30.400,615efd1df11a7d21f0f12f68,1,56,79,62,62,33,FEMALE,,,"<p style=""font-size:50px"">You win!
+10 points this round!</p>",,,,,,,,,,,,,,,,,,,,,,,,,,,,
167,0,,html-keyboard-response,167,464569,0.0-7.3-4.3,gfuy4yxi454,2022-09-19 16:22:30.400,615efd1df11a7d21f0f12f68,1,56,79,62,62,33,FEMALE,,,,,,1.0,choice,3.0,C,D,red,black,stars,stars,C,D,C,red,stars,4876.0,1.0,0.0,NA,left,2405.0,3.0,0.0,1.0,,,
168,0,,html-keyboard-response,168,466371,0.0-7.4-0.4,gfuy4yxi454,2022-09-19 16:22:30.400,615efd1df11a7d21f0f12f68,1,56,79,62,62,33,FEMALE,1791.0,,"
  <table>
  <tr height=300>
    <td width=300 height=300><img src=""static/images/cards/stack_of_black_moons.svg"" width=""175px"" height=""250px""></img></td>
    <td width=300 height=300><img src=""static/images/cards/stack_of_red_moons.svg"" width=""175px"" height=""250px""></img></td>
  </tr>
  <tr height=200>
    <td width=300><img src=""static/images/keys/w.svg"" width=""35%"" height=""75%""></img></td>
    <td width=300><img src=""static/images/keys/o.svg"" width=""35%"" height=""75%""></img></td>
  </tr>
</table>
  ",87.0,1.0,,,,,,,,,,,,,,,,,,,,,,,,,,
169,0,,html-keyboard-response,169,468397,0.0-7.4-1.4,gfuy4yxi454,2022-09-19 16:22:30.400,615efd1df11a7d21f0f12f68,1,56,79,62,62,33,FEMALE,1518.0,,"
  <table>
  <tr height=300>
    <td width=300 height=300><img src=""static/images/cards/back_of_black_moons.svg"" width=""175px"" height=""250px""></img></td>
    <td width=300 height=300><img src=""static/images/cards/back_of_black_moons.svg"" width=""175px"" height=""250px""></img></td>
  </tr>
  <tr height=200>
    <td width=300></td>
    <td width=300><img src=""static/images/keys/m.svg"" width=""35%"" height=""75%""></img></td>
  </tr>
</table>
  ",77.0,1.0,,,,,,,,,,,,,,,,,,,,,,,,,,
170,0,,html-keyboard-response,170,469912,0.0-7.4-2.4,gfuy4yxi454,2022-09-19 16:22:30.400,615efd1df11a7d21f0f12f68,1,56,79,62,62,33,FEMALE,,,"
  <table>
  <tr height=300>
    <td width=300 height=300><img src=""static/images/cards/back_of_black_moons.svg"" width=""175px"" height=""250px""></img></td>
    <td width=300 height=300><img src=""static/images/cards/10_of_black_moons.svg"" width=""175px"" height=""250px""></img></td>
  </tr>
  <tr height=200>
    <td width=300></td>
    <td width=300><img src=""static/images/keys/m.svg"" width=""35%"" height=""75%""></img></td>
  </tr>
</table>
  ",,,,,,,,,,,,,,,,,,,,,,,,,,,,
171,0,,html-keyboard-response,171,471431,0.0-7.4-3.4,gfuy4yxi454,2022-09-19 16:22:30.400,615efd1df11a7d21f0f12f68,1,56,79,62,62,33,FEMALE,,,"<p style=""font-size:50px"">You win!
+10 points this round!</p>",,,,,,,,,,,,,,,,,,,,,,,,,,,,
172,0,,html-keyboard-response,172,471953,0.0-7.4-4.4,gfuy4yxi454,2022-09-19 16:22:30.400,615efd1df11a7d21f0f12f68,1,56,79,62,62,33,FEMALE,,,,,,1.0,choice,4.0,A,B,black,red,moons,moons,B,A,B,black,moons,1791.0,0.0,1.0,0,right,1518.0,10.0,1.0,1.0,,,
173,0,,html-keyboard-response,173,473975,0.0-7.5-0.5,gfuy4yxi454,2022-09-19 16:22:30.400,615efd1df11a7d21f0f12f68,1,56,79,62,62,33,FEMALE,2016.0,,"
  <table>
  <tr height=300>
    <td width=300 height=300><img src=""static/images/cards/stack_of_black_moons.svg"" width=""175px"" height=""250px""></img></td>
    <td width=300 height=300><img src=""static/images/cards/stack_of_black_stars.svg"" width=""175px"" height=""250px""></img></td>
  </tr>
  <tr height=200>
    <td width=300><img src=""static/images/keys/w.svg"" width=""35%"" height=""75%""></img></td>
    <td width=300><img src=""static/images/keys/o.svg"" width=""35%"" height=""75%""></img></td>
  </tr>
</table>
  ",79.0,1.0,,,,,,,,,,,,,,,,,,,,,,,,,,
174,0,,html-keyboard-response,174,475747,0.0-7.5-1.5,gfuy4yxi454,2022-09-19 16:22:30.400,615efd1df11a7d21f0f12f68,1,56,79,62,62,33,FEMALE,1248.0,,"
  <table>
  <tr height=300>
    <td width=300 height=300><img src=""static/images/cards/back_of_black_stars.svg"" width=""175px"" height=""250px""></img></td>
    <td width=300 height=300><img src=""static/images/cards/back_of_black_stars.svg"" width=""175px"" height=""250px""></img></td>
  </tr>
  <tr height=200>
    <td width=300></td>
    <td width=300><img src=""static/images/keys/m.svg"" width=""35%"" height=""75%""></img></td>
  </tr>
</table>
  ",77.0,1.0,,,,,,,,,,,,,,,,,,,,,,,,,,
175,0,,html-keyboard-response,175,477253,0.0-7.5-2.5,gfuy4yxi454,2022-09-19 16:22:30.400,615efd1df11a7d21f0f12f68,1,56,79,62,62,33,FEMALE,,,"
  <table>
  <tr height=300>
    <td width=300 height=300><img src=""static/images/cards/back_of_black_stars.svg"" width=""175px"" height=""250px""></img></td>
    <td width=300 height=300><img src=""static/images/cards/2_of_black_stars.svg"" width=""175px"" height=""250px""></img></td>
  </tr>
  <tr height=200>
    <td width=300></td>
    <td width=300><img src=""static/images/keys/m.svg"" width=""35%"" height=""75%""></img></td>
  </tr>
</table>
  ",,,,,,,,,,,,,,,,,,,,,,,,,,,,
176,0,,html-keyboard-response,176,478769,0.0-7.5-3.5,gfuy4yxi454,2022-09-19 16:22:30.400,615efd1df11a7d21f0f12f68,1,56,79,62,62,33,FEMALE,,,"<p style=""font-size:50px"">You win!
+10 points this round!</p>",,,,,,,,,,,,,,,,,,,,,,,,,,,,
177,0,,html-keyboard-response,177,479277,0.0-7.5-4.5,gfuy4yxi454,2022-09-19 16:22:30.400,615efd1df11a7d21f0f12f68,1,56,79,62,62,33,FEMALE,,,,,,1.0,choice,5.0,B,D,black,black,moons,stars,B,D,D,black,stars,2016.0,0.0,0.0,0,right,1248.0,2.0,0.0,1.0,,,
178,0,,html-keyboard-response,178,480857,0.0-7.6-0.6,gfuy4yxi454,2022-09-19 16:22:30.400,615efd1df11a7d21f0f12f68,1,56,79,62,62,33,FEMALE,1566.0,,"
  <table>
  <tr height=300>
    <td width=300 height=300><img src=""static/images/cards/stack_of_black_moons.svg"" width=""175px"" height=""250px""></img></td>
    <td width=300 height=300><img src=""static/images/cards/stack_of_black_bolts.svg"" width=""175px"" height=""250px""></img></td>
  </tr>
  <tr height=200>
    <td width=300><img src=""static/images/keys/w.svg"" width=""35%"" height=""75%""></img></td>
    <td width=300><img src=""static/images/keys/o.svg"" width=""35%"" height=""75%""></img></td>
  </tr>
</table>
  ",87.0,1.0,,,,,,,,,,,,,,,,,,,,,,,,,,
179,0,,html-keyboard-response,179,482512,0.0-7.6-1.6,gfuy4yxi454,2022-09-19 16:22:30.400,615efd1df11a7d21f0f12f68,1,56,79,62,62,33,FEMALE,1146.0,,"
  <table>
  <tr height=300>
    <td width=300 height=300><img src=""static/images/cards/back_of_black_moons.svg"" width=""175px"" height=""250px""></img></td>
    <td width=300 height=300><img src=""static/images/cards/back_of_black_moons.svg"" width=""175px"" height=""250px""></img></td>
  </tr>
  <tr height=200>
    <td width=300></td>
    <td width=300><img src=""static/images/keys/m.svg"" width=""35%"" height=""75%""></img></td>
  </tr>
</table>
  ",77.0,1.0,,,,,,,,,,,,,,,,,,,,,,,,,,
180,0,,html-keyboard-response,180,484027,0.0-7.6-2.6,gfuy4yxi454,2022-09-19 16:22:30.400,615efd1df11a7d21f0f12f68,1,56,79,62,62,33,FEMALE,,,"
  <table>
  <tr height=300>
    <td width=300 height=300><img src=""static/images/cards/back_of_black_moons.svg"" width=""175px"" height=""250px""></img></td>
    <td width=300 height=300><img src=""static/images/cards/8_of_black_moons.svg"" width=""175px"" height=""250px""></img></td>
  </tr>
  <tr height=200>
    <td width=300></td>
    <td width=300><img src=""static/images/keys/m.svg"" width=""35%"" height=""75%""></img></td>
  </tr>
</table>
  ",,,,,,,,,,,,,,,,,,,,,,,,,,,,
181,0,,html-keyboard-response,181,485565,0.0-7.6-3.6,gfuy4yxi454,2022-09-19 16:22:30.400,615efd1df11a7d21f0f12f68,1,56,79,62,62,33,FEMALE,,,"<p style=""font-size:50px"">You win!
+10 points this round!</p>",,,,,,,,,,,,,,,,,,,,,,,,,,,,
182,0,,html-keyboard-response,182,486088,0.0-7.6-4.6,gfuy4yxi454,2022-09-19 16:22:30.400,615efd1df11a7d21f0f12f68,1,56,79,62,62,33,FEMALE,,,,,,1.0,choice,6.0,B,Xnc,black,black,moons,bolts,B,Xnc,B,black,moons,1566.0,0.0,1.0,0,right,1146.0,8.0,1.0,1.0,,,
183,0,,html-keyboard-response,183,487808,0.0-7.7-0.7,gfuy4yxi454,2022-09-19 16:22:30.400,615efd1df11a7d21f0f12f68,1,56,79,62,62,33,FEMALE,1707.0,,"
  <table>
  <tr height=300>
    <td width=300 height=300><img src=""static/images/cards/stack_of_red_stars.svg"" width=""175px"" height=""250px""></img></td>
    <td width=300 height=300><img src=""static/images/cards/stack_of_black_stars.svg"" width=""175px"" height=""250px""></img></td>
  </tr>
  <tr height=200>
    <td width=300><img src=""static/images/keys/w.svg"" width=""35%"" height=""75%""></img></td>
    <td width=300><img src=""static/images/keys/o.svg"" width=""35%"" height=""75%""></img></td>
  </tr>
</table>
  ",87.0,1.0,,,,,,,,,,,,,,,,,,,,,,,,,,
184,0,,html-keyboard-response,184,489742,0.0-7.7-1.7,gfuy4yxi454,2022-09-19 16:22:30.400,615efd1df11a7d21f0f12f68,1,56,79,62,62,33,FEMALE,1425.0,,"
  <table>
  <tr height=300>
    <td width=300 height=300><img src=""static/images/cards/back_of_red_stars.svg"" width=""175px"" height=""250px""></img></td>
    <td width=300 height=300><img src=""static/images/cards/back_of_red_stars.svg"" width=""175px"" height=""250px""></img></td>
  </tr>
  <tr height=200>
    <td width=300><img src=""static/images/keys/z.svg"" width=""35%"" height=""75%""></img></td>
    <td width=300><img src=""static/images/keys/m.svg"" width=""35%"" height=""75%""></img></td>
  </tr>
</table>
  ",77.0,1.0,,,,,,,,,,,,,,,,,,,,,,,,,,
185,0,,html-keyboard-response,185,491262,0.0-7.7-2.7,gfuy4yxi454,2022-09-19 16:22:30.400,615efd1df11a7d21f0f12f68,1,56,79,62,62,33,FEMALE,,,"
  <table>
  <tr height=300>
    <td width=300 height=300><img src=""static/images/cards/back_of_red_stars.svg"" width=""175px"" height=""250px""></img></td>
    <td width=300 height=300><img src=""static/images/cards/4_of_red_stars.svg"" width=""175px"" height=""250px""></img></td>
  </tr>
  <tr height=200>
    <td width=300><img src=""static/images/keys/z.svg"" width=""35%"" height=""75%""></img></td>
    <td width=300><img src=""static/images/keys/m.svg"" width=""35%"" height=""75%""></img></td>
  </tr>
</table>
  ",,,,,,,,,,,,,,,,,,,,,,,,,,,,
186,0,,html-keyboard-response,186,492775,0.0-7.7-3.7,gfuy4yxi454,2022-09-19 16:22:30.400,615efd1df11a7d21f0f12f68,1,56,79,62,62,33,FEMALE,,,"<p style=""font-size:50px"">You win!
+10 points this round!</p>",,,,,,,,,,,,,,,,,,,,,,,,,,,,
187,0,,html-keyboard-response,187,493289,0.0-7.7-4.7,gfuy4yxi454,2022-09-19 16:22:30.400,615efd1df11a7d21f0f12f68,1,56,79,62,62,33,FEMALE,,,,,,1.0,choice,7.0,C,D,red,black,stars,stars,C,D,C,red,stars,1707.0,1.0,0.0,NA,right,1425.0,4.0,0.0,1.0,,,
188,0,,html-keyboard-response,188,494323,0.0-7.8-0.8,gfuy4yxi454,2022-09-19 16:22:30.400,615efd1df11a7d21f0f12f68,1,56,79,62,62,33,FEMALE,1021.0,,"
  <table>
  <tr height=300>
    <td width=300 height=300><img src=""static/images/cards/stack_of_black_moons.svg"" width=""175px"" height=""250px""></img></td>
    <td width=300 height=300><img src=""static/images/cards/stack_of_red_stars.svg"" width=""175px"" height=""250px""></img></td>
  </tr>
  <tr height=200>
    <td width=300><img src=""static/images/keys/w.svg"" width=""35%"" height=""75%""></img></td>
    <td width=300><img src=""static/images/keys/o.svg"" width=""35%"" height=""75%""></img></td>
  </tr>
</table>
  ",87.0,1.0,,,,,,,,,,,,,,,,,,,,,,,,,,
189,0,,html-keyboard-response,189,495726,0.0-7.8-1.8,gfuy4yxi454,2022-09-19 16:22:30.400,615efd1df11a7d21f0f12f68,1,56,79,62,62,33,FEMALE,886.0,,"
  <table>
  <tr height=300>
    <td width=300 height=300><img src=""static/images/cards/back_of_black_moons.svg"" width=""175px"" height=""250px""></img></td>
    <td width=300 height=300><img src=""static/images/cards/back_of_black_moons.svg"" width=""175px"" height=""250px""></img></td>
  </tr>
  <tr height=200>
    <td width=300></td>
    <td width=300><img src=""static/images/keys/m.svg"" width=""35%"" height=""75%""></img></td>
  </tr>
</table>
  ",77.0,1.0,,,,,,,,,,,,,,,,,,,,,,,,,,
190,0,,html-keyboard-response,190,497244,0.0-7.8-2.8,gfuy4yxi454,2022-09-19 16:22:30.400,615efd1df11a7d21f0f12f68,1,56,79,62,62,33,FEMALE,,,"
  <table>
  <tr height=300>
    <td width=300 height=300><img src=""static/images/cards/back_of_black_moons.svg"" width=""175px"" height=""250px""></img></td>
    <td width=300 height=300><img src=""static/images/cards/10_of_black_moons.svg"" width=""175px"" height=""250px""></img></td>
  </tr>
  <tr height=200>
    <td width=300></td>
    <td width=300><img src=""static/images/keys/m.svg"" width=""35%"" height=""75%""></img></td>
  </tr>
</table>
  ",,,,,,,,,,,,,,,,,,,,,,,,,,,,
191,0,,html-keyboard-response,191,498779,0.0-7.8-3.8,gfuy4yxi454,2022-09-19 16:22:30.400,615efd1df11a7d21f0f12f68,1,56,79,62,62,33,FEMALE,,,"<p style=""font-size:50px"">You win!
+10 points this round!</p>",,,,,,,,,,,,,,,,,,,,,,,,,,,,
192,0,,html-keyboard-response,192,499288,0.0-7.8-4.8,gfuy4yxi454,2022-09-19 16:22:30.400,615efd1df11a7d21f0f12f68,1,56,79,62,62,33,FEMALE,,,,,,1.0,choice,8.0,B,C,black,red,moons,stars,B,C,B,black,moons,1021.0,0.0,1.0,0,right,886.0,10.0,1.0,1.0,,,
193,0,,html-keyboard-response,193,500688,0.0-7.9-0.9,gfuy4yxi454,2022-09-19 16:22:30.400,615efd1df11a7d21f0f12f68,1,56,79,62,62,33,FEMALE,1397.0,,"
  <table>
  <tr height=300>
    <td width=300 height=300><img src=""static/images/cards/stack_of_red_moons.svg"" width=""175px"" height=""250px""></img></td>
    <td width=300 height=300><img src=""static/images/cards/stack_of_black_stars.svg"" width=""175px"" height=""250px""></img></td>
  </tr>
  <tr height=200>
    <td width=300><img src=""static/images/keys/w.svg"" width=""35%"" height=""75%""></img></td>
    <td width=300><img src=""static/images/keys/o.svg"" width=""35%"" height=""75%""></img></td>
  </tr>
</table>
  ",87.0,1.0,,,,,,,,,,,,,,,,,,,,,,,,,,
194,0,,html-keyboard-response,194,501887,0.0-7.9-1.9,gfuy4yxi454,2022-09-19 16:22:30.400,615efd1df11a7d21f0f12f68,1,56,79,62,62,33,FEMALE,693.0,,"
  <table>
  <tr height=300>
    <td width=300 height=300><img src=""static/images/cards/back_of_red_moons.svg"" width=""175px"" height=""250px""></img></td>
    <td width=300 height=300><img src=""static/images/cards/back_of_red_moons.svg"" width=""175px"" height=""250px""></img></td>
  </tr>
  <tr height=200>
    <td width=300><img src=""static/images/keys/z.svg"" width=""35%"" height=""75%""></img></td>
    <td width=300><img src=""static/images/keys/m.svg"" width=""35%"" height=""75%""></img></td>
  </tr>
</table>
  ",77.0,1.0,,,,,,,,,,,,,,,,,,,,,,,,,,
195,0,,html-keyboard-response,195,503401,0.0-7.9-2.9,gfuy4yxi454,2022-09-19 16:22:30.400,615efd1df11a7d21f0f12f68,1,56,79,62,62,33,FEMALE,,,"
  <table>
  <tr height=300>
    <td width=300 height=300><img src=""static/images/cards/back_of_red_moons.svg"" width=""175px"" height=""250px""></img></td>
    <td width=300 height=300><img src=""static/images/cards/9_of_red_moons.svg"" width=""175px"" height=""250px""></img></td>
  </tr>
  <tr height=200>
    <td width=300><img src=""static/images/keys/z.svg"" width=""35%"" height=""75%""></img></td>
    <td width=300><img src=""static/images/keys/m.svg"" width=""35%"" height=""75%""></img></td>
  </tr>
</table>
  ",,,,,,,,,,,,,,,,,,,,,,,,,,,,
196,0,,html-keyboard-response,196,504903,0.0-7.9-3.9,gfuy4yxi454,2022-09-19 16:22:30.400,615efd1df11a7d21f0f12f68,1,56,79,62,62,33,FEMALE,,,"<p style=""font-size:50px"">You win!
+10 points this round!</p>",,,,,,,,,,,,,,,,,,,,,,,,,,,,
197,0,,html-keyboard-response,197,505410,0.0-7.9-4.9,gfuy4yxi454,2022-09-19 16:22:30.400,615efd1df11a7d21f0f12f68,1,56,79,62,62,33,FEMALE,,,,,,1.0,choice,9.0,A,D,red,black,moons,stars,A,D,A,red,moons,1397.0,1.0,1.0,NA,right,693.0,9.0,1.0,1.0,,,
198,0,,html-keyboard-response,198,506146,0.0-7.10-0.10,gfuy4yxi454,2022-09-19 16:22:30.400,615efd1df11a7d21f0f12f68,1,56,79,62,62,33,FEMALE,724.0,,"
  <table>
  <tr height=300>
    <td width=300 height=300><img src=""static/images/cards/stack_of_black_stars.svg"" width=""175px"" height=""250px""></img></td>
    <td width=300 height=300><img src=""static/images/cards/stack_of_red_moons.svg"" width=""175px"" height=""250px""></img></td>
  </tr>
  <tr height=200>
    <td width=300><img src=""static/images/keys/w.svg"" width=""35%"" height=""75%""></img></td>
    <td width=300><img src=""static/images/keys/o.svg"" width=""35%"" height=""75%""></img></td>
  </tr>
</table>
  ",87.0,1.0,,,,,,,,,,,,,,,,,,,,,,,,,,
199,0,,html-keyboard-response,199,507557,0.0-7.10-1.10,gfuy4yxi454,2022-09-19 16:22:30.400,615efd1df11a7d21f0f12f68,1,56,79,62,62,33,FEMALE,893.0,,"
  <table>
  <tr height=300>
    <td width=300 height=300><img src=""static/images/cards/back_of_black_stars.svg"" width=""175px"" height=""250px""></img></td>
    <td width=300 height=300><img src=""static/images/cards/back_of_black_stars.svg"" width=""175px"" height=""250px""></img></td>
  </tr>
  <tr height=200>
    <td width=300></td>
    <td width=300><img src=""static/images/keys/m.svg"" width=""35%"" height=""75%""></img></td>
  </tr>
</table>
  ",77.0,1.0,,,,,,,,,,,,,,,,,,,,,,,,,,
200,0,,html-keyboard-response,200,509087,0.0-7.10-2.10,gfuy4yxi454,2022-09-19 16:22:30.400,615efd1df11a7d21f0f12f68,1,56,79,62,62,33,FEMALE,,,"
  <table>
  <tr height=300>
    <td width=300 height=300><img src=""static/images/cards/back_of_black_stars.svg"" width=""175px"" height=""250px""></img></td>
    <td width=300 height=300><img src=""static/images/cards/6_of_black_stars.svg"" width=""175px"" height=""250px""></img></td>
  </tr>
  <tr height=200>
    <td width=300></td>
    <td width=300><img src=""static/images/keys/m.svg"" width=""35%"" height=""75%""></img></td>
  </tr>
</table>
  ",,,,,,,,,,,,,,,,,,,,,,,,,,,,
201,0,,html-keyboard-response,201,510603,0.0-7.10-3.10,gfuy4yxi454,2022-09-19 16:22:30.400,615efd1df11a7d21f0f12f68,1,56,79,62,62,33,FEMALE,,,"<p style=""font-size:50px"">You Lose!
No points this round.</p>",,,,,,,,,,,,,,,,,,,,,,,,,,,,
202,0,,html-keyboard-response,202,511124,0.0-7.10-4.10,gfuy4yxi454,2022-09-19 16:22:30.400,615efd1df11a7d21f0f12f68,1,56,79,62,62,33,FEMALE,,,,,,1.0,choice,10.0,A,D,black,red,stars,moons,D,A,D,black,stars,724.0,0.0,0.0,0,right,893.0,6.0,1.0,0.0,,,
203,0,,html-keyboard-response,203,512850,0.0-7.11-0.11,gfuy4yxi454,2022-09-19 16:22:30.400,615efd1df11a7d21f0f12f68,1,56,79,62,62,33,FEMALE,1708.0,,"
  <table>
  <tr height=300>
    <td width=300 height=300><img src=""static/images/cards/stack_of_red_stars.svg"" width=""175px"" height=""250px""></img></td>
    <td width=300 height=300><img src=""static/images/cards/stack_of_black_stars.svg"" width=""175px"" height=""250px""></img></td>
  </tr>
  <tr height=200>
    <td width=300><img src=""static/images/keys/w.svg"" width=""35%"" height=""75%""></img></td>
    <td width=300><img src=""static/images/keys/o.svg"" width=""35%"" height=""75%""></img></td>
  </tr>
</table>
  ",79.0,1.0,,,,,,,,,,,,,,,,,,,,,,,,,,
204,0,,html-keyboard-response,204,515095,0.0-7.11-1.11,gfuy4yxi454,2022-09-19 16:22:30.400,615efd1df11a7d21f0f12f68,1,56,79,62,62,33,FEMALE,1714.0,,"
  <table>
  <tr height=300>
    <td width=300 height=300><img src=""static/images/cards/back_of_black_stars.svg"" width=""175px"" height=""250px""></img></td>
    <td width=300 height=300><img src=""static/images/cards/back_of_black_stars.svg"" width=""175px"" height=""250px""></img></td>
  </tr>
  <tr height=200>
    <td width=300><img src=""static/images/keys/z.svg"" width=""35%"" height=""75%""></img></td>
    <td width=300></td>
  </tr>
</table>
  ",90.0,1.0,,,,,,,,,,,,,,,,,,,,,,,,,,
205,0,,html-keyboard-response,205,516614,0.0-7.11-2.11,gfuy4yxi454,2022-09-19 16:22:30.400,615efd1df11a7d21f0f12f68,1,56,79,62,62,33,FEMALE,,,"
  <table>
  <tr height=300>
    <td width=300 height=300><img src=""static/images/cards/7_of_black_stars.svg"" width=""175px"" height=""250px""></img></td>
    <td width=300 height=300><img src=""static/images/cards/back_of_black_stars.svg"" width=""175px"" height=""250px""></img></td>
  </tr>
  <tr height=200>
    <td width=300><img src=""static/images/keys/z.svg"" width=""35%"" height=""75%""></img></td>
    <td width=300></td>
  </tr>
</table>
  ",,,,,,,,,,,,,,,,,,,,,,,,,,,,
206,0,,html-keyboard-response,206,518116,0.0-7.11-3.11,gfuy4yxi454,2022-09-19 16:22:30.400,615efd1df11a7d21f0f12f68,1,56,79,62,62,33,FEMALE,,,"<p style=""font-size:50px"">You win!
+10 points this round!</p>",,,,,,,,,,,,,,,,,,,,,,,,,,,,
207,0,,html-keyboard-response,207,518622,0.0-7.11-4.11,gfuy4yxi454,2022-09-19 16:22:30.400,615efd1df11a7d21f0f12f68,1,56,79,62,62,33,FEMALE,,,,,,1.0,choice,11.0,C,D,red,black,stars,stars,C,D,D,black,stars,1708.0,0.0,0.0,1,left,1714.0,7.0,1.0,1.0,,,
208,0,,html-keyboard-response,208,520097,0.0-7.12-0.12,gfuy4yxi454,2022-09-19 16:22:30.400,615efd1df11a7d21f0f12f68,1,56,79,62,62,33,FEMALE,1472.0,,"
  <table>
  <tr height=300>
    <td width=300 height=300><img src=""static/images/cards/stack_of_black_stars.svg"" width=""175px"" height=""250px""></img></td>
    <td width=300 height=300><img src=""static/images/cards/stack_of_red_stars.svg"" width=""175px"" height=""250px""></img></td>
  </tr>
  <tr height=200>
    <td width=300><img src=""static/images/keys/w.svg"" width=""35%"" height=""75%""></img></td>
    <td width=300><img src=""static/images/keys/o.svg"" width=""35%"" height=""75%""></img></td>
  </tr>
</table>
  ",79.0,1.0,,,,,,,,,,,,,,,,,,,,,,,,,,
209,0,,html-keyboard-response,209,521894,0.0-7.12-1.12,gfuy4yxi454,2022-09-19 16:22:30.400,615efd1df11a7d21f0f12f68,1,56,79,62,62,33,FEMALE,1287.0,,"
  <table>
  <tr height=300>
    <td width=300 height=300><img src=""static/images/cards/back_of_red_stars.svg"" width=""175px"" height=""250px""></img></td>
    <td width=300 height=300><img src=""static/images/cards/back_of_red_stars.svg"" width=""175px"" height=""250px""></img></td>
  </tr>
  <tr height=200>
    <td width=300><img src=""static/images/keys/z.svg"" width=""35%"" height=""75%""></img></td>
    <td width=300><img src=""static/images/keys/m.svg"" width=""35%"" height=""75%""></img></td>
  </tr>
</table>
  ",90.0,1.0,,,,,,,,,,,,,,,,,,,,,,,,,,
210,0,,html-keyboard-response,210,523412,0.0-7.12-2.12,gfuy4yxi454,2022-09-19 16:22:30.400,615efd1df11a7d21f0f12f68,1,56,79,62,62,33,FEMALE,,,"
  <table>
  <tr height=300>
    <td width=300 height=300><img src=""static/images/cards/2_of_red_stars.svg"" width=""175px"" height=""250px""></img></td>
    <td width=300 height=300><img src=""static/images/cards/back_of_red_stars.svg"" width=""175px"" height=""250px""></img></td>
  </tr>
  <tr height=200>
    <td width=300><img src=""static/images/keys/z.svg"" width=""35%"" height=""75%""></img></td>
    <td width=300><img src=""static/images/keys/m.svg"" width=""35%"" height=""75%""></img></td>
  </tr>
</table>
  ",,,,,,,,,,,,,,,,,,,,,,,,,,,,
211,0,,html-keyboard-response,211,524914,0.0-7.12-3.12,gfuy4yxi454,2022-09-19 16:22:30.400,615efd1df11a7d21f0f12f68,1,56,79,62,62,33,FEMALE,,,"<p style=""font-size:50px"">You Lose!
No points this round.</p>",,,,,,,,,,,,,,,,,,,,,,,,,,,,
212,0,,html-keyboard-response,212,525424,0.0-7.12-4.12,gfuy4yxi454,2022-09-19 16:22:30.400,615efd1df11a7d21f0f12f68,1,56,79,62,62,33,FEMALE,,,,,,1.0,choice,12.0,C,D,black,red,stars,stars,D,C,C,red,stars,1472.0,1.0,0.0,NA,left,1287.0,2.0,0.0,0.0,,,
213,0,,html-keyboard-response,213,526479,0.0-7.13-0.13,gfuy4yxi454,2022-09-19 16:22:30.400,615efd1df11a7d21f0f12f68,1,56,79,62,62,33,FEMALE,1036.0,,"
  <table>
  <tr height=300>
    <td width=300 height=300><img src=""static/images/cards/stack_of_red_stars.svg"" width=""175px"" height=""250px""></img></td>
    <td width=300 height=300><img src=""static/images/cards/stack_of_black_moons.svg"" width=""175px"" height=""250px""></img></td>
  </tr>
  <tr height=200>
    <td width=300><img src=""static/images/keys/w.svg"" width=""35%"" height=""75%""></img></td>
    <td width=300><img src=""static/images/keys/o.svg"" width=""35%"" height=""75%""></img></td>
  </tr>
</table>
  ",87.0,1.0,,,,,,,,,,,,,,,,,,,,,,,,,,
214,0,,html-keyboard-response,214,527535,0.0-7.13-1.13,gfuy4yxi454,2022-09-19 16:22:30.400,615efd1df11a7d21f0f12f68,1,56,79,62,62,33,FEMALE,521.0,,"
  <table>
  <tr height=300>
    <td width=300 height=300><img src=""static/images/cards/back_of_red_stars.svg"" width=""175px"" height=""250px""></img></td>
    <td width=300 height=300><img src=""static/images/cards/back_of_red_stars.svg"" width=""175px"" height=""250px""></img></td>
  </tr>
  <tr height=200>
    <td width=300><img src=""static/images/keys/z.svg"" width=""35%"" height=""75%""></img></td>
    <td width=300><img src=""static/images/keys/m.svg"" width=""35%"" height=""75%""></img></td>
  </tr>
</table>
  ",77.0,1.0,,,,,,,,,,,,,,,,,,,,,,,,,,
215,0,,html-keyboard-response,215,529037,0.0-7.13-2.13,gfuy4yxi454,2022-09-19 16:22:30.400,615efd1df11a7d21f0f12f68,1,56,79,62,62,33,FEMALE,,,"
  <table>
  <tr height=300>
    <td width=300 height=300><img src=""static/images/cards/back_of_red_stars.svg"" width=""175px"" height=""250px""></img></td>
    <td width=300 height=300><img src=""static/images/cards/1_of_red_stars.svg"" width=""175px"" height=""250px""></img></td>
  </tr>
  <tr height=200>
    <td width=300><img src=""static/images/keys/z.svg"" width=""35%"" height=""75%""></img></td>
    <td width=300><img src=""static/images/keys/m.svg"" width=""35%"" height=""75%""></img></td>
  </tr>
</table>
  ",,,,,,,,,,,,,,,,,,,,,,,,,,,,
216,0,,html-keyboard-response,216,530543,0.0-7.13-3.13,gfuy4yxi454,2022-09-19 16:22:30.400,615efd1df11a7d21f0f12f68,1,56,79,62,62,33,FEMALE,,,"<p style=""font-size:50px"">You Lose!
No points this round.</p>",,,,,,,,,,,,,,,,,,,,,,,,,,,,
217,0,,html-keyboard-response,217,531049,0.0-7.13-4.13,gfuy4yxi454,2022-09-19 16:22:30.400,615efd1df11a7d21f0f12f68,1,56,79,62,62,33,FEMALE,,,,,,1.0,choice,13.0,B,C,red,black,stars,moons,C,B,C,red,stars,1036.0,1.0,0.0,NA,right,521.0,1.0,0.0,0.0,,,
218,0,,html-keyboard-response,218,533518,0.0-7.14-0.14,gfuy4yxi454,2022-09-19 16:22:30.400,615efd1df11a7d21f0f12f68,1,56,79,62,62,33,FEMALE,2465.0,,"
  <table>
  <tr height=300>
    <td width=300 height=300><img src=""static/images/cards/stack_of_red_stars.svg"" width=""175px"" height=""250px""></img></td>
    <td width=300 height=300><img src=""static/images/cards/stack_of_red_moons.svg"" width=""175px"" height=""250px""></img></td>
  </tr>
  <tr height=200>
    <td width=300><img src=""static/images/keys/w.svg"" width=""35%"" height=""75%""></img></td>
    <td width=300><img src=""static/images/keys/o.svg"" width=""35%"" height=""75%""></img></td>
  </tr>
</table>
  ",79.0,1.0,,,,,,,,,,,,,,,,,,,,,,,,,,
219,0,,html-keyboard-response,219,535445,0.0-7.14-1.14,gfuy4yxi454,2022-09-19 16:22:30.400,615efd1df11a7d21f0f12f68,1,56,79,62,62,33,FEMALE,1404.0,,"
  <table>
  <tr height=300>
    <td width=300 height=300><img src=""static/images/cards/back_of_red_moons.svg"" width=""175px"" height=""250px""></img></td>
    <td width=300 height=300><img src=""static/images/cards/back_of_red_moons.svg"" width=""175px"" height=""250px""></img></td>
  </tr>
  <tr height=200>
    <td width=300><img src=""static/images/keys/z.svg"" width=""35%"" height=""75%""></img></td>
    <td width=300><img src=""static/images/keys/m.svg"" width=""35%"" height=""75%""></img></td>
  </tr>
</table>
  ",77.0,1.0,,,,,,,,,,,,,,,,,,,,,,,,,,
220,0,,html-keyboard-response,220,536954,0.0-7.14-2.14,gfuy4yxi454,2022-09-19 16:22:30.400,615efd1df11a7d21f0f12f68,1,56,79,62,62,33,FEMALE,,,"
  <table>
  <tr height=300>
    <td width=300 height=300><img src=""static/images/cards/back_of_red_moons.svg"" width=""175px"" height=""250px""></img></td>
    <td width=300 height=300><img src=""static/images/cards/2_of_red_moons.svg"" width=""175px"" height=""250px""></img></td>
  </tr>
  <tr height=200>
    <td width=300><img src=""static/images/keys/z.svg"" width=""35%"" height=""75%""></img></td>
    <td width=300><img src=""static/images/keys/m.svg"" width=""35%"" height=""75%""></img></td>
  </tr>
</table>
  ",,,,,,,,,,,,,,,,,,,,,,,,,,,,
221,0,,html-keyboard-response,221,538461,0.0-7.14-3.14,gfuy4yxi454,2022-09-19 16:22:30.400,615efd1df11a7d21f0f12f68,1,56,79,62,62,33,FEMALE,,,"<p style=""font-size:50px"">You Lose!
No points this round.</p>",,,,,,,,,,,,,,,,,,,,,,,,,,,,
222,0,,html-keyboard-response,222,538967,0.0-7.14-4.14,gfuy4yxi454,2022-09-19 16:22:30.400,615efd1df11a7d21f0f12f68,1,56,79,62,62,33,FEMALE,,,,,,1.0,choice,14.0,A,C,red,red,stars,moons,C,A,A,red,moons,2465.0,1.0,1.0,NA,right,1404.0,2.0,0.0,0.0,,,
223,0,,html-keyboard-response,223,540049,0.0-7.15-0.15,gfuy4yxi454,2022-09-19 16:22:30.400,615efd1df11a7d21f0f12f68,1,56,79,62,62,33,FEMALE,1080.0,,"
  <table>
  <tr height=300>
    <td width=300 height=300><img src=""static/images/cards/stack_of_black_moons.svg"" width=""175px"" height=""250px""></img></td>
    <td width=300 height=300><img src=""static/images/cards/stack_of_red_moons.svg"" width=""175px"" height=""250px""></img></td>
  </tr>
  <tr height=200>
    <td width=300><img src=""static/images/keys/w.svg"" width=""35%"" height=""75%""></img></td>
    <td width=300><img src=""static/images/keys/o.svg"" width=""35%"" height=""75%""></img></td>
  </tr>
</table>
  ",87.0,1.0,,,,,,,,,,,,,,,,,,,,,,,,,,
224,0,,html-keyboard-response,224,542457,0.0-7.15-1.15,gfuy4yxi454,2022-09-19 16:22:30.400,615efd1df11a7d21f0f12f68,1,56,79,62,62,33,FEMALE,1904.0,,"
  <table>
  <tr height=300>
    <td width=300 height=300><img src=""static/images/cards/back_of_black_moons.svg"" width=""175px"" height=""250px""></img></td>
    <td width=300 height=300><img src=""static/images/cards/back_of_black_moons.svg"" width=""175px"" height=""250px""></img></td>
  </tr>
  <tr height=200>
    <td width=300><img src=""static/images/keys/z.svg"" width=""35%"" height=""75%""></img></td>
    <td width=300></td>
  </tr>
</table>
  ",90.0,1.0,,,,,,,,,,,,,,,,,,,,,,,,,,
225,0,,html-keyboard-response,225,543973,0.0-7.15-2.15,gfuy4yxi454,2022-09-19 16:22:30.400,615efd1df11a7d21f0f12f68,1,56,79,62,62,33,FEMALE,,,"
  <table>
  <tr height=300>
    <td width=300 height=300><img src=""static/images/cards/6_of_black_moons.svg"" width=""175px"" height=""250px""></img></td>
    <td width=300 height=300><img src=""static/images/cards/back_of_black_moons.svg"" width=""175px"" height=""250px""></img></td>
  </tr>
  <tr height=200>
    <td width=300><img src=""static/images/keys/z.svg"" width=""35%"" height=""75%""></img></td>
    <td width=300></td>
  </tr>
</table>
  ",,,,,,,,,,,,,,,,,,,,,,,,,,,,
226,0,,html-keyboard-response,226,545476,0.0-7.15-3.15,gfuy4yxi454,2022-09-19 16:22:30.400,615efd1df11a7d21f0f12f68,1,56,79,62,62,33,FEMALE,,,"<p style=""font-size:50px"">You win!
+10 points this round!</p>",,,,,,,,,,,,,,,,,,,,,,,,,,,,
227,0,,html-keyboard-response,227,546002,0.0-7.15-4.15,gfuy4yxi454,2022-09-19 16:22:30.400,615efd1df11a7d21f0f12f68,1,56,79,62,62,33,FEMALE,,,,,,1.0,choice,15.0,A,B,black,red,moons,moons,B,A,B,black,moons,1080.0,0.0,1.0,1,left,1904.0,6.0,1.0,1.0,,,
228,0,,html-keyboard-response,228,547029,0.0-7.16-0.16,gfuy4yxi454,2022-09-19 16:22:30.400,615efd1df11a7d21f0f12f68,1,56,79,62,62,33,FEMALE,1023.0,,"
  <table>
  <tr height=300>
    <td width=300 height=300><img src=""static/images/cards/stack_of_red_stars.svg"" width=""175px"" height=""250px""></img></td>
    <td width=300 height=300><img src=""static/images/cards/stack_of_black_moons.svg"" width=""175px"" height=""250px""></img></td>
  </tr>
  <tr height=200>
    <td width=300><img src=""static/images/keys/w.svg"" width=""35%"" height=""75%""></img></td>
    <td width=300><img src=""static/images/keys/o.svg"" width=""35%"" height=""75%""></img></td>
  </tr>
</table>
  ",87.0,1.0,,,,,,,,,,,,,,,,,,,,,,,,,,
229,0,,html-keyboard-response,229,549270,0.0-7.16-1.16,gfuy4yxi454,2022-09-19 16:22:30.400,615efd1df11a7d21f0f12f68,1,56,79,62,62,33,FEMALE,1721.0,,"
  <table>
  <tr height=300>
    <td width=300 height=300><img src=""static/images/cards/back_of_red_stars.svg"" width=""175px"" height=""250px""></img></td>
    <td width=300 height=300><img src=""static/images/cards/back_of_red_stars.svg"" width=""175px"" height=""250px""></img></td>
  </tr>
  <tr height=200>
    <td width=300><img src=""static/images/keys/z.svg"" width=""35%"" height=""75%""></img></td>
    <td width=300><img src=""static/images/keys/m.svg"" width=""35%"" height=""75%""></img></td>
  </tr>
</table>
  ",90.0,1.0,,,,,,,,,,,,,,,,,,,,,,,,,,
230,0,,html-keyboard-response,230,550773,0.0-7.16-2.16,gfuy4yxi454,2022-09-19 16:22:30.400,615efd1df11a7d21f0f12f68,1,56,79,62,62,33,FEMALE,,,"
  <table>
  <tr height=300>
    <td width=300 height=300><img src=""static/images/cards/4_of_red_stars.svg"" width=""175px"" height=""250px""></img></td>
    <td width=300 height=300><img src=""static/images/cards/back_of_red_stars.svg"" width=""175px"" height=""250px""></img></td>
  </tr>
  <tr height=200>
    <td width=300><img src=""static/images/keys/z.svg"" width=""35%"" height=""75%""></img></td>
    <td width=300><img src=""static/images/keys/m.svg"" width=""35%"" height=""75%""></img></td>
  </tr>
</table>
  ",,,,,,,,,,,,,,,,,,,,,,,,,,,,
231,0,,html-keyboard-response,231,552275,0.0-7.16-3.16,gfuy4yxi454,2022-09-19 16:22:30.400,615efd1df11a7d21f0f12f68,1,56,79,62,62,33,FEMALE,,,"<p style=""font-size:50px"">You win!
+10 points this round!</p>",,,,,,,,,,,,,,,,,,,,,,,,,,,,
232,0,,html-keyboard-response,232,552782,0.0-7.16-4.16,gfuy4yxi454,2022-09-19 16:22:30.400,615efd1df11a7d21f0f12f68,1,56,79,62,62,33,FEMALE,,,,,,1.0,choice,16.0,B,C,red,black,stars,moons,C,B,C,red,stars,1023.0,1.0,0.0,NA,left,1721.0,4.0,0.0,1.0,,,
233,0,,html-keyboard-response,233,553762,0.0-7.17-0.17,gfuy4yxi454,2022-09-19 16:22:30.400,615efd1df11a7d21f0f12f68,1,56,79,62,62,33,FEMALE,970.0,,"
  <table>
  <tr height=300>
    <td width=300 height=300><img src=""static/images/cards/stack_of_black_moons.svg"" width=""175px"" height=""250px""></img></td>
    <td width=300 height=300><img src=""static/images/cards/stack_of_red_stars.svg"" width=""175px"" height=""250px""></img></td>
  </tr>
  <tr height=200>
    <td width=300><img src=""static/images/keys/w.svg"" width=""35%"" height=""75%""></img></td>
    <td width=300><img src=""static/images/keys/o.svg"" width=""35%"" height=""75%""></img></td>
  </tr>
</table>
  ",87.0,1.0,,,,,,,,,,,,,,,,,,,,,,,,,,
234,0,,html-keyboard-response,234,555989,0.0-7.17-1.17,gfuy4yxi454,2022-09-19 16:22:30.400,615efd1df11a7d21f0f12f68,1,56,79,62,62,33,FEMALE,1720.0,,"
  <table>
  <tr height=300>
    <td width=300 height=300><img src=""static/images/cards/back_of_black_moons.svg"" width=""175px"" height=""250px""></img></td>
    <td width=300 height=300><img src=""static/images/cards/back_of_black_moons.svg"" width=""175px"" height=""250px""></img></td>
  </tr>
  <tr height=200>
    <td width=300></td>
    <td width=300><img src=""static/images/keys/m.svg"" width=""35%"" height=""75%""></img></td>
  </tr>
</table>
  ",77.0,1.0,,,,,,,,,,,,,,,,,,,,,,,,,,
235,0,,html-keyboard-response,235,557503,0.0-7.17-2.17,gfuy4yxi454,2022-09-19 16:22:30.400,615efd1df11a7d21f0f12f68,1,56,79,62,62,33,FEMALE,,,"
  <table>
  <tr height=300>
    <td width=300 height=300><img src=""static/images/cards/back_of_black_moons.svg"" width=""175px"" height=""250px""></img></td>
    <td width=300 height=300><img src=""static/images/cards/2_of_black_moons.svg"" width=""175px"" height=""250px""></img></td>
  </tr>
  <tr height=200>
    <td width=300></td>
    <td width=300><img src=""static/images/keys/m.svg"" width=""35%"" height=""75%""></img></td>
  </tr>
</table>
  ",,,,,,,,,,,,,,,,,,,,,,,,,,,,
236,0,,html-keyboard-response,236,559023,0.0-7.17-3.17,gfuy4yxi454,2022-09-19 16:22:30.400,615efd1df11a7d21f0f12f68,1,56,79,62,62,33,FEMALE,,,"<p style=""font-size:50px"">You Lose!
No points this round.</p>",,,,,,,,,,,,,,,,,,,,,,,,,,,,
237,0,,html-keyboard-response,237,559546,0.0-7.17-4.17,gfuy4yxi454,2022-09-19 16:22:30.400,615efd1df11a7d21f0f12f68,1,56,79,62,62,33,FEMALE,,,,,,1.0,choice,17.0,B,C,black,red,moons,stars,B,C,B,black,moons,970.0,0.0,1.0,0,right,1720.0,2.0,0.0,0.0,,,
238,0,,html-keyboard-response,238,560513,0.0-7.18-0.18,gfuy4yxi454,2022-09-19 16:22:30.400,615efd1df11a7d21f0f12f68,1,56,79,62,62,33,FEMALE,960.0,,"
  <table>
  <tr height=300>
    <td width=300 height=300><img src=""static/images/cards/stack_of_red_bolts.svg"" width=""175px"" height=""250px""></img></td>
    <td width=300 height=300><img src=""static/images/cards/stack_of_red_moons.svg"" width=""175px"" height=""250px""></img></td>
  </tr>
  <tr height=200>
    <td width=300><img src=""static/images/keys/w.svg"" width=""35%"" height=""75%""></img></td>
    <td width=300><img src=""static/images/keys/o.svg"" width=""35%"" height=""75%""></img></td>
  </tr>
</table>
  ",87.0,1.0,,,,,,,,,,,,,,,,,,,,,,,,,,
239,0,,html-keyboard-response,239,562318,0.0-7.18-1.18,gfuy4yxi454,2022-09-19 16:22:30.400,615efd1df11a7d21f0f12f68,1,56,79,62,62,33,FEMALE,1290.0,,"
  <table>
  <tr height=300>
    <td width=300 height=300><img src=""static/images/cards/back_of_red_bolts.svg"" width=""175px"" height=""250px""></img></td>
    <td width=300 height=300><img src=""static/images/cards/back_of_red_bolts.svg"" width=""175px"" height=""250px""></img></td>
  </tr>
  <tr height=200>
    <td width=300><img src=""static/images/keys/z.svg"" width=""35%"" height=""75%""></img></td>
    <td width=300><img src=""static/images/keys/m.svg"" width=""35%"" height=""75%""></img></td>
  </tr>
</table>
  ",90.0,1.0,,,,,,,,,,,,,,,,,,,,,,,,,,
240,0,,html-keyboard-response,240,563820,0.0-7.18-2.18,gfuy4yxi454,2022-09-19 16:22:30.400,615efd1df11a7d21f0f12f68,1,56,79,62,62,33,FEMALE,,,"
  <table>
  <tr height=300>
