,index,success,trial_type,trial_index,time_elapsed,internal_node_id,subject,date,prol_id,ctbl,sense_of_control_A,sense_of_control_B,sense_of_control_C,sense_of_control_D,age,gender,rt,url,stimulus,key_press,npress,is_data_trial,phase,trial,deck1,deck2,col1,col2,sym1,sym2,deck_l,deck_r,chosen_deck,chosen_col,chosen_sym,deck_rt,choose_choice,mutual_info,hidden_key,chosen_card,card_rt,player_num,win_card,outcome,mock_rating,response,responses
0,0,1.0,fullscreen,0,3697,0.0-0.0,lywp6e8gawl,2022-09-19 15:59:24.301,60bb404e01d599dfb1c3d71c,2,49,63,47,47,39,female,,,,,,,,,,,,,,,,,,,,,,,,,,,,,,,
1,0,,external-html,1,34791,0.0-1.0,lywp6e8gawl,2022-09-19 15:59:24.301,60bb404e01d599dfb1c3d71c,2,49,63,47,47,39,female,30992.7999999523,static/js/sub/consent.html,,,,,,,,,,,,,,,,,,,,,,,,,,,,,
2,0,,call-function,2,34794,0.0-2.0,lywp6e8gawl,2022-09-19 15:59:24.301,60bb404e01d599dfb1c3d71c,2,49,63,47,47,39,female,,,,,,,,,,,,,,,,,,,,,,,,,,,,,,,
3,0,,image-keyboard-response,3,42020,0.0-3.0-0.0,lywp6e8gawl,2022-09-19 15:59:24.301,60bb404e01d599dfb1c3d71c,2,49,63,47,47,39,female,7222.7000000477,,static/images/instructions_CB_2/Slide1.png,39.0,,,,,,,,,,,,,,,,,,,,,,,,,,,
4,0,,image-keyboard-response,4,50405,0.0-3.1-0.1,lywp6e8gawl,2022-09-19 15:59:24.301,60bb404e01d599dfb1c3d71c,2,49,63,47,47,39,female,8381.5999999642,,static/images/instructions_CB_2/Slide2.png,39.0,,,,,,,,,,,,,,,,,,,,,,,,,,,
5,0,,image-keyboard-response,5,55902,0.0-3.2-0.2,lywp6e8gawl,2022-09-19 15:59:24.301,60bb404e01d599dfb1c3d71c,2,49,63,47,47,39,female,5494.8000000119,,static/images/instructions_CB_2/Slide3.png,39.0,,,,,,,,,,,,,,,,,,,,,,,,,,,
6,0,,image-keyboard-response,6,60427,0.0-3.3-0.3,lywp6e8gawl,2022-09-19 15:59:24.301,60bb404e01d599dfb1c3d71c,2,49,63,47,47,39,female,4521.8999999762,,static/images/instructions_CB_2/Slide4.png,39.0,,,,,,,,,,,,,,,,,,,,,,,,,,,
7,0,,image-keyboard-response,7,68774,0.0-3.4-0.4,lywp6e8gawl,2022-09-19 15:59:24.301,60bb404e01d599dfb1c3d71c,2,49,63,47,47,39,female,8345.3999999762,,static/images/instructions_CB_2/Slide5.png,39.0,,,,,,,,,,,,,,,,,,,,,,,,,,,
8,0,,image-keyboard-response,8,70389,0.0-3.5-0.5,lywp6e8gawl,2022-09-19 15:59:24.301,60bb404e01d599dfb1c3d71c,2,49,63,47,47,39,female,1612.6999999881,,static/images/instructions_CB_2/Slide6.png,39.0,,,,,,,,,,,,,,,,,,,,,,,,,,,
9,0,,image-keyboard-response,9,73981,0.0-3.6-0.6,lywp6e8gawl,2022-09-19 15:59:24.301,60bb404e01d599dfb1c3d71c,2,49,63,47,47,39,female,3590.0,,static/images/instructions_CB_2/Slide7.png,39.0,,,,,,,,,,,,,,,,,,,,,,,,,,,
10,0,,image-keyboard-response,10,92946,0.0-3.7-0.7,lywp6e8gawl,2022-09-19 15:59:24.301,60bb404e01d599dfb1c3d71c,2,49,63,47,47,39,female,18977.8000000119,,static/images/instructions_CB_2/Slide8.png,39.0,,,,,,,,,,,,,,,,,,,,,,,,,,,
11,0,,image-keyboard-response,11,99557,0.0-3.8-0.8,lywp6e8gawl,2022-09-19 15:59:24.301,60bb404e01d599dfb1c3d71c,2,49,63,47,47,39,female,6609.1000000238,,static/images/instructions_CB_2/Slide9.png,39.0,,,,,,,,,,,,,,,,,,,,,,,,,,,
12,0,,image-keyboard-response,12,120784,0.0-3.9-0.9,lywp6e8gawl,2022-09-19 15:59:24.301,60bb404e01d599dfb1c3d71c,2,49,63,47,47,39,female,21225.3999999762,,static/images/instructions_CB_2/Slide10.png,39.0,,,,,,,,,,,,,,,,,,,,,,,,,,,
13,0,,image-keyboard-response,13,130414,0.0-3.10-0.10,lywp6e8gawl,2022-09-19 15:59:24.301,60bb404e01d599dfb1c3d71c,2,49,63,47,47,39,female,9627.6000000238,,static/images/instructions_CB_2/Slide11.png,39.0,,,,,,,,,,,,,,,,,,,,,,,,,,,
14,0,,image-keyboard-response,14,143039,0.0-3.11-0.11,lywp6e8gawl,2022-09-19 15:59:24.301,60bb404e01d599dfb1c3d71c,2,49,63,47,47,39,female,12624.0,,static/images/instructions_CB_2/Slide12.png,39.0,,,,,,,,,,,,,,,,,,,,,,,,,,,
15,0,,image-keyboard-response,15,163683,0.0-3.12-0.12,lywp6e8gawl,2022-09-19 15:59:24.301,60bb404e01d599dfb1c3d71c,2,49,63,47,47,39,female,20628.8000000119,,static/images/instructions_CB_2/Slide13.png,39.0,,,,,,,,,,,,,,,,,,,,,,,,,,,
16,0,,image-keyboard-response,16,169508,0.0-3.13-0.13,lywp6e8gawl,2022-09-19 15:59:24.301,60bb404e01d599dfb1c3d71c,2,49,63,47,47,39,female,5822.6999999881,,static/images/instructions_CB_2/Slide14.png,39.0,,,,,,,,,,,,,,,,,,,,,,,,,,,
17,0,,image-keyboard-response,17,176982,0.0-3.14-0.14,lywp6e8gawl,2022-09-19 15:59:24.301,60bb404e01d599dfb1c3d71c,2,49,63,47,47,39,female,7472.3000000119,,static/images/instructions_CB_2/Slide15.png,39.0,,,,,,,,,,,,,,,,,,,,,,,,,,,
18,0,,image-keyboard-response,18,184530,0.0-3.15-0.15,lywp6e8gawl,2022-09-19 15:59:24.301,60bb404e01d599dfb1c3d71c,2,49,63,47,47,39,female,7546.3000000119,,static/images/instructions_CB_2/Slide16.png,39.0,,,,,,,,,,,,,,,,,,,,,,,,,,,
19,0,,image-keyboard-response,19,193540,0.0-3.16-0.16,lywp6e8gawl,2022-09-19 15:59:24.301,60bb404e01d599dfb1c3d71c,2,49,63,47,47,39,female,9007.8999999762,,static/images/instructions_CB_2/Slide17.png,39.0,,,,,,,,,,,,,,,,,,,,,,,,,,,
20,0,,image-keyboard-response,20,210683,0.0-3.17-0.17,lywp6e8gawl,2022-09-19 15:59:24.301,60bb404e01d599dfb1c3d71c,2,49,63,47,47,39,female,17142.0,,static/images/instructions_CB_2/Slide18.png,39.0,,,,,,,,,,,,,,,,,,,,,,,,,,,
21,0,,image-keyboard-response,21,222873,0.0-3.18-0.18,lywp6e8gawl,2022-09-19 15:59:24.301,60bb404e01d599dfb1c3d71c,2,49,63,47,47,39,female,12187.5,,static/images/instructions_CB_2/Slide19.png,39.0,,,,,,,,,,,,,,,,,,,,,,,,,,,
22,0,,html-keyboard-response,22,224382,0.0-4.0-0.0,lywp6e8gawl,2022-09-19 15:59:24.301,60bb404e01d599dfb1c3d71c,2,49,63,47,47,39,female,,,"<img src=""static/images/cards/stack_of_black_stars.svg"" width=""175px"" height=""250px""></img>",,,,,,,,,,,,,,,,,,,,,,,,,,,,
23,0,,html-keyboard-response,23,226492,0.0-4.0-1.0,lywp6e8gawl,2022-09-19 15:59:24.301,60bb404e01d599dfb1c3d71c,2,49,63,47,47,39,female,1597.3999999762,,"
  <table>
  <tr height=300>
    <td width=300 height=300><img src=""static/images/cards/back_of_black_stars.svg"" width=""175px"" height=""250px""></img></td>
    <td width=300 height=300><img src=""static/images/cards/back_of_black_stars.svg"" width=""175px"" height=""250px""></img></td>
  </tr>
  <tr height=200>
    <td width=300><img src=""static/images/keys/z.svg"" width=""35%"" height=""75%""></img></td>
    <td width=300><img src=""static/images/keys/m.svg"" width=""35%"" height=""75%""></img></td>
  </tr>
</table>
  ",77.0,1.0,,,,,,,,,,,,,,,,,,,,,,,,,,
24,0,,html-keyboard-response,24,228003,0.0-4.0-2.0,lywp6e8gawl,2022-09-19 15:59:24.301,60bb404e01d599dfb1c3d71c,2,49,63,47,47,39,female,,,"
  <table>
  <tr height=300>
    <td width=300 height=300><img src=""static/images/cards/back_of_black_stars.svg"" width=""175px"" height=""250px""></img></td>
    <td width=300 height=300><img src=""static/images/cards/8_of_black_stars.svg"" width=""175px"" height=""250px""></img></td>
  </tr>
  <tr height=200>
    <td width=300><img src=""static/images/keys/z.svg"" width=""35%"" height=""75%""></img></td>
    <td width=300><img src=""static/images/keys/m.svg"" width=""35%"" height=""75%""></img></td>
  </tr>
</table>
  ",,,,,,,,,,,,,,,,,,,,,,,,,,,,
25,0,,html-keyboard-response,25,229520,0.0-4.0-3.0,lywp6e8gawl,2022-09-19 15:59:24.301,60bb404e01d599dfb1c3d71c,2,49,63,47,47,39,female,,,"<p style=""font-size:50px"">You win!
+10 points this round!</p>",,,,,,,,,,,,,,,,,,,,,,,,,,,,
26,0,,html-keyboard-response,26,230041,0.0-4.0-4.0,lywp6e8gawl,2022-09-19 15:59:24.301,60bb404e01d599dfb1c3d71c,2,49,63,47,47,39,female,,,,,,1.0,learning,0.0,A,,black,,stars,,,,A,black,stars,,1.0,1.0,NA,right,1597.3999999762,8.0,1.0,1.0,,,
27,0,,html-keyboard-response,27,231544,0.0-4.1-0.1,lywp6e8gawl,2022-09-19 15:59:24.301,60bb404e01d599dfb1c3d71c,2,49,63,47,47,39,female,,,"<img src=""static/images/cards/stack_of_red_stars.svg"" width=""175px"" height=""250px""></img>",,,,,,,,,,,,,,,,,,,,,,,,,,,,
28,0,,html-keyboard-response,28,232738,0.0-4.1-1.1,lywp6e8gawl,2022-09-19 15:59:24.301,60bb404e01d599dfb1c3d71c,2,49,63,47,47,39,female,684.1000000238,,"
  <table>
  <tr height=300>
    <td width=300 height=300><img src=""static/images/cards/back_of_red_stars.svg"" width=""175px"" height=""250px""></img></td>
    <td width=300 height=300><img src=""static/images/cards/back_of_red_stars.svg"" width=""175px"" height=""250px""></img></td>
  </tr>
  <tr height=200>
    <td width=300></td>
    <td width=300><img src=""static/images/keys/m.svg"" width=""35%"" height=""75%""></img></td>
  </tr>
</table>
  ",77.0,1.0,,,,,,,,,,,,,,,,,,,,,,,,,,
29,0,,html-keyboard-response,29,234253,0.0-4.1-2.1,lywp6e8gawl,2022-09-19 15:59:24.301,60bb404e01d599dfb1c3d71c,2,49,63,47,47,39,female,,,"
  <table>
  <tr height=300>
    <td width=300 height=300><img src=""static/images/cards/back_of_red_stars.svg"" width=""175px"" height=""250px""></img></td>
    <td width=300 height=300><img src=""static/images/cards/9_of_red_stars.svg"" width=""175px"" height=""250px""></img></td>
  </tr>
  <tr height=200>
    <td width=300></td>
    <td width=300><img src=""static/images/keys/m.svg"" width=""35%"" height=""75%""></img></td>
  </tr>
</table>
  ",,,,,,,,,,,,,,,,,,,,,,,,,,,,
30,0,,html-keyboard-response,30,235771,0.0-4.1-3.1,lywp6e8gawl,2022-09-19 15:59:24.301,60bb404e01d599dfb1c3d71c,2,49,63,47,47,39,female,,,"<p style=""font-size:50px"">You win!
+10 points this round!</p>",,,,,,,,,,,,,,,,,,,,,,,,,,,,
31,0,,html-keyboard-response,31,236292,0.0-4.1-4.1,lywp6e8gawl,2022-09-19 15:59:24.301,60bb404e01d599dfb1c3d71c,2,49,63,47,47,39,female,,,,,,1.0,learning,1.0,B,,red,,stars,,,,B,red,stars,,0.0,1.0,0,right,684.1000000238,9.0,1.0,1.0,,,
32,0,,html-keyboard-response,32,237803,0.0-4.2-0.2,lywp6e8gawl,2022-09-19 15:59:24.301,60bb404e01d599dfb1c3d71c,2,49,63,47,47,39,female,,,"<img src=""static/images/cards/stack_of_black_moons.svg"" width=""175px"" height=""250px""></img>",,,,,,,,,,,,,,,,,,,,,,,,,,,,
33,0,,html-keyboard-response,33,239071,0.0-4.2-1.2,lywp6e8gawl,2022-09-19 15:59:24.301,60bb404e01d599dfb1c3d71c,2,49,63,47,47,39,female,749.5,,"
  <table>
  <tr height=300>
    <td width=300 height=300><img src=""static/images/cards/back_of_black_moons.svg"" width=""175px"" height=""250px""></img></td>
    <td width=300 height=300><img src=""static/images/cards/back_of_black_moons.svg"" width=""175px"" height=""250px""></img></td>
  </tr>
  <tr height=200>
    <td width=300><img src=""static/images/keys/z.svg"" width=""35%"" height=""75%""></img></td>
    <td width=300><img src=""static/images/keys/m.svg"" width=""35%"" height=""75%""></img></td>
  </tr>
</table>
  ",77.0,1.0,,,,,,,,,,,,,,,,,,,,,,,,,,
34,0,,html-keyboard-response,34,240587,0.0-4.2-2.2,lywp6e8gawl,2022-09-19 15:59:24.301,60bb404e01d599dfb1c3d71c,2,49,63,47,47,39,female,,,"
  <table>
  <tr height=300>
    <td width=300 height=300><img src=""static/images/cards/back_of_black_moons.svg"" width=""175px"" height=""250px""></img></td>
    <td width=300 height=300><img src=""static/images/cards/8_of_black_moons.svg"" width=""175px"" height=""250px""></img></td>
  </tr>
  <tr height=200>
    <td width=300><img src=""static/images/keys/z.svg"" width=""35%"" height=""75%""></img></td>
    <td width=300><img src=""static/images/keys/m.svg"" width=""35%"" height=""75%""></img></td>
  </tr>
</table>
  ",,,,,,,,,,,,,,,,,,,,,,,,,,,,
35,0,,html-keyboard-response,35,242105,0.0-4.2-3.2,lywp6e8gawl,2022-09-19 15:59:24.301,60bb404e01d599dfb1c3d71c,2,49,63,47,47,39,female,,,"<p style=""font-size:50px"">You Lose!
No points this round.</p>",,,,,,,,,,,,,,,,,,,,,,,,,,,,
36,0,,html-keyboard-response,36,242626,0.0-4.2-4.2,lywp6e8gawl,2022-09-19 15:59:24.301,60bb404e01d599dfb1c3d71c,2,49,63,47,47,39,female,,,,,,1.0,learning,2.0,C,,black,,moons,,,,C,black,moons,,1.0,0.0,NA,right,749.5,8.0,1.0,0.0,,,
37,0,,html-keyboard-response,37,244137,0.0-4.3-0.3,lywp6e8gawl,2022-09-19 15:59:24.301,60bb404e01d599dfb1c3d71c,2,49,63,47,47,39,female,,,"<img src=""static/images/cards/stack_of_red_moons.svg"" width=""175px"" height=""250px""></img>",,,,,,,,,,,,,,,,,,,,,,,,,,,,
38,0,,html-keyboard-response,38,245419,0.0-4.3-1.3,lywp6e8gawl,2022-09-19 15:59:24.301,60bb404e01d599dfb1c3d71c,2,49,63,47,47,39,female,763.3999999762,,"
  <table>
  <tr height=300>
    <td width=300 height=300><img src=""static/images/cards/back_of_red_moons.svg"" width=""175px"" height=""250px""></img></td>
    <td width=300 height=300><img src=""static/images/cards/back_of_red_moons.svg"" width=""175px"" height=""250px""></img></td>
  </tr>
  <tr height=200>
    <td width=300><img src=""static/images/keys/z.svg"" width=""35%"" height=""75%""></img></td>
    <td width=300></td>
  </tr>
</table>
  ",90.0,1.0,,,,,,,,,,,,,,,,,,,,,,,,,,
39,0,,html-keyboard-response,39,246922,0.0-4.3-2.3,lywp6e8gawl,2022-09-19 15:59:24.301,60bb404e01d599dfb1c3d71c,2,49,63,47,47,39,female,,,"
  <table>
  <tr height=300>
    <td width=300 height=300><img src=""static/images/cards/7_of_red_moons.svg"" width=""175px"" height=""250px""></img></td>
    <td width=300 height=300><img src=""static/images/cards/back_of_red_moons.svg"" width=""175px"" height=""250px""></img></td>
  </tr>
  <tr height=200>
    <td width=300><img src=""static/images/keys/z.svg"" width=""35%"" height=""75%""></img></td>
    <td width=300></td>
  </tr>
</table>
  ",,,,,,,,,,,,,,,,,,,,,,,,,,,,
40,0,,html-keyboard-response,40,248439,0.0-4.3-3.3,lywp6e8gawl,2022-09-19 15:59:24.301,60bb404e01d599dfb1c3d71c,2,49,63,47,47,39,female,,,"<p style=""font-size:50px"">You win!
+10 points this round!</p>",,,,,,,,,,,,,,,,,,,,,,,,,,,,
41,0,,html-keyboard-response,41,248959,0.0-4.3-4.3,lywp6e8gawl,2022-09-19 15:59:24.301,60bb404e01d599dfb1c3d71c,2,49,63,47,47,39,female,,,,,,1.0,learning,3.0,D,,red,,moons,,,,D,red,moons,,0.0,0.0,1,left,763.3999999762,7.0,1.0,1.0,,,
42,0,,html-keyboard-response,42,250471,0.0-4.4-0.4,lywp6e8gawl,2022-09-19 15:59:24.301,60bb404e01d599dfb1c3d71c,2,49,63,47,47,39,female,,,"<img src=""static/images/cards/stack_of_red_bolts.svg"" width=""175px"" height=""250px""></img>",,,,,,,,,,,,,,,,,,,,,,,,,,,,
43,0,,html-keyboard-response,43,251779,0.0-4.4-1.4,lywp6e8gawl,2022-09-19 15:59:24.301,60bb404e01d599dfb1c3d71c,2,49,63,47,47,39,female,790.0,,"
  <table>
  <tr height=300>
    <td width=300 height=300><img src=""static/images/cards/back_of_red_bolts.svg"" width=""175px"" height=""250px""></img></td>
    <td width=300 height=300><img src=""static/images/cards/back_of_red_bolts.svg"" width=""175px"" height=""250px""></img></td>
  </tr>
  <tr height=200>
    <td width=300><img src=""static/images/keys/z.svg"" width=""35%"" height=""75%""></img></td>
    <td width=300><img src=""static/images/keys/m.svg"" width=""35%"" height=""75%""></img></td>
  </tr>
</table>
  ",77.0,1.0,,,,,,,,,,,,,,,,,,,,,,,,,,
44,0,,html-keyboard-response,44,253288,0.0-4.4-2.4,lywp6e8gawl,2022-09-19 15:59:24.301,60bb404e01d599dfb1c3d71c,2,49,63,47,47,39,female,,,"
  <table>
  <tr height=300>
    <td width=300 height=300><img src=""static/images/cards/back_of_red_bolts.svg"" width=""175px"" height=""250px""></img></td>
    <td width=300 height=300><img src=""static/images/cards/8_of_red_bolts.svg"" width=""175px"" height=""250px""></img></td>
  </tr>
  <tr height=200>
    <td width=300><img src=""static/images/keys/z.svg"" width=""35%"" height=""75%""></img></td>
    <td width=300><img src=""static/images/keys/m.svg"" width=""35%"" height=""75%""></img></td>
  </tr>
</table>
  ",,,,,,,,,,,,,,,,,,,,,,,,,,,,
45,0,,html-keyboard-response,45,254806,0.0-4.4-3.4,lywp6e8gawl,2022-09-19 15:59:24.301,60bb404e01d599dfb1c3d71c,2,49,63,47,47,39,female,,,"<p style=""font-size:50px"">You win!
+10 points this round!</p>",,,,,,,,,,,,,,,,,,,,,,,,,,,,
46,0,,html-keyboard-response,46,255327,0.0-4.4-4.4,lywp6e8gawl,2022-09-19 15:59:24.301,60bb404e01d599dfb1c3d71c,2,49,63,47,47,39,female,,,,,,1.0,learning,4.0,Xc,,red,,bolts,,,,Xc,red,bolts,,1.0,0.0,NA,right,790.0,8.0,1.0,1.0,,,
47,0,,html-keyboard-response,47,256838,0.0-4.5-0.5,lywp6e8gawl,2022-09-19 15:59:24.301,60bb404e01d599dfb1c3d71c,2,49,63,47,47,39,female,,,"<img src=""static/images/cards/stack_of_black_bolts.svg"" width=""175px"" height=""250px""></img>",,,,,,,,,,,,,,,,,,,,,,,,,,,,
48,0,,html-keyboard-response,48,258592,0.0-4.5-1.5,lywp6e8gawl,2022-09-19 15:59:24.301,60bb404e01d599dfb1c3d71c,2,49,63,47,47,39,female,1236.2000000477,,"
  <table>
  <tr height=300>
    <td width=300 height=300><img src=""static/images/cards/back_of_black_bolts.svg"" width=""175px"" height=""250px""></img></td>
    <td width=300 height=300><img src=""static/images/cards/back_of_black_bolts.svg"" width=""175px"" height=""250px""></img></td>
  </tr>
  <tr height=200>
    <td width=300></td>
    <td width=300><img src=""static/images/keys/m.svg"" width=""35%"" height=""75%""></img></td>
  </tr>
</table>
  ",77.0,1.0,,,,,,,,,,,,,,,,,,,,,,,,,,
49,0,,html-keyboard-response,49,260107,0.0-4.5-2.5,lywp6e8gawl,2022-09-19 15:59:24.301,60bb404e01d599dfb1c3d71c,2,49,63,47,47,39,female,,,"
  <table>
  <tr height=300>
    <td width=300 height=300><img src=""static/images/cards/back_of_black_bolts.svg"" width=""175px"" height=""250px""></img></td>
    <td width=300 height=300><img src=""static/images/cards/10_of_black_bolts.svg"" width=""175px"" height=""250px""></img></td>
  </tr>
  <tr height=200>
    <td width=300></td>
    <td width=300><img src=""static/images/keys/m.svg"" width=""35%"" height=""75%""></img></td>
  </tr>
</table>
  ",,,,,,,,,,,,,,,,,,,,,,,,,,,,
50,0,,html-keyboard-response,50,261623,0.0-4.5-3.5,lywp6e8gawl,2022-09-19 15:59:24.301,60bb404e01d599dfb1c3d71c,2,49,63,47,47,39,female,,,"<p style=""font-size:50px"">You win!
+10 points this round!</p>",,,,,,,,,,,,,,,,,,,,,,,,,,,,
51,0,,html-keyboard-response,51,262144,0.0-4.5-4.5,lywp6e8gawl,2022-09-19 15:59:24.301,60bb404e01d599dfb1c3d71c,2,49,63,47,47,39,female,,,,,,1.0,learning,5.0,Xnc,,black,,bolts,,,,Xnc,black,bolts,,0.0,0.0,0,right,1236.2000000477,10.0,1.0,1.0,,,
52,0,,html-keyboard-response,52,263655,0.0-4.6-0.6,lywp6e8gawl,2022-09-19 15:59:24.301,60bb404e01d599dfb1c3d71c,2,49,63,47,47,39,female,,,"<img src=""static/images/cards/stack_of_black_stars.svg"" width=""175px"" height=""250px""></img>",,,,,,,,,,,,,,,,,,,,,,,,,,,,
53,0,,html-keyboard-response,53,265271,0.0-4.6-1.6,lywp6e8gawl,2022-09-19 15:59:24.301,60bb404e01d599dfb1c3d71c,2,49,63,47,47,39,female,1098.1999999881,,"
  <table>
  <tr height=300>
    <td width=300 height=300><img src=""static/images/cards/back_of_black_stars.svg"" width=""175px"" height=""250px""></img></td>
    <td width=300 height=300><img src=""static/images/cards/back_of_black_stars.svg"" width=""175px"" height=""250px""></img></td>
  </tr>
  <tr height=200>
    <td width=300><img src=""static/images/keys/z.svg"" width=""35%"" height=""75%""></img></td>
    <td width=300><img src=""static/images/keys/m.svg"" width=""35%"" height=""75%""></img></td>
  </tr>
</table>
  ",77.0,1.0,,,,,,,,,,,,,,,,,,,,,,,,,,
54,0,,html-keyboard-response,54,266788,0.0-4.6-2.6,lywp6e8gawl,2022-09-19 15:59:24.301,60bb404e01d599dfb1c3d71c,2,49,63,47,47,39,female,,,"
  <table>
  <tr height=300>
    <td width=300 height=300><img src=""static/images/cards/back_of_black_stars.svg"" width=""175px"" height=""250px""></img></td>
    <td width=300 height=300><img src=""static/images/cards/10_of_black_stars.svg"" width=""175px"" height=""250px""></img></td>
  </tr>
  <tr height=200>
    <td width=300><img src=""static/images/keys/z.svg"" width=""35%"" height=""75%""></img></td>
    <td width=300><img src=""static/images/keys/m.svg"" width=""35%"" height=""75%""></img></td>
  </tr>
</table>
  ",,,,,,,,,,,,,,,,,,,,,,,,,,,,
55,0,,html-keyboard-response,55,268306,0.0-4.6-3.6,lywp6e8gawl,2022-09-19 15:59:24.301,60bb404e01d599dfb1c3d71c,2,49,63,47,47,39,female,,,"<p style=""font-size:50px"">You win!
+10 points this round!</p>",,,,,,,,,,,,,,,,,,,,,,,,,,,,
56,0,,html-keyboard-response,56,268825,0.0-4.6-4.6,lywp6e8gawl,2022-09-19 15:59:24.301,60bb404e01d599dfb1c3d71c,2,49,63,47,47,39,female,,,,,,1.0,learning,6.0,A,,black,,stars,,,,A,black,stars,,1.0,1.0,NA,right,1098.1999999881,10.0,1.0,1.0,,,
57,0,,html-keyboard-response,57,270339,0.0-4.7-0.7,lywp6e8gawl,2022-09-19 15:59:24.301,60bb404e01d599dfb1c3d71c,2,49,63,47,47,39,female,,,"<img src=""static/images/cards/stack_of_red_stars.svg"" width=""175px"" height=""250px""></img>",,,,,,,,,,,,,,,,,,,,,,,,,,,,
58,0,,html-keyboard-response,58,271544,0.0-4.7-1.7,lywp6e8gawl,2022-09-19 15:59:24.301,60bb404e01d599dfb1c3d71c,2,49,63,47,47,39,female,687.6000000238,,"
  <table>
  <tr height=300>
    <td width=300 height=300><img src=""static/images/cards/back_of_red_stars.svg"" width=""175px"" height=""250px""></img></td>
    <td width=300 height=300><img src=""static/images/cards/back_of_red_stars.svg"" width=""175px"" height=""250px""></img></td>
  </tr>
  <tr height=200>
    <td width=300><img src=""static/images/keys/z.svg"" width=""35%"" height=""75%""></img></td>
    <td width=300></td>
  </tr>
</table>
  ",90.0,1.0,,,,,,,,,,,,,,,,,,,,,,,,,,
59,0,,html-keyboard-response,59,273056,0.0-4.7-2.7,lywp6e8gawl,2022-09-19 15:59:24.301,60bb404e01d599dfb1c3d71c,2,49,63,47,47,39,female,,,"
  <table>
  <tr height=300>
    <td width=300 height=300><img src=""static/images/cards/3_of_red_stars.svg"" width=""175px"" height=""250px""></img></td>
    <td width=300 height=300><img src=""static/images/cards/back_of_red_stars.svg"" width=""175px"" height=""250px""></img></td>
  </tr>
  <tr height=200>
    <td width=300><img src=""static/images/keys/z.svg"" width=""35%"" height=""75%""></img></td>
    <td width=300></td>
  </tr>
</table>
  ",,,,,,,,,,,,,,,,,,,,,,,,,,,,
60,0,,html-keyboard-response,60,274573,0.0-4.7-3.7,lywp6e8gawl,2022-09-19 15:59:24.301,60bb404e01d599dfb1c3d71c,2,49,63,47,47,39,female,,,"<p style=""font-size:50px"">You Lose!
No points this round.</p>",,,,,,,,,,,,,,,,,,,,,,,,,,,,
61,0,,html-keyboard-response,61,275094,0.0-4.7-4.7,lywp6e8gawl,2022-09-19 15:59:24.301,60bb404e01d599dfb1c3d71c,2,49,63,47,47,39,female,,,,,,1.0,learning,7.0,B,,red,,stars,,,,B,red,stars,,0.0,1.0,1,left,687.6000000238,3.0,0.0,0.0,,,
62,0,,html-keyboard-response,62,276606,0.0-4.8-0.8,lywp6e8gawl,2022-09-19 15:59:24.301,60bb404e01d599dfb1c3d71c,2,49,63,47,47,39,female,,,"<img src=""static/images/cards/stack_of_black_moons.svg"" width=""175px"" height=""250px""></img>",,,,,,,,,,,,,,,,,,,,,,,,,,,,
63,0,,html-keyboard-response,63,277864,0.0-4.8-1.8,lywp6e8gawl,2022-09-19 15:59:24.301,60bb404e01d599dfb1c3d71c,2,49,63,47,47,39,female,738.8999999762,,"
  <table>
  <tr height=300>
    <td width=300 height=300><img src=""static/images/cards/back_of_black_moons.svg"" width=""175px"" height=""250px""></img></td>
    <td width=300 height=300><img src=""static/images/cards/back_of_black_moons.svg"" width=""175px"" height=""250px""></img></td>
  </tr>
  <tr height=200>
    <td width=300><img src=""static/images/keys/z.svg"" width=""35%"" height=""75%""></img></td>
    <td width=300><img src=""static/images/keys/m.svg"" width=""35%"" height=""75%""></img></td>
  </tr>
</table>
  ",77.0,1.0,,,,,,,,,,,,,,,,,,,,,,,,,,
64,0,,html-keyboard-response,64,279374,0.0-4.8-2.8,lywp6e8gawl,2022-09-19 15:59:24.301,60bb404e01d599dfb1c3d71c,2,49,63,47,47,39,female,,,"
  <table>
  <tr height=300>
    <td width=300 height=300><img src=""static/images/cards/back_of_black_moons.svg"" width=""175px"" height=""250px""></img></td>
    <td width=300 height=300><img src=""static/images/cards/6_of_black_moons.svg"" width=""175px"" height=""250px""></img></td>
  </tr>
  <tr height=200>
    <td width=300><img src=""static/images/keys/z.svg"" width=""35%"" height=""75%""></img></td>
    <td width=300><img src=""static/images/keys/m.svg"" width=""35%"" height=""75%""></img></td>
  </tr>
</table>
  ",,,,,,,,,,,,,,,,,,,,,,,,,,,,
65,0,,html-keyboard-response,65,280891,0.0-4.8-3.8,lywp6e8gawl,2022-09-19 15:59:24.301,60bb404e01d599dfb1c3d71c,2,49,63,47,47,39,female,,,"<p style=""font-size:50px"">You win!
+10 points this round!</p>",,,,,,,,,,,,,,,,,,,,,,,,,,,,
66,0,,html-keyboard-response,66,281412,0.0-4.8-4.8,lywp6e8gawl,2022-09-19 15:59:24.301,60bb404e01d599dfb1c3d71c,2,49,63,47,47,39,female,,,,,,1.0,learning,8.0,C,,black,,moons,,,,C,black,moons,,1.0,0.0,NA,right,738.8999999762,6.0,1.0,1.0,,,
67,0,,html-keyboard-response,67,282917,0.0-4.9-0.9,lywp6e8gawl,2022-09-19 15:59:24.301,60bb404e01d599dfb1c3d71c,2,49,63,47,47,39,female,,,"<img src=""static/images/cards/stack_of_red_moons.svg"" width=""175px"" height=""250px""></img>",,,,,,,,,,,,,,,,,,,,,,,,,,,,
68,0,,html-keyboard-response,68,283994,0.0-4.9-1.9,lywp6e8gawl,2022-09-19 15:59:24.301,60bb404e01d599dfb1c3d71c,2,49,63,47,47,39,female,569.1999999881,,"
  <table>
  <tr height=300>
    <td width=300 height=300><img src=""static/images/cards/back_of_red_moons.svg"" width=""175px"" height=""250px""></img></td>
    <td width=300 height=300><img src=""static/images/cards/back_of_red_moons.svg"" width=""175px"" height=""250px""></img></td>
  </tr>
  <tr height=200>
    <td width=300></td>
    <td width=300><img src=""static/images/keys/m.svg"" width=""35%"" height=""75%""></img></td>
  </tr>
</table>
  ",77.0,1.0,,,,,,,,,,,,,,,,,,,,,,,,,,
69,0,,html-keyboard-response,69,285507,0.0-4.9-2.9,lywp6e8gawl,2022-09-19 15:59:24.301,60bb404e01d599dfb1c3d71c,2,49,63,47,47,39,female,,,"
  <table>
  <tr height=300>
    <td width=300 height=300><img src=""static/images/cards/back_of_red_moons.svg"" width=""175px"" height=""250px""></img></td>
    <td width=300 height=300><img src=""static/images/cards/2_of_red_moons.svg"" width=""175px"" height=""250px""></img></td>
  </tr>
  <tr height=200>
    <td width=300></td>
    <td width=300><img src=""static/images/keys/m.svg"" width=""35%"" height=""75%""></img></td>
  </tr>
</table>
  ",,,,,,,,,,,,,,,,,,,,,,,,,,,,
70,0,,html-keyboard-response,70,287025,0.0-4.9-3.9,lywp6e8gawl,2022-09-19 15:59:24.301,60bb404e01d599dfb1c3d71c,2,49,63,47,47,39,female,,,"<p style=""font-size:50px"">You win!
+10 points this round!</p>",,,,,,,,,,,,,,,,,,,,,,,,,,,,
71,0,,html-keyboard-response,71,287545,0.0-4.9-4.9,lywp6e8gawl,2022-09-19 15:59:24.301,60bb404e01d599dfb1c3d71c,2,49,63,47,47,39,female,,,,,,1.0,learning,9.0,D,,red,,moons,,,,D,red,moons,,0.0,0.0,0,right,569.1999999881,2.0,0.0,1.0,,,
72,0,,html-keyboard-response,72,289057,0.0-4.10-0.10,lywp6e8gawl,2022-09-19 15:59:24.301,60bb404e01d599dfb1c3d71c,2,49,63,47,47,39,female,,,"<img src=""static/images/cards/stack_of_red_bolts.svg"" width=""175px"" height=""250px""></img>",,,,,,,,,,,,,,,,,,,,,,,,,,,,
73,0,,html-keyboard-response,73,289988,0.0-4.10-1.10,lywp6e8gawl,2022-09-19 15:59:24.301,60bb404e01d599dfb1c3d71c,2,49,63,47,47,39,female,412.8000000119,,"
  <table>
  <tr height=300>
    <td width=300 height=300><img src=""static/images/cards/back_of_red_bolts.svg"" width=""175px"" height=""250px""></img></td>
    <td width=300 height=300><img src=""static/images/cards/back_of_red_bolts.svg"" width=""175px"" height=""250px""></img></td>
  </tr>
  <tr height=200>
    <td width=300><img src=""static/images/keys/z.svg"" width=""35%"" height=""75%""></img></td>
    <td width=300><img src=""static/images/keys/m.svg"" width=""35%"" height=""75%""></img></td>
  </tr>
</table>
  ",90.0,1.0,,,,,,,,,,,,,,,,,,,,,,,,,,
74,0,,html-keyboard-response,74,291492,0.0-4.10-2.10,lywp6e8gawl,2022-09-19 15:59:24.301,60bb404e01d599dfb1c3d71c,2,49,63,47,47,39,female,,,"
  <table>
  <tr height=300>
    <td width=300 height=300><img src=""static/images/cards/9_of_red_bolts.svg"" width=""175px"" height=""250px""></img></td>
    <td width=300 height=300><img src=""static/images/cards/back_of_red_bolts.svg"" width=""175px"" height=""250px""></img></td>
  </tr>
  <tr height=200>
    <td width=300><img src=""static/images/keys/z.svg"" width=""35%"" height=""75%""></img></td>
    <td width=300><img src=""static/images/keys/m.svg"" width=""35%"" height=""75%""></img></td>
  </tr>
</table>
  ",,,,,,,,,,,,,,,,,,,,,,,,,,,,
75,0,,html-keyboard-response,75,293009,0.0-4.10-3.10,lywp6e8gawl,2022-09-19 15:59:24.301,60bb404e01d599dfb1c3d71c,2,49,63,47,47,39,female,,,"<p style=""font-size:50px"">You win!
+10 points this round!</p>",,,,,,,,,,,,,,,,,,,,,,,,,,,,
76,0,,html-keyboard-response,76,293528,0.0-4.10-4.10,lywp6e8gawl,2022-09-19 15:59:24.301,60bb404e01d599dfb1c3d71c,2,49,63,47,47,39,female,,,,,,1.0,learning,10.0,Xc,,red,,bolts,,,,Xc,red,bolts,,1.0,0.0,NA,left,412.8000000119,9.0,1.0,1.0,,,
77,0,,html-keyboard-response,77,295041,0.0-4.11-0.11,lywp6e8gawl,2022-09-19 15:59:24.301,60bb404e01d599dfb1c3d71c,2,49,63,47,47,39,female,,,"<img src=""static/images/cards/stack_of_black_bolts.svg"" width=""175px"" height=""250px""></img>",,,,,,,,,,,,,,,,,,,,,,,,,,,,
78,0,,html-keyboard-response,78,296165,0.0-4.11-1.11,lywp6e8gawl,2022-09-19 15:59:24.301,60bb404e01d599dfb1c3d71c,2,49,63,47,47,39,female,606.6000000238,,"
  <table>
  <tr height=300>
    <td width=300 height=300><img src=""static/images/cards/back_of_black_bolts.svg"" width=""175px"" height=""250px""></img></td>
    <td width=300 height=300><img src=""static/images/cards/back_of_black_bolts.svg"" width=""175px"" height=""250px""></img></td>
  </tr>
  <tr height=200>
    <td width=300><img src=""static/images/keys/z.svg"" width=""35%"" height=""75%""></img></td>
    <td width=300></td>
  </tr>
</table>
  ",90.0,1.0,,,,,,,,,,,,,,,,,,,,,,,,,,
79,0,,html-keyboard-response,79,297674,0.0-4.11-2.11,lywp6e8gawl,2022-09-19 15:59:24.301,60bb404e01d599dfb1c3d71c,2,49,63,47,47,39,female,,,"
  <table>
  <tr height=300>
    <td width=300 height=300><img src=""static/images/cards/10_of_black_bolts.svg"" width=""175px"" height=""250px""></img></td>
    <td width=300 height=300><img src=""static/images/cards/back_of_black_bolts.svg"" width=""175px"" height=""250px""></img></td>
  </tr>
  <tr height=200>
    <td width=300><img src=""static/images/keys/z.svg"" width=""35%"" height=""75%""></img></td>
    <td width=300></td>
  </tr>
</table>
  ",,,,,,,,,,,,,,,,,,,,,,,,,,,,
80,0,,html-keyboard-response,80,299193,0.0-4.11-3.11,lywp6e8gawl,2022-09-19 15:59:24.301,60bb404e01d599dfb1c3d71c,2,49,63,47,47,39,female,,,"<p style=""font-size:50px"">You win!
+10 points this round!</p>",,,,,,,,,,,,,,,,,,,,,,,,,,,,
81,0,,html-keyboard-response,81,299712,0.0-4.11-4.11,lywp6e8gawl,2022-09-19 15:59:24.301,60bb404e01d599dfb1c3d71c,2,49,63,47,47,39,female,,,,,,1.0,learning,11.0,Xnc,,black,,bolts,,,,Xnc,black,bolts,,0.0,0.0,1,left,606.6000000238,10.0,1.0,1.0,,,
82,0,,html-keyboard-response,82,301224,0.0-4.12-0.12,lywp6e8gawl,2022-09-19 15:59:24.301,60bb404e01d599dfb1c3d71c,2,49,63,47,47,39,female,,,"<img src=""static/images/cards/stack_of_black_stars.svg"" width=""175px"" height=""250px""></img>",,,,,,,,,,,,,,,,,,,,,,,,,,,,
83,0,,html-keyboard-response,83,302203,0.0-4.12-1.12,lywp6e8gawl,2022-09-19 15:59:24.301,60bb404e01d599dfb1c3d71c,2,49,63,47,47,39,female,460.0,,"
  <table>
  <tr height=300>
    <td width=300 height=300><img src=""static/images/cards/back_of_black_stars.svg"" width=""175px"" height=""250px""></img></td>
    <td width=300 height=300><img src=""static/images/cards/back_of_black_stars.svg"" width=""175px"" height=""250px""></img></td>
  </tr>
  <tr height=200>
    <td width=300><img src=""static/images/keys/z.svg"" width=""35%"" height=""75%""></img></td>
    <td width=300><img src=""static/images/keys/m.svg"" width=""35%"" height=""75%""></img></td>
  </tr>
</table>
  ",90.0,1.0,,,,,,,,,,,,,,,,,,,,,,,,,,
84,0,,html-keyboard-response,84,303710,0.0-4.12-2.12,lywp6e8gawl,2022-09-19 15:59:24.301,60bb404e01d599dfb1c3d71c,2,49,63,47,47,39,female,,,"
  <table>
  <tr height=300>
    <td width=300 height=300><img src=""static/images/cards/4_of_black_stars.svg"" width=""175px"" height=""250px""></img></td>
    <td width=300 height=300><img src=""static/images/cards/back_of_black_stars.svg"" width=""175px"" height=""250px""></img></td>
  </tr>
  <tr height=200>
    <td width=300><img src=""static/images/keys/z.svg"" width=""35%"" height=""75%""></img></td>
    <td width=300><img src=""static/images/keys/m.svg"" width=""35%"" height=""75%""></img></td>
  </tr>
</table>
  ",,,,,,,,,,,,,,,,,,,,,,,,,,,,
85,0,,html-keyboard-response,85,305226,0.0-4.12-3.12,lywp6e8gawl,2022-09-19 15:59:24.301,60bb404e01d599dfb1c3d71c,2,49,63,47,47,39,female,,,"<p style=""font-size:50px"">You Lose!
No points this round.</p>",,,,,,,,,,,,,,,,,,,,,,,,,,,,
86,0,,html-keyboard-response,86,305747,0.0-4.12-4.12,lywp6e8gawl,2022-09-19 15:59:24.301,60bb404e01d599dfb1c3d71c,2,49,63,47,47,39,female,,,,,,1.0,learning,12.0,A,,black,,stars,,,,A,black,stars,,1.0,1.0,NA,left,460.0,4.0,0.0,0.0,,,
87,0,,html-keyboard-response,87,307258,0.0-4.13-0.13,lywp6e8gawl,2022-09-19 15:59:24.301,60bb404e01d599dfb1c3d71c,2,49,63,47,47,39,female,,,"<img src=""static/images/cards/stack_of_red_stars.svg"" width=""175px"" height=""250px""></img>",,,,,,,,,,,,,,,,,,,,,,,,,,,,
88,0,,html-keyboard-response,88,308330,0.0-4.13-1.13,lywp6e8gawl,2022-09-19 15:59:24.301,60bb404e01d599dfb1c3d71c,2,49,63,47,47,39,female,553.8000000119,,"
  <table>
  <tr height=300>
    <td width=300 height=300><img src=""static/images/cards/back_of_red_stars.svg"" width=""175px"" height=""250px""></img></td>
    <td width=300 height=300><img src=""static/images/cards/back_of_red_stars.svg"" width=""175px"" height=""250px""></img></td>
  </tr>
  <tr height=200>
    <td width=300></td>
    <td width=300><img src=""static/images/keys/m.svg"" width=""35%"" height=""75%""></img></td>
  </tr>
</table>
  ",77.0,1.0,,,,,,,,,,,,,,,,,,,,,,,,,,
89,0,,html-keyboard-response,89,309842,0.0-4.13-2.13,lywp6e8gawl,2022-09-19 15:59:24.301,60bb404e01d599dfb1c3d71c,2,49,63,47,47,39,female,,,"
  <table>
  <tr height=300>
    <td width=300 height=300><img src=""static/images/cards/back_of_red_stars.svg"" width=""175px"" height=""250px""></img></td>
    <td width=300 height=300><img src=""static/images/cards/2_of_red_stars.svg"" width=""175px"" height=""250px""></img></td>
  </tr>
  <tr height=200>
    <td width=300></td>
    <td width=300><img src=""static/images/keys/m.svg"" width=""35%"" height=""75%""></img></td>
  </tr>
</table>
  ",,,,,,,,,,,,,,,,,,,,,,,,,,,,
90,0,,html-keyboard-response,90,311360,0.0-4.13-3.13,lywp6e8gawl,2022-09-19 15:59:24.301,60bb404e01d599dfb1c3d71c,2,49,63,47,47,39,female,,,"<p style=""font-size:50px"">You Lose!
No points this round.</p>",,,,,,,,,,,,,,,,,,,,,,,,,,,,
91,0,,html-keyboard-response,91,311880,0.0-4.13-4.13,lywp6e8gawl,2022-09-19 15:59:24.301,60bb404e01d599dfb1c3d71c,2,49,63,47,47,39,female,,,,,,1.0,learning,13.0,B,,red,,stars,,,,B,red,stars,,0.0,1.0,0,right,553.8000000119,2.0,0.0,0.0,,,
92,0,,html-keyboard-response,92,313392,0.0-4.14-0.14,lywp6e8gawl,2022-09-19 15:59:24.301,60bb404e01d599dfb1c3d71c,2,49,63,47,47,39,female,,,"<img src=""static/images/cards/stack_of_black_moons.svg"" width=""175px"" height=""250px""></img>",,,,,,,,,,,,,,,,,,,,,,,,,,,,
93,0,,html-keyboard-response,93,314906,0.0-4.14-1.14,lywp6e8gawl,2022-09-19 15:59:24.301,60bb404e01d599dfb1c3d71c,2,49,63,47,47,39,female,996.3000000119,,"
  <table>
  <tr height=300>
    <td width=300 height=300><img src=""static/images/cards/back_of_black_moons.svg"" width=""175px"" height=""250px""></img></td>
    <td width=300 height=300><img src=""static/images/cards/back_of_black_moons.svg"" width=""175px"" height=""250px""></img></td>
  </tr>
  <tr height=200>
    <td width=300><img src=""static/images/keys/z.svg"" width=""35%"" height=""75%""></img></td>
    <td width=300><img src=""static/images/keys/m.svg"" width=""35%"" height=""75%""></img></td>
  </tr>
</table>
  ",90.0,1.0,,,,,,,,,,,,,,,,,,,,,,,,,,
94,0,,html-keyboard-response,94,316410,0.0-4.14-2.14,lywp6e8gawl,2022-09-19 15:59:24.301,60bb404e01d599dfb1c3d71c,2,49,63,47,47,39,female,,,"
  <table>
  <tr height=300>
    <td width=300 height=300><img src=""static/images/cards/3_of_black_moons.svg"" width=""175px"" height=""250px""></img></td>
    <td width=300 height=300><img src=""static/images/cards/back_of_black_moons.svg"" width=""175px"" height=""250px""></img></td>
  </tr>
  <tr height=200>
    <td width=300><img src=""static/images/keys/z.svg"" width=""35%"" height=""75%""></img></td>
    <td width=300><img src=""static/images/keys/m.svg"" width=""35%"" height=""75%""></img></td>
  </tr>
</table>
  ",,,,,,,,,,,,,,,,,,,,,,,,,,,,
95,0,,html-keyboard-response,95,317926,0.0-4.14-3.14,lywp6e8gawl,2022-09-19 15:59:24.301,60bb404e01d599dfb1c3d71c,2,49,63,47,47,39,female,,,"<p style=""font-size:50px"">You win!
+10 points this round!</p>",,,,,,,,,,,,,,,,,,,,,,,,,,,,
96,0,,html-keyboard-response,96,318445,0.0-4.14-4.14,lywp6e8gawl,2022-09-19 15:59:24.301,60bb404e01d599dfb1c3d71c,2,49,63,47,47,39,female,,,,,,1.0,learning,14.0,C,,black,,moons,,,,C,black,moons,,1.0,0.0,NA,left,996.3000000119,3.0,0.0,1.0,,,
97,0,,html-keyboard-response,97,319959,0.0-4.15-0.15,lywp6e8gawl,2022-09-19 15:59:24.301,60bb404e01d599dfb1c3d71c,2,49,63,47,47,39,female,,,"<img src=""static/images/cards/stack_of_red_moons.svg"" width=""175px"" height=""250px""></img>",,,,,,,,,,,,,,,,,,,,,,,,,,,,
98,0,,html-keyboard-response,98,321108,0.0-4.15-1.15,lywp6e8gawl,2022-09-19 15:59:24.301,60bb404e01d599dfb1c3d71c,2,49,63,47,47,39,female,631.3000000119,,"
  <table>
  <tr height=300>
    <td width=300 height=300><img src=""static/images/cards/back_of_red_moons.svg"" width=""175px"" height=""250px""></img></td>
    <td width=300 height=300><img src=""static/images/cards/back_of_red_moons.svg"" width=""175px"" height=""250px""></img></td>
  </tr>
  <tr height=200>
    <td width=300><img src=""static/images/keys/z.svg"" width=""35%"" height=""75%""></img></td>
    <td width=300></td>
  </tr>
</table>
  ",90.0,1.0,,,,,,,,,,,,,,,,,,,,,,,,,,
99,0,,html-keyboard-response,99,322626,0.0-4.15-2.15,lywp6e8gawl,2022-09-19 15:59:24.301,60bb404e01d599dfb1c3d71c,2,49,63,47,47,39,female,,,"
  <table>
  <tr height=300>
    <td width=300 height=300><img src=""static/images/cards/9_of_red_moons.svg"" width=""175px"" height=""250px""></img></td>
    <td width=300 height=300><img src=""static/images/cards/back_of_red_moons.svg"" width=""175px"" height=""250px""></img></td>
  </tr>
  <tr height=200>
    <td width=300><img src=""static/images/keys/z.svg"" width=""35%"" height=""75%""></img></td>
    <td width=300></td>
  </tr>
</table>
  ",,,,,,,,,,,,,,,,,,,,,,,,,,,,
100,0,,html-keyboard-response,100,324144,0.0-4.15-3.15,lywp6e8gawl,2022-09-19 15:59:24.301,60bb404e01d599dfb1c3d71c,2,49,63,47,47,39,female,,,"<p style=""font-size:50px"">You win!
+10 points this round!</p>",,,,,,,,,,,,,,,,,,,,,,,,,,,,
101,0,,html-keyboard-response,101,324663,0.0-4.15-4.15,lywp6e8gawl,2022-09-19 15:59:24.301,60bb404e01d599dfb1c3d71c,2,49,63,47,47,39,female,,,,,,1.0,learning,15.0,D,,red,,moons,,,,D,red,moons,,0.0,0.0,1,left,631.3000000119,9.0,1.0,1.0,,,
102,0,,html-keyboard-response,102,326176,0.0-4.16-0.16,lywp6e8gawl,2022-09-19 15:59:24.301,60bb404e01d599dfb1c3d71c,2,49,63,47,47,39,female,,,"<img src=""static/images/cards/stack_of_red_bolts.svg"" width=""175px"" height=""250px""></img>",,,,,,,,,,,,,,,,,,,,,,,,,,,,
103,0,,html-keyboard-response,103,327019,0.0-4.16-1.16,lywp6e8gawl,2022-09-19 15:59:24.301,60bb404e01d599dfb1c3d71c,2,49,63,47,47,39,female,324.3999999762,,"
  <table>
  <tr height=300>
    <td width=300 height=300><img src=""static/images/cards/back_of_red_bolts.svg"" width=""175px"" height=""250px""></img></td>
    <td width=300 height=300><img src=""static/images/cards/back_of_red_bolts.svg"" width=""175px"" height=""250px""></img></td>
  </tr>
  <tr height=200>
    <td width=300><img src=""static/images/keys/z.svg"" width=""35%"" height=""75%""></img></td>
    <td width=300><img src=""static/images/keys/m.svg"" width=""35%"" height=""75%""></img></td>
  </tr>
</table>
  ",90.0,1.0,,,,,,,,,,,,,,,,,,,,,,,,,,
104,0,,html-keyboard-response,104,328527,0.0-4.16-2.16,lywp6e8gawl,2022-09-19 15:59:24.301,60bb404e01d599dfb1c3d71c,2,49,63,47,47,39,female,,,"
  <table>
  <tr height=300>
    <td width=300 height=300><img src=""static/images/cards/1_of_red_bolts.svg"" width=""175px"" height=""250px""></img></td>
    <td width=300 height=300><img src=""static/images/cards/back_of_red_bolts.svg"" width=""175px"" height=""250px""></img></td>
  </tr>
  <tr height=200>
    <td width=300><img src=""static/images/keys/z.svg"" width=""35%"" height=""75%""></img></td>
    <td width=300><img src=""static/images/keys/m.svg"" width=""35%"" height=""75%""></img></td>
  </tr>
</table>
  ",,,,,,,,,,,,,,,,,,,,,,,,,,,,
105,0,,html-keyboard-response,105,330045,0.0-4.16-3.16,lywp6e8gawl,2022-09-19 15:59:24.301,60bb404e01d599dfb1c3d71c,2,49,63,47,47,39,female,,,"<p style=""font-size:50px"">You win!
+10 points this round!</p>",,,,,,,,,,,,,,,,,,,,,,,,,,,,
106,0,,html-keyboard-response,106,330565,0.0-4.16-4.16,lywp6e8gawl,2022-09-19 15:59:24.301,60bb404e01d599dfb1c3d71c,2,49,63,47,47,39,female,,,,,,1.0,learning,16.0,Xc,,red,,bolts,,,,Xc,red,bolts,,1.0,0.0,NA,left,324.3999999762,1.0,0.0,1.0,,,
107,0,,html-keyboard-response,107,332077,0.0-4.17-0.17,lywp6e8gawl,2022-09-19 15:59:24.301,60bb404e01d599dfb1c3d71c,2,49,63,47,47,39,female,,,"<img src=""static/images/cards/stack_of_black_bolts.svg"" width=""175px"" height=""250px""></img>",,,,,,,,,,,,,,,,,,,,,,,,,,,,
108,0,,html-keyboard-response,108,333194,0.0-4.17-1.17,lywp6e8gawl,2022-09-19 15:59:24.301,60bb404e01d599dfb1c3d71c,2,49,63,47,47,39,female,599.1000000238,,"
  <table>
  <tr height=300>
    <td width=300 height=300><img src=""static/images/cards/back_of_black_bolts.svg"" width=""175px"" height=""250px""></img></td>
    <td width=300 height=300><img src=""static/images/cards/back_of_black_bolts.svg"" width=""175px"" height=""250px""></img></td>
  </tr>
  <tr height=200>
    <td width=300></td>
    <td width=300><img src=""static/images/keys/m.svg"" width=""35%"" height=""75%""></img></td>
  </tr>
</table>
  ",77.0,1.0,,,,,,,,,,,,,,,,,,,,,,,,,,
109,0,,html-keyboard-response,109,334710,0.0-4.17-2.17,lywp6e8gawl,2022-09-19 15:59:24.301,60bb404e01d599dfb1c3d71c,2,49,63,47,47,39,female,,,"
  <table>
  <tr height=300>
    <td width=300 height=300><img src=""static/images/cards/back_of_black_bolts.svg"" width=""175px"" height=""250px""></img></td>
    <td width=300 height=300><img src=""static/images/cards/4_of_black_bolts.svg"" width=""175px"" height=""250px""></img></td>
  </tr>
  <tr height=200>
    <td width=300></td>
    <td width=300><img src=""static/images/keys/m.svg"" width=""35%"" height=""75%""></img></td>
  </tr>
</table>
  ",,,,,,,,,,,,,,,,,,,,,,,,,,,,
110,0,,html-keyboard-response,110,336228,0.0-4.17-3.17,lywp6e8gawl,2022-09-19 15:59:24.301,60bb404e01d599dfb1c3d71c,2,49,63,47,47,39,female,,,"<p style=""font-size:50px"">You win!
+10 points this round!</p>",,,,,,,,,,,,,,,,,,,,,,,,,,,,
111,0,,html-keyboard-response,111,336749,0.0-4.17-4.17,lywp6e8gawl,2022-09-19 15:59:24.301,60bb404e01d599dfb1c3d71c,2,49,63,47,47,39,female,,,,,,1.0,learning,17.0,Xnc,,black,,bolts,,,,Xnc,black,bolts,,0.0,0.0,0,right,599.1000000238,4.0,0.0,1.0,,,
112,0,,html-keyboard-response,112,338260,0.0-4.18-0.18,lywp6e8gawl,2022-09-19 15:59:24.301,60bb404e01d599dfb1c3d71c,2,49,63,47,47,39,female,,,"<img src=""static/images/cards/stack_of_black_stars.svg"" width=""175px"" height=""250px""></img>",,,,,,,,,,,,,,,,,,,,,,,,,,,,
113,0,,html-keyboard-response,113,339359,0.0-4.18-1.18,lywp6e8gawl,2022-09-19 15:59:24.301,60bb404e01d599dfb1c3d71c,2,49,63,47,47,39,female,580.3000000119,,"
  <table>
  <tr height=300>
    <td width=300 height=300><img src=""static/images/cards/back_of_black_stars.svg"" width=""175px"" height=""250px""></img></td>
    <td width=300 height=300><img src=""static/images/cards/back_of_black_stars.svg"" width=""175px"" height=""250px""></img></td>
  </tr>
  <tr height=200>
    <td width=300><img src=""static/images/keys/z.svg"" width=""35%"" height=""75%""></img></td>
    <td width=300><img src=""static/images/keys/m.svg"" width=""35%"" height=""75%""></img></td>
  </tr>
</table>
  ",77.0,1.0,,,,,,,,,,,,,,,,,,,,,,,,,,
114,0,,html-keyboard-response,114,340877,0.0-4.18-2.18,lywp6e8gawl,2022-09-19 15:59:24.301,60bb404e01d599dfb1c3d71c,2,49,63,47,47,39,female,,,"
  <table>
  <tr height=300>
    <td width=300 height=300><img src=""static/images/cards/back_of_black_stars.svg"" width=""175px"" height=""250px""></img></td>
    <td width=300 height=300><img src=""static/images/cards/4_of_black_stars.svg"" width=""175px"" height=""250px""></img></td>
  </tr>
  <tr height=200>
    <td width=300><img src=""static/images/keys/z.svg"" width=""35%"" height=""75%""></img></td>
    <td width=300><img src=""static/images/keys/m.svg"" width=""35%"" height=""75%""></img></td>
  </tr>
</table>
  ",,,,,,,,,,,,,,,,,,,,,,,,,,,,
115,0,,html-keyboard-response,115,342395,0.0-4.18-3.18,lywp6e8gawl,2022-09-19 15:59:24.301,60bb404e01d599dfb1c3d71c,2,49,63,47,47,39,female,,,"<p style=""font-size:50px"">You Lose!
No points this round.</p>",,,,,,,,,,,,,,,,,,,,,,,,,,,,
116,0,,html-keyboard-response,116,342916,0.0-4.18-4.18,lywp6e8gawl,2022-09-19 15:59:24.301,60bb404e01d599dfb1c3d71c,2,49,63,47,47,39,female,,,,,,1.0,learning,18.0,A,,black,,stars,,,,A,black,stars,,1.0,1.0,NA,right,580.3000000119,4.0,0.0,0.0,,,
117,0,,html-keyboard-response,117,344427,0.0-4.19-0.19,lywp6e8gawl,2022-09-19 15:59:24.301,60bb404e01d599dfb1c3d71c,2,49,63,47,47,39,female,,,"<img src=""static/images/cards/stack_of_red_stars.svg"" width=""175px"" height=""250px""></img>",,,,,,,,,,,,,,,,,,,,,,,,,,,,
118,0,,html-keyboard-response,118,346333,0.0-4.19-1.19,lywp6e8gawl,2022-09-19 15:59:24.301,60bb404e01d599dfb1c3d71c,2,49,63,47,47,39,female,1387.8999999762,,"
  <table>
  <tr height=300>
    <td width=300 height=300><img src=""static/images/cards/back_of_red_stars.svg"" width=""175px"" height=""250px""></img></td>
    <td width=300 height=300><img src=""static/images/cards/back_of_red_stars.svg"" width=""175px"" height=""250px""></img></td>
  </tr>
  <tr height=200>
    <td width=300></td>
    <td width=300><img src=""static/images/keys/m.svg"" width=""35%"" height=""75%""></img></td>
  </tr>
</table>
  ",77.0,1.0,,,,,,,,,,,,,,,,,,,,,,,,,,
119,0,,html-keyboard-response,119,347842,0.0-4.19-2.19,lywp6e8gawl,2022-09-19 15:59:24.301,60bb404e01d599dfb1c3d71c,2,49,63,47,47,39,female,,,"
  <table>
  <tr height=300>
    <td width=300 height=300><img src=""static/images/cards/back_of_red_stars.svg"" width=""175px"" height=""250px""></img></td>
    <td width=300 height=300><img src=""static/images/cards/10_of_red_stars.svg"" width=""175px"" height=""250px""></img></td>
  </tr>
  <tr height=200>
    <td width=300></td>
    <td width=300><img src=""static/images/keys/m.svg"" width=""35%"" height=""75%""></img></td>
  </tr>
</table>
  ",,,,,,,,,,,,,,,,,,,,,,,,,,,,
120,0,,html-keyboard-response,120,349360,0.0-4.19-3.19,lywp6e8gawl,2022-09-19 15:59:24.301,60bb404e01d599dfb1c3d71c,2,49,63,47,47,39,female,,,"<p style=""font-size:50px"">You win!
+10 points this round!</p>",,,,,,,,,,,,,,,,,,,,,,,,,,,,
121,0,,html-keyboard-response,121,349867,0.0-4.19-4.19,lywp6e8gawl,2022-09-19 15:59:24.301,60bb404e01d599dfb1c3d71c,2,49,63,47,47,39,female,,,,,,1.0,learning,19.0,B,,red,,stars,,,,B,red,stars,,0.0,1.0,0,right,1387.8999999762,10.0,1.0,1.0,,,
122,0,,html-keyboard-response,122,351378,0.0-4.20-0.20,lywp6e8gawl,2022-09-19 15:59:24.301,60bb404e01d599dfb1c3d71c,2,49,63,47,47,39,female,,,"<img src=""static/images/cards/stack_of_black_moons.svg"" width=""175px"" height=""250px""></img>",,,,,,,,,,,,,,,,,,,,,,,,,,,,
123,0,,html-keyboard-response,123,352350,0.0-4.20-1.20,lywp6e8gawl,2022-09-19 15:59:24.301,60bb404e01d599dfb1c3d71c,2,49,63,47,47,39,female,453.6999999881,,"
  <table>
  <tr height=300>
    <td width=300 height=300><img src=""static/images/cards/back_of_black_moons.svg"" width=""175px"" height=""250px""></img></td>
    <td width=300 height=300><img src=""static/images/cards/back_of_black_moons.svg"" width=""175px"" height=""250px""></img></td>
  </tr>
  <tr height=200>
    <td width=300><img src=""static/images/keys/z.svg"" width=""35%"" height=""75%""></img></td>
    <td width=300><img src=""static/images/keys/m.svg"" width=""35%"" height=""75%""></img></td>
  </tr>
</table>
  ",77.0,1.0,,,,,,,,,,,,,,,,,,,,,,,,,,
124,0,,html-keyboard-response,124,353861,0.0-4.20-2.20,lywp6e8gawl,2022-09-19 15:59:24.301,60bb404e01d599dfb1c3d71c,2,49,63,47,47,39,female,,,"
  <table>
  <tr height=300>
    <td width=300 height=300><img src=""static/images/cards/back_of_black_moons.svg"" width=""175px"" height=""250px""></img></td>
    <td width=300 height=300><img src=""static/images/cards/1_of_black_moons.svg"" width=""175px"" height=""250px""></img></td>
  </tr>
  <tr height=200>
    <td width=300><img src=""static/images/keys/z.svg"" width=""35%"" height=""75%""></img></td>
    <td width=300><img src=""static/images/keys/m.svg"" width=""35%"" height=""75%""></img></td>
  </tr>
</table>
  ",,,,,,,,,,,,,,,,,,,,,,,,,,,,
125,0,,html-keyboard-response,125,355379,0.0-4.20-3.20,lywp6e8gawl,2022-09-19 15:59:24.301,60bb404e01d599dfb1c3d71c,2,49,63,47,47,39,female,,,"<p style=""font-size:50px"">You Lose!
No points this round.</p>",,,,,,,,,,,,,,,,,,,,,,,,,,,,
126,0,,html-keyboard-response,126,355900,0.0-4.20-4.20,lywp6e8gawl,2022-09-19 15:59:24.301,60bb404e01d599dfb1c3d71c,2,49,63,47,47,39,female,,,,,,1.0,learning,20.0,C,,black,,moons,,,,C,black,moons,,1.0,0.0,NA,right,453.6999999881,1.0,0.0,0.0,,,
127,0,,html-keyboard-response,127,357411,0.0-4.21-0.21,lywp6e8gawl,2022-09-19 15:59:24.301,60bb404e01d599dfb1c3d71c,2,49,63,47,47,39,female,,,"<img src=""static/images/cards/stack_of_red_moons.svg"" width=""175px"" height=""250px""></img>",,,,,,,,,,,,,,,,,,,,,,,,,,,,
128,0,,html-keyboard-response,128,358455,0.0-4.21-1.21,lywp6e8gawl,2022-09-19 15:59:24.301,60bb404e01d599dfb1c3d71c,2,49,63,47,47,39,female,526.0,,"
  <table>
  <tr height=300>
    <td width=300 height=300><img src=""static/images/cards/back_of_red_moons.svg"" width=""175px"" height=""250px""></img></td>
    <td width=300 height=300><img src=""static/images/cards/back_of_red_moons.svg"" width=""175px"" height=""250px""></img></td>
  </tr>
  <tr height=200>
    <td width=300></td>
    <td width=300><img src=""static/images/keys/m.svg"" width=""35%"" height=""75%""></img></td>
  </tr>
</table>
  ",77.0,1.0,,,,,,,,,,,,,,,,,,,,,,,,,,
129,0,,html-keyboard-response,129,359963,0.0-4.21-2.21,lywp6e8gawl,2022-09-19 15:59:24.301,60bb404e01d599dfb1c3d71c,2,49,63,47,47,39,female,,,"
  <table>
  <tr height=300>
    <td width=300 height=300><img src=""static/images/cards/back_of_red_moons.svg"" width=""175px"" height=""250px""></img></td>
    <td width=300 height=300><img src=""static/images/cards/3_of_red_moons.svg"" width=""175px"" height=""250px""></img></td>
  </tr>
  <tr height=200>
    <td width=300></td>
    <td width=300><img src=""static/images/keys/m.svg"" width=""35%"" height=""75%""></img></td>
  </tr>
</table>
  ",,,,,,,,,,,,,,,,,,,,,,,,,,,,
130,0,,html-keyboard-response,130,361487,0.0-4.21-3.21,lywp6e8gawl,2022-09-19 15:59:24.301,60bb404e01d599dfb1c3d71c,2,49,63,47,47,39,female,,,"<p style=""font-size:50px"">You win!
+10 points this round!</p>",,,,,,,,,,,,,,,,,,,,,,,,,,,,
131,0,,html-keyboard-response,131,362003,0.0-4.21-4.21,lywp6e8gawl,2022-09-19 15:59:24.301,60bb404e01d599dfb1c3d71c,2,49,63,47,47,39,female,,,,,,1.0,learning,21.0,D,,red,,moons,,,,D,red,moons,,0.0,0.0,0,right,526.0,3.0,0.0,1.0,,,
132,0,,html-keyboard-response,132,363509,0.0-4.22-0.22,lywp6e8gawl,2022-09-19 15:59:24.301,60bb404e01d599dfb1c3d71c,2,49,63,47,47,39,female,,,"<img src=""static/images/cards/stack_of_red_bolts.svg"" width=""175px"" height=""250px""></img>",,,,,,,,,,,,,,,,,,,,,,,,,,,,
133,0,,html-keyboard-response,133,364368,0.0-4.22-1.22,lywp6e8gawl,2022-09-19 15:59:24.301,60bb404e01d599dfb1c3d71c,2,49,63,47,47,39,female,353.3000000119,,"
  <table>
  <tr height=300>
    <td width=300 height=300><img src=""static/images/cards/back_of_red_bolts.svg"" width=""175px"" height=""250px""></img></td>
    <td width=300 height=300><img src=""static/images/cards/back_of_red_bolts.svg"" width=""175px"" height=""250px""></img></td>
  </tr>
  <tr height=200>
    <td width=300><img src=""static/images/keys/z.svg"" width=""35%"" height=""75%""></img></td>
    <td width=300><img src=""static/images/keys/m.svg"" width=""35%"" height=""75%""></img></td>
  </tr>
</table>
  ",77.0,1.0,,,,,,,,,,,,,,,,,,,,,,,,,,
134,0,,html-keyboard-response,134,365879,0.0-4.22-2.22,lywp6e8gawl,2022-09-19 15:59:24.301,60bb404e01d599dfb1c3d71c,2,49,63,47,47,39,female,,,"
  <table>
  <tr height=300>
    <td width=300 height=300><img src=""static/images/cards/back_of_red_bolts.svg"" width=""175px"" height=""250px""></img></td>
    <td width=300 height=300><img src=""static/images/cards/3_of_red_bolts.svg"" width=""175px"" height=""250px""></img></td>
  </tr>
  <tr height=200>
    <td width=300><img src=""static/images/keys/z.svg"" width=""35%"" height=""75%""></img></td>
    <td width=300><img src=""static/images/keys/m.svg"" width=""35%"" height=""75%""></img></td>
  </tr>
</table>
  ",,,,,,,,,,,,,,,,,,,,,,,,,,,,
135,0,,html-keyboard-response,135,367397,0.0-4.22-3.22,lywp6e8gawl,2022-09-19 15:59:24.301,60bb404e01d599dfb1c3d71c,2,49,63,47,47,39,female,,,"<p style=""font-size:50px"">You win!
+10 points this round!</p>",,,,,,,,,,,,,,,,,,,,,,,,,,,,
136,0,,html-keyboard-response,136,367917,0.0-4.22-4.22,lywp6e8gawl,2022-09-19 15:59:24.301,60bb404e01d599dfb1c3d71c,2,49,63,47,47,39,female,,,,,,1.0,learning,22.0,Xc,,red,,bolts,,,,Xc,red,bolts,,1.0,0.0,NA,right,353.3000000119,3.0,0.0,1.0,,,
137,0,,html-keyboard-response,137,369429,0.0-4.23-0.23,lywp6e8gawl,2022-09-19 15:59:24.301,60bb404e01d599dfb1c3d71c,2,49,63,47,47,39,female,,,"<img src=""static/images/cards/stack_of_black_bolts.svg"" width=""175px"" height=""250px""></img>",,,,,,,,,,,,,,,,,,,,,,,,,,,,
138,0,,html-keyboard-response,138,370246,0.0-4.23-1.23,lywp6e8gawl,2022-09-19 15:59:24.301,60bb404e01d599dfb1c3d71c,2,49,63,47,47,39,female,311.4000000358,,"
  <table>
  <tr height=300>
    <td width=300 height=300><img src=""static/images/cards/back_of_black_bolts.svg"" width=""175px"" height=""250px""></img></td>
    <td width=300 height=300><img src=""static/images/cards/back_of_black_bolts.svg"" width=""175px"" height=""250px""></img></td>
  </tr>
  <tr height=200>
    <td width=300><img src=""static/images/keys/z.svg"" width=""35%"" height=""75%""></img></td>
    <td width=300></td>
  </tr>
</table>
  ",90.0,1.0,,,,,,,,,,,,,,,,,,,,,,,,,,
139,0,,html-keyboard-response,139,371762,0.0-4.23-2.23,lywp6e8gawl,2022-09-19 15:59:24.301,60bb404e01d599dfb1c3d71c,2,49,63,47,47,39,female,,,"
  <table>
  <tr height=300>
    <td width=300 height=300><img src=""static/images/cards/2_of_black_bolts.svg"" width=""175px"" height=""250px""></img></td>
    <td width=300 height=300><img src=""static/images/cards/back_of_black_bolts.svg"" width=""175px"" height=""250px""></img></td>
  </tr>
  <tr height=200>
    <td width=300><img src=""static/images/keys/z.svg"" width=""35%"" height=""75%""></img></td>
    <td width=300></td>
  </tr>
</table>
  ",,,,,,,,,,,,,,,,,,,,,,,,,,,,
140,0,,html-keyboard-response,140,373281,0.0-4.23-3.23,lywp6e8gawl,2022-09-19 15:59:24.301,60bb404e01d599dfb1c3d71c,2,49,63,47,47,39,female,,,"<p style=""font-size:50px"">You win!
+10 points this round!</p>",,,,,,,,,,,,,,,,,,,,,,,,,,,,
141,0,,html-keyboard-response,141,373801,0.0-4.23-4.23,lywp6e8gawl,2022-09-19 15:59:24.301,60bb404e01d599dfb1c3d71c,2,49,63,47,47,39,female,,,,,,1.0,learning,23.0,Xnc,,black,,bolts,,,,Xnc,black,bolts,,0.0,0.0,1,left,311.4000000358,2.0,0.0,1.0,,,
142,0,,call-function,142,373816,0.0-5.0,lywp6e8gawl,2022-09-19 15:59:24.301,60bb404e01d599dfb1c3d71c,2,49,63,47,47,39,female,,,,,,,,,,,,,,,,,,,,,,,,,,,,,,,
143,0,,image-keyboard-response,143,380303,0.0-6.0-0.0,lywp6e8gawl,2022-09-19 15:59:24.301,60bb404e01d599dfb1c3d71c,2,49,63,47,47,39,female,6485.8000000119,,static/images/instructions_CB_2/Slide20.png,39.0,,,,,,,,,,,,,,,,,,,,,,,,,,,
144,0,,image-keyboard-response,144,407462,0.0-6.1-0.1,lywp6e8gawl,2022-09-19 15:59:24.301,60bb404e01d599dfb1c3d71c,2,49,63,47,47,39,female,27163.8999999762,,static/images/instructions_CB_2/Slide21.png,37.0,,,,,,,,,,,,,,,,,,,,,,,,,,,
145,0,,image-keyboard-response,145,412374,0.0-6.2-0.2,lywp6e8gawl,2022-09-19 15:59:24.301,60bb404e01d599dfb1c3d71c,2,49,63,47,47,39,female,4910.8999999762,,static/images/instructions_CB_2/Slide20.png,39.0,,,,,,,,,,,,,,,,,,,,,,,,,,,
146,0,,image-keyboard-response,146,413612,0.0-6.3-0.3,lywp6e8gawl,2022-09-19 15:59:24.301,60bb404e01d599dfb1c3d71c,2,49,63,47,47,39,female,1236.4000000358,,static/images/instructions_CB_2/Slide21.png,39.0,,,,,,,,,,,,,,,,,,,,,,,,,,,
147,0,,image-keyboard-response,147,422779,0.0-6.4-0.4,lywp6e8gawl,2022-09-19 15:59:24.301,60bb404e01d599dfb1c3d71c,2,49,63,47,47,39,female,9164.6999999881,,static/images/instructions_CB_2/Slide22.png,39.0,,,,,,,,,,,,,,,,,,,,,,,,,,,
148,0,,image-keyboard-response,148,451952,0.0-6.5-0.5,lywp6e8gawl,2022-09-19 15:59:24.301,60bb404e01d599dfb1c3d71c,2,49,63,47,47,39,female,29171.5999999642,,static/images/instructions_CB_2/Slide23.png,39.0,,,,,,,,,,,,,,,,,,,,,,,,,,,
149,0,,image-keyboard-response,149,455641,0.0-6.6-0.6,lywp6e8gawl,2022-09-19 15:59:24.301,60bb404e01d599dfb1c3d71c,2,49,63,47,47,39,female,3686.9000000358,,static/images/instructions_CB_2/Slide24.png,39.0,,,,,,,,,,,,,,,,,,,,,,,,,,,
150,0,,html-keyboard-response,150,459397,0.0-7.0-0.0,lywp6e8gawl,2022-09-19 15:59:24.301,60bb404e01d599dfb1c3d71c,2,49,63,47,47,39,female,3753.3000000119,,"
  <table>
  <tr height=300>
    <td width=300 height=300><img src=""static/images/cards/stack_of_black_bolts.svg"" width=""175px"" height=""250px""></img></td>
    <td width=300 height=300><img src=""static/images/cards/stack_of_red_stars.svg"" width=""175px"" height=""250px""></img></td>
  </tr>
  <tr height=200>
    <td width=300><img src=""static/images/keys/w.svg"" width=""35%"" height=""75%""></img></td>
    <td width=300><img src=""static/images/keys/o.svg"" width=""35%"" height=""75%""></img></td>
  </tr>
</table>
  ",87.0,1.0,,,,,,,,,,,,,,,,,,,,,,,,,,
151,0,,html-keyboard-response,151,462142,0.0-7.0-1.0,lywp6e8gawl,2022-09-19 15:59:24.301,60bb404e01d599dfb1c3d71c,2,49,63,47,47,39,female,2228.5,,"
  <table>
  <tr height=300>
    <td width=300 height=300><img src=""static/images/cards/back_of_black_bolts.svg"" width=""175px"" height=""250px""></img></td>
    <td width=300 height=300><img src=""static/images/cards/back_of_black_bolts.svg"" width=""175px"" height=""250px""></img></td>
  </tr>
  <tr height=200>
    <td width=300><img src=""static/images/keys/z.svg"" width=""35%"" height=""75%""></img></td>
    <td width=300></td>
  </tr>
</table>
  ",90.0,1.0,,,,,,,,,,,,,,,,,,,,,,,,,,
152,0,,html-keyboard-response,152,463647,0.0-7.0-2.0,lywp6e8gawl,2022-09-19 15:59:24.301,60bb404e01d599dfb1c3d71c,2,49,63,47,47,39,female,,,"
  <table>
  <tr height=300>
    <td width=300 height=300><img src=""static/images/cards/4_of_black_bolts.svg"" width=""175px"" height=""250px""></img></td>
    <td width=300 height=300><img src=""static/images/cards/back_of_black_bolts.svg"" width=""175px"" height=""250px""></img></td>
  </tr>
  <tr height=200>
    <td width=300><img src=""static/images/keys/z.svg"" width=""35%"" height=""75%""></img></td>
    <td width=300></td>
  </tr>
</table>
  ",,,,,,,,,,,,,,,,,,,,,,,,,,,,
153,0,,html-keyboard-response,153,465163,0.0-7.0-3.0,lywp6e8gawl,2022-09-19 15:59:24.301,60bb404e01d599dfb1c3d71c,2,49,63,47,47,39,female,,,"<p style=""font-size:50px"">You win!
+10 points this round!</p>",,,,,,,,,,,,,,,,,,,,,,,,,,,,
154,0,,html-keyboard-response,154,465684,0.0-7.0-4.0,lywp6e8gawl,2022-09-19 15:59:24.301,60bb404e01d599dfb1c3d71c,2,49,63,47,47,39,female,,,,,,1.0,choice,0.0,B,Xnc,black,red,bolts,stars,Xnc,B,Xnc,black,bolts,3753.3000000119,0.0,0.0,1,left,2228.5,4.0,0.0,1.0,,,
155,0,,html-keyboard-response,155,470701,0.0-7.1-0.1,lywp6e8gawl,2022-09-19 15:59:24.301,60bb404e01d599dfb1c3d71c,2,49,63,47,47,39,female,,,"
  <table>
  <tr height=300>
    <td width=300 height=300><img src=""static/images/cards/stack_of_red_stars.svg"" width=""175px"" height=""250px""></img></td>
    <td width=300 height=300><img src=""static/images/cards/stack_of_red_moons.svg"" width=""175px"" height=""250px""></img></td>
  </tr>
  <tr height=200>
    <td width=300><img src=""static/images/keys/w.svg"" width=""35%"" height=""75%""></img></td>
    <td width=300><img src=""static/images/keys/o.svg"" width=""35%"" height=""75%""></img></td>
  </tr>
</table>
  ",,,,,,,,,,,,,,,,,,,,,,,,,,,,
156,0,,html-keyboard-response,156,471208,0.0-7.1-1.1,lywp6e8gawl,2022-09-19 15:59:24.301,60bb404e01d599dfb1c3d71c,2,49,63,47,47,39,female,,,,,,,,,,,,,,,,,,,,,,,,,,,,,,,
157,0,,html-keyboard-response,157,471214,0.0-7.1-2.1,lywp6e8gawl,2022-09-19 15:59:24.301,60bb404e01d599dfb1c3d71c,2,49,63,47,47,39,female,,,,,,,,,,,,,,,,,,,,,,,,,,,,,,,
158,0,,html-keyboard-response,158,472721,0.0-7.1-3.1,lywp6e8gawl,2022-09-19 15:59:24.301,60bb404e01d599dfb1c3d71c,2,49,63,47,47,39,female,,,"<p style=""font-size:50px"">Too slow!</p>",,,,,,,,,,,,,,,,,,,,,,,,,,,,
159,0,,html-keyboard-response,159,473241,0.0-7.1-4.1,lywp6e8gawl,2022-09-19 15:59:24.301,60bb404e01d599dfb1c3d71c,2,49,63,47,47,39,female,,,,,,1.0,choice,1.0,B,D,red,red,stars,moons,B,D,,,,,0.0,0.0,1,,,4.0,0.0,1.0,,,
160,0,,html-keyboard-response,160,474824,0.0-7.2-0.2,lywp6e8gawl,2022-09-19 15:59:24.301,60bb404e01d599dfb1c3d71c,2,49,63,47,47,39,female,1580.3000000119,,"
  <table>
  <tr height=300>
    <td width=300 height=300><img src=""static/images/cards/stack_of_black_moons.svg"" width=""175px"" height=""250px""></img></td>
    <td width=300 height=300><img src=""static/images/cards/stack_of_red_moons.svg"" width=""175px"" height=""250px""></img></td>
  </tr>
  <tr height=200>
    <td width=300><img src=""static/images/keys/w.svg"" width=""35%"" height=""75%""></img></td>
    <td width=300><img src=""static/images/keys/o.svg"" width=""35%"" height=""75%""></img></td>
  </tr>
</table>
  ",87.0,1.0,,,,,,,,,,,,,,,,,,,,,,,,,,
161,0,,html-keyboard-response,161,477209,0.0-7.2-1.2,lywp6e8gawl,2022-09-19 15:59:24.301,60bb404e01d599dfb1c3d71c,2,49,63,47,47,39,female,1871.8000000119,,"
  <table>
  <tr height=300>
    <td width=300 height=300><img src=""static/images/cards/back_of_black_moons.svg"" width=""175px"" height=""250px""></img></td>
    <td width=300 height=300><img src=""static/images/cards/back_of_black_moons.svg"" width=""175px"" height=""250px""></img></td>
  </tr>
  <tr height=200>
    <td width=300><img src=""static/images/keys/z.svg"" width=""35%"" height=""75%""></img></td>
    <td width=300><img src=""static/images/keys/m.svg"" width=""35%"" height=""75%""></img></td>
  </tr>
</table>
  ",77.0,1.0,,,,,,,,,,,,,,,,,,,,,,,,,,
162,0,,html-keyboard-response,162,478720,0.0-7.2-2.2,lywp6e8gawl,2022-09-19 15:59:24.301,60bb404e01d599dfb1c3d71c,2,49,63,47,47,39,female,,,"
  <table>
  <tr height=300>
    <td width=300 height=300><img src=""static/images/cards/back_of_black_moons.svg"" width=""175px"" height=""250px""></img></td>
    <td width=300 height=300><img src=""static/images/cards/8_of_black_moons.svg"" width=""175px"" height=""250px""></img></td>
  </tr>
  <tr height=200>
    <td width=300><img src=""static/images/keys/z.svg"" width=""35%"" height=""75%""></img></td>
    <td width=300><img src=""static/images/keys/m.svg"" width=""35%"" height=""75%""></img></td>
  </tr>
</table>
  ",,,,,,,,,,,,,,,,,,,,,,,,,,,,
163,0,,html-keyboard-response,163,480238,0.0-7.2-3.2,lywp6e8gawl,2022-09-19 15:59:24.301,60bb404e01d599dfb1c3d71c,2,49,63,47,47,39,female,,,"<p style=""font-size:50px"">You Lose!
No points this round.</p>",,,,,,,,,,,,,,,,,,,,,,,,,,,,
164,0,,html-keyboard-response,164,480758,0.0-7.2-4.2,lywp6e8gawl,2022-09-19 15:59:24.301,60bb404e01d599dfb1c3d71c,2,49,63,47,47,39,female,,,,,,1.0,choice,2.0,C,D,black,red,moons,moons,C,D,C,black,moons,1580.3000000119,1.0,0.0,NA,right,1871.8000000119,8.0,1.0,0.0,,,
165,0,,html-keyboard-response,165,482654,0.0-7.3-0.3,lywp6e8gawl,2022-09-19 15:59:24.301,60bb404e01d599dfb1c3d71c,2,49,63,47,47,39,female,1892.7000000477,,"
  <table>
  <tr height=300>
    <td width=300 height=300><img src=""static/images/cards/stack_of_black_moons.svg"" width=""175px"" height=""250px""></img></td>
    <td width=300 height=300><img src=""static/images/cards/stack_of_red_moons.svg"" width=""175px"" height=""250px""></img></td>
  </tr>
  <tr height=200>
    <td width=300><img src=""static/images/keys/w.svg"" width=""35%"" height=""75%""></img></td>
    <td width=300><img src=""static/images/keys/o.svg"" width=""35%"" height=""75%""></img></td>
  </tr>
</table>
  ",79.0,1.0,,,,,,,,,,,,,,,,,,,,,,,,,,
166,0,,html-keyboard-response,166,484144,0.0-7.3-1.3,lywp6e8gawl,2022-09-19 15:59:24.301,60bb404e01d599dfb1c3d71c,2,49,63,47,47,39,female,972.3000000119,,"
  <table>
  <tr height=300>
    <td width=300 height=300><img src=""static/images/cards/back_of_red_moons.svg"" width=""175px"" height=""250px""></img></td>
    <td width=300 height=300><img src=""static/images/cards/back_of_red_moons.svg"" width=""175px"" height=""250px""></img></td>
  </tr>
  <tr height=200>
    <td width=300></td>
    <td width=300><img src=""static/images/keys/m.svg"" width=""35%"" height=""75%""></img></td>
  </tr>
</table>
  ",77.0,1.0,,,,,,,,,,,,,,,,,,,,,,,,,,
167,0,,html-keyboard-response,167,485654,0.0-7.3-2.3,lywp6e8gawl,2022-09-19 15:59:24.301,60bb404e01d599dfb1c3d71c,2,49,63,47,47,39,female,,,"
  <table>
  <tr height=300>
    <td width=300 height=300><img src=""static/images/cards/back_of_red_moons.svg"" width=""175px"" height=""250px""></img></td>
    <td width=300 height=300><img src=""static/images/cards/1_of_red_moons.svg"" width=""175px"" height=""250px""></img></td>
  </tr>
  <tr height=200>
    <td width=300></td>
    <td width=300><img src=""static/images/keys/m.svg"" width=""35%"" height=""75%""></img></td>
  </tr>
</table>
  ",,,,,,,,,,,,,,,,,,,,,,,,,,,,
168,0,,html-keyboard-response,168,487171,0.0-7.3-3.3,lywp6e8gawl,2022-09-19 15:59:24.301,60bb404e01d599dfb1c3d71c,2,49,63,47,47,39,female,,,"<p style=""font-size:50px"">You Lose!
No points this round.</p>",,,,,,,,,,,,,,,,,,,,,,,,,,,,
169,0,,html-keyboard-response,169,487691,0.0-7.3-4.3,lywp6e8gawl,2022-09-19 15:59:24.301,60bb404e01d599dfb1c3d71c,2,49,63,47,47,39,female,,,,,,1.0,choice,3.0,C,D,black,red,moons,moons,C,D,D,red,moons,1892.7000000477,0.0,0.0,0,right,972.3000000119,1.0,0.0,0.0,,,
170,0,,html-keyboard-response,170,489474,0.0-7.4-0.4,lywp6e8gawl,2022-09-19 15:59:24.301,60bb404e01d599dfb1c3d71c,2,49,63,47,47,39,female,1780.3999999762,,"
  <table>
  <tr height=300>
    <td width=300 height=300><img src=""static/images/cards/stack_of_black_stars.svg"" width=""175px"" height=""250px""></img></td>
    <td width=300 height=300><img src=""static/images/cards/stack_of_red_stars.svg"" width=""175px"" height=""250px""></img></td>
  </tr>
  <tr height=200>
    <td width=300><img src=""static/images/keys/w.svg"" width=""35%"" height=""75%""></img></td>
    <td width=300><img src=""static/images/keys/o.svg"" width=""35%"" height=""75%""></img></td>
  </tr>
</table>
  ",87.0,1.0,,,,,,,,,,,,,,,,,,,,,,,,,,
171,0,,html-keyboard-response,171,491653,0.0-7.4-1.4,lywp6e8gawl,2022-09-19 15:59:24.301,60bb404e01d599dfb1c3d71c,2,49,63,47,47,39,female,1663.8000000119,,"
  <table>
  <tr height=300>
    <td width=300 height=300><img src=""static/images/cards/back_of_black_stars.svg"" width=""175px"" height=""250px""></img></td>
    <td width=300 height=300><img src=""static/images/cards/back_of_black_stars.svg"" width=""175px"" height=""250px""></img></td>
  </tr>
  <tr height=200>
    <td width=300><img src=""static/images/keys/z.svg"" width=""35%"" height=""75%""></img></td>
    <td width=300><img src=""static/images/keys/m.svg"" width=""35%"" height=""75%""></img></td>
  </tr>
</table>
  ",90.0,1.0,,,,,,,,,,,,,,,,,,,,,,,,,,
172,0,,html-keyboard-response,172,493171,0.0-7.4-2.4,lywp6e8gawl,2022-09-19 15:59:24.301,60bb404e01d599dfb1c3d71c,2,49,63,47,47,39,female,,,"
  <table>
  <tr height=300>
    <td width=300 height=300><img src=""static/images/cards/4_of_black_stars.svg"" width=""175px"" height=""250px""></img></td>
    <td width=300 height=300><img src=""static/images/cards/back_of_black_stars.svg"" width=""175px"" height=""250px""></img></td>
  </tr>
  <tr height=200>
    <td width=300><img src=""static/images/keys/z.svg"" width=""35%"" height=""75%""></img></td>
    <td width=300><img src=""static/images/keys/m.svg"" width=""35%"" height=""75%""></img></td>
  </tr>
</table>
  ",,,,,,,,,,,,,,,,,,,,,,,,,,,,
173,0,,html-keyboard-response,173,494689,0.0-7.4-3.4,lywp6e8gawl,2022-09-19 15:59:24.301,60bb404e01d599dfb1c3d71c,2,49,63,47,47,39,female,,,"<p style=""font-size:50px"">You Lose!
No points this round.</p>",,,,,,,,,,,,,,,,,,,,,,,,,,,,
174,0,,html-keyboard-response,174,495209,0.0-7.4-4.4,lywp6e8gawl,2022-09-19 15:59:24.301,60bb404e01d599dfb1c3d71c,2,49,63,47,47,39,female,,,,,,1.0,choice,4.0,A,B,black,red,stars,stars,A,B,A,black,stars,1780.3999999762,1.0,1.0,NA,left,1663.8000000119,4.0,0.0,0.0,,,
175,0,,html-keyboard-response,175,496460,0.0-7.5-0.5,lywp6e8gawl,2022-09-19 15:59:24.301,60bb404e01d599dfb1c3d71c,2,49,63,47,47,39,female,1247.9000000358,,"
  <table>
  <tr height=300>
    <td width=300 height=300><img src=""static/images/cards/stack_of_black_bolts.svg"" width=""175px"" height=""250px""></img></td>
    <td width=300 height=300><img src=""static/images/cards/stack_of_red_moons.svg"" width=""175px"" height=""250px""></img></td>
  </tr>
  <tr height=200>
    <td width=300><img src=""static/images/keys/w.svg"" width=""35%"" height=""75%""></img></td>
    <td width=300><img src=""static/images/keys/o.svg"" width=""35%"" height=""75%""></img></td>
  </tr>
</table>
  ",87.0,1.0,,,,,,,,,,,,,,,,,,,,,,,,,,
176,0,,html-keyboard-response,176,498126,0.0-7.5-1.5,lywp6e8gawl,2022-09-19 15:59:24.301,60bb404e01d599dfb1c3d71c,2,49,63,47,47,39,female,1161.6999999881,,"
  <table>
  <tr height=300>
    <td width=300 height=300><img src=""static/images/cards/back_of_black_bolts.svg"" width=""175px"" height=""250px""></img></td>
    <td width=300 height=300><img src=""static/images/cards/back_of_black_bolts.svg"" width=""175px"" height=""250px""></img></td>
  </tr>
  <tr height=200>
    <td width=300><img src=""static/images/keys/z.svg"" width=""35%"" height=""75%""></img></td>
    <td width=300></td>
  </tr>
</table>
  ",90.0,1.0,,,,,,,,,,,,,,,,,,,,,,,,,,
177,0,,html-keyboard-response,177,499643,0.0-7.5-2.5,lywp6e8gawl,2022-09-19 15:59:24.301,60bb404e01d599dfb1c3d71c,2,49,63,47,47,39,female,,,"
  <table>
  <tr height=300>
    <td width=300 height=300><img src=""static/images/cards/2_of_black_bolts.svg"" width=""175px"" height=""250px""></img></td>
    <td width=300 height=300><img src=""static/images/cards/back_of_black_bolts.svg"" width=""175px"" height=""250px""></img></td>
  </tr>
  <tr height=200>
    <td width=300><img src=""static/images/keys/z.svg"" width=""35%"" height=""75%""></img></td>
    <td width=300></td>
  </tr>
</table>
  ",,,,,,,,,,,,,,,,,,,,,,,,,,,,
178,0,,html-keyboard-response,178,501156,0.0-7.5-3.5,lywp6e8gawl,2022-09-19 15:59:24.301,60bb404e01d599dfb1c3d71c,2,49,63,47,47,39,female,,,"<p style=""font-size:50px"">You win!
+10 points this round!</p>",,,,,,,,,,,,,,,,,,,,,,,,,,,,
179,0,,html-keyboard-response,179,501676,0.0-7.5-4.5,lywp6e8gawl,2022-09-19 15:59:24.301,60bb404e01d599dfb1c3d71c,2,49,63,47,47,39,female,,,,,,1.0,choice,5.0,D,Xnc,black,red,bolts,moons,Xnc,D,Xnc,black,bolts,1247.9000000358,0.0,0.0,1,left,1161.6999999881,2.0,0.0,1.0,,,
180,0,,html-keyboard-response,180,503376,0.0-7.6-0.6,lywp6e8gawl,2022-09-19 15:59:24.301,60bb404e01d599dfb1c3d71c,2,49,63,47,47,39,female,1696.5,,"
  <table>
  <tr height=300>
    <td width=300 height=300><img src=""static/images/cards/stack_of_black_moons.svg"" width=""175px"" height=""250px""></img></td>
    <td width=300 height=300><img src=""static/images/cards/stack_of_black_stars.svg"" width=""175px"" height=""250px""></img></td>
  </tr>
  <tr height=200>
    <td width=300><img src=""static/images/keys/w.svg"" width=""35%"" height=""75%""></img></td>
    <td width=300><img src=""static/images/keys/o.svg"" width=""35%"" height=""75%""></img></td>
  </tr>
</table>
  ",79.0,1.0,,,,,,,,,,,,,,,,,,,,,,,,,,
181,0,,html-keyboard-response,181,504955,0.0-7.6-1.6,lywp6e8gawl,2022-09-19 15:59:24.301,60bb404e01d599dfb1c3d71c,2,49,63,47,47,39,female,1065.7000000477,,"
  <table>
  <tr height=300>
    <td width=300 height=300><img src=""static/images/cards/back_of_black_stars.svg"" width=""175px"" height=""250px""></img></td>
    <td width=300 height=300><img src=""static/images/cards/back_of_black_stars.svg"" width=""175px"" height=""250px""></img></td>
  </tr>
  <tr height=200>
    <td width=300><img src=""static/images/keys/z.svg"" width=""35%"" height=""75%""></img></td>
    <td width=300><img src=""static/images/keys/m.svg"" width=""35%"" height=""75%""></img></td>
  </tr>
</table>
  ",77.0,1.0,,,,,,,,,,,,,,,,,,,,,,,,,,
182,0,,html-keyboard-response,182,506472,0.0-7.6-2.6,lywp6e8gawl,2022-09-19 15:59:24.301,60bb404e01d599dfb1c3d71c,2,49,63,47,47,39,female,,,"
  <table>
  <tr height=300>
    <td width=300 height=300><img src=""static/images/cards/back_of_black_stars.svg"" width=""175px"" height=""250px""></img></td>
    <td width=300 height=300><img src=""static/images/cards/1_of_black_stars.svg"" width=""175px"" height=""250px""></img></td>
  </tr>
  <tr height=200>
    <td width=300><img src=""static/images/keys/z.svg"" width=""35%"" height=""75%""></img></td>
    <td width=300><img src=""static/images/keys/m.svg"" width=""35%"" height=""75%""></img></td>
  </tr>
</table>
  ",,,,,,,,,,,,,,,,,,,,,,,,,,,,
183,0,,html-keyboard-response,183,507990,0.0-7.6-3.6,lywp6e8gawl,2022-09-19 15:59:24.301,60bb404e01d599dfb1c3d71c,2,49,63,47,47,39,female,,,"<p style=""font-size:50px"">You Lose!
No points this round.</p>",,,,,,,,,,,,,,,,,,,,,,,,,,,,
184,0,,html-keyboard-response,184,508509,0.0-7.6-4.6,lywp6e8gawl,2022-09-19 15:59:24.301,60bb404e01d599dfb1c3d71c,2,49,63,47,47,39,female,,,,,,1.0,choice,6.0,A,C,black,black,moons,stars,C,A,A,black,stars,1696.5,1.0,1.0,NA,right,1065.7000000477,1.0,0.0,0.0,,,
185,0,,html-keyboard-response,185,510486,0.0-7.7-0.7,lywp6e8gawl,2022-09-19 15:59:24.301,60bb404e01d599dfb1c3d71c,2,49,63,47,47,39,female,1973.7999999523,,"
  <table>
  <tr height=300>
    <td width=300 height=300><img src=""static/images/cards/stack_of_red_stars.svg"" width=""175px"" height=""250px""></img></td>
    <td width=300 height=300><img src=""static/images/cards/stack_of_red_moons.svg"" width=""175px"" height=""250px""></img></td>
  </tr>
  <tr height=200>
    <td width=300><img src=""static/images/keys/w.svg"" width=""35%"" height=""75%""></img></td>
    <td width=300><img src=""static/images/keys/o.svg"" width=""35%"" height=""75%""></img></td>
  </tr>
</table>
  ",87.0,1.0,,,,,,,,,,,,,,,,,,,,,,,,,,
186,0,,html-keyboard-response,186,511932,0.0-7.7-1.7,lywp6e8gawl,2022-09-19 15:59:24.301,60bb404e01d599dfb1c3d71c,2,49,63,47,47,39,female,941.3999999762,,"
  <table>
  <tr height=300>
    <td width=300 height=300><img src=""static/images/cards/back_of_red_stars.svg"" width=""175px"" height=""250px""></img></td>
    <td width=300 height=300><img src=""static/images/cards/back_of_red_stars.svg"" width=""175px"" height=""250px""></img></td>
  </tr>
  <tr height=200>
    <td width=300></td>
    <td width=300><img src=""static/images/keys/m.svg"" width=""35%"" height=""75%""></img></td>
  </tr>
</table>
  ",77.0,1.0,,,,,,,,,,,,,,,,,,,,,,,,,,
187,0,,html-keyboard-response,187,513439,0.0-7.7-2.7,lywp6e8gawl,2022-09-19 15:59:24.301,60bb404e01d599dfb1c3d71c,2,49,63,47,47,39,female,,,"
  <table>
  <tr height=300>
    <td width=300 height=300><img src=""static/images/cards/back_of_red_stars.svg"" width=""175px"" height=""250px""></img></td>
    <td width=300 height=300><img src=""static/images/cards/4_of_red_stars.svg"" width=""175px"" height=""250px""></img></td>
  </tr>
  <tr height=200>
    <td width=300></td>
    <td width=300><img src=""static/images/keys/m.svg"" width=""35%"" height=""75%""></img></td>
  </tr>
</table>
  ",,,,,,,,,,,,,,,,,,,,,,,,,,,,
188,0,,html-keyboard-response,188,514957,0.0-7.7-3.7,lywp6e8gawl,2022-09-19 15:59:24.301,60bb404e01d599dfb1c3d71c,2,49,63,47,47,39,female,,,"<p style=""font-size:50px"">You Lose!
No points this round.</p>",,,,,,,,,,,,,,,,,,,,,,,,,,,,
189,0,,html-keyboard-response,189,515477,0.0-7.7-4.7,lywp6e8gawl,2022-09-19 15:59:24.301,60bb404e01d599dfb1c3d71c,2,49,63,47,47,39,female,,,,,,1.0,choice,7.0,B,D,red,red,stars,moons,B,D,B,red,stars,1973.7999999523,0.0,1.0,0,right,941.3999999762,4.0,0.0,0.0,,,
190,0,,html-keyboard-response,190,516898,0.0-7.8-0.8,lywp6e8gawl,2022-09-19 15:59:24.301,60bb404e01d599dfb1c3d71c,2,49,63,47,47,39,female,1417.3999999762,,"
  <table>
  <tr height=300>
    <td width=300 height=300><img src=""static/images/cards/stack_of_black_stars.svg"" width=""175px"" height=""250px""></img></td>
    <td width=300 height=300><img src=""static/images/cards/stack_of_black_moons.svg"" width=""175px"" height=""250px""></img></td>
  </tr>
  <tr height=200>
    <td width=300><img src=""static/images/keys/w.svg"" width=""35%"" height=""75%""></img></td>
    <td width=300><img src=""static/images/keys/o.svg"" width=""35%"" height=""75%""></img></td>
  </tr>
</table>
  ",87.0,1.0,,,,,,,,,,,,,,,,,,,,,,,,,,
191,0,,html-keyboard-response,191,518131,0.0-7.8-1.8,lywp6e8gawl,2022-09-19 15:59:24.301,60bb404e01d599dfb1c3d71c,2,49,63,47,47,39,female,723.6000000238,,"
  <table>
  <tr height=300>
    <td width=300 height=300><img src=""static/images/cards/back_of_black_stars.svg"" width=""175px"" height=""250px""></img></td>
    <td width=300 height=300><img src=""static/images/cards/back_of_black_stars.svg"" width=""175px"" height=""250px""></img></td>
  </tr>
  <tr height=200>
    <td width=300><img src=""static/images/keys/z.svg"" width=""35%"" height=""75%""></img></td>
    <td width=300><img src=""static/images/keys/m.svg"" width=""35%"" height=""75%""></img></td>
  </tr>
</table>
  ",77.0,1.0,,,,,,,,,,,,,,,,,,,,,,,,,,
192,0,,html-keyboard-response,192,519639,0.0-7.8-2.8,lywp6e8gawl,2022-09-19 15:59:24.301,60bb404e01d599dfb1c3d71c,2,49,63,47,47,39,female,,,"
  <table>
  <tr height=300>
    <td width=300 height=300><img src=""static/images/cards/back_of_black_stars.svg"" width=""175px"" height=""250px""></img></td>
    <td width=300 height=300><img src=""static/images/cards/2_of_black_stars.svg"" width=""175px"" height=""250px""></img></td>
  </tr>
  <tr height=200>
    <td width=300><img src=""static/images/keys/z.svg"" width=""35%"" height=""75%""></img></td>
    <td width=300><img src=""static/images/keys/m.svg"" width=""35%"" height=""75%""></img></td>
  </tr>
</table>
  ",,,,,,,,,,,,,,,,,,,,,,,,,,,,
193,0,,html-keyboard-response,193,521157,0.0-7.8-3.8,lywp6e8gawl,2022-09-19 15:59:24.301,60bb404e01d599dfb1c3d71c,2,49,63,47,47,39,female,,,"<p style=""font-size:50px"">You Lose!
No points this round.</p>",,,,,,,,,,,,,,,,,,,,,,,,,,,,
194,0,,html-keyboard-response,194,521678,0.0-7.8-4.8,lywp6e8gawl,2022-09-19 15:59:24.301,60bb404e01d599dfb1c3d71c,2,49,63,47,47,39,female,,,,,,1.0,choice,8.0,A,C,black,black,stars,moons,A,C,A,black,stars,1417.3999999762,1.0,1.0,NA,right,723.6000000238,2.0,0.0,0.0,,,
195,0,,html-keyboard-response,195,523193,0.0-7.9-0.9,lywp6e8gawl,2022-09-19 15:59:24.301,60bb404e01d599dfb1c3d71c,2,49,63,47,47,39,female,1512.5,,"
  <table>
  <tr height=300>
    <td width=300 height=300><img src=""static/images/cards/stack_of_black_stars.svg"" width=""175px"" height=""250px""></img></td>
    <td width=300 height=300><img src=""static/images/cards/stack_of_red_stars.svg"" width=""175px"" height=""250px""></img></td>
  </tr>
  <tr height=200>
    <td width=300><img src=""static/images/keys/w.svg"" width=""35%"" height=""75%""></img></td>
    <td width=300><img src=""static/images/keys/o.svg"" width=""35%"" height=""75%""></img></td>
  </tr>
</table>
  ",87.0,1.0,,,,,,,,,,,,,,,,,,,,,,,,,,
196,0,,html-keyboard-response,196,524571,0.0-7.9-1.9,lywp6e8gawl,2022-09-19 15:59:24.301,60bb404e01d599dfb1c3d71c,2,49,63,47,47,39,female,863.0,,"
  <table>
  <tr height=300>
    <td width=300 height=300><img src=""static/images/cards/back_of_black_stars.svg"" width=""175px"" height=""250px""></img></td>
    <td width=300 height=300><img src=""static/images/cards/back_of_black_stars.svg"" width=""175px"" height=""250px""></img></td>
  </tr>
  <tr height=200>
    <td width=300><img src=""static/images/keys/z.svg"" width=""35%"" height=""75%""></img></td>
    <td width=300><img src=""static/images/keys/m.svg"" width=""35%"" height=""75%""></img></td>
  </tr>
</table>
  ",90.0,1.0,,,,,,,,,,,,,,,,,,,,,,,,,,
197,0,,html-keyboard-response,197,526090,0.0-7.9-2.9,lywp6e8gawl,2022-09-19 15:59:24.301,60bb404e01d599dfb1c3d71c,2,49,63,47,47,39,female,,,"
  <table>
  <tr height=300>
    <td width=300 height=300><img src=""static/images/cards/2_of_black_stars.svg"" width=""175px"" height=""250px""></img></td>
    <td width=300 height=300><img src=""static/images/cards/back_of_black_stars.svg"" width=""175px"" height=""250px""></img></td>
  </tr>
  <tr height=200>
    <td width=300><img src=""static/images/keys/z.svg"" width=""35%"" height=""75%""></img></td>
    <td width=300><img src=""static/images/keys/m.svg"" width=""35%"" height=""75%""></img></td>
  </tr>
</table>
  ",,,,,,,,,,,,,,,,,,,,,,,,,,,,
198,0,,html-keyboard-response,198,527608,0.0-7.9-3.9,lywp6e8gawl,2022-09-19 15:59:24.301,60bb404e01d599dfb1c3d71c,2,49,63,47,47,39,female,,,"<p style=""font-size:50px"">You Lose!
No points this round.</p>",,,,,,,,,,,,,,,,,,,,,,,,,,,,
199,0,,html-keyboard-response,199,528128,0.0-7.9-4.9,lywp6e8gawl,2022-09-19 15:59:24.301,60bb404e01d599dfb1c3d71c,2,49,63,47,47,39,female,,,,,,1.0,choice,9.0,A,B,black,red,stars,stars,A,B,A,black,stars,1512.5,1.0,1.0,NA,left,863.0,2.0,0.0,0.0,,,
200,0,,html-keyboard-response,200,529580,0.0-7.10-0.10,lywp6e8gawl,2022-09-19 15:59:24.301,60bb404e01d599dfb1c3d71c,2,49,63,47,47,39,female,1449.1999999881,,"
  <table>
  <tr height=300>
    <td width=300 height=300><img src=""static/images/cards/stack_of_red_moons.svg"" width=""175px"" height=""250px""></img></td>
    <td width=300 height=300><img src=""static/images/cards/stack_of_black_moons.svg"" width=""175px"" height=""250px""></img></td>
  </tr>
  <tr height=200>
    <td width=300><img src=""static/images/keys/w.svg"" width=""35%"" height=""75%""></img></td>
    <td width=300><img src=""static/images/keys/o.svg"" width=""35%"" height=""75%""></img></td>
  </tr>
</table>
  ",87.0,1.0,,,,,,,,,,,,,,,,,,,,,,,,,,
201,0,,html-keyboard-response,201,530861,0.0-7.10-1.10,lywp6e8gawl,2022-09-19 15:59:24.301,60bb404e01d599dfb1c3d71c,2,49,63,47,47,39,female,769.3999999762,,"
  <table>
  <tr height=300>
    <td width=300 height=300><img src=""static/images/cards/back_of_red_moons.svg"" width=""175px"" height=""250px""></img></td>
    <td width=300 height=300><img src=""static/images/cards/back_of_red_moons.svg"" width=""175px"" height=""250px""></img></td>
  </tr>
  <tr height=200>
    <td width=300><img src=""static/images/keys/z.svg"" width=""35%"" height=""75%""></img></td>
    <td width=300></td>
  </tr>
</table>
  ",90.0,1.0,,,,,,,,,,,,,,,,,,,,,,,,,,
202,0,,html-keyboard-response,202,532374,0.0-7.10-2.10,lywp6e8gawl,2022-09-19 15:59:24.301,60bb404e01d599dfb1c3d71c,2,49,63,47,47,39,female,,,"
  <table>
  <tr height=300>
    <td width=300 height=300><img src=""static/images/cards/7_of_red_moons.svg"" width=""175px"" height=""250px""></img></td>
    <td width=300 height=300><img src=""static/images/cards/back_of_red_moons.svg"" width=""175px"" height=""250px""></img></td>
  </tr>
  <tr height=200>
    <td width=300><img src=""static/images/keys/z.svg"" width=""35%"" height=""75%""></img></td>
    <td width=300></td>
  </tr>
</table>
  ",,,,,,,,,,,,,,,,,,,,,,,,,,,,
203,0,,html-keyboard-response,203,533892,0.0-7.10-3.10,lywp6e8gawl,2022-09-19 15:59:24.301,60bb404e01d599dfb1c3d71c,2,49,63,47,47,39,female,,,"<p style=""font-size:50px"">You win!
+10 points this round!</p>",,,,,,,,,,,,,,,,,,,,,,,,,,,,
204,0,,html-keyboard-response,204,534412,0.0-7.10-4.10,lywp6e8gawl,2022-09-19 15:59:24.301,60bb404e01d599dfb1c3d71c,2,49,63,47,47,39,female,,,,,,1.0,choice,10.0,C,D,red,black,moons,moons,D,C,D,red,moons,1449.1999999881,0.0,0.0,1,left,769.3999999762,7.0,1.0,1.0,,,
205,0,,html-keyboard-response,205,536466,0.0-7.11-0.11,lywp6e8gawl,2022-09-19 15:59:24.301,60bb404e01d599dfb1c3d71c,2,49,63,47,47,39,female,2050.3999999762,,"
  <table>
  <tr height=300>
    <td width=300 height=300><img src=""static/images/cards/stack_of_red_moons.svg"" width=""175px"" height=""250px""></img></td>
    <td width=300 height=300><img src=""static/images/cards/stack_of_red_stars.svg"" width=""175px"" height=""250px""></img></td>
  </tr>
  <tr height=200>
    <td width=300><img src=""static/images/keys/w.svg"" width=""35%"" height=""75%""></img></td>
    <td width=300><img src=""static/images/keys/o.svg"" width=""35%"" height=""75%""></img></td>
  </tr>
</table>
  ",87.0,1.0,,,,,,,,,,,,,,,,,,,,,,,,,,
206,0,,html-keyboard-response,206,537700,0.0-7.11-1.11,lywp6e8gawl,2022-09-19 15:59:24.301,60bb404e01d599dfb1c3d71c,2,49,63,47,47,39,female,725.1000000238,,"
  <table>
  <tr height=300>
    <td width=300 height=300><img src=""static/images/cards/back_of_red_moons.svg"" width=""175px"" height=""250px""></img></td>
    <td width=300 height=300><img src=""static/images/cards/back_of_red_moons.svg"" width=""175px"" height=""250px""></img></td>
  </tr>
  <tr height=200>
    <td width=300><img src=""static/images/keys/z.svg"" width=""35%"" height=""75%""></img></td>
    <td width=300></td>
  </tr>
</table>
  ",90.0,1.0,,,,,,,,,,,,,,,,,,,,,,,,,,
207,0,,html-keyboard-response,207,539208,0.0-7.11-2.11,lywp6e8gawl,2022-09-19 15:59:24.301,60bb404e01d599dfb1c3d71c,2,49,63,47,47,39,female,,,"
  <table>
  <tr height=300>
    <td width=300 height=300><img src=""static/images/cards/3_of_red_moons.svg"" width=""175px"" height=""250px""></img></td>
    <td width=300 height=300><img src=""static/images/cards/back_of_red_moons.svg"" width=""175px"" height=""250px""></img></td>
  </tr>
  <tr height=200>
    <td width=300><img src=""static/images/keys/z.svg"" width=""35%"" height=""75%""></img></td>
    <td width=300></td>
  </tr>
</table>
  ",,,,,,,,,,,,,,,,,,,,,,,,,,,,
208,0,,html-keyboard-response,208,540725,0.0-7.11-3.11,lywp6e8gawl,2022-09-19 15:59:24.301,60bb404e01d599dfb1c3d71c,2,49,63,47,47,39,female,,,"<p style=""font-size:50px"">You Lose!
No points this round.</p>",,,,,,,,,,,,,,,,,,,,,,,,,,,,
209,0,,html-keyboard-response,209,541246,0.0-7.11-4.11,lywp6e8gawl,2022-09-19 15:59:24.301,60bb404e01d599dfb1c3d71c,2,49,63,47,47,39,female,,,,,,1.0,choice,11.0,B,D,red,red,moons,stars,D,B,D,red,moons,2050.3999999762,0.0,0.0,1,left,725.1000000238,3.0,0.0,0.0,,,
210,0,,html-keyboard-response,210,542760,0.0-7.12-0.12,lywp6e8gawl,2022-09-19 15:59:24.301,60bb404e01d599dfb1c3d71c,2,49,63,47,47,39,female,1511.1999999881,,"
  <table>
  <tr height=300>
    <td width=300 height=300><img src=""static/images/cards/stack_of_red_moons.svg"" width=""175px"" height=""250px""></img></td>
    <td width=300 height=300><img src=""static/images/cards/stack_of_black_stars.svg"" width=""175px"" height=""250px""></img></td>
  </tr>
  <tr height=200>
    <td width=300><img src=""static/images/keys/w.svg"" width=""35%"" height=""75%""></img></td>
    <td width=300><img src=""static/images/keys/o.svg"" width=""35%"" height=""75%""></img></td>
  </tr>
</table>
  ",79.0,1.0,,,,,,,,,,,,,,,,,,,,,,,,,,
211,0,,html-keyboard-response,211,544098,0.0-7.12-1.12,lywp6e8gawl,2022-09-19 15:59:24.301,60bb404e01d599dfb1c3d71c,2,49,63,47,47,39,female,822.1000000238,,"
  <table>
  <tr height=300>
    <td width=300 height=300><img src=""static/images/cards/back_of_black_stars.svg"" width=""175px"" height=""250px""></img></td>
    <td width=300 height=300><img src=""static/images/cards/back_of_black_stars.svg"" width=""175px"" height=""250px""></img></td>
  </tr>
  <tr height=200>
    <td width=300><img src=""static/images/keys/z.svg"" width=""35%"" height=""75%""></img></td>
    <td width=300><img src=""static/images/keys/m.svg"" width=""35%"" height=""75%""></img></td>
  </tr>
</table>
  ",90.0,1.0,,,,,,,,,,,,,,,,,,,,,,,,,,
212,0,,html-keyboard-response,212,545613,0.0-7.12-2.12,lywp6e8gawl,2022-09-19 15:59:24.301,60bb404e01d599dfb1c3d71c,2,49,63,47,47,39,female,,,"
  <table>
  <tr height=300>
    <td width=300 height=300><img src=""static/images/cards/9_of_black_stars.svg"" width=""175px"" height=""250px""></img></td>
    <td width=300 height=300><img src=""static/images/cards/back_of_black_stars.svg"" width=""175px"" height=""250px""></img></td>
  </tr>
  <tr height=200>
    <td width=300><img src=""static/images/keys/z.svg"" width=""35%"" height=""75%""></img></td>
    <td width=300><img src=""static/images/keys/m.svg"" width=""35%"" height=""75%""></img></td>
  </tr>
</table>
  ",,,,,,,,,,,,,,,,,,,,,,,,,,,,
213,0,,html-keyboard-response,213,547126,0.0-7.12-3.12,lywp6e8gawl,2022-09-19 15:59:24.301,60bb404e01d599dfb1c3d71c,2,49,63,47,47,39,female,,,"<p style=""font-size:50px"">You win!
+10 points this round!</p>",,,,,,,,,,,,,,,,,,,,,,,,,,,,
214,0,,html-keyboard-response,214,547646,0.0-7.12-4.12,lywp6e8gawl,2022-09-19 15:59:24.301,60bb404e01d599dfb1c3d71c,2,49,63,47,47,39,female,,,,,,1.0,choice,12.0,A,D,red,black,moons,stars,D,A,A,black,stars,1511.1999999881,1.0,1.0,NA,left,822.1000000238,9.0,1.0,1.0,,,
215,0,,html-keyboard-response,215,549233,0.0-7.13-0.13,lywp6e8gawl,2022-09-19 15:59:24.301,60bb404e01d599dfb1c3d71c,2,49,63,47,47,39,female,1583.2999999523,,"
  <table>
  <tr height=300>
    <td width=300 height=300><img src=""static/images/cards/stack_of_red_bolts.svg"" width=""175px"" height=""250px""></img></td>
    <td width=300 height=300><img src=""static/images/cards/stack_of_black_moons.svg"" width=""175px"" height=""250px""></img></td>
  </tr>
  <tr height=200>
    <td width=300><img src=""static/images/keys/w.svg"" width=""35%"" height=""75%""></img></td>
    <td width=300><img src=""static/images/keys/o.svg"" width=""35%"" height=""75%""></img></td>
  </tr>
</table>
  ",87.0,1.0,,,,,,,,,,,,,,,,,,,,,,,,,,
216,0,,html-keyboard-response,216,550458,0.0-7.13-1.13,lywp6e8gawl,2022-09-19 15:59:24.301,60bb404e01d599dfb1c3d71c,2,49,63,47,47,39,female,715.5,,"
  <table>
  <tr height=300>
    <td width=300 height=300><img src=""static/images/cards/back_of_red_bolts.svg"" width=""175px"" height=""250px""></img></td>
    <td width=300 height=300><img src=""static/images/cards/back_of_red_bolts.svg"" width=""175px"" height=""250px""></img></td>
  </tr>
  <tr height=200>
    <td width=300><img src=""static/images/keys/z.svg"" width=""35%"" height=""75%""></img></td>
    <td width=300><img src=""static/images/keys/m.svg"" width=""35%"" height=""75%""></img></td>
  </tr>
</table>
  ",77.0,1.0,,,,,,,,,,,,,,,,,,,,,,,,,,
217,0,,html-keyboard-response,217,551975,0.0-7.13-2.13,lywp6e8gawl,2022-09-19 15:59:24.301,60bb404e01d599dfb1c3d71c,2,49,63,47,47,39,female,,,"
  <table>
  <tr height=300>
    <td width=300 height=300><img src=""static/images/cards/back_of_red_bolts.svg"" width=""175px"" height=""250px""></img></td>
    <td width=300 height=300><img src=""static/images/cards/2_of_red_bolts.svg"" width=""175px"" height=""250px""></img></td>
  </tr>
  <tr height=200>
    <td width=300><img src=""static/images/keys/z.svg"" width=""35%"" height=""75%""></img></td>
    <td width=300><img src=""static/images/keys/m.svg"" width=""35%"" height=""75%""></img></td>
  </tr>
</table>
  ",,,,,,,,,,,,,,,,,,,,,,,,,,,,
218,0,,html-keyboard-response,218,553493,0.0-7.13-3.13,lywp6e8gawl,2022-09-19 15:59:24.301,60bb404e01d599dfb1c3d71c,2,49,63,47,47,39,female,,,"<p style=""font-size:50px"">You win!
+10 points this round!</p>",,,,,,,,,,,,,,,,,,,,,,,,,,,,
219,0,,html-keyboard-response,219,554014,0.0-7.13-4.13,lywp6e8gawl,2022-09-19 15:59:24.301,60bb404e01d599dfb1c3d71c,2,49,63,47,47,39,female,,,,,,1.0,choice,13.0,C,Xc,red,black,bolts,moons,Xc,C,Xc,red,bolts,1583.2999999523,1.0,0.0,NA,right,715.5,2.0,0.0,1.0,,,
220,0,,html-keyboard-response,220,555683,0.0-7.14-0.14,lywp6e8gawl,2022-09-19 15:59:24.301,60bb404e01d599dfb1c3d71c,2,49,63,47,47,39,female,1666.8000000119,,"
  <table>
  <tr height=300>
    <td width=300 height=300><img src=""static/images/cards/stack_of_red_stars.svg"" width=""175px"" height=""250px""></img></td>
    <td width=300 height=300><img src=""static/images/cards/stack_of_black_stars.svg"" width=""175px"" height=""250px""></img></td>
  </tr>
  <tr height=200>
    <td width=300><img src=""static/images/keys/w.svg"" width=""35%"" height=""75%""></img></td>
    <td width=300><img src=""static/images/keys/o.svg"" width=""35%"" height=""75%""></img></td>
  </tr>
</table>
  ",79.0,1.0,,,,,,,,,,,,,,,,,,,,,,,,,,
221,0,,html-keyboard-response,221,557157,0.0-7.14-1.14,lywp6e8gawl,2022-09-19 15:59:24.301,60bb404e01d599dfb1c3d71c,2,49,63,47,47,39,female,963.3999999762,,"
  <table>
  <tr height=300>
    <td width=300 height=300><img src=""static/images/cards/back_of_black_stars.svg"" width=""175px"" height=""250px""></img></td>
    <td width=300 height=300><img src=""static/images/cards/back_of_black_stars.svg"" width=""175px"" height=""250px""></img></td>
  </tr>
  <tr height=200>
    <td width=300><img src=""static/images/keys/z.svg"" width=""35%"" height=""75%""></img></td>
    <td width=300><img src=""static/images/keys/m.svg"" width=""35%"" height=""75%""></img></td>
  </tr>
</table>
  ",77.0,1.0,,,,,,,,,,,,,,,,,,,,,,,,,,
222,0,,html-keyboard-response,222,558675,0.0-7.14-2.14,lywp6e8gawl,2022-09-19 15:59:24.301,60bb404e01d599dfb1c3d71c,2,49,63,47,47,39,female,,,"
  <table>
  <tr height=300>
    <td width=300 height=300><img src=""static/images/cards/back_of_black_stars.svg"" width=""175px"" height=""250px""></img></td>
    <td width=300 height=300><img src=""static/images/cards/8_of_black_stars.svg"" width=""175px"" height=""250px""></img></td>
  </tr>
  <tr height=200>
    <td width=300><img src=""static/images/keys/z.svg"" width=""35%"" height=""75%""></img></td>
    <td width=300><img src=""static/images/keys/m.svg"" width=""35%"" height=""75%""></img></td>
  </tr>
</table>
  ",,,,,,,,,,,,,,,,,,,,,,,,,,,,
223,0,,html-keyboard-response,223,560193,0.0-7.14-3.14,lywp6e8gawl,2022-09-19 15:59:24.301,60bb404e01d599dfb1c3d71c,2,49,63,47,47,39,female,,,"<p style=""font-size:50px"">You win!
+10 points this round!</p>",,,,,,,,,,,,,,,,,,,,,,,,,,,,
224,0,,html-keyboard-response,224,560714,0.0-7.14-4.14,lywp6e8gawl,2022-09-19 15:59:24.301,60bb404e01d599dfb1c3d71c,2,49,63,47,47,39,female,,,,,,1.0,choice,14.0,A,B,red,black,stars,stars,B,A,A,black,stars,1666.8000000119,1.0,1.0,NA,right,963.3999999762,8.0,1.0,1.0,,,
225,0,,html-keyboard-response,225,562622,0.0-7.15-0.15,lywp6e8gawl,2022-09-19 15:59:24.301,60bb404e01d599dfb1c3d71c,2,49,63,47,47,39,female,1905.5,,"
  <table>
  <tr height=300>
    <td width=300 height=300><img src=""static/images/cards/stack_of_red_moons.svg"" width=""175px"" height=""250px""></img></td>
    <td width=300 height=300><img src=""static/images/cards/stack_of_red_stars.svg"" width=""175px"" height=""250px""></img></td>
  </tr>
  <tr height=200>
    <td width=300><img src=""static/images/keys/w.svg"" width=""35%"" height=""75%""></img></td>
    <td width=300><img src=""static/images/keys/o.svg"" width=""35%"" height=""75%""></img></td>
  </tr>
</table>
  ",79.0,1.0,,,,,,,,,,,,,,,,,,,,,,,,,,
226,0,,html-keyboard-response,226,564343,0.0-7.15-1.15,lywp6e8gawl,2022-09-19 15:59:24.301,60bb404e01d599dfb1c3d71c,2,49,63,47,47,39,female,1213.8999999762,,"
  <table>
  <tr height=300>
    <td width=300 height=300><img src=""static/images/cards/back_of_red_stars.svg"" width=""175px"" height=""250px""></img></td>
    <td width=300 height=300><img src=""static/images/cards/back_of_red_stars.svg"" width=""175px"" height=""250px""></img></td>
  </tr>
  <tr height=200>
    <td width=300></td>
    <td width=300><img src=""static/images/keys/m.svg"" width=""35%"" height=""75%""></img></td>
  </tr>
</table>
  ",77.0,1.0,,,,,,,,,,,,,,,,,,,,,,,,,,
227,0,,html-keyboard-response,227,565859,0.0-7.15-2.15,lywp6e8gawl,2022-09-19 15:59:24.301,60bb404e01d599dfb1c3d71c,2,49,63,47,47,39,female,,,"
  <table>
  <tr height=300>
    <td width=300 height=300><img src=""static/images/cards/back_of_red_stars.svg"" width=""175px"" height=""250px""></img></td>
    <td width=300 height=300><img src=""static/images/cards/8_of_red_stars.svg"" width=""175px"" height=""250px""></img></td>
  </tr>
  <tr height=200>
    <td width=300></td>
    <td width=300><img src=""static/images/keys/m.svg"" width=""35%"" height=""75%""></img></td>
  </tr>
</table>
  ",,,,,,,,,,,,,,,,,,,,,,,,,,,,
228,0,,html-keyboard-response,228,567377,0.0-7.15-3.15,lywp6e8gawl,2022-09-19 15:59:24.301,60bb404e01d599dfb1c3d71c,2,49,63,47,47,39,female,,,"<p style=""font-size:50px"">You win!
+10 points this round!</p>",,,,,,,,,,,,,,,,,,,,,,,,,,,,
229,0,,html-keyboard-response,229,567898,0.0-7.15-4.15,lywp6e8gawl,2022-09-19 15:59:24.301,60bb404e01d599dfb1c3d71c,2,49,63,47,47,39,female,,,,,,1.0,choice,15.0,B,D,red,red,moons,stars,D,B,B,red,stars,1905.5,0.0,1.0,0,right,1213.8999999762,8.0,1.0,1.0,,,
230,0,,html-keyboard-response,230,569133,0.0-7.16-0.16,lywp6e8gawl,2022-09-19 15:59:24.301,60bb404e01d599dfb1c3d71c,2,49,63,47,47,39,female,1232.6999999881,,"
  <table>
  <tr height=300>
    <td width=300 height=300><img src=""static/images/cards/stack_of_black_stars.svg"" width=""175px"" height=""250px""></img></td>
    <td width=300 height=300><img src=""static/images/cards/stack_of_red_stars.svg"" width=""175px"" height=""250px""></img></td>
  </tr>
  <tr height=200>
    <td width=300><img src=""static/images/keys/w.svg"" width=""35%"" height=""75%""></img></td>
    <td width=300><img src=""static/images/keys/o.svg"" width=""35%"" height=""75%""></img></td>
  </tr>
</table>
  ",87.0,1.0,,,,,,,,,,,,,,,,,,,,,,,,,,
231,0,,html-keyboard-response,231,571106,0.0-7.16-1.16,lywp6e8gawl,2022-09-19 15:59:24.301,60bb404e01d599dfb1c3d71c,2,49,63,47,47,39,female,1461.7999999523,,"
  <table>
  <tr height=300>
    <td width=300 height=300><img src=""static/images/cards/back_of_black_stars.svg"" width=""175px"" height=""250px""></img></td>
    <td width=300 height=300><img src=""static/images/cards/back_of_black_stars.svg"" width=""175px"" height=""250px""></img></td>
  </tr>
  <tr height=200>
    <td width=300><img src=""static/images/keys/z.svg"" width=""35%"" height=""75%""></img></td>
    <td width=300><img src=""static/images/keys/m.svg"" width=""35%"" height=""75%""></img></td>
  </tr>
</table>
  ",77.0,1.0,,,,,,,,,,,,,,,,,,,,,,,,,,
232,0,,html-keyboard-response,232,572611,0.0-7.16-2.16,lywp6e8gawl,2022-09-19 15:59:24.301,60bb404e01d599dfb1c3d71c,2,49,63,47,47,39,female,,,"
  <table>
  <tr height=300>
    <td width=300 height=300><img src=""static/images/cards/back_of_black_stars.svg"" width=""175px"" height=""250px""></img></td>
    <td width=300 height=300><img src=""static/images/cards/10_of_black_stars.svg"" width=""175px"" height=""250px""></img></td>
  </tr>
  <tr height=200>
    <td width=300><img src=""static/images/keys/z.svg"" width=""35%"" height=""75%""></img></td>
    <td width=300><img src=""static/images/keys/m.svg"" width=""35%"" height=""75%""></img></td>
  </tr>
</table>
  ",,,,,,,,,,,,,,,,,,,,,,,,,,,,
233,0,,html-keyboard-response,233,574138,0.0-7.16-3.16,lywp6e8gawl,2022-09-19 15:59:24.301,60bb404e01d599dfb1c3d71c,2,49,63,47,47,39,female,,,"<p style=""font-size:50px"">You win!
+10 points this round!</p>",,,,,,,,,,,,,,,,,,,,,,,,,,,,
234,0,,html-keyboard-response,234,574650,0.0-7.16-4.16,lywp6e8gawl,2022-09-19 15:59:24.301,60bb404e01d599dfb1c3d71c,2,49,63,47,47,39,female,,,,,,1.0,choice,16.0,A,B,black,red,stars,stars,A,B,A,black,stars,1232.6999999881,1.0,1.0,NA,right,1461.7999999523,10.0,1.0,1.0,,,
235,0,,html-keyboard-response,235,575470,0.0-7.17-0.17,lywp6e8gawl,2022-09-19 15:59:24.301,60bb404e01d599dfb1c3d71c,2,49,63,47,47,39,female,816.6000000238,,"
  <table>
  <tr height=300>
    <td width=300 height=300><img src=""static/images/cards/stack_of_red_moons.svg"" width=""175px"" height=""250px""></img></td>
