,index,success,trial_type,trial_index,time_elapsed,internal_node_id,subject,date,prol_id,ctbl,sense_of_control_A,sense_of_control_B,sense_of_control_C,sense_of_control_D,age,gender,rt,url,stimulus,key_press,npress,is_data_trial,phase,trial,deck1,deck2,col1,col2,sym1,sym2,deck_l,deck_r,chosen_deck,chosen_col,chosen_sym,deck_rt,choose_choice,mutual_info,hidden_key,chosen_card,card_rt,player_num,win_card,outcome,mock_rating,response,responses
0,0,1.0,fullscreen,0,3143,0.0-0.0,d7f3p7hitqi,2022-09-19 14:55:22.492,5f49f3262a3d07563d14a7f1,3,100,38,95,35,28,Male,,,,,,,,,,,,,,,,,,,,,,,,,,,,,,,
1,0,,external-html,1,315319,0.0-1.0,d7f3p7hitqi,2022-09-19 14:55:22.492,5f49f3262a3d07563d14a7f1,3,100,38,95,35,28,Male,312147.8999999985,static/js/sub/consent.html,,,,,,,,,,,,,,,,,,,,,,,,,,,,,
2,0,,call-function,2,315321,0.0-2.0,d7f3p7hitqi,2022-09-19 14:55:22.492,5f49f3262a3d07563d14a7f1,3,100,38,95,35,28,Male,,,,,,,,,,,,,,,,,,,,,,,,,,,,,,,
3,0,,image-keyboard-response,3,326323,0.0-3.0-0.0,d7f3p7hitqi,2022-09-19 14:55:22.492,5f49f3262a3d07563d14a7f1,3,100,38,95,35,28,Male,10999.8000000045,,static/images/instructions_CB_3/Slide1.png,39.0,,,,,,,,,,,,,,,,,,,,,,,,,,,
4,0,,image-keyboard-response,4,395507,0.0-3.1-0.1,d7f3p7hitqi,2022-09-19 14:55:22.492,5f49f3262a3d07563d14a7f1,3,100,38,95,35,28,Male,69182.799999997,,static/images/instructions_CB_3/Slide2.png,39.0,,,,,,,,,,,,,,,,,,,,,,,,,,,
5,0,,image-keyboard-response,5,424120,0.0-3.2-0.2,d7f3p7hitqi,2022-09-19 14:55:22.492,5f49f3262a3d07563d14a7f1,3,100,38,95,35,28,Male,28612.6000000015,,static/images/instructions_CB_3/Slide3.png,39.0,,,,,,,,,,,,,,,,,,,,,,,,,,,
6,0,,image-keyboard-response,6,437314,0.0-3.3-0.3,d7f3p7hitqi,2022-09-19 14:55:22.492,5f49f3262a3d07563d14a7f1,3,100,38,95,35,28,Male,13192.6000000015,,static/images/instructions_CB_3/Slide4.png,39.0,,,,,,,,,,,,,,,,,,,,,,,,,,,
7,0,,image-keyboard-response,7,445057,0.0-3.4-0.4,d7f3p7hitqi,2022-09-19 14:55:22.492,5f49f3262a3d07563d14a7f1,3,100,38,95,35,28,Male,7742.700000003,,static/images/instructions_CB_3/Slide5.png,37.0,,,,,,,,,,,,,,,,,,,,,,,,,,,
8,0,,image-keyboard-response,8,447381,0.0-3.5-0.5,d7f3p7hitqi,2022-09-19 14:55:22.492,5f49f3262a3d07563d14a7f1,3,100,38,95,35,28,Male,2322.6000000015,,static/images/instructions_CB_3/Slide4.png,37.0,,,,,,,,,,,,,,,,,,,,,,,,,,,
9,0,,image-keyboard-response,9,449246,0.0-3.6-0.6,d7f3p7hitqi,2022-09-19 14:55:22.492,5f49f3262a3d07563d14a7f1,3,100,38,95,35,28,Male,1864.8000000045,,static/images/instructions_CB_3/Slide3.png,39.0,,,,,,,,,,,,,,,,,,,,,,,,,,,
10,0,,image-keyboard-response,10,449905,0.0-3.7-0.7,d7f3p7hitqi,2022-09-19 14:55:22.492,5f49f3262a3d07563d14a7f1,3,100,38,95,35,28,Male,657.8999999985,,static/images/instructions_CB_3/Slide4.png,39.0,,,,,,,,,,,,,,,,,,,,,,,,,,,
11,0,,image-keyboard-response,11,458035,0.0-3.8-0.8,d7f3p7hitqi,2022-09-19 14:55:22.492,5f49f3262a3d07563d14a7f1,3,100,38,95,35,28,Male,8129.6999999955,,static/images/instructions_CB_3/Slide5.png,39.0,,,,,,,,,,,,,,,,,,,,,,,,,,,
12,0,,image-keyboard-response,12,467694,0.0-3.9-0.9,d7f3p7hitqi,2022-09-19 14:55:22.492,5f49f3262a3d07563d14a7f1,3,100,38,95,35,28,Male,9658.5,,static/images/instructions_CB_3/Slide6.png,39.0,,,,,,,,,,,,,,,,,,,,,,,,,,,
13,0,,image-keyboard-response,13,473020,0.0-3.10-0.10,d7f3p7hitqi,2022-09-19 14:55:22.492,5f49f3262a3d07563d14a7f1,3,100,38,95,35,28,Male,5324.799999997,,static/images/instructions_CB_3/Slide7.png,39.0,,,,,,,,,,,,,,,,,,,,,,,,,,,
14,0,,image-keyboard-response,14,505235,0.0-3.11-0.11,d7f3p7hitqi,2022-09-19 14:55:22.492,5f49f3262a3d07563d14a7f1,3,100,38,95,35,28,Male,32214.1000000015,,static/images/instructions_CB_3/Slide8.png,39.0,,,,,,,,,,,,,,,,,,,,,,,,,,,
15,0,,image-keyboard-response,15,591040,0.0-3.12-0.12,d7f3p7hitqi,2022-09-19 14:55:22.492,5f49f3262a3d07563d14a7f1,3,100,38,95,35,28,Male,85804.0,,static/images/instructions_CB_3/Slide9.png,39.0,,,,,,,,,,,,,,,,,,,,,,,,,,,
16,0,,image-keyboard-response,16,630922,0.0-3.13-0.13,d7f3p7hitqi,2022-09-19 14:55:22.492,5f49f3262a3d07563d14a7f1,3,100,38,95,35,28,Male,39881.3000000045,,static/images/instructions_CB_3/Slide10.png,39.0,,,,,,,,,,,,,,,,,,,,,,,,,,,
17,0,,image-keyboard-response,17,636506,0.0-3.14-0.14,d7f3p7hitqi,2022-09-19 14:55:22.492,5f49f3262a3d07563d14a7f1,3,100,38,95,35,28,Male,5583.400000006,,static/images/instructions_CB_3/Slide11.png,39.0,,,,,,,,,,,,,,,,,,,,,,,,,,,
18,0,,image-keyboard-response,18,656304,0.0-3.15-0.15,d7f3p7hitqi,2022-09-19 14:55:22.492,5f49f3262a3d07563d14a7f1,3,100,38,95,35,28,Male,19798.0,,static/images/instructions_CB_3/Slide12.png,39.0,,,,,,,,,,,,,,,,,,,,,,,,,,,
19,0,,image-keyboard-response,19,701133,0.0-3.16-0.16,d7f3p7hitqi,2022-09-19 14:55:22.492,5f49f3262a3d07563d14a7f1,3,100,38,95,35,28,Male,44827.6999999955,,static/images/instructions_CB_3/Slide13.png,39.0,,,,,,,,,,,,,,,,,,,,,,,,,,,
20,0,,image-keyboard-response,20,715983,0.0-3.17-0.17,d7f3p7hitqi,2022-09-19 14:55:22.492,5f49f3262a3d07563d14a7f1,3,100,38,95,35,28,Male,14848.6999999955,,static/images/instructions_CB_3/Slide14.png,39.0,,,,,,,,,,,,,,,,,,,,,,,,,,,
21,0,,image-keyboard-response,21,736532,0.0-3.18-0.18,d7f3p7hitqi,2022-09-19 14:55:22.492,5f49f3262a3d07563d14a7f1,3,100,38,95,35,28,Male,20548.8999999985,,static/images/instructions_CB_3/Slide15.png,39.0,,,,,,,,,,,,,,,,,,,,,,,,,,,
22,0,,image-keyboard-response,22,747962,0.0-3.19-0.19,d7f3p7hitqi,2022-09-19 14:55:22.492,5f49f3262a3d07563d14a7f1,3,100,38,95,35,28,Male,11429.0,,static/images/instructions_CB_3/Slide16.png,39.0,,,,,,,,,,,,,,,,,,,,,,,,,,,
23,0,,image-keyboard-response,23,755603,0.0-3.20-0.20,d7f3p7hitqi,2022-09-19 14:55:22.492,5f49f3262a3d07563d14a7f1,3,100,38,95,35,28,Male,7640.8000000045,,static/images/instructions_CB_3/Slide17.png,39.0,,,,,,,,,,,,,,,,,,,,,,,,,,,
24,0,,image-keyboard-response,24,773046,0.0-3.21-0.21,d7f3p7hitqi,2022-09-19 14:55:22.492,5f49f3262a3d07563d14a7f1,3,100,38,95,35,28,Male,17441.8999999985,,static/images/instructions_CB_3/Slide18.png,39.0,,,,,,,,,,,,,,,,,,,,,,,,,,,
25,0,,image-keyboard-response,25,780299,0.0-3.22-0.22,d7f3p7hitqi,2022-09-19 14:55:22.492,5f49f3262a3d07563d14a7f1,3,100,38,95,35,28,Male,7252.5,,static/images/instructions_CB_3/Slide19.png,39.0,,,,,,,,,,,,,,,,,,,,,,,,,,,
26,0,,html-keyboard-response,26,781806,0.0-4.0-0.0,d7f3p7hitqi,2022-09-19 14:55:22.492,5f49f3262a3d07563d14a7f1,3,100,38,95,35,28,Male,,,"<img src=""static/images/cards/stack_of_black_moons.svg"" width=""175px"" height=""250px""></img>",,,,,,,,,,,,,,,,,,,,,,,,,,,,
27,0,,html-keyboard-response,27,783117,0.0-4.0-1.0,d7f3p7hitqi,2022-09-19 14:55:22.492,5f49f3262a3d07563d14a7f1,3,100,38,95,35,28,Male,797.3000000045,,"
  <table>
  <tr height=300>
    <td width=300 height=300><img src=""static/images/cards/back_of_black_moons.svg"" width=""175px"" height=""250px""></img></td>
    <td width=300 height=300><img src=""static/images/cards/back_of_black_moons.svg"" width=""175px"" height=""250px""></img></td>
  </tr>
  <tr height=200>
    <td width=300><img src=""static/images/keys/z.svg"" width=""35%"" height=""75%""></img></td>
    <td width=300><img src=""static/images/keys/m.svg"" width=""35%"" height=""75%""></img></td>
  </tr>
</table>
  ",90.0,1.0,,,,,,,,,,,,,,,,,,,,,,,,,,
28,0,,html-keyboard-response,28,784634,0.0-4.0-2.0,d7f3p7hitqi,2022-09-19 14:55:22.492,5f49f3262a3d07563d14a7f1,3,100,38,95,35,28,Male,,,"
  <table>
  <tr height=300>
    <td width=300 height=300><img src=""static/images/cards/1_of_black_moons.svg"" width=""175px"" height=""250px""></img></td>
    <td width=300 height=300><img src=""static/images/cards/back_of_black_moons.svg"" width=""175px"" height=""250px""></img></td>
  </tr>
  <tr height=200>
    <td width=300><img src=""static/images/keys/z.svg"" width=""35%"" height=""75%""></img></td>
    <td width=300><img src=""static/images/keys/m.svg"" width=""35%"" height=""75%""></img></td>
  </tr>
</table>
  ",,,,,,,,,,,,,,,,,,,,,,,,,,,,
29,0,,html-keyboard-response,29,786150,0.0-4.0-3.0,d7f3p7hitqi,2022-09-19 14:55:22.492,5f49f3262a3d07563d14a7f1,3,100,38,95,35,28,Male,,,"<p style=""font-size:50px"">You Lose!
No points this round.</p>",,,,,,,,,,,,,,,,,,,,,,,,,,,,
30,0,,html-keyboard-response,30,786663,0.0-4.0-4.0,d7f3p7hitqi,2022-09-19 14:55:22.492,5f49f3262a3d07563d14a7f1,3,100,38,95,35,28,Male,,,,,,1.0,learning,0.0,A,,black,,moons,,,,A,black,moons,,1.0,1.0,NA,left,797.3000000045,1.0,0.0,0.0,,,
31,0,,html-keyboard-response,31,788175,0.0-4.1-0.1,d7f3p7hitqi,2022-09-19 14:55:22.492,5f49f3262a3d07563d14a7f1,3,100,38,95,35,28,Male,,,"<img src=""static/images/cards/stack_of_red_moons.svg"" width=""175px"" height=""250px""></img>",,,,,,,,,,,,,,,,,,,,,,,,,,,,
32,0,,html-keyboard-response,32,789549,0.0-4.1-1.1,d7f3p7hitqi,2022-09-19 14:55:22.492,5f49f3262a3d07563d14a7f1,3,100,38,95,35,28,Male,862.6000000015,,"
  <table>
  <tr height=300>
    <td width=300 height=300><img src=""static/images/cards/back_of_red_moons.svg"" width=""175px"" height=""250px""></img></td>
    <td width=300 height=300><img src=""static/images/cards/back_of_red_moons.svg"" width=""175px"" height=""250px""></img></td>
  </tr>
  <tr height=200>
    <td width=300><img src=""static/images/keys/z.svg"" width=""35%"" height=""75%""></img></td>
    <td width=300></td>
  </tr>
</table>
  ",90.0,1.0,,,,,,,,,,,,,,,,,,,,,,,,,,
33,0,,html-keyboard-response,33,791055,0.0-4.1-2.1,d7f3p7hitqi,2022-09-19 14:55:22.492,5f49f3262a3d07563d14a7f1,3,100,38,95,35,28,Male,,,"
  <table>
  <tr height=300>
    <td width=300 height=300><img src=""static/images/cards/6_of_red_moons.svg"" width=""175px"" height=""250px""></img></td>
    <td width=300 height=300><img src=""static/images/cards/back_of_red_moons.svg"" width=""175px"" height=""250px""></img></td>
  </tr>
  <tr height=200>
    <td width=300><img src=""static/images/keys/z.svg"" width=""35%"" height=""75%""></img></td>
    <td width=300></td>
  </tr>
</table>
  ",,,,,,,,,,,,,,,,,,,,,,,,,,,,
34,0,,html-keyboard-response,34,792577,0.0-4.1-3.1,d7f3p7hitqi,2022-09-19 14:55:22.492,5f49f3262a3d07563d14a7f1,3,100,38,95,35,28,Male,,,"<p style=""font-size:50px"">You win!
+10 points this round!</p>",,,,,,,,,,,,,,,,,,,,,,,,,,,,
35,0,,html-keyboard-response,35,793093,0.0-4.1-4.1,d7f3p7hitqi,2022-09-19 14:55:22.492,5f49f3262a3d07563d14a7f1,3,100,38,95,35,28,Male,,,,,,1.0,learning,1.0,B,,red,,moons,,,,B,red,moons,,0.0,1.0,1,left,862.6000000015,6.0,1.0,1.0,,,
36,0,,html-keyboard-response,36,794604,0.0-4.2-0.2,d7f3p7hitqi,2022-09-19 14:55:22.492,5f49f3262a3d07563d14a7f1,3,100,38,95,35,28,Male,,,"<img src=""static/images/cards/stack_of_black_stars.svg"" width=""175px"" height=""250px""></img>",,,,,,,,,,,,,,,,,,,,,,,,,,,,
37,0,,html-keyboard-response,37,795938,0.0-4.2-1.2,d7f3p7hitqi,2022-09-19 14:55:22.492,5f49f3262a3d07563d14a7f1,3,100,38,95,35,28,Male,822.200000003,,"
  <table>
  <tr height=300>
    <td width=300 height=300><img src=""static/images/cards/back_of_black_stars.svg"" width=""175px"" height=""250px""></img></td>
    <td width=300 height=300><img src=""static/images/cards/back_of_black_stars.svg"" width=""175px"" height=""250px""></img></td>
  </tr>
  <tr height=200>
    <td width=300><img src=""static/images/keys/z.svg"" width=""35%"" height=""75%""></img></td>
    <td width=300><img src=""static/images/keys/m.svg"" width=""35%"" height=""75%""></img></td>
  </tr>
</table>
  ",77.0,1.0,,,,,,,,,,,,,,,,,,,,,,,,,,
38,0,,html-keyboard-response,38,797449,0.0-4.2-2.2,d7f3p7hitqi,2022-09-19 14:55:22.492,5f49f3262a3d07563d14a7f1,3,100,38,95,35,28,Male,,,"
  <table>
  <tr height=300>
    <td width=300 height=300><img src=""static/images/cards/back_of_black_stars.svg"" width=""175px"" height=""250px""></img></td>
    <td width=300 height=300><img src=""static/images/cards/9_of_black_stars.svg"" width=""175px"" height=""250px""></img></td>
  </tr>
  <tr height=200>
    <td width=300><img src=""static/images/keys/z.svg"" width=""35%"" height=""75%""></img></td>
    <td width=300><img src=""static/images/keys/m.svg"" width=""35%"" height=""75%""></img></td>
  </tr>
</table>
  ",,,,,,,,,,,,,,,,,,,,,,,,,,,,
39,0,,html-keyboard-response,39,798965,0.0-4.2-3.2,d7f3p7hitqi,2022-09-19 14:55:22.492,5f49f3262a3d07563d14a7f1,3,100,38,95,35,28,Male,,,"<p style=""font-size:50px"">You win!
+10 points this round!</p>",,,,,,,,,,,,,,,,,,,,,,,,,,,,
40,0,,html-keyboard-response,40,799477,0.0-4.2-4.2,d7f3p7hitqi,2022-09-19 14:55:22.492,5f49f3262a3d07563d14a7f1,3,100,38,95,35,28,Male,,,,,,1.0,learning,2.0,C,,black,,stars,,,,C,black,stars,,1.0,0.0,NA,right,822.200000003,9.0,1.0,1.0,,,
41,0,,html-keyboard-response,41,800991,0.0-4.3-0.3,d7f3p7hitqi,2022-09-19 14:55:22.492,5f49f3262a3d07563d14a7f1,3,100,38,95,35,28,Male,,,"<img src=""static/images/cards/stack_of_red_stars.svg"" width=""175px"" height=""250px""></img>",,,,,,,,,,,,,,,,,,,,,,,,,,,,
42,0,,html-keyboard-response,42,802396,0.0-4.3-1.3,d7f3p7hitqi,2022-09-19 14:55:22.492,5f49f3262a3d07563d14a7f1,3,100,38,95,35,28,Male,894.700000003,,"
  <table>
  <tr height=300>
    <td width=300 height=300><img src=""static/images/cards/back_of_red_stars.svg"" width=""175px"" height=""250px""></img></td>
    <td width=300 height=300><img src=""static/images/cards/back_of_red_stars.svg"" width=""175px"" height=""250px""></img></td>
  </tr>
  <tr height=200>
    <td width=300><img src=""static/images/keys/z.svg"" width=""35%"" height=""75%""></img></td>
    <td width=300></td>
  </tr>
</table>
  ",90.0,1.0,,,,,,,,,,,,,,,,,,,,,,,,,,
43,0,,html-keyboard-response,43,803910,0.0-4.3-2.3,d7f3p7hitqi,2022-09-19 14:55:22.492,5f49f3262a3d07563d14a7f1,3,100,38,95,35,28,Male,,,"
  <table>
  <tr height=300>
    <td width=300 height=300><img src=""static/images/cards/10_of_red_stars.svg"" width=""175px"" height=""250px""></img></td>
    <td width=300 height=300><img src=""static/images/cards/back_of_red_stars.svg"" width=""175px"" height=""250px""></img></td>
  </tr>
  <tr height=200>
    <td width=300><img src=""static/images/keys/z.svg"" width=""35%"" height=""75%""></img></td>
    <td width=300></td>
  </tr>
</table>
  ",,,,,,,,,,,,,,,,,,,,,,,,,,,,
44,0,,html-keyboard-response,44,805423,0.0-4.3-3.3,d7f3p7hitqi,2022-09-19 14:55:22.492,5f49f3262a3d07563d14a7f1,3,100,38,95,35,28,Male,,,"<p style=""font-size:50px"">You Lose!
No points this round.</p>",,,,,,,,,,,,,,,,,,,,,,,,,,,,
45,0,,html-keyboard-response,45,805939,0.0-4.3-4.3,d7f3p7hitqi,2022-09-19 14:55:22.492,5f49f3262a3d07563d14a7f1,3,100,38,95,35,28,Male,,,,,,1.0,learning,3.0,D,,red,,stars,,,,D,red,stars,,0.0,0.0,1,left,894.700000003,10.0,1.0,0.0,,,
46,0,,html-keyboard-response,46,807449,0.0-4.4-0.4,d7f3p7hitqi,2022-09-19 14:55:22.492,5f49f3262a3d07563d14a7f1,3,100,38,95,35,28,Male,,,"<img src=""static/images/cards/stack_of_red_bolts.svg"" width=""175px"" height=""250px""></img>",,,,,,,,,,,,,,,,,,,,,,,,,,,,
47,0,,html-keyboard-response,47,808500,0.0-4.4-1.4,d7f3p7hitqi,2022-09-19 14:55:22.492,5f49f3262a3d07563d14a7f1,3,100,38,95,35,28,Male,538.299999997,,"
  <table>
  <tr height=300>
    <td width=300 height=300><img src=""static/images/cards/back_of_red_bolts.svg"" width=""175px"" height=""250px""></img></td>
    <td width=300 height=300><img src=""static/images/cards/back_of_red_bolts.svg"" width=""175px"" height=""250px""></img></td>
  </tr>
  <tr height=200>
    <td width=300><img src=""static/images/keys/z.svg"" width=""35%"" height=""75%""></img></td>
    <td width=300><img src=""static/images/keys/m.svg"" width=""35%"" height=""75%""></img></td>
  </tr>
</table>
  ",77.0,1.0,,,,,,,,,,,,,,,,,,,,,,,,,,
48,0,,html-keyboard-response,48,810014,0.0-4.4-2.4,d7f3p7hitqi,2022-09-19 14:55:22.492,5f49f3262a3d07563d14a7f1,3,100,38,95,35,28,Male,,,"
  <table>
  <tr height=300>
    <td width=300 height=300><img src=""static/images/cards/back_of_red_bolts.svg"" width=""175px"" height=""250px""></img></td>
    <td width=300 height=300><img src=""static/images/cards/7_of_red_bolts.svg"" width=""175px"" height=""250px""></img></td>
  </tr>
  <tr height=200>
    <td width=300><img src=""static/images/keys/z.svg"" width=""35%"" height=""75%""></img></td>
    <td width=300><img src=""static/images/keys/m.svg"" width=""35%"" height=""75%""></img></td>
  </tr>
</table>
  ",,,,,,,,,,,,,,,,,,,,,,,,,,,,
49,0,,html-keyboard-response,49,811532,0.0-4.4-3.4,d7f3p7hitqi,2022-09-19 14:55:22.492,5f49f3262a3d07563d14a7f1,3,100,38,95,35,28,Male,,,"<p style=""font-size:50px"">You win!
+10 points this round!</p>",,,,,,,,,,,,,,,,,,,,,,,,,,,,
50,0,,html-keyboard-response,50,812047,0.0-4.4-4.4,d7f3p7hitqi,2022-09-19 14:55:22.492,5f49f3262a3d07563d14a7f1,3,100,38,95,35,28,Male,,,,,,1.0,learning,4.0,Xc,,red,,bolts,,,,Xc,red,bolts,,1.0,0.0,NA,right,538.299999997,7.0,1.0,1.0,,,
51,0,,html-keyboard-response,51,813550,0.0-4.5-0.5,d7f3p7hitqi,2022-09-19 14:55:22.492,5f49f3262a3d07563d14a7f1,3,100,38,95,35,28,Male,,,"<img src=""static/images/cards/stack_of_black_bolts.svg"" width=""175px"" height=""250px""></img>",,,,,,,,,,,,,,,,,,,,,,,,,,,,
52,0,,html-keyboard-response,52,814504,0.0-4.5-1.5,d7f3p7hitqi,2022-09-19 14:55:22.492,5f49f3262a3d07563d14a7f1,3,100,38,95,35,28,Male,443.200000003,,"
  <table>
  <tr height=300>
    <td width=300 height=300><img src=""static/images/cards/back_of_black_bolts.svg"" width=""175px"" height=""250px""></img></td>
    <td width=300 height=300><img src=""static/images/cards/back_of_black_bolts.svg"" width=""175px"" height=""250px""></img></td>
  </tr>
  <tr height=200>
    <td width=300><img src=""static/images/keys/z.svg"" width=""35%"" height=""75%""></img></td>
    <td width=300></td>
  </tr>
</table>
  ",90.0,1.0,,,,,,,,,,,,,,,,,,,,,,,,,,
53,0,,html-keyboard-response,53,816008,0.0-4.5-2.5,d7f3p7hitqi,2022-09-19 14:55:22.492,5f49f3262a3d07563d14a7f1,3,100,38,95,35,28,Male,,,"
  <table>
  <tr height=300>
    <td width=300 height=300><img src=""static/images/cards/4_of_black_bolts.svg"" width=""175px"" height=""250px""></img></td>
    <td width=300 height=300><img src=""static/images/cards/back_of_black_bolts.svg"" width=""175px"" height=""250px""></img></td>
  </tr>
  <tr height=200>
    <td width=300><img src=""static/images/keys/z.svg"" width=""35%"" height=""75%""></img></td>
    <td width=300></td>
  </tr>
</table>
  ",,,,,,,,,,,,,,,,,,,,,,,,,,,,
54,0,,html-keyboard-response,54,817518,0.0-4.5-3.5,d7f3p7hitqi,2022-09-19 14:55:22.492,5f49f3262a3d07563d14a7f1,3,100,38,95,35,28,Male,,,"<p style=""font-size:50px"">You win!
+10 points this round!</p>",,,,,,,,,,,,,,,,,,,,,,,,,,,,
55,0,,html-keyboard-response,55,818036,0.0-4.5-4.5,d7f3p7hitqi,2022-09-19 14:55:22.492,5f49f3262a3d07563d14a7f1,3,100,38,95,35,28,Male,,,,,,1.0,learning,5.0,Xnc,,black,,bolts,,,,Xnc,black,bolts,,0.0,0.0,1,left,443.200000003,4.0,0.0,1.0,,,
56,0,,html-keyboard-response,56,819543,0.0-4.6-0.6,d7f3p7hitqi,2022-09-19 14:55:22.492,5f49f3262a3d07563d14a7f1,3,100,38,95,35,28,Male,,,"<img src=""static/images/cards/stack_of_black_moons.svg"" width=""175px"" height=""250px""></img>",,,,,,,,,,,,,,,,,,,,,,,,,,,,
57,0,,html-keyboard-response,57,821146,0.0-4.6-1.6,d7f3p7hitqi,2022-09-19 14:55:22.492,5f49f3262a3d07563d14a7f1,3,100,38,95,35,28,Male,1092.700000003,,"
  <table>
  <tr height=300>
    <td width=300 height=300><img src=""static/images/cards/back_of_black_moons.svg"" width=""175px"" height=""250px""></img></td>
    <td width=300 height=300><img src=""static/images/cards/back_of_black_moons.svg"" width=""175px"" height=""250px""></img></td>
  </tr>
  <tr height=200>
    <td width=300><img src=""static/images/keys/z.svg"" width=""35%"" height=""75%""></img></td>
    <td width=300><img src=""static/images/keys/m.svg"" width=""35%"" height=""75%""></img></td>
  </tr>
</table>
  ",77.0,1.0,,,,,,,,,,,,,,,,,,,,,,,,,,
58,0,,html-keyboard-response,58,822656,0.0-4.6-2.6,d7f3p7hitqi,2022-09-19 14:55:22.492,5f49f3262a3d07563d14a7f1,3,100,38,95,35,28,Male,,,"
  <table>
  <tr height=300>
    <td width=300 height=300><img src=""static/images/cards/back_of_black_moons.svg"" width=""175px"" height=""250px""></img></td>
    <td width=300 height=300><img src=""static/images/cards/4_of_black_moons.svg"" width=""175px"" height=""250px""></img></td>
  </tr>
  <tr height=200>
    <td width=300><img src=""static/images/keys/z.svg"" width=""35%"" height=""75%""></img></td>
    <td width=300><img src=""static/images/keys/m.svg"" width=""35%"" height=""75%""></img></td>
  </tr>
</table>
  ",,,,,,,,,,,,,,,,,,,,,,,,,,,,
59,0,,html-keyboard-response,59,824174,0.0-4.6-3.6,d7f3p7hitqi,2022-09-19 14:55:22.492,5f49f3262a3d07563d14a7f1,3,100,38,95,35,28,Male,,,"<p style=""font-size:50px"">You Lose!
No points this round.</p>",,,,,,,,,,,,,,,,,,,,,,,,,,,,
60,0,,html-keyboard-response,60,824690,0.0-4.6-4.6,d7f3p7hitqi,2022-09-19 14:55:22.492,5f49f3262a3d07563d14a7f1,3,100,38,95,35,28,Male,,,,,,1.0,learning,6.0,A,,black,,moons,,,,A,black,moons,,1.0,1.0,NA,right,1092.700000003,4.0,0.0,0.0,,,
61,0,,html-keyboard-response,61,826198,0.0-4.7-0.7,d7f3p7hitqi,2022-09-19 14:55:22.492,5f49f3262a3d07563d14a7f1,3,100,38,95,35,28,Male,,,"<img src=""static/images/cards/stack_of_red_moons.svg"" width=""175px"" height=""250px""></img>",,,,,,,,,,,,,,,,,,,,,,,,,,,,
62,0,,html-keyboard-response,62,827418,0.0-4.7-1.7,d7f3p7hitqi,2022-09-19 14:55:22.492,5f49f3262a3d07563d14a7f1,3,100,38,95,35,28,Male,707.3000000045,,"
  <table>
  <tr height=300>
    <td width=300 height=300><img src=""static/images/cards/back_of_red_moons.svg"" width=""175px"" height=""250px""></img></td>
    <td width=300 height=300><img src=""static/images/cards/back_of_red_moons.svg"" width=""175px"" height=""250px""></img></td>
  </tr>
  <tr height=200>
    <td width=300></td>
    <td width=300><img src=""static/images/keys/m.svg"" width=""35%"" height=""75%""></img></td>
  </tr>
</table>
  ",77.0,1.0,,,,,,,,,,,,,,,,,,,,,,,,,,
63,0,,html-keyboard-response,63,828931,0.0-4.7-2.7,d7f3p7hitqi,2022-09-19 14:55:22.492,5f49f3262a3d07563d14a7f1,3,100,38,95,35,28,Male,,,"
  <table>
  <tr height=300>
    <td width=300 height=300><img src=""static/images/cards/back_of_red_moons.svg"" width=""175px"" height=""250px""></img></td>
    <td width=300 height=300><img src=""static/images/cards/4_of_red_moons.svg"" width=""175px"" height=""250px""></img></td>
  </tr>
  <tr height=200>
    <td width=300></td>
    <td width=300><img src=""static/images/keys/m.svg"" width=""35%"" height=""75%""></img></td>
  </tr>
</table>
  ",,,,,,,,,,,,,,,,,,,,,,,,,,,,
64,0,,html-keyboard-response,64,830446,0.0-4.7-3.7,d7f3p7hitqi,2022-09-19 14:55:22.492,5f49f3262a3d07563d14a7f1,3,100,38,95,35,28,Male,,,"<p style=""font-size:50px"">You Lose!
No points this round.</p>",,,,,,,,,,,,,,,,,,,,,,,,,,,,
65,0,,html-keyboard-response,65,830957,0.0-4.7-4.7,d7f3p7hitqi,2022-09-19 14:55:22.492,5f49f3262a3d07563d14a7f1,3,100,38,95,35,28,Male,,,,,,1.0,learning,7.0,B,,red,,moons,,,,B,red,moons,,0.0,1.0,0,right,707.3000000045,4.0,0.0,0.0,,,
66,0,,html-keyboard-response,66,832465,0.0-4.8-0.8,d7f3p7hitqi,2022-09-19 14:55:22.492,5f49f3262a3d07563d14a7f1,3,100,38,95,35,28,Male,,,"<img src=""static/images/cards/stack_of_black_stars.svg"" width=""175px"" height=""250px""></img>",,,,,,,,,,,,,,,,,,,,,,,,,,,,
67,0,,html-keyboard-response,67,833969,0.0-4.8-1.8,d7f3p7hitqi,2022-09-19 14:55:22.492,5f49f3262a3d07563d14a7f1,3,100,38,95,35,28,Male,991.5,,"
  <table>
  <tr height=300>
    <td width=300 height=300><img src=""static/images/cards/back_of_black_stars.svg"" width=""175px"" height=""250px""></img></td>
    <td width=300 height=300><img src=""static/images/cards/back_of_black_stars.svg"" width=""175px"" height=""250px""></img></td>
  </tr>
  <tr height=200>
    <td width=300><img src=""static/images/keys/z.svg"" width=""35%"" height=""75%""></img></td>
    <td width=300><img src=""static/images/keys/m.svg"" width=""35%"" height=""75%""></img></td>
  </tr>
</table>
  ",90.0,1.0,,,,,,,,,,,,,,,,,,,,,,,,,,
68,0,,html-keyboard-response,68,835485,0.0-4.8-2.8,d7f3p7hitqi,2022-09-19 14:55:22.492,5f49f3262a3d07563d14a7f1,3,100,38,95,35,28,Male,,,"
  <table>
  <tr height=300>
    <td width=300 height=300><img src=""static/images/cards/4_of_black_stars.svg"" width=""175px"" height=""250px""></img></td>
    <td width=300 height=300><img src=""static/images/cards/back_of_black_stars.svg"" width=""175px"" height=""250px""></img></td>
  </tr>
  <tr height=200>
    <td width=300><img src=""static/images/keys/z.svg"" width=""35%"" height=""75%""></img></td>
    <td width=300><img src=""static/images/keys/m.svg"" width=""35%"" height=""75%""></img></td>
  </tr>
</table>
  ",,,,,,,,,,,,,,,,,,,,,,,,,,,,
69,0,,html-keyboard-response,69,836999,0.0-4.8-3.8,d7f3p7hitqi,2022-09-19 14:55:22.492,5f49f3262a3d07563d14a7f1,3,100,38,95,35,28,Male,,,"<p style=""font-size:50px"">You win!
+10 points this round!</p>",,,,,,,,,,,,,,,,,,,,,,,,,,,,
70,0,,html-keyboard-response,70,837514,0.0-4.8-4.8,d7f3p7hitqi,2022-09-19 14:55:22.492,5f49f3262a3d07563d14a7f1,3,100,38,95,35,28,Male,,,,,,1.0,learning,8.0,C,,black,,stars,,,,C,black,stars,,1.0,0.0,NA,left,991.5,4.0,0.0,1.0,,,
71,0,,html-keyboard-response,71,839016,0.0-4.9-0.9,d7f3p7hitqi,2022-09-19 14:55:22.492,5f49f3262a3d07563d14a7f1,3,100,38,95,35,28,Male,,,"<img src=""static/images/cards/stack_of_red_stars.svg"" width=""175px"" height=""250px""></img>",,,,,,,,,,,,,,,,,,,,,,,,,,,,
72,0,,html-keyboard-response,72,840134,0.0-4.9-1.9,d7f3p7hitqi,2022-09-19 14:55:22.492,5f49f3262a3d07563d14a7f1,3,100,38,95,35,28,Male,609.200000003,,"
  <table>
  <tr height=300>
    <td width=300 height=300><img src=""static/images/cards/back_of_red_stars.svg"" width=""175px"" height=""250px""></img></td>
    <td width=300 height=300><img src=""static/images/cards/back_of_red_stars.svg"" width=""175px"" height=""250px""></img></td>
  </tr>
  <tr height=200>
    <td width=300></td>
    <td width=300><img src=""static/images/keys/m.svg"" width=""35%"" height=""75%""></img></td>
  </tr>
</table>
  ",77.0,1.0,,,,,,,,,,,,,,,,,,,,,,,,,,
73,0,,html-keyboard-response,73,841648,0.0-4.9-2.9,d7f3p7hitqi,2022-09-19 14:55:22.492,5f49f3262a3d07563d14a7f1,3,100,38,95,35,28,Male,,,"
  <table>
  <tr height=300>
    <td width=300 height=300><img src=""static/images/cards/back_of_red_stars.svg"" width=""175px"" height=""250px""></img></td>
    <td width=300 height=300><img src=""static/images/cards/2_of_red_stars.svg"" width=""175px"" height=""250px""></img></td>
  </tr>
  <tr height=200>
    <td width=300></td>
    <td width=300><img src=""static/images/keys/m.svg"" width=""35%"" height=""75%""></img></td>
  </tr>
</table>
  ",,,,,,,,,,,,,,,,,,,,,,,,,,,,
74,0,,html-keyboard-response,74,843174,0.0-4.9-3.9,d7f3p7hitqi,2022-09-19 14:55:22.492,5f49f3262a3d07563d14a7f1,3,100,38,95,35,28,Male,,,"<p style=""font-size:50px"">You win!
+10 points this round!</p>",,,,,,,,,,,,,,,,,,,,,,,,,,,,
75,0,,html-keyboard-response,75,843689,0.0-4.9-4.9,d7f3p7hitqi,2022-09-19 14:55:22.492,5f49f3262a3d07563d14a7f1,3,100,38,95,35,28,Male,,,,,,1.0,learning,9.0,D,,red,,stars,,,,D,red,stars,,0.0,0.0,0,right,609.200000003,2.0,0.0,1.0,,,
76,0,,html-keyboard-response,76,845199,0.0-4.10-0.10,d7f3p7hitqi,2022-09-19 14:55:22.492,5f49f3262a3d07563d14a7f1,3,100,38,95,35,28,Male,,,"<img src=""static/images/cards/stack_of_red_bolts.svg"" width=""175px"" height=""250px""></img>",,,,,,,,,,,,,,,,,,,,,,,,,,,,
77,0,,html-keyboard-response,77,846434,0.0-4.10-1.10,d7f3p7hitqi,2022-09-19 14:55:22.492,5f49f3262a3d07563d14a7f1,3,100,38,95,35,28,Male,724.0,,"
  <table>
  <tr height=300>
    <td width=300 height=300><img src=""static/images/cards/back_of_red_bolts.svg"" width=""175px"" height=""250px""></img></td>
    <td width=300 height=300><img src=""static/images/cards/back_of_red_bolts.svg"" width=""175px"" height=""250px""></img></td>
  </tr>
  <tr height=200>
    <td width=300><img src=""static/images/keys/z.svg"" width=""35%"" height=""75%""></img></td>
    <td width=300><img src=""static/images/keys/m.svg"" width=""35%"" height=""75%""></img></td>
  </tr>
</table>
  ",77.0,1.0,,,,,,,,,,,,,,,,,,,,,,,,,,
78,0,,html-keyboard-response,78,847946,0.0-4.10-2.10,d7f3p7hitqi,2022-09-19 14:55:22.492,5f49f3262a3d07563d14a7f1,3,100,38,95,35,28,Male,,,"
  <table>
  <tr height=300>
    <td width=300 height=300><img src=""static/images/cards/back_of_red_bolts.svg"" width=""175px"" height=""250px""></img></td>
    <td width=300 height=300><img src=""static/images/cards/7_of_red_bolts.svg"" width=""175px"" height=""250px""></img></td>
  </tr>
  <tr height=200>
    <td width=300><img src=""static/images/keys/z.svg"" width=""35%"" height=""75%""></img></td>
    <td width=300><img src=""static/images/keys/m.svg"" width=""35%"" height=""75%""></img></td>
  </tr>
</table>
  ",,,,,,,,,,,,,,,,,,,,,,,,,,,,
79,0,,html-keyboard-response,79,849465,0.0-4.10-3.10,d7f3p7hitqi,2022-09-19 14:55:22.492,5f49f3262a3d07563d14a7f1,3,100,38,95,35,28,Male,,,"<p style=""font-size:50px"">You win!
+10 points this round!</p>",,,,,,,,,,,,,,,,,,,,,,,,,,,,
80,0,,html-keyboard-response,80,849979,0.0-4.10-4.10,d7f3p7hitqi,2022-09-19 14:55:22.492,5f49f3262a3d07563d14a7f1,3,100,38,95,35,28,Male,,,,,,1.0,learning,10.0,Xc,,red,,bolts,,,,Xc,red,bolts,,1.0,0.0,NA,right,724.0,7.0,1.0,1.0,,,
81,0,,html-keyboard-response,81,851490,0.0-4.11-0.11,d7f3p7hitqi,2022-09-19 14:55:22.492,5f49f3262a3d07563d14a7f1,3,100,38,95,35,28,Male,,,"<img src=""static/images/cards/stack_of_black_bolts.svg"" width=""175px"" height=""250px""></img>",,,,,,,,,,,,,,,,,,,,,,,,,,,,
82,0,,html-keyboard-response,82,852450,0.0-4.11-1.11,d7f3p7hitqi,2022-09-19 14:55:22.492,5f49f3262a3d07563d14a7f1,3,100,38,95,35,28,Male,449.3999999985,,"
  <table>
  <tr height=300>
    <td width=300 height=300><img src=""static/images/cards/back_of_black_bolts.svg"" width=""175px"" height=""250px""></img></td>
    <td width=300 height=300><img src=""static/images/cards/back_of_black_bolts.svg"" width=""175px"" height=""250px""></img></td>
  </tr>
  <tr height=200>
    <td width=300><img src=""static/images/keys/z.svg"" width=""35%"" height=""75%""></img></td>
    <td width=300></td>
  </tr>
</table>
  ",90.0,1.0,,,,,,,,,,,,,,,,,,,,,,,,,,
83,0,,html-keyboard-response,83,853957,0.0-4.11-2.11,d7f3p7hitqi,2022-09-19 14:55:22.492,5f49f3262a3d07563d14a7f1,3,100,38,95,35,28,Male,,,"
  <table>
  <tr height=300>
    <td width=300 height=300><img src=""static/images/cards/10_of_black_bolts.svg"" width=""175px"" height=""250px""></img></td>
    <td width=300 height=300><img src=""static/images/cards/back_of_black_bolts.svg"" width=""175px"" height=""250px""></img></td>
  </tr>
  <tr height=200>
    <td width=300><img src=""static/images/keys/z.svg"" width=""35%"" height=""75%""></img></td>
    <td width=300></td>
  </tr>
</table>
  ",,,,,,,,,,,,,,,,,,,,,,,,,,,,
84,0,,html-keyboard-response,84,855475,0.0-4.11-3.11,d7f3p7hitqi,2022-09-19 14:55:22.492,5f49f3262a3d07563d14a7f1,3,100,38,95,35,28,Male,,,"<p style=""font-size:50px"">You win!
+10 points this round!</p>",,,,,,,,,,,,,,,,,,,,,,,,,,,,
85,0,,html-keyboard-response,85,855992,0.0-4.11-4.11,d7f3p7hitqi,2022-09-19 14:55:22.492,5f49f3262a3d07563d14a7f1,3,100,38,95,35,28,Male,,,,,,1.0,learning,11.0,Xnc,,black,,bolts,,,,Xnc,black,bolts,,0.0,0.0,1,left,449.3999999985,10.0,1.0,1.0,,,
86,0,,html-keyboard-response,86,857503,0.0-4.12-0.12,d7f3p7hitqi,2022-09-19 14:55:22.492,5f49f3262a3d07563d14a7f1,3,100,38,95,35,28,Male,,,"<img src=""static/images/cards/stack_of_black_moons.svg"" width=""175px"" height=""250px""></img>",,,,,,,,,,,,,,,,,,,,,,,,,,,,
87,0,,html-keyboard-response,87,858789,0.0-4.12-1.12,d7f3p7hitqi,2022-09-19 14:55:22.492,5f49f3262a3d07563d14a7f1,3,100,38,95,35,28,Male,775.0,,"
  <table>
  <tr height=300>
    <td width=300 height=300><img src=""static/images/cards/back_of_black_moons.svg"" width=""175px"" height=""250px""></img></td>
    <td width=300 height=300><img src=""static/images/cards/back_of_black_moons.svg"" width=""175px"" height=""250px""></img></td>
  </tr>
  <tr height=200>
    <td width=300><img src=""static/images/keys/z.svg"" width=""35%"" height=""75%""></img></td>
    <td width=300><img src=""static/images/keys/m.svg"" width=""35%"" height=""75%""></img></td>
  </tr>
</table>
  ",77.0,1.0,,,,,,,,,,,,,,,,,,,,,,,,,,
88,0,,html-keyboard-response,88,860293,0.0-4.12-2.12,d7f3p7hitqi,2022-09-19 14:55:22.492,5f49f3262a3d07563d14a7f1,3,100,38,95,35,28,Male,,,"
  <table>
  <tr height=300>
    <td width=300 height=300><img src=""static/images/cards/back_of_black_moons.svg"" width=""175px"" height=""250px""></img></td>
    <td width=300 height=300><img src=""static/images/cards/7_of_black_moons.svg"" width=""175px"" height=""250px""></img></td>
  </tr>
  <tr height=200>
    <td width=300><img src=""static/images/keys/z.svg"" width=""35%"" height=""75%""></img></td>
    <td width=300><img src=""static/images/keys/m.svg"" width=""35%"" height=""75%""></img></td>
  </tr>
</table>
  ",,,,,,,,,,,,,,,,,,,,,,,,,,,,
89,0,,html-keyboard-response,89,861811,0.0-4.12-3.12,d7f3p7hitqi,2022-09-19 14:55:22.492,5f49f3262a3d07563d14a7f1,3,100,38,95,35,28,Male,,,"<p style=""font-size:50px"">You win!
+10 points this round!</p>",,,,,,,,,,,,,,,,,,,,,,,,,,,,
90,0,,html-keyboard-response,90,862328,0.0-4.12-4.12,d7f3p7hitqi,2022-09-19 14:55:22.492,5f49f3262a3d07563d14a7f1,3,100,38,95,35,28,Male,,,,,,1.0,learning,12.0,A,,black,,moons,,,,A,black,moons,,1.0,1.0,NA,right,775.0,7.0,1.0,1.0,,,
91,0,,html-keyboard-response,91,863838,0.0-4.13-0.13,d7f3p7hitqi,2022-09-19 14:55:22.492,5f49f3262a3d07563d14a7f1,3,100,38,95,35,28,Male,,,"<img src=""static/images/cards/stack_of_red_moons.svg"" width=""175px"" height=""250px""></img>",,,,,,,,,,,,,,,,,,,,,,,,,,,,
92,0,,html-keyboard-response,92,865106,0.0-4.13-1.13,d7f3p7hitqi,2022-09-19 14:55:22.492,5f49f3262a3d07563d14a7f1,3,100,38,95,35,28,Male,759.0,,"
  <table>
  <tr height=300>
    <td width=300 height=300><img src=""static/images/cards/back_of_red_moons.svg"" width=""175px"" height=""250px""></img></td>
    <td width=300 height=300><img src=""static/images/cards/back_of_red_moons.svg"" width=""175px"" height=""250px""></img></td>
  </tr>
  <tr height=200>
    <td width=300><img src=""static/images/keys/z.svg"" width=""35%"" height=""75%""></img></td>
    <td width=300></td>
  </tr>
</table>
  ",90.0,1.0,,,,,,,,,,,,,,,,,,,,,,,,,,
93,0,,html-keyboard-response,93,866612,0.0-4.13-2.13,d7f3p7hitqi,2022-09-19 14:55:22.492,5f49f3262a3d07563d14a7f1,3,100,38,95,35,28,Male,,,"
  <table>
  <tr height=300>
    <td width=300 height=300><img src=""static/images/cards/2_of_red_moons.svg"" width=""175px"" height=""250px""></img></td>
    <td width=300 height=300><img src=""static/images/cards/back_of_red_moons.svg"" width=""175px"" height=""250px""></img></td>
  </tr>
  <tr height=200>
    <td width=300><img src=""static/images/keys/z.svg"" width=""35%"" height=""75%""></img></td>
    <td width=300></td>
  </tr>
</table>
  ",,,,,,,,,,,,,,,,,,,,,,,,,,,,
94,0,,html-keyboard-response,94,868131,0.0-4.13-3.13,d7f3p7hitqi,2022-09-19 14:55:22.492,5f49f3262a3d07563d14a7f1,3,100,38,95,35,28,Male,,,"<p style=""font-size:50px"">You Lose!
No points this round.</p>",,,,,,,,,,,,,,,,,,,,,,,,,,,,
95,0,,html-keyboard-response,95,868646,0.0-4.13-4.13,d7f3p7hitqi,2022-09-19 14:55:22.492,5f49f3262a3d07563d14a7f1,3,100,38,95,35,28,Male,,,,,,1.0,learning,13.0,B,,red,,moons,,,,B,red,moons,,0.0,1.0,1,left,759.0,2.0,0.0,0.0,,,
96,0,,html-keyboard-response,96,870156,0.0-4.14-0.14,d7f3p7hitqi,2022-09-19 14:55:22.492,5f49f3262a3d07563d14a7f1,3,100,38,95,35,28,Male,,,"<img src=""static/images/cards/stack_of_black_stars.svg"" width=""175px"" height=""250px""></img>",,,,,,,,,,,,,,,,,,,,,,,,,,,,
97,0,,html-keyboard-response,97,871556,0.0-4.14-1.14,d7f3p7hitqi,2022-09-19 14:55:22.492,5f49f3262a3d07563d14a7f1,3,100,38,95,35,28,Male,888.0,,"
  <table>
  <tr height=300>
    <td width=300 height=300><img src=""static/images/cards/back_of_black_stars.svg"" width=""175px"" height=""250px""></img></td>
    <td width=300 height=300><img src=""static/images/cards/back_of_black_stars.svg"" width=""175px"" height=""250px""></img></td>
  </tr>
  <tr height=200>
    <td width=300><img src=""static/images/keys/z.svg"" width=""35%"" height=""75%""></img></td>
    <td width=300><img src=""static/images/keys/m.svg"" width=""35%"" height=""75%""></img></td>
  </tr>
</table>
  ",77.0,1.0,,,,,,,,,,,,,,,,,,,,,,,,,,
98,0,,html-keyboard-response,98,873068,0.0-4.14-2.14,d7f3p7hitqi,2022-09-19 14:55:22.492,5f49f3262a3d07563d14a7f1,3,100,38,95,35,28,Male,,,"
  <table>
  <tr height=300>
    <td width=300 height=300><img src=""static/images/cards/back_of_black_stars.svg"" width=""175px"" height=""250px""></img></td>
    <td width=300 height=300><img src=""static/images/cards/7_of_black_stars.svg"" width=""175px"" height=""250px""></img></td>
  </tr>
  <tr height=200>
    <td width=300><img src=""static/images/keys/z.svg"" width=""35%"" height=""75%""></img></td>
    <td width=300><img src=""static/images/keys/m.svg"" width=""35%"" height=""75%""></img></td>
  </tr>
</table>
  ",,,,,,,,,,,,,,,,,,,,,,,,,,,,
99,0,,html-keyboard-response,99,874583,0.0-4.14-3.14,d7f3p7hitqi,2022-09-19 14:55:22.492,5f49f3262a3d07563d14a7f1,3,100,38,95,35,28,Male,,,"<p style=""font-size:50px"">You Lose!
No points this round.</p>",,,,,,,,,,,,,,,,,,,,,,,,,,,,
100,0,,html-keyboard-response,100,875099,0.0-4.14-4.14,d7f3p7hitqi,2022-09-19 14:55:22.492,5f49f3262a3d07563d14a7f1,3,100,38,95,35,28,Male,,,,,,1.0,learning,14.0,C,,black,,stars,,,,C,black,stars,,1.0,0.0,NA,right,888.0,7.0,1.0,0.0,,,
101,0,,html-keyboard-response,101,876608,0.0-4.15-0.15,d7f3p7hitqi,2022-09-19 14:55:22.492,5f49f3262a3d07563d14a7f1,3,100,38,95,35,28,Male,,,"<img src=""static/images/cards/stack_of_red_stars.svg"" width=""175px"" height=""250px""></img>",,,,,,,,,,,,,,,,,,,,,,,,,,,,
102,0,,html-keyboard-response,102,877701,0.0-4.15-1.15,d7f3p7hitqi,2022-09-19 14:55:22.492,5f49f3262a3d07563d14a7f1,3,100,38,95,35,28,Male,581.700000003,,"
  <table>
  <tr height=300>
    <td width=300 height=300><img src=""static/images/cards/back_of_red_stars.svg"" width=""175px"" height=""250px""></img></td>
    <td width=300 height=300><img src=""static/images/cards/back_of_red_stars.svg"" width=""175px"" height=""250px""></img></td>
  </tr>
  <tr height=200>
    <td width=300><img src=""static/images/keys/z.svg"" width=""35%"" height=""75%""></img></td>
    <td width=300></td>
  </tr>
</table>
  ",90.0,1.0,,,,,,,,,,,,,,,,,,,,,,,,,,
103,0,,html-keyboard-response,103,879207,0.0-4.15-2.15,d7f3p7hitqi,2022-09-19 14:55:22.492,5f49f3262a3d07563d14a7f1,3,100,38,95,35,28,Male,,,"
  <table>
  <tr height=300>
    <td width=300 height=300><img src=""static/images/cards/7_of_red_stars.svg"" width=""175px"" height=""250px""></img></td>
    <td width=300 height=300><img src=""static/images/cards/back_of_red_stars.svg"" width=""175px"" height=""250px""></img></td>
  </tr>
  <tr height=200>
    <td width=300><img src=""static/images/keys/z.svg"" width=""35%"" height=""75%""></img></td>
    <td width=300></td>
  </tr>
</table>
  ",,,,,,,,,,,,,,,,,,,,,,,,,,,,
104,0,,html-keyboard-response,104,880725,0.0-4.15-3.15,d7f3p7hitqi,2022-09-19 14:55:22.492,5f49f3262a3d07563d14a7f1,3,100,38,95,35,28,Male,,,"<p style=""font-size:50px"">You win!
+10 points this round!</p>",,,,,,,,,,,,,,,,,,,,,,,,,,,,
105,0,,html-keyboard-response,105,881242,0.0-4.15-4.15,d7f3p7hitqi,2022-09-19 14:55:22.492,5f49f3262a3d07563d14a7f1,3,100,38,95,35,28,Male,,,,,,1.0,learning,15.0,D,,red,,stars,,,,D,red,stars,,0.0,0.0,1,left,581.700000003,7.0,1.0,1.0,,,
106,0,,html-keyboard-response,106,882752,0.0-4.16-0.16,d7f3p7hitqi,2022-09-19 14:55:22.492,5f49f3262a3d07563d14a7f1,3,100,38,95,35,28,Male,,,"<img src=""static/images/cards/stack_of_red_bolts.svg"" width=""175px"" height=""250px""></img>",,,,,,,,,,,,,,,,,,,,,,,,,,,,
107,0,,html-keyboard-response,107,883774,0.0-4.16-1.16,d7f3p7hitqi,2022-09-19 14:55:22.492,5f49f3262a3d07563d14a7f1,3,100,38,95,35,28,Male,511.700000003,,"
  <table>
  <tr height=300>
    <td width=300 height=300><img src=""static/images/cards/back_of_red_bolts.svg"" width=""175px"" height=""250px""></img></td>
    <td width=300 height=300><img src=""static/images/cards/back_of_red_bolts.svg"" width=""175px"" height=""250px""></img></td>
  </tr>
  <tr height=200>
    <td width=300><img src=""static/images/keys/z.svg"" width=""35%"" height=""75%""></img></td>
    <td width=300><img src=""static/images/keys/m.svg"" width=""35%"" height=""75%""></img></td>
  </tr>
</table>
  ",77.0,1.0,,,,,,,,,,,,,,,,,,,,,,,,,,
108,0,,html-keyboard-response,108,885285,0.0-4.16-2.16,d7f3p7hitqi,2022-09-19 14:55:22.492,5f49f3262a3d07563d14a7f1,3,100,38,95,35,28,Male,,,"
  <table>
  <tr height=300>
    <td width=300 height=300><img src=""static/images/cards/back_of_red_bolts.svg"" width=""175px"" height=""250px""></img></td>
    <td width=300 height=300><img src=""static/images/cards/2_of_red_bolts.svg"" width=""175px"" height=""250px""></img></td>
  </tr>
  <tr height=200>
    <td width=300><img src=""static/images/keys/z.svg"" width=""35%"" height=""75%""></img></td>
    <td width=300><img src=""static/images/keys/m.svg"" width=""35%"" height=""75%""></img></td>
  </tr>
</table>
  ",,,,,,,,,,,,,,,,,,,,,,,,,,,,
109,0,,html-keyboard-response,109,886798,0.0-4.16-3.16,d7f3p7hitqi,2022-09-19 14:55:22.492,5f49f3262a3d07563d14a7f1,3,100,38,95,35,28,Male,,,"<p style=""font-size:50px"">You win!
+10 points this round!</p>",,,,,,,,,,,,,,,,,,,,,,,,,,,,
110,0,,html-keyboard-response,110,887315,0.0-4.16-4.16,d7f3p7hitqi,2022-09-19 14:55:22.492,5f49f3262a3d07563d14a7f1,3,100,38,95,35,28,Male,,,,,,1.0,learning,16.0,Xc,,red,,bolts,,,,Xc,red,bolts,,1.0,0.0,NA,right,511.700000003,2.0,0.0,1.0,,,
111,0,,html-keyboard-response,111,888827,0.0-4.17-0.17,d7f3p7hitqi,2022-09-19 14:55:22.492,5f49f3262a3d07563d14a7f1,3,100,38,95,35,28,Male,,,"<img src=""static/images/cards/stack_of_black_bolts.svg"" width=""175px"" height=""250px""></img>",,,,,,,,,,,,,,,,,,,,,,,,,,,,
112,0,,html-keyboard-response,112,889814,0.0-4.17-1.17,d7f3p7hitqi,2022-09-19 14:55:22.492,5f49f3262a3d07563d14a7f1,3,100,38,95,35,28,Male,480.0,,"
  <table>
  <tr height=300>
    <td width=300 height=300><img src=""static/images/cards/back_of_black_bolts.svg"" width=""175px"" height=""250px""></img></td>
    <td width=300 height=300><img src=""static/images/cards/back_of_black_bolts.svg"" width=""175px"" height=""250px""></img></td>
  </tr>
  <tr height=200>
    <td width=300><img src=""static/images/keys/z.svg"" width=""35%"" height=""75%""></img></td>
    <td width=300></td>
  </tr>
</table>
  ",90.0,1.0,,,,,,,,,,,,,,,,,,,,,,,,,,
113,0,,html-keyboard-response,113,891322,0.0-4.17-2.17,d7f3p7hitqi,2022-09-19 14:55:22.492,5f49f3262a3d07563d14a7f1,3,100,38,95,35,28,Male,,,"
  <table>
  <tr height=300>
    <td width=300 height=300><img src=""static/images/cards/3_of_black_bolts.svg"" width=""175px"" height=""250px""></img></td>
    <td width=300 height=300><img src=""static/images/cards/back_of_black_bolts.svg"" width=""175px"" height=""250px""></img></td>
  </tr>
  <tr height=200>
    <td width=300><img src=""static/images/keys/z.svg"" width=""35%"" height=""75%""></img></td>
    <td width=300></td>
  </tr>
</table>
  ",,,,,,,,,,,,,,,,,,,,,,,,,,,,
114,0,,html-keyboard-response,114,892842,0.0-4.17-3.17,d7f3p7hitqi,2022-09-19 14:55:22.492,5f49f3262a3d07563d14a7f1,3,100,38,95,35,28,Male,,,"<p style=""font-size:50px"">You win!
+10 points this round!</p>",,,,,,,,,,,,,,,,,,,,,,,,,,,,
115,0,,html-keyboard-response,115,893360,0.0-4.17-4.17,d7f3p7hitqi,2022-09-19 14:55:22.492,5f49f3262a3d07563d14a7f1,3,100,38,95,35,28,Male,,,,,,1.0,learning,17.0,Xnc,,black,,bolts,,,,Xnc,black,bolts,,0.0,0.0,1,left,480.0,3.0,0.0,1.0,,,
116,0,,html-keyboard-response,116,894868,0.0-4.18-0.18,d7f3p7hitqi,2022-09-19 14:55:22.492,5f49f3262a3d07563d14a7f1,3,100,38,95,35,28,Male,,,"<img src=""static/images/cards/stack_of_black_moons.svg"" width=""175px"" height=""250px""></img>",,,,,,,,,,,,,,,,,,,,,,,,,,,,
117,0,,html-keyboard-response,117,896114,0.0-4.18-1.18,d7f3p7hitqi,2022-09-19 14:55:22.492,5f49f3262a3d07563d14a7f1,3,100,38,95,35,28,Male,735.700000003,,"
  <table>
  <tr height=300>
    <td width=300 height=300><img src=""static/images/cards/back_of_black_moons.svg"" width=""175px"" height=""250px""></img></td>
    <td width=300 height=300><img src=""static/images/cards/back_of_black_moons.svg"" width=""175px"" height=""250px""></img></td>
  </tr>
  <tr height=200>
    <td width=300><img src=""static/images/keys/z.svg"" width=""35%"" height=""75%""></img></td>
    <td width=300><img src=""static/images/keys/m.svg"" width=""35%"" height=""75%""></img></td>
  </tr>
</table>
  ",77.0,1.0,,,,,,,,,,,,,,,,,,,,,,,,,,
118,0,,html-keyboard-response,118,897624,0.0-4.18-2.18,d7f3p7hitqi,2022-09-19 14:55:22.492,5f49f3262a3d07563d14a7f1,3,100,38,95,35,28,Male,,,"
  <table>
  <tr height=300>
    <td width=300 height=300><img src=""static/images/cards/back_of_black_moons.svg"" width=""175px"" height=""250px""></img></td>
    <td width=300 height=300><img src=""static/images/cards/10_of_black_moons.svg"" width=""175px"" height=""250px""></img></td>
  </tr>
  <tr height=200>
    <td width=300><img src=""static/images/keys/z.svg"" width=""35%"" height=""75%""></img></td>
    <td width=300><img src=""static/images/keys/m.svg"" width=""35%"" height=""75%""></img></td>
  </tr>
</table>
  ",,,,,,,,,,,,,,,,,,,,,,,,,,,,
119,0,,html-keyboard-response,119,899142,0.0-4.18-3.18,d7f3p7hitqi,2022-09-19 14:55:22.492,5f49f3262a3d07563d14a7f1,3,100,38,95,35,28,Male,,,"<p style=""font-size:50px"">You win!
+10 points this round!</p>",,,,,,,,,,,,,,,,,,,,,,,,,,,,
120,0,,html-keyboard-response,120,899660,0.0-4.18-4.18,d7f3p7hitqi,2022-09-19 14:55:22.492,5f49f3262a3d07563d14a7f1,3,100,38,95,35,28,Male,,,,,,1.0,learning,18.0,A,,black,,moons,,,,A,black,moons,,1.0,1.0,NA,right,735.700000003,10.0,1.0,1.0,,,
121,0,,html-keyboard-response,121,901168,0.0-4.19-0.19,d7f3p7hitqi,2022-09-19 14:55:22.492,5f49f3262a3d07563d14a7f1,3,100,38,95,35,28,Male,,,"<img src=""static/images/cards/stack_of_red_moons.svg"" width=""175px"" height=""250px""></img>",,,,,,,,,,,,,,,,,,,,,,,,,,,,
122,0,,html-keyboard-response,122,902244,0.0-4.19-1.19,d7f3p7hitqi,2022-09-19 14:55:22.492,5f49f3262a3d07563d14a7f1,3,100,38,95,35,28,Male,565.3999999985,,"
  <table>
  <tr height=300>
    <td width=300 height=300><img src=""static/images/cards/back_of_red_moons.svg"" width=""175px"" height=""250px""></img></td>
    <td width=300 height=300><img src=""static/images/cards/back_of_red_moons.svg"" width=""175px"" height=""250px""></img></td>
  </tr>
  <tr height=200>
    <td width=300></td>
    <td width=300><img src=""static/images/keys/m.svg"" width=""35%"" height=""75%""></img></td>
  </tr>
</table>
  ",77.0,1.0,,,,,,,,,,,,,,,,,,,,,,,,,,
123,0,,html-keyboard-response,123,903747,0.0-4.19-2.19,d7f3p7hitqi,2022-09-19 14:55:22.492,5f49f3262a3d07563d14a7f1,3,100,38,95,35,28,Male,,,"
  <table>
  <tr height=300>
    <td width=300 height=300><img src=""static/images/cards/back_of_red_moons.svg"" width=""175px"" height=""250px""></img></td>
    <td width=300 height=300><img src=""static/images/cards/6_of_red_moons.svg"" width=""175px"" height=""250px""></img></td>
  </tr>
  <tr height=200>
    <td width=300></td>
    <td width=300><img src=""static/images/keys/m.svg"" width=""35%"" height=""75%""></img></td>
  </tr>
</table>
  ",,,,,,,,,,,,,,,,,,,,,,,,,,,,
124,0,,html-keyboard-response,124,905261,0.0-4.19-3.19,d7f3p7hitqi,2022-09-19 14:55:22.492,5f49f3262a3d07563d14a7f1,3,100,38,95,35,28,Male,,,"<p style=""font-size:50px"">You win!
+10 points this round!</p>",,,,,,,,,,,,,,,,,,,,,,,,,,,,
125,0,,html-keyboard-response,125,905777,0.0-4.19-4.19,d7f3p7hitqi,2022-09-19 14:55:22.492,5f49f3262a3d07563d14a7f1,3,100,38,95,35,28,Male,,,,,,1.0,learning,19.0,B,,red,,moons,,,,B,red,moons,,0.0,1.0,0,right,565.3999999985,6.0,1.0,1.0,,,
126,0,,html-keyboard-response,126,907279,0.0-4.20-0.20,d7f3p7hitqi,2022-09-19 14:55:22.492,5f49f3262a3d07563d14a7f1,3,100,38,95,35,28,Male,,,"<img src=""static/images/cards/stack_of_black_stars.svg"" width=""175px"" height=""250px""></img>",,,,,,,,,,,,,,,,,,,,,,,,,,,,
127,0,,html-keyboard-response,127,908512,0.0-4.20-1.20,d7f3p7hitqi,2022-09-19 14:55:22.492,5f49f3262a3d07563d14a7f1,3,100,38,95,35,28,Male,725.0,,"
  <table>
  <tr height=300>
    <td width=300 height=300><img src=""static/images/cards/back_of_black_stars.svg"" width=""175px"" height=""250px""></img></td>
    <td width=300 height=300><img src=""static/images/cards/back_of_black_stars.svg"" width=""175px"" height=""250px""></img></td>
  </tr>
  <tr height=200>
    <td width=300><img src=""static/images/keys/z.svg"" width=""35%"" height=""75%""></img></td>
    <td width=300><img src=""static/images/keys/m.svg"" width=""35%"" height=""75%""></img></td>
  </tr>
</table>
  ",90.0,1.0,,,,,,,,,,,,,,,,,,,,,,,,,,
128,0,,html-keyboard-response,128,910019,0.0-4.20-2.20,d7f3p7hitqi,2022-09-19 14:55:22.492,5f49f3262a3d07563d14a7f1,3,100,38,95,35,28,Male,,,"
  <table>
  <tr height=300>
    <td width=300 height=300><img src=""static/images/cards/3_of_black_stars.svg"" width=""175px"" height=""250px""></img></td>
    <td width=300 height=300><img src=""static/images/cards/back_of_black_stars.svg"" width=""175px"" height=""250px""></img></td>
  </tr>
  <tr height=200>
    <td width=300><img src=""static/images/keys/z.svg"" width=""35%"" height=""75%""></img></td>
    <td width=300><img src=""static/images/keys/m.svg"" width=""35%"" height=""75%""></img></td>
  </tr>
</table>
  ",,,,,,,,,,,,,,,,,,,,,,,,,,,,
129,0,,html-keyboard-response,129,911531,0.0-4.20-3.20,d7f3p7hitqi,2022-09-19 14:55:22.492,5f49f3262a3d07563d14a7f1,3,100,38,95,35,28,Male,,,"<p style=""font-size:50px"">You Lose!
No points this round.</p>",,,,,,,,,,,,,,,,,,,,,,,,,,,,
130,0,,html-keyboard-response,130,912046,0.0-4.20-4.20,d7f3p7hitqi,2022-09-19 14:55:22.492,5f49f3262a3d07563d14a7f1,3,100,38,95,35,28,Male,,,,,,1.0,learning,20.0,C,,black,,stars,,,,C,black,stars,,1.0,0.0,NA,left,725.0,3.0,0.0,0.0,,,
131,0,,html-keyboard-response,131,913557,0.0-4.21-0.21,d7f3p7hitqi,2022-09-19 14:55:22.492,5f49f3262a3d07563d14a7f1,3,100,38,95,35,28,Male,,,"<img src=""static/images/cards/stack_of_red_stars.svg"" width=""175px"" height=""250px""></img>",,,,,,,,,,,,,,,,,,,,,,,,,,,,
132,0,,html-keyboard-response,132,914642,0.0-4.21-1.21,d7f3p7hitqi,2022-09-19 14:55:22.492,5f49f3262a3d07563d14a7f1,3,100,38,95,35,28,Male,574.1000000015,,"
  <table>
  <tr height=300>
    <td width=300 height=300><img src=""static/images/cards/back_of_red_stars.svg"" width=""175px"" height=""250px""></img></td>
    <td width=300 height=300><img src=""static/images/cards/back_of_red_stars.svg"" width=""175px"" height=""250px""></img></td>
  </tr>
  <tr height=200>
    <td width=300><img src=""static/images/keys/z.svg"" width=""35%"" height=""75%""></img></td>
    <td width=300></td>
  </tr>
</table>
  ",90.0,1.0,,,,,,,,,,,,,,,,,,,,,,,,,,
133,0,,html-keyboard-response,133,916154,0.0-4.21-2.21,d7f3p7hitqi,2022-09-19 14:55:22.492,5f49f3262a3d07563d14a7f1,3,100,38,95,35,28,Male,,,"
  <table>
  <tr height=300>
    <td width=300 height=300><img src=""static/images/cards/1_of_red_stars.svg"" width=""175px"" height=""250px""></img></td>
    <td width=300 height=300><img src=""static/images/cards/back_of_red_stars.svg"" width=""175px"" height=""250px""></img></td>
  </tr>
  <tr height=200>
    <td width=300><img src=""static/images/keys/z.svg"" width=""35%"" height=""75%""></img></td>
    <td width=300></td>
  </tr>
</table>
  ",,,,,,,,,,,,,,,,,,,,,,,,,,,,
134,0,,html-keyboard-response,134,917667,0.0-4.21-3.21,d7f3p7hitqi,2022-09-19 14:55:22.492,5f49f3262a3d07563d14a7f1,3,100,38,95,35,28,Male,,,"<p style=""font-size:50px"">You Lose!
No points this round.</p>",,,,,,,,,,,,,,,,,,,,,,,,,,,,
135,0,,html-keyboard-response,135,918184,0.0-4.21-4.21,d7f3p7hitqi,2022-09-19 14:55:22.492,5f49f3262a3d07563d14a7f1,3,100,38,95,35,28,Male,,,,,,1.0,learning,21.0,D,,red,,stars,,,,D,red,stars,,0.0,0.0,1,left,574.1000000015,1.0,0.0,0.0,,,
136,0,,html-keyboard-response,136,919696,0.0-4.22-0.22,d7f3p7hitqi,2022-09-19 14:55:22.492,5f49f3262a3d07563d14a7f1,3,100,38,95,35,28,Male,,,"<img src=""static/images/cards/stack_of_red_bolts.svg"" width=""175px"" height=""250px""></img>",,,,,,,,,,,,,,,,,,,,,,,,,,,,
137,0,,html-keyboard-response,137,920733,0.0-4.22-1.22,d7f3p7hitqi,2022-09-19 14:55:22.492,5f49f3262a3d07563d14a7f1,3,100,38,95,35,28,Male,524.3999999985,,"
  <table>
  <tr height=300>
    <td width=300 height=300><img src=""static/images/cards/back_of_red_bolts.svg"" width=""175px"" height=""250px""></img></td>
    <td width=300 height=300><img src=""static/images/cards/back_of_red_bolts.svg"" width=""175px"" height=""250px""></img></td>
  </tr>
  <tr height=200>
    <td width=300><img src=""static/images/keys/z.svg"" width=""35%"" height=""75%""></img></td>
    <td width=300><img src=""static/images/keys/m.svg"" width=""35%"" height=""75%""></img></td>
  </tr>
</table>
  ",77.0,1.0,,,,,,,,,,,,,,,,,,,,,,,,,,
138,0,,html-keyboard-response,138,922249,0.0-4.22-2.22,d7f3p7hitqi,2022-09-19 14:55:22.492,5f49f3262a3d07563d14a7f1,3,100,38,95,35,28,Male,,,"
  <table>
  <tr height=300>
    <td width=300 height=300><img src=""static/images/cards/back_of_red_bolts.svg"" width=""175px"" height=""250px""></img></td>
    <td width=300 height=300><img src=""static/images/cards/2_of_red_bolts.svg"" width=""175px"" height=""250px""></img></td>
  </tr>
  <tr height=200>
    <td width=300><img src=""static/images/keys/z.svg"" width=""35%"" height=""75%""></img></td>
    <td width=300><img src=""static/images/keys/m.svg"" width=""35%"" height=""75%""></img></td>
  </tr>
</table>
  ",,,,,,,,,,,,,,,,,,,,,,,,,,,,
139,0,,html-keyboard-response,139,923765,0.0-4.22-3.22,d7f3p7hitqi,2022-09-19 14:55:22.492,5f49f3262a3d07563d14a7f1,3,100,38,95,35,28,Male,,,"<p style=""font-size:50px"">You win!
+10 points this round!</p>",,,,,,,,,,,,,,,,,,,,,,,,,,,,
140,0,,html-keyboard-response,140,924283,0.0-4.22-4.22,d7f3p7hitqi,2022-09-19 14:55:22.492,5f49f3262a3d07563d14a7f1,3,100,38,95,35,28,Male,,,,,,1.0,learning,22.0,Xc,,red,,bolts,,,,Xc,red,bolts,,1.0,0.0,NA,right,524.3999999985,2.0,0.0,1.0,,,
141,0,,html-keyboard-response,141,925793,0.0-4.23-0.23,d7f3p7hitqi,2022-09-19 14:55:22.492,5f49f3262a3d07563d14a7f1,3,100,38,95,35,28,Male,,,"<img src=""static/images/cards/stack_of_black_bolts.svg"" width=""175px"" height=""250px""></img>",,,,,,,,,,,,,,,,,,,,,,,,,,,,
142,0,,html-keyboard-response,142,926791,0.0-4.23-1.23,d7f3p7hitqi,2022-09-19 14:55:22.492,5f49f3262a3d07563d14a7f1,3,100,38,95,35,28,Male,485.0,,"
  <table>
  <tr height=300>
    <td width=300 height=300><img src=""static/images/cards/back_of_black_bolts.svg"" width=""175px"" height=""250px""></img></td>
    <td width=300 height=300><img src=""static/images/cards/back_of_black_bolts.svg"" width=""175px"" height=""250px""></img></td>
  </tr>
  <tr height=200>
    <td width=300></td>
    <td width=300><img src=""static/images/keys/m.svg"" width=""35%"" height=""75%""></img></td>
  </tr>
</table>
  ",77.0,1.0,,,,,,,,,,,,,,,,,,,,,,,,,,
143,0,,html-keyboard-response,143,928299,0.0-4.23-2.23,d7f3p7hitqi,2022-09-19 14:55:22.492,5f49f3262a3d07563d14a7f1,3,100,38,95,35,28,Male,,,"
  <table>
  <tr height=300>
    <td width=300 height=300><img src=""static/images/cards/back_of_black_bolts.svg"" width=""175px"" height=""250px""></img></td>
    <td width=300 height=300><img src=""static/images/cards/8_of_black_bolts.svg"" width=""175px"" height=""250px""></img></td>
  </tr>
  <tr height=200>
    <td width=300></td>
    <td width=300><img src=""static/images/keys/m.svg"" width=""35%"" height=""75%""></img></td>
  </tr>
</table>
  ",,,,,,,,,,,,,,,,,,,,,,,,,,,,
144,0,,html-keyboard-response,144,929814,0.0-4.23-3.23,d7f3p7hitqi,2022-09-19 14:55:22.492,5f49f3262a3d07563d14a7f1,3,100,38,95,35,28,Male,,,"<p style=""font-size:50px"">You win!
+10 points this round!</p>",,,,,,,,,,,,,,,,,,,,,,,,,,,,
145,0,,html-keyboard-response,145,930331,0.0-4.23-4.23,d7f3p7hitqi,2022-09-19 14:55:22.492,5f49f3262a3d07563d14a7f1,3,100,38,95,35,28,Male,,,,,,1.0,learning,23.0,Xnc,,black,,bolts,,,,Xnc,black,bolts,,0.0,0.0,0,right,485.0,8.0,1.0,1.0,,,
146,0,,call-function,146,930335,0.0-5.0,d7f3p7hitqi,2022-09-19 14:55:22.492,5f49f3262a3d07563d14a7f1,3,100,38,95,35,28,Male,,,,,,,,,,,,,,,,,,,,,,,,,,,,,,,
147,0,,image-keyboard-response,147,934164,0.0-6.0-0.0,d7f3p7hitqi,2022-09-19 14:55:22.492,5f49f3262a3d07563d14a7f1,3,100,38,95,35,28,Male,3828.700000003,,static/images/instructions_CB_3/Slide20.png,39.0,,,,,,,,,,,,,,,,,,,,,,,,,,,
148,0,,image-keyboard-response,148,970437,0.0-6.1-0.1,d7f3p7hitqi,2022-09-19 14:55:22.492,5f49f3262a3d07563d14a7f1,3,100,38,95,35,28,Male,36271.5,,static/images/instructions_CB_3/Slide21.png,39.0,,,,,,,,,,,,,,,,,,,,,,,,,,,
149,0,,image-keyboard-response,149,984610,0.0-6.2-0.2,d7f3p7hitqi,2022-09-19 14:55:22.492,5f49f3262a3d07563d14a7f1,3,100,38,95,35,28,Male,14173.3999999985,,static/images/instructions_CB_3/Slide22.png,39.0,,,,,,,,,,,,,,,,,,,,,,,,,,,
150,0,,image-keyboard-response,150,1058564,0.0-6.3-0.3,d7f3p7hitqi,2022-09-19 14:55:22.492,5f49f3262a3d07563d14a7f1,3,100,38,95,35,28,Male,73953.0,,static/images/instructions_CB_3/Slide23.png,39.0,,,,,,,,,,,,,,,,,,,,,,,,,,,
151,0,,image-keyboard-response,151,1061944,0.0-6.4-0.4,d7f3p7hitqi,2022-09-19 14:55:22.492,5f49f3262a3d07563d14a7f1,3,100,38,95,35,28,Male,3379.1999999955,,static/images/instructions_CB_3/Slide24.png,39.0,,,,,,,,,,,,,,,,,,,,,,,,,,,
152,0,,html-keyboard-response,152,1064093,0.0-7.0-0.0,d7f3p7hitqi,2022-09-19 14:55:22.492,5f49f3262a3d07563d14a7f1,3,100,38,95,35,28,Male,2147.1000000015,,"
  <table>
  <tr height=300>
    <td width=300 height=300><img src=""static/images/cards/stack_of_red_moons.svg"" width=""175px"" height=""250px""></img></td>
    <td width=300 height=300><img src=""static/images/cards/stack_of_black_stars.svg"" width=""175px"" height=""250px""></img></td>
  </tr>
  <tr height=200>
    <td width=300><img src=""static/images/keys/w.svg"" width=""35%"" height=""75%""></img></td>
    <td width=300><img src=""static/images/keys/o.svg"" width=""35%"" height=""75%""></img></td>
  </tr>
</table>
  ",87.0,1.0,,,,,,,,,,,,,,,,,,,,,,,,,,
153,0,,html-keyboard-response,153,1065864,0.0-7.0-1.0,d7f3p7hitqi,2022-09-19 14:55:22.492,5f49f3262a3d07563d14a7f1,3,100,38,95,35,28,Male,1256.700000003,,"
  <table>
  <tr height=300>
    <td width=300 height=300><img src=""static/images/cards/back_of_red_moons.svg"" width=""175px"" height=""250px""></img></td>
    <td width=300 height=300><img src=""static/images/cards/back_of_red_moons.svg"" width=""175px"" height=""250px""></img></td>
  </tr>
  <tr height=200>
    <td width=300></td>
    <td width=300><img src=""static/images/keys/m.svg"" width=""35%"" height=""75%""></img></td>
  </tr>
</table>
  ",77.0,1.0,,,,,,,,,,,,,,,,,,,,,,,,,,
154,0,,html-keyboard-response,154,1067377,0.0-7.0-2.0,d7f3p7hitqi,2022-09-19 14:55:22.492,5f49f3262a3d07563d14a7f1,3,100,38,95,35,28,Male,,,"
  <table>
  <tr height=300>
    <td width=300 height=300><img src=""static/images/cards/back_of_red_moons.svg"" width=""175px"" height=""250px""></img></td>
    <td width=300 height=300><img src=""static/images/cards/8_of_red_moons.svg"" width=""175px"" height=""250px""></img></td>
  </tr>
  <tr height=200>
    <td width=300></td>
    <td width=300><img src=""static/images/keys/m.svg"" width=""35%"" height=""75%""></img></td>
  </tr>
</table>
  ",,,,,,,,,,,,,,,,,,,,,,,,,,,,
155,0,,html-keyboard-response,155,1068892,0.0-7.0-3.0,d7f3p7hitqi,2022-09-19 14:55:22.492,5f49f3262a3d07563d14a7f1,3,100,38,95,35,28,Male,,,"<p style=""font-size:50px"">You win!
+10 points this round!</p>",,,,,,,,,,,,,,,,,,,,,,,,,,,,
156,0,,html-keyboard-response,156,1069411,0.0-7.0-4.0,d7f3p7hitqi,2022-09-19 14:55:22.492,5f49f3262a3d07563d14a7f1,3,100,38,95,35,28,Male,,,,,,1.0,choice,0.0,B,C,red,black,moons,stars,B,C,B,red,moons,2147.1000000015,0.0,1.0,0,right,1256.700000003,8.0,1.0,1.0,,,
157,0,,html-keyboard-response,157,1072234,0.0-7.1-0.1,d7f3p7hitqi,2022-09-19 14:55:22.492,5f49f3262a3d07563d14a7f1,3,100,38,95,35,28,Male,2822.3999999985,,"
  <table>
  <tr height=300>
    <td width=300 height=300><img src=""static/images/cards/stack_of_red_moons.svg"" width=""175px"" height=""250px""></img></td>
    <td width=300 height=300><img src=""static/images/cards/stack_of_black_moons.svg"" width=""175px"" height=""250px""></img></td>
  </tr>
  <tr height=200>
    <td width=300><img src=""static/images/keys/w.svg"" width=""35%"" height=""75%""></img></td>
    <td width=300><img src=""static/images/keys/o.svg"" width=""35%"" height=""75%""></img></td>
  </tr>
</table>
  ",87.0,1.0,,,,,,,,,,,,,,,,,,,,,,,,,,
158,0,,html-keyboard-response,158,1073712,0.0-7.1-1.1,d7f3p7hitqi,2022-09-19 14:55:22.492,5f49f3262a3d07563d14a7f1,3,100,38,95,35,28,Male,969.8000000045,,"
  <table>
  <tr height=300>
    <td width=300 height=300><img src=""static/images/cards/back_of_red_moons.svg"" width=""175px"" height=""250px""></img></td>
    <td width=300 height=300><img src=""static/images/cards/back_of_red_moons.svg"" width=""175px"" height=""250px""></img></td>
  </tr>
  <tr height=200>
    <td width=300><img src=""static/images/keys/z.svg"" width=""35%"" height=""75%""></img></td>
    <td width=300></td>
  </tr>
</table>
  ",90.0,1.0,,,,,,,,,,,,,,,,,,,,,,,,,,
159,0,,html-keyboard-response,159,1075227,0.0-7.1-2.1,d7f3p7hitqi,2022-09-19 14:55:22.492,5f49f3262a3d07563d14a7f1,3,100,38,95,35,28,Male,,,"
  <table>
  <tr height=300>
    <td width=300 height=300><img src=""static/images/cards/9_of_red_moons.svg"" width=""175px"" height=""250px""></img></td>
    <td width=300 height=300><img src=""static/images/cards/back_of_red_moons.svg"" width=""175px"" height=""250px""></img></td>
  </tr>
  <tr height=200>
    <td width=300><img src=""static/images/keys/z.svg"" width=""35%"" height=""75%""></img></td>
    <td width=300></td>
  </tr>
</table>
  ",,,,,,,,,,,,,,,,,,,,,,,,,,,,
160,0,,html-keyboard-response,160,1076744,0.0-7.1-3.1,d7f3p7hitqi,2022-09-19 14:55:22.492,5f49f3262a3d07563d14a7f1,3,100,38,95,35,28,Male,,,"<p style=""font-size:50px"">You win!
+10 points this round!</p>",,,,,,,,,,,,,,,,,,,,,,,,,,,,
161,0,,html-keyboard-response,161,1077261,0.0-7.1-4.1,d7f3p7hitqi,2022-09-19 14:55:22.492,5f49f3262a3d07563d14a7f1,3,100,38,95,35,28,Male,,,,,,1.0,choice,1.0,A,B,red,black,moons,moons,B,A,B,red,moons,2822.3999999985,0.0,1.0,1,left,969.8000000045,9.0,1.0,1.0,,,
162,0,,html-keyboard-response,162,1078736,0.0-7.2-0.2,d7f3p7hitqi,2022-09-19 14:55:22.492,5f49f3262a3d07563d14a7f1,3,100,38,95,35,28,Male,1473.8999999985,,"
  <table>
  <tr height=300>
    <td width=300 height=300><img src=""static/images/cards/stack_of_black_moons.svg"" width=""175px"" height=""250px""></img></td>
    <td width=300 height=300><img src=""static/images/cards/stack_of_black_stars.svg"" width=""175px"" height=""250px""></img></td>
  </tr>
  <tr height=200>
    <td width=300><img src=""static/images/keys/w.svg"" width=""35%"" height=""75%""></img></td>
    <td width=300><img src=""static/images/keys/o.svg"" width=""35%"" height=""75%""></img></td>
  </tr>
</table>
  ",87.0,1.0,,,,,,,,,,,,,,,,,,,,,,,,,,
163,0,,html-keyboard-response,163,1080234,0.0-7.2-1.2,d7f3p7hitqi,2022-09-19 14:55:22.492,5f49f3262a3d07563d14a7f1,3,100,38,95,35,28,Male,983.299999997,,"
  <table>
  <tr height=300>
    <td width=300 height=300><img src=""static/images/cards/back_of_black_moons.svg"" width=""175px"" height=""250px""></img></td>
    <td width=300 height=300><img src=""static/images/cards/back_of_black_moons.svg"" width=""175px"" height=""250px""></img></td>
  </tr>
  <tr height=200>
    <td width=300><img src=""static/images/keys/z.svg"" width=""35%"" height=""75%""></img></td>
    <td width=300><img src=""static/images/keys/m.svg"" width=""35%"" height=""75%""></img></td>
  </tr>
</table>
  ",77.0,1.0,,,,,,,,,,,,,,,,,,,,,,,,,,
164,0,,html-keyboard-response,164,1081740,0.0-7.2-2.2,d7f3p7hitqi,2022-09-19 14:55:22.492,5f49f3262a3d07563d14a7f1,3,100,38,95,35,28,Male,,,"
  <table>
  <tr height=300>
    <td width=300 height=300><img src=""static/images/cards/back_of_black_moons.svg"" width=""175px"" height=""250px""></img></td>
    <td width=300 height=300><img src=""static/images/cards/2_of_black_moons.svg"" width=""175px"" height=""250px""></img></td>
  </tr>
  <tr height=200>
    <td width=300><img src=""static/images/keys/z.svg"" width=""35%"" height=""75%""></img></td>
    <td width=300><img src=""static/images/keys/m.svg"" width=""35%"" height=""75%""></img></td>
  </tr>
</table>
  ",,,,,,,,,,,,,,,,,,,,,,,,,,,,
165,0,,html-keyboard-response,165,1083259,0.0-7.2-3.2,d7f3p7hitqi,2022-09-19 14:55:22.492,5f49f3262a3d07563d14a7f1,3,100,38,95,35,28,Male,,,"<p style=""font-size:50px"">You Lose!
No points this round.</p>",,,,,,,,,,,,,,,,,,,,,,,,,,,,
166,0,,html-keyboard-response,166,1083774,0.0-7.2-4.2,d7f3p7hitqi,2022-09-19 14:55:22.492,5f49f3262a3d07563d14a7f1,3,100,38,95,35,28,Male,,,,,,1.0,choice,2.0,A,C,black,black,moons,stars,A,C,A,black,moons,1473.8999999985,1.0,1.0,NA,right,983.299999997,2.0,0.0,0.0,,,
167,0,,html-keyboard-response,167,1085686,0.0-7.3-0.3,d7f3p7hitqi,2022-09-19 14:55:22.492,5f49f3262a3d07563d14a7f1,3,100,38,95,35,28,Male,1910.5,,"
  <table>
  <tr height=300>
    <td width=300 height=300><img src=""static/images/cards/stack_of_black_stars.svg"" width=""175px"" height=""250px""></img></td>
    <td width=300 height=300><img src=""static/images/cards/stack_of_red_stars.svg"" width=""175px"" height=""250px""></img></td>
  </tr>
  <tr height=200>
    <td width=300><img src=""static/images/keys/w.svg"" width=""35%"" height=""75%""></img></td>
    <td width=300><img src=""static/images/keys/o.svg"" width=""35%"" height=""75%""></img></td>
  </tr>
</table>
  ",87.0,1.0,,,,,,,,,,,,,,,,,,,,,,,,,,
168,0,,html-keyboard-response,168,1088346,0.0-7.3-1.3,d7f3p7hitqi,2022-09-19 14:55:22.492,5f49f3262a3d07563d14a7f1,3,100,38,95,35,28,Male,2148.5,,"
  <table>
  <tr height=300>
    <td width=300 height=300><img src=""static/images/cards/back_of_black_stars.svg"" width=""175px"" height=""250px""></img></td>
    <td width=300 height=300><img src=""static/images/cards/back_of_black_stars.svg"" width=""175px"" height=""250px""></img></td>
  </tr>
  <tr height=200>
    <td width=300><img src=""static/images/keys/z.svg"" width=""35%"" height=""75%""></img></td>
    <td width=300><img src=""static/images/keys/m.svg"" width=""35%"" height=""75%""></img></td>
  </tr>
</table>
  ",90.0,2.0,,,,,,,,,,,,,,,,,,,,,,,,,,
169,0,,html-keyboard-response,169,1089854,0.0-7.3-2.3,d7f3p7hitqi,2022-09-19 14:55:22.492,5f49f3262a3d07563d14a7f1,3,100,38,95,35,28,Male,,,"
  <table>
  <tr height=300>
    <td width=300 height=300><img src=""static/images/cards/1_of_black_stars.svg"" width=""175px"" height=""250px""></img></td>
    <td width=300 height=300><img src=""static/images/cards/back_of_black_stars.svg"" width=""175px"" height=""250px""></img></td>
  </tr>
  <tr height=200>
    <td width=300><img src=""static/images/keys/z.svg"" width=""35%"" height=""75%""></img></td>
    <td width=300><img src=""static/images/keys/m.svg"" width=""35%"" height=""75%""></img></td>
  </tr>
</table>
  ",,,,,,,,,,,,,,,,,,,,,,,,,,,,
170,0,,html-keyboard-response,170,1091373,0.0-7.3-3.3,d7f3p7hitqi,2022-09-19 14:55:22.492,5f49f3262a3d07563d14a7f1,3,100,38,95,35,28,Male,,,"<p style=""font-size:50px"">You Lose!
No points this round.</p>",,,,,,,,,,,,,,,,,,,,,,,,,,,,
171,0,,html-keyboard-response,171,1091887,0.0-7.3-4.3,d7f3p7hitqi,2022-09-19 14:55:22.492,5f49f3262a3d07563d14a7f1,3,100,38,95,35,28,Male,,,,,,1.0,choice,3.0,C,D,black,red,stars,stars,C,D,C,black,stars,1910.5,1.0,0.0,NA,left,2148.5,1.0,0.0,0.0,,,
172,0,,html-keyboard-response,172,1093678,0.0-7.4-0.4,d7f3p7hitqi,2022-09-19 14:55:22.492,5f49f3262a3d07563d14a7f1,3,100,38,95,35,28,Male,1788.799999997,,"
  <table>
  <tr height=300>
    <td width=300 height=300><img src=""static/images/cards/stack_of_red_stars.svg"" width=""175px"" height=""250px""></img></td>
    <td width=300 height=300><img src=""static/images/cards/stack_of_black_moons.svg"" width=""175px"" height=""250px""></img></td>
  </tr>
  <tr height=200>
    <td width=300><img src=""static/images/keys/w.svg"" width=""35%"" height=""75%""></img></td>
    <td width=300><img src=""static/images/keys/o.svg"" width=""35%"" height=""75%""></img></td>
  </tr>
</table>
  ",79.0,1.0,,,,,,,,,,,,,,,,,,,,,,,,,,
173,0,,html-keyboard-response,173,1095257,0.0-7.4-1.4,d7f3p7hitqi,2022-09-19 14:55:22.492,5f49f3262a3d07563d14a7f1,3,100,38,95,35,28,Male,1064.0,,"
  <table>
  <tr height=300>
    <td width=300 height=300><img src=""static/images/cards/back_of_black_moons.svg"" width=""175px"" height=""250px""></img></td>
    <td width=300 height=300><img src=""static/images/cards/back_of_black_moons.svg"" width=""175px"" height=""250px""></img></td>
  </tr>
  <tr height=200>
    <td width=300><img src=""static/images/keys/z.svg"" width=""35%"" height=""75%""></img></td>
    <td width=300><img src=""static/images/keys/m.svg"" width=""35%"" height=""75%""></img></td>
  </tr>
</table>
  ",77.0,1.0,,,,,,,,,,,,,,,,,,,,,,,,,,
174,0,,html-keyboard-response,174,1096761,0.0-7.4-2.4,d7f3p7hitqi,2022-09-19 14:55:22.492,5f49f3262a3d07563d14a7f1,3,100,38,95,35,28,Male,,,"
  <table>
  <tr height=300>
    <td width=300 height=300><img src=""static/images/cards/back_of_black_moons.svg"" width=""175px"" height=""250px""></img></td>
    <td width=300 height=300><img src=""static/images/cards/2_of_black_moons.svg"" width=""175px"" height=""250px""></img></td>
  </tr>
  <tr height=200>
    <td width=300><img src=""static/images/keys/z.svg"" width=""35%"" height=""75%""></img></td>
    <td width=300><img src=""static/images/keys/m.svg"" width=""35%"" height=""75%""></img></td>
  </tr>
</table>
  ",,,,,,,,,,,,,,,,,,,,,,,,,,,,
175,0,,html-keyboard-response,175,1098274,0.0-7.4-3.4,d7f3p7hitqi,2022-09-19 14:55:22.492,5f49f3262a3d07563d14a7f1,3,100,38,95,35,28,Male,,,"<p style=""font-size:50px"">You Lose!
No points this round.</p>",,,,,,,,,,,,,,,,,,,,,,,,,,,,
176,0,,html-keyboard-response,176,1098788,0.0-7.4-4.4,d7f3p7hitqi,2022-09-19 14:55:22.492,5f49f3262a3d07563d14a7f1,3,100,38,95,35,28,Male,,,,,,1.0,choice,4.0,A,D,red,black,stars,moons,D,A,A,black,moons,1788.799999997,1.0,1.0,NA,right,1064.0,2.0,0.0,0.0,,,
177,0,,html-keyboard-response,177,1100331,0.0-7.5-0.5,d7f3p7hitqi,2022-09-19 14:55:22.492,5f49f3262a3d07563d14a7f1,3,100,38,95,35,28,Male,1541.8999999985,,"
  <table>
  <tr height=300>
    <td width=300 height=300><img src=""static/images/cards/stack_of_black_moons.svg"" width=""175px"" height=""250px""></img></td>
    <td width=300 height=300><img src=""static/images/cards/stack_of_black_stars.svg"" width=""175px"" height=""250px""></img></td>
  </tr>
  <tr height=200>
    <td width=300><img src=""static/images/keys/w.svg"" width=""35%"" height=""75%""></img></td>
    <td width=300><img src=""static/images/keys/o.svg"" width=""35%"" height=""75%""></img></td>
  </tr>
</table>
  ",87.0,1.0,,,,,,,,,,,,,,,,,,,,,,,,,,
178,0,,html-keyboard-response,178,1101896,0.0-7.5-1.5,d7f3p7hitqi,2022-09-19 14:55:22.492,5f49f3262a3d07563d14a7f1,3,100,38,95,35,28,Male,1056.8000000045,,"
  <table>
  <tr height=300>
    <td width=300 height=300><img src=""static/images/cards/back_of_black_moons.svg"" width=""175px"" height=""250px""></img></td>
    <td width=300 height=300><img src=""static/images/cards/back_of_black_moons.svg"" width=""175px"" height=""250px""></img></td>
  </tr>
  <tr height=200>
    <td width=300><img src=""static/images/keys/z.svg"" width=""35%"" height=""75%""></img></td>
    <td width=300><img src=""static/images/keys/m.svg"" width=""35%"" height=""75%""></img></td>
  </tr>
</table>
  ",90.0,1.0,,,,,,,,,,,,,,,,,,,,,,,,,,
179,0,,html-keyboard-response,179,1103410,0.0-7.5-2.5,d7f3p7hitqi,2022-09-19 14:55:22.492,5f49f3262a3d07563d14a7f1,3,100,38,95,35,28,Male,,,"
  <table>
  <tr height=300>
    <td width=300 height=300><img src=""static/images/cards/7_of_black_moons.svg"" width=""175px"" height=""250px""></img></td>
    <td width=300 height=300><img src=""static/images/cards/back_of_black_moons.svg"" width=""175px"" height=""250px""></img></td>
  </tr>
  <tr height=200>
    <td width=300><img src=""static/images/keys/z.svg"" width=""35%"" height=""75%""></img></td>
    <td width=300><img src=""static/images/keys/m.svg"" width=""35%"" height=""75%""></img></td>
  </tr>
</table>
  ",,,,,,,,,,,,,,,,,,,,,,,,,,,,
180,0,,html-keyboard-response,180,1104927,0.0-7.5-3.5,d7f3p7hitqi,2022-09-19 14:55:22.492,5f49f3262a3d07563d14a7f1,3,100,38,95,35,28,Male,,,"<p style=""font-size:50px"">You win!
+10 points this round!</p>",,,,,,,,,,,,,,,,,,,,,,,,,,,,
181,0,,html-keyboard-response,181,1105442,0.0-7.5-4.5,d7f3p7hitqi,2022-09-19 14:55:22.492,5f49f3262a3d07563d14a7f1,3,100,38,95,35,28,Male,,,,,,1.0,choice,5.0,A,C,black,black,moons,stars,A,C,A,black,moons,1541.8999999985,1.0,1.0,NA,left,1056.8000000045,7.0,1.0,1.0,,,
182,0,,html-keyboard-response,182,1107005,0.0-7.6-0.6,d7f3p7hitqi,2022-09-19 14:55:22.492,5f49f3262a3d07563d14a7f1,3,100,38,95,35,28,Male,1562.5,,"
  <table>
  <tr height=300>
    <td width=300 height=300><img src=""static/images/cards/stack_of_red_stars.svg"" width=""175px"" height=""250px""></img></td>
    <td width=300 height=300><img src=""static/images/cards/stack_of_black_stars.svg"" width=""175px"" height=""250px""></img></td>
  </tr>
  <tr height=200>
    <td width=300><img src=""static/images/keys/w.svg"" width=""35%"" height=""75%""></img></td>
    <td width=300><img src=""static/images/keys/o.svg"" width=""35%"" height=""75%""></img></td>
  </tr>
</table>
  ",79.0,1.0,,,,,,,,,,,,,,,,,,,,,,,,,,
183,0,,html-keyboard-response,183,1108724,0.0-7.6-1.6,d7f3p7hitqi,2022-09-19 14:55:22.492,5f49f3262a3d07563d14a7f1,3,100,38,95,35,28,Male,1213.6000000015,,"
  <table>
  <tr height=300>
    <td width=300 height=300><img src=""static/images/cards/back_of_black_stars.svg"" width=""175px"" height=""250px""></img></td>
    <td width=300 height=300><img src=""static/images/cards/back_of_black_stars.svg"" width=""175px"" height=""250px""></img></td>
  </tr>
  <tr height=200>
    <td width=300><img src=""static/images/keys/z.svg"" width=""35%"" height=""75%""></img></td>
    <td width=300><img src=""static/images/keys/m.svg"" width=""35%"" height=""75%""></img></td>
  </tr>
</table>
  ",77.0,1.0,,,,,,,,,,,,,,,,,,,,,,,,,,
184,0,,html-keyboard-response,184,1110225,0.0-7.6-2.6,d7f3p7hitqi,2022-09-19 14:55:22.492,5f49f3262a3d07563d14a7f1,3,100,38,95,35,28,Male,,,"
  <table>
  <tr height=300>
    <td width=300 height=300><img src=""static/images/cards/back_of_black_stars.svg"" width=""175px"" height=""250px""></img></td>
    <td width=300 height=300><img src=""static/images/cards/2_of_black_stars.svg"" width=""175px"" height=""250px""></img></td>
  </tr>
  <tr height=200>
    <td width=300><img src=""static/images/keys/z.svg"" width=""35%"" height=""75%""></img></td>
    <td width=300><img src=""static/images/keys/m.svg"" width=""35%"" height=""75%""></img></td>
  </tr>
</table>
  ",,,,,,,,,,,,,,,,,,,,,,,,,,,,
185,0,,html-keyboard-response,185,1111742,0.0-7.6-3.6,d7f3p7hitqi,2022-09-19 14:55:22.492,5f49f3262a3d07563d14a7f1,3,100,38,95,35,28,Male,,,"<p style=""font-size:50px"">You Lose!
No points this round.</p>",,,,,,,,,,,,,,,,,,,,,,,,,,,,
186,0,,html-keyboard-response,186,1112257,0.0-7.6-4.6,d7f3p7hitqi,2022-09-19 14:55:22.492,5f49f3262a3d07563d14a7f1,3,100,38,95,35,28,Male,,,,,,1.0,choice,6.0,C,D,red,black,stars,stars,D,C,C,black,stars,1562.5,1.0,0.0,NA,right,1213.6000000015,2.0,0.0,0.0,,,
187,0,,html-keyboard-response,187,1113688,0.0-7.7-0.7,d7f3p7hitqi,2022-09-19 14:55:22.492,5f49f3262a3d07563d14a7f1,3,100,38,95,35,28,Male,1429.900000006,,"
  <table>
  <tr height=300>
    <td width=300 height=300><img src=""static/images/cards/stack_of_black_moons.svg"" width=""175px"" height=""250px""></img></td>
    <td width=300 height=300><img src=""static/images/cards/stack_of_red_stars.svg"" width=""175px"" height=""250px""></img></td>
  </tr>
  <tr height=200>
    <td width=300><img src=""static/images/keys/w.svg"" width=""35%"" height=""75%""></img></td>
    <td width=300><img src=""static/images/keys/o.svg"" width=""35%"" height=""75%""></img></td>
  </tr>
</table>
  ",87.0,1.0,,,,,,,,,,,,,,,,,,,,,,,,,,
188,0,,html-keyboard-response,188,1115347,0.0-7.7-1.7,d7f3p7hitqi,2022-09-19 14:55:22.492,5f49f3262a3d07563d14a7f1,3,100,38,95,35,28,Male,1149.700000003,,"
  <table>
  <tr height=300>
    <td width=300 height=300><img src=""static/images/cards/back_of_black_moons.svg"" width=""175px"" height=""250px""></img></td>
    <td width=300 height=300><img src=""static/images/cards/back_of_black_moons.svg"" width=""175px"" height=""250px""></img></td>
  </tr>
  <tr height=200>
    <td width=300><img src=""static/images/keys/z.svg"" width=""35%"" height=""75%""></img></td>
    <td width=300><img src=""static/images/keys/m.svg"" width=""35%"" height=""75%""></img></td>
  </tr>
</table>
  ",77.0,1.0,,,,,,,,,,,,,,,,,,,,,,,,,,
189,0,,html-keyboard-response,189,1116861,0.0-7.7-2.7,d7f3p7hitqi,2022-09-19 14:55:22.492,5f49f3262a3d07563d14a7f1,3,100,38,95,35,28,Male,,,"
  <table>
  <tr height=300>
    <td width=300 height=300><img src=""static/images/cards/back_of_black_moons.svg"" width=""175px"" height=""250px""></img></td>
    <td width=300 height=300><img src=""static/images/cards/10_of_black_moons.svg"" width=""175px"" height=""250px""></img></td>
  </tr>
  <tr height=200>
    <td width=300><img src=""static/images/keys/z.svg"" width=""35%"" height=""75%""></img></td>
    <td width=300><img src=""static/images/keys/m.svg"" width=""35%"" height=""75%""></img></td>
  </tr>
</table>
  ",,,,,,,,,,,,,,,,,,,,,,,,,,,,
190,0,,html-keyboard-response,190,1118376,0.0-7.7-3.7,d7f3p7hitqi,2022-09-19 14:55:22.492,5f49f3262a3d07563d14a7f1,3,100,38,95,35,28,Male,,,"<p style=""font-size:50px"">You win!
+10 points this round!</p>",,,,,,,,,,,,,,,,,,,,,,,,,,,,
191,0,,html-keyboard-response,191,1118891,0.0-7.7-4.7,d7f3p7hitqi,2022-09-19 14:55:22.492,5f49f3262a3d07563d14a7f1,3,100,38,95,35,28,Male,,,,,,1.0,choice,7.0,A,D,black,red,moons,stars,A,D,A,black,moons,1429.900000006,1.0,1.0,NA,right,1149.700000003,10.0,1.0,1.0,,,
192,0,,html-keyboard-response,192,1120236,0.0-7.8-0.8,d7f3p7hitqi,2022-09-19 14:55:22.492,5f49f3262a3d07563d14a7f1,3,100,38,95,35,28,Male,1344.0,,"
  <table>
  <tr height=300>
    <td width=300 height=300><img src=""static/images/cards/stack_of_black_stars.svg"" width=""175px"" height=""250px""></img></td>
    <td width=300 height=300><img src=""static/images/cards/stack_of_black_bolts.svg"" width=""175px"" height=""250px""></img></td>
  </tr>
  <tr height=200>
    <td width=300><img src=""static/images/keys/w.svg"" width=""35%"" height=""75%""></img></td>
    <td width=300><img src=""static/images/keys/o.svg"" width=""35%"" height=""75%""></img></td>
  </tr>
</table>
  ",79.0,1.0,,,,,,,,,,,,,,,,,,,,,,,,,,
193,0,,html-keyboard-response,193,1121855,0.0-7.8-1.8,d7f3p7hitqi,2022-09-19 14:55:22.492,5f49f3262a3d07563d14a7f1,3,100,38,95,35,28,Male,1108.799999997,,"
  <table>
  <tr height=300>
    <td width=300 height=300><img src=""static/images/cards/back_of_black_bolts.svg"" width=""175px"" height=""250px""></img></td>
    <td width=300 height=300><img src=""static/images/cards/back_of_black_bolts.svg"" width=""175px"" height=""250px""></img></td>
  </tr>
  <tr height=200>
    <td width=300><img src=""static/images/keys/z.svg"" width=""35%"" height=""75%""></img></td>
    <td width=300></td>
  </tr>
</table>
  ",90.0,1.0,,,,,,,,,,,,,,,,,,,,,,,,,,
194,0,,html-keyboard-response,194,1123366,0.0-7.8-2.8,d7f3p7hitqi,2022-09-19 14:55:22.492,5f49f3262a3d07563d14a7f1,3,100,38,95,35,28,Male,,,"
  <table>
  <tr height=300>
    <td width=300 height=300><img src=""static/images/cards/9_of_black_bolts.svg"" width=""175px"" height=""250px""></img></td>
    <td width=300 height=300><img src=""static/images/cards/back_of_black_bolts.svg"" width=""175px"" height=""250px""></img></td>
  </tr>
  <tr height=200>
    <td width=300><img src=""static/images/keys/z.svg"" width=""35%"" height=""75%""></img></td>
    <td width=300></td>
  </tr>
</table>
  ",,,,,,,,,,,,,,,,,,,,,,,,,,,,
195,0,,html-keyboard-response,195,1124883,0.0-7.8-3.8,d7f3p7hitqi,2022-09-19 14:55:22.492,5f49f3262a3d07563d14a7f1,3,100,38,95,35,28,Male,,,"<p style=""font-size:50px"">You win!
+10 points this round!</p>",,,,,,,,,,,,,,,,,,,,,,,,,,,,
196,0,,html-keyboard-response,196,1125396,0.0-7.8-4.8,d7f3p7hitqi,2022-09-19 14:55:22.492,5f49f3262a3d07563d14a7f1,3,100,38,95,35,28,Male,,,,,,1.0,choice,8.0,C,Xnc,black,black,stars,bolts,C,Xnc,Xnc,black,bolts,1344.0,0.0,0.0,1,left,1108.799999997,9.0,1.0,1.0,,,
197,0,,html-keyboard-response,197,1126779,0.0-7.9-0.9,d7f3p7hitqi,2022-09-19 14:55:22.492,5f49f3262a3d07563d14a7f1,3,100,38,95,35,28,Male,1381.6999999955,,"
  <table>
  <tr height=300>
    <td width=300 height=300><img src=""static/images/cards/stack_of_red_bolts.svg"" width=""175px"" height=""250px""></img></td>
    <td width=300 height=300><img src=""static/images/cards/stack_of_red_stars.svg"" width=""175px"" height=""250px""></img></td>
  </tr>
  <tr height=200>
    <td width=300><img src=""static/images/keys/w.svg"" width=""35%"" height=""75%""></img></td>
    <td width=300><img src=""static/images/keys/o.svg"" width=""35%"" height=""75%""></img></td>
  </tr>
</table>
  ",87.0,1.0,,,,,,,,,,,,,,,,,,,,,,,,,,
198,0,,html-keyboard-response,198,1127928,0.0-7.9-1.9,d7f3p7hitqi,2022-09-19 14:55:22.492,5f49f3262a3d07563d14a7f1,3,100,38,95,35,28,Male,638.0,,"
  <table>
  <tr height=300>
    <td width=300 height=300><img src=""static/images/cards/back_of_red_bolts.svg"" width=""175px"" height=""250px""></img></td>
    <td width=300 height=300><img src=""static/images/cards/back_of_red_bolts.svg"" width=""175px"" height=""250px""></img></td>
  </tr>
  <tr height=200>
    <td width=300><img src=""static/images/keys/z.svg"" width=""35%"" height=""75%""></img></td>
    <td width=300><img src=""static/images/keys/m.svg"" width=""35%"" height=""75%""></img></td>
  </tr>
</table>
  ",77.0,1.0,,,,,,,,,,,,,,,,,,,,,,,,,,
199,0,,html-keyboard-response,199,1129441,0.0-7.9-2.9,d7f3p7hitqi,2022-09-19 14:55:22.492,5f49f3262a3d07563d14a7f1,3,100,38,95,35,28,Male,,,"
  <table>
  <tr height=300>
    <td width=300 height=300><img src=""static/images/cards/back_of_red_bolts.svg"" width=""175px"" height=""250px""></img></td>
    <td width=300 height=300><img src=""static/images/cards/2_of_red_bolts.svg"" width=""175px"" height=""250px""></img></td>
  </tr>
  <tr height=200>
    <td width=300><img src=""static/images/keys/z.svg"" width=""35%"" height=""75%""></img></td>
    <td width=300><img src=""static/images/keys/m.svg"" width=""35%"" height=""75%""></img></td>
  </tr>
</table>
  ",,,,,,,,,,,,,,,,,,,,,,,,,,,,
200,0,,html-keyboard-response,200,1130956,0.0-7.9-3.9,d7f3p7hitqi,2022-09-19 14:55:22.492,5f49f3262a3d07563d14a7f1,3,100,38,95,35,28,Male,,,"<p style=""font-size:50px"">You win!
+10 points this round!</p>",,,,,,,,,,,,,,,,,,,,,,,,,,,,
201,0,,html-keyboard-response,201,1131472,0.0-7.9-4.9,d7f3p7hitqi,2022-09-19 14:55:22.492,5f49f3262a3d07563d14a7f1,3,100,38,95,35,28,Male,,,,,,1.0,choice,9.0,D,Xc,red,red,bolts,stars,Xc,D,Xc,red,bolts,1381.6999999955,1.0,0.0,NA,right,638.0,2.0,0.0,1.0,,,
202,0,,html-keyboard-response,202,1133231,0.0-7.10-0.10,d7f3p7hitqi,2022-09-19 14:55:22.492,5f49f3262a3d07563d14a7f1,3,100,38,95,35,28,Male,1758.5,,"
  <table>
  <tr height=300>
    <td width=300 height=300><img src=""static/images/cards/stack_of_red_stars.svg"" width=""175px"" height=""250px""></img></td>
    <td width=300 height=300><img src=""static/images/cards/stack_of_black_stars.svg"" width=""175px"" height=""250px""></img></td>
  </tr>
  <tr height=200>
    <td width=300><img src=""static/images/keys/w.svg"" width=""35%"" height=""75%""></img></td>
    <td width=300><img src=""static/images/keys/o.svg"" width=""35%"" height=""75%""></img></td>
  </tr>
</table>
  ",79.0,1.0,,,,,,,,,,,,,,,,,,,,,,,,,,
203,0,,html-keyboard-response,203,1134928,0.0-7.10-1.10,d7f3p7hitqi,2022-09-19 14:55:22.492,5f49f3262a3d07563d14a7f1,3,100,38,95,35,28,Male,1180.8999999985,,"
  <table>
  <tr height=300>
    <td width=300 height=300><img src=""static/images/cards/back_of_black_stars.svg"" width=""175px"" height=""250px""></img></td>
    <td width=300 height=300><img src=""static/images/cards/back_of_black_stars.svg"" width=""175px"" height=""250px""></img></td>
  </tr>
  <tr height=200>
    <td width=300><img src=""static/images/keys/z.svg"" width=""35%"" height=""75%""></img></td>
    <td width=300><img src=""static/images/keys/m.svg"" width=""35%"" height=""75%""></img></td>
  </tr>
</table>
  ",77.0,1.0,,,,,,,,,,,,,,,,,,,,,,,,,,
204,0,,html-keyboard-response,204,1136443,0.0-7.10-2.10,d7f3p7hitqi,2022-09-19 14:55:22.492,5f49f3262a3d07563d14a7f1,3,100,38,95,35,28,Male,,,"
  <table>
  <tr height=300>
    <td width=300 height=300><img src=""static/images/cards/back_of_black_stars.svg"" width=""175px"" height=""250px""></img></td>
    <td width=300 height=300><img src=""static/images/cards/2_of_black_stars.svg"" width=""175px"" height=""250px""></img></td>
  </tr>
  <tr height=200>
    <td width=300><img src=""static/images/keys/z.svg"" width=""35%"" height=""75%""></img></td>
    <td width=300><img src=""static/images/keys/m.svg"" width=""35%"" height=""75%""></img></td>
  </tr>
</table>
  ",,,,,,,,,,,,,,,,,,,,,,,,,,,,
205,0,,html-keyboard-response,205,1137958,0.0-7.10-3.10,d7f3p7hitqi,2022-09-19 14:55:22.492,5f49f3262a3d07563d14a7f1,3,100,38,95,35,28,Male,,,"<p style=""font-size:50px"">You win!
+10 points this round!</p>",,,,,,,,,,,,,,,,,,,,,,,,,,,,
206,0,,html-keyboard-response,206,1138472,0.0-7.10-4.10,d7f3p7hitqi,2022-09-19 14:55:22.492,5f49f3262a3d07563d14a7f1,3,100,38,95,35,28,Male,,,,,,1.0,choice,10.0,C,D,red,black,stars,stars,D,C,C,black,stars,1758.5,1.0,0.0,NA,right,1180.8999999985,2.0,0.0,1.0,,,
207,0,,html-keyboard-response,207,1139761,0.0-7.11-0.11,d7f3p7hitqi,2022-09-19 14:55:22.492,5f49f3262a3d07563d14a7f1,3,100,38,95,35,28,Male,1287.3999999985,,"
  <table>
  <tr height=300>
    <td width=300 height=300><img src=""static/images/cards/stack_of_red_stars.svg"" width=""175px"" height=""250px""></img></td>
    <td width=300 height=300><img src=""static/images/cards/stack_of_red_moons.svg"" width=""175px"" height=""250px""></img></td>
  </tr>
  <tr height=200>
    <td width=300><img src=""static/images/keys/w.svg"" width=""35%"" height=""75%""></img></td>
    <td width=300><img src=""static/images/keys/o.svg"" width=""35%"" height=""75%""></img></td>
  </tr>
</table>
  ",79.0,1.0,,,,,,,,,,,,,,,,,,,,,,,,,,
208,0,,html-keyboard-response,208,1141242,0.0-7.11-1.11,d7f3p7hitqi,2022-09-19 14:55:22.492,5f49f3262a3d07563d14a7f1,3,100,38,95,35,28,Male,976.3999999985,,"
  <table>
  <tr height=300>
    <td width=300 height=300><img src=""static/images/cards/back_of_red_moons.svg"" width=""175px"" height=""250px""></img></td>
    <td width=300 height=300><img src=""static/images/cards/back_of_red_moons.svg"" width=""175px"" height=""250px""></img></td>
  </tr>
  <tr height=200>
    <td width=300><img src=""static/images/keys/z.svg"" width=""35%"" height=""75%""></img></td>
    <td width=300></td>
  </tr>
</table>
  ",90.0,1.0,,,,,,,,,,,,,,,,,,,,,,,,,,
209,0,,html-keyboard-response,209,1142756,0.0-7.11-2.11,d7f3p7hitqi,2022-09-19 14:55:22.492,5f49f3262a3d07563d14a7f1,3,100,38,95,35,28,Male,,,"
  <table>
  <tr height=300>
    <td width=300 height=300><img src=""static/images/cards/2_of_red_moons.svg"" width=""175px"" height=""250px""></img></td>
    <td width=300 height=300><img src=""static/images/cards/back_of_red_moons.svg"" width=""175px"" height=""250px""></img></td>
  </tr>
  <tr height=200>
    <td width=300><img src=""static/images/keys/z.svg"" width=""35%"" height=""75%""></img></td>
    <td width=300></td>
  </tr>
</table>
  ",,,,,,,,,,,,,,,,,,,,,,,,,,,,
210,0,,html-keyboard-response,210,1144270,0.0-7.11-3.11,d7f3p7hitqi,2022-09-19 14:55:22.492,5f49f3262a3d07563d14a7f1,3,100,38,95,35,28,Male,,,"<p style=""font-size:50px"">You Lose!
No points this round.</p>",,,,,,,,,,,,,,,,,,,,,,,,,,,,
211,0,,html-keyboard-response,211,1144784,0.0-7.11-4.11,d7f3p7hitqi,2022-09-19 14:55:22.492,5f49f3262a3d07563d14a7f1,3,100,38,95,35,28,Male,,,,,,1.0,choice,11.0,B,D,red,red,stars,moons,D,B,B,red,moons,1287.3999999985,0.0,1.0,1,left,976.3999999985,2.0,0.0,0.0,,,
212,0,,html-keyboard-response,212,1146357,0.0-7.12-0.12,d7f3p7hitqi,2022-09-19 14:55:22.492,5f49f3262a3d07563d14a7f1,3,100,38,95,35,28,Male,1571.5,,"
  <table>
  <tr height=300>
    <td width=300 height=300><img src=""static/images/cards/stack_of_black_moons.svg"" width=""175px"" height=""250px""></img></td>
    <td width=300 height=300><img src=""static/images/cards/stack_of_black_stars.svg"" width=""175px"" height=""250px""></img></td>
  </tr>
  <tr height=200>
    <td width=300><img src=""static/images/keys/w.svg"" width=""35%"" height=""75%""></img></td>
    <td width=300><img src=""static/images/keys/o.svg"" width=""35%"" height=""75%""></img></td>
  </tr>
</table>
  ",87.0,1.0,,,,,,,,,,,,,,,,,,,,,,,,,,
213,0,,html-keyboard-response,213,1147861,0.0-7.12-1.12,d7f3p7hitqi,2022-09-19 14:55:22.492,5f49f3262a3d07563d14a7f1,3,100,38,95,35,28,Male,997.6999999955,,"
  <table>
  <tr height=300>
    <td width=300 height=300><img src=""static/images/cards/back_of_black_moons.svg"" width=""175px"" height=""250px""></img></td>
    <td width=300 height=300><img src=""static/images/cards/back_of_black_moons.svg"" width=""175px"" height=""250px""></img></td>
  </tr>
  <tr height=200>
    <td width=300><img src=""static/images/keys/z.svg"" width=""35%"" height=""75%""></img></td>
    <td width=300><img src=""static/images/keys/m.svg"" width=""35%"" height=""75%""></img></td>
  </tr>
</table>
  ",77.0,1.0,,,,,,,,,,,,,,,,,,,,,,,,,,
214,0,,html-keyboard-response,214,1149366,0.0-7.12-2.12,d7f3p7hitqi,2022-09-19 14:55:22.492,5f49f3262a3d07563d14a7f1,3,100,38,95,35,28,Male,,,"
  <table>
  <tr height=300>
    <td width=300 height=300><img src=""static/images/cards/back_of_black_moons.svg"" width=""175px"" height=""250px""></img></td>
    <td width=300 height=300><img src=""static/images/cards/10_of_black_moons.svg"" width=""175px"" height=""250px""></img></td>
  </tr>
  <tr height=200>
    <td width=300><img src=""static/images/keys/z.svg"" width=""35%"" height=""75%""></img></td>
    <td width=300><img src=""static/images/keys/m.svg"" width=""35%"" height=""75%""></img></td>
  </tr>
</table>
  ",,,,,,,,,,,,,,,,,,,,,,,,,,,,
215,0,,html-keyboard-response,215,1150883,0.0-7.12-3.12,d7f3p7hitqi,2022-09-19 14:55:22.492,5f49f3262a3d07563d14a7f1,3,100,38,95,35,28,Male,,,"<p style=""font-size:50px"">You win!
+10 points this round!</p>",,,,,,,,,,,,,,,,,,,,,,,,,,,,
216,0,,html-keyboard-response,216,1151398,0.0-7.12-4.12,d7f3p7hitqi,2022-09-19 14:55:22.492,5f49f3262a3d07563d14a7f1,3,100,38,95,35,28,Male,,,,,,1.0,choice,12.0,A,C,black,black,moons,stars,A,C,A,black,moons,1571.5,1.0,1.0,NA,right,997.6999999955,10.0,1.0,1.0,,,
217,0,,html-keyboard-response,217,1153158,0.0-7.13-0.13,d7f3p7hitqi,2022-09-19 14:55:22.492,5f49f3262a3d07563d14a7f1,3,100,38,95,35,28,Male,1758.799999997,,"
  <table>
  <tr height=300>
    <td width=300 height=300><img src=""static/images/cards/stack_of_black_moons.svg"" width=""175px"" height=""250px""></img></td>
    <td width=300 height=300><img src=""static/images/cards/stack_of_red_moons.svg"" width=""175px"" height=""250px""></img></td>
  </tr>
  <tr height=200>
    <td width=300><img src=""static/images/keys/w.svg"" width=""35%"" height=""75%""></img></td>
    <td width=300><img src=""static/images/keys/o.svg"" width=""35%"" height=""75%""></img></td>
  </tr>
</table>
  ",87.0,1.0,,,,,,,,,,,,,,,,,,,,,,,,,,
218,0,,html-keyboard-response,218,1154801,0.0-7.13-1.13,d7f3p7hitqi,2022-09-19 14:55:22.492,5f49f3262a3d07563d14a7f1,3,100,38,95,35,28,Male,1138.299999997,,"
  <table>
  <tr height=300>
    <td width=300 height=300><img src=""static/images/cards/back_of_black_moons.svg"" width=""175px"" height=""250px""></img></td>
    <td width=300 height=300><img src=""static/images/cards/back_of_black_moons.svg"" width=""175px"" height=""250px""></img></td>
  </tr>
  <tr height=200>
    <td width=300><img src=""static/images/keys/z.svg"" width=""35%"" height=""75%""></img></td>
    <td width=300><img src=""static/images/keys/m.svg"" width=""35%"" height=""75%""></img></td>
  </tr>
</table>
  ",77.0,1.0,,,,,,,,,,,,,,,,,,,,,,,,,,
219,0,,html-keyboard-response,219,1156312,0.0-7.13-2.13,d7f3p7hitqi,2022-09-19 14:55:22.492,5f49f3262a3d07563d14a7f1,3,100,38,95,35,28,Male,,,"
  <table>
  <tr height=300>
    <td width=300 height=300><img src=""static/images/cards/back_of_black_moons.svg"" width=""175px"" height=""250px""></img></td>
    <td width=300 height=300><img src=""static/images/cards/2_of_black_moons.svg"" width=""175px"" height=""250px""></img></td>
  </tr>
  <tr height=200>
    <td width=300><img src=""static/images/keys/z.svg"" width=""35%"" height=""75%""></img></td>
    <td width=300><img src=""static/images/keys/m.svg"" width=""35%"" height=""75%""></img></td>
  </tr>
</table>
  ",,,,,,,,,,,,,,,,,,,,,,,,,,,,
220,0,,html-keyboard-response,220,1157838,0.0-7.13-3.13,d7f3p7hitqi,2022-09-19 14:55:22.492,5f49f3262a3d07563d14a7f1,3,100,38,95,35,28,Male,,,"<p style=""font-size:50px"">You Lose!
No points this round.</p>",,,,,,,,,,,,,,,,,,,,,,,,,,,,
221,0,,html-keyboard-response,221,1158348,0.0-7.13-4.13,d7f3p7hitqi,2022-09-19 14:55:22.492,5f49f3262a3d07563d14a7f1,3,100,38,95,35,28,Male,,,,,,1.0,choice,13.0,A,B,black,red,moons,moons,A,B,A,black,moons,1758.799999997,1.0,1.0,NA,right,1138.299999997,2.0,0.0,0.0,,,
222,0,,html-keyboard-response,222,1159689,0.0-7.14-0.14,d7f3p7hitqi,2022-09-19 14:55:22.492,5f49f3262a3d07563d14a7f1,3,100,38,95,35,28,Male,1339.700000003,,"
  <table>
  <tr height=300>
    <td width=300 height=300><img src=""static/images/cards/stack_of_red_moons.svg"" width=""175px"" height=""250px""></img></td>
    <td width=300 height=300><img src=""static/images/cards/stack_of_black_stars.svg"" width=""175px"" height=""250px""></img></td>
  </tr>
  <tr height=200>
    <td width=300><img src=""static/images/keys/w.svg"" width=""35%"" height=""75%""></img></td>
    <td width=300><img src=""static/images/keys/o.svg"" width=""35%"" height=""75%""></img></td>
  </tr>
</table>
  ",87.0,1.0,,,,,,,,,,,,,,,,,,,,,,,,,,
223,0,,html-keyboard-response,223,1161118,0.0-7.14-1.14,d7f3p7hitqi,2022-09-19 14:55:22.492,5f49f3262a3d07563d14a7f1,3,100,38,95,35,28,Male,923.799999997,,"
  <table>
  <tr height=300>
    <td width=300 height=300><img src=""static/images/cards/back_of_red_moons.svg"" width=""175px"" height=""250px""></img></td>
    <td width=300 height=300><img src=""static/images/cards/back_of_red_moons.svg"" width=""175px"" height=""250px""></img></td>
  </tr>
  <tr height=200>
    <td width=300><img src=""static/images/keys/z.svg"" width=""35%"" height=""75%""></img></td>
    <td width=300></td>
  </tr>
</table>
  ",90.0,1.0,,,,,,,,,,,,,,,,,,,,,,,,,,
224,0,,html-keyboard-response,224,1162623,0.0-7.14-2.14,d7f3p7hitqi,2022-09-19 14:55:22.492,5f49f3262a3d07563d14a7f1,3,100,38,95,35,28,Male,,,"
  <table>
  <tr height=300>
    <td width=300 height=300><img src=""static/images/cards/9_of_red_moons.svg"" width=""175px"" height=""250px""></img></td>
    <td width=300 height=300><img src=""static/images/cards/back_of_red_moons.svg"" width=""175px"" height=""250px""></img></td>
  </tr>
  <tr height=200>
    <td width=300><img src=""static/images/keys/z.svg"" width=""35%"" height=""75%""></img></td>
    <td width=300></td>
  </tr>
</table>
  ",,,,,,,,,,,,,,,,,,,,,,,,,,,,
225,0,,html-keyboard-response,225,1164137,0.0-7.14-3.14,d7f3p7hitqi,2022-09-19 14:55:22.492,5f49f3262a3d07563d14a7f1,3,100,38,95,35,28,Male,,,"<p style=""font-size:50px"">You win!
+10 points this round!</p>",,,,,,,,,,,,,,,,,,,,,,,,,,,,
226,0,,html-keyboard-response,226,1164655,0.0-7.14-4.14,d7f3p7hitqi,2022-09-19 14:55:22.492,5f49f3262a3d07563d14a7f1,3,100,38,95,35,28,Male,,,,,,1.0,choice,14.0,B,C,red,black,moons,stars,B,C,B,red,moons,1339.700000003,0.0,1.0,1,left,923.799999997,9.0,1.0,1.0,,,
227,0,,html-keyboard-response,227,1166312,0.0-7.15-0.15,d7f3p7hitqi,2022-09-19 14:55:22.492,5f49f3262a3d07563d14a7f1,3,100,38,95,35,28,Male,1656.0,,"
  <table>
  <tr height=300>
    <td width=300 height=300><img src=""static/images/cards/stack_of_red_moons.svg"" width=""175px"" height=""250px""></img></td>
    <td width=300 height=300><img src=""static/images/cards/stack_of_black_moons.svg"" width=""175px"" height=""250px""></img></td>
  </tr>
  <tr height=200>
    <td width=300><img src=""static/images/keys/w.svg"" width=""35%"" height=""75%""></img></td>
    <td width=300><img src=""static/images/keys/o.svg"" width=""35%"" height=""75%""></img></td>
  </tr>
</table>
  ",87.0,1.0,,,,,,,,,,,,,,,,,,,,,,,,,,
228,0,,html-keyboard-response,228,1167747,0.0-7.15-1.15,d7f3p7hitqi,2022-09-19 14:55:22.492,5f49f3262a3d07563d14a7f1,3,100,38,95,35,28,Male,928.0,,"
  <table>
  <tr height=300>
    <td width=300 height=300><img src=""static/images/cards/back_of_red_moons.svg"" width=""175px"" height=""250px""></img></td>
    <td width=300 height=300><img src=""static/images/cards/back_of_red_moons.svg"" width=""175px"" height=""250px""></img></td>
  </tr>
  <tr height=200>
    <td width=300><img src=""static/images/keys/z.svg"" width=""35%"" height=""75%""></img></td>
    <td width=300></td>
  </tr>
</table>
  ",90.0,1.0,,,,,,,,,,,,,,,,,,,,,,,,,,
229,0,,html-keyboard-response,229,1169263,0.0-7.15-2.15,d7f3p7hitqi,2022-09-19 14:55:22.492,5f49f3262a3d07563d14a7f1,3,100,38,95,35,28,Male,,,"
  <table>
  <tr height=300>
    <td width=300 height=300><img src=""static/images/cards/8_of_red_moons.svg"" width=""175px"" height=""250px""></img></td>
    <td width=300 height=300><img src=""static/images/cards/back_of_red_moons.svg"" width=""175px"" height=""250px""></img></td>
  </tr>
  <tr height=200>
    <td width=300><img src=""static/images/keys/z.svg"" width=""35%"" height=""75%""></img></td>
    <td width=300></td>
  </tr>
</table>
  ",,,,,,,,,,,,,,,,,,,,,,,,,,,,
230,0,,html-keyboard-response,230,1170778,0.0-7.15-3.15,d7f3p7hitqi,2022-09-19 14:55:22.492,5f49f3262a3d07563d14a7f1,3,100,38,95,35,28,Male,,,"<p style=""font-size:50px"">You win!
+10 points this round!</p>",,,,,,,,,,,,,,,,,,,,,,,,,,,,
231,0,,html-keyboard-response,231,1171291,0.0-7.15-4.15,d7f3p7hitqi,2022-09-19 14:55:22.492,5f49f3262a3d07563d14a7f1,3,100,38,95,35,28,Male,,,,,,1.0,choice,15.0,A,B,red,black,moons,moons,B,A,B,red,moons,1656.0,0.0,1.0,1,left,928.0,8.0,1.0,1.0,,,
232,0,,html-keyboard-response,232,1172232,0.0-7.16-0.16,d7f3p7hitqi,2022-09-19 14:55:22.492,5f49f3262a3d07563d14a7f1,3,100,38,95,35,28,Male,939.6999999955,,"
  <table>
  <tr height=300>
    <td width=300 height=300><img src=""static/images/cards/stack_of_black_moons.svg"" width=""175px"" height=""250px""></img></td>
    <td width=300 height=300><img src=""static/images/cards/stack_of_red_moons.svg"" width=""175px"" height=""250px""></img></td>
  </tr>
  <tr height=200>
    <td width=300><img src=""static/images/keys/w.svg"" width=""35%"" height=""75%""></img></td>
    <td width=300><img src=""static/images/keys/o.svg"" width=""35%"" height=""75%""></img></td>
  </tr>
</table>
  ",79.0,1.0,,,,,,,,,,,,,,,,,,,,,,,,,,
233,0,,html-keyboard-response,233,1173595,0.0-7.16-1.16,d7f3p7hitqi,2022-09-19 14:55:22.492,5f49f3262a3d07563d14a7f1,3,100,38,95,35,28,Male,854.8999999985,,"
  <table>
  <tr height=300>
    <td width=300 height=300><img src=""static/images/cards/back_of_red_moons.svg"" width=""175px"" height=""250px""></img></td>
    <td width=300 height=300><img src=""static/images/cards/back_of_red_moons.svg"" width=""175px"" height=""250px""></img></td>
  </tr>
  <tr height=200>
    <td width=300></td>
    <td width=300><img src=""static/images/keys/m.svg"" width=""35%"" height=""75%""></img></td>
  </tr>
</table>
  ",77.0,1.0,,,,,,,,,,,,,,,,,,,,,,,,,,
234,0,,html-keyboard-response,234,1175103,0.0-7.16-2.16,d7f3p7hitqi,2022-09-19 14:55:22.492,5f49f3262a3d07563d14a7f1,3,100,38,95,35,28,Male,,,"
  <table>
  <tr height=300>
