,index,success,trial_type,trial_index,time_elapsed,internal_node_id,subject,date,prol_id,ctbl,sense_of_control_A,sense_of_control_B,sense_of_control_C,sense_of_control_D,age,gender,rt,url,stimulus,key_press,npress,is_data_trial,phase,trial,deck1,deck2,col1,col2,sym1,sym2,deck_l,deck_r,chosen_deck,chosen_col,chosen_sym,deck_rt,choose_choice,mutual_info,hidden_key,chosen_card,card_rt,player_num,win_card,outcome,mock_rating,response,responses
0,0,1.0,fullscreen,0,12136,0.0-0.0,dadu83g7ev6,2022-09-19 16:21:57.682,6060f5cf903a11469f49a6d0,0,55,56,42,42,43,female,,,,,,,,,,,,,,,,,,,,,,,,,,,,,,,
1,0,,external-html,1,19754,0.0-1.0,dadu83g7ev6,2022-09-19 16:21:57.682,6060f5cf903a11469f49a6d0,0,55,56,42,42,43,female,7519.5999999046,static/js/sub/consent.html,,,,,,,,,,,,,,,,,,,,,,,,,,,,,
2,0,,call-function,2,19755,0.0-2.0,dadu83g7ev6,2022-09-19 16:21:57.682,6060f5cf903a11469f49a6d0,0,55,56,42,42,43,female,,,,,,,,,,,,,,,,,,,,,,,,,,,,,,,
3,0,,image-keyboard-response,3,31704,0.0-3.0-0.0,dadu83g7ev6,2022-09-19 16:21:57.682,6060f5cf903a11469f49a6d0,0,55,56,42,42,43,female,11948.7999999523,,static/images/instructions_CB_0/Slide1.png,39.0,,,,,,,,,,,,,,,,,,,,,,,,,,,
4,0,,image-keyboard-response,4,40196,0.0-3.1-0.1,dadu83g7ev6,2022-09-19 16:21:57.682,6060f5cf903a11469f49a6d0,0,55,56,42,42,43,female,8491.0,,static/images/instructions_CB_0/Slide2.png,39.0,,,,,,,,,,,,,,,,,,,,,,,,,,,
5,0,,image-keyboard-response,5,45973,0.0-3.2-0.2,dadu83g7ev6,2022-09-19 16:21:57.682,6060f5cf903a11469f49a6d0,0,55,56,42,42,43,female,5776.5,,static/images/instructions_CB_0/Slide3.png,39.0,,,,,,,,,,,,,,,,,,,,,,,,,,,
6,0,,image-keyboard-response,6,50674,0.0-3.3-0.3,dadu83g7ev6,2022-09-19 16:21:57.682,6060f5cf903a11469f49a6d0,0,55,56,42,42,43,female,4700.2000000477,,static/images/instructions_CB_0/Slide4.png,39.0,,,,,,,,,,,,,,,,,,,,,,,,,,,
7,0,,image-keyboard-response,7,57169,0.0-3.4-0.4,dadu83g7ev6,2022-09-19 16:21:57.682,6060f5cf903a11469f49a6d0,0,55,56,42,42,43,female,6494.6999998093,,static/images/instructions_CB_0/Slide5.png,39.0,,,,,,,,,,,,,,,,,,,,,,,,,,,
8,0,,image-keyboard-response,8,59879,0.0-3.5-0.5,dadu83g7ev6,2022-09-19 16:21:57.682,6060f5cf903a11469f49a6d0,0,55,56,42,42,43,female,2709.3000001907,,static/images/instructions_CB_0/Slide6.png,39.0,,,,,,,,,,,,,,,,,,,,,,,,,,,
9,0,,image-keyboard-response,9,63837,0.0-3.6-0.6,dadu83g7ev6,2022-09-19 16:21:57.682,6060f5cf903a11469f49a6d0,0,55,56,42,42,43,female,3957.6000001431,,static/images/instructions_CB_0/Slide7.png,39.0,,,,,,,,,,,,,,,,,,,,,,,,,,,
10,0,,image-keyboard-response,10,78713,0.0-3.7-0.7,dadu83g7ev6,2022-09-19 16:21:57.682,6060f5cf903a11469f49a6d0,0,55,56,42,42,43,female,14875.2999999523,,static/images/instructions_CB_0/Slide8.png,39.0,,,,,,,,,,,,,,,,,,,,,,,,,,,
11,0,,image-keyboard-response,11,87770,0.0-3.8-0.8,dadu83g7ev6,2022-09-19 16:21:57.682,6060f5cf903a11469f49a6d0,0,55,56,42,42,43,female,9056.6000001431,,static/images/instructions_CB_0/Slide9.png,39.0,,,,,,,,,,,,,,,,,,,,,,,,,,,
12,0,,image-keyboard-response,12,99606,0.0-3.9-0.9,dadu83g7ev6,2022-09-19 16:21:57.682,6060f5cf903a11469f49a6d0,0,55,56,42,42,43,female,11835.3999998569,,static/images/instructions_CB_0/Slide10.png,39.0,,,,,,,,,,,,,,,,,,,,,,,,,,,
13,0,,image-keyboard-response,13,112874,0.0-3.10-0.10,dadu83g7ev6,2022-09-19 16:21:57.682,6060f5cf903a11469f49a6d0,0,55,56,42,42,43,female,13267.0,,static/images/instructions_CB_0/Slide11.png,39.0,,,,,,,,,,,,,,,,,,,,,,,,,,,
14,0,,image-keyboard-response,14,129424,0.0-3.11-0.11,dadu83g7ev6,2022-09-19 16:21:57.682,6060f5cf903a11469f49a6d0,0,55,56,42,42,43,female,16549.9000000954,,static/images/instructions_CB_0/Slide12.png,39.0,,,,,,,,,,,,,,,,,,,,,,,,,,,
15,0,,image-keyboard-response,15,142210,0.0-3.12-0.12,dadu83g7ev6,2022-09-19 16:21:57.682,6060f5cf903a11469f49a6d0,0,55,56,42,42,43,female,12785.3999998569,,static/images/instructions_CB_0/Slide13.png,39.0,,,,,,,,,,,,,,,,,,,,,,,,,,,
16,0,,image-keyboard-response,16,151819,0.0-3.13-0.13,dadu83g7ev6,2022-09-19 16:21:57.682,6060f5cf903a11469f49a6d0,0,55,56,42,42,43,female,9608.6000001431,,static/images/instructions_CB_0/Slide14.png,39.0,,,,,,,,,,,,,,,,,,,,,,,,,,,
17,0,,image-keyboard-response,17,158302,0.0-3.14-0.14,dadu83g7ev6,2022-09-19 16:21:57.682,6060f5cf903a11469f49a6d0,0,55,56,42,42,43,female,6481.7999999523,,static/images/instructions_CB_0/Slide15.png,39.0,,,,,,,,,,,,,,,,,,,,,,,,,,,
18,0,,image-keyboard-response,18,162975,0.0-3.15-0.15,dadu83g7ev6,2022-09-19 16:21:57.682,6060f5cf903a11469f49a6d0,0,55,56,42,42,43,female,4672.9000000954,,static/images/instructions_CB_0/Slide16.png,39.0,,,,,,,,,,,,,,,,,,,,,,,,,,,
19,0,,image-keyboard-response,19,171291,0.0-3.16-0.16,dadu83g7ev6,2022-09-19 16:21:57.682,6060f5cf903a11469f49a6d0,0,55,56,42,42,43,female,8315.7999999523,,static/images/instructions_CB_0/Slide17.png,39.0,,,,,,,,,,,,,,,,,,,,,,,,,,,
20,0,,image-keyboard-response,20,194491,0.0-3.17-0.17,dadu83g7ev6,2022-09-19 16:21:57.682,6060f5cf903a11469f49a6d0,0,55,56,42,42,43,female,23198.9000000954,,static/images/instructions_CB_0/Slide18.png,39.0,,,,,,,,,,,,,,,,,,,,,,,,,,,
21,0,,image-keyboard-response,21,209626,0.0-3.18-0.18,dadu83g7ev6,2022-09-19 16:21:57.682,6060f5cf903a11469f49a6d0,0,55,56,42,42,43,female,15134.6999998093,,static/images/instructions_CB_0/Slide19.png,39.0,,,,,,,,,,,,,,,,,,,,,,,,,,,
22,0,,html-keyboard-response,22,211133,0.0-4.0-0.0,dadu83g7ev6,2022-09-19 16:21:57.682,6060f5cf903a11469f49a6d0,0,55,56,42,42,43,female,,,"<img src=""static/images/cards/stack_of_red_stars.svg"" width=""175px"" height=""250px""></img>",,,,,,,,,,,,,,,,,,,,,,,,,,,,
23,0,,html-keyboard-response,23,213998,0.0-4.0-1.0,dadu83g7ev6,2022-09-19 16:21:57.682,6060f5cf903a11469f49a6d0,0,55,56,42,42,43,female,2349.5999999046,,"
  <table>
  <tr height=300>
    <td width=300 height=300><img src=""static/images/cards/back_of_red_stars.svg"" width=""175px"" height=""250px""></img></td>
    <td width=300 height=300><img src=""static/images/cards/back_of_red_stars.svg"" width=""175px"" height=""250px""></img></td>
  </tr>
  <tr height=200>
    <td width=300><img src=""static/images/keys/z.svg"" width=""35%"" height=""75%""></img></td>
    <td width=300><img src=""static/images/keys/m.svg"" width=""35%"" height=""75%""></img></td>
  </tr>
</table>
  ",77.0,1.0,,,,,,,,,,,,,,,,,,,,,,,,,,
24,0,,html-keyboard-response,24,215504,0.0-4.0-2.0,dadu83g7ev6,2022-09-19 16:21:57.682,6060f5cf903a11469f49a6d0,0,55,56,42,42,43,female,,,"
  <table>
  <tr height=300>
    <td width=300 height=300><img src=""static/images/cards/back_of_red_stars.svg"" width=""175px"" height=""250px""></img></td>
    <td width=300 height=300><img src=""static/images/cards/1_of_red_stars.svg"" width=""175px"" height=""250px""></img></td>
  </tr>
  <tr height=200>
    <td width=300><img src=""static/images/keys/z.svg"" width=""35%"" height=""75%""></img></td>
    <td width=300><img src=""static/images/keys/m.svg"" width=""35%"" height=""75%""></img></td>
  </tr>
</table>
  ",,,,,,,,,,,,,,,,,,,,,,,,,,,,
25,0,,html-keyboard-response,25,217018,0.0-4.0-3.0,dadu83g7ev6,2022-09-19 16:21:57.682,6060f5cf903a11469f49a6d0,0,55,56,42,42,43,female,,,"<p style=""font-size:50px"">You Lose!
No points this round.</p>",,,,,,,,,,,,,,,,,,,,,,,,,,,,
26,0,,html-keyboard-response,26,217531,0.0-4.0-4.0,dadu83g7ev6,2022-09-19 16:21:57.682,6060f5cf903a11469f49a6d0,0,55,56,42,42,43,female,,,,,,1.0,learning,0.0,A,,red,,stars,,,,A,red,stars,,1.0,1.0,NA,right,2349.5999999046,1.0,0.0,0.0,,,
27,0,,html-keyboard-response,27,219039,0.0-4.1-0.1,dadu83g7ev6,2022-09-19 16:21:57.682,6060f5cf903a11469f49a6d0,0,55,56,42,42,43,female,,,"<img src=""static/images/cards/stack_of_black_stars.svg"" width=""175px"" height=""250px""></img>",,,,,,,,,,,,,,,,,,,,,,,,,,,,
28,0,,html-keyboard-response,28,221413,0.0-4.1-1.1,dadu83g7ev6,2022-09-19 16:21:57.682,6060f5cf903a11469f49a6d0,0,55,56,42,42,43,female,1870.5,,"
  <table>
  <tr height=300>
    <td width=300 height=300><img src=""static/images/cards/back_of_black_stars.svg"" width=""175px"" height=""250px""></img></td>
    <td width=300 height=300><img src=""static/images/cards/back_of_black_stars.svg"" width=""175px"" height=""250px""></img></td>
  </tr>
  <tr height=200>
    <td width=300></td>
    <td width=300><img src=""static/images/keys/m.svg"" width=""35%"" height=""75%""></img></td>
  </tr>
</table>
  ",77.0,1.0,,,,,,,,,,,,,,,,,,,,,,,,,,
29,0,,html-keyboard-response,29,222921,0.0-4.1-2.1,dadu83g7ev6,2022-09-19 16:21:57.682,6060f5cf903a11469f49a6d0,0,55,56,42,42,43,female,,,"
  <table>
  <tr height=300>
    <td width=300 height=300><img src=""static/images/cards/back_of_black_stars.svg"" width=""175px"" height=""250px""></img></td>
    <td width=300 height=300><img src=""static/images/cards/4_of_black_stars.svg"" width=""175px"" height=""250px""></img></td>
  </tr>
  <tr height=200>
    <td width=300></td>
    <td width=300><img src=""static/images/keys/m.svg"" width=""35%"" height=""75%""></img></td>
  </tr>
</table>
  ",,,,,,,,,,,,,,,,,,,,,,,,,,,,
30,0,,html-keyboard-response,30,224438,0.0-4.1-3.1,dadu83g7ev6,2022-09-19 16:21:57.682,6060f5cf903a11469f49a6d0,0,55,56,42,42,43,female,,,"<p style=""font-size:50px"">You Lose!
No points this round.</p>",,,,,,,,,,,,,,,,,,,,,,,,,,,,
31,0,,html-keyboard-response,31,224951,0.0-4.1-4.1,dadu83g7ev6,2022-09-19 16:21:57.682,6060f5cf903a11469f49a6d0,0,55,56,42,42,43,female,,,,,,1.0,learning,1.0,B,,black,,stars,,,,B,black,stars,,0.0,1.0,0,right,1870.5,4.0,0.0,0.0,,,
32,0,,html-keyboard-response,32,226458,0.0-4.2-0.2,dadu83g7ev6,2022-09-19 16:21:57.682,6060f5cf903a11469f49a6d0,0,55,56,42,42,43,female,,,"<img src=""static/images/cards/stack_of_red_moons.svg"" width=""175px"" height=""250px""></img>",,,,,,,,,,,,,,,,,,,,,,,,,,,,
33,0,,html-keyboard-response,33,229069,0.0-4.2-1.2,dadu83g7ev6,2022-09-19 16:21:57.682,6060f5cf903a11469f49a6d0,0,55,56,42,42,43,female,2101.6000001431,,"
  <table>
  <tr height=300>
    <td width=300 height=300><img src=""static/images/cards/back_of_red_moons.svg"" width=""175px"" height=""250px""></img></td>
    <td width=300 height=300><img src=""static/images/cards/back_of_red_moons.svg"" width=""175px"" height=""250px""></img></td>
  </tr>
  <tr height=200>
    <td width=300><img src=""static/images/keys/z.svg"" width=""35%"" height=""75%""></img></td>
    <td width=300><img src=""static/images/keys/m.svg"" width=""35%"" height=""75%""></img></td>
  </tr>
</table>
  ",90.0,1.0,,,,,,,,,,,,,,,,,,,,,,,,,,
34,0,,html-keyboard-response,34,230575,0.0-4.2-2.2,dadu83g7ev6,2022-09-19 16:21:57.682,6060f5cf903a11469f49a6d0,0,55,56,42,42,43,female,,,"
  <table>
  <tr height=300>
    <td width=300 height=300><img src=""static/images/cards/9_of_red_moons.svg"" width=""175px"" height=""250px""></img></td>
    <td width=300 height=300><img src=""static/images/cards/back_of_red_moons.svg"" width=""175px"" height=""250px""></img></td>
  </tr>
  <tr height=200>
    <td width=300><img src=""static/images/keys/z.svg"" width=""35%"" height=""75%""></img></td>
    <td width=300><img src=""static/images/keys/m.svg"" width=""35%"" height=""75%""></img></td>
  </tr>
</table>
  ",,,,,,,,,,,,,,,,,,,,,,,,,,,,
35,0,,html-keyboard-response,35,232090,0.0-4.2-3.2,dadu83g7ev6,2022-09-19 16:21:57.682,6060f5cf903a11469f49a6d0,0,55,56,42,42,43,female,,,"<p style=""font-size:50px"">You Lose!
No points this round.</p>",,,,,,,,,,,,,,,,,,,,,,,,,,,,
36,0,,html-keyboard-response,36,232608,0.0-4.2-4.2,dadu83g7ev6,2022-09-19 16:21:57.682,6060f5cf903a11469f49a6d0,0,55,56,42,42,43,female,,,,,,1.0,learning,2.0,C,,red,,moons,,,,C,red,moons,,1.0,0.0,NA,left,2101.6000001431,9.0,1.0,0.0,,,
37,0,,html-keyboard-response,37,234122,0.0-4.3-0.3,dadu83g7ev6,2022-09-19 16:21:57.682,6060f5cf903a11469f49a6d0,0,55,56,42,42,43,female,,,"<img src=""static/images/cards/stack_of_black_moons.svg"" width=""175px"" height=""250px""></img>",,,,,,,,,,,,,,,,,,,,,,,,,,,,
38,0,,html-keyboard-response,38,235602,0.0-4.3-1.3,dadu83g7ev6,2022-09-19 16:21:57.682,6060f5cf903a11469f49a6d0,0,55,56,42,42,43,female,966.5,,"
  <table>
  <tr height=300>
    <td width=300 height=300><img src=""static/images/cards/back_of_black_moons.svg"" width=""175px"" height=""250px""></img></td>
    <td width=300 height=300><img src=""static/images/cards/back_of_black_moons.svg"" width=""175px"" height=""250px""></img></td>
  </tr>
  <tr height=200>
    <td width=300><img src=""static/images/keys/z.svg"" width=""35%"" height=""75%""></img></td>
    <td width=300></td>
  </tr>
</table>
  ",90.0,1.0,,,,,,,,,,,,,,,,,,,,,,,,,,
39,0,,html-keyboard-response,39,237113,0.0-4.3-2.3,dadu83g7ev6,2022-09-19 16:21:57.682,6060f5cf903a11469f49a6d0,0,55,56,42,42,43,female,,,"
  <table>
  <tr height=300>
    <td width=300 height=300><img src=""static/images/cards/8_of_black_moons.svg"" width=""175px"" height=""250px""></img></td>
    <td width=300 height=300><img src=""static/images/cards/back_of_black_moons.svg"" width=""175px"" height=""250px""></img></td>
  </tr>
  <tr height=200>
    <td width=300><img src=""static/images/keys/z.svg"" width=""35%"" height=""75%""></img></td>
    <td width=300></td>
  </tr>
</table>
  ",,,,,,,,,,,,,,,,,,,,,,,,,,,,
40,0,,html-keyboard-response,40,238634,0.0-4.3-3.3,dadu83g7ev6,2022-09-19 16:21:57.682,6060f5cf903a11469f49a6d0,0,55,56,42,42,43,female,,,"<p style=""font-size:50px"">You win!
+10 points this round!</p>",,,,,,,,,,,,,,,,,,,,,,,,,,,,
41,0,,html-keyboard-response,41,239146,0.0-4.3-4.3,dadu83g7ev6,2022-09-19 16:21:57.682,6060f5cf903a11469f49a6d0,0,55,56,42,42,43,female,,,,,,1.0,learning,3.0,D,,black,,moons,,,,D,black,moons,,0.0,0.0,1,left,966.5,8.0,1.0,1.0,,,
42,0,,html-keyboard-response,42,240658,0.0-4.4-0.4,dadu83g7ev6,2022-09-19 16:21:57.682,6060f5cf903a11469f49a6d0,0,55,56,42,42,43,female,,,"<img src=""static/images/cards/stack_of_red_bolts.svg"" width=""175px"" height=""250px""></img>",,,,,,,,,,,,,,,,,,,,,,,,,,,,
43,0,,html-keyboard-response,43,241799,0.0-4.4-1.4,dadu83g7ev6,2022-09-19 16:21:57.682,6060f5cf903a11469f49a6d0,0,55,56,42,42,43,female,631.9000000954,,"
  <table>
  <tr height=300>
    <td width=300 height=300><img src=""static/images/cards/back_of_red_bolts.svg"" width=""175px"" height=""250px""></img></td>
    <td width=300 height=300><img src=""static/images/cards/back_of_red_bolts.svg"" width=""175px"" height=""250px""></img></td>
  </tr>
  <tr height=200>
    <td width=300><img src=""static/images/keys/z.svg"" width=""35%"" height=""75%""></img></td>
    <td width=300><img src=""static/images/keys/m.svg"" width=""35%"" height=""75%""></img></td>
  </tr>
</table>
  ",77.0,1.0,,,,,,,,,,,,,,,,,,,,,,,,,,
44,0,,html-keyboard-response,44,243306,0.0-4.4-2.4,dadu83g7ev6,2022-09-19 16:21:57.682,6060f5cf903a11469f49a6d0,0,55,56,42,42,43,female,,,"
  <table>
  <tr height=300>
    <td width=300 height=300><img src=""static/images/cards/back_of_red_bolts.svg"" width=""175px"" height=""250px""></img></td>
    <td width=300 height=300><img src=""static/images/cards/1_of_red_bolts.svg"" width=""175px"" height=""250px""></img></td>
  </tr>
  <tr height=200>
    <td width=300><img src=""static/images/keys/z.svg"" width=""35%"" height=""75%""></img></td>
    <td width=300><img src=""static/images/keys/m.svg"" width=""35%"" height=""75%""></img></td>
  </tr>
</table>
  ",,,,,,,,,,,,,,,,,,,,,,,,,,,,
45,0,,html-keyboard-response,45,244825,0.0-4.4-3.4,dadu83g7ev6,2022-09-19 16:21:57.682,6060f5cf903a11469f49a6d0,0,55,56,42,42,43,female,,,"<p style=""font-size:50px"">You win!
+10 points this round!</p>",,,,,,,,,,,,,,,,,,,,,,,,,,,,
46,0,,html-keyboard-response,46,245332,0.0-4.4-4.4,dadu83g7ev6,2022-09-19 16:21:57.682,6060f5cf903a11469f49a6d0,0,55,56,42,42,43,female,,,,,,1.0,learning,4.0,Xc,,red,,bolts,,,,Xc,red,bolts,,1.0,0.0,NA,right,631.9000000954,1.0,0.0,1.0,,,
47,0,,html-keyboard-response,47,246842,0.0-4.5-0.5,dadu83g7ev6,2022-09-19 16:21:57.682,6060f5cf903a11469f49a6d0,0,55,56,42,42,43,female,,,"<img src=""static/images/cards/stack_of_black_bolts.svg"" width=""175px"" height=""250px""></img>",,,,,,,,,,,,,,,,,,,,,,,,,,,,
48,0,,html-keyboard-response,48,248203,0.0-4.5-1.5,dadu83g7ev6,2022-09-19 16:21:57.682,6060f5cf903a11469f49a6d0,0,55,56,42,42,43,female,852.7999999523,,"
  <table>
  <tr height=300>
    <td width=300 height=300><img src=""static/images/cards/back_of_black_bolts.svg"" width=""175px"" height=""250px""></img></td>
    <td width=300 height=300><img src=""static/images/cards/back_of_black_bolts.svg"" width=""175px"" height=""250px""></img></td>
  </tr>
  <tr height=200>
    <td width=300></td>
    <td width=300><img src=""static/images/keys/m.svg"" width=""35%"" height=""75%""></img></td>
  </tr>
</table>
  ",77.0,1.0,,,,,,,,,,,,,,,,,,,,,,,,,,
49,0,,html-keyboard-response,49,249714,0.0-4.5-2.5,dadu83g7ev6,2022-09-19 16:21:57.682,6060f5cf903a11469f49a6d0,0,55,56,42,42,43,female,,,"
  <table>
  <tr height=300>
    <td width=300 height=300><img src=""static/images/cards/back_of_black_bolts.svg"" width=""175px"" height=""250px""></img></td>
    <td width=300 height=300><img src=""static/images/cards/1_of_black_bolts.svg"" width=""175px"" height=""250px""></img></td>
  </tr>
  <tr height=200>
    <td width=300></td>
    <td width=300><img src=""static/images/keys/m.svg"" width=""35%"" height=""75%""></img></td>
  </tr>
</table>
  ",,,,,,,,,,,,,,,,,,,,,,,,,,,,
50,0,,html-keyboard-response,50,251234,0.0-4.5-3.5,dadu83g7ev6,2022-09-19 16:21:57.682,6060f5cf903a11469f49a6d0,0,55,56,42,42,43,female,,,"<p style=""font-size:50px"">You win!
+10 points this round!</p>",,,,,,,,,,,,,,,,,,,,,,,,,,,,
51,0,,html-keyboard-response,51,251749,0.0-4.5-4.5,dadu83g7ev6,2022-09-19 16:21:57.682,6060f5cf903a11469f49a6d0,0,55,56,42,42,43,female,,,,,,1.0,learning,5.0,Xnc,,black,,bolts,,,,Xnc,black,bolts,,0.0,0.0,0,right,852.7999999523,1.0,0.0,1.0,,,
52,0,,html-keyboard-response,52,253253,0.0-4.6-0.6,dadu83g7ev6,2022-09-19 16:21:57.682,6060f5cf903a11469f49a6d0,0,55,56,42,42,43,female,,,"<img src=""static/images/cards/stack_of_red_stars.svg"" width=""175px"" height=""250px""></img>",,,,,,,,,,,,,,,,,,,,,,,,,,,,
53,0,,html-keyboard-response,53,254485,0.0-4.6-1.6,dadu83g7ev6,2022-09-19 16:21:57.682,6060f5cf903a11469f49a6d0,0,55,56,42,42,43,female,725.0,,"
  <table>
  <tr height=300>
    <td width=300 height=300><img src=""static/images/cards/back_of_red_stars.svg"" width=""175px"" height=""250px""></img></td>
    <td width=300 height=300><img src=""static/images/cards/back_of_red_stars.svg"" width=""175px"" height=""250px""></img></td>
  </tr>
  <tr height=200>
    <td width=300><img src=""static/images/keys/z.svg"" width=""35%"" height=""75%""></img></td>
    <td width=300><img src=""static/images/keys/m.svg"" width=""35%"" height=""75%""></img></td>
  </tr>
</table>
  ",90.0,1.0,,,,,,,,,,,,,,,,,,,,,,,,,,
54,0,,html-keyboard-response,54,255993,0.0-4.6-2.6,dadu83g7ev6,2022-09-19 16:21:57.682,6060f5cf903a11469f49a6d0,0,55,56,42,42,43,female,,,"
  <table>
  <tr height=300>
    <td width=300 height=300><img src=""static/images/cards/7_of_red_stars.svg"" width=""175px"" height=""250px""></img></td>
    <td width=300 height=300><img src=""static/images/cards/back_of_red_stars.svg"" width=""175px"" height=""250px""></img></td>
  </tr>
  <tr height=200>
    <td width=300><img src=""static/images/keys/z.svg"" width=""35%"" height=""75%""></img></td>
    <td width=300><img src=""static/images/keys/m.svg"" width=""35%"" height=""75%""></img></td>
  </tr>
</table>
  ",,,,,,,,,,,,,,,,,,,,,,,,,,,,
55,0,,html-keyboard-response,55,257515,0.0-4.6-3.6,dadu83g7ev6,2022-09-19 16:21:57.682,6060f5cf903a11469f49a6d0,0,55,56,42,42,43,female,,,"<p style=""font-size:50px"">You win!
+10 points this round!</p>",,,,,,,,,,,,,,,,,,,,,,,,,,,,
56,0,,html-keyboard-response,56,258028,0.0-4.6-4.6,dadu83g7ev6,2022-09-19 16:21:57.682,6060f5cf903a11469f49a6d0,0,55,56,42,42,43,female,,,,,,1.0,learning,6.0,A,,red,,stars,,,,A,red,stars,,1.0,1.0,NA,left,725.0,7.0,1.0,1.0,,,
57,0,,html-keyboard-response,57,259538,0.0-4.7-0.7,dadu83g7ev6,2022-09-19 16:21:57.682,6060f5cf903a11469f49a6d0,0,55,56,42,42,43,female,,,"<img src=""static/images/cards/stack_of_black_stars.svg"" width=""175px"" height=""250px""></img>",,,,,,,,,,,,,,,,,,,,,,,,,,,,
58,0,,html-keyboard-response,58,261016,0.0-4.7-1.7,dadu83g7ev6,2022-09-19 16:21:57.682,6060f5cf903a11469f49a6d0,0,55,56,42,42,43,female,964.5999999046,,"
  <table>
  <tr height=300>
    <td width=300 height=300><img src=""static/images/cards/back_of_black_stars.svg"" width=""175px"" height=""250px""></img></td>
    <td width=300 height=300><img src=""static/images/cards/back_of_black_stars.svg"" width=""175px"" height=""250px""></img></td>
  </tr>
  <tr height=200>
    <td width=300></td>
    <td width=300><img src=""static/images/keys/m.svg"" width=""35%"" height=""75%""></img></td>
  </tr>
</table>
  ",77.0,1.0,,,,,,,,,,,,,,,,,,,,,,,,,,
59,0,,html-keyboard-response,59,262523,0.0-4.7-2.7,dadu83g7ev6,2022-09-19 16:21:57.682,6060f5cf903a11469f49a6d0,0,55,56,42,42,43,female,,,"
  <table>
  <tr height=300>
    <td width=300 height=300><img src=""static/images/cards/back_of_black_stars.svg"" width=""175px"" height=""250px""></img></td>
    <td width=300 height=300><img src=""static/images/cards/8_of_black_stars.svg"" width=""175px"" height=""250px""></img></td>
  </tr>
  <tr height=200>
    <td width=300></td>
    <td width=300><img src=""static/images/keys/m.svg"" width=""35%"" height=""75%""></img></td>
  </tr>
</table>
  ",,,,,,,,,,,,,,,,,,,,,,,,,,,,
60,0,,html-keyboard-response,60,264039,0.0-4.7-3.7,dadu83g7ev6,2022-09-19 16:21:57.682,6060f5cf903a11469f49a6d0,0,55,56,42,42,43,female,,,"<p style=""font-size:50px"">You win!
+10 points this round!</p>",,,,,,,,,,,,,,,,,,,,,,,,,,,,
61,0,,html-keyboard-response,61,264547,0.0-4.7-4.7,dadu83g7ev6,2022-09-19 16:21:57.682,6060f5cf903a11469f49a6d0,0,55,56,42,42,43,female,,,,,,1.0,learning,7.0,B,,black,,stars,,,,B,black,stars,,0.0,1.0,0,right,964.5999999046,8.0,1.0,1.0,,,
62,0,,html-keyboard-response,62,266053,0.0-4.8-0.8,dadu83g7ev6,2022-09-19 16:21:57.682,6060f5cf903a11469f49a6d0,0,55,56,42,42,43,female,,,"<img src=""static/images/cards/stack_of_red_moons.svg"" width=""175px"" height=""250px""></img>",,,,,,,,,,,,,,,,,,,,,,,,,,,,
63,0,,html-keyboard-response,63,267274,0.0-4.8-1.8,dadu83g7ev6,2022-09-19 16:21:57.682,6060f5cf903a11469f49a6d0,0,55,56,42,42,43,female,712.5,,"
  <table>
  <tr height=300>
    <td width=300 height=300><img src=""static/images/cards/back_of_red_moons.svg"" width=""175px"" height=""250px""></img></td>
    <td width=300 height=300><img src=""static/images/cards/back_of_red_moons.svg"" width=""175px"" height=""250px""></img></td>
  </tr>
  <tr height=200>
    <td width=300><img src=""static/images/keys/z.svg"" width=""35%"" height=""75%""></img></td>
    <td width=300><img src=""static/images/keys/m.svg"" width=""35%"" height=""75%""></img></td>
  </tr>
</table>
  ",90.0,1.0,,,,,,,,,,,,,,,,,,,,,,,,,,
64,0,,html-keyboard-response,64,268783,0.0-4.8-2.8,dadu83g7ev6,2022-09-19 16:21:57.682,6060f5cf903a11469f49a6d0,0,55,56,42,42,43,female,,,"
  <table>
  <tr height=300>
    <td width=300 height=300><img src=""static/images/cards/10_of_red_moons.svg"" width=""175px"" height=""250px""></img></td>
    <td width=300 height=300><img src=""static/images/cards/back_of_red_moons.svg"" width=""175px"" height=""250px""></img></td>
  </tr>
  <tr height=200>
    <td width=300><img src=""static/images/keys/z.svg"" width=""35%"" height=""75%""></img></td>
    <td width=300><img src=""static/images/keys/m.svg"" width=""35%"" height=""75%""></img></td>
  </tr>
</table>
  ",,,,,,,,,,,,,,,,,,,,,,,,,,,,
65,0,,html-keyboard-response,65,270294,0.0-4.8-3.8,dadu83g7ev6,2022-09-19 16:21:57.682,6060f5cf903a11469f49a6d0,0,55,56,42,42,43,female,,,"<p style=""font-size:50px"">You Lose!
No points this round.</p>",,,,,,,,,,,,,,,,,,,,,,,,,,,,
66,0,,html-keyboard-response,66,270807,0.0-4.8-4.8,dadu83g7ev6,2022-09-19 16:21:57.682,6060f5cf903a11469f49a6d0,0,55,56,42,42,43,female,,,,,,1.0,learning,8.0,C,,red,,moons,,,,C,red,moons,,1.0,0.0,NA,left,712.5,10.0,1.0,0.0,,,
67,0,,html-keyboard-response,67,272311,0.0-4.9-0.9,dadu83g7ev6,2022-09-19 16:21:57.682,6060f5cf903a11469f49a6d0,0,55,56,42,42,43,female,,,"<img src=""static/images/cards/stack_of_black_moons.svg"" width=""175px"" height=""250px""></img>",,,,,,,,,,,,,,,,,,,,,,,,,,,,
68,0,,html-keyboard-response,68,273666,0.0-4.9-1.9,dadu83g7ev6,2022-09-19 16:21:57.682,6060f5cf903a11469f49a6d0,0,55,56,42,42,43,female,848.0,,"
  <table>
  <tr height=300>
    <td width=300 height=300><img src=""static/images/cards/back_of_black_moons.svg"" width=""175px"" height=""250px""></img></td>
    <td width=300 height=300><img src=""static/images/cards/back_of_black_moons.svg"" width=""175px"" height=""250px""></img></td>
  </tr>
  <tr height=200>
    <td width=300><img src=""static/images/keys/z.svg"" width=""35%"" height=""75%""></img></td>
    <td width=300></td>
  </tr>
</table>
  ",90.0,1.0,,,,,,,,,,,,,,,,,,,,,,,,,,
69,0,,html-keyboard-response,69,275183,0.0-4.9-2.9,dadu83g7ev6,2022-09-19 16:21:57.682,6060f5cf903a11469f49a6d0,0,55,56,42,42,43,female,,,"
  <table>
  <tr height=300>
    <td width=300 height=300><img src=""static/images/cards/4_of_black_moons.svg"" width=""175px"" height=""250px""></img></td>
    <td width=300 height=300><img src=""static/images/cards/back_of_black_moons.svg"" width=""175px"" height=""250px""></img></td>
  </tr>
  <tr height=200>
    <td width=300><img src=""static/images/keys/z.svg"" width=""35%"" height=""75%""></img></td>
    <td width=300></td>
  </tr>
</table>
  ",,,,,,,,,,,,,,,,,,,,,,,,,,,,
70,0,,html-keyboard-response,70,276695,0.0-4.9-3.9,dadu83g7ev6,2022-09-19 16:21:57.682,6060f5cf903a11469f49a6d0,0,55,56,42,42,43,female,,,"<p style=""font-size:50px"">You win!
+10 points this round!</p>",,,,,,,,,,,,,,,,,,,,,,,,,,,,
71,0,,html-keyboard-response,71,277203,0.0-4.9-4.9,dadu83g7ev6,2022-09-19 16:21:57.682,6060f5cf903a11469f49a6d0,0,55,56,42,42,43,female,,,,,,1.0,learning,9.0,D,,black,,moons,,,,D,black,moons,,0.0,0.0,1,left,848.0,4.0,0.0,1.0,,,
72,0,,html-keyboard-response,72,278711,0.0-4.10-0.10,dadu83g7ev6,2022-09-19 16:21:57.682,6060f5cf903a11469f49a6d0,0,55,56,42,42,43,female,,,"<img src=""static/images/cards/stack_of_red_bolts.svg"" width=""175px"" height=""250px""></img>",,,,,,,,,,,,,,,,,,,,,,,,,,,,
73,0,,html-keyboard-response,73,279918,0.0-4.10-1.10,dadu83g7ev6,2022-09-19 16:21:57.682,6060f5cf903a11469f49a6d0,0,55,56,42,42,43,female,703.5999999046,,"
  <table>
  <tr height=300>
    <td width=300 height=300><img src=""static/images/cards/back_of_red_bolts.svg"" width=""175px"" height=""250px""></img></td>
    <td width=300 height=300><img src=""static/images/cards/back_of_red_bolts.svg"" width=""175px"" height=""250px""></img></td>
  </tr>
  <tr height=200>
    <td width=300><img src=""static/images/keys/z.svg"" width=""35%"" height=""75%""></img></td>
    <td width=300><img src=""static/images/keys/m.svg"" width=""35%"" height=""75%""></img></td>
  </tr>
</table>
  ",90.0,1.0,,,,,,,,,,,,,,,,,,,,,,,,,,
74,0,,html-keyboard-response,74,281424,0.0-4.10-2.10,dadu83g7ev6,2022-09-19 16:21:57.682,6060f5cf903a11469f49a6d0,0,55,56,42,42,43,female,,,"
  <table>
  <tr height=300>
    <td width=300 height=300><img src=""static/images/cards/4_of_red_bolts.svg"" width=""175px"" height=""250px""></img></td>
    <td width=300 height=300><img src=""static/images/cards/back_of_red_bolts.svg"" width=""175px"" height=""250px""></img></td>
  </tr>
  <tr height=200>
    <td width=300><img src=""static/images/keys/z.svg"" width=""35%"" height=""75%""></img></td>
    <td width=300><img src=""static/images/keys/m.svg"" width=""35%"" height=""75%""></img></td>
  </tr>
</table>
  ",,,,,,,,,,,,,,,,,,,,,,,,,,,,
75,0,,html-keyboard-response,75,282936,0.0-4.10-3.10,dadu83g7ev6,2022-09-19 16:21:57.682,6060f5cf903a11469f49a6d0,0,55,56,42,42,43,female,,,"<p style=""font-size:50px"">You win!
+10 points this round!</p>",,,,,,,,,,,,,,,,,,,,,,,,,,,,
76,0,,html-keyboard-response,76,283446,0.0-4.10-4.10,dadu83g7ev6,2022-09-19 16:21:57.682,6060f5cf903a11469f49a6d0,0,55,56,42,42,43,female,,,,,,1.0,learning,10.0,Xc,,red,,bolts,,,,Xc,red,bolts,,1.0,0.0,NA,left,703.5999999046,4.0,0.0,1.0,,,
77,0,,html-keyboard-response,77,284951,0.0-4.11-0.11,dadu83g7ev6,2022-09-19 16:21:57.682,6060f5cf903a11469f49a6d0,0,55,56,42,42,43,female,,,"<img src=""static/images/cards/stack_of_black_bolts.svg"" width=""175px"" height=""250px""></img>",,,,,,,,,,,,,,,,,,,,,,,,,,,,
78,0,,html-keyboard-response,78,286237,0.0-4.11-1.11,dadu83g7ev6,2022-09-19 16:21:57.682,6060f5cf903a11469f49a6d0,0,55,56,42,42,43,female,781.0,,"
  <table>
  <tr height=300>
    <td width=300 height=300><img src=""static/images/cards/back_of_black_bolts.svg"" width=""175px"" height=""250px""></img></td>
    <td width=300 height=300><img src=""static/images/cards/back_of_black_bolts.svg"" width=""175px"" height=""250px""></img></td>
  </tr>
  <tr height=200>
    <td width=300></td>
    <td width=300><img src=""static/images/keys/m.svg"" width=""35%"" height=""75%""></img></td>
  </tr>
</table>
  ",77.0,1.0,,,,,,,,,,,,,,,,,,,,,,,,,,
79,0,,html-keyboard-response,79,287742,0.0-4.11-2.11,dadu83g7ev6,2022-09-19 16:21:57.682,6060f5cf903a11469f49a6d0,0,55,56,42,42,43,female,,,"
  <table>
  <tr height=300>
    <td width=300 height=300><img src=""static/images/cards/back_of_black_bolts.svg"" width=""175px"" height=""250px""></img></td>
    <td width=300 height=300><img src=""static/images/cards/10_of_black_bolts.svg"" width=""175px"" height=""250px""></img></td>
  </tr>
  <tr height=200>
    <td width=300></td>
    <td width=300><img src=""static/images/keys/m.svg"" width=""35%"" height=""75%""></img></td>
  </tr>
</table>
  ",,,,,,,,,,,,,,,,,,,,,,,,,,,,
80,0,,html-keyboard-response,80,289258,0.0-4.11-3.11,dadu83g7ev6,2022-09-19 16:21:57.682,6060f5cf903a11469f49a6d0,0,55,56,42,42,43,female,,,"<p style=""font-size:50px"">You win!
+10 points this round!</p>",,,,,,,,,,,,,,,,,,,,,,,,,,,,
81,0,,html-keyboard-response,81,289773,0.0-4.11-4.11,dadu83g7ev6,2022-09-19 16:21:57.682,6060f5cf903a11469f49a6d0,0,55,56,42,42,43,female,,,,,,1.0,learning,11.0,Xnc,,black,,bolts,,,,Xnc,black,bolts,,0.0,0.0,0,right,781.0,10.0,1.0,1.0,,,
82,0,,html-keyboard-response,82,291279,0.0-4.12-0.12,dadu83g7ev6,2022-09-19 16:21:57.682,6060f5cf903a11469f49a6d0,0,55,56,42,42,43,female,,,"<img src=""static/images/cards/stack_of_red_stars.svg"" width=""175px"" height=""250px""></img>",,,,,,,,,,,,,,,,,,,,,,,,,,,,
83,0,,html-keyboard-response,83,292547,0.0-4.12-1.12,dadu83g7ev6,2022-09-19 16:21:57.682,6060f5cf903a11469f49a6d0,0,55,56,42,42,43,female,762.0,,"
  <table>
  <tr height=300>
    <td width=300 height=300><img src=""static/images/cards/back_of_red_stars.svg"" width=""175px"" height=""250px""></img></td>
    <td width=300 height=300><img src=""static/images/cards/back_of_red_stars.svg"" width=""175px"" height=""250px""></img></td>
  </tr>
  <tr height=200>
    <td width=300><img src=""static/images/keys/z.svg"" width=""35%"" height=""75%""></img></td>
    <td width=300><img src=""static/images/keys/m.svg"" width=""35%"" height=""75%""></img></td>
  </tr>
</table>
  ",77.0,1.0,,,,,,,,,,,,,,,,,,,,,,,,,,
84,0,,html-keyboard-response,84,294067,0.0-4.12-2.12,dadu83g7ev6,2022-09-19 16:21:57.682,6060f5cf903a11469f49a6d0,0,55,56,42,42,43,female,,,"
  <table>
  <tr height=300>
    <td width=300 height=300><img src=""static/images/cards/back_of_red_stars.svg"" width=""175px"" height=""250px""></img></td>
    <td width=300 height=300><img src=""static/images/cards/6_of_red_stars.svg"" width=""175px"" height=""250px""></img></td>
  </tr>
  <tr height=200>
    <td width=300><img src=""static/images/keys/z.svg"" width=""35%"" height=""75%""></img></td>
    <td width=300><img src=""static/images/keys/m.svg"" width=""35%"" height=""75%""></img></td>
  </tr>
</table>
  ",,,,,,,,,,,,,,,,,,,,,,,,,,,,
85,0,,html-keyboard-response,85,295587,0.0-4.12-3.12,dadu83g7ev6,2022-09-19 16:21:57.682,6060f5cf903a11469f49a6d0,0,55,56,42,42,43,female,,,"<p style=""font-size:50px"">You win!
+10 points this round!</p>",,,,,,,,,,,,,,,,,,,,,,,,,,,,
86,0,,html-keyboard-response,86,296103,0.0-4.12-4.12,dadu83g7ev6,2022-09-19 16:21:57.682,6060f5cf903a11469f49a6d0,0,55,56,42,42,43,female,,,,,,1.0,learning,12.0,A,,red,,stars,,,,A,red,stars,,1.0,1.0,NA,right,762.0,6.0,1.0,1.0,,,
87,0,,html-keyboard-response,87,297610,0.0-4.13-0.13,dadu83g7ev6,2022-09-19 16:21:57.682,6060f5cf903a11469f49a6d0,0,55,56,42,42,43,female,,,"<img src=""static/images/cards/stack_of_black_stars.svg"" width=""175px"" height=""250px""></img>",,,,,,,,,,,,,,,,,,,,,,,,,,,,
88,0,,html-keyboard-response,88,299115,0.0-4.13-1.13,dadu83g7ev6,2022-09-19 16:21:57.682,6060f5cf903a11469f49a6d0,0,55,56,42,42,43,female,991.6000001431,,"
  <table>
  <tr height=300>
    <td width=300 height=300><img src=""static/images/cards/back_of_black_stars.svg"" width=""175px"" height=""250px""></img></td>
    <td width=300 height=300><img src=""static/images/cards/back_of_black_stars.svg"" width=""175px"" height=""250px""></img></td>
  </tr>
  <tr height=200>
    <td width=300><img src=""static/images/keys/z.svg"" width=""35%"" height=""75%""></img></td>
    <td width=300></td>
  </tr>
</table>
  ",90.0,1.0,,,,,,,,,,,,,,,,,,,,,,,,,,
89,0,,html-keyboard-response,89,300626,0.0-4.13-2.13,dadu83g7ev6,2022-09-19 16:21:57.682,6060f5cf903a11469f49a6d0,0,55,56,42,42,43,female,,,"
  <table>
  <tr height=300>
    <td width=300 height=300><img src=""static/images/cards/10_of_black_stars.svg"" width=""175px"" height=""250px""></img></td>
    <td width=300 height=300><img src=""static/images/cards/back_of_black_stars.svg"" width=""175px"" height=""250px""></img></td>
  </tr>
  <tr height=200>
    <td width=300><img src=""static/images/keys/z.svg"" width=""35%"" height=""75%""></img></td>
    <td width=300></td>
  </tr>
</table>
  ",,,,,,,,,,,,,,,,,,,,,,,,,,,,
90,0,,html-keyboard-response,90,302146,0.0-4.13-3.13,dadu83g7ev6,2022-09-19 16:21:57.682,6060f5cf903a11469f49a6d0,0,55,56,42,42,43,female,,,"<p style=""font-size:50px"">You win!
+10 points this round!</p>",,,,,,,,,,,,,,,,,,,,,,,,,,,,
91,0,,html-keyboard-response,91,302658,0.0-4.13-4.13,dadu83g7ev6,2022-09-19 16:21:57.682,6060f5cf903a11469f49a6d0,0,55,56,42,42,43,female,,,,,,1.0,learning,13.0,B,,black,,stars,,,,B,black,stars,,0.0,1.0,1,left,991.6000001431,10.0,1.0,1.0,,,
92,0,,html-keyboard-response,92,304167,0.0-4.14-0.14,dadu83g7ev6,2022-09-19 16:21:57.682,6060f5cf903a11469f49a6d0,0,55,56,42,42,43,female,,,"<img src=""static/images/cards/stack_of_red_moons.svg"" width=""175px"" height=""250px""></img>",,,,,,,,,,,,,,,,,,,,,,,,,,,,
93,0,,html-keyboard-response,93,305548,0.0-4.14-1.14,dadu83g7ev6,2022-09-19 16:21:57.682,6060f5cf903a11469f49a6d0,0,55,56,42,42,43,female,876.0999999046,,"
  <table>
  <tr height=300>
    <td width=300 height=300><img src=""static/images/cards/back_of_red_moons.svg"" width=""175px"" height=""250px""></img></td>
    <td width=300 height=300><img src=""static/images/cards/back_of_red_moons.svg"" width=""175px"" height=""250px""></img></td>
  </tr>
  <tr height=200>
    <td width=300><img src=""static/images/keys/z.svg"" width=""35%"" height=""75%""></img></td>
    <td width=300><img src=""static/images/keys/m.svg"" width=""35%"" height=""75%""></img></td>
  </tr>
</table>
  ",90.0,1.0,,,,,,,,,,,,,,,,,,,,,,,,,,
94,0,,html-keyboard-response,94,307054,0.0-4.14-2.14,dadu83g7ev6,2022-09-19 16:21:57.682,6060f5cf903a11469f49a6d0,0,55,56,42,42,43,female,,,"
  <table>
  <tr height=300>
    <td width=300 height=300><img src=""static/images/cards/2_of_red_moons.svg"" width=""175px"" height=""250px""></img></td>
    <td width=300 height=300><img src=""static/images/cards/back_of_red_moons.svg"" width=""175px"" height=""250px""></img></td>
  </tr>
  <tr height=200>
    <td width=300><img src=""static/images/keys/z.svg"" width=""35%"" height=""75%""></img></td>
    <td width=300><img src=""static/images/keys/m.svg"" width=""35%"" height=""75%""></img></td>
  </tr>
</table>
  ",,,,,,,,,,,,,,,,,,,,,,,,,,,,
95,0,,html-keyboard-response,95,308571,0.0-4.14-3.14,dadu83g7ev6,2022-09-19 16:21:57.682,6060f5cf903a11469f49a6d0,0,55,56,42,42,43,female,,,"<p style=""font-size:50px"">You Lose!
No points this round.</p>",,,,,,,,,,,,,,,,,,,,,,,,,,,,
96,0,,html-keyboard-response,96,309085,0.0-4.14-4.14,dadu83g7ev6,2022-09-19 16:21:57.682,6060f5cf903a11469f49a6d0,0,55,56,42,42,43,female,,,,,,1.0,learning,14.0,C,,red,,moons,,,,C,red,moons,,1.0,0.0,NA,left,876.0999999046,2.0,0.0,0.0,,,
97,0,,html-keyboard-response,97,310593,0.0-4.15-0.15,dadu83g7ev6,2022-09-19 16:21:57.682,6060f5cf903a11469f49a6d0,0,55,56,42,42,43,female,,,"<img src=""static/images/cards/stack_of_black_moons.svg"" width=""175px"" height=""250px""></img>",,,,,,,,,,,,,,,,,,,,,,,,,,,,
98,0,,html-keyboard-response,98,311745,0.0-4.15-1.15,dadu83g7ev6,2022-09-19 16:21:57.682,6060f5cf903a11469f49a6d0,0,55,56,42,42,43,female,645.7999999523,,"
  <table>
  <tr height=300>
    <td width=300 height=300><img src=""static/images/cards/back_of_black_moons.svg"" width=""175px"" height=""250px""></img></td>
    <td width=300 height=300><img src=""static/images/cards/back_of_black_moons.svg"" width=""175px"" height=""250px""></img></td>
  </tr>
  <tr height=200>
    <td width=300><img src=""static/images/keys/z.svg"" width=""35%"" height=""75%""></img></td>
    <td width=300></td>
  </tr>
</table>
  ",90.0,1.0,,,,,,,,,,,,,,,,,,,,,,,,,,
99,0,,html-keyboard-response,99,313254,0.0-4.15-2.15,dadu83g7ev6,2022-09-19 16:21:57.682,6060f5cf903a11469f49a6d0,0,55,56,42,42,43,female,,,"
  <table>
  <tr height=300>
    <td width=300 height=300><img src=""static/images/cards/4_of_black_moons.svg"" width=""175px"" height=""250px""></img></td>
    <td width=300 height=300><img src=""static/images/cards/back_of_black_moons.svg"" width=""175px"" height=""250px""></img></td>
  </tr>
  <tr height=200>
    <td width=300><img src=""static/images/keys/z.svg"" width=""35%"" height=""75%""></img></td>
    <td width=300></td>
  </tr>
</table>
  ",,,,,,,,,,,,,,,,,,,,,,,,,,,,
100,0,,html-keyboard-response,100,314770,0.0-4.15-3.15,dadu83g7ev6,2022-09-19 16:21:57.682,6060f5cf903a11469f49a6d0,0,55,56,42,42,43,female,,,"<p style=""font-size:50px"">You win!
+10 points this round!</p>",,,,,,,,,,,,,,,,,,,,,,,,,,,,
101,0,,html-keyboard-response,101,315286,0.0-4.15-4.15,dadu83g7ev6,2022-09-19 16:21:57.682,6060f5cf903a11469f49a6d0,0,55,56,42,42,43,female,,,,,,1.0,learning,15.0,D,,black,,moons,,,,D,black,moons,,0.0,0.0,1,left,645.7999999523,4.0,0.0,1.0,,,
102,0,,html-keyboard-response,102,316790,0.0-4.16-0.16,dadu83g7ev6,2022-09-19 16:21:57.682,6060f5cf903a11469f49a6d0,0,55,56,42,42,43,female,,,"<img src=""static/images/cards/stack_of_red_bolts.svg"" width=""175px"" height=""250px""></img>",,,,,,,,,,,,,,,,,,,,,,,,,,,,
103,0,,html-keyboard-response,103,317948,0.0-4.16-1.16,dadu83g7ev6,2022-09-19 16:21:57.682,6060f5cf903a11469f49a6d0,0,55,56,42,42,43,female,653.2000000477,,"
  <table>
  <tr height=300>
    <td width=300 height=300><img src=""static/images/cards/back_of_red_bolts.svg"" width=""175px"" height=""250px""></img></td>
    <td width=300 height=300><img src=""static/images/cards/back_of_red_bolts.svg"" width=""175px"" height=""250px""></img></td>
  </tr>
  <tr height=200>
    <td width=300><img src=""static/images/keys/z.svg"" width=""35%"" height=""75%""></img></td>
    <td width=300><img src=""static/images/keys/m.svg"" width=""35%"" height=""75%""></img></td>
  </tr>
</table>
  ",77.0,1.0,,,,,,,,,,,,,,,,,,,,,,,,,,
104,0,,html-keyboard-response,104,319456,0.0-4.16-2.16,dadu83g7ev6,2022-09-19 16:21:57.682,6060f5cf903a11469f49a6d0,0,55,56,42,42,43,female,,,"
  <table>
  <tr height=300>
    <td width=300 height=300><img src=""static/images/cards/back_of_red_bolts.svg"" width=""175px"" height=""250px""></img></td>
    <td width=300 height=300><img src=""static/images/cards/10_of_red_bolts.svg"" width=""175px"" height=""250px""></img></td>
  </tr>
  <tr height=200>
    <td width=300><img src=""static/images/keys/z.svg"" width=""35%"" height=""75%""></img></td>
    <td width=300><img src=""static/images/keys/m.svg"" width=""35%"" height=""75%""></img></td>
  </tr>
</table>
  ",,,,,,,,,,,,,,,,,,,,,,,,,,,,
105,0,,html-keyboard-response,105,320970,0.0-4.16-3.16,dadu83g7ev6,2022-09-19 16:21:57.682,6060f5cf903a11469f49a6d0,0,55,56,42,42,43,female,,,"<p style=""font-size:50px"">You win!
+10 points this round!</p>",,,,,,,,,,,,,,,,,,,,,,,,,,,,
106,0,,html-keyboard-response,106,321485,0.0-4.16-4.16,dadu83g7ev6,2022-09-19 16:21:57.682,6060f5cf903a11469f49a6d0,0,55,56,42,42,43,female,,,,,,1.0,learning,16.0,Xc,,red,,bolts,,,,Xc,red,bolts,,1.0,0.0,NA,right,653.2000000477,10.0,1.0,1.0,,,
107,0,,html-keyboard-response,107,322993,0.0-4.17-0.17,dadu83g7ev6,2022-09-19 16:21:57.682,6060f5cf903a11469f49a6d0,0,55,56,42,42,43,female,,,"<img src=""static/images/cards/stack_of_black_bolts.svg"" width=""175px"" height=""250px""></img>",,,,,,,,,,,,,,,,,,,,,,,,,,,,
108,0,,html-keyboard-response,108,325525,0.0-4.17-1.17,dadu83g7ev6,2022-09-19 16:21:57.682,6060f5cf903a11469f49a6d0,0,55,56,42,42,43,female,2025.7000000477,,"
  <table>
  <tr height=300>
    <td width=300 height=300><img src=""static/images/cards/back_of_black_bolts.svg"" width=""175px"" height=""250px""></img></td>
    <td width=300 height=300><img src=""static/images/cards/back_of_black_bolts.svg"" width=""175px"" height=""250px""></img></td>
  </tr>
  <tr height=200>
    <td width=300></td>
    <td width=300><img src=""static/images/keys/m.svg"" width=""35%"" height=""75%""></img></td>
  </tr>
</table>
  ",77.0,1.0,,,,,,,,,,,,,,,,,,,,,,,,,,
109,0,,html-keyboard-response,109,327032,0.0-4.17-2.17,dadu83g7ev6,2022-09-19 16:21:57.682,6060f5cf903a11469f49a6d0,0,55,56,42,42,43,female,,,"
  <table>
  <tr height=300>
    <td width=300 height=300><img src=""static/images/cards/back_of_black_bolts.svg"" width=""175px"" height=""250px""></img></td>
    <td width=300 height=300><img src=""static/images/cards/10_of_black_bolts.svg"" width=""175px"" height=""250px""></img></td>
  </tr>
  <tr height=200>
    <td width=300></td>
    <td width=300><img src=""static/images/keys/m.svg"" width=""35%"" height=""75%""></img></td>
  </tr>
</table>
  ",,,,,,,,,,,,,,,,,,,,,,,,,,,,
110,0,,html-keyboard-response,110,328547,0.0-4.17-3.17,dadu83g7ev6,2022-09-19 16:21:57.682,6060f5cf903a11469f49a6d0,0,55,56,42,42,43,female,,,"<p style=""font-size:50px"">You win!
+10 points this round!</p>",,,,,,,,,,,,,,,,,,,,,,,,,,,,
111,0,,html-keyboard-response,111,329062,0.0-4.17-4.17,dadu83g7ev6,2022-09-19 16:21:57.682,6060f5cf903a11469f49a6d0,0,55,56,42,42,43,female,,,,,,1.0,learning,17.0,Xnc,,black,,bolts,,,,Xnc,black,bolts,,0.0,0.0,0,right,2025.7000000477,10.0,1.0,1.0,,,
112,0,,html-keyboard-response,112,330571,0.0-4.18-0.18,dadu83g7ev6,2022-09-19 16:21:57.682,6060f5cf903a11469f49a6d0,0,55,56,42,42,43,female,,,"<img src=""static/images/cards/stack_of_red_stars.svg"" width=""175px"" height=""250px""></img>",,,,,,,,,,,,,,,,,,,,,,,,,,,,
113,0,,html-keyboard-response,113,331782,0.0-4.18-1.18,dadu83g7ev6,2022-09-19 16:21:57.682,6060f5cf903a11469f49a6d0,0,55,56,42,42,43,female,701.4000000954,,"
  <table>
  <tr height=300>
    <td width=300 height=300><img src=""static/images/cards/back_of_red_stars.svg"" width=""175px"" height=""250px""></img></td>
    <td width=300 height=300><img src=""static/images/cards/back_of_red_stars.svg"" width=""175px"" height=""250px""></img></td>
  </tr>
  <tr height=200>
    <td width=300><img src=""static/images/keys/z.svg"" width=""35%"" height=""75%""></img></td>
    <td width=300><img src=""static/images/keys/m.svg"" width=""35%"" height=""75%""></img></td>
  </tr>
</table>
  ",77.0,1.0,,,,,,,,,,,,,,,,,,,,,,,,,,
114,0,,html-keyboard-response,114,333291,0.0-4.18-2.18,dadu83g7ev6,2022-09-19 16:21:57.682,6060f5cf903a11469f49a6d0,0,55,56,42,42,43,female,,,"
  <table>
  <tr height=300>
    <td width=300 height=300><img src=""static/images/cards/back_of_red_stars.svg"" width=""175px"" height=""250px""></img></td>
    <td width=300 height=300><img src=""static/images/cards/3_of_red_stars.svg"" width=""175px"" height=""250px""></img></td>
  </tr>
  <tr height=200>
    <td width=300><img src=""static/images/keys/z.svg"" width=""35%"" height=""75%""></img></td>
    <td width=300><img src=""static/images/keys/m.svg"" width=""35%"" height=""75%""></img></td>
  </tr>
</table>
  ",,,,,,,,,,,,,,,,,,,,,,,,,,,,
115,0,,html-keyboard-response,115,334810,0.0-4.18-3.18,dadu83g7ev6,2022-09-19 16:21:57.682,6060f5cf903a11469f49a6d0,0,55,56,42,42,43,female,,,"<p style=""font-size:50px"">You Lose!
No points this round.</p>",,,,,,,,,,,,,,,,,,,,,,,,,,,,
116,0,,html-keyboard-response,116,335326,0.0-4.18-4.18,dadu83g7ev6,2022-09-19 16:21:57.682,6060f5cf903a11469f49a6d0,0,55,56,42,42,43,female,,,,,,1.0,learning,18.0,A,,red,,stars,,,,A,red,stars,,1.0,1.0,NA,right,701.4000000954,3.0,0.0,0.0,,,
117,0,,html-keyboard-response,117,336831,0.0-4.19-0.19,dadu83g7ev6,2022-09-19 16:21:57.682,6060f5cf903a11469f49a6d0,0,55,56,42,42,43,female,,,"<img src=""static/images/cards/stack_of_black_stars.svg"" width=""175px"" height=""250px""></img>",,,,,,,,,,,,,,,,,,,,,,,,,,,,
118,0,,html-keyboard-response,118,337828,0.0-4.19-1.19,dadu83g7ev6,2022-09-19 16:21:57.682,6060f5cf903a11469f49a6d0,0,55,56,42,42,43,female,488.7000000477,,"
  <table>
  <tr height=300>
    <td width=300 height=300><img src=""static/images/cards/back_of_black_stars.svg"" width=""175px"" height=""250px""></img></td>
    <td width=300 height=300><img src=""static/images/cards/back_of_black_stars.svg"" width=""175px"" height=""250px""></img></td>
  </tr>
  <tr height=200>
    <td width=300><img src=""static/images/keys/z.svg"" width=""35%"" height=""75%""></img></td>
    <td width=300></td>
  </tr>
</table>
  ",90.0,1.0,,,,,,,,,,,,,,,,,,,,,,,,,,
119,0,,html-keyboard-response,119,339339,0.0-4.19-2.19,dadu83g7ev6,2022-09-19 16:21:57.682,6060f5cf903a11469f49a6d0,0,55,56,42,42,43,female,,,"
  <table>
  <tr height=300>
    <td width=300 height=300><img src=""static/images/cards/2_of_black_stars.svg"" width=""175px"" height=""250px""></img></td>
    <td width=300 height=300><img src=""static/images/cards/back_of_black_stars.svg"" width=""175px"" height=""250px""></img></td>
  </tr>
  <tr height=200>
    <td width=300><img src=""static/images/keys/z.svg"" width=""35%"" height=""75%""></img></td>
    <td width=300></td>
  </tr>
</table>
  ",,,,,,,,,,,,,,,,,,,,,,,,,,,,
120,0,,html-keyboard-response,120,340855,0.0-4.19-3.19,dadu83g7ev6,2022-09-19 16:21:57.682,6060f5cf903a11469f49a6d0,0,55,56,42,42,43,female,,,"<p style=""font-size:50px"">You Lose!
No points this round.</p>",,,,,,,,,,,,,,,,,,,,,,,,,,,,
121,0,,html-keyboard-response,121,341367,0.0-4.19-4.19,dadu83g7ev6,2022-09-19 16:21:57.682,6060f5cf903a11469f49a6d0,0,55,56,42,42,43,female,,,,,,1.0,learning,19.0,B,,black,,stars,,,,B,black,stars,,0.0,1.0,1,left,488.7000000477,2.0,0.0,0.0,,,
122,0,,html-keyboard-response,122,342875,0.0-4.20-0.20,dadu83g7ev6,2022-09-19 16:21:57.682,6060f5cf903a11469f49a6d0,0,55,56,42,42,43,female,,,"<img src=""static/images/cards/stack_of_red_moons.svg"" width=""175px"" height=""250px""></img>",,,,,,,,,,,,,,,,,,,,,,,,,,,,
123,0,,html-keyboard-response,123,343920,0.0-4.20-1.20,dadu83g7ev6,2022-09-19 16:21:57.682,6060f5cf903a11469f49a6d0,0,55,56,42,42,43,female,536.3999998569,,"
  <table>
  <tr height=300>
    <td width=300 height=300><img src=""static/images/cards/back_of_red_moons.svg"" width=""175px"" height=""250px""></img></td>
    <td width=300 height=300><img src=""static/images/cards/back_of_red_moons.svg"" width=""175px"" height=""250px""></img></td>
  </tr>
  <tr height=200>
    <td width=300><img src=""static/images/keys/z.svg"" width=""35%"" height=""75%""></img></td>
    <td width=300><img src=""static/images/keys/m.svg"" width=""35%"" height=""75%""></img></td>
  </tr>
</table>
  ",77.0,1.0,,,,,,,,,,,,,,,,,,,,,,,,,,
124,0,,html-keyboard-response,124,345422,0.0-4.20-2.20,dadu83g7ev6,2022-09-19 16:21:57.682,6060f5cf903a11469f49a6d0,0,55,56,42,42,43,female,,,"
  <table>
  <tr height=300>
    <td width=300 height=300><img src=""static/images/cards/back_of_red_moons.svg"" width=""175px"" height=""250px""></img></td>
    <td width=300 height=300><img src=""static/images/cards/1_of_red_moons.svg"" width=""175px"" height=""250px""></img></td>
  </tr>
  <tr height=200>
    <td width=300><img src=""static/images/keys/z.svg"" width=""35%"" height=""75%""></img></td>
    <td width=300><img src=""static/images/keys/m.svg"" width=""35%"" height=""75%""></img></td>
  </tr>
</table>
  ",,,,,,,,,,,,,,,,,,,,,,,,,,,,
125,0,,html-keyboard-response,125,346938,0.0-4.20-3.20,dadu83g7ev6,2022-09-19 16:21:57.682,6060f5cf903a11469f49a6d0,0,55,56,42,42,43,female,,,"<p style=""font-size:50px"">You Lose!
No points this round.</p>",,,,,,,,,,,,,,,,,,,,,,,,,,,,
126,0,,html-keyboard-response,126,347456,0.0-4.20-4.20,dadu83g7ev6,2022-09-19 16:21:57.682,6060f5cf903a11469f49a6d0,0,55,56,42,42,43,female,,,,,,1.0,learning,20.0,C,,red,,moons,,,,C,red,moons,,1.0,0.0,NA,right,536.3999998569,1.0,0.0,0.0,,,
127,0,,html-keyboard-response,127,348959,0.0-4.21-0.21,dadu83g7ev6,2022-09-19 16:21:57.682,6060f5cf903a11469f49a6d0,0,55,56,42,42,43,female,,,"<img src=""static/images/cards/stack_of_black_moons.svg"" width=""175px"" height=""250px""></img>",,,,,,,,,,,,,,,,,,,,,,,,,,,,
128,0,,html-keyboard-response,128,350084,0.0-4.21-1.21,dadu83g7ev6,2022-09-19 16:21:57.682,6060f5cf903a11469f49a6d0,0,55,56,42,42,43,female,616.0,,"
  <table>
  <tr height=300>
    <td width=300 height=300><img src=""static/images/cards/back_of_black_moons.svg"" width=""175px"" height=""250px""></img></td>
    <td width=300 height=300><img src=""static/images/cards/back_of_black_moons.svg"" width=""175px"" height=""250px""></img></td>
  </tr>
  <tr height=200>
    <td width=300></td>
    <td width=300><img src=""static/images/keys/m.svg"" width=""35%"" height=""75%""></img></td>
  </tr>
</table>
  ",77.0,1.0,,,,,,,,,,,,,,,,,,,,,,,,,,
129,0,,html-keyboard-response,129,351595,0.0-4.21-2.21,dadu83g7ev6,2022-09-19 16:21:57.682,6060f5cf903a11469f49a6d0,0,55,56,42,42,43,female,,,"
  <table>
  <tr height=300>
    <td width=300 height=300><img src=""static/images/cards/back_of_black_moons.svg"" width=""175px"" height=""250px""></img></td>
    <td width=300 height=300><img src=""static/images/cards/10_of_black_moons.svg"" width=""175px"" height=""250px""></img></td>
  </tr>
  <tr height=200>
    <td width=300></td>
    <td width=300><img src=""static/images/keys/m.svg"" width=""35%"" height=""75%""></img></td>
  </tr>
</table>
  ",,,,,,,,,,,,,,,,,,,,,,,,,,,,
130,0,,html-keyboard-response,130,353110,0.0-4.21-3.21,dadu83g7ev6,2022-09-19 16:21:57.682,6060f5cf903a11469f49a6d0,0,55,56,42,42,43,female,,,"<p style=""font-size:50px"">You win!
+10 points this round!</p>",,,,,,,,,,,,,,,,,,,,,,,,,,,,
131,0,,html-keyboard-response,131,353622,0.0-4.21-4.21,dadu83g7ev6,2022-09-19 16:21:57.682,6060f5cf903a11469f49a6d0,0,55,56,42,42,43,female,,,,,,1.0,learning,21.0,D,,black,,moons,,,,D,black,moons,,0.0,0.0,0,right,616.0,10.0,1.0,1.0,,,
132,0,,html-keyboard-response,132,355126,0.0-4.22-0.22,dadu83g7ev6,2022-09-19 16:21:57.682,6060f5cf903a11469f49a6d0,0,55,56,42,42,43,female,,,"<img src=""static/images/cards/stack_of_red_bolts.svg"" width=""175px"" height=""250px""></img>",,,,,,,,,,,,,,,,,,,,,,,,,,,,
133,0,,html-keyboard-response,133,356442,0.0-4.22-1.22,dadu83g7ev6,2022-09-19 16:21:57.682,6060f5cf903a11469f49a6d0,0,55,56,42,42,43,female,808.7000000477,,"
  <table>
  <tr height=300>
    <td width=300 height=300><img src=""static/images/cards/back_of_red_bolts.svg"" width=""175px"" height=""250px""></img></td>
    <td width=300 height=300><img src=""static/images/cards/back_of_red_bolts.svg"" width=""175px"" height=""250px""></img></td>
  </tr>
  <tr height=200>
    <td width=300><img src=""static/images/keys/z.svg"" width=""35%"" height=""75%""></img></td>
    <td width=300><img src=""static/images/keys/m.svg"" width=""35%"" height=""75%""></img></td>
  </tr>
</table>
  ",90.0,1.0,,,,,,,,,,,,,,,,,,,,,,,,,,
134,0,,html-keyboard-response,134,357955,0.0-4.22-2.22,dadu83g7ev6,2022-09-19 16:21:57.682,6060f5cf903a11469f49a6d0,0,55,56,42,42,43,female,,,"
  <table>
  <tr height=300>
    <td width=300 height=300><img src=""static/images/cards/9_of_red_bolts.svg"" width=""175px"" height=""250px""></img></td>
    <td width=300 height=300><img src=""static/images/cards/back_of_red_bolts.svg"" width=""175px"" height=""250px""></img></td>
  </tr>
  <tr height=200>
    <td width=300><img src=""static/images/keys/z.svg"" width=""35%"" height=""75%""></img></td>
    <td width=300><img src=""static/images/keys/m.svg"" width=""35%"" height=""75%""></img></td>
  </tr>
</table>
  ",,,,,,,,,,,,,,,,,,,,,,,,,,,,
135,0,,html-keyboard-response,135,359471,0.0-4.22-3.22,dadu83g7ev6,2022-09-19 16:21:57.682,6060f5cf903a11469f49a6d0,0,55,56,42,42,43,female,,,"<p style=""font-size:50px"">You win!
+10 points this round!</p>",,,,,,,,,,,,,,,,,,,,,,,,,,,,
136,0,,html-keyboard-response,136,359983,0.0-4.22-4.22,dadu83g7ev6,2022-09-19 16:21:57.682,6060f5cf903a11469f49a6d0,0,55,56,42,42,43,female,,,,,,1.0,learning,22.0,Xc,,red,,bolts,,,,Xc,red,bolts,,1.0,0.0,NA,left,808.7000000477,9.0,1.0,1.0,,,
137,0,,html-keyboard-response,137,361488,0.0-4.23-0.23,dadu83g7ev6,2022-09-19 16:21:57.682,6060f5cf903a11469f49a6d0,0,55,56,42,42,43,female,,,"<img src=""static/images/cards/stack_of_black_bolts.svg"" width=""175px"" height=""250px""></img>",,,,,,,,,,,,,,,,,,,,,,,,,,,,
138,0,,html-keyboard-response,138,362757,0.0-4.23-1.23,dadu83g7ev6,2022-09-19 16:21:57.682,6060f5cf903a11469f49a6d0,0,55,56,42,42,43,female,762.4000000954,,"
  <table>
  <tr height=300>
    <td width=300 height=300><img src=""static/images/cards/back_of_black_bolts.svg"" width=""175px"" height=""250px""></img></td>
    <td width=300 height=300><img src=""static/images/cards/back_of_black_bolts.svg"" width=""175px"" height=""250px""></img></td>
  </tr>
  <tr height=200>
    <td width=300><img src=""static/images/keys/z.svg"" width=""35%"" height=""75%""></img></td>
    <td width=300></td>
  </tr>
</table>
  ",90.0,1.0,,,,,,,,,,,,,,,,,,,,,,,,,,
139,0,,html-keyboard-response,139,364267,0.0-4.23-2.23,dadu83g7ev6,2022-09-19 16:21:57.682,6060f5cf903a11469f49a6d0,0,55,56,42,42,43,female,,,"
  <table>
  <tr height=300>
    <td width=300 height=300><img src=""static/images/cards/1_of_black_bolts.svg"" width=""175px"" height=""250px""></img></td>
    <td width=300 height=300><img src=""static/images/cards/back_of_black_bolts.svg"" width=""175px"" height=""250px""></img></td>
  </tr>
  <tr height=200>
    <td width=300><img src=""static/images/keys/z.svg"" width=""35%"" height=""75%""></img></td>
    <td width=300></td>
  </tr>
</table>
  ",,,,,,,,,,,,,,,,,,,,,,,,,,,,
140,0,,html-keyboard-response,140,365787,0.0-4.23-3.23,dadu83g7ev6,2022-09-19 16:21:57.682,6060f5cf903a11469f49a6d0,0,55,56,42,42,43,female,,,"<p style=""font-size:50px"">You win!
+10 points this round!</p>",,,,,,,,,,,,,,,,,,,,,,,,,,,,
141,0,,html-keyboard-response,141,366299,0.0-4.23-4.23,dadu83g7ev6,2022-09-19 16:21:57.682,6060f5cf903a11469f49a6d0,0,55,56,42,42,43,female,,,,,,1.0,learning,23.0,Xnc,,black,,bolts,,,,Xnc,black,bolts,,0.0,0.0,1,left,762.4000000954,1.0,0.0,1.0,,,
142,0,,call-function,142,366310,0.0-5.0,dadu83g7ev6,2022-09-19 16:21:57.682,6060f5cf903a11469f49a6d0,0,55,56,42,42,43,female,,,,,,,,,,,,,,,,,,,,,,,,,,,,,,,
143,0,,image-keyboard-response,143,369279,0.0-6.0-0.0,dadu83g7ev6,2022-09-19 16:21:57.682,6060f5cf903a11469f49a6d0,0,55,56,42,42,43,female,2969.0,,static/images/instructions_CB_0/Slide20.png,39.0,,,,,,,,,,,,,,,,,,,,,,,,,,,
144,0,,image-keyboard-response,144,373717,0.0-6.1-0.1,dadu83g7ev6,2022-09-19 16:21:57.682,6060f5cf903a11469f49a6d0,0,55,56,42,42,43,female,4437.4000000954,,static/images/instructions_CB_0/Slide21.png,39.0,,,,,,,,,,,,,,,,,,,,,,,,,,,
145,0,,image-keyboard-response,145,382646,0.0-6.2-0.2,dadu83g7ev6,2022-09-19 16:21:57.682,6060f5cf903a11469f49a6d0,0,55,56,42,42,43,female,8928.7999999523,,static/images/instructions_CB_0/Slide22.png,39.0,,,,,,,,,,,,,,,,,,,,,,,,,,,
146,0,,image-keyboard-response,146,387136,0.0-6.3-0.3,dadu83g7ev6,2022-09-19 16:21:57.682,6060f5cf903a11469f49a6d0,0,55,56,42,42,43,female,4489.5,,static/images/instructions_CB_0/Slide23.png,39.0,,,,,,,,,,,,,,,,,,,,,,,,,,,
147,0,,image-keyboard-response,147,389085,0.0-6.4-0.4,dadu83g7ev6,2022-09-19 16:21:57.682,6060f5cf903a11469f49a6d0,0,55,56,42,42,43,female,1948.4000000954,,static/images/instructions_CB_0/Slide24.png,39.0,,,,,,,,,,,,,,,,,,,,,,,,,,,
148,0,,html-keyboard-response,148,392832,0.0-7.0-0.0,dadu83g7ev6,2022-09-19 16:21:57.682,6060f5cf903a11469f49a6d0,0,55,56,42,42,43,female,3746.3000001907,,"
  <table>
  <tr height=300>
    <td width=300 height=300><img src=""static/images/cards/stack_of_black_moons.svg"" width=""175px"" height=""250px""></img></td>
    <td width=300 height=300><img src=""static/images/cards/stack_of_black_stars.svg"" width=""175px"" height=""250px""></img></td>
  </tr>
  <tr height=200>
    <td width=300><img src=""static/images/keys/w.svg"" width=""35%"" height=""75%""></img></td>
    <td width=300><img src=""static/images/keys/o.svg"" width=""35%"" height=""75%""></img></td>
  </tr>
</table>
  ",79.0,1.0,,,,,,,,,,,,,,,,,,,,,,,,,,
149,0,,html-keyboard-response,149,395936,0.0-7.0-1.0,dadu83g7ev6,2022-09-19 16:21:57.682,6060f5cf903a11469f49a6d0,0,55,56,42,42,43,female,2598.1999998093,,"
  <table>
  <tr height=300>
    <td width=300 height=300><img src=""static/images/cards/back_of_black_stars.svg"" width=""175px"" height=""250px""></img></td>
    <td width=300 height=300><img src=""static/images/cards/back_of_black_stars.svg"" width=""175px"" height=""250px""></img></td>
  </tr>
  <tr height=200>
    <td width=300><img src=""static/images/keys/z.svg"" width=""35%"" height=""75%""></img></td>
    <td width=300></td>
  </tr>
</table>
  ",90.0,1.0,,,,,,,,,,,,,,,,,,,,,,,,,,
150,0,,html-keyboard-response,150,397444,0.0-7.0-2.0,dadu83g7ev6,2022-09-19 16:21:57.682,6060f5cf903a11469f49a6d0,0,55,56,42,42,43,female,,,"
  <table>
  <tr height=300>
    <td width=300 height=300><img src=""static/images/cards/1_of_black_stars.svg"" width=""175px"" height=""250px""></img></td>
    <td width=300 height=300><img src=""static/images/cards/back_of_black_stars.svg"" width=""175px"" height=""250px""></img></td>
  </tr>
  <tr height=200>
    <td width=300><img src=""static/images/keys/z.svg"" width=""35%"" height=""75%""></img></td>
    <td width=300></td>
  </tr>
</table>
  ",,,,,,,,,,,,,,,,,,,,,,,,,,,,
151,0,,html-keyboard-response,151,398964,0.0-7.0-3.0,dadu83g7ev6,2022-09-19 16:21:57.682,6060f5cf903a11469f49a6d0,0,55,56,42,42,43,female,,,"<p style=""font-size:50px"">You Lose!
No points this round.</p>",,,,,,,,,,,,,,,,,,,,,,,,,,,,
152,0,,html-keyboard-response,152,399479,0.0-7.0-4.0,dadu83g7ev6,2022-09-19 16:21:57.682,6060f5cf903a11469f49a6d0,0,55,56,42,42,43,female,,,,,,1.0,choice,0.0,B,D,black,black,moons,stars,D,B,B,black,stars,3746.3000001907,0.0,1.0,1,left,2598.1999998093,1.0,0.0,0.0,,,
153,0,,html-keyboard-response,153,401489,0.0-7.1-0.1,dadu83g7ev6,2022-09-19 16:21:57.682,6060f5cf903a11469f49a6d0,0,55,56,42,42,43,female,2008.7000000477,,"
  <table>
  <tr height=300>
    <td width=300 height=300><img src=""static/images/cards/stack_of_red_moons.svg"" width=""175px"" height=""250px""></img></td>
    <td width=300 height=300><img src=""static/images/cards/stack_of_black_stars.svg"" width=""175px"" height=""250px""></img></td>
  </tr>
  <tr height=200>
    <td width=300><img src=""static/images/keys/w.svg"" width=""35%"" height=""75%""></img></td>
    <td width=300><img src=""static/images/keys/o.svg"" width=""35%"" height=""75%""></img></td>
  </tr>
</table>
  ",79.0,1.0,,,,,,,,,,,,,,,,,,,,,,,,,,
154,0,,html-keyboard-response,154,402974,0.0-7.1-1.1,dadu83g7ev6,2022-09-19 16:21:57.682,6060f5cf903a11469f49a6d0,0,55,56,42,42,43,female,979.2999999523,,"
  <table>
  <tr height=300>
    <td width=300 height=300><img src=""static/images/cards/back_of_black_stars.svg"" width=""175px"" height=""250px""></img></td>
    <td width=300 height=300><img src=""static/images/cards/back_of_black_stars.svg"" width=""175px"" height=""250px""></img></td>
  </tr>
  <tr height=200>
    <td width=300></td>
    <td width=300><img src=""static/images/keys/m.svg"" width=""35%"" height=""75%""></img></td>
  </tr>
</table>
  ",77.0,1.0,,,,,,,,,,,,,,,,,,,,,,,,,,
155,0,,html-keyboard-response,155,404481,0.0-7.1-2.1,dadu83g7ev6,2022-09-19 16:21:57.682,6060f5cf903a11469f49a6d0,0,55,56,42,42,43,female,,,"
  <table>
  <tr height=300>
    <td width=300 height=300><img src=""static/images/cards/back_of_black_stars.svg"" width=""175px"" height=""250px""></img></td>
    <td width=300 height=300><img src=""static/images/cards/4_of_black_stars.svg"" width=""175px"" height=""250px""></img></td>
  </tr>
  <tr height=200>
    <td width=300></td>
    <td width=300><img src=""static/images/keys/m.svg"" width=""35%"" height=""75%""></img></td>
  </tr>
</table>
  ",,,,,,,,,,,,,,,,,,,,,,,,,,,,
156,0,,html-keyboard-response,156,405994,0.0-7.1-3.1,dadu83g7ev6,2022-09-19 16:21:57.682,6060f5cf903a11469f49a6d0,0,55,56,42,42,43,female,,,"<p style=""font-size:50px"">You Lose!
No points this round.</p>",,,,,,,,,,,,,,,,,,,,,,,,,,,,
157,0,,html-keyboard-response,157,406500,0.0-7.1-4.1,dadu83g7ev6,2022-09-19 16:21:57.682,6060f5cf903a11469f49a6d0,0,55,56,42,42,43,female,,,,,,1.0,choice,1.0,B,C,red,black,moons,stars,C,B,B,black,stars,2008.7000000477,0.0,1.0,0,right,979.2999999523,4.0,0.0,0.0,,,
158,0,,html-keyboard-response,158,408290,0.0-7.2-0.2,dadu83g7ev6,2022-09-19 16:21:57.682,6060f5cf903a11469f49a6d0,0,55,56,42,42,43,female,1789.0999999046,,"
  <table>
  <tr height=300>
    <td width=300 height=300><img src=""static/images/cards/stack_of_red_stars.svg"" width=""175px"" height=""250px""></img></td>
    <td width=300 height=300><img src=""static/images/cards/stack_of_black_stars.svg"" width=""175px"" height=""250px""></img></td>
  </tr>
  <tr height=200>
    <td width=300><img src=""static/images/keys/w.svg"" width=""35%"" height=""75%""></img></td>
    <td width=300><img src=""static/images/keys/o.svg"" width=""35%"" height=""75%""></img></td>
  </tr>
</table>
  ",87.0,1.0,,,,,,,,,,,,,,,,,,,,,,,,,,
159,0,,html-keyboard-response,159,410139,0.0-7.2-1.2,dadu83g7ev6,2022-09-19 16:21:57.682,6060f5cf903a11469f49a6d0,0,55,56,42,42,43,female,1344.7000000477,,"
  <table>
  <tr height=300>
    <td width=300 height=300><img src=""static/images/cards/back_of_red_stars.svg"" width=""175px"" height=""250px""></img></td>
    <td width=300 height=300><img src=""static/images/cards/back_of_red_stars.svg"" width=""175px"" height=""250px""></img></td>
  </tr>
  <tr height=200>
    <td width=300><img src=""static/images/keys/z.svg"" width=""35%"" height=""75%""></img></td>
    <td width=300><img src=""static/images/keys/m.svg"" width=""35%"" height=""75%""></img></td>
  </tr>
</table>
  ",90.0,1.0,,,,,,,,,,,,,,,,,,,,,,,,,,
160,0,,html-keyboard-response,160,411650,0.0-7.2-2.2,dadu83g7ev6,2022-09-19 16:21:57.682,6060f5cf903a11469f49a6d0,0,55,56,42,42,43,female,,,"
  <table>
  <tr height=300>
    <td width=300 height=300><img src=""static/images/cards/8_of_red_stars.svg"" width=""175px"" height=""250px""></img></td>
    <td width=300 height=300><img src=""static/images/cards/back_of_red_stars.svg"" width=""175px"" height=""250px""></img></td>
  </tr>
  <tr height=200>
    <td width=300><img src=""static/images/keys/z.svg"" width=""35%"" height=""75%""></img></td>
    <td width=300><img src=""static/images/keys/m.svg"" width=""35%"" height=""75%""></img></td>
  </tr>
</table>
  ",,,,,,,,,,,,,,,,,,,,,,,,,,,,
161,0,,html-keyboard-response,161,413171,0.0-7.2-3.2,dadu83g7ev6,2022-09-19 16:21:57.682,6060f5cf903a11469f49a6d0,0,55,56,42,42,43,female,,,"<p style=""font-size:50px"">You win!
+10 points this round!</p>",,,,,,,,,,,,,,,,,,,,,,,,,,,,
162,0,,html-keyboard-response,162,413686,0.0-7.2-4.2,dadu83g7ev6,2022-09-19 16:21:57.682,6060f5cf903a11469f49a6d0,0,55,56,42,42,43,female,,,,,,1.0,choice,2.0,A,B,red,black,stars,stars,A,B,A,red,stars,1789.0999999046,1.0,1.0,NA,left,1344.7000000477,8.0,1.0,1.0,,,
163,0,,html-keyboard-response,163,415161,0.0-7.3-0.3,dadu83g7ev6,2022-09-19 16:21:57.682,6060f5cf903a11469f49a6d0,0,55,56,42,42,43,female,1474.5,,"
  <table>
  <tr height=300>
    <td width=300 height=300><img src=""static/images/cards/stack_of_black_stars.svg"" width=""175px"" height=""250px""></img></td>
    <td width=300 height=300><img src=""static/images/cards/stack_of_red_stars.svg"" width=""175px"" height=""250px""></img></td>
  </tr>
  <tr height=200>
    <td width=300><img src=""static/images/keys/w.svg"" width=""35%"" height=""75%""></img></td>
    <td width=300><img src=""static/images/keys/o.svg"" width=""35%"" height=""75%""></img></td>
  </tr>
</table>
  ",87.0,1.0,,,,,,,,,,,,,,,,,,,,,,,,,,
164,0,,html-keyboard-response,164,416646,0.0-7.3-1.3,dadu83g7ev6,2022-09-19 16:21:57.682,6060f5cf903a11469f49a6d0,0,55,56,42,42,43,female,981.2000000477,,"
  <table>
  <tr height=300>
    <td width=300 height=300><img src=""static/images/cards/back_of_black_stars.svg"" width=""175px"" height=""250px""></img></td>
    <td width=300 height=300><img src=""static/images/cards/back_of_black_stars.svg"" width=""175px"" height=""250px""></img></td>
  </tr>
  <tr height=200>
    <td width=300><img src=""static/images/keys/z.svg"" width=""35%"" height=""75%""></img></td>
    <td width=300></td>
  </tr>
</table>
  ",90.0,1.0,,,,,,,,,,,,,,,,,,,,,,,,,,
165,0,,html-keyboard-response,165,418152,0.0-7.3-2.3,dadu83g7ev6,2022-09-19 16:21:57.682,6060f5cf903a11469f49a6d0,0,55,56,42,42,43,female,,,"
  <table>
  <tr height=300>
    <td width=300 height=300><img src=""static/images/cards/7_of_black_stars.svg"" width=""175px"" height=""250px""></img></td>
    <td width=300 height=300><img src=""static/images/cards/back_of_black_stars.svg"" width=""175px"" height=""250px""></img></td>
  </tr>
  <tr height=200>
    <td width=300><img src=""static/images/keys/z.svg"" width=""35%"" height=""75%""></img></td>
    <td width=300></td>
  </tr>
</table>
  ",,,,,,,,,,,,,,,,,,,,,,,,,,,,
166,0,,html-keyboard-response,166,419667,0.0-7.3-3.3,dadu83g7ev6,2022-09-19 16:21:57.682,6060f5cf903a11469f49a6d0,0,55,56,42,42,43,female,,,"<p style=""font-size:50px"">You win!
+10 points this round!</p>",,,,,,,,,,,,,,,,,,,,,,,,,,,,
167,0,,html-keyboard-response,167,420182,0.0-7.3-4.3,dadu83g7ev6,2022-09-19 16:21:57.682,6060f5cf903a11469f49a6d0,0,55,56,42,42,43,female,,,,,,1.0,choice,3.0,A,B,black,red,stars,stars,B,A,B,black,stars,1474.5,0.0,1.0,1,left,981.2000000477,7.0,1.0,1.0,,,
168,0,,html-keyboard-response,168,421390,0.0-7.4-0.4,dadu83g7ev6,2022-09-19 16:21:57.682,6060f5cf903a11469f49a6d0,0,55,56,42,42,43,female,1207.0,,"
  <table>
  <tr height=300>
    <td width=300 height=300><img src=""static/images/cards/stack_of_black_moons.svg"" width=""175px"" height=""250px""></img></td>
    <td width=300 height=300><img src=""static/images/cards/stack_of_black_stars.svg"" width=""175px"" height=""250px""></img></td>
  </tr>
  <tr height=200>
    <td width=300><img src=""static/images/keys/w.svg"" width=""35%"" height=""75%""></img></td>
    <td width=300><img src=""static/images/keys/o.svg"" width=""35%"" height=""75%""></img></td>
  </tr>
</table>
  ",87.0,1.0,,,,,,,,,,,,,,,,,,,,,,,,,,
169,0,,html-keyboard-response,169,422965,0.0-7.4-1.4,dadu83g7ev6,2022-09-19 16:21:57.682,6060f5cf903a11469f49a6d0,0,55,56,42,42,43,female,1068.1999998093,,"
  <table>
  <tr height=300>
    <td width=300 height=300><img src=""static/images/cards/back_of_black_moons.svg"" width=""175px"" height=""250px""></img></td>
    <td width=300 height=300><img src=""static/images/cards/back_of_black_moons.svg"" width=""175px"" height=""250px""></img></td>
  </tr>
  <tr height=200>
    <td width=300><img src=""static/images/keys/z.svg"" width=""35%"" height=""75%""></img></td>
    <td width=300></td>
  </tr>
</table>
  ",90.0,1.0,,,,,,,,,,,,,,,,,,,,,,,,,,
170,0,,html-keyboard-response,170,424473,0.0-7.4-2.4,dadu83g7ev6,2022-09-19 16:21:57.682,6060f5cf903a11469f49a6d0,0,55,56,42,42,43,female,,,"
  <table>
  <tr height=300>
    <td width=300 height=300><img src=""static/images/cards/9_of_black_moons.svg"" width=""175px"" height=""250px""></img></td>
    <td width=300 height=300><img src=""static/images/cards/back_of_black_moons.svg"" width=""175px"" height=""250px""></img></td>
  </tr>
  <tr height=200>
    <td width=300><img src=""static/images/keys/z.svg"" width=""35%"" height=""75%""></img></td>
    <td width=300></td>
  </tr>
</table>
  ",,,,,,,,,,,,,,,,,,,,,,,,,,,,
171,0,,html-keyboard-response,171,425983,0.0-7.4-3.4,dadu83g7ev6,2022-09-19 16:21:57.682,6060f5cf903a11469f49a6d0,0,55,56,42,42,43,female,,,"<p style=""font-size:50px"">You Lose!
No points this round.</p>",,,,,,,,,,,,,,,,,,,,,,,,,,,,
172,0,,html-keyboard-response,172,426492,0.0-7.4-4.4,dadu83g7ev6,2022-09-19 16:21:57.682,6060f5cf903a11469f49a6d0,0,55,56,42,42,43,female,,,,,,1.0,choice,4.0,B,D,black,black,moons,stars,D,B,D,black,moons,1207.0,0.0,0.0,1,left,1068.1999998093,9.0,1.0,0.0,,,
173,0,,html-keyboard-response,173,428574,0.0-7.5-0.5,dadu83g7ev6,2022-09-19 16:21:57.682,6060f5cf903a11469f49a6d0,0,55,56,42,42,43,female,2080.8999998569,,"
  <table>
  <tr height=300>
    <td width=300 height=300><img src=""static/images/cards/stack_of_red_stars.svg"" width=""175px"" height=""250px""></img></td>
    <td width=300 height=300><img src=""static/images/cards/stack_of_black_moons.svg"" width=""175px"" height=""250px""></img></td>
  </tr>
  <tr height=200>
    <td width=300><img src=""static/images/keys/w.svg"" width=""35%"" height=""75%""></img></td>
    <td width=300><img src=""static/images/keys/o.svg"" width=""35%"" height=""75%""></img></td>
  </tr>
</table>
  ",87.0,1.0,,,,,,,,,,,,,,,,,,,,,,,,,,
174,0,,html-keyboard-response,174,430240,0.0-7.5-1.5,dadu83g7ev6,2022-09-19 16:21:57.682,6060f5cf903a11469f49a6d0,0,55,56,42,42,43,female,1158.6000001431,,"
  <table>
  <tr height=300>
    <td width=300 height=300><img src=""static/images/cards/back_of_red_stars.svg"" width=""175px"" height=""250px""></img></td>
    <td width=300 height=300><img src=""static/images/cards/back_of_red_stars.svg"" width=""175px"" height=""250px""></img></td>
  </tr>
  <tr height=200>
    <td width=300><img src=""static/images/keys/z.svg"" width=""35%"" height=""75%""></img></td>
    <td width=300><img src=""static/images/keys/m.svg"" width=""35%"" height=""75%""></img></td>
  </tr>
</table>
  ",90.0,1.0,,,,,,,,,,,,,,,,,,,,,,,,,,
175,0,,html-keyboard-response,175,431748,0.0-7.5-2.5,dadu83g7ev6,2022-09-19 16:21:57.682,6060f5cf903a11469f49a6d0,0,55,56,42,42,43,female,,,"
  <table>
  <tr height=300>
    <td width=300 height=300><img src=""static/images/cards/7_of_red_stars.svg"" width=""175px"" height=""250px""></img></td>
    <td width=300 height=300><img src=""static/images/cards/back_of_red_stars.svg"" width=""175px"" height=""250px""></img></td>
  </tr>
  <tr height=200>
    <td width=300><img src=""static/images/keys/z.svg"" width=""35%"" height=""75%""></img></td>
    <td width=300><img src=""static/images/keys/m.svg"" width=""35%"" height=""75%""></img></td>
  </tr>
</table>
  ",,,,,,,,,,,,,,,,,,,,,,,,,,,,
176,0,,html-keyboard-response,176,433266,0.0-7.5-3.5,dadu83g7ev6,2022-09-19 16:21:57.682,6060f5cf903a11469f49a6d0,0,55,56,42,42,43,female,,,"<p style=""font-size:50px"">You win!
+10 points this round!</p>",,,,,,,,,,,,,,,,,,,,,,,,,,,,
177,0,,html-keyboard-response,177,433772,0.0-7.5-4.5,dadu83g7ev6,2022-09-19 16:21:57.682,6060f5cf903a11469f49a6d0,0,55,56,42,42,43,female,,,,,,1.0,choice,5.0,A,D,red,black,stars,moons,A,D,A,red,stars,2080.8999998569,1.0,1.0,NA,left,1158.6000001431,7.0,1.0,1.0,,,
178,0,,html-keyboard-response,178,435002,0.0-7.6-0.6,dadu83g7ev6,2022-09-19 16:21:57.682,6060f5cf903a11469f49a6d0,0,55,56,42,42,43,female,1228.7999999523,,"
  <table>
  <tr height=300>
    <td width=300 height=300><img src=""static/images/cards/stack_of_red_stars.svg"" width=""175px"" height=""250px""></img></td>
    <td width=300 height=300><img src=""static/images/cards/stack_of_red_moons.svg"" width=""175px"" height=""250px""></img></td>
  </tr>
  <tr height=200>
    <td width=300><img src=""static/images/keys/w.svg"" width=""35%"" height=""75%""></img></td>
    <td width=300><img src=""static/images/keys/o.svg"" width=""35%"" height=""75%""></img></td>
  </tr>
</table>
  ",87.0,1.0,,,,,,,,,,,,,,,,,,,,,,,,,,
179,0,,html-keyboard-response,179,437035,0.0-7.6-1.6,dadu83g7ev6,2022-09-19 16:21:57.682,6060f5cf903a11469f49a6d0,0,55,56,42,42,43,female,1530.5,,"
  <table>
  <tr height=300>
    <td width=300 height=300><img src=""static/images/cards/back_of_red_stars.svg"" width=""175px"" height=""250px""></img></td>
    <td width=300 height=300><img src=""static/images/cards/back_of_red_stars.svg"" width=""175px"" height=""250px""></img></td>
  </tr>
  <tr height=200>
    <td width=300><img src=""static/images/keys/z.svg"" width=""35%"" height=""75%""></img></td>
    <td width=300><img src=""static/images/keys/m.svg"" width=""35%"" height=""75%""></img></td>
  </tr>
</table>
  ",77.0,1.0,,,,,,,,,,,,,,,,,,,,,,,,,,
180,0,,html-keyboard-response,180,438547,0.0-7.6-2.6,dadu83g7ev6,2022-09-19 16:21:57.682,6060f5cf903a11469f49a6d0,0,55,56,42,42,43,female,,,"
  <table>
  <tr height=300>
    <td width=300 height=300><img src=""static/images/cards/back_of_red_stars.svg"" width=""175px"" height=""250px""></img></td>
    <td width=300 height=300><img src=""static/images/cards/9_of_red_stars.svg"" width=""175px"" height=""250px""></img></td>
  </tr>
  <tr height=200>
    <td width=300><img src=""static/images/keys/z.svg"" width=""35%"" height=""75%""></img></td>
    <td width=300><img src=""static/images/keys/m.svg"" width=""35%"" height=""75%""></img></td>
  </tr>
</table>
  ",,,,,,,,,,,,,,,,,,,,,,,,,,,,
181,0,,html-keyboard-response,181,440055,0.0-7.6-3.6,dadu83g7ev6,2022-09-19 16:21:57.682,6060f5cf903a11469f49a6d0,0,55,56,42,42,43,female,,,"<p style=""font-size:50px"">You win!
+10 points this round!</p>",,,,,,,,,,,,,,,,,,,,,,,,,,,,
182,0,,html-keyboard-response,182,440566,0.0-7.6-4.6,dadu83g7ev6,2022-09-19 16:21:57.682,6060f5cf903a11469f49a6d0,0,55,56,42,42,43,female,,,,,,1.0,choice,6.0,A,C,red,red,stars,moons,A,C,A,red,stars,1228.7999999523,1.0,1.0,NA,right,1530.5,9.0,1.0,1.0,,,
183,0,,html-keyboard-response,183,441743,0.0-7.7-0.7,dadu83g7ev6,2022-09-19 16:21:57.682,6060f5cf903a11469f49a6d0,0,55,56,42,42,43,female,1176.1000001431,,"
  <table>
  <tr height=300>
    <td width=300 height=300><img src=""static/images/cards/stack_of_red_stars.svg"" width=""175px"" height=""250px""></img></td>
    <td width=300 height=300><img src=""static/images/cards/stack_of_red_moons.svg"" width=""175px"" height=""250px""></img></td>
  </tr>
  <tr height=200>
    <td width=300><img src=""static/images/keys/w.svg"" width=""35%"" height=""75%""></img></td>
    <td width=300><img src=""static/images/keys/o.svg"" width=""35%"" height=""75%""></img></td>
  </tr>
</table>
  ",87.0,1.0,,,,,,,,,,,,,,,,,,,,,,,,,,
184,0,,html-keyboard-response,184,443633,0.0-7.7-1.7,dadu83g7ev6,2022-09-19 16:21:57.682,6060f5cf903a11469f49a6d0,0,55,56,42,42,43,female,1383.5999999046,,"
  <table>
  <tr height=300>
    <td width=300 height=300><img src=""static/images/cards/back_of_red_stars.svg"" width=""175px"" height=""250px""></img></td>
    <td width=300 height=300><img src=""static/images/cards/back_of_red_stars.svg"" width=""175px"" height=""250px""></img></td>
  </tr>
  <tr height=200>
    <td width=300><img src=""static/images/keys/z.svg"" width=""35%"" height=""75%""></img></td>
    <td width=300><img src=""static/images/keys/m.svg"" width=""35%"" height=""75%""></img></td>
  </tr>
</table>
  ",90.0,1.0,,,,,,,,,,,,,,,,,,,,,,,,,,
185,0,,html-keyboard-response,185,445139,0.0-7.7-2.7,dadu83g7ev6,2022-09-19 16:21:57.682,6060f5cf903a11469f49a6d0,0,55,56,42,42,43,female,,,"
  <table>
  <tr height=300>
    <td width=300 height=300><img src=""static/images/cards/9_of_red_stars.svg"" width=""175px"" height=""250px""></img></td>
    <td width=300 height=300><img src=""static/images/cards/back_of_red_stars.svg"" width=""175px"" height=""250px""></img></td>
  </tr>
  <tr height=200>
    <td width=300><img src=""static/images/keys/z.svg"" width=""35%"" height=""75%""></img></td>
    <td width=300><img src=""static/images/keys/m.svg"" width=""35%"" height=""75%""></img></td>
  </tr>
</table>
  ",,,,,,,,,,,,,,,,,,,,,,,,,,,,
186,0,,html-keyboard-response,186,446660,0.0-7.7-3.7,dadu83g7ev6,2022-09-19 16:21:57.682,6060f5cf903a11469f49a6d0,0,55,56,42,42,43,female,,,"<p style=""font-size:50px"">You win!
+10 points this round!</p>",,,,,,,,,,,,,,,,,,,,,,,,,,,,
187,0,,html-keyboard-response,187,447176,0.0-7.7-4.7,dadu83g7ev6,2022-09-19 16:21:57.682,6060f5cf903a11469f49a6d0,0,55,56,42,42,43,female,,,,,,1.0,choice,7.0,A,C,red,red,stars,moons,A,C,A,red,stars,1176.1000001431,1.0,1.0,NA,left,1383.5999999046,9.0,1.0,1.0,,,
188,0,,html-keyboard-response,188,448488,0.0-7.8-0.8,dadu83g7ev6,2022-09-19 16:21:57.682,6060f5cf903a11469f49a6d0,0,55,56,42,42,43,female,1311.1999998093,,"
  <table>
  <tr height=300>
    <td width=300 height=300><img src=""static/images/cards/stack_of_red_moons.svg"" width=""175px"" height=""250px""></img></td>
    <td width=300 height=300><img src=""static/images/cards/stack_of_black_moons.svg"" width=""175px"" height=""250px""></img></td>
  </tr>
  <tr height=200>
    <td width=300><img src=""static/images/keys/w.svg"" width=""35%"" height=""75%""></img></td>
    <td width=300><img src=""static/images/keys/o.svg"" width=""35%"" height=""75%""></img></td>
  </tr>
</table>
  ",87.0,1.0,,,,,,,,,,,,,,,,,,,,,,,,,,
189,0,,html-keyboard-response,189,450092,0.0-7.8-1.8,dadu83g7ev6,2022-09-19 16:21:57.682,6060f5cf903a11469f49a6d0,0,55,56,42,42,43,female,1096.7999999523,,"
  <table>
  <tr height=300>
    <td width=300 height=300><img src=""static/images/cards/back_of_red_moons.svg"" width=""175px"" height=""250px""></img></td>
    <td width=300 height=300><img src=""static/images/cards/back_of_red_moons.svg"" width=""175px"" height=""250px""></img></td>
  </tr>
  <tr height=200>
    <td width=300><img src=""static/images/keys/z.svg"" width=""35%"" height=""75%""></img></td>
    <td width=300><img src=""static/images/keys/m.svg"" width=""35%"" height=""75%""></img></td>
  </tr>
</table>
  ",77.0,1.0,,,,,,,,,,,,,,,,,,,,,,,,,,
190,0,,html-keyboard-response,190,451601,0.0-7.8-2.8,dadu83g7ev6,2022-09-19 16:21:57.682,6060f5cf903a11469f49a6d0,0,55,56,42,42,43,female,,,"
  <table>
  <tr height=300>
    <td width=300 height=300><img src=""static/images/cards/back_of_red_moons.svg"" width=""175px"" height=""250px""></img></td>
    <td width=300 height=300><img src=""static/images/cards/6_of_red_moons.svg"" width=""175px"" height=""250px""></img></td>
  </tr>
  <tr height=200>
    <td width=300><img src=""static/images/keys/z.svg"" width=""35%"" height=""75%""></img></td>
    <td width=300><img src=""static/images/keys/m.svg"" width=""35%"" height=""75%""></img></td>
  </tr>
</table>
  ",,,,,,,,,,,,,,,,,,,,,,,,,,,,
191,0,,html-keyboard-response,191,453112,0.0-7.8-3.8,dadu83g7ev6,2022-09-19 16:21:57.682,6060f5cf903a11469f49a6d0,0,55,56,42,42,43,female,,,"<p style=""font-size:50px"">You win!
+10 points this round!</p>",,,,,,,,,,,,,,,,,,,,,,,,,,,,
192,0,,html-keyboard-response,192,453622,0.0-7.8-4.8,dadu83g7ev6,2022-09-19 16:21:57.682,6060f5cf903a11469f49a6d0,0,55,56,42,42,43,female,,,,,,1.0,choice,8.0,C,D,red,black,moons,moons,C,D,C,red,moons,1311.1999998093,1.0,0.0,NA,right,1096.7999999523,6.0,1.0,1.0,,,
193,0,,html-keyboard-response,193,455016,0.0-7.9-0.9,dadu83g7ev6,2022-09-19 16:21:57.682,6060f5cf903a11469f49a6d0,0,55,56,42,42,43,female,1393.0999999046,,"
  <table>
  <tr height=300>
    <td width=300 height=300><img src=""static/images/cards/stack_of_black_moons.svg"" width=""175px"" height=""250px""></img></td>
    <td width=300 height=300><img src=""static/images/cards/stack_of_red_stars.svg"" width=""175px"" height=""250px""></img></td>
  </tr>
  <tr height=200>
    <td width=300><img src=""static/images/keys/w.svg"" width=""35%"" height=""75%""></img></td>
    <td width=300><img src=""static/images/keys/o.svg"" width=""35%"" height=""75%""></img></td>
  </tr>
</table>
  ",87.0,1.0,,,,,,,,,,,,,,,,,,,,,,,,,,
194,0,,html-keyboard-response,194,456542,0.0-7.9-1.9,dadu83g7ev6,2022-09-19 16:21:57.682,6060f5cf903a11469f49a6d0,0,55,56,42,42,43,female,1017.1000001431,,"
  <table>
  <tr height=300>
    <td width=300 height=300><img src=""static/images/cards/back_of_black_moons.svg"" width=""175px"" height=""250px""></img></td>
    <td width=300 height=300><img src=""static/images/cards/back_of_black_moons.svg"" width=""175px"" height=""250px""></img></td>
  </tr>
  <tr height=200>
    <td width=300></td>
    <td width=300><img src=""static/images/keys/m.svg"" width=""35%"" height=""75%""></img></td>
  </tr>
</table>
  ",77.0,1.0,,,,,,,,,,,,,,,,,,,,,,,,,,
195,0,,html-keyboard-response,195,458047,0.0-7.9-2.9,dadu83g7ev6,2022-09-19 16:21:57.682,6060f5cf903a11469f49a6d0,0,55,56,42,42,43,female,,,"
  <table>
  <tr height=300>
    <td width=300 height=300><img src=""static/images/cards/back_of_black_moons.svg"" width=""175px"" height=""250px""></img></td>
    <td width=300 height=300><img src=""static/images/cards/4_of_black_moons.svg"" width=""175px"" height=""250px""></img></td>
  </tr>
  <tr height=200>
    <td width=300></td>
    <td width=300><img src=""static/images/keys/m.svg"" width=""35%"" height=""75%""></img></td>
  </tr>
</table>
  ",,,,,,,,,,,,,,,,,,,,,,,,,,,,
196,0,,html-keyboard-response,196,459559,0.0-7.9-3.9,dadu83g7ev6,2022-09-19 16:21:57.682,6060f5cf903a11469f49a6d0,0,55,56,42,42,43,female,,,"<p style=""font-size:50px"">You Lose!
No points this round.</p>",,,,,,,,,,,,,,,,,,,,,,,,,,,,
197,0,,html-keyboard-response,197,460072,0.0-7.9-4.9,dadu83g7ev6,2022-09-19 16:21:57.682,6060f5cf903a11469f49a6d0,0,55,56,42,42,43,female,,,,,,1.0,choice,9.0,A,D,black,red,moons,stars,D,A,D,black,moons,1393.0999999046,0.0,0.0,0,right,1017.1000001431,4.0,0.0,0.0,,,
198,0,,html-keyboard-response,198,461330,0.0-7.10-0.10,dadu83g7ev6,2022-09-19 16:21:57.682,6060f5cf903a11469f49a6d0,0,55,56,42,42,43,female,1257.3000001907,,"
  <table>
  <tr height=300>
    <td width=300 height=300><img src=""static/images/cards/stack_of_red_moons.svg"" width=""175px"" height=""250px""></img></td>
    <td width=300 height=300><img src=""static/images/cards/stack_of_black_stars.svg"" width=""175px"" height=""250px""></img></td>
  </tr>
  <tr height=200>
    <td width=300><img src=""static/images/keys/w.svg"" width=""35%"" height=""75%""></img></td>
    <td width=300><img src=""static/images/keys/o.svg"" width=""35%"" height=""75%""></img></td>
  </tr>
</table>
  ",87.0,1.0,,,,,,,,,,,,,,,,,,,,,,,,,,
199,0,,html-keyboard-response,199,462770,0.0-7.10-1.10,dadu83g7ev6,2022-09-19 16:21:57.682,6060f5cf903a11469f49a6d0,0,55,56,42,42,43,female,938.0,,"
  <table>
  <tr height=300>
    <td width=300 height=300><img src=""static/images/cards/back_of_red_moons.svg"" width=""175px"" height=""250px""></img></td>
    <td width=300 height=300><img src=""static/images/cards/back_of_red_moons.svg"" width=""175px"" height=""250px""></img></td>
  </tr>
  <tr height=200>
    <td width=300><img src=""static/images/keys/z.svg"" width=""35%"" height=""75%""></img></td>
    <td width=300><img src=""static/images/keys/m.svg"" width=""35%"" height=""75%""></img></td>
  </tr>
</table>
  ",90.0,1.0,,,,,,,,,,,,,,,,,,,,,,,,,,
200,0,,html-keyboard-response,200,464281,0.0-7.10-2.10,dadu83g7ev6,2022-09-19 16:21:57.682,6060f5cf903a11469f49a6d0,0,55,56,42,42,43,female,,,"
  <table>
  <tr height=300>
    <td width=300 height=300><img src=""static/images/cards/8_of_red_moons.svg"" width=""175px"" height=""250px""></img></td>
    <td width=300 height=300><img src=""static/images/cards/back_of_red_moons.svg"" width=""175px"" height=""250px""></img></td>
  </tr>
  <tr height=200>
    <td width=300><img src=""static/images/keys/z.svg"" width=""35%"" height=""75%""></img></td>
    <td width=300><img src=""static/images/keys/m.svg"" width=""35%"" height=""75%""></img></td>
  </tr>
</table>
  ",,,,,,,,,,,,,,,,,,,,,,,,,,,,
201,0,,html-keyboard-response,201,465792,0.0-7.10-3.10,dadu83g7ev6,2022-09-19 16:21:57.682,6060f5cf903a11469f49a6d0,0,55,56,42,42,43,female,,,"<p style=""font-size:50px"">You Lose!
No points this round.</p>",,,,,,,,,,,,,,,,,,,,,,,,,,,,
202,0,,html-keyboard-response,202,466300,0.0-7.10-4.10,dadu83g7ev6,2022-09-19 16:21:57.682,6060f5cf903a11469f49a6d0,0,55,56,42,42,43,female,,,,,,1.0,choice,10.0,B,C,red,black,moons,stars,C,B,C,red,moons,1257.3000001907,1.0,0.0,NA,left,938.0,8.0,1.0,0.0,,,
203,0,,html-keyboard-response,203,467452,0.0-7.11-0.11,dadu83g7ev6,2022-09-19 16:21:57.682,6060f5cf903a11469f49a6d0,0,55,56,42,42,43,female,1151.2000000477,,"
  <table>
  <tr height=300>
    <td width=300 height=300><img src=""static/images/cards/stack_of_red_moons.svg"" width=""175px"" height=""250px""></img></td>
    <td width=300 height=300><img src=""static/images/cards/stack_of_black_stars.svg"" width=""175px"" height=""250px""></img></td>
  </tr>
  <tr height=200>
    <td width=300><img src=""static/images/keys/w.svg"" width=""35%"" height=""75%""></img></td>
    <td width=300><img src=""static/images/keys/o.svg"" width=""35%"" height=""75%""></img></td>
  </tr>
</table>
  ",87.0,1.0,,,,,,,,,,,,,,,,,,,,,,,,,,
204,0,,html-keyboard-response,204,468878,0.0-7.11-1.11,dadu83g7ev6,2022-09-19 16:21:57.682,6060f5cf903a11469f49a6d0,0,55,56,42,42,43,female,924.0999999046,,"
  <table>
  <tr height=300>
    <td width=300 height=300><img src=""static/images/cards/back_of_red_moons.svg"" width=""175px"" height=""250px""></img></td>
    <td width=300 height=300><img src=""static/images/cards/back_of_red_moons.svg"" width=""175px"" height=""250px""></img></td>
  </tr>
  <tr height=200>
    <td width=300><img src=""static/images/keys/z.svg"" width=""35%"" height=""75%""></img></td>
    <td width=300><img src=""static/images/keys/m.svg"" width=""35%"" height=""75%""></img></td>
  </tr>
</table>
  ",90.0,1.0,,,,,,,,,,,,,,,,,,,,,,,,,,
205,0,,html-keyboard-response,205,470386,0.0-7.11-2.11,dadu83g7ev6,2022-09-19 16:21:57.682,6060f5cf903a11469f49a6d0,0,55,56,42,42,43,female,,,"
  <table>
  <tr height=300>
    <td width=300 height=300><img src=""static/images/cards/2_of_red_moons.svg"" width=""175px"" height=""250px""></img></td>
    <td width=300 height=300><img src=""static/images/cards/back_of_red_moons.svg"" width=""175px"" height=""250px""></img></td>
  </tr>
  <tr height=200>
    <td width=300><img src=""static/images/keys/z.svg"" width=""35%"" height=""75%""></img></td>
    <td width=300><img src=""static/images/keys/m.svg"" width=""35%"" height=""75%""></img></td>
  </tr>
</table>
  ",,,,,,,,,,,,,,,,,,,,,,,,,,,,
206,0,,html-keyboard-response,206,471900,0.0-7.11-3.11,dadu83g7ev6,2022-09-19 16:21:57.682,6060f5cf903a11469f49a6d0,0,55,56,42,42,43,female,,,"<p style=""font-size:50px"">You Lose!
No points this round.</p>",,,,,,,,,,,,,,,,,,,,,,,,,,,,
207,0,,html-keyboard-response,207,472417,0.0-7.11-4.11,dadu83g7ev6,2022-09-19 16:21:57.682,6060f5cf903a11469f49a6d0,0,55,56,42,42,43,female,,,,,,1.0,choice,11.0,B,C,red,black,moons,stars,C,B,C,red,moons,1151.2000000477,1.0,0.0,NA,left,924.0999999046,2.0,0.0,0.0,,,
208,0,,html-keyboard-response,208,473697,0.0-7.12-0.12,dadu83g7ev6,2022-09-19 16:21:57.682,6060f5cf903a11469f49a6d0,0,55,56,42,42,43,female,1279.5999999046,,"
  <table>
  <tr height=300>
    <td width=300 height=300><img src=""static/images/cards/stack_of_black_moons.svg"" width=""175px"" height=""250px""></img></td>
    <td width=300 height=300><img src=""static/images/cards/stack_of_red_moons.svg"" width=""175px"" height=""250px""></img></td>
  </tr>
  <tr height=200>
    <td width=300><img src=""static/images/keys/w.svg"" width=""35%"" height=""75%""></img></td>
    <td width=300><img src=""static/images/keys/o.svg"" width=""35%"" height=""75%""></img></td>
  </tr>
</table>
  ",87.0,1.0,,,,,,,,,,,,,,,,,,,,,,,,,,
209,0,,html-keyboard-response,209,475155,0.0-7.12-1.12,dadu83g7ev6,2022-09-19 16:21:57.682,6060f5cf903a11469f49a6d0,0,55,56,42,42,43,female,955.2000000477,,"
  <table>
  <tr height=300>
    <td width=300 height=300><img src=""static/images/cards/back_of_black_moons.svg"" width=""175px"" height=""250px""></img></td>
    <td width=300 height=300><img src=""static/images/cards/back_of_black_moons.svg"" width=""175px"" height=""250px""></img></td>
  </tr>
  <tr height=200>
    <td width=300></td>
    <td width=300><img src=""static/images/keys/m.svg"" width=""35%"" height=""75%""></img></td>
  </tr>
</table>
  ",77.0,1.0,,,,,,,,,,,,,,,,,,,,,,,,,,
210,0,,html-keyboard-response,210,476664,0.0-7.12-2.12,dadu83g7ev6,2022-09-19 16:21:57.682,6060f5cf903a11469f49a6d0,0,55,56,42,42,43,female,,,"
  <table>
  <tr height=300>
    <td width=300 height=300><img src=""static/images/cards/back_of_black_moons.svg"" width=""175px"" height=""250px""></img></td>
    <td width=300 height=300><img src=""static/images/cards/6_of_black_moons.svg"" width=""175px"" height=""250px""></img></td>
  </tr>
  <tr height=200>
    <td width=300></td>
    <td width=300><img src=""static/images/keys/m.svg"" width=""35%"" height=""75%""></img></td>
  </tr>
</table>
  ",,,,,,,,,,,,,,,,,,,,,,,,,,,,
211,0,,html-keyboard-response,211,478179,0.0-7.12-3.12,dadu83g7ev6,2022-09-19 16:21:57.682,6060f5cf903a11469f49a6d0,0,55,56,42,42,43,female,,,"<p style=""font-size:50px"">You win!
+10 points this round!</p>",,,,,,,,,,,,,,,,,,,,,,,,,,,,
212,0,,html-keyboard-response,212,478687,0.0-7.12-4.12,dadu83g7ev6,2022-09-19 16:21:57.682,6060f5cf903a11469f49a6d0,0,55,56,42,42,43,female,,,,,,1.0,choice,12.0,C,D,black,red,moons,moons,D,C,D,black,moons,1279.5999999046,0.0,0.0,0,right,955.2000000477,6.0,1.0,1.0,,,
213,0,,html-keyboard-response,213,479743,0.0-7.13-0.13,dadu83g7ev6,2022-09-19 16:21:57.682,6060f5cf903a11469f49a6d0,0,55,56,42,42,43,female,1054.7999999523,,"
  <table>
  <tr height=300>
    <td width=300 height=300><img src=""static/images/cards/stack_of_black_stars.svg"" width=""175px"" height=""250px""></img></td>
    <td width=300 height=300><img src=""static/images/cards/stack_of_red_moons.svg"" width=""175px"" height=""250px""></img></td>
  </tr>
  <tr height=200>
    <td width=300><img src=""static/images/keys/w.svg"" width=""35%"" height=""75%""></img></td>
    <td width=300><img src=""static/images/keys/o.svg"" width=""35%"" height=""75%""></img></td>
  </tr>
</table>
  ",87.0,1.0,,,,,,,,,,,,,,,,,,,,,,,,,,
214,0,,html-keyboard-response,214,482798,0.0-7.13-1.13,dadu83g7ev6,2022-09-19 16:21:57.682,6060f5cf903a11469f49a6d0,0,55,56,42,42,43,female,2549.5999999046,,"
  <table>
  <tr height=300>
    <td width=300 height=300><img src=""static/images/cards/back_of_black_stars.svg"" width=""175px"" height=""250px""></img></td>
    <td width=300 height=300><img src=""static/images/cards/back_of_black_stars.svg"" width=""175px"" height=""250px""></img></td>
  </tr>
  <tr height=200>
    <td width=300></td>
    <td width=300><img src=""static/images/keys/m.svg"" width=""35%"" height=""75%""></img></td>
  </tr>
</table>
  ",77.0,2.0,,,,,,,,,,,,,,,,,,,,,,,,,,
215,0,,html-keyboard-response,215,484303,0.0-7.13-2.13,dadu83g7ev6,2022-09-19 16:21:57.682,6060f5cf903a11469f49a6d0,0,55,56,42,42,43,female,,,"
  <table>
  <tr height=300>
    <td width=300 height=300><img src=""static/images/cards/back_of_black_stars.svg"" width=""175px"" height=""250px""></img></td>
    <td width=300 height=300><img src=""static/images/cards/8_of_black_stars.svg"" width=""175px"" height=""250px""></img></td>
  </tr>
  <tr height=200>
    <td width=300></td>
    <td width=300><img src=""static/images/keys/m.svg"" width=""35%"" height=""75%""></img></td>
  </tr>
</table>
  ",,,,,,,,,,,,,,,,,,,,,,,,,,,,
216,0,,html-keyboard-response,216,485818,0.0-7.13-3.13,dadu83g7ev6,2022-09-19 16:21:57.682,6060f5cf903a11469f49a6d0,0,55,56,42,42,43,female,,,"<p style=""font-size:50px"">You win!
+10 points this round!</p>",,,,,,,,,,,,,,,,,,,,,,,,,,,,
217,0,,html-keyboard-response,217,486329,0.0-7.13-4.13,dadu83g7ev6,2022-09-19 16:21:57.682,6060f5cf903a11469f49a6d0,0,55,56,42,42,43,female,,,,,,1.0,choice,13.0,B,C,black,red,stars,moons,B,C,B,black,stars,1054.7999999523,0.0,1.0,0,right,2549.5999999046,8.0,1.0,1.0,,,
218,0,,html-keyboard-response,218,489182,0.0-7.14-0.14,dadu83g7ev6,2022-09-19 16:21:57.682,6060f5cf903a11469f49a6d0,0,55,56,42,42,43,female,2851.2999999523,,"
  <table>
  <tr height=300>
    <td width=300 height=300><img src=""static/images/cards/stack_of_red_moons.svg"" width=""175px"" height=""250px""></img></td>
    <td width=300 height=300><img src=""static/images/cards/stack_of_red_stars.svg"" width=""175px"" height=""250px""></img></td>
  </tr>
  <tr height=200>
    <td width=300><img src=""static/images/keys/w.svg"" width=""35%"" height=""75%""></img></td>
    <td width=300><img src=""static/images/keys/o.svg"" width=""35%"" height=""75%""></img></td>
  </tr>
</table>
  ",87.0,1.0,,,,,,,,,,,,,,,,,,,,,,,,,,
219,0,,html-keyboard-response,219,490698,0.0-7.14-1.14,dadu83g7ev6,2022-09-19 16:21:57.682,6060f5cf903a11469f49a6d0,0,55,56,42,42,43,female,1005.3999998569,,"
  <table>
  <tr height=300>
    <td width=300 height=300><img src=""static/images/cards/back_of_red_moons.svg"" width=""175px"" height=""250px""></img></td>
    <td width=300 height=300><img src=""static/images/cards/back_of_red_moons.svg"" width=""175px"" height=""250px""></img></td>
  </tr>
  <tr height=200>
    <td width=300><img src=""static/images/keys/z.svg"" width=""35%"" height=""75%""></img></td>
    <td width=300><img src=""static/images/keys/m.svg"" width=""35%"" height=""75%""></img></td>
  </tr>
</table>
  ",90.0,1.0,,,,,,,,,,,,,,,,,,,,,,,,,,
220,0,,html-keyboard-response,220,492204,0.0-7.14-2.14,dadu83g7ev6,2022-09-19 16:21:57.682,6060f5cf903a11469f49a6d0,0,55,56,42,42,43,female,,,"
  <table>
  <tr height=300>
    <td width=300 height=300><img src=""static/images/cards/8_of_red_moons.svg"" width=""175px"" height=""250px""></img></td>
    <td width=300 height=300><img src=""static/images/cards/back_of_red_moons.svg"" width=""175px"" height=""250px""></img></td>
  </tr>
  <tr height=200>
    <td width=300><img src=""static/images/keys/z.svg"" width=""35%"" height=""75%""></img></td>
    <td width=300><img src=""static/images/keys/m.svg"" width=""35%"" height=""75%""></img></td>
  </tr>
</table>
  ",,,,,,,,,,,,,,,,,,,,,,,,,,,,
221,0,,html-keyboard-response,221,493724,0.0-7.14-3.14,dadu83g7ev6,2022-09-19 16:21:57.682,6060f5cf903a11469f49a6d0,0,55,56,42,42,43,female,,,"<p style=""font-size:50px"">You Lose!
No points this round.</p>",,,,,,,,,,,,,,,,,,,,,,,,,,,,
222,0,,html-keyboard-response,222,494240,0.0-7.14-4.14,dadu83g7ev6,2022-09-19 16:21:57.682,6060f5cf903a11469f49a6d0,0,55,56,42,42,43,female,,,,,,1.0,choice,14.0,A,C,red,red,moons,stars,C,A,C,red,moons,2851.2999999523,1.0,0.0,NA,left,1005.3999998569,8.0,1.0,0.0,,,
223,0,,html-keyboard-response,223,495489,0.0-7.15-0.15,dadu83g7ev6,2022-09-19 16:21:57.682,6060f5cf903a11469f49a6d0,0,55,56,42,42,43,female,1247.7000000477,,"
  <table>
  <tr height=300>
    <td width=300 height=300><img src=""static/images/cards/stack_of_black_stars.svg"" width=""175px"" height=""250px""></img></td>
    <td width=300 height=300><img src=""static/images/cards/stack_of_red_moons.svg"" width=""175px"" height=""250px""></img></td>
  </tr>
  <tr height=200>
    <td width=300><img src=""static/images/keys/w.svg"" width=""35%"" height=""75%""></img></td>
    <td width=300><img src=""static/images/keys/o.svg"" width=""35%"" height=""75%""></img></td>
  </tr>
</table>
  ",87.0,1.0,,,,,,,,,,,,,,,,,,,,,,,,,,
224,0,,html-keyboard-response,224,496978,0.0-7.15-1.15,dadu83g7ev6,2022-09-19 16:21:57.682,6060f5cf903a11469f49a6d0,0,55,56,42,42,43,female,982.8999998569,,"
  <table>
  <tr height=300>
    <td width=300 height=300><img src=""static/images/cards/back_of_black_stars.svg"" width=""175px"" height=""250px""></img></td>
    <td width=300 height=300><img src=""static/images/cards/back_of_black_stars.svg"" width=""175px"" height=""250px""></img></td>
  </tr>
  <tr height=200>
    <td width=300></td>
    <td width=300><img src=""static/images/keys/m.svg"" width=""35%"" height=""75%""></img></td>
  </tr>
</table>
  ",77.0,1.0,,,,,,,,,,,,,,,,,,,,,,,,,,
225,0,,html-keyboard-response,225,498481,0.0-7.15-2.15,dadu83g7ev6,2022-09-19 16:21:57.682,6060f5cf903a11469f49a6d0,0,55,56,42,42,43,female,,,"
  <table>
  <tr height=300>
    <td width=300 height=300><img src=""static/images/cards/back_of_black_stars.svg"" width=""175px"" height=""250px""></img></td>
    <td width=300 height=300><img src=""static/images/cards/7_of_black_stars.svg"" width=""175px"" height=""250px""></img></td>
  </tr>
  <tr height=200>
    <td width=300></td>
    <td width=300><img src=""static/images/keys/m.svg"" width=""35%"" height=""75%""></img></td>
  </tr>
</table>
  ",,,,,,,,,,,,,,,,,,,,,,,,,,,,
226,0,,html-keyboard-response,226,499994,0.0-7.15-3.15,dadu83g7ev6,2022-09-19 16:21:57.682,6060f5cf903a11469f49a6d0,0,55,56,42,42,43,female,,,"<p style=""font-size:50px"">You win!
+10 points this round!</p>",,,,,,,,,,,,,,,,,,,,,,,,,,,,
227,0,,html-keyboard-response,227,500502,0.0-7.15-4.15,dadu83g7ev6,2022-09-19 16:21:57.682,6060f5cf903a11469f49a6d0,0,55,56,42,42,43,female,,,,,,1.0,choice,15.0,B,C,black,red,stars,moons,B,C,B,black,stars,1247.7000000477,0.0,1.0,0,right,982.8999998569,7.0,1.0,1.0,,,
228,0,,html-keyboard-response,228,501636,0.0-7.16-0.16,dadu83g7ev6,2022-09-19 16:21:57.682,6060f5cf903a11469f49a6d0,0,55,56,42,42,43,female,1132.7000000477,,"
  <table>
  <tr height=300>
    <td width=300 height=300><img src=""static/images/cards/stack_of_red_bolts.svg"" width=""175px"" height=""250px""></img></td>
    <td width=300 height=300><img src=""static/images/cards/stack_of_red_stars.svg"" width=""175px"" height=""250px""></img></td>
  </tr>
  <tr height=200>
    <td width=300><img src=""static/images/keys/w.svg"" width=""35%"" height=""75%""></img></td>
    <td width=300><img src=""static/images/keys/o.svg"" width=""35%"" height=""75%""></img></td>
  </tr>
</table>
  ",87.0,1.0,,,,,,,,,,,,,,,,,,,,,,,,,,
229,0,,html-keyboard-response,229,503184,0.0-7.16-1.16,dadu83g7ev6,2022-09-19 16:21:57.682,6060f5cf903a11469f49a6d0,0,55,56,42,42,43,female,1038.7999999523,,"
  <table>
  <tr height=300>
    <td width=300 height=300><img src=""static/images/cards/back_of_red_bolts.svg"" width=""175px"" height=""250px""></img></td>
    <td width=300 height=300><img src=""static/images/cards/back_of_red_bolts.svg"" width=""175px"" height=""250px""></img></td>
  </tr>
  <tr height=200>
    <td width=300><img src=""static/images/keys/z.svg"" width=""35%"" height=""75%""></img></td>
    <td width=300><img src=""static/images/keys/m.svg"" width=""35%"" height=""75%""></img></td>
  </tr>
</table>
  ",90.0,1.0,,,,,,,,,,,,,,,,,,,,,,,,,,
230,0,,html-keyboard-response,230,504687,0.0-7.16-2.16,dadu83g7ev6,2022-09-19 16:21:57.682,6060f5cf903a11469f49a6d0,0,55,56,42,42,43,female,,,"
  <table>
  <tr height=300>
    <td width=300 height=300><img src=""static/images/cards/3_of_red_bolts.svg"" width=""175px"" height=""250px""></img></td>
    <td width=300 height=300><img src=""static/images/cards/back_of_red_bolts.svg"" width=""175px"" height=""250px""></img></td>
  </tr>
  <tr height=200>
    <td width=300><img src=""static/images/keys/z.svg"" width=""35%"" height=""75%""></img></td>
    <td width=300><img src=""static/images/keys/m.svg"" width=""35%"" height=""75%""></img></td>
  </tr>
</table>
  ",,,,,,,,,,,,,,,,,,,,,,,,,,,,
231,0,,html-keyboard-response,231,506203,0.0-7.16-3.16,dadu83g7ev6,2022-09-19 16:21:57.682,6060f5cf903a11469f49a6d0,0,55,56,42,42,43,female,,,"<p style=""font-size:50px"">You win!
+10 points this round!</p>",,,,,,,,,,,,,,,,,,,,,,,,,,,,
