,index,success,trial_type,trial_index,time_elapsed,internal_node_id,subject,date,prol_id,ctbl,sense_of_control_A,sense_of_control_B,sense_of_control_C,sense_of_control_D,age,gender,rt,url,stimulus,key_press,npress,is_data_trial,phase,trial,deck1,deck2,col1,col2,sym1,sym2,deck_l,deck_r,chosen_deck,chosen_col,chosen_sym,deck_rt,choose_choice,mutual_info,hidden_key,chosen_card,card_rt,player_num,win_card,outcome,mock_rating,response,responses
0,0,1.0,fullscreen,0,3300,0.0-0.0,c8wnux2zipn,2022-09-16 18:29:08.566,62d019a022610b31756bdaa5,3,49,22,26,0,28,Male,,,,,,,,,,,,,,,,,,,,,,,,,,,,,,,
1,0,,external-html,1,10921,0.0-1.0,c8wnux2zipn,2022-09-16 18:29:08.566,62d019a022610b31756bdaa5,3,49,22,26,0,28,Male,7537.6000000089,static/js/sub/consent.html,,,,,,,,,,,,,,,,,,,,,,,,,,,,,
2,0,,call-function,2,10930,0.0-2.0,c8wnux2zipn,2022-09-16 18:29:08.566,62d019a022610b31756bdaa5,3,49,22,26,0,28,Male,,,,,,,,,,,,,,,,,,,,,,,,,,,,,,,
3,0,,image-keyboard-response,3,18153,0.0-3.0-0.0,c8wnux2zipn,2022-09-16 18:29:08.566,62d019a022610b31756bdaa5,3,49,22,26,0,28,Male,7218.599999994,,static/images/instructions_CB_3/Slide1.png,39.0,,,,,,,,,,,,,,,,,,,,,,,,,,,
4,0,,image-keyboard-response,4,29639,0.0-3.1-0.1,c8wnux2zipn,2022-09-16 18:29:08.566,62d019a022610b31756bdaa5,3,49,22,26,0,28,Male,11480.6000000089,,static/images/instructions_CB_3/Slide2.png,39.0,,,,,,,,,,,,,,,,,,,,,,,,,,,
5,0,,image-keyboard-response,5,32612,0.0-3.2-0.2,c8wnux2zipn,2022-09-16 18:29:08.566,62d019a022610b31756bdaa5,3,49,22,26,0,28,Male,2969.200000003,,static/images/instructions_CB_3/Slide3.png,39.0,,,,,,,,,,,,,,,,,,,,,,,,,,,
6,0,,image-keyboard-response,6,41199,0.0-3.3-0.3,c8wnux2zipn,2022-09-16 18:29:08.566,62d019a022610b31756bdaa5,3,49,22,26,0,28,Male,8582.900000006,,static/images/instructions_CB_3/Slide4.png,39.0,,,,,,,,,,,,,,,,,,,,,,,,,,,
7,0,,image-keyboard-response,7,48214,0.0-3.4-0.4,c8wnux2zipn,2022-09-16 18:29:08.566,62d019a022610b31756bdaa5,3,49,22,26,0,28,Male,7012.099999994,,static/images/instructions_CB_3/Slide5.png,39.0,,,,,,,,,,,,,,,,,,,,,,,,,,,
8,0,,image-keyboard-response,8,50742,0.0-3.5-0.5,c8wnux2zipn,2022-09-16 18:29:08.566,62d019a022610b31756bdaa5,3,49,22,26,0,28,Male,2525.0,,static/images/instructions_CB_3/Slide6.png,39.0,,,,,,,,,,,,,,,,,,,,,,,,,,,
9,0,,image-keyboard-response,9,55255,0.0-3.6-0.6,c8wnux2zipn,2022-09-16 18:29:08.566,62d019a022610b31756bdaa5,3,49,22,26,0,28,Male,4509.0,,static/images/instructions_CB_3/Slide7.png,39.0,,,,,,,,,,,,,,,,,,,,,,,,,,,
10,0,,image-keyboard-response,10,81287,0.0-3.7-0.7,c8wnux2zipn,2022-09-16 18:29:08.566,62d019a022610b31756bdaa5,3,49,22,26,0,28,Male,26028.900000006,,static/images/instructions_CB_3/Slide8.png,39.0,,,,,,,,,,,,,,,,,,,,,,,,,,,
11,0,,image-keyboard-response,11,89446,0.0-3.8-0.8,c8wnux2zipn,2022-09-16 18:29:08.566,62d019a022610b31756bdaa5,3,49,22,26,0,28,Male,8156.599999994,,static/images/instructions_CB_3/Slide9.png,39.0,,,,,,,,,,,,,,,,,,,,,,,,,,,
12,0,,image-keyboard-response,12,102423,0.0-3.9-0.9,c8wnux2zipn,2022-09-16 18:29:08.566,62d019a022610b31756bdaa5,3,49,22,26,0,28,Male,12973.5,,static/images/instructions_CB_3/Slide10.png,39.0,,,,,,,,,,,,,,,,,,,,,,,,,,,
13,0,,image-keyboard-response,13,105486,0.0-3.10-0.10,c8wnux2zipn,2022-09-16 18:29:08.566,62d019a022610b31756bdaa5,3,49,22,26,0,28,Male,3060.3999999911,,static/images/instructions_CB_3/Slide11.png,39.0,,,,,,,,,,,,,,,,,,,,,,,,,,,
14,0,,image-keyboard-response,14,131039,0.0-3.11-0.11,c8wnux2zipn,2022-09-16 18:29:08.566,62d019a022610b31756bdaa5,3,49,22,26,0,28,Male,25549.599999994,,static/images/instructions_CB_3/Slide12.png,39.0,,,,,,,,,,,,,,,,,,,,,,,,,,,
15,0,,image-keyboard-response,15,149239,0.0-3.12-0.12,c8wnux2zipn,2022-09-16 18:29:08.566,62d019a022610b31756bdaa5,3,49,22,26,0,28,Male,18197.400000006,,static/images/instructions_CB_3/Slide13.png,39.0,,,,,,,,,,,,,,,,,,,,,,,,,,,
16,0,,image-keyboard-response,16,156581,0.0-3.13-0.13,c8wnux2zipn,2022-09-16 18:29:08.566,62d019a022610b31756bdaa5,3,49,22,26,0,28,Male,7339.700000003,,static/images/instructions_CB_3/Slide14.png,37.0,,,,,,,,,,,,,,,,,,,,,,,,,,,
17,0,,image-keyboard-response,17,161215,0.0-3.14-0.14,c8wnux2zipn,2022-09-16 18:29:08.566,62d019a022610b31756bdaa5,3,49,22,26,0,28,Male,4631.6000000089,,static/images/instructions_CB_3/Slide13.png,39.0,,,,,,,,,,,,,,,,,,,,,,,,,,,
18,0,,image-keyboard-response,18,162814,0.0-3.15-0.15,c8wnux2zipn,2022-09-16 18:29:08.566,62d019a022610b31756bdaa5,3,49,22,26,0,28,Male,1596.6000000089,,static/images/instructions_CB_3/Slide14.png,39.0,,,,,,,,,,,,,,,,,,,,,,,,,,,
19,0,,image-keyboard-response,19,172687,0.0-3.16-0.16,c8wnux2zipn,2022-09-16 18:29:08.566,62d019a022610b31756bdaa5,3,49,22,26,0,28,Male,9870.0,,static/images/instructions_CB_3/Slide15.png,39.0,,,,,,,,,,,,,,,,,,,,,,,,,,,
20,0,,image-keyboard-response,20,183031,0.0-3.17-0.17,c8wnux2zipn,2022-09-16 18:29:08.566,62d019a022610b31756bdaa5,3,49,22,26,0,28,Male,10341.1000000089,,static/images/instructions_CB_3/Slide16.png,39.0,,,,,,,,,,,,,,,,,,,,,,,,,,,
21,0,,image-keyboard-response,21,193047,0.0-3.18-0.18,c8wnux2zipn,2022-09-16 18:29:08.566,62d019a022610b31756bdaa5,3,49,22,26,0,28,Male,10013.0,,static/images/instructions_CB_3/Slide17.png,39.0,,,,,,,,,,,,,,,,,,,,,,,,,,,
22,0,,image-keyboard-response,22,226221,0.0-3.19-0.19,c8wnux2zipn,2022-09-16 18:29:08.566,62d019a022610b31756bdaa5,3,49,22,26,0,28,Male,33171.5,,static/images/instructions_CB_3/Slide18.png,39.0,,,,,,,,,,,,,,,,,,,,,,,,,,,
23,0,,image-keyboard-response,23,234902,0.0-3.20-0.20,c8wnux2zipn,2022-09-16 18:29:08.566,62d019a022610b31756bdaa5,3,49,22,26,0,28,Male,8679.5,,static/images/instructions_CB_3/Slide19.png,39.0,,,,,,,,,,,,,,,,,,,,,,,,,,,
24,0,,html-keyboard-response,24,236410,0.0-4.0-0.0,c8wnux2zipn,2022-09-16 18:29:08.566,62d019a022610b31756bdaa5,3,49,22,26,0,28,Male,,,"<img src=""static/images/cards/stack_of_black_moons.svg"" width=""175px"" height=""250px""></img>",,,,,,,,,,,,,,,,,,,,,,,,,,,,
25,0,,html-keyboard-response,25,239597,0.0-4.0-1.0,c8wnux2zipn,2022-09-16 18:29:08.566,62d019a022610b31756bdaa5,3,49,22,26,0,28,Male,2669.900000006,,"
  <table>
  <tr height=300>
    <td width=300 height=300><img src=""static/images/cards/back_of_black_moons.svg"" width=""175px"" height=""250px""></img></td>
    <td width=300 height=300><img src=""static/images/cards/back_of_black_moons.svg"" width=""175px"" height=""250px""></img></td>
  </tr>
  <tr height=200>
    <td width=300><img src=""static/images/keys/z.svg"" width=""35%"" height=""75%""></img></td>
    <td width=300><img src=""static/images/keys/m.svg"" width=""35%"" height=""75%""></img></td>
  </tr>
</table>
  ",77.0,1.0,,,,,,,,,,,,,,,,,,,,,,,,,,
26,0,,html-keyboard-response,26,241111,0.0-4.0-2.0,c8wnux2zipn,2022-09-16 18:29:08.566,62d019a022610b31756bdaa5,3,49,22,26,0,28,Male,,,"
  <table>
  <tr height=300>
    <td width=300 height=300><img src=""static/images/cards/back_of_black_moons.svg"" width=""175px"" height=""250px""></img></td>
    <td width=300 height=300><img src=""static/images/cards/7_of_black_moons.svg"" width=""175px"" height=""250px""></img></td>
  </tr>
  <tr height=200>
    <td width=300><img src=""static/images/keys/z.svg"" width=""35%"" height=""75%""></img></td>
    <td width=300><img src=""static/images/keys/m.svg"" width=""35%"" height=""75%""></img></td>
  </tr>
</table>
  ",,,,,,,,,,,,,,,,,,,,,,,,,,,,
27,0,,html-keyboard-response,27,242639,0.0-4.0-3.0,c8wnux2zipn,2022-09-16 18:29:08.566,62d019a022610b31756bdaa5,3,49,22,26,0,28,Male,,,"<p style=""font-size:50px"">You win!
+10 points this round!</p>",,,,,,,,,,,,,,,,,,,,,,,,,,,,
28,0,,html-keyboard-response,28,243159,0.0-4.0-4.0,c8wnux2zipn,2022-09-16 18:29:08.566,62d019a022610b31756bdaa5,3,49,22,26,0,28,Male,,,,,,1.0,learning,0.0,A,,black,,moons,,,,A,black,moons,,1.0,1.0,NA,right,2669.900000006,7.0,1.0,1.0,,,
29,0,,html-keyboard-response,29,244667,0.0-4.1-0.1,c8wnux2zipn,2022-09-16 18:29:08.566,62d019a022610b31756bdaa5,3,49,22,26,0,28,Male,,,"<img src=""static/images/cards/stack_of_red_moons.svg"" width=""175px"" height=""250px""></img>",,,,,,,,,,,,,,,,,,,,,,,,,,,,
30,0,,html-keyboard-response,30,245966,0.0-4.1-1.1,c8wnux2zipn,2022-09-16 18:29:08.566,62d019a022610b31756bdaa5,3,49,22,26,0,28,Male,795.799999997,,"
  <table>
  <tr height=300>
    <td width=300 height=300><img src=""static/images/cards/back_of_red_moons.svg"" width=""175px"" height=""250px""></img></td>
    <td width=300 height=300><img src=""static/images/cards/back_of_red_moons.svg"" width=""175px"" height=""250px""></img></td>
  </tr>
  <tr height=200>
    <td width=300></td>
    <td width=300><img src=""static/images/keys/m.svg"" width=""35%"" height=""75%""></img></td>
  </tr>
</table>
  ",77.0,1.0,,,,,,,,,,,,,,,,,,,,,,,,,,
31,0,,html-keyboard-response,31,247476,0.0-4.1-2.1,c8wnux2zipn,2022-09-16 18:29:08.566,62d019a022610b31756bdaa5,3,49,22,26,0,28,Male,,,"
  <table>
  <tr height=300>
    <td width=300 height=300><img src=""static/images/cards/back_of_red_moons.svg"" width=""175px"" height=""250px""></img></td>
    <td width=300 height=300><img src=""static/images/cards/1_of_red_moons.svg"" width=""175px"" height=""250px""></img></td>
  </tr>
  <tr height=200>
    <td width=300></td>
    <td width=300><img src=""static/images/keys/m.svg"" width=""35%"" height=""75%""></img></td>
  </tr>
</table>
  ",,,,,,,,,,,,,,,,,,,,,,,,,,,,
32,0,,html-keyboard-response,32,249006,0.0-4.1-3.1,c8wnux2zipn,2022-09-16 18:29:08.566,62d019a022610b31756bdaa5,3,49,22,26,0,28,Male,,,"<p style=""font-size:50px"">You Lose!
No points this round.</p>",,,,,,,,,,,,,,,,,,,,,,,,,,,,
33,0,,html-keyboard-response,33,249526,0.0-4.1-4.1,c8wnux2zipn,2022-09-16 18:29:08.566,62d019a022610b31756bdaa5,3,49,22,26,0,28,Male,,,,,,1.0,learning,1.0,B,,red,,moons,,,,B,red,moons,,0.0,1.0,0,right,795.799999997,1.0,0.0,0.0,,,
34,0,,html-keyboard-response,34,251038,0.0-4.2-0.2,c8wnux2zipn,2022-09-16 18:29:08.566,62d019a022610b31756bdaa5,3,49,22,26,0,28,Male,,,"<img src=""static/images/cards/stack_of_black_stars.svg"" width=""175px"" height=""250px""></img>",,,,,,,,,,,,,,,,,,,,,,,,,,,,
35,0,,html-keyboard-response,35,253463,0.0-4.2-1.2,c8wnux2zipn,2022-09-16 18:29:08.566,62d019a022610b31756bdaa5,3,49,22,26,0,28,Male,1906.5,,"
  <table>
  <tr height=300>
    <td width=300 height=300><img src=""static/images/cards/back_of_black_stars.svg"" width=""175px"" height=""250px""></img></td>
    <td width=300 height=300><img src=""static/images/cards/back_of_black_stars.svg"" width=""175px"" height=""250px""></img></td>
  </tr>
  <tr height=200>
    <td width=300><img src=""static/images/keys/z.svg"" width=""35%"" height=""75%""></img></td>
    <td width=300><img src=""static/images/keys/m.svg"" width=""35%"" height=""75%""></img></td>
  </tr>
</table>
  ",90.0,1.0,,,,,,,,,,,,,,,,,,,,,,,,,,
36,0,,html-keyboard-response,36,254974,0.0-4.2-2.2,c8wnux2zipn,2022-09-16 18:29:08.566,62d019a022610b31756bdaa5,3,49,22,26,0,28,Male,,,"
  <table>
  <tr height=300>
    <td width=300 height=300><img src=""static/images/cards/2_of_black_stars.svg"" width=""175px"" height=""250px""></img></td>
    <td width=300 height=300><img src=""static/images/cards/back_of_black_stars.svg"" width=""175px"" height=""250px""></img></td>
  </tr>
  <tr height=200>
    <td width=300><img src=""static/images/keys/z.svg"" width=""35%"" height=""75%""></img></td>
    <td width=300><img src=""static/images/keys/m.svg"" width=""35%"" height=""75%""></img></td>
  </tr>
</table>
  ",,,,,,,,,,,,,,,,,,,,,,,,,,,,
37,0,,html-keyboard-response,37,256502,0.0-4.2-3.2,c8wnux2zipn,2022-09-16 18:29:08.566,62d019a022610b31756bdaa5,3,49,22,26,0,28,Male,,,"<p style=""font-size:50px"">You Lose!
No points this round.</p>",,,,,,,,,,,,,,,,,,,,,,,,,,,,
38,0,,html-keyboard-response,38,257024,0.0-4.2-4.2,c8wnux2zipn,2022-09-16 18:29:08.566,62d019a022610b31756bdaa5,3,49,22,26,0,28,Male,,,,,,1.0,learning,2.0,C,,black,,stars,,,,C,black,stars,,1.0,0.0,NA,left,1906.5,2.0,0.0,0.0,,,
39,0,,html-keyboard-response,39,258532,0.0-4.3-0.3,c8wnux2zipn,2022-09-16 18:29:08.566,62d019a022610b31756bdaa5,3,49,22,26,0,28,Male,,,"<img src=""static/images/cards/stack_of_red_stars.svg"" width=""175px"" height=""250px""></img>",,,,,,,,,,,,,,,,,,,,,,,,,,,,
40,0,,html-keyboard-response,40,259983,0.0-4.3-1.3,c8wnux2zipn,2022-09-16 18:29:08.566,62d019a022610b31756bdaa5,3,49,22,26,0,28,Male,933.299999997,,"
  <table>
  <tr height=300>
    <td width=300 height=300><img src=""static/images/cards/back_of_red_stars.svg"" width=""175px"" height=""250px""></img></td>
    <td width=300 height=300><img src=""static/images/cards/back_of_red_stars.svg"" width=""175px"" height=""250px""></img></td>
  </tr>
  <tr height=200>
    <td width=300></td>
    <td width=300><img src=""static/images/keys/m.svg"" width=""35%"" height=""75%""></img></td>
  </tr>
</table>
  ",77.0,1.0,,,,,,,,,,,,,,,,,,,,,,,,,,
41,0,,html-keyboard-response,41,261501,0.0-4.3-2.3,c8wnux2zipn,2022-09-16 18:29:08.566,62d019a022610b31756bdaa5,3,49,22,26,0,28,Male,,,"
  <table>
  <tr height=300>
    <td width=300 height=300><img src=""static/images/cards/back_of_red_stars.svg"" width=""175px"" height=""250px""></img></td>
    <td width=300 height=300><img src=""static/images/cards/2_of_red_stars.svg"" width=""175px"" height=""250px""></img></td>
  </tr>
  <tr height=200>
    <td width=300></td>
    <td width=300><img src=""static/images/keys/m.svg"" width=""35%"" height=""75%""></img></td>
  </tr>
</table>
  ",,,,,,,,,,,,,,,,,,,,,,,,,,,,
42,0,,html-keyboard-response,42,263022,0.0-4.3-3.3,c8wnux2zipn,2022-09-16 18:29:08.566,62d019a022610b31756bdaa5,3,49,22,26,0,28,Male,,,"<p style=""font-size:50px"">You Lose!
No points this round.</p>",,,,,,,,,,,,,,,,,,,,,,,,,,,,
43,0,,html-keyboard-response,43,263541,0.0-4.3-4.3,c8wnux2zipn,2022-09-16 18:29:08.566,62d019a022610b31756bdaa5,3,49,22,26,0,28,Male,,,,,,1.0,learning,3.0,D,,red,,stars,,,,D,red,stars,,0.0,0.0,0,right,933.299999997,2.0,0.0,0.0,,,
44,0,,html-keyboard-response,44,265049,0.0-4.4-0.4,c8wnux2zipn,2022-09-16 18:29:08.566,62d019a022610b31756bdaa5,3,49,22,26,0,28,Male,,,"<img src=""static/images/cards/stack_of_red_bolts.svg"" width=""175px"" height=""250px""></img>",,,,,,,,,,,,,,,,,,,,,,,,,,,,
45,0,,html-keyboard-response,45,267415,0.0-4.4-1.4,c8wnux2zipn,2022-09-16 18:29:08.566,62d019a022610b31756bdaa5,3,49,22,26,0,28,Male,1860.1999999881,,"
  <table>
  <tr height=300>
    <td width=300 height=300><img src=""static/images/cards/back_of_red_bolts.svg"" width=""175px"" height=""250px""></img></td>
    <td width=300 height=300><img src=""static/images/cards/back_of_red_bolts.svg"" width=""175px"" height=""250px""></img></td>
  </tr>
  <tr height=200>
    <td width=300><img src=""static/images/keys/z.svg"" width=""35%"" height=""75%""></img></td>
    <td width=300><img src=""static/images/keys/m.svg"" width=""35%"" height=""75%""></img></td>
  </tr>
</table>
  ",77.0,1.0,,,,,,,,,,,,,,,,,,,,,,,,,,
46,0,,html-keyboard-response,46,268930,0.0-4.4-2.4,c8wnux2zipn,2022-09-16 18:29:08.566,62d019a022610b31756bdaa5,3,49,22,26,0,28,Male,,,"
  <table>
  <tr height=300>
    <td width=300 height=300><img src=""static/images/cards/back_of_red_bolts.svg"" width=""175px"" height=""250px""></img></td>
    <td width=300 height=300><img src=""static/images/cards/6_of_red_bolts.svg"" width=""175px"" height=""250px""></img></td>
  </tr>
  <tr height=200>
    <td width=300><img src=""static/images/keys/z.svg"" width=""35%"" height=""75%""></img></td>
    <td width=300><img src=""static/images/keys/m.svg"" width=""35%"" height=""75%""></img></td>
  </tr>
</table>
  ",,,,,,,,,,,,,,,,,,,,,,,,,,,,
47,0,,html-keyboard-response,47,270458,0.0-4.4-3.4,c8wnux2zipn,2022-09-16 18:29:08.566,62d019a022610b31756bdaa5,3,49,22,26,0,28,Male,,,"<p style=""font-size:50px"">You win!
+10 points this round!</p>",,,,,,,,,,,,,,,,,,,,,,,,,,,,
48,0,,html-keyboard-response,48,270964,0.0-4.4-4.4,c8wnux2zipn,2022-09-16 18:29:08.566,62d019a022610b31756bdaa5,3,49,22,26,0,28,Male,,,,,,1.0,learning,4.0,Xc,,red,,bolts,,,,Xc,red,bolts,,1.0,0.0,NA,right,1860.1999999881,6.0,1.0,1.0,,,
49,0,,html-keyboard-response,49,272473,0.0-4.5-0.5,c8wnux2zipn,2022-09-16 18:29:08.566,62d019a022610b31756bdaa5,3,49,22,26,0,28,Male,,,"<img src=""static/images/cards/stack_of_black_bolts.svg"" width=""175px"" height=""250px""></img>",,,,,,,,,,,,,,,,,,,,,,,,,,,,
50,0,,html-keyboard-response,50,273758,0.0-4.5-1.5,c8wnux2zipn,2022-09-16 18:29:08.566,62d019a022610b31756bdaa5,3,49,22,26,0,28,Male,768.299999997,,"
  <table>
  <tr height=300>
    <td width=300 height=300><img src=""static/images/cards/back_of_black_bolts.svg"" width=""175px"" height=""250px""></img></td>
    <td width=300 height=300><img src=""static/images/cards/back_of_black_bolts.svg"" width=""175px"" height=""250px""></img></td>
  </tr>
  <tr height=200>
    <td width=300><img src=""static/images/keys/z.svg"" width=""35%"" height=""75%""></img></td>
    <td width=300></td>
  </tr>
</table>
  ",90.0,1.0,,,,,,,,,,,,,,,,,,,,,,,,,,
51,0,,html-keyboard-response,51,275271,0.0-4.5-2.5,c8wnux2zipn,2022-09-16 18:29:08.566,62d019a022610b31756bdaa5,3,49,22,26,0,28,Male,,,"
  <table>
  <tr height=300>
    <td width=300 height=300><img src=""static/images/cards/1_of_black_bolts.svg"" width=""175px"" height=""250px""></img></td>
    <td width=300 height=300><img src=""static/images/cards/back_of_black_bolts.svg"" width=""175px"" height=""250px""></img></td>
  </tr>
  <tr height=200>
    <td width=300><img src=""static/images/keys/z.svg"" width=""35%"" height=""75%""></img></td>
    <td width=300></td>
  </tr>
</table>
  ",,,,,,,,,,,,,,,,,,,,,,,,,,,,
52,0,,html-keyboard-response,52,276800,0.0-4.5-3.5,c8wnux2zipn,2022-09-16 18:29:08.566,62d019a022610b31756bdaa5,3,49,22,26,0,28,Male,,,"<p style=""font-size:50px"">You win!
+10 points this round!</p>",,,,,,,,,,,,,,,,,,,,,,,,,,,,
53,0,,html-keyboard-response,53,277318,0.0-4.5-4.5,c8wnux2zipn,2022-09-16 18:29:08.566,62d019a022610b31756bdaa5,3,49,22,26,0,28,Male,,,,,,1.0,learning,5.0,Xnc,,black,,bolts,,,,Xnc,black,bolts,,0.0,0.0,1,left,768.299999997,1.0,0.0,1.0,,,
54,0,,html-keyboard-response,54,278825,0.0-4.6-0.6,c8wnux2zipn,2022-09-16 18:29:08.566,62d019a022610b31756bdaa5,3,49,22,26,0,28,Male,,,"<img src=""static/images/cards/stack_of_black_moons.svg"" width=""175px"" height=""250px""></img>",,,,,,,,,,,,,,,,,,,,,,,,,,,,
55,0,,html-keyboard-response,55,280392,0.0-4.6-1.6,c8wnux2zipn,2022-09-16 18:29:08.566,62d019a022610b31756bdaa5,3,49,22,26,0,28,Male,1061.3999999911,,"
  <table>
  <tr height=300>
    <td width=300 height=300><img src=""static/images/cards/back_of_black_moons.svg"" width=""175px"" height=""250px""></img></td>
    <td width=300 height=300><img src=""static/images/cards/back_of_black_moons.svg"" width=""175px"" height=""250px""></img></td>
  </tr>
  <tr height=200>
    <td width=300><img src=""static/images/keys/z.svg"" width=""35%"" height=""75%""></img></td>
    <td width=300><img src=""static/images/keys/m.svg"" width=""35%"" height=""75%""></img></td>
  </tr>
</table>
  ",90.0,1.0,,,,,,,,,,,,,,,,,,,,,,,,,,
56,0,,html-keyboard-response,56,281903,0.0-4.6-2.6,c8wnux2zipn,2022-09-16 18:29:08.566,62d019a022610b31756bdaa5,3,49,22,26,0,28,Male,,,"
  <table>
  <tr height=300>
    <td width=300 height=300><img src=""static/images/cards/2_of_black_moons.svg"" width=""175px"" height=""250px""></img></td>
    <td width=300 height=300><img src=""static/images/cards/back_of_black_moons.svg"" width=""175px"" height=""250px""></img></td>
  </tr>
  <tr height=200>
    <td width=300><img src=""static/images/keys/z.svg"" width=""35%"" height=""75%""></img></td>
    <td width=300><img src=""static/images/keys/m.svg"" width=""35%"" height=""75%""></img></td>
  </tr>
</table>
  ",,,,,,,,,,,,,,,,,,,,,,,,,,,,
57,0,,html-keyboard-response,57,283432,0.0-4.6-3.6,c8wnux2zipn,2022-09-16 18:29:08.566,62d019a022610b31756bdaa5,3,49,22,26,0,28,Male,,,"<p style=""font-size:50px"">You Lose!
No points this round.</p>",,,,,,,,,,,,,,,,,,,,,,,,,,,,
58,0,,html-keyboard-response,58,283940,0.0-4.6-4.6,c8wnux2zipn,2022-09-16 18:29:08.566,62d019a022610b31756bdaa5,3,49,22,26,0,28,Male,,,,,,1.0,learning,6.0,A,,black,,moons,,,,A,black,moons,,1.0,1.0,NA,left,1061.3999999911,2.0,0.0,0.0,,,
59,0,,html-keyboard-response,59,285456,0.0-4.7-0.7,c8wnux2zipn,2022-09-16 18:29:08.566,62d019a022610b31756bdaa5,3,49,22,26,0,28,Male,,,"<img src=""static/images/cards/stack_of_red_moons.svg"" width=""175px"" height=""250px""></img>",,,,,,,,,,,,,,,,,,,,,,,,,,,,
60,0,,html-keyboard-response,60,286654,0.0-4.7-1.7,c8wnux2zipn,2022-09-16 18:29:08.566,62d019a022610b31756bdaa5,3,49,22,26,0,28,Male,680.6999999881,,"
  <table>
  <tr height=300>
    <td width=300 height=300><img src=""static/images/cards/back_of_red_moons.svg"" width=""175px"" height=""250px""></img></td>
    <td width=300 height=300><img src=""static/images/cards/back_of_red_moons.svg"" width=""175px"" height=""250px""></img></td>
  </tr>
  <tr height=200>
    <td width=300></td>
    <td width=300><img src=""static/images/keys/m.svg"" width=""35%"" height=""75%""></img></td>
  </tr>
</table>
  ",77.0,1.0,,,,,,,,,,,,,,,,,,,,,,,,,,
61,0,,html-keyboard-response,61,288161,0.0-4.7-2.7,c8wnux2zipn,2022-09-16 18:29:08.566,62d019a022610b31756bdaa5,3,49,22,26,0,28,Male,,,"
  <table>
  <tr height=300>
    <td width=300 height=300><img src=""static/images/cards/back_of_red_moons.svg"" width=""175px"" height=""250px""></img></td>
    <td width=300 height=300><img src=""static/images/cards/8_of_red_moons.svg"" width=""175px"" height=""250px""></img></td>
  </tr>
  <tr height=200>
    <td width=300></td>
    <td width=300><img src=""static/images/keys/m.svg"" width=""35%"" height=""75%""></img></td>
  </tr>
</table>
  ",,,,,,,,,,,,,,,,,,,,,,,,,,,,
62,0,,html-keyboard-response,62,289690,0.0-4.7-3.7,c8wnux2zipn,2022-09-16 18:29:08.566,62d019a022610b31756bdaa5,3,49,22,26,0,28,Male,,,"<p style=""font-size:50px"">You win!
+10 points this round!</p>",,,,,,,,,,,,,,,,,,,,,,,,,,,,
63,0,,html-keyboard-response,63,290211,0.0-4.7-4.7,c8wnux2zipn,2022-09-16 18:29:08.566,62d019a022610b31756bdaa5,3,49,22,26,0,28,Male,,,,,,1.0,learning,7.0,B,,red,,moons,,,,B,red,moons,,0.0,1.0,0,right,680.6999999881,8.0,1.0,1.0,,,
64,0,,html-keyboard-response,64,291718,0.0-4.8-0.8,c8wnux2zipn,2022-09-16 18:29:08.566,62d019a022610b31756bdaa5,3,49,22,26,0,28,Male,,,"<img src=""static/images/cards/stack_of_black_stars.svg"" width=""175px"" height=""250px""></img>",,,,,,,,,,,,,,,,,,,,,,,,,,,,
65,0,,html-keyboard-response,65,293326,0.0-4.8-1.8,c8wnux2zipn,2022-09-16 18:29:08.566,62d019a022610b31756bdaa5,3,49,22,26,0,28,Male,1088.900000006,,"
  <table>
  <tr height=300>
    <td width=300 height=300><img src=""static/images/cards/back_of_black_stars.svg"" width=""175px"" height=""250px""></img></td>
    <td width=300 height=300><img src=""static/images/cards/back_of_black_stars.svg"" width=""175px"" height=""250px""></img></td>
  </tr>
  <tr height=200>
    <td width=300><img src=""static/images/keys/z.svg"" width=""35%"" height=""75%""></img></td>
    <td width=300><img src=""static/images/keys/m.svg"" width=""35%"" height=""75%""></img></td>
  </tr>
</table>
  ",77.0,1.0,,,,,,,,,,,,,,,,,,,,,,,,,,
66,0,,html-keyboard-response,66,294843,0.0-4.8-2.8,c8wnux2zipn,2022-09-16 18:29:08.566,62d019a022610b31756bdaa5,3,49,22,26,0,28,Male,,,"
  <table>
  <tr height=300>
    <td width=300 height=300><img src=""static/images/cards/back_of_black_stars.svg"" width=""175px"" height=""250px""></img></td>
    <td width=300 height=300><img src=""static/images/cards/1_of_black_stars.svg"" width=""175px"" height=""250px""></img></td>
  </tr>
  <tr height=200>
    <td width=300><img src=""static/images/keys/z.svg"" width=""35%"" height=""75%""></img></td>
    <td width=300><img src=""static/images/keys/m.svg"" width=""35%"" height=""75%""></img></td>
  </tr>
</table>
  ",,,,,,,,,,,,,,,,,,,,,,,,,,,,
67,0,,html-keyboard-response,67,296371,0.0-4.8-3.8,c8wnux2zipn,2022-09-16 18:29:08.566,62d019a022610b31756bdaa5,3,49,22,26,0,28,Male,,,"<p style=""font-size:50px"">You win!
+10 points this round!</p>",,,,,,,,,,,,,,,,,,,,,,,,,,,,
68,0,,html-keyboard-response,68,296889,0.0-4.8-4.8,c8wnux2zipn,2022-09-16 18:29:08.566,62d019a022610b31756bdaa5,3,49,22,26,0,28,Male,,,,,,1.0,learning,8.0,C,,black,,stars,,,,C,black,stars,,1.0,0.0,NA,right,1088.900000006,1.0,0.0,1.0,,,
69,0,,html-keyboard-response,69,298398,0.0-4.9-0.9,c8wnux2zipn,2022-09-16 18:29:08.566,62d019a022610b31756bdaa5,3,49,22,26,0,28,Male,,,"<img src=""static/images/cards/stack_of_red_stars.svg"" width=""175px"" height=""250px""></img>",,,,,,,,,,,,,,,,,,,,,,,,,,,,
70,0,,html-keyboard-response,70,299734,0.0-4.9-1.9,c8wnux2zipn,2022-09-16 18:29:08.566,62d019a022610b31756bdaa5,3,49,22,26,0,28,Male,818.6000000089,,"
  <table>
  <tr height=300>
    <td width=300 height=300><img src=""static/images/cards/back_of_red_stars.svg"" width=""175px"" height=""250px""></img></td>
    <td width=300 height=300><img src=""static/images/cards/back_of_red_stars.svg"" width=""175px"" height=""250px""></img></td>
  </tr>
  <tr height=200>
    <td width=300></td>
    <td width=300><img src=""static/images/keys/m.svg"" width=""35%"" height=""75%""></img></td>
  </tr>
</table>
  ",77.0,1.0,,,,,,,,,,,,,,,,,,,,,,,,,,
71,0,,html-keyboard-response,71,301239,0.0-4.9-2.9,c8wnux2zipn,2022-09-16 18:29:08.566,62d019a022610b31756bdaa5,3,49,22,26,0,28,Male,,,"
  <table>
  <tr height=300>
    <td width=300 height=300><img src=""static/images/cards/back_of_red_stars.svg"" width=""175px"" height=""250px""></img></td>
    <td width=300 height=300><img src=""static/images/cards/1_of_red_stars.svg"" width=""175px"" height=""250px""></img></td>
  </tr>
  <tr height=200>
    <td width=300></td>
    <td width=300><img src=""static/images/keys/m.svg"" width=""35%"" height=""75%""></img></td>
  </tr>
</table>
  ",,,,,,,,,,,,,,,,,,,,,,,,,,,,
72,0,,html-keyboard-response,72,302766,0.0-4.9-3.9,c8wnux2zipn,2022-09-16 18:29:08.566,62d019a022610b31756bdaa5,3,49,22,26,0,28,Male,,,"<p style=""font-size:50px"">You Lose!
No points this round.</p>",,,,,,,,,,,,,,,,,,,,,,,,,,,,
73,0,,html-keyboard-response,73,303283,0.0-4.9-4.9,c8wnux2zipn,2022-09-16 18:29:08.566,62d019a022610b31756bdaa5,3,49,22,26,0,28,Male,,,,,,1.0,learning,9.0,D,,red,,stars,,,,D,red,stars,,0.0,0.0,0,right,818.6000000089,1.0,0.0,0.0,,,
74,0,,html-keyboard-response,74,304792,0.0-4.10-0.10,c8wnux2zipn,2022-09-16 18:29:08.566,62d019a022610b31756bdaa5,3,49,22,26,0,28,Male,,,"<img src=""static/images/cards/stack_of_red_bolts.svg"" width=""175px"" height=""250px""></img>",,,,,,,,,,,,,,,,,,,,,,,,,,,,
75,0,,html-keyboard-response,75,305645,0.0-4.10-1.10,c8wnux2zipn,2022-09-16 18:29:08.566,62d019a022610b31756bdaa5,3,49,22,26,0,28,Male,333.099999994,,"
  <table>
  <tr height=300>
    <td width=300 height=300><img src=""static/images/cards/back_of_red_bolts.svg"" width=""175px"" height=""250px""></img></td>
    <td width=300 height=300><img src=""static/images/cards/back_of_red_bolts.svg"" width=""175px"" height=""250px""></img></td>
  </tr>
  <tr height=200>
    <td width=300><img src=""static/images/keys/z.svg"" width=""35%"" height=""75%""></img></td>
    <td width=300><img src=""static/images/keys/m.svg"" width=""35%"" height=""75%""></img></td>
  </tr>
</table>
  ",90.0,1.0,,,,,,,,,,,,,,,,,,,,,,,,,,
76,0,,html-keyboard-response,76,307152,0.0-4.10-2.10,c8wnux2zipn,2022-09-16 18:29:08.566,62d019a022610b31756bdaa5,3,49,22,26,0,28,Male,,,"
  <table>
  <tr height=300>
    <td width=300 height=300><img src=""static/images/cards/2_of_red_bolts.svg"" width=""175px"" height=""250px""></img></td>
    <td width=300 height=300><img src=""static/images/cards/back_of_red_bolts.svg"" width=""175px"" height=""250px""></img></td>
  </tr>
  <tr height=200>
    <td width=300><img src=""static/images/keys/z.svg"" width=""35%"" height=""75%""></img></td>
    <td width=300><img src=""static/images/keys/m.svg"" width=""35%"" height=""75%""></img></td>
  </tr>
</table>
  ",,,,,,,,,,,,,,,,,,,,,,,,,,,,
77,0,,html-keyboard-response,77,308683,0.0-4.10-3.10,c8wnux2zipn,2022-09-16 18:29:08.566,62d019a022610b31756bdaa5,3,49,22,26,0,28,Male,,,"<p style=""font-size:50px"">You win!
+10 points this round!</p>",,,,,,,,,,,,,,,,,,,,,,,,,,,,
78,0,,html-keyboard-response,78,309203,0.0-4.10-4.10,c8wnux2zipn,2022-09-16 18:29:08.566,62d019a022610b31756bdaa5,3,49,22,26,0,28,Male,,,,,,1.0,learning,10.0,Xc,,red,,bolts,,,,Xc,red,bolts,,1.0,0.0,NA,left,333.099999994,2.0,0.0,1.0,,,
79,0,,html-keyboard-response,79,310715,0.0-4.11-0.11,c8wnux2zipn,2022-09-16 18:29:08.566,62d019a022610b31756bdaa5,3,49,22,26,0,28,Male,,,"<img src=""static/images/cards/stack_of_black_bolts.svg"" width=""175px"" height=""250px""></img>",,,,,,,,,,,,,,,,,,,,,,,,,,,,
80,0,,html-keyboard-response,80,311853,0.0-4.11-1.11,c8wnux2zipn,2022-09-16 18:29:08.566,62d019a022610b31756bdaa5,3,49,22,26,0,28,Male,622.6000000089,,"
  <table>
  <tr height=300>
    <td width=300 height=300><img src=""static/images/cards/back_of_black_bolts.svg"" width=""175px"" height=""250px""></img></td>
    <td width=300 height=300><img src=""static/images/cards/back_of_black_bolts.svg"" width=""175px"" height=""250px""></img></td>
  </tr>
  <tr height=200>
    <td width=300><img src=""static/images/keys/z.svg"" width=""35%"" height=""75%""></img></td>
    <td width=300></td>
  </tr>
</table>
  ",90.0,1.0,,,,,,,,,,,,,,,,,,,,,,,,,,
81,0,,html-keyboard-response,81,313366,0.0-4.11-2.11,c8wnux2zipn,2022-09-16 18:29:08.566,62d019a022610b31756bdaa5,3,49,22,26,0,28,Male,,,"
  <table>
  <tr height=300>
    <td width=300 height=300><img src=""static/images/cards/9_of_black_bolts.svg"" width=""175px"" height=""250px""></img></td>
    <td width=300 height=300><img src=""static/images/cards/back_of_black_bolts.svg"" width=""175px"" height=""250px""></img></td>
  </tr>
  <tr height=200>
    <td width=300><img src=""static/images/keys/z.svg"" width=""35%"" height=""75%""></img></td>
    <td width=300></td>
  </tr>
</table>
  ",,,,,,,,,,,,,,,,,,,,,,,,,,,,
82,0,,html-keyboard-response,82,314894,0.0-4.11-3.11,c8wnux2zipn,2022-09-16 18:29:08.566,62d019a022610b31756bdaa5,3,49,22,26,0,28,Male,,,"<p style=""font-size:50px"">You win!
+10 points this round!</p>",,,,,,,,,,,,,,,,,,,,,,,,,,,,
83,0,,html-keyboard-response,83,315414,0.0-4.11-4.11,c8wnux2zipn,2022-09-16 18:29:08.566,62d019a022610b31756bdaa5,3,49,22,26,0,28,Male,,,,,,1.0,learning,11.0,Xnc,,black,,bolts,,,,Xnc,black,bolts,,0.0,0.0,1,left,622.6000000089,9.0,1.0,1.0,,,
84,0,,html-keyboard-response,84,316924,0.0-4.12-0.12,c8wnux2zipn,2022-09-16 18:29:08.566,62d019a022610b31756bdaa5,3,49,22,26,0,28,Male,,,"<img src=""static/images/cards/stack_of_black_moons.svg"" width=""175px"" height=""250px""></img>",,,,,,,,,,,,,,,,,,,,,,,,,,,,
85,0,,html-keyboard-response,85,318287,0.0-4.12-1.12,c8wnux2zipn,2022-09-16 18:29:08.566,62d019a022610b31756bdaa5,3,49,22,26,0,28,Male,857.5,,"
  <table>
  <tr height=300>
    <td width=300 height=300><img src=""static/images/cards/back_of_black_moons.svg"" width=""175px"" height=""250px""></img></td>
    <td width=300 height=300><img src=""static/images/cards/back_of_black_moons.svg"" width=""175px"" height=""250px""></img></td>
  </tr>
  <tr height=200>
    <td width=300><img src=""static/images/keys/z.svg"" width=""35%"" height=""75%""></img></td>
    <td width=300><img src=""static/images/keys/m.svg"" width=""35%"" height=""75%""></img></td>
  </tr>
</table>
  ",77.0,1.0,,,,,,,,,,,,,,,,,,,,,,,,,,
86,0,,html-keyboard-response,86,319804,0.0-4.12-2.12,c8wnux2zipn,2022-09-16 18:29:08.566,62d019a022610b31756bdaa5,3,49,22,26,0,28,Male,,,"
  <table>
  <tr height=300>
    <td width=300 height=300><img src=""static/images/cards/back_of_black_moons.svg"" width=""175px"" height=""250px""></img></td>
    <td width=300 height=300><img src=""static/images/cards/7_of_black_moons.svg"" width=""175px"" height=""250px""></img></td>
  </tr>
  <tr height=200>
    <td width=300><img src=""static/images/keys/z.svg"" width=""35%"" height=""75%""></img></td>
    <td width=300><img src=""static/images/keys/m.svg"" width=""35%"" height=""75%""></img></td>
  </tr>
</table>
  ",,,,,,,,,,,,,,,,,,,,,,,,,,,,
87,0,,html-keyboard-response,87,321321,0.0-4.12-3.12,c8wnux2zipn,2022-09-16 18:29:08.566,62d019a022610b31756bdaa5,3,49,22,26,0,28,Male,,,"<p style=""font-size:50px"">You win!
+10 points this round!</p>",,,,,,,,,,,,,,,,,,,,,,,,,,,,
88,0,,html-keyboard-response,88,321842,0.0-4.12-4.12,c8wnux2zipn,2022-09-16 18:29:08.566,62d019a022610b31756bdaa5,3,49,22,26,0,28,Male,,,,,,1.0,learning,12.0,A,,black,,moons,,,,A,black,moons,,1.0,1.0,NA,right,857.5,7.0,1.0,1.0,,,
89,0,,html-keyboard-response,89,323359,0.0-4.13-0.13,c8wnux2zipn,2022-09-16 18:29:08.566,62d019a022610b31756bdaa5,3,49,22,26,0,28,Male,,,"<img src=""static/images/cards/stack_of_red_moons.svg"" width=""175px"" height=""250px""></img>",,,,,,,,,,,,,,,,,,,,,,,,,,,,
90,0,,html-keyboard-response,90,324398,0.0-4.13-1.13,c8wnux2zipn,2022-09-16 18:29:08.566,62d019a022610b31756bdaa5,3,49,22,26,0,28,Male,520.099999994,,"
  <table>
  <tr height=300>
    <td width=300 height=300><img src=""static/images/cards/back_of_red_moons.svg"" width=""175px"" height=""250px""></img></td>
    <td width=300 height=300><img src=""static/images/cards/back_of_red_moons.svg"" width=""175px"" height=""250px""></img></td>
  </tr>
  <tr height=200>
    <td width=300></td>
    <td width=300><img src=""static/images/keys/m.svg"" width=""35%"" height=""75%""></img></td>
  </tr>
</table>
  ",77.0,1.0,,,,,,,,,,,,,,,,,,,,,,,,,,
91,0,,html-keyboard-response,91,325910,0.0-4.13-2.13,c8wnux2zipn,2022-09-16 18:29:08.566,62d019a022610b31756bdaa5,3,49,22,26,0,28,Male,,,"
  <table>
  <tr height=300>
    <td width=300 height=300><img src=""static/images/cards/back_of_red_moons.svg"" width=""175px"" height=""250px""></img></td>
    <td width=300 height=300><img src=""static/images/cards/4_of_red_moons.svg"" width=""175px"" height=""250px""></img></td>
  </tr>
  <tr height=200>
    <td width=300></td>
    <td width=300><img src=""static/images/keys/m.svg"" width=""35%"" height=""75%""></img></td>
  </tr>
</table>
  ",,,,,,,,,,,,,,,,,,,,,,,,,,,,
92,0,,html-keyboard-response,92,327437,0.0-4.13-3.13,c8wnux2zipn,2022-09-16 18:29:08.566,62d019a022610b31756bdaa5,3,49,22,26,0,28,Male,,,"<p style=""font-size:50px"">You Lose!
No points this round.</p>",,,,,,,,,,,,,,,,,,,,,,,,,,,,
93,0,,html-keyboard-response,93,327944,0.0-4.13-4.13,c8wnux2zipn,2022-09-16 18:29:08.566,62d019a022610b31756bdaa5,3,49,22,26,0,28,Male,,,,,,1.0,learning,13.0,B,,red,,moons,,,,B,red,moons,,0.0,1.0,0,right,520.099999994,4.0,0.0,0.0,,,
94,0,,html-keyboard-response,94,329455,0.0-4.14-0.14,c8wnux2zipn,2022-09-16 18:29:08.566,62d019a022610b31756bdaa5,3,49,22,26,0,28,Male,,,"<img src=""static/images/cards/stack_of_black_stars.svg"" width=""175px"" height=""250px""></img>",,,,,,,,,,,,,,,,,,,,,,,,,,,,
95,0,,html-keyboard-response,95,331039,0.0-4.14-1.14,c8wnux2zipn,2022-09-16 18:29:08.566,62d019a022610b31756bdaa5,3,49,22,26,0,28,Male,1066.900000006,,"
  <table>
  <tr height=300>
    <td width=300 height=300><img src=""static/images/cards/back_of_black_stars.svg"" width=""175px"" height=""250px""></img></td>
    <td width=300 height=300><img src=""static/images/cards/back_of_black_stars.svg"" width=""175px"" height=""250px""></img></td>
  </tr>
  <tr height=200>
    <td width=300><img src=""static/images/keys/z.svg"" width=""35%"" height=""75%""></img></td>
    <td width=300><img src=""static/images/keys/m.svg"" width=""35%"" height=""75%""></img></td>
  </tr>
</table>
  ",90.0,1.0,,,,,,,,,,,,,,,,,,,,,,,,,,
96,0,,html-keyboard-response,96,332558,0.0-4.14-2.14,c8wnux2zipn,2022-09-16 18:29:08.566,62d019a022610b31756bdaa5,3,49,22,26,0,28,Male,,,"
  <table>
  <tr height=300>
    <td width=300 height=300><img src=""static/images/cards/10_of_black_stars.svg"" width=""175px"" height=""250px""></img></td>
    <td width=300 height=300><img src=""static/images/cards/back_of_black_stars.svg"" width=""175px"" height=""250px""></img></td>
  </tr>
  <tr height=200>
    <td width=300><img src=""static/images/keys/z.svg"" width=""35%"" height=""75%""></img></td>
    <td width=300><img src=""static/images/keys/m.svg"" width=""35%"" height=""75%""></img></td>
  </tr>
</table>
  ",,,,,,,,,,,,,,,,,,,,,,,,,,,,
97,0,,html-keyboard-response,97,334086,0.0-4.14-3.14,c8wnux2zipn,2022-09-16 18:29:08.566,62d019a022610b31756bdaa5,3,49,22,26,0,28,Male,,,"<p style=""font-size:50px"">You win!
+10 points this round!</p>",,,,,,,,,,,,,,,,,,,,,,,,,,,,
98,0,,html-keyboard-response,98,334607,0.0-4.14-4.14,c8wnux2zipn,2022-09-16 18:29:08.566,62d019a022610b31756bdaa5,3,49,22,26,0,28,Male,,,,,,1.0,learning,14.0,C,,black,,stars,,,,C,black,stars,,1.0,0.0,NA,left,1066.900000006,10.0,1.0,1.0,,,
99,0,,html-keyboard-response,99,336114,0.0-4.15-0.15,c8wnux2zipn,2022-09-16 18:29:08.566,62d019a022610b31756bdaa5,3,49,22,26,0,28,Male,,,"<img src=""static/images/cards/stack_of_red_stars.svg"" width=""175px"" height=""250px""></img>",,,,,,,,,,,,,,,,,,,,,,,,,,,,
100,0,,html-keyboard-response,100,337206,0.0-4.15-1.15,c8wnux2zipn,2022-09-16 18:29:08.566,62d019a022610b31756bdaa5,3,49,22,26,0,28,Male,587.5,,"
  <table>
  <tr height=300>
    <td width=300 height=300><img src=""static/images/cards/back_of_red_stars.svg"" width=""175px"" height=""250px""></img></td>
    <td width=300 height=300><img src=""static/images/cards/back_of_red_stars.svg"" width=""175px"" height=""250px""></img></td>
  </tr>
  <tr height=200>
    <td width=300><img src=""static/images/keys/z.svg"" width=""35%"" height=""75%""></img></td>
    <td width=300></td>
  </tr>
</table>
  ",90.0,1.0,,,,,,,,,,,,,,,,,,,,,,,,,,
101,0,,html-keyboard-response,101,338713,0.0-4.15-2.15,c8wnux2zipn,2022-09-16 18:29:08.566,62d019a022610b31756bdaa5,3,49,22,26,0,28,Male,,,"
  <table>
  <tr height=300>
    <td width=300 height=300><img src=""static/images/cards/7_of_red_stars.svg"" width=""175px"" height=""250px""></img></td>
    <td width=300 height=300><img src=""static/images/cards/back_of_red_stars.svg"" width=""175px"" height=""250px""></img></td>
  </tr>
  <tr height=200>
    <td width=300><img src=""static/images/keys/z.svg"" width=""35%"" height=""75%""></img></td>
    <td width=300></td>
  </tr>
</table>
  ",,,,,,,,,,,,,,,,,,,,,,,,,,,,
102,0,,html-keyboard-response,102,340244,0.0-4.15-3.15,c8wnux2zipn,2022-09-16 18:29:08.566,62d019a022610b31756bdaa5,3,49,22,26,0,28,Male,,,"<p style=""font-size:50px"">You Lose!
No points this round.</p>",,,,,,,,,,,,,,,,,,,,,,,,,,,,
103,0,,html-keyboard-response,103,340762,0.0-4.15-4.15,c8wnux2zipn,2022-09-16 18:29:08.566,62d019a022610b31756bdaa5,3,49,22,26,0,28,Male,,,,,,1.0,learning,15.0,D,,red,,stars,,,,D,red,stars,,0.0,0.0,1,left,587.5,7.0,1.0,0.0,,,
104,0,,html-keyboard-response,104,342267,0.0-4.16-0.16,c8wnux2zipn,2022-09-16 18:29:08.566,62d019a022610b31756bdaa5,3,49,22,26,0,28,Male,,,"<img src=""static/images/cards/stack_of_red_bolts.svg"" width=""175px"" height=""250px""></img>",,,,,,,,,,,,,,,,,,,,,,,,,,,,
105,0,,html-keyboard-response,105,343151,0.0-4.16-1.16,c8wnux2zipn,2022-09-16 18:29:08.566,62d019a022610b31756bdaa5,3,49,22,26,0,28,Male,365.0,,"
  <table>
  <tr height=300>
    <td width=300 height=300><img src=""static/images/cards/back_of_red_bolts.svg"" width=""175px"" height=""250px""></img></td>
    <td width=300 height=300><img src=""static/images/cards/back_of_red_bolts.svg"" width=""175px"" height=""250px""></img></td>
  </tr>
  <tr height=200>
    <td width=300><img src=""static/images/keys/z.svg"" width=""35%"" height=""75%""></img></td>
    <td width=300><img src=""static/images/keys/m.svg"" width=""35%"" height=""75%""></img></td>
  </tr>
</table>
  ",90.0,1.0,,,,,,,,,,,,,,,,,,,,,,,,,,
106,0,,html-keyboard-response,106,344656,0.0-4.16-2.16,c8wnux2zipn,2022-09-16 18:29:08.566,62d019a022610b31756bdaa5,3,49,22,26,0,28,Male,,,"
  <table>
  <tr height=300>
    <td width=300 height=300><img src=""static/images/cards/3_of_red_bolts.svg"" width=""175px"" height=""250px""></img></td>
    <td width=300 height=300><img src=""static/images/cards/back_of_red_bolts.svg"" width=""175px"" height=""250px""></img></td>
  </tr>
  <tr height=200>
    <td width=300><img src=""static/images/keys/z.svg"" width=""35%"" height=""75%""></img></td>
    <td width=300><img src=""static/images/keys/m.svg"" width=""35%"" height=""75%""></img></td>
  </tr>
</table>
  ",,,,,,,,,,,,,,,,,,,,,,,,,,,,
107,0,,html-keyboard-response,107,346159,0.0-4.16-3.16,c8wnux2zipn,2022-09-16 18:29:08.566,62d019a022610b31756bdaa5,3,49,22,26,0,28,Male,,,"<p style=""font-size:50px"">You win!
+10 points this round!</p>",,,,,,,,,,,,,,,,,,,,,,,,,,,,
108,0,,html-keyboard-response,108,346666,0.0-4.16-4.16,c8wnux2zipn,2022-09-16 18:29:08.566,62d019a022610b31756bdaa5,3,49,22,26,0,28,Male,,,,,,1.0,learning,16.0,Xc,,red,,bolts,,,,Xc,red,bolts,,1.0,0.0,NA,left,365.0,3.0,0.0,1.0,,,
109,0,,html-keyboard-response,109,348170,0.0-4.17-0.17,c8wnux2zipn,2022-09-16 18:29:08.566,62d019a022610b31756bdaa5,3,49,22,26,0,28,Male,,,"<img src=""static/images/cards/stack_of_black_bolts.svg"" width=""175px"" height=""250px""></img>",,,,,,,,,,,,,,,,,,,,,,,,,,,,
110,0,,html-keyboard-response,110,349070,0.0-4.17-1.17,c8wnux2zipn,2022-09-16 18:29:08.566,62d019a022610b31756bdaa5,3,49,22,26,0,28,Male,393.599999994,,"
  <table>
  <tr height=300>
    <td width=300 height=300><img src=""static/images/cards/back_of_black_bolts.svg"" width=""175px"" height=""250px""></img></td>
    <td width=300 height=300><img src=""static/images/cards/back_of_black_bolts.svg"" width=""175px"" height=""250px""></img></td>
  </tr>
  <tr height=200>
    <td width=300><img src=""static/images/keys/z.svg"" width=""35%"" height=""75%""></img></td>
    <td width=300></td>
  </tr>
</table>
  ",90.0,1.0,,,,,,,,,,,,,,,,,,,,,,,,,,
111,0,,html-keyboard-response,111,350586,0.0-4.17-2.17,c8wnux2zipn,2022-09-16 18:29:08.566,62d019a022610b31756bdaa5,3,49,22,26,0,28,Male,,,"
  <table>
  <tr height=300>
    <td width=300 height=300><img src=""static/images/cards/2_of_black_bolts.svg"" width=""175px"" height=""250px""></img></td>
    <td width=300 height=300><img src=""static/images/cards/back_of_black_bolts.svg"" width=""175px"" height=""250px""></img></td>
  </tr>
  <tr height=200>
    <td width=300><img src=""static/images/keys/z.svg"" width=""35%"" height=""75%""></img></td>
    <td width=300></td>
  </tr>
</table>
  ",,,,,,,,,,,,,,,,,,,,,,,,,,,,
112,0,,html-keyboard-response,112,352116,0.0-4.17-3.17,c8wnux2zipn,2022-09-16 18:29:08.566,62d019a022610b31756bdaa5,3,49,22,26,0,28,Male,,,"<p style=""font-size:50px"">You win!
+10 points this round!</p>",,,,,,,,,,,,,,,,,,,,,,,,,,,,
113,0,,html-keyboard-response,113,352637,0.0-4.17-4.17,c8wnux2zipn,2022-09-16 18:29:08.566,62d019a022610b31756bdaa5,3,49,22,26,0,28,Male,,,,,,1.0,learning,17.0,Xnc,,black,,bolts,,,,Xnc,black,bolts,,0.0,0.0,1,left,393.599999994,2.0,0.0,1.0,,,
114,0,,html-keyboard-response,114,354147,0.0-4.18-0.18,c8wnux2zipn,2022-09-16 18:29:08.566,62d019a022610b31756bdaa5,3,49,22,26,0,28,Male,,,"<img src=""static/images/cards/stack_of_black_moons.svg"" width=""175px"" height=""250px""></img>",,,,,,,,,,,,,,,,,,,,,,,,,,,,
115,0,,html-keyboard-response,115,355526,0.0-4.18-1.18,c8wnux2zipn,2022-09-16 18:29:08.566,62d019a022610b31756bdaa5,3,49,22,26,0,28,Male,861.599999994,,"
  <table>
  <tr height=300>
    <td width=300 height=300><img src=""static/images/cards/back_of_black_moons.svg"" width=""175px"" height=""250px""></img></td>
    <td width=300 height=300><img src=""static/images/cards/back_of_black_moons.svg"" width=""175px"" height=""250px""></img></td>
  </tr>
  <tr height=200>
    <td width=300><img src=""static/images/keys/z.svg"" width=""35%"" height=""75%""></img></td>
    <td width=300><img src=""static/images/keys/m.svg"" width=""35%"" height=""75%""></img></td>
  </tr>
</table>
  ",77.0,1.0,,,,,,,,,,,,,,,,,,,,,,,,,,
116,0,,html-keyboard-response,116,357041,0.0-4.18-2.18,c8wnux2zipn,2022-09-16 18:29:08.566,62d019a022610b31756bdaa5,3,49,22,26,0,28,Male,,,"
  <table>
  <tr height=300>
    <td width=300 height=300><img src=""static/images/cards/back_of_black_moons.svg"" width=""175px"" height=""250px""></img></td>
    <td width=300 height=300><img src=""static/images/cards/3_of_black_moons.svg"" width=""175px"" height=""250px""></img></td>
  </tr>
  <tr height=200>
    <td width=300><img src=""static/images/keys/z.svg"" width=""35%"" height=""75%""></img></td>
    <td width=300><img src=""static/images/keys/m.svg"" width=""35%"" height=""75%""></img></td>
  </tr>
</table>
  ",,,,,,,,,,,,,,,,,,,,,,,,,,,,
117,0,,html-keyboard-response,117,358557,0.0-4.18-3.18,c8wnux2zipn,2022-09-16 18:29:08.566,62d019a022610b31756bdaa5,3,49,22,26,0,28,Male,,,"<p style=""font-size:50px"">You Lose!
No points this round.</p>",,,,,,,,,,,,,,,,,,,,,,,,,,,,
118,0,,html-keyboard-response,118,359078,0.0-4.18-4.18,c8wnux2zipn,2022-09-16 18:29:08.566,62d019a022610b31756bdaa5,3,49,22,26,0,28,Male,,,,,,1.0,learning,18.0,A,,black,,moons,,,,A,black,moons,,1.0,1.0,NA,right,861.599999994,3.0,0.0,0.0,,,
119,0,,html-keyboard-response,119,360586,0.0-4.19-0.19,c8wnux2zipn,2022-09-16 18:29:08.566,62d019a022610b31756bdaa5,3,49,22,26,0,28,Male,,,"<img src=""static/images/cards/stack_of_red_moons.svg"" width=""175px"" height=""250px""></img>",,,,,,,,,,,,,,,,,,,,,,,,,,,,
120,0,,html-keyboard-response,120,361580,0.0-4.19-1.19,c8wnux2zipn,2022-09-16 18:29:08.566,62d019a022610b31756bdaa5,3,49,22,26,0,28,Male,476.200000003,,"
  <table>
  <tr height=300>
    <td width=300 height=300><img src=""static/images/cards/back_of_red_moons.svg"" width=""175px"" height=""250px""></img></td>
    <td width=300 height=300><img src=""static/images/cards/back_of_red_moons.svg"" width=""175px"" height=""250px""></img></td>
  </tr>
  <tr height=200>
    <td width=300><img src=""static/images/keys/z.svg"" width=""35%"" height=""75%""></img></td>
    <td width=300></td>
  </tr>
</table>
  ",90.0,1.0,,,,,,,,,,,,,,,,,,,,,,,,,,
121,0,,html-keyboard-response,121,363085,0.0-4.19-2.19,c8wnux2zipn,2022-09-16 18:29:08.566,62d019a022610b31756bdaa5,3,49,22,26,0,28,Male,,,"
  <table>
  <tr height=300>
    <td width=300 height=300><img src=""static/images/cards/10_of_red_moons.svg"" width=""175px"" height=""250px""></img></td>
    <td width=300 height=300><img src=""static/images/cards/back_of_red_moons.svg"" width=""175px"" height=""250px""></img></td>
  </tr>
  <tr height=200>
    <td width=300><img src=""static/images/keys/z.svg"" width=""35%"" height=""75%""></img></td>
    <td width=300></td>
  </tr>
</table>
  ",,,,,,,,,,,,,,,,,,,,,,,,,,,,
122,0,,html-keyboard-response,122,364599,0.0-4.19-3.19,c8wnux2zipn,2022-09-16 18:29:08.566,62d019a022610b31756bdaa5,3,49,22,26,0,28,Male,,,"<p style=""font-size:50px"">You win!
+10 points this round!</p>",,,,,,,,,,,,,,,,,,,,,,,,,,,,
123,0,,html-keyboard-response,123,365106,0.0-4.19-4.19,c8wnux2zipn,2022-09-16 18:29:08.566,62d019a022610b31756bdaa5,3,49,22,26,0,28,Male,,,,,,1.0,learning,19.0,B,,red,,moons,,,,B,red,moons,,0.0,1.0,1,left,476.200000003,10.0,1.0,1.0,,,
124,0,,html-keyboard-response,124,366614,0.0-4.20-0.20,c8wnux2zipn,2022-09-16 18:29:08.566,62d019a022610b31756bdaa5,3,49,22,26,0,28,Male,,,"<img src=""static/images/cards/stack_of_black_stars.svg"" width=""175px"" height=""250px""></img>",,,,,,,,,,,,,,,,,,,,,,,,,,,,
125,0,,html-keyboard-response,125,367982,0.0-4.20-1.20,c8wnux2zipn,2022-09-16 18:29:08.566,62d019a022610b31756bdaa5,3,49,22,26,0,28,Male,853.1000000089,,"
  <table>
  <tr height=300>
    <td width=300 height=300><img src=""static/images/cards/back_of_black_stars.svg"" width=""175px"" height=""250px""></img></td>
    <td width=300 height=300><img src=""static/images/cards/back_of_black_stars.svg"" width=""175px"" height=""250px""></img></td>
  </tr>
  <tr height=200>
    <td width=300><img src=""static/images/keys/z.svg"" width=""35%"" height=""75%""></img></td>
    <td width=300><img src=""static/images/keys/m.svg"" width=""35%"" height=""75%""></img></td>
  </tr>
</table>
  ",77.0,1.0,,,,,,,,,,,,,,,,,,,,,,,,,,
126,0,,html-keyboard-response,126,369491,0.0-4.20-2.20,c8wnux2zipn,2022-09-16 18:29:08.566,62d019a022610b31756bdaa5,3,49,22,26,0,28,Male,,,"
  <table>
  <tr height=300>
    <td width=300 height=300><img src=""static/images/cards/back_of_black_stars.svg"" width=""175px"" height=""250px""></img></td>
    <td width=300 height=300><img src=""static/images/cards/6_of_black_stars.svg"" width=""175px"" height=""250px""></img></td>
  </tr>
  <tr height=200>
    <td width=300><img src=""static/images/keys/z.svg"" width=""35%"" height=""75%""></img></td>
    <td width=300><img src=""static/images/keys/m.svg"" width=""35%"" height=""75%""></img></td>
  </tr>
</table>
  ",,,,,,,,,,,,,,,,,,,,,,,,,,,,
127,0,,html-keyboard-response,127,371022,0.0-4.20-3.20,c8wnux2zipn,2022-09-16 18:29:08.566,62d019a022610b31756bdaa5,3,49,22,26,0,28,Male,,,"<p style=""font-size:50px"">You Lose!
No points this round.</p>",,,,,,,,,,,,,,,,,,,,,,,,,,,,
128,0,,html-keyboard-response,128,371542,0.0-4.20-4.20,c8wnux2zipn,2022-09-16 18:29:08.566,62d019a022610b31756bdaa5,3,49,22,26,0,28,Male,,,,,,1.0,learning,20.0,C,,black,,stars,,,,C,black,stars,,1.0,0.0,NA,right,853.1000000089,6.0,1.0,0.0,,,
129,0,,html-keyboard-response,129,373059,0.0-4.21-0.21,c8wnux2zipn,2022-09-16 18:29:08.566,62d019a022610b31756bdaa5,3,49,22,26,0,28,Male,,,"<img src=""static/images/cards/stack_of_red_stars.svg"" width=""175px"" height=""250px""></img>",,,,,,,,,,,,,,,,,,,,,,,,,,,,
130,0,,html-keyboard-response,130,374044,0.0-4.21-1.21,c8wnux2zipn,2022-09-16 18:29:08.566,62d019a022610b31756bdaa5,3,49,22,26,0,28,Male,481.299999997,,"
  <table>
  <tr height=300>
    <td width=300 height=300><img src=""static/images/cards/back_of_red_stars.svg"" width=""175px"" height=""250px""></img></td>
    <td width=300 height=300><img src=""static/images/cards/back_of_red_stars.svg"" width=""175px"" height=""250px""></img></td>
  </tr>
  <tr height=200>
    <td width=300><img src=""static/images/keys/z.svg"" width=""35%"" height=""75%""></img></td>
    <td width=300></td>
  </tr>
</table>
  ",90.0,1.0,,,,,,,,,,,,,,,,,,,,,,,,,,
131,0,,html-keyboard-response,131,375562,0.0-4.21-2.21,c8wnux2zipn,2022-09-16 18:29:08.566,62d019a022610b31756bdaa5,3,49,22,26,0,28,Male,,,"
  <table>
  <tr height=300>
    <td width=300 height=300><img src=""static/images/cards/9_of_red_stars.svg"" width=""175px"" height=""250px""></img></td>
    <td width=300 height=300><img src=""static/images/cards/back_of_red_stars.svg"" width=""175px"" height=""250px""></img></td>
  </tr>
  <tr height=200>
    <td width=300><img src=""static/images/keys/z.svg"" width=""35%"" height=""75%""></img></td>
    <td width=300></td>
  </tr>
</table>
  ",,,,,,,,,,,,,,,,,,,,,,,,,,,,
132,0,,html-keyboard-response,132,377083,0.0-4.21-3.21,c8wnux2zipn,2022-09-16 18:29:08.566,62d019a022610b31756bdaa5,3,49,22,26,0,28,Male,,,"<p style=""font-size:50px"">You Lose!
No points this round.</p>",,,,,,,,,,,,,,,,,,,,,,,,,,,,
133,0,,html-keyboard-response,133,377597,0.0-4.21-4.21,c8wnux2zipn,2022-09-16 18:29:08.566,62d019a022610b31756bdaa5,3,49,22,26,0,28,Male,,,,,,1.0,learning,21.0,D,,red,,stars,,,,D,red,stars,,0.0,0.0,1,left,481.299999997,9.0,1.0,0.0,,,
134,0,,html-keyboard-response,134,379111,0.0-4.22-0.22,c8wnux2zipn,2022-09-16 18:29:08.566,62d019a022610b31756bdaa5,3,49,22,26,0,28,Male,,,"<img src=""static/images/cards/stack_of_red_bolts.svg"" width=""175px"" height=""250px""></img>",,,,,,,,,,,,,,,,,,,,,,,,,,,,
135,0,,html-keyboard-response,135,380374,0.0-4.22-1.22,c8wnux2zipn,2022-09-16 18:29:08.566,62d019a022610b31756bdaa5,3,49,22,26,0,28,Male,755.0,,"
  <table>
  <tr height=300>
    <td width=300 height=300><img src=""static/images/cards/back_of_red_bolts.svg"" width=""175px"" height=""250px""></img></td>
    <td width=300 height=300><img src=""static/images/cards/back_of_red_bolts.svg"" width=""175px"" height=""250px""></img></td>
  </tr>
  <tr height=200>
    <td width=300><img src=""static/images/keys/z.svg"" width=""35%"" height=""75%""></img></td>
    <td width=300><img src=""static/images/keys/m.svg"" width=""35%"" height=""75%""></img></td>
  </tr>
</table>
  ",77.0,1.0,,,,,,,,,,,,,,,,,,,,,,,,,,
136,0,,html-keyboard-response,136,381885,0.0-4.22-2.22,c8wnux2zipn,2022-09-16 18:29:08.566,62d019a022610b31756bdaa5,3,49,22,26,0,28,Male,,,"
  <table>
  <tr height=300>
    <td width=300 height=300><img src=""static/images/cards/back_of_red_bolts.svg"" width=""175px"" height=""250px""></img></td>
    <td width=300 height=300><img src=""static/images/cards/9_of_red_bolts.svg"" width=""175px"" height=""250px""></img></td>
  </tr>
  <tr height=200>
    <td width=300><img src=""static/images/keys/z.svg"" width=""35%"" height=""75%""></img></td>
    <td width=300><img src=""static/images/keys/m.svg"" width=""35%"" height=""75%""></img></td>
  </tr>
</table>
  ",,,,,,,,,,,,,,,,,,,,,,,,,,,,
137,0,,html-keyboard-response,137,383431,0.0-4.22-3.22,c8wnux2zipn,2022-09-16 18:29:08.566,62d019a022610b31756bdaa5,3,49,22,26,0,28,Male,,,"<p style=""font-size:50px"">You win!
+10 points this round!</p>",,,,,,,,,,,,,,,,,,,,,,,,,,,,
138,0,,html-keyboard-response,138,383948,0.0-4.22-4.22,c8wnux2zipn,2022-09-16 18:29:08.566,62d019a022610b31756bdaa5,3,49,22,26,0,28,Male,,,,,,1.0,learning,22.0,Xc,,red,,bolts,,,,Xc,red,bolts,,1.0,0.0,NA,right,755.0,9.0,1.0,1.0,,,
139,0,,html-keyboard-response,139,385459,0.0-4.23-0.23,c8wnux2zipn,2022-09-16 18:29:08.566,62d019a022610b31756bdaa5,3,49,22,26,0,28,Male,,,"<img src=""static/images/cards/stack_of_black_bolts.svg"" width=""175px"" height=""250px""></img>",,,,,,,,,,,,,,,,,,,,,,,,,,,,
140,0,,html-keyboard-response,140,386413,0.0-4.23-1.23,c8wnux2zipn,2022-09-16 18:29:08.566,62d019a022610b31756bdaa5,3,49,22,26,0,28,Male,450.3999999911,,"
  <table>
  <tr height=300>
    <td width=300 height=300><img src=""static/images/cards/back_of_black_bolts.svg"" width=""175px"" height=""250px""></img></td>
    <td width=300 height=300><img src=""static/images/cards/back_of_black_bolts.svg"" width=""175px"" height=""250px""></img></td>
  </tr>
  <tr height=200>
    <td width=300></td>
    <td width=300><img src=""static/images/keys/m.svg"" width=""35%"" height=""75%""></img></td>
  </tr>
</table>
  ",77.0,1.0,,,,,,,,,,,,,,,,,,,,,,,,,,
141,0,,html-keyboard-response,141,387931,0.0-4.23-2.23,c8wnux2zipn,2022-09-16 18:29:08.566,62d019a022610b31756bdaa5,3,49,22,26,0,28,Male,,,"
  <table>
  <tr height=300>
    <td width=300 height=300><img src=""static/images/cards/back_of_black_bolts.svg"" width=""175px"" height=""250px""></img></td>
    <td width=300 height=300><img src=""static/images/cards/10_of_black_bolts.svg"" width=""175px"" height=""250px""></img></td>
  </tr>
  <tr height=200>
    <td width=300></td>
    <td width=300><img src=""static/images/keys/m.svg"" width=""35%"" height=""75%""></img></td>
  </tr>
</table>
  ",,,,,,,,,,,,,,,,,,,,,,,,,,,,
142,0,,html-keyboard-response,142,389434,0.0-4.23-3.23,c8wnux2zipn,2022-09-16 18:29:08.566,62d019a022610b31756bdaa5,3,49,22,26,0,28,Male,,,"<p style=""font-size:50px"">You win!
+10 points this round!</p>",,,,,,,,,,,,,,,,,,,,,,,,,,,,
143,0,,html-keyboard-response,143,389954,0.0-4.23-4.23,c8wnux2zipn,2022-09-16 18:29:08.566,62d019a022610b31756bdaa5,3,49,22,26,0,28,Male,,,,,,1.0,learning,23.0,Xnc,,black,,bolts,,,,Xnc,black,bolts,,0.0,0.0,0,right,450.3999999911,10.0,1.0,1.0,,,
144,0,,call-function,144,389975,0.0-5.0,c8wnux2zipn,2022-09-16 18:29:08.566,62d019a022610b31756bdaa5,3,49,22,26,0,28,Male,,,,,,,,,,,,,,,,,,,,,,,,,,,,,,,
145,0,,image-keyboard-response,145,397437,0.0-6.0-0.0,c8wnux2zipn,2022-09-16 18:29:08.566,62d019a022610b31756bdaa5,3,49,22,26,0,28,Male,7460.400000006,,static/images/instructions_CB_3/Slide20.png,39.0,,,,,,,,,,,,,,,,,,,,,,,,,,,
146,0,,image-keyboard-response,146,406916,0.0-6.1-0.1,c8wnux2zipn,2022-09-16 18:29:08.566,62d019a022610b31756bdaa5,3,49,22,26,0,28,Male,9478.099999994,,static/images/instructions_CB_3/Slide21.png,39.0,,,,,,,,,,,,,,,,,,,,,,,,,,,
147,0,,image-keyboard-response,147,417588,0.0-6.2-0.2,c8wnux2zipn,2022-09-16 18:29:08.566,62d019a022610b31756bdaa5,3,49,22,26,0,28,Male,10670.6999999881,,static/images/instructions_CB_3/Slide22.png,39.0,,,,,,,,,,,,,,,,,,,,,,,,,,,
148,0,,image-keyboard-response,148,445310,0.0-6.3-0.3,c8wnux2zipn,2022-09-16 18:29:08.566,62d019a022610b31756bdaa5,3,49,22,26,0,28,Male,27720.5,,static/images/instructions_CB_3/Slide23.png,39.0,,,,,,,,,,,,,,,,,,,,,,,,,,,
149,0,,image-keyboard-response,149,446973,0.0-6.4-0.4,c8wnux2zipn,2022-09-16 18:29:08.566,62d019a022610b31756bdaa5,3,49,22,26,0,28,Male,1660.200000003,,static/images/instructions_CB_3/Slide24.png,39.0,,,,,,,,,,,,,,,,,,,,,,,,,,,
150,0,,html-keyboard-response,150,451653,0.0-7.0-0.0,c8wnux2zipn,2022-09-16 18:29:08.566,62d019a022610b31756bdaa5,3,49,22,26,0,28,Male,4675.700000003,,"
  <table>
  <tr height=300>
    <td width=300 height=300><img src=""static/images/cards/stack_of_black_moons.svg"" width=""175px"" height=""250px""></img></td>
    <td width=300 height=300><img src=""static/images/cards/stack_of_red_moons.svg"" width=""175px"" height=""250px""></img></td>
  </tr>
  <tr height=200>
    <td width=300><img src=""static/images/keys/w.svg"" width=""35%"" height=""75%""></img></td>
    <td width=300><img src=""static/images/keys/o.svg"" width=""35%"" height=""75%""></img></td>
  </tr>
</table>
  ",87.0,1.0,,,,,,,,,,,,,,,,,,,,,,,,,,
151,0,,html-keyboard-response,151,454141,0.0-7.0-1.0,c8wnux2zipn,2022-09-16 18:29:08.566,62d019a022610b31756bdaa5,3,49,22,26,0,28,Male,1976.400000006,,"
  <table>
  <tr height=300>
    <td width=300 height=300><img src=""static/images/cards/back_of_black_moons.svg"" width=""175px"" height=""250px""></img></td>
    <td width=300 height=300><img src=""static/images/cards/back_of_black_moons.svg"" width=""175px"" height=""250px""></img></td>
  </tr>
  <tr height=200>
    <td width=300><img src=""static/images/keys/z.svg"" width=""35%"" height=""75%""></img></td>
    <td width=300><img src=""static/images/keys/m.svg"" width=""35%"" height=""75%""></img></td>
  </tr>
</table>
  ",90.0,1.0,,,,,,,,,,,,,,,,,,,,,,,,,,
152,0,,html-keyboard-response,152,455649,0.0-7.0-2.0,c8wnux2zipn,2022-09-16 18:29:08.566,62d019a022610b31756bdaa5,3,49,22,26,0,28,Male,,,"
  <table>
  <tr height=300>
    <td width=300 height=300><img src=""static/images/cards/8_of_black_moons.svg"" width=""175px"" height=""250px""></img></td>
    <td width=300 height=300><img src=""static/images/cards/back_of_black_moons.svg"" width=""175px"" height=""250px""></img></td>
  </tr>
  <tr height=200>
    <td width=300><img src=""static/images/keys/z.svg"" width=""35%"" height=""75%""></img></td>
    <td width=300><img src=""static/images/keys/m.svg"" width=""35%"" height=""75%""></img></td>
  </tr>
</table>
  ",,,,,,,,,,,,,,,,,,,,,,,,,,,,
153,0,,html-keyboard-response,153,457165,0.0-7.0-3.0,c8wnux2zipn,2022-09-16 18:29:08.566,62d019a022610b31756bdaa5,3,49,22,26,0,28,Male,,,"<p style=""font-size:50px"">You win!
+10 points this round!</p>",,,,,,,,,,,,,,,,,,,,,,,,,,,,
154,0,,html-keyboard-response,154,457671,0.0-7.0-4.0,c8wnux2zipn,2022-09-16 18:29:08.566,62d019a022610b31756bdaa5,3,49,22,26,0,28,Male,,,,,,1.0,choice,0.0,A,B,black,red,moons,moons,A,B,A,black,moons,4675.700000003,1.0,1.0,NA,left,1976.400000006,8.0,1.0,1.0,,,
155,0,,html-keyboard-response,155,461318,0.0-7.1-0.1,c8wnux2zipn,2022-09-16 18:29:08.566,62d019a022610b31756bdaa5,3,49,22,26,0,28,Male,3642.3000000119,,"
  <table>
  <tr height=300>
    <td width=300 height=300><img src=""static/images/cards/stack_of_red_stars.svg"" width=""175px"" height=""250px""></img></td>
    <td width=300 height=300><img src=""static/images/cards/stack_of_black_stars.svg"" width=""175px"" height=""250px""></img></td>
  </tr>
  <tr height=200>
    <td width=300><img src=""static/images/keys/w.svg"" width=""35%"" height=""75%""></img></td>
    <td width=300><img src=""static/images/keys/o.svg"" width=""35%"" height=""75%""></img></td>
  </tr>
</table>
  ",79.0,1.0,,,,,,,,,,,,,,,,,,,,,,,,,,
156,0,,html-keyboard-response,156,463446,0.0-7.1-1.1,c8wnux2zipn,2022-09-16 18:29:08.566,62d019a022610b31756bdaa5,3,49,22,26,0,28,Male,1609.799999997,,"
  <table>
  <tr height=300>
    <td width=300 height=300><img src=""static/images/cards/back_of_black_stars.svg"" width=""175px"" height=""250px""></img></td>
    <td width=300 height=300><img src=""static/images/cards/back_of_black_stars.svg"" width=""175px"" height=""250px""></img></td>
  </tr>
  <tr height=200>
    <td width=300><img src=""static/images/keys/z.svg"" width=""35%"" height=""75%""></img></td>
    <td width=300><img src=""static/images/keys/m.svg"" width=""35%"" height=""75%""></img></td>
  </tr>
</table>
  ",90.0,1.0,,,,,,,,,,,,,,,,,,,,,,,,,,
157,0,,html-keyboard-response,157,464957,0.0-7.1-2.1,c8wnux2zipn,2022-09-16 18:29:08.566,62d019a022610b31756bdaa5,3,49,22,26,0,28,Male,,,"
  <table>
  <tr height=300>
    <td width=300 height=300><img src=""static/images/cards/2_of_black_stars.svg"" width=""175px"" height=""250px""></img></td>
    <td width=300 height=300><img src=""static/images/cards/back_of_black_stars.svg"" width=""175px"" height=""250px""></img></td>
  </tr>
  <tr height=200>
    <td width=300><img src=""static/images/keys/z.svg"" width=""35%"" height=""75%""></img></td>
    <td width=300><img src=""static/images/keys/m.svg"" width=""35%"" height=""75%""></img></td>
  </tr>
</table>
  ",,,,,,,,,,,,,,,,,,,,,,,,,,,,
158,0,,html-keyboard-response,158,466476,0.0-7.1-3.1,c8wnux2zipn,2022-09-16 18:29:08.566,62d019a022610b31756bdaa5,3,49,22,26,0,28,Male,,,"<p style=""font-size:50px"">You Lose!
No points this round.</p>",,,,,,,,,,,,,,,,,,,,,,,,,,,,
159,0,,html-keyboard-response,159,466997,0.0-7.1-4.1,c8wnux2zipn,2022-09-16 18:29:08.566,62d019a022610b31756bdaa5,3,49,22,26,0,28,Male,,,,,,1.0,choice,1.0,C,D,red,black,stars,stars,D,C,C,black,stars,3642.3000000119,1.0,0.0,NA,left,1609.799999997,2.0,0.0,0.0,,,
160,0,,html-keyboard-response,160,470966,0.0-7.2-0.2,c8wnux2zipn,2022-09-16 18:29:08.566,62d019a022610b31756bdaa5,3,49,22,26,0,28,Male,3965.299999997,,"
  <table>
  <tr height=300>
    <td width=300 height=300><img src=""static/images/cards/stack_of_black_moons.svg"" width=""175px"" height=""250px""></img></td>
    <td width=300 height=300><img src=""static/images/cards/stack_of_red_stars.svg"" width=""175px"" height=""250px""></img></td>
  </tr>
  <tr height=200>
    <td width=300><img src=""static/images/keys/w.svg"" width=""35%"" height=""75%""></img></td>
    <td width=300><img src=""static/images/keys/o.svg"" width=""35%"" height=""75%""></img></td>
  </tr>
</table>
  ",87.0,1.0,,,,,,,,,,,,,,,,,,,,,,,,,,
161,0,,html-keyboard-response,161,472719,0.0-7.2-1.2,c8wnux2zipn,2022-09-16 18:29:08.566,62d019a022610b31756bdaa5,3,49,22,26,0,28,Male,1232.8000000119,,"
  <table>
  <tr height=300>
    <td width=300 height=300><img src=""static/images/cards/back_of_black_moons.svg"" width=""175px"" height=""250px""></img></td>
    <td width=300 height=300><img src=""static/images/cards/back_of_black_moons.svg"" width=""175px"" height=""250px""></img></td>
  </tr>
  <tr height=200>
    <td width=300><img src=""static/images/keys/z.svg"" width=""35%"" height=""75%""></img></td>
    <td width=300><img src=""static/images/keys/m.svg"" width=""35%"" height=""75%""></img></td>
  </tr>
</table>
  ",77.0,1.0,,,,,,,,,,,,,,,,,,,,,,,,,,
162,0,,html-keyboard-response,162,474237,0.0-7.2-2.2,c8wnux2zipn,2022-09-16 18:29:08.566,62d019a022610b31756bdaa5,3,49,22,26,0,28,Male,,,"
  <table>
  <tr height=300>
    <td width=300 height=300><img src=""static/images/cards/back_of_black_moons.svg"" width=""175px"" height=""250px""></img></td>
    <td width=300 height=300><img src=""static/images/cards/4_of_black_moons.svg"" width=""175px"" height=""250px""></img></td>
  </tr>
  <tr height=200>
    <td width=300><img src=""static/images/keys/z.svg"" width=""35%"" height=""75%""></img></td>
    <td width=300><img src=""static/images/keys/m.svg"" width=""35%"" height=""75%""></img></td>
  </tr>
</table>
  ",,,,,,,,,,,,,,,,,,,,,,,,,,,,
163,0,,html-keyboard-response,163,475754,0.0-7.2-3.2,c8wnux2zipn,2022-09-16 18:29:08.566,62d019a022610b31756bdaa5,3,49,22,26,0,28,Male,,,"<p style=""font-size:50px"">You Lose!
No points this round.</p>",,,,,,,,,,,,,,,,,,,,,,,,,,,,
164,0,,html-keyboard-response,164,476272,0.0-7.2-4.2,c8wnux2zipn,2022-09-16 18:29:08.566,62d019a022610b31756bdaa5,3,49,22,26,0,28,Male,,,,,,1.0,choice,2.0,A,D,black,red,moons,stars,A,D,A,black,moons,3965.299999997,1.0,1.0,NA,right,1232.8000000119,4.0,0.0,0.0,,,
165,0,,html-keyboard-response,165,478110,0.0-7.3-0.3,c8wnux2zipn,2022-09-16 18:29:08.566,62d019a022610b31756bdaa5,3,49,22,26,0,28,Male,1833.700000003,,"
  <table>
  <tr height=300>
    <td width=300 height=300><img src=""static/images/cards/stack_of_red_moons.svg"" width=""175px"" height=""250px""></img></td>
    <td width=300 height=300><img src=""static/images/cards/stack_of_red_stars.svg"" width=""175px"" height=""250px""></img></td>
  </tr>
  <tr height=200>
    <td width=300><img src=""static/images/keys/w.svg"" width=""35%"" height=""75%""></img></td>
    <td width=300><img src=""static/images/keys/o.svg"" width=""35%"" height=""75%""></img></td>
  </tr>
</table>
  ",87.0,1.0,,,,,,,,,,,,,,,,,,,,,,,,,,
166,0,,html-keyboard-response,166,481030,0.0-7.3-1.3,c8wnux2zipn,2022-09-16 18:29:08.566,62d019a022610b31756bdaa5,3,49,22,26,0,28,Male,2416.5,,"
  <table>
  <tr height=300>
    <td width=300 height=300><img src=""static/images/cards/back_of_red_moons.svg"" width=""175px"" height=""250px""></img></td>
    <td width=300 height=300><img src=""static/images/cards/back_of_red_moons.svg"" width=""175px"" height=""250px""></img></td>
  </tr>
  <tr height=200>
    <td width=300></td>
    <td width=300><img src=""static/images/keys/m.svg"" width=""35%"" height=""75%""></img></td>
  </tr>
</table>
  ",77.0,2.0,,,,,,,,,,,,,,,,,,,,,,,,,,
167,0,,html-keyboard-response,167,482562,0.0-7.3-2.3,c8wnux2zipn,2022-09-16 18:29:08.566,62d019a022610b31756bdaa5,3,49,22,26,0,28,Male,,,"
  <table>
  <tr height=300>
    <td width=300 height=300><img src=""static/images/cards/back_of_red_moons.svg"" width=""175px"" height=""250px""></img></td>
    <td width=300 height=300><img src=""static/images/cards/4_of_red_moons.svg"" width=""175px"" height=""250px""></img></td>
  </tr>
  <tr height=200>
    <td width=300></td>
    <td width=300><img src=""static/images/keys/m.svg"" width=""35%"" height=""75%""></img></td>
  </tr>
</table>
  ",,,,,,,,,,,,,,,,,,,,,,,,,,,,
168,0,,html-keyboard-response,168,484080,0.0-7.3-3.3,c8wnux2zipn,2022-09-16 18:29:08.566,62d019a022610b31756bdaa5,3,49,22,26,0,28,Male,,,"<p style=""font-size:50px"">You Lose!
No points this round.</p>",,,,,,,,,,,,,,,,,,,,,,,,,,,,
169,0,,html-keyboard-response,169,484601,0.0-7.3-4.3,c8wnux2zipn,2022-09-16 18:29:08.566,62d019a022610b31756bdaa5,3,49,22,26,0,28,Male,,,,,,1.0,choice,3.0,B,D,red,red,moons,stars,B,D,B,red,moons,1833.700000003,0.0,1.0,0,right,2416.5,4.0,0.0,0.0,,,
170,0,,html-keyboard-response,170,486207,0.0-7.4-0.4,c8wnux2zipn,2022-09-16 18:29:08.566,62d019a022610b31756bdaa5,3,49,22,26,0,28,Male,1604.200000003,,"
  <table>
  <tr height=300>
    <td width=300 height=300><img src=""static/images/cards/stack_of_black_stars.svg"" width=""175px"" height=""250px""></img></td>
    <td width=300 height=300><img src=""static/images/cards/stack_of_red_stars.svg"" width=""175px"" height=""250px""></img></td>
  </tr>
  <tr height=200>
    <td width=300><img src=""static/images/keys/w.svg"" width=""35%"" height=""75%""></img></td>
    <td width=300><img src=""static/images/keys/o.svg"" width=""35%"" height=""75%""></img></td>
  </tr>
</table>
  ",87.0,1.0,,,,,,,,,,,,,,,,,,,,,,,,,,
171,0,,html-keyboard-response,171,487836,0.0-7.4-1.4,c8wnux2zipn,2022-09-16 18:29:08.566,62d019a022610b31756bdaa5,3,49,22,26,0,28,Male,1117.0,,"
  <table>
  <tr height=300>
    <td width=300 height=300><img src=""static/images/cards/back_of_black_stars.svg"" width=""175px"" height=""250px""></img></td>
    <td width=300 height=300><img src=""static/images/cards/back_of_black_stars.svg"" width=""175px"" height=""250px""></img></td>
  </tr>
  <tr height=200>
    <td width=300><img src=""static/images/keys/z.svg"" width=""35%"" height=""75%""></img></td>
    <td width=300><img src=""static/images/keys/m.svg"" width=""35%"" height=""75%""></img></td>
  </tr>
</table>
  ",77.0,1.0,,,,,,,,,,,,,,,,,,,,,,,,,,
172,0,,html-keyboard-response,172,489340,0.0-7.4-2.4,c8wnux2zipn,2022-09-16 18:29:08.566,62d019a022610b31756bdaa5,3,49,22,26,0,28,Male,,,"
  <table>
  <tr height=300>
    <td width=300 height=300><img src=""static/images/cards/back_of_black_stars.svg"" width=""175px"" height=""250px""></img></td>
    <td width=300 height=300><img src=""static/images/cards/6_of_black_stars.svg"" width=""175px"" height=""250px""></img></td>
  </tr>
  <tr height=200>
    <td width=300><img src=""static/images/keys/z.svg"" width=""35%"" height=""75%""></img></td>
    <td width=300><img src=""static/images/keys/m.svg"" width=""35%"" height=""75%""></img></td>
  </tr>
</table>
  ",,,,,,,,,,,,,,,,,,,,,,,,,,,,
173,0,,html-keyboard-response,173,490867,0.0-7.4-3.4,c8wnux2zipn,2022-09-16 18:29:08.566,62d019a022610b31756bdaa5,3,49,22,26,0,28,Male,,,"<p style=""font-size:50px"">You Lose!
No points this round.</p>",,,,,,,,,,,,,,,,,,,,,,,,,,,,
174,0,,html-keyboard-response,174,491387,0.0-7.4-4.4,c8wnux2zipn,2022-09-16 18:29:08.566,62d019a022610b31756bdaa5,3,49,22,26,0,28,Male,,,,,,1.0,choice,4.0,C,D,black,red,stars,stars,C,D,C,black,stars,1604.200000003,1.0,0.0,NA,right,1117.0,6.0,1.0,0.0,,,
175,0,,html-keyboard-response,175,493638,0.0-7.5-0.5,c8wnux2zipn,2022-09-16 18:29:08.566,62d019a022610b31756bdaa5,3,49,22,26,0,28,Male,2249.0,,"
  <table>
  <tr height=300>
    <td width=300 height=300><img src=""static/images/cards/stack_of_red_stars.svg"" width=""175px"" height=""250px""></img></td>
    <td width=300 height=300><img src=""static/images/cards/stack_of_black_moons.svg"" width=""175px"" height=""250px""></img></td>
  </tr>
  <tr height=200>
    <td width=300><img src=""static/images/keys/w.svg"" width=""35%"" height=""75%""></img></td>
    <td width=300><img src=""static/images/keys/o.svg"" width=""35%"" height=""75%""></img></td>
  </tr>
</table>
  ",87.0,1.0,,,,,,,,,,,,,,,,,,,,,,,,,,
176,0,,html-keyboard-response,176,495014,0.0-7.5-1.5,c8wnux2zipn,2022-09-16 18:29:08.566,62d019a022610b31756bdaa5,3,49,22,26,0,28,Male,866.400000006,,"
  <table>
  <tr height=300>
    <td width=300 height=300><img src=""static/images/cards/back_of_red_stars.svg"" width=""175px"" height=""250px""></img></td>
    <td width=300 height=300><img src=""static/images/cards/back_of_red_stars.svg"" width=""175px"" height=""250px""></img></td>
  </tr>
  <tr height=200>
    <td width=300></td>
    <td width=300><img src=""static/images/keys/m.svg"" width=""35%"" height=""75%""></img></td>
  </tr>
</table>
  ",77.0,1.0,,,,,,,,,,,,,,,,,,,,,,,,,,
177,0,,html-keyboard-response,177,496528,0.0-7.5-2.5,c8wnux2zipn,2022-09-16 18:29:08.566,62d019a022610b31756bdaa5,3,49,22,26,0,28,Male,,,"
  <table>
  <tr height=300>
    <td width=300 height=300><img src=""static/images/cards/back_of_red_stars.svg"" width=""175px"" height=""250px""></img></td>
    <td width=300 height=300><img src=""static/images/cards/4_of_red_stars.svg"" width=""175px"" height=""250px""></img></td>
  </tr>
  <tr height=200>
    <td width=300></td>
    <td width=300><img src=""static/images/keys/m.svg"" width=""35%"" height=""75%""></img></td>
  </tr>
</table>
  ",,,,,,,,,,,,,,,,,,,,,,,,,,,,
178,0,,html-keyboard-response,178,498058,0.0-7.5-3.5,c8wnux2zipn,2022-09-16 18:29:08.566,62d019a022610b31756bdaa5,3,49,22,26,0,28,Male,,,"<p style=""font-size:50px"">You win!
+10 points this round!</p>",,,,,,,,,,,,,,,,,,,,,,,,,,,,
179,0,,html-keyboard-response,179,498576,0.0-7.5-4.5,c8wnux2zipn,2022-09-16 18:29:08.566,62d019a022610b31756bdaa5,3,49,22,26,0,28,Male,,,,,,1.0,choice,5.0,A,D,red,black,stars,moons,D,A,D,red,stars,2249.0,0.0,0.0,0,right,866.400000006,4.0,0.0,1.0,,,
180,0,,html-keyboard-response,180,500215,0.0-7.6-0.6,c8wnux2zipn,2022-09-16 18:29:08.566,62d019a022610b31756bdaa5,3,49,22,26,0,28,Male,1637.299999997,,"
  <table>
  <tr height=300>
    <td width=300 height=300><img src=""static/images/cards/stack_of_red_stars.svg"" width=""175px"" height=""250px""></img></td>
    <td width=300 height=300><img src=""static/images/cards/stack_of_red_moons.svg"" width=""175px"" height=""250px""></img></td>
  </tr>
  <tr height=200>
    <td width=300><img src=""static/images/keys/w.svg"" width=""35%"" height=""75%""></img></td>
    <td width=300><img src=""static/images/keys/o.svg"" width=""35%"" height=""75%""></img></td>
  </tr>
</table>
  ",79.0,1.0,,,,,,,,,,,,,,,,,,,,,,,,,,
181,0,,html-keyboard-response,181,501437,0.0-7.6-1.6,c8wnux2zipn,2022-09-16 18:29:08.566,62d019a022610b31756bdaa5,3,49,22,26,0,28,Male,705.8999999911,,"
  <table>
  <tr height=300>
    <td width=300 height=300><img src=""static/images/cards/back_of_red_moons.svg"" width=""175px"" height=""250px""></img></td>
    <td width=300 height=300><img src=""static/images/cards/back_of_red_moons.svg"" width=""175px"" height=""250px""></img></td>
  </tr>
  <tr height=200>
    <td width=300><img src=""static/images/keys/z.svg"" width=""35%"" height=""75%""></img></td>
    <td width=300></td>
  </tr>
</table>
  ",90.0,1.0,,,,,,,,,,,,,,,,,,,,,,,,,,
182,0,,html-keyboard-response,182,502941,0.0-7.6-2.6,c8wnux2zipn,2022-09-16 18:29:08.566,62d019a022610b31756bdaa5,3,49,22,26,0,28,Male,,,"
  <table>
  <tr height=300>
    <td width=300 height=300><img src=""static/images/cards/7_of_red_moons.svg"" width=""175px"" height=""250px""></img></td>
    <td width=300 height=300><img src=""static/images/cards/back_of_red_moons.svg"" width=""175px"" height=""250px""></img></td>
  </tr>
  <tr height=200>
    <td width=300><img src=""static/images/keys/z.svg"" width=""35%"" height=""75%""></img></td>
    <td width=300></td>
  </tr>
</table>
  ",,,,,,,,,,,,,,,,,,,,,,,,,,,,
183,0,,html-keyboard-response,183,504473,0.0-7.6-3.6,c8wnux2zipn,2022-09-16 18:29:08.566,62d019a022610b31756bdaa5,3,49,22,26,0,28,Male,,,"<p style=""font-size:50px"">You win!
+10 points this round!</p>",,,,,,,,,,,,,,,,,,,,,,,,,,,,
184,0,,html-keyboard-response,184,504992,0.0-7.6-4.6,c8wnux2zipn,2022-09-16 18:29:08.566,62d019a022610b31756bdaa5,3,49,22,26,0,28,Male,,,,,,1.0,choice,6.0,B,D,red,red,stars,moons,D,B,B,red,moons,1637.299999997,0.0,1.0,1,left,705.8999999911,7.0,1.0,1.0,,,
185,0,,html-keyboard-response,185,506118,0.0-7.7-0.7,c8wnux2zipn,2022-09-16 18:29:08.566,62d019a022610b31756bdaa5,3,49,22,26,0,28,Male,1121.5,,"
  <table>
  <tr height=300>
    <td width=300 height=300><img src=""static/images/cards/stack_of_red_bolts.svg"" width=""175px"" height=""250px""></img></td>
    <td width=300 height=300><img src=""static/images/cards/stack_of_black_moons.svg"" width=""175px"" height=""250px""></img></td>
  </tr>
  <tr height=200>
    <td width=300><img src=""static/images/keys/w.svg"" width=""35%"" height=""75%""></img></td>
    <td width=300><img src=""static/images/keys/o.svg"" width=""35%"" height=""75%""></img></td>
  </tr>
</table>
  ",87.0,1.0,,,,,,,,,,,,,,,,,,,,,,,,,,
186,0,,html-keyboard-response,186,507478,0.0-7.7-1.7,c8wnux2zipn,2022-09-16 18:29:08.566,62d019a022610b31756bdaa5,3,49,22,26,0,28,Male,848.799999997,,"
  <table>
  <tr height=300>
    <td width=300 height=300><img src=""static/images/cards/back_of_red_bolts.svg"" width=""175px"" height=""250px""></img></td>
    <td width=300 height=300><img src=""static/images/cards/back_of_red_bolts.svg"" width=""175px"" height=""250px""></img></td>
  </tr>
  <tr height=200>
    <td width=300><img src=""static/images/keys/z.svg"" width=""35%"" height=""75%""></img></td>
    <td width=300><img src=""static/images/keys/m.svg"" width=""35%"" height=""75%""></img></td>
  </tr>
</table>
  ",77.0,1.0,,,,,,,,,,,,,,,,,,,,,,,,,,
187,0,,html-keyboard-response,187,508992,0.0-7.7-2.7,c8wnux2zipn,2022-09-16 18:29:08.566,62d019a022610b31756bdaa5,3,49,22,26,0,28,Male,,,"
  <table>
  <tr height=300>
    <td width=300 height=300><img src=""static/images/cards/back_of_red_bolts.svg"" width=""175px"" height=""250px""></img></td>
    <td width=300 height=300><img src=""static/images/cards/1_of_red_bolts.svg"" width=""175px"" height=""250px""></img></td>
  </tr>
  <tr height=200>
    <td width=300><img src=""static/images/keys/z.svg"" width=""35%"" height=""75%""></img></td>
    <td width=300><img src=""static/images/keys/m.svg"" width=""35%"" height=""75%""></img></td>
  </tr>
</table>
  ",,,,,,,,,,,,,,,,,,,,,,,,,,,,
188,0,,html-keyboard-response,188,510521,0.0-7.7-3.7,c8wnux2zipn,2022-09-16 18:29:08.566,62d019a022610b31756bdaa5,3,49,22,26,0,28,Male,,,"<p style=""font-size:50px"">You win!
+10 points this round!</p>",,,,,,,,,,,,,,,,,,,,,,,,,,,,
189,0,,html-keyboard-response,189,511042,0.0-7.7-4.7,c8wnux2zipn,2022-09-16 18:29:08.566,62d019a022610b31756bdaa5,3,49,22,26,0,28,Male,,,,,,1.0,choice,7.0,A,Xc,red,black,bolts,moons,Xc,A,Xc,red,bolts,1121.5,1.0,0.0,NA,right,848.799999997,1.0,0.0,1.0,,,
190,0,,html-keyboard-response,190,512287,0.0-7.8-0.8,c8wnux2zipn,2022-09-16 18:29:08.566,62d019a022610b31756bdaa5,3,49,22,26,0,28,Male,1241.200000003,,"
  <table>
  <tr height=300>
    <td width=300 height=300><img src=""static/images/cards/stack_of_black_moons.svg"" width=""175px"" height=""250px""></img></td>
    <td width=300 height=300><img src=""static/images/cards/stack_of_black_stars.svg"" width=""175px"" height=""250px""></img></td>
  </tr>
  <tr height=200>
    <td width=300><img src=""static/images/keys/w.svg"" width=""35%"" height=""75%""></img></td>
    <td width=300><img src=""static/images/keys/o.svg"" width=""35%"" height=""75%""></img></td>
  </tr>
</table>
  ",79.0,1.0,,,,,,,,,,,,,,,,,,,,,,,,,,
191,0,,html-keyboard-response,191,513693,0.0-7.8-1.8,c8wnux2zipn,2022-09-16 18:29:08.566,62d019a022610b31756bdaa5,3,49,22,26,0,28,Male,901.1999999881,,"
  <table>
  <tr height=300>
    <td width=300 height=300><img src=""static/images/cards/back_of_black_stars.svg"" width=""175px"" height=""250px""></img></td>
    <td width=300 height=300><img src=""static/images/cards/back_of_black_stars.svg"" width=""175px"" height=""250px""></img></td>
  </tr>
  <tr height=200>
    <td width=300><img src=""static/images/keys/z.svg"" width=""35%"" height=""75%""></img></td>
    <td width=300><img src=""static/images/keys/m.svg"" width=""35%"" height=""75%""></img></td>
  </tr>
</table>
  ",77.0,1.0,,,,,,,,,,,,,,,,,,,,,,,,,,
192,0,,html-keyboard-response,192,515206,0.0-7.8-2.8,c8wnux2zipn,2022-09-16 18:29:08.566,62d019a022610b31756bdaa5,3,49,22,26,0,28,Male,,,"
  <table>
  <tr height=300>
    <td width=300 height=300><img src=""static/images/cards/back_of_black_stars.svg"" width=""175px"" height=""250px""></img></td>
    <td width=300 height=300><img src=""static/images/cards/3_of_black_stars.svg"" width=""175px"" height=""250px""></img></td>
  </tr>
  <tr height=200>
    <td width=300><img src=""static/images/keys/z.svg"" width=""35%"" height=""75%""></img></td>
    <td width=300><img src=""static/images/keys/m.svg"" width=""35%"" height=""75%""></img></td>
  </tr>
</table>
  ",,,,,,,,,,,,,,,,,,,,,,,,,,,,
193,0,,html-keyboard-response,193,516727,0.0-7.8-3.8,c8wnux2zipn,2022-09-16 18:29:08.566,62d019a022610b31756bdaa5,3,49,22,26,0,28,Male,,,"<p style=""font-size:50px"">You Lose!
No points this round.</p>",,,,,,,,,,,,,,,,,,,,,,,,,,,,
194,0,,html-keyboard-response,194,517244,0.0-7.8-4.8,c8wnux2zipn,2022-09-16 18:29:08.566,62d019a022610b31756bdaa5,3,49,22,26,0,28,Male,,,,,,1.0,choice,8.0,A,C,black,black,moons,stars,A,C,C,black,stars,1241.200000003,1.0,0.0,NA,right,901.1999999881,3.0,0.0,0.0,,,
195,0,,html-keyboard-response,195,518567,0.0-7.9-0.9,c8wnux2zipn,2022-09-16 18:29:08.566,62d019a022610b31756bdaa5,3,49,22,26,0,28,Male,1317.599999994,,"
  <table>
  <tr height=300>
    <td width=300 height=300><img src=""static/images/cards/stack_of_black_stars.svg"" width=""175px"" height=""250px""></img></td>
    <td width=300 height=300><img src=""static/images/cards/stack_of_red_stars.svg"" width=""175px"" height=""250px""></img></td>
  </tr>
  <tr height=200>
    <td width=300><img src=""static/images/keys/w.svg"" width=""35%"" height=""75%""></img></td>
    <td width=300><img src=""static/images/keys/o.svg"" width=""35%"" height=""75%""></img></td>
  </tr>
</table>
  ",87.0,1.0,,,,,,,,,,,,,,,,,,,,,,,,,,
196,0,,html-keyboard-response,196,519726,0.0-7.9-1.9,c8wnux2zipn,2022-09-16 18:29:08.566,62d019a022610b31756bdaa5,3,49,22,26,0,28,Male,650.8000000119,,"
  <table>
  <tr height=300>
    <td width=300 height=300><img src=""static/images/cards/back_of_black_stars.svg"" width=""175px"" height=""250px""></img></td>
    <td width=300 height=300><img src=""static/images/cards/back_of_black_stars.svg"" width=""175px"" height=""250px""></img></td>
  </tr>
  <tr height=200>
    <td width=300><img src=""static/images/keys/z.svg"" width=""35%"" height=""75%""></img></td>
    <td width=300><img src=""static/images/keys/m.svg"" width=""35%"" height=""75%""></img></td>
  </tr>
</table>
  ",77.0,1.0,,,,,,,,,,,,,,,,,,,,,,,,,,
197,0,,html-keyboard-response,197,521242,0.0-7.9-2.9,c8wnux2zipn,2022-09-16 18:29:08.566,62d019a022610b31756bdaa5,3,49,22,26,0,28,Male,,,"
  <table>
  <tr height=300>
    <td width=300 height=300><img src=""static/images/cards/back_of_black_stars.svg"" width=""175px"" height=""250px""></img></td>
    <td width=300 height=300><img src=""static/images/cards/6_of_black_stars.svg"" width=""175px"" height=""250px""></img></td>
  </tr>
  <tr height=200>
    <td width=300><img src=""static/images/keys/z.svg"" width=""35%"" height=""75%""></img></td>
    <td width=300><img src=""static/images/keys/m.svg"" width=""35%"" height=""75%""></img></td>
  </tr>
</table>
  ",,,,,,,,,,,,,,,,,,,,,,,,,,,,
198,0,,html-keyboard-response,198,522762,0.0-7.9-3.9,c8wnux2zipn,2022-09-16 18:29:08.566,62d019a022610b31756bdaa5,3,49,22,26,0,28,Male,,,"<p style=""font-size:50px"">You Lose!
No points this round.</p>",,,,,,,,,,,,,,,,,,,,,,,,,,,,
199,0,,html-keyboard-response,199,523269,0.0-7.9-4.9,c8wnux2zipn,2022-09-16 18:29:08.566,62d019a022610b31756bdaa5,3,49,22,26,0,28,Male,,,,,,1.0,choice,9.0,C,D,black,red,stars,stars,C,D,C,black,stars,1317.599999994,1.0,0.0,NA,right,650.8000000119,6.0,1.0,0.0,,,
200,0,,html-keyboard-response,200,524700,0.0-7.10-0.10,c8wnux2zipn,2022-09-16 18:29:08.566,62d019a022610b31756bdaa5,3,49,22,26,0,28,Male,1427.8000000119,,"
  <table>
  <tr height=300>
    <td width=300 height=300><img src=""static/images/cards/stack_of_red_moons.svg"" width=""175px"" height=""250px""></img></td>
    <td width=300 height=300><img src=""static/images/cards/stack_of_black_moons.svg"" width=""175px"" height=""250px""></img></td>
  </tr>
  <tr height=200>
    <td width=300><img src=""static/images/keys/w.svg"" width=""35%"" height=""75%""></img></td>
    <td width=300><img src=""static/images/keys/o.svg"" width=""35%"" height=""75%""></img></td>
  </tr>
</table>
  ",79.0,1.0,,,,,,,,,,,,,,,,,,,,,,,,,,
201,0,,html-keyboard-response,201,525908,0.0-7.10-1.10,c8wnux2zipn,2022-09-16 18:29:08.566,62d019a022610b31756bdaa5,3,49,22,26,0,28,Male,701.3000000119,,"
  <table>
  <tr height=300>
    <td width=300 height=300><img src=""static/images/cards/back_of_black_moons.svg"" width=""175px"" height=""250px""></img></td>
    <td width=300 height=300><img src=""static/images/cards/back_of_black_moons.svg"" width=""175px"" height=""250px""></img></td>
  </tr>
  <tr height=200>
    <td width=300><img src=""static/images/keys/z.svg"" width=""35%"" height=""75%""></img></td>
    <td width=300><img src=""static/images/keys/m.svg"" width=""35%"" height=""75%""></img></td>
  </tr>
</table>
  ",77.0,1.0,,,,,,,,,,,,,,,,,,,,,,,,,,
202,0,,html-keyboard-response,202,527426,0.0-7.10-2.10,c8wnux2zipn,2022-09-16 18:29:08.566,62d019a022610b31756bdaa5,3,49,22,26,0,28,Male,,,"
  <table>
  <tr height=300>
    <td width=300 height=300><img src=""static/images/cards/back_of_black_moons.svg"" width=""175px"" height=""250px""></img></td>
    <td width=300 height=300><img src=""static/images/cards/1_of_black_moons.svg"" width=""175px"" height=""250px""></img></td>
  </tr>
  <tr height=200>
    <td width=300><img src=""static/images/keys/z.svg"" width=""35%"" height=""75%""></img></td>
    <td width=300><img src=""static/images/keys/m.svg"" width=""35%"" height=""75%""></img></td>
  </tr>
</table>
  ",,,,,,,,,,,,,,,,,,,,,,,,,,,,
203,0,,html-keyboard-response,203,528956,0.0-7.10-3.10,c8wnux2zipn,2022-09-16 18:29:08.566,62d019a022610b31756bdaa5,3,49,22,26,0,28,Male,,,"<p style=""font-size:50px"">You Lose!
No points this round.</p>",,,,,,,,,,,,,,,,,,,,,,,,,,,,
204,0,,html-keyboard-response,204,529474,0.0-7.10-4.10,c8wnux2zipn,2022-09-16 18:29:08.566,62d019a022610b31756bdaa5,3,49,22,26,0,28,Male,,,,,,1.0,choice,10.0,A,B,red,black,moons,moons,B,A,A,black,moons,1427.8000000119,1.0,1.0,NA,right,701.3000000119,1.0,0.0,0.0,,,
205,0,,html-keyboard-response,205,531142,0.0-7.11-0.11,c8wnux2zipn,2022-09-16 18:29:08.566,62d019a022610b31756bdaa5,3,49,22,26,0,28,Male,1665.099999994,,"
  <table>
  <tr height=300>
    <td width=300 height=300><img src=""static/images/cards/stack_of_black_moons.svg"" width=""175px"" height=""250px""></img></td>
    <td width=300 height=300><img src=""static/images/cards/stack_of_red_stars.svg"" width=""175px"" height=""250px""></img></td>
  </tr>
  <tr height=200>
    <td width=300><img src=""static/images/keys/w.svg"" width=""35%"" height=""75%""></img></td>
    <td width=300><img src=""static/images/keys/o.svg"" width=""35%"" height=""75%""></img></td>
  </tr>
</table>
  ",87.0,1.0,,,,,,,,,,,,,,,,,,,,,,,,,,
206,0,,html-keyboard-response,206,532716,0.0-7.11-1.11,c8wnux2zipn,2022-09-16 18:29:08.566,62d019a022610b31756bdaa5,3,49,22,26,0,28,Male,1059.599999994,,"
  <table>
  <tr height=300>
    <td width=300 height=300><img src=""static/images/cards/back_of_black_moons.svg"" width=""175px"" height=""250px""></img></td>
    <td width=300 height=300><img src=""static/images/cards/back_of_black_moons.svg"" width=""175px"" height=""250px""></img></td>
  </tr>
  <tr height=200>
    <td width=300><img src=""static/images/keys/z.svg"" width=""35%"" height=""75%""></img></td>
    <td width=300><img src=""static/images/keys/m.svg"" width=""35%"" height=""75%""></img></td>
  </tr>
</table>
  ",77.0,1.0,,,,,,,,,,,,,,,,,,,,,,,,,,
207,0,,html-keyboard-response,207,534230,0.0-7.11-2.11,c8wnux2zipn,2022-09-16 18:29:08.566,62d019a022610b31756bdaa5,3,49,22,26,0,28,Male,,,"
  <table>
  <tr height=300>
    <td width=300 height=300><img src=""static/images/cards/back_of_black_moons.svg"" width=""175px"" height=""250px""></img></td>
    <td width=300 height=300><img src=""static/images/cards/8_of_black_moons.svg"" width=""175px"" height=""250px""></img></td>
  </tr>
  <tr height=200>
    <td width=300><img src=""static/images/keys/z.svg"" width=""35%"" height=""75%""></img></td>
    <td width=300><img src=""static/images/keys/m.svg"" width=""35%"" height=""75%""></img></td>
  </tr>
</table>
  ",,,,,,,,,,,,,,,,,,,,,,,,,,,,
208,0,,html-keyboard-response,208,535744,0.0-7.11-3.11,c8wnux2zipn,2022-09-16 18:29:08.566,62d019a022610b31756bdaa5,3,49,22,26,0,28,Male,,,"<p style=""font-size:50px"">You win!
+10 points this round!</p>",,,,,,,,,,,,,,,,,,,,,,,,,,,,
209,0,,html-keyboard-response,209,536263,0.0-7.11-4.11,c8wnux2zipn,2022-09-16 18:29:08.566,62d019a022610b31756bdaa5,3,49,22,26,0,28,Male,,,,,,1.0,choice,11.0,A,D,black,red,moons,stars,A,D,A,black,moons,1665.099999994,1.0,1.0,NA,right,1059.599999994,8.0,1.0,1.0,,,
210,0,,html-keyboard-response,210,537286,0.0-7.12-0.12,c8wnux2zipn,2022-09-16 18:29:08.566,62d019a022610b31756bdaa5,3,49,22,26,0,28,Male,1020.900000006,,"
  <table>
  <tr height=300>
    <td width=300 height=300><img src=""static/images/cards/stack_of_black_bolts.svg"" width=""175px"" height=""250px""></img></td>
    <td width=300 height=300><img src=""static/images/cards/stack_of_red_stars.svg"" width=""175px"" height=""250px""></img></td>
  </tr>
  <tr height=200>
    <td width=300><img src=""static/images/keys/w.svg"" width=""35%"" height=""75%""></img></td>
    <td width=300><img src=""static/images/keys/o.svg"" width=""35%"" height=""75%""></img></td>
  </tr>
</table>
  ",87.0,1.0,,,,,,,,,,,,,,,,,,,,,,,,,,
211,0,,html-keyboard-response,211,538543,0.0-7.12-1.12,c8wnux2zipn,2022-09-16 18:29:08.566,62d019a022610b31756bdaa5,3,49,22,26,0,28,Male,739.5,,"
  <table>
  <tr height=300>
    <td width=300 height=300><img src=""static/images/cards/back_of_black_bolts.svg"" width=""175px"" height=""250px""></img></td>
    <td width=300 height=300><img src=""static/images/cards/back_of_black_bolts.svg"" width=""175px"" height=""250px""></img></td>
  </tr>
  <tr height=200>
    <td width=300><img src=""static/images/keys/z.svg"" width=""35%"" height=""75%""></img></td>
    <td width=300></td>
  </tr>
</table>
  ",90.0,1.0,,,,,,,,,,,,,,,,,,,,,,,,,,
212,0,,html-keyboard-response,212,540055,0.0-7.12-2.12,c8wnux2zipn,2022-09-16 18:29:08.566,62d019a022610b31756bdaa5,3,49,22,26,0,28,Male,,,"
  <table>
  <tr height=300>
    <td width=300 height=300><img src=""static/images/cards/3_of_black_bolts.svg"" width=""175px"" height=""250px""></img></td>
    <td width=300 height=300><img src=""static/images/cards/back_of_black_bolts.svg"" width=""175px"" height=""250px""></img></td>
  </tr>
  <tr height=200>
    <td width=300><img src=""static/images/keys/z.svg"" width=""35%"" height=""75%""></img></td>
    <td width=300></td>
  </tr>
</table>
  ",,,,,,,,,,,,,,,,,,,,,,,,,,,,
213,0,,html-keyboard-response,213,541583,0.0-7.12-3.12,c8wnux2zipn,2022-09-16 18:29:08.566,62d019a022610b31756bdaa5,3,49,22,26,0,28,Male,,,"<p style=""font-size:50px"">You win!
+10 points this round!</p>",,,,,,,,,,,,,,,,,,,,,,,,,,,,
214,0,,html-keyboard-response,214,542101,0.0-7.12-4.12,c8wnux2zipn,2022-09-16 18:29:08.566,62d019a022610b31756bdaa5,3,49,22,26,0,28,Male,,,,,,1.0,choice,12.0,D,Xnc,black,red,bolts,stars,Xnc,D,Xnc,black,bolts,1020.900000006,0.0,0.0,1,left,739.5,3.0,0.0,1.0,,,
215,0,,html-keyboard-response,215,543430,0.0-7.13-0.13,c8wnux2zipn,2022-09-16 18:29:08.566,62d019a022610b31756bdaa5,3,49,22,26,0,28,Male,1324.200000003,,"
  <table>
  <tr height=300>
    <td width=300 height=300><img src=""static/images/cards/stack_of_red_stars.svg"" width=""175px"" height=""250px""></img></td>
    <td width=300 height=300><img src=""static/images/cards/stack_of_black_stars.svg"" width=""175px"" height=""250px""></img></td>
  </tr>
  <tr height=200>
    <td width=300><img src=""static/images/keys/w.svg"" width=""35%"" height=""75%""></img></td>
    <td width=300><img src=""static/images/keys/o.svg"" width=""35%"" height=""75%""></img></td>
  </tr>
</table>
  ",79.0,1.0,,,,,,,,,,,,,,,,,,,,,,,,,,
216,0,,html-keyboard-response,216,544958,0.0-7.13-1.13,c8wnux2zipn,2022-09-16 18:29:08.566,62d019a022610b31756bdaa5,3,49,22,26,0,28,Male,1018.6000000089,,"
  <table>
  <tr height=300>
    <td width=300 height=300><img src=""static/images/cards/back_of_black_stars.svg"" width=""175px"" height=""250px""></img></td>
    <td width=300 height=300><img src=""static/images/cards/back_of_black_stars.svg"" width=""175px"" height=""250px""></img></td>
  </tr>
  <tr height=200>
    <td width=300><img src=""static/images/keys/z.svg"" width=""35%"" height=""75%""></img></td>
    <td width=300><img src=""static/images/keys/m.svg"" width=""35%"" height=""75%""></img></td>
  </tr>
</table>
  ",77.0,1.0,,,,,,,,,,,,,,,,,,,,,,,,,,
217,0,,html-keyboard-response,217,546468,0.0-7.13-2.13,c8wnux2zipn,2022-09-16 18:29:08.566,62d019a022610b31756bdaa5,3,49,22,26,0,28,Male,,,"
  <table>
  <tr height=300>
    <td width=300 height=300><img src=""static/images/cards/back_of_black_stars.svg"" width=""175px"" height=""250px""></img></td>
    <td width=300 height=300><img src=""static/images/cards/4_of_black_stars.svg"" width=""175px"" height=""250px""></img></td>
  </tr>
  <tr height=200>
    <td width=300><img src=""static/images/keys/z.svg"" width=""35%"" height=""75%""></img></td>
    <td width=300><img src=""static/images/keys/m.svg"" width=""35%"" height=""75%""></img></td>
  </tr>
</table>
  ",,,,,,,,,,,,,,,,,,,,,,,,,,,,
218,0,,html-keyboard-response,218,547983,0.0-7.13-3.13,c8wnux2zipn,2022-09-16 18:29:08.566,62d019a022610b31756bdaa5,3,49,22,26,0,28,Male,,,"<p style=""font-size:50px"">You Lose!
No points this round.</p>",,,,,,,,,,,,,,,,,,,,,,,,,,,,
219,0,,html-keyboard-response,219,548501,0.0-7.13-4.13,c8wnux2zipn,2022-09-16 18:29:08.566,62d019a022610b31756bdaa5,3,49,22,26,0,28,Male,,,,,,1.0,choice,13.0,C,D,red,black,stars,stars,D,C,C,black,stars,1324.200000003,1.0,0.0,NA,right,1018.6000000089,4.0,0.0,0.0,,,
220,0,,html-keyboard-response,220,549493,0.0-7.14-0.14,c8wnux2zipn,2022-09-16 18:29:08.566,62d019a022610b31756bdaa5,3,49,22,26,0,28,Male,988.599999994,,"
  <table>
  <tr height=300>
    <td width=300 height=300><img src=""static/images/cards/stack_of_red_bolts.svg"" width=""175px"" height=""250px""></img></td>
    <td width=300 height=300><img src=""static/images/cards/stack_of_red_moons.svg"" width=""175px"" height=""250px""></img></td>
  </tr>
  <tr height=200>
    <td width=300><img src=""static/images/keys/w.svg"" width=""35%"" height=""75%""></img></td>
    <td width=300><img src=""static/images/keys/o.svg"" width=""35%"" height=""75%""></img></td>
  </tr>
</table>
  ",87.0,1.0,,,,,,,,,,,,,,,,,,,,,,,,,,
221,0,,html-keyboard-response,221,550862,0.0-7.14-1.14,c8wnux2zipn,2022-09-16 18:29:08.566,62d019a022610b31756bdaa5,3,49,22,26,0,28,Male,860.5,,"
  <table>
  <tr height=300>
    <td width=300 height=300><img src=""static/images/cards/back_of_red_bolts.svg"" width=""175px"" height=""250px""></img></td>
    <td width=300 height=300><img src=""static/images/cards/back_of_red_bolts.svg"" width=""175px"" height=""250px""></img></td>
  </tr>
  <tr height=200>
    <td width=300><img src=""static/images/keys/z.svg"" width=""35%"" height=""75%""></img></td>
    <td width=300><img src=""static/images/keys/m.svg"" width=""35%"" height=""75%""></img></td>
  </tr>
</table>
  ",77.0,1.0,,,,,,,,,,,,,,,,,,,,,,,,,,
222,0,,html-keyboard-response,222,552371,0.0-7.14-2.14,c8wnux2zipn,2022-09-16 18:29:08.566,62d019a022610b31756bdaa5,3,49,22,26,0,28,Male,,,"
  <table>
  <tr height=300>
    <td width=300 height=300><img src=""static/images/cards/back_of_red_bolts.svg"" width=""175px"" height=""250px""></img></td>
    <td width=300 height=300><img src=""static/images/cards/1_of_red_bolts.svg"" width=""175px"" height=""250px""></img></td>
  </tr>
  <tr height=200>
    <td width=300><img src=""static/images/keys/z.svg"" width=""35%"" height=""75%""></img></td>
    <td width=300><img src=""static/images/keys/m.svg"" width=""35%"" height=""75%""></img></td>
  </tr>
</table>
  ",,,,,,,,,,,,,,,,,,,,,,,,,,,,
223,0,,html-keyboard-response,223,553901,0.0-7.14-3.14,c8wnux2zipn,2022-09-16 18:29:08.566,62d019a022610b31756bdaa5,3,49,22,26,0,28,Male,,,"<p style=""font-size:50px"">You win!
+10 points this round!</p>",,,,,,,,,,,,,,,,,,,,,,,,,,,,
224,0,,html-keyboard-response,224,554422,0.0-7.14-4.14,c8wnux2zipn,2022-09-16 18:29:08.566,62d019a022610b31756bdaa5,3,49,22,26,0,28,Male,,,,,,1.0,choice,14.0,B,Xc,red,red,bolts,moons,Xc,B,Xc,red,bolts,988.599999994,1.0,0.0,NA,right,860.5,1.0,0.0,1.0,,,
225,0,,html-keyboard-response,225,555868,0.0-7.15-0.15,c8wnux2zipn,2022-09-16 18:29:08.566,62d019a022610b31756bdaa5,3,49,22,26,0,28,Male,1443.0,,"
  <table>
  <tr height=300>
    <td width=300 height=300><img src=""static/images/cards/stack_of_black_moons.svg"" width=""175px"" height=""250px""></img></td>
    <td width=300 height=300><img src=""static/images/cards/stack_of_red_moons.svg"" width=""175px"" height=""250px""></img></td>
  </tr>
  <tr height=200>
    <td width=300><img src=""static/images/keys/w.svg"" width=""35%"" height=""75%""></img></td>
    <td width=300><img src=""static/images/keys/o.svg"" width=""35%"" height=""75%""></img></td>
  </tr>
</table>
  ",87.0,1.0,,,,,,,,,,,,,,,,,,,,,,,,,,
226,0,,html-keyboard-response,226,557270,0.0-7.15-1.15,c8wnux2zipn,2022-09-16 18:29:08.566,62d019a022610b31756bdaa5,3,49,22,26,0,28,Male,882.3999999911,,"
  <table>
  <tr height=300>
    <td width=300 height=300><img src=""static/images/cards/back_of_black_moons.svg"" width=""175px"" height=""250px""></img></td>
    <td width=300 height=300><img src=""static/images/cards/back_of_black_moons.svg"" width=""175px"" height=""250px""></img></td>
  </tr>
  <tr height=200>
    <td width=300><img src=""static/images/keys/z.svg"" width=""35%"" height=""75%""></img></td>
    <td width=300><img src=""static/images/keys/m.svg"" width=""35%"" height=""75%""></img></td>
  </tr>
</table>
  ",77.0,1.0,,,,,,,,,,,,,,,,,,,,,,,,,,
227,0,,html-keyboard-response,227,558783,0.0-7.15-2.15,c8wnux2zipn,2022-09-16 18:29:08.566,62d019a022610b31756bdaa5,3,49,22,26,0,28,Male,,,"
  <table>
  <tr height=300>
    <td width=300 height=300><img src=""static/images/cards/back_of_black_moons.svg"" width=""175px"" height=""250px""></img></td>
    <td width=300 height=300><img src=""static/images/cards/4_of_black_moons.svg"" width=""175px"" height=""250px""></img></td>
  </tr>
  <tr height=200>
    <td width=300><img src=""static/images/keys/z.svg"" width=""35%"" height=""75%""></img></td>
    <td width=300><img src=""static/images/keys/m.svg"" width=""35%"" height=""75%""></img></td>
  </tr>
</table>
  ",,,,,,,,,,,,,,,,,,,,,,,,,,,,
228,0,,html-keyboard-response,228,560299,0.0-7.15-3.15,c8wnux2zipn,2022-09-16 18:29:08.566,62d019a022610b31756bdaa5,3,49,22,26,0,28,Male,,,"<p style=""font-size:50px"">You Lose!
No points this round.</p>",,,,,,,,,,,,,,,,,,,,,,,,,,,,
229,0,,html-keyboard-response,229,560819,0.0-7.15-4.15,c8wnux2zipn,2022-09-16 18:29:08.566,62d019a022610b31756bdaa5,3,49,22,26,0,28,Male,,,,,,1.0,choice,15.0,A,B,black,red,moons,moons,A,B,A,black,moons,1443.0,1.0,1.0,NA,right,882.3999999911,4.0,0.0,0.0,,,
230,0,,html-keyboard-response,230,562359,0.0-7.16-0.16,c8wnux2zipn,2022-09-16 18:29:08.566,62d019a022610b31756bdaa5,3,49,22,26,0,28,Male,1535.6000000089,,"
  <table>
  <tr height=300>
    <td width=300 height=300><img src=""static/images/cards/stack_of_red_stars.svg"" width=""175px"" height=""250px""></img></td>
    <td width=300 height=300><img src=""static/images/cards/stack_of_red_moons.svg"" width=""175px"" height=""250px""></img></td>
  </tr>
  <tr height=200>
    <td width=300><img src=""static/images/keys/w.svg"" width=""35%"" height=""75%""></img></td>
    <td width=300><img src=""static/images/keys/o.svg"" width=""35%"" height=""75%""></img></td>
  </tr>
</table>
  ",79.0,1.0,,,,,,,,,,,,,,,,,,,,,,,,,,
231,0,,html-keyboard-response,231,563510,0.0-7.16-1.16,c8wnux2zipn,2022-09-16 18:29:08.566,62d019a022610b31756bdaa5,3,49,22,26,0,28,Male,635.900000006,,"
  <table>
  <tr height=300>
    <td width=300 height=300><img src=""static/images/cards/back_of_red_moons.svg"" width=""175px"" height=""250px""></img></td>
    <td width=300 height=300><img src=""static/images/cards/back_of_red_moons.svg"" width=""175px"" height=""250px""></img></td>
  </tr>
  <tr height=200>
    <td width=300></td>
    <td width=300><img src=""static/images/keys/m.svg"" width=""35%"" height=""75%""></img></td>
  </tr>
</table>
  ",77.0,1.0,,,,,,,,,,,,,,,,,,,,,,,,,,
232,0,,html-keyboard-response,232,565032,0.0-7.16-2.16,c8wnux2zipn,2022-09-16 18:29:08.566,62d019a022610b31756bdaa5,3,49,22,26,0,28,Male,,,"
  <table>
  <tr height=300>
    <td width=300 height=300><img src=""static/images/cards/back_of_red_moons.svg"" width=""175px"" height=""250px""></img></td>
    <td width=300 height=300><img src=""static/images/cards/7_of_red_moons.svg"" width=""175px"" height=""250px""></img></td>
  </tr>
  <tr height=200>
    <td width=300></td>
    <td width=300><img src=""static/images/keys/m.svg"" width=""35%"" height=""75%""></img></td>
  </tr>
</table>
  ",,,,,,,,,,,,,,,,,,,,,,,,,,,,
233,0,,html-keyboard-response,233,566552,0.0-7.16-3.16,c8wnux2zipn,2022-09-16 18:29:08.566,62d019a022610b31756bdaa5,3,49,22,26,0,28,Male,,,"<p style=""font-size:50px"">You win!
+10 points this round!</p>",,,,,,,,,,,,,,,,,,,,,,,,,,,,
