,index,success,trial_type,trial_index,time_elapsed,internal_node_id,subject,date,prol_id,ctbl,sense_of_control_A,sense_of_control_B,sense_of_control_C,sense_of_control_D,age,gender,rt,url,stimulus,key_press,npress,is_data_trial,phase,trial,deck1,deck2,col1,col2,sym1,sym2,deck_l,deck_r,chosen_deck,chosen_col,chosen_sym,deck_rt,choose_choice,mutual_info,hidden_key,chosen_card,card_rt,player_num,win_card,outcome,mock_rating,response,responses
0,0,1.0,fullscreen,0,2333,0.0-0.0,d4ftibxj1kh,2022-09-19 17:34:25.309,5f42167916548e3e557a1e6a,2,100,36,0,0,25,Female,,,,,,,,,,,,,,,,,,,,,,,,,,,,,,,
1,0,,external-html,1,4668,0.0-1.0,d4ftibxj1kh,2022-09-19 17:34:25.309,5f42167916548e3e557a1e6a,2,100,36,0,0,25,Female,2306.599999994,static/js/sub/consent.html,,,,,,,,,,,,,,,,,,,,,,,,,,,,,
2,0,,call-function,2,4668,0.0-2.0,d4ftibxj1kh,2022-09-19 17:34:25.309,5f42167916548e3e557a1e6a,2,100,36,0,0,25,Female,,,,,,,,,,,,,,,,,,,,,,,,,,,,,,,
3,0,,image-keyboard-response,3,8956,0.0-3.0-0.0,d4ftibxj1kh,2022-09-19 17:34:25.309,5f42167916548e3e557a1e6a,2,100,36,0,0,25,Female,4286.7999999821,,static/images/instructions_CB_2/Slide1.png,39.0,,,,,,,,,,,,,,,,,,,,,,,,,,,
4,0,,image-keyboard-response,4,16651,0.0-3.1-0.1,d4ftibxj1kh,2022-09-19 17:34:25.309,5f42167916548e3e557a1e6a,2,100,36,0,0,25,Female,7693.7999999821,,static/images/instructions_CB_2/Slide2.png,39.0,,,,,,,,,,,,,,,,,,,,,,,,,,,
5,0,,image-keyboard-response,5,19523,0.0-3.2-0.2,d4ftibxj1kh,2022-09-19 17:34:25.309,5f42167916548e3e557a1e6a,2,100,36,0,0,25,Female,2870.900000006,,static/images/instructions_CB_2/Slide3.png,37.0,,,,,,,,,,,,,,,,,,,,,,,,,,,
6,0,,image-keyboard-response,6,20610,0.0-3.3-0.3,d4ftibxj1kh,2022-09-19 17:34:25.309,5f42167916548e3e557a1e6a,2,100,36,0,0,25,Female,1086.900000006,,static/images/instructions_CB_2/Slide2.png,39.0,,,,,,,,,,,,,,,,,,,,,,,,,,,
7,0,,image-keyboard-response,7,23619,0.0-3.4-0.4,d4ftibxj1kh,2022-09-19 17:34:25.309,5f42167916548e3e557a1e6a,2,100,36,0,0,25,Female,3007.8000000119,,static/images/instructions_CB_2/Slide3.png,39.0,,,,,,,,,,,,,,,,,,,,,,,,,,,
8,0,,image-keyboard-response,8,29170,0.0-3.5-0.5,d4ftibxj1kh,2022-09-19 17:34:25.309,5f42167916548e3e557a1e6a,2,100,36,0,0,25,Female,5551.599999994,,static/images/instructions_CB_2/Slide4.png,39.0,,,,,,,,,,,,,,,,,,,,,,,,,,,
9,0,,image-keyboard-response,9,37130,0.0-3.6-0.6,d4ftibxj1kh,2022-09-19 17:34:25.309,5f42167916548e3e557a1e6a,2,100,36,0,0,25,Female,7959.2000000179,,static/images/instructions_CB_2/Slide5.png,39.0,,,,,,,,,,,,,,,,,,,,,,,,,,,
10,0,,image-keyboard-response,10,38946,0.0-3.7-0.7,d4ftibxj1kh,2022-09-19 17:34:25.309,5f42167916548e3e557a1e6a,2,100,36,0,0,25,Female,1815.099999994,,static/images/instructions_CB_2/Slide6.png,39.0,,,,,,,,,,,,,,,,,,,,,,,,,,,
11,0,,image-keyboard-response,11,46394,0.0-3.8-0.8,d4ftibxj1kh,2022-09-19 17:34:25.309,5f42167916548e3e557a1e6a,2,100,36,0,0,25,Female,7447.7000000179,,static/images/instructions_CB_2/Slide7.png,39.0,,,,,,,,,,,,,,,,,,,,,,,,,,,
12,0,,image-keyboard-response,12,61722,0.0-3.9-0.9,d4ftibxj1kh,2022-09-19 17:34:25.309,5f42167916548e3e557a1e6a,2,100,36,0,0,25,Female,15327.400000006,,static/images/instructions_CB_2/Slide8.png,39.0,,,,,,,,,,,,,,,,,,,,,,,,,,,
13,0,,image-keyboard-response,13,67090,0.0-3.10-0.10,d4ftibxj1kh,2022-09-19 17:34:25.309,5f42167916548e3e557a1e6a,2,100,36,0,0,25,Female,5367.2999999821,,static/images/instructions_CB_2/Slide9.png,39.0,,,,,,,,,,,,,,,,,,,,,,,,,,,
14,0,,image-keyboard-response,14,78818,0.0-3.11-0.11,d4ftibxj1kh,2022-09-19 17:34:25.309,5f42167916548e3e557a1e6a,2,100,36,0,0,25,Female,11727.7999999821,,static/images/instructions_CB_2/Slide10.png,39.0,,,,,,,,,,,,,,,,,,,,,,,,,,,
15,0,,image-keyboard-response,15,83674,0.0-3.12-0.12,d4ftibxj1kh,2022-09-19 17:34:25.309,5f42167916548e3e557a1e6a,2,100,36,0,0,25,Female,4854.6999999881,,static/images/instructions_CB_2/Slide11.png,39.0,,,,,,,,,,,,,,,,,,,,,,,,,,,
16,0,,image-keyboard-response,16,95587,0.0-3.13-0.13,d4ftibxj1kh,2022-09-19 17:34:25.309,5f42167916548e3e557a1e6a,2,100,36,0,0,25,Female,11911.8000000119,,static/images/instructions_CB_2/Slide12.png,39.0,,,,,,,,,,,,,,,,,,,,,,,,,,,
17,0,,image-keyboard-response,17,113219,0.0-3.14-0.14,d4ftibxj1kh,2022-09-19 17:34:25.309,5f42167916548e3e557a1e6a,2,100,36,0,0,25,Female,17631.400000006,,static/images/instructions_CB_2/Slide13.png,39.0,,,,,,,,,,,,,,,,,,,,,,,,,,,
18,0,,image-keyboard-response,18,118426,0.0-3.15-0.15,d4ftibxj1kh,2022-09-19 17:34:25.309,5f42167916548e3e557a1e6a,2,100,36,0,0,25,Female,5207.1999999881,,static/images/instructions_CB_2/Slide14.png,39.0,,,,,,,,,,,,,,,,,,,,,,,,,,,
19,0,,image-keyboard-response,19,125107,0.0-3.16-0.16,d4ftibxj1kh,2022-09-19 17:34:25.309,5f42167916548e3e557a1e6a,2,100,36,0,0,25,Female,6679.8000000119,,static/images/instructions_CB_2/Slide15.png,39.0,,,,,,,,,,,,,,,,,,,,,,,,,,,
20,0,,image-keyboard-response,20,129322,0.0-3.17-0.17,d4ftibxj1kh,2022-09-19 17:34:25.309,5f42167916548e3e557a1e6a,2,100,36,0,0,25,Female,4215.0,,static/images/instructions_CB_2/Slide16.png,39.0,,,,,,,,,,,,,,,,,,,,,,,,,,,
21,0,,image-keyboard-response,21,134818,0.0-3.18-0.18,d4ftibxj1kh,2022-09-19 17:34:25.309,5f42167916548e3e557a1e6a,2,100,36,0,0,25,Female,5495.400000006,,static/images/instructions_CB_2/Slide17.png,39.0,,,,,,,,,,,,,,,,,,,,,,,,,,,
22,0,,image-keyboard-response,22,137403,0.0-3.19-0.19,d4ftibxj1kh,2022-09-19 17:34:25.309,5f42167916548e3e557a1e6a,2,100,36,0,0,25,Female,2583.900000006,,static/images/instructions_CB_2/Slide18.png,39.0,,,,,,,,,,,,,,,,,,,,,,,,,,,
23,0,,image-keyboard-response,23,141235,0.0-3.20-0.20,d4ftibxj1kh,2022-09-19 17:34:25.309,5f42167916548e3e557a1e6a,2,100,36,0,0,25,Female,3831.2000000179,,static/images/instructions_CB_2/Slide19.png,39.0,,,,,,,,,,,,,,,,,,,,,,,,,,,
24,0,,html-keyboard-response,24,142737,0.0-4.0-0.0,d4ftibxj1kh,2022-09-19 17:34:25.309,5f42167916548e3e557a1e6a,2,100,36,0,0,25,Female,,,"<img src=""static/images/cards/stack_of_black_stars.svg"" width=""175px"" height=""250px""></img>",,,,,,,,,,,,,,,,,,,,,,,,,,,,
25,0,,html-keyboard-response,25,144587,0.0-4.0-1.0,d4ftibxj1kh,2022-09-19 17:34:25.309,5f42167916548e3e557a1e6a,2,100,36,0,0,25,Female,1348.0,,"
  <table>
  <tr height=300>
    <td width=300 height=300><img src=""static/images/cards/back_of_black_stars.svg"" width=""175px"" height=""250px""></img></td>
    <td width=300 height=300><img src=""static/images/cards/back_of_black_stars.svg"" width=""175px"" height=""250px""></img></td>
  </tr>
  <tr height=200>
    <td width=300><img src=""static/images/keys/z.svg"" width=""35%"" height=""75%""></img></td>
    <td width=300><img src=""static/images/keys/m.svg"" width=""35%"" height=""75%""></img></td>
  </tr>
</table>
  ",90.0,1.0,,,,,,,,,,,,,,,,,,,,,,,,,,
26,0,,html-keyboard-response,26,146088,0.0-4.0-2.0,d4ftibxj1kh,2022-09-19 17:34:25.309,5f42167916548e3e557a1e6a,2,100,36,0,0,25,Female,,,"
  <table>
  <tr height=300>
    <td width=300 height=300><img src=""static/images/cards/2_of_black_stars.svg"" width=""175px"" height=""250px""></img></td>
    <td width=300 height=300><img src=""static/images/cards/back_of_black_stars.svg"" width=""175px"" height=""250px""></img></td>
  </tr>
  <tr height=200>
    <td width=300><img src=""static/images/keys/z.svg"" width=""35%"" height=""75%""></img></td>
    <td width=300><img src=""static/images/keys/m.svg"" width=""35%"" height=""75%""></img></td>
  </tr>
</table>
  ",,,,,,,,,,,,,,,,,,,,,,,,,,,,
27,0,,html-keyboard-response,27,147590,0.0-4.0-3.0,d4ftibxj1kh,2022-09-19 17:34:25.309,5f42167916548e3e557a1e6a,2,100,36,0,0,25,Female,,,"<p style=""font-size:50px"">You Lose!
No points this round.</p>",,,,,,,,,,,,,,,,,,,,,,,,,,,,
28,0,,html-keyboard-response,28,148096,0.0-4.0-4.0,d4ftibxj1kh,2022-09-19 17:34:25.309,5f42167916548e3e557a1e6a,2,100,36,0,0,25,Female,,,,,,1.0,learning,0.0,A,,black,,stars,,,,A,black,stars,,1.0,1.0,NA,left,1348.0,2.0,0.0,0.0,,,
29,0,,html-keyboard-response,29,149598,0.0-4.1-0.1,d4ftibxj1kh,2022-09-19 17:34:25.309,5f42167916548e3e557a1e6a,2,100,36,0,0,25,Female,,,"<img src=""static/images/cards/stack_of_red_stars.svg"" width=""175px"" height=""250px""></img>",,,,,,,,,,,,,,,,,,,,,,,,,,,,
30,0,,html-keyboard-response,30,150787,0.0-4.1-1.1,d4ftibxj1kh,2022-09-19 17:34:25.309,5f42167916548e3e557a1e6a,2,100,36,0,0,25,Female,687.0,,"
  <table>
  <tr height=300>
    <td width=300 height=300><img src=""static/images/cards/back_of_red_stars.svg"" width=""175px"" height=""250px""></img></td>
    <td width=300 height=300><img src=""static/images/cards/back_of_red_stars.svg"" width=""175px"" height=""250px""></img></td>
  </tr>
  <tr height=200>
    <td width=300><img src=""static/images/keys/z.svg"" width=""35%"" height=""75%""></img></td>
    <td width=300></td>
  </tr>
</table>
  ",90.0,1.0,,,,,,,,,,,,,,,,,,,,,,,,,,
31,0,,html-keyboard-response,31,152289,0.0-4.1-2.1,d4ftibxj1kh,2022-09-19 17:34:25.309,5f42167916548e3e557a1e6a,2,100,36,0,0,25,Female,,,"
  <table>
  <tr height=300>
    <td width=300 height=300><img src=""static/images/cards/1_of_red_stars.svg"" width=""175px"" height=""250px""></img></td>
    <td width=300 height=300><img src=""static/images/cards/back_of_red_stars.svg"" width=""175px"" height=""250px""></img></td>
  </tr>
  <tr height=200>
    <td width=300><img src=""static/images/keys/z.svg"" width=""35%"" height=""75%""></img></td>
    <td width=300></td>
  </tr>
</table>
  ",,,,,,,,,,,,,,,,,,,,,,,,,,,,
32,0,,html-keyboard-response,32,153792,0.0-4.1-3.1,d4ftibxj1kh,2022-09-19 17:34:25.309,5f42167916548e3e557a1e6a,2,100,36,0,0,25,Female,,,"<p style=""font-size:50px"">You Lose!
No points this round.</p>",,,,,,,,,,,,,,,,,,,,,,,,,,,,
33,0,,html-keyboard-response,33,154298,0.0-4.1-4.1,d4ftibxj1kh,2022-09-19 17:34:25.309,5f42167916548e3e557a1e6a,2,100,36,0,0,25,Female,,,,,,1.0,learning,1.0,B,,red,,stars,,,,B,red,stars,,0.0,1.0,1,left,687.0,1.0,0.0,0.0,,,
34,0,,html-keyboard-response,34,155799,0.0-4.2-0.2,d4ftibxj1kh,2022-09-19 17:34:25.309,5f42167916548e3e557a1e6a,2,100,36,0,0,25,Female,,,"<img src=""static/images/cards/stack_of_black_moons.svg"" width=""175px"" height=""250px""></img>",,,,,,,,,,,,,,,,,,,,,,,,,,,,
35,0,,html-keyboard-response,35,157050,0.0-4.2-1.2,d4ftibxj1kh,2022-09-19 17:34:25.309,5f42167916548e3e557a1e6a,2,100,36,0,0,25,Female,750.0,,"
  <table>
  <tr height=300>
    <td width=300 height=300><img src=""static/images/cards/back_of_black_moons.svg"" width=""175px"" height=""250px""></img></td>
    <td width=300 height=300><img src=""static/images/cards/back_of_black_moons.svg"" width=""175px"" height=""250px""></img></td>
  </tr>
  <tr height=200>
    <td width=300><img src=""static/images/keys/z.svg"" width=""35%"" height=""75%""></img></td>
    <td width=300><img src=""static/images/keys/m.svg"" width=""35%"" height=""75%""></img></td>
  </tr>
</table>
  ",77.0,1.0,,,,,,,,,,,,,,,,,,,,,,,,,,
36,0,,html-keyboard-response,36,158552,0.0-4.2-2.2,d4ftibxj1kh,2022-09-19 17:34:25.309,5f42167916548e3e557a1e6a,2,100,36,0,0,25,Female,,,"
  <table>
  <tr height=300>
    <td width=300 height=300><img src=""static/images/cards/back_of_black_moons.svg"" width=""175px"" height=""250px""></img></td>
    <td width=300 height=300><img src=""static/images/cards/2_of_black_moons.svg"" width=""175px"" height=""250px""></img></td>
  </tr>
  <tr height=200>
    <td width=300><img src=""static/images/keys/z.svg"" width=""35%"" height=""75%""></img></td>
    <td width=300><img src=""static/images/keys/m.svg"" width=""35%"" height=""75%""></img></td>
  </tr>
</table>
  ",,,,,,,,,,,,,,,,,,,,,,,,,,,,
37,0,,html-keyboard-response,37,160055,0.0-4.2-3.2,d4ftibxj1kh,2022-09-19 17:34:25.309,5f42167916548e3e557a1e6a,2,100,36,0,0,25,Female,,,"<p style=""font-size:50px"">You win!
+10 points this round!</p>",,,,,,,,,,,,,,,,,,,,,,,,,,,,
38,0,,html-keyboard-response,38,160561,0.0-4.2-4.2,d4ftibxj1kh,2022-09-19 17:34:25.309,5f42167916548e3e557a1e6a,2,100,36,0,0,25,Female,,,,,,1.0,learning,2.0,C,,black,,moons,,,,C,black,moons,,1.0,0.0,NA,right,750.0,2.0,0.0,1.0,,,
39,0,,html-keyboard-response,39,162062,0.0-4.3-0.3,d4ftibxj1kh,2022-09-19 17:34:25.309,5f42167916548e3e557a1e6a,2,100,36,0,0,25,Female,,,"<img src=""static/images/cards/stack_of_red_moons.svg"" width=""175px"" height=""250px""></img>",,,,,,,,,,,,,,,,,,,,,,,,,,,,
40,0,,html-keyboard-response,40,163403,0.0-4.3-1.3,d4ftibxj1kh,2022-09-19 17:34:25.309,5f42167916548e3e557a1e6a,2,100,36,0,0,25,Female,838.900000006,,"
  <table>
  <tr height=300>
    <td width=300 height=300><img src=""static/images/cards/back_of_red_moons.svg"" width=""175px"" height=""250px""></img></td>
    <td width=300 height=300><img src=""static/images/cards/back_of_red_moons.svg"" width=""175px"" height=""250px""></img></td>
  </tr>
  <tr height=200>
    <td width=300><img src=""static/images/keys/z.svg"" width=""35%"" height=""75%""></img></td>
    <td width=300></td>
  </tr>
</table>
  ",90.0,1.0,,,,,,,,,,,,,,,,,,,,,,,,,,
41,0,,html-keyboard-response,41,164904,0.0-4.3-2.3,d4ftibxj1kh,2022-09-19 17:34:25.309,5f42167916548e3e557a1e6a,2,100,36,0,0,25,Female,,,"
  <table>
  <tr height=300>
    <td width=300 height=300><img src=""static/images/cards/6_of_red_moons.svg"" width=""175px"" height=""250px""></img></td>
    <td width=300 height=300><img src=""static/images/cards/back_of_red_moons.svg"" width=""175px"" height=""250px""></img></td>
  </tr>
  <tr height=200>
    <td width=300><img src=""static/images/keys/z.svg"" width=""35%"" height=""75%""></img></td>
    <td width=300></td>
  </tr>
</table>
  ",,,,,,,,,,,,,,,,,,,,,,,,,,,,
42,0,,html-keyboard-response,42,166408,0.0-4.3-3.3,d4ftibxj1kh,2022-09-19 17:34:25.309,5f42167916548e3e557a1e6a,2,100,36,0,0,25,Female,,,"<p style=""font-size:50px"">You win!
+10 points this round!</p>",,,,,,,,,,,,,,,,,,,,,,,,,,,,
43,0,,html-keyboard-response,43,166915,0.0-4.3-4.3,d4ftibxj1kh,2022-09-19 17:34:25.309,5f42167916548e3e557a1e6a,2,100,36,0,0,25,Female,,,,,,1.0,learning,3.0,D,,red,,moons,,,,D,red,moons,,0.0,0.0,1,left,838.900000006,6.0,1.0,1.0,,,
44,0,,html-keyboard-response,44,168417,0.0-4.4-0.4,d4ftibxj1kh,2022-09-19 17:34:25.309,5f42167916548e3e557a1e6a,2,100,36,0,0,25,Female,,,"<img src=""static/images/cards/stack_of_red_bolts.svg"" width=""175px"" height=""250px""></img>",,,,,,,,,,,,,,,,,,,,,,,,,,,,
45,0,,html-keyboard-response,45,169539,0.0-4.4-1.4,d4ftibxj1kh,2022-09-19 17:34:25.309,5f42167916548e3e557a1e6a,2,100,36,0,0,25,Female,619.5,,"
  <table>
  <tr height=300>
    <td width=300 height=300><img src=""static/images/cards/back_of_red_bolts.svg"" width=""175px"" height=""250px""></img></td>
    <td width=300 height=300><img src=""static/images/cards/back_of_red_bolts.svg"" width=""175px"" height=""250px""></img></td>
  </tr>
  <tr height=200>
    <td width=300><img src=""static/images/keys/z.svg"" width=""35%"" height=""75%""></img></td>
    <td width=300><img src=""static/images/keys/m.svg"" width=""35%"" height=""75%""></img></td>
  </tr>
</table>
  ",90.0,1.0,,,,,,,,,,,,,,,,,,,,,,,,,,
46,0,,html-keyboard-response,46,171041,0.0-4.4-2.4,d4ftibxj1kh,2022-09-19 17:34:25.309,5f42167916548e3e557a1e6a,2,100,36,0,0,25,Female,,,"
  <table>
  <tr height=300>
    <td width=300 height=300><img src=""static/images/cards/7_of_red_bolts.svg"" width=""175px"" height=""250px""></img></td>
    <td width=300 height=300><img src=""static/images/cards/back_of_red_bolts.svg"" width=""175px"" height=""250px""></img></td>
  </tr>
  <tr height=200>
    <td width=300><img src=""static/images/keys/z.svg"" width=""35%"" height=""75%""></img></td>
    <td width=300><img src=""static/images/keys/m.svg"" width=""35%"" height=""75%""></img></td>
  </tr>
</table>
  ",,,,,,,,,,,,,,,,,,,,,,,,,,,,
47,0,,html-keyboard-response,47,172544,0.0-4.4-3.4,d4ftibxj1kh,2022-09-19 17:34:25.309,5f42167916548e3e557a1e6a,2,100,36,0,0,25,Female,,,"<p style=""font-size:50px"">You win!
+10 points this round!</p>",,,,,,,,,,,,,,,,,,,,,,,,,,,,
48,0,,html-keyboard-response,48,173050,0.0-4.4-4.4,d4ftibxj1kh,2022-09-19 17:34:25.309,5f42167916548e3e557a1e6a,2,100,36,0,0,25,Female,,,,,,1.0,learning,4.0,Xc,,red,,bolts,,,,Xc,red,bolts,,1.0,0.0,NA,left,619.5,7.0,1.0,1.0,,,
49,0,,html-keyboard-response,49,174551,0.0-4.5-0.5,d4ftibxj1kh,2022-09-19 17:34:25.309,5f42167916548e3e557a1e6a,2,100,36,0,0,25,Female,,,"<img src=""static/images/cards/stack_of_black_bolts.svg"" width=""175px"" height=""250px""></img>",,,,,,,,,,,,,,,,,,,,,,,,,,,,
50,0,,html-keyboard-response,50,175643,0.0-4.5-1.5,d4ftibxj1kh,2022-09-19 17:34:25.309,5f42167916548e3e557a1e6a,2,100,36,0,0,25,Female,590.1999999881,,"
  <table>
  <tr height=300>
    <td width=300 height=300><img src=""static/images/cards/back_of_black_bolts.svg"" width=""175px"" height=""250px""></img></td>
    <td width=300 height=300><img src=""static/images/cards/back_of_black_bolts.svg"" width=""175px"" height=""250px""></img></td>
  </tr>
  <tr height=200>
    <td width=300><img src=""static/images/keys/z.svg"" width=""35%"" height=""75%""></img></td>
    <td width=300></td>
  </tr>
</table>
  ",90.0,1.0,,,,,,,,,,,,,,,,,,,,,,,,,,
51,0,,html-keyboard-response,51,177144,0.0-4.5-2.5,d4ftibxj1kh,2022-09-19 17:34:25.309,5f42167916548e3e557a1e6a,2,100,36,0,0,25,Female,,,"
  <table>
  <tr height=300>
    <td width=300 height=300><img src=""static/images/cards/7_of_black_bolts.svg"" width=""175px"" height=""250px""></img></td>
    <td width=300 height=300><img src=""static/images/cards/back_of_black_bolts.svg"" width=""175px"" height=""250px""></img></td>
  </tr>
  <tr height=200>
    <td width=300><img src=""static/images/keys/z.svg"" width=""35%"" height=""75%""></img></td>
    <td width=300></td>
  </tr>
</table>
  ",,,,,,,,,,,,,,,,,,,,,,,,,,,,
52,0,,html-keyboard-response,52,178648,0.0-4.5-3.5,d4ftibxj1kh,2022-09-19 17:34:25.309,5f42167916548e3e557a1e6a,2,100,36,0,0,25,Female,,,"<p style=""font-size:50px"">You win!
+10 points this round!</p>",,,,,,,,,,,,,,,,,,,,,,,,,,,,
53,0,,html-keyboard-response,53,179154,0.0-4.5-4.5,d4ftibxj1kh,2022-09-19 17:34:25.309,5f42167916548e3e557a1e6a,2,100,36,0,0,25,Female,,,,,,1.0,learning,5.0,Xnc,,black,,bolts,,,,Xnc,black,bolts,,0.0,0.0,1,left,590.1999999881,7.0,1.0,1.0,,,
54,0,,html-keyboard-response,54,180656,0.0-4.6-0.6,d4ftibxj1kh,2022-09-19 17:34:25.309,5f42167916548e3e557a1e6a,2,100,36,0,0,25,Female,,,"<img src=""static/images/cards/stack_of_black_stars.svg"" width=""175px"" height=""250px""></img>",,,,,,,,,,,,,,,,,,,,,,,,,,,,
55,0,,html-keyboard-response,55,182130,0.0-4.6-1.6,d4ftibxj1kh,2022-09-19 17:34:25.309,5f42167916548e3e557a1e6a,2,100,36,0,0,25,Female,972.900000006,,"
  <table>
  <tr height=300>
    <td width=300 height=300><img src=""static/images/cards/back_of_black_stars.svg"" width=""175px"" height=""250px""></img></td>
    <td width=300 height=300><img src=""static/images/cards/back_of_black_stars.svg"" width=""175px"" height=""250px""></img></td>
  </tr>
  <tr height=200>
    <td width=300><img src=""static/images/keys/z.svg"" width=""35%"" height=""75%""></img></td>
    <td width=300><img src=""static/images/keys/m.svg"" width=""35%"" height=""75%""></img></td>
  </tr>
</table>
  ",90.0,1.0,,,,,,,,,,,,,,,,,,,,,,,,,,
56,0,,html-keyboard-response,56,183632,0.0-4.6-2.6,d4ftibxj1kh,2022-09-19 17:34:25.309,5f42167916548e3e557a1e6a,2,100,36,0,0,25,Female,,,"
  <table>
  <tr height=300>
    <td width=300 height=300><img src=""static/images/cards/9_of_black_stars.svg"" width=""175px"" height=""250px""></img></td>
    <td width=300 height=300><img src=""static/images/cards/back_of_black_stars.svg"" width=""175px"" height=""250px""></img></td>
  </tr>
  <tr height=200>
    <td width=300><img src=""static/images/keys/z.svg"" width=""35%"" height=""75%""></img></td>
    <td width=300><img src=""static/images/keys/m.svg"" width=""35%"" height=""75%""></img></td>
  </tr>
</table>
  ",,,,,,,,,,,,,,,,,,,,,,,,,,,,
57,0,,html-keyboard-response,57,185135,0.0-4.6-3.6,d4ftibxj1kh,2022-09-19 17:34:25.309,5f42167916548e3e557a1e6a,2,100,36,0,0,25,Female,,,"<p style=""font-size:50px"">You win!
+10 points this round!</p>",,,,,,,,,,,,,,,,,,,,,,,,,,,,
58,0,,html-keyboard-response,58,185641,0.0-4.6-4.6,d4ftibxj1kh,2022-09-19 17:34:25.309,5f42167916548e3e557a1e6a,2,100,36,0,0,25,Female,,,,,,1.0,learning,6.0,A,,black,,stars,,,,A,black,stars,,1.0,1.0,NA,left,972.900000006,9.0,1.0,1.0,,,
59,0,,html-keyboard-response,59,187142,0.0-4.7-0.7,d4ftibxj1kh,2022-09-19 17:34:25.309,5f42167916548e3e557a1e6a,2,100,36,0,0,25,Female,,,"<img src=""static/images/cards/stack_of_red_stars.svg"" width=""175px"" height=""250px""></img>",,,,,,,,,,,,,,,,,,,,,,,,,,,,
60,0,,html-keyboard-response,60,188323,0.0-4.7-1.7,d4ftibxj1kh,2022-09-19 17:34:25.309,5f42167916548e3e557a1e6a,2,100,36,0,0,25,Female,679.2000000179,,"
  <table>
  <tr height=300>
    <td width=300 height=300><img src=""static/images/cards/back_of_red_stars.svg"" width=""175px"" height=""250px""></img></td>
    <td width=300 height=300><img src=""static/images/cards/back_of_red_stars.svg"" width=""175px"" height=""250px""></img></td>
  </tr>
  <tr height=200>
    <td width=300></td>
    <td width=300><img src=""static/images/keys/m.svg"" width=""35%"" height=""75%""></img></td>
  </tr>
</table>
  ",77.0,1.0,,,,,,,,,,,,,,,,,,,,,,,,,,
61,0,,html-keyboard-response,61,189825,0.0-4.7-2.7,d4ftibxj1kh,2022-09-19 17:34:25.309,5f42167916548e3e557a1e6a,2,100,36,0,0,25,Female,,,"
  <table>
  <tr height=300>
    <td width=300 height=300><img src=""static/images/cards/back_of_red_stars.svg"" width=""175px"" height=""250px""></img></td>
    <td width=300 height=300><img src=""static/images/cards/9_of_red_stars.svg"" width=""175px"" height=""250px""></img></td>
  </tr>
  <tr height=200>
    <td width=300></td>
    <td width=300><img src=""static/images/keys/m.svg"" width=""35%"" height=""75%""></img></td>
  </tr>
</table>
  ",,,,,,,,,,,,,,,,,,,,,,,,,,,,
62,0,,html-keyboard-response,62,191327,0.0-4.7-3.7,d4ftibxj1kh,2022-09-19 17:34:25.309,5f42167916548e3e557a1e6a,2,100,36,0,0,25,Female,,,"<p style=""font-size:50px"">You win!
+10 points this round!</p>",,,,,,,,,,,,,,,,,,,,,,,,,,,,
63,0,,html-keyboard-response,63,191833,0.0-4.7-4.7,d4ftibxj1kh,2022-09-19 17:34:25.309,5f42167916548e3e557a1e6a,2,100,36,0,0,25,Female,,,,,,1.0,learning,7.0,B,,red,,stars,,,,B,red,stars,,0.0,1.0,0,right,679.2000000179,9.0,1.0,1.0,,,
64,0,,html-keyboard-response,64,193335,0.0-4.8-0.8,d4ftibxj1kh,2022-09-19 17:34:25.309,5f42167916548e3e557a1e6a,2,100,36,0,0,25,Female,,,"<img src=""static/images/cards/stack_of_black_moons.svg"" width=""175px"" height=""250px""></img>",,,,,,,,,,,,,,,,,,,,,,,,,,,,
65,0,,html-keyboard-response,65,194427,0.0-4.8-1.8,d4ftibxj1kh,2022-09-19 17:34:25.309,5f42167916548e3e557a1e6a,2,100,36,0,0,25,Female,589.2999999821,,"
  <table>
  <tr height=300>
    <td width=300 height=300><img src=""static/images/cards/back_of_black_moons.svg"" width=""175px"" height=""250px""></img></td>
    <td width=300 height=300><img src=""static/images/cards/back_of_black_moons.svg"" width=""175px"" height=""250px""></img></td>
  </tr>
  <tr height=200>
    <td width=300><img src=""static/images/keys/z.svg"" width=""35%"" height=""75%""></img></td>
    <td width=300><img src=""static/images/keys/m.svg"" width=""35%"" height=""75%""></img></td>
  </tr>
</table>
  ",90.0,1.0,,,,,,,,,,,,,,,,,,,,,,,,,,
66,0,,html-keyboard-response,66,195929,0.0-4.8-2.8,d4ftibxj1kh,2022-09-19 17:34:25.309,5f42167916548e3e557a1e6a,2,100,36,0,0,25,Female,,,"
  <table>
  <tr height=300>
    <td width=300 height=300><img src=""static/images/cards/9_of_black_moons.svg"" width=""175px"" height=""250px""></img></td>
    <td width=300 height=300><img src=""static/images/cards/back_of_black_moons.svg"" width=""175px"" height=""250px""></img></td>
  </tr>
  <tr height=200>
    <td width=300><img src=""static/images/keys/z.svg"" width=""35%"" height=""75%""></img></td>
    <td width=300><img src=""static/images/keys/m.svg"" width=""35%"" height=""75%""></img></td>
  </tr>
</table>
  ",,,,,,,,,,,,,,,,,,,,,,,,,,,,
67,0,,html-keyboard-response,67,197431,0.0-4.8-3.8,d4ftibxj1kh,2022-09-19 17:34:25.309,5f42167916548e3e557a1e6a,2,100,36,0,0,25,Female,,,"<p style=""font-size:50px"">You win!
+10 points this round!</p>",,,,,,,,,,,,,,,,,,,,,,,,,,,,
68,0,,html-keyboard-response,68,197938,0.0-4.8-4.8,d4ftibxj1kh,2022-09-19 17:34:25.309,5f42167916548e3e557a1e6a,2,100,36,0,0,25,Female,,,,,,1.0,learning,8.0,C,,black,,moons,,,,C,black,moons,,1.0,0.0,NA,left,589.2999999821,9.0,1.0,1.0,,,
69,0,,html-keyboard-response,69,199440,0.0-4.9-0.9,d4ftibxj1kh,2022-09-19 17:34:25.309,5f42167916548e3e557a1e6a,2,100,36,0,0,25,Female,,,"<img src=""static/images/cards/stack_of_red_moons.svg"" width=""175px"" height=""250px""></img>",,,,,,,,,,,,,,,,,,,,,,,,,,,,
70,0,,html-keyboard-response,70,200299,0.0-4.9-1.9,d4ftibxj1kh,2022-09-19 17:34:25.309,5f42167916548e3e557a1e6a,2,100,36,0,0,25,Female,356.900000006,,"
  <table>
  <tr height=300>
    <td width=300 height=300><img src=""static/images/cards/back_of_red_moons.svg"" width=""175px"" height=""250px""></img></td>
    <td width=300 height=300><img src=""static/images/cards/back_of_red_moons.svg"" width=""175px"" height=""250px""></img></td>
  </tr>
  <tr height=200>
    <td width=300><img src=""static/images/keys/z.svg"" width=""35%"" height=""75%""></img></td>
    <td width=300></td>
  </tr>
</table>
  ",90.0,1.0,,,,,,,,,,,,,,,,,,,,,,,,,,
71,0,,html-keyboard-response,71,201802,0.0-4.9-2.9,d4ftibxj1kh,2022-09-19 17:34:25.309,5f42167916548e3e557a1e6a,2,100,36,0,0,25,Female,,,"
  <table>
  <tr height=300>
    <td width=300 height=300><img src=""static/images/cards/2_of_red_moons.svg"" width=""175px"" height=""250px""></img></td>
    <td width=300 height=300><img src=""static/images/cards/back_of_red_moons.svg"" width=""175px"" height=""250px""></img></td>
  </tr>
  <tr height=200>
    <td width=300><img src=""static/images/keys/z.svg"" width=""35%"" height=""75%""></img></td>
    <td width=300></td>
  </tr>
</table>
  ",,,,,,,,,,,,,,,,,,,,,,,,,,,,
72,0,,html-keyboard-response,72,203305,0.0-4.9-3.9,d4ftibxj1kh,2022-09-19 17:34:25.309,5f42167916548e3e557a1e6a,2,100,36,0,0,25,Female,,,"<p style=""font-size:50px"">You win!
+10 points this round!</p>",,,,,,,,,,,,,,,,,,,,,,,,,,,,
73,0,,html-keyboard-response,73,203810,0.0-4.9-4.9,d4ftibxj1kh,2022-09-19 17:34:25.309,5f42167916548e3e557a1e6a,2,100,36,0,0,25,Female,,,,,,1.0,learning,9.0,D,,red,,moons,,,,D,red,moons,,0.0,0.0,1,left,356.900000006,2.0,0.0,1.0,,,
74,0,,html-keyboard-response,74,205312,0.0-4.10-0.10,d4ftibxj1kh,2022-09-19 17:34:25.309,5f42167916548e3e557a1e6a,2,100,36,0,0,25,Female,,,"<img src=""static/images/cards/stack_of_red_bolts.svg"" width=""175px"" height=""250px""></img>",,,,,,,,,,,,,,,,,,,,,,,,,,,,
75,0,,html-keyboard-response,75,206307,0.0-4.10-1.10,d4ftibxj1kh,2022-09-19 17:34:25.309,5f42167916548e3e557a1e6a,2,100,36,0,0,25,Female,493.599999994,,"
  <table>
  <tr height=300>
    <td width=300 height=300><img src=""static/images/cards/back_of_red_bolts.svg"" width=""175px"" height=""250px""></img></td>
    <td width=300 height=300><img src=""static/images/cards/back_of_red_bolts.svg"" width=""175px"" height=""250px""></img></td>
  </tr>
  <tr height=200>
    <td width=300><img src=""static/images/keys/z.svg"" width=""35%"" height=""75%""></img></td>
    <td width=300><img src=""static/images/keys/m.svg"" width=""35%"" height=""75%""></img></td>
  </tr>
</table>
  ",90.0,1.0,,,,,,,,,,,,,,,,,,,,,,,,,,
76,0,,html-keyboard-response,76,207809,0.0-4.10-2.10,d4ftibxj1kh,2022-09-19 17:34:25.309,5f42167916548e3e557a1e6a,2,100,36,0,0,25,Female,,,"
  <table>
  <tr height=300>
    <td width=300 height=300><img src=""static/images/cards/7_of_red_bolts.svg"" width=""175px"" height=""250px""></img></td>
    <td width=300 height=300><img src=""static/images/cards/back_of_red_bolts.svg"" width=""175px"" height=""250px""></img></td>
  </tr>
  <tr height=200>
    <td width=300><img src=""static/images/keys/z.svg"" width=""35%"" height=""75%""></img></td>
    <td width=300><img src=""static/images/keys/m.svg"" width=""35%"" height=""75%""></img></td>
  </tr>
</table>
  ",,,,,,,,,,,,,,,,,,,,,,,,,,,,
77,0,,html-keyboard-response,77,209312,0.0-4.10-3.10,d4ftibxj1kh,2022-09-19 17:34:25.309,5f42167916548e3e557a1e6a,2,100,36,0,0,25,Female,,,"<p style=""font-size:50px"">You win!
+10 points this round!</p>",,,,,,,,,,,,,,,,,,,,,,,,,,,,
78,0,,html-keyboard-response,78,209817,0.0-4.10-4.10,d4ftibxj1kh,2022-09-19 17:34:25.309,5f42167916548e3e557a1e6a,2,100,36,0,0,25,Female,,,,,,1.0,learning,10.0,Xc,,red,,bolts,,,,Xc,red,bolts,,1.0,0.0,NA,left,493.599999994,7.0,1.0,1.0,,,
79,0,,html-keyboard-response,79,211319,0.0-4.11-0.11,d4ftibxj1kh,2022-09-19 17:34:25.309,5f42167916548e3e557a1e6a,2,100,36,0,0,25,Female,,,"<img src=""static/images/cards/stack_of_black_bolts.svg"" width=""175px"" height=""250px""></img>",,,,,,,,,,,,,,,,,,,,,,,,,,,,
80,0,,html-keyboard-response,80,212667,0.0-4.11-1.11,d4ftibxj1kh,2022-09-19 17:34:25.309,5f42167916548e3e557a1e6a,2,100,36,0,0,25,Female,845.900000006,,"
  <table>
  <tr height=300>
    <td width=300 height=300><img src=""static/images/cards/back_of_black_bolts.svg"" width=""175px"" height=""250px""></img></td>
    <td width=300 height=300><img src=""static/images/cards/back_of_black_bolts.svg"" width=""175px"" height=""250px""></img></td>
  </tr>
  <tr height=200>
    <td width=300></td>
    <td width=300><img src=""static/images/keys/m.svg"" width=""35%"" height=""75%""></img></td>
  </tr>
</table>
  ",77.0,1.0,,,,,,,,,,,,,,,,,,,,,,,,,,
81,0,,html-keyboard-response,81,214168,0.0-4.11-2.11,d4ftibxj1kh,2022-09-19 17:34:25.309,5f42167916548e3e557a1e6a,2,100,36,0,0,25,Female,,,"
  <table>
  <tr height=300>
    <td width=300 height=300><img src=""static/images/cards/back_of_black_bolts.svg"" width=""175px"" height=""250px""></img></td>
    <td width=300 height=300><img src=""static/images/cards/1_of_black_bolts.svg"" width=""175px"" height=""250px""></img></td>
  </tr>
  <tr height=200>
    <td width=300></td>
    <td width=300><img src=""static/images/keys/m.svg"" width=""35%"" height=""75%""></img></td>
  </tr>
</table>
  ",,,,,,,,,,,,,,,,,,,,,,,,,,,,
82,0,,html-keyboard-response,82,215670,0.0-4.11-3.11,d4ftibxj1kh,2022-09-19 17:34:25.309,5f42167916548e3e557a1e6a,2,100,36,0,0,25,Female,,,"<p style=""font-size:50px"">You win!
+10 points this round!</p>",,,,,,,,,,,,,,,,,,,,,,,,,,,,
83,0,,html-keyboard-response,83,216175,0.0-4.11-4.11,d4ftibxj1kh,2022-09-19 17:34:25.309,5f42167916548e3e557a1e6a,2,100,36,0,0,25,Female,,,,,,1.0,learning,11.0,Xnc,,black,,bolts,,,,Xnc,black,bolts,,0.0,0.0,0,right,845.900000006,1.0,0.0,1.0,,,
84,0,,html-keyboard-response,84,217676,0.0-4.12-0.12,d4ftibxj1kh,2022-09-19 17:34:25.309,5f42167916548e3e557a1e6a,2,100,36,0,0,25,Female,,,"<img src=""static/images/cards/stack_of_black_stars.svg"" width=""175px"" height=""250px""></img>",,,,,,,,,,,,,,,,,,,,,,,,,,,,
85,0,,html-keyboard-response,85,218858,0.0-4.12-1.12,d4ftibxj1kh,2022-09-19 17:34:25.309,5f42167916548e3e557a1e6a,2,100,36,0,0,25,Female,680.099999994,,"
  <table>
  <tr height=300>
    <td width=300 height=300><img src=""static/images/cards/back_of_black_stars.svg"" width=""175px"" height=""250px""></img></td>
    <td width=300 height=300><img src=""static/images/cards/back_of_black_stars.svg"" width=""175px"" height=""250px""></img></td>
  </tr>
  <tr height=200>
    <td width=300><img src=""static/images/keys/z.svg"" width=""35%"" height=""75%""></img></td>
    <td width=300><img src=""static/images/keys/m.svg"" width=""35%"" height=""75%""></img></td>
  </tr>
</table>
  ",90.0,1.0,,,,,,,,,,,,,,,,,,,,,,,,,,
86,0,,html-keyboard-response,86,220360,0.0-4.12-2.12,d4ftibxj1kh,2022-09-19 17:34:25.309,5f42167916548e3e557a1e6a,2,100,36,0,0,25,Female,,,"
  <table>
  <tr height=300>
    <td width=300 height=300><img src=""static/images/cards/4_of_black_stars.svg"" width=""175px"" height=""250px""></img></td>
    <td width=300 height=300><img src=""static/images/cards/back_of_black_stars.svg"" width=""175px"" height=""250px""></img></td>
  </tr>
  <tr height=200>
    <td width=300><img src=""static/images/keys/z.svg"" width=""35%"" height=""75%""></img></td>
    <td width=300><img src=""static/images/keys/m.svg"" width=""35%"" height=""75%""></img></td>
  </tr>
</table>
  ",,,,,,,,,,,,,,,,,,,,,,,,,,,,
87,0,,html-keyboard-response,87,221864,0.0-4.12-3.12,d4ftibxj1kh,2022-09-19 17:34:25.309,5f42167916548e3e557a1e6a,2,100,36,0,0,25,Female,,,"<p style=""font-size:50px"">You Lose!
No points this round.</p>",,,,,,,,,,,,,,,,,,,,,,,,,,,,
88,0,,html-keyboard-response,88,222371,0.0-4.12-4.12,d4ftibxj1kh,2022-09-19 17:34:25.309,5f42167916548e3e557a1e6a,2,100,36,0,0,25,Female,,,,,,1.0,learning,12.0,A,,black,,stars,,,,A,black,stars,,1.0,1.0,NA,left,680.099999994,4.0,0.0,0.0,,,
89,0,,html-keyboard-response,89,223872,0.0-4.13-0.13,d4ftibxj1kh,2022-09-19 17:34:25.309,5f42167916548e3e557a1e6a,2,100,36,0,0,25,Female,,,"<img src=""static/images/cards/stack_of_red_stars.svg"" width=""175px"" height=""250px""></img>",,,,,,,,,,,,,,,,,,,,,,,,,,,,
90,0,,html-keyboard-response,90,225027,0.0-4.13-1.13,d4ftibxj1kh,2022-09-19 17:34:25.309,5f42167916548e3e557a1e6a,2,100,36,0,0,25,Female,652.400000006,,"
  <table>
  <tr height=300>
    <td width=300 height=300><img src=""static/images/cards/back_of_red_stars.svg"" width=""175px"" height=""250px""></img></td>
    <td width=300 height=300><img src=""static/images/cards/back_of_red_stars.svg"" width=""175px"" height=""250px""></img></td>
  </tr>
  <tr height=200>
    <td width=300><img src=""static/images/keys/z.svg"" width=""35%"" height=""75%""></img></td>
    <td width=300></td>
  </tr>
</table>
  ",90.0,1.0,,,,,,,,,,,,,,,,,,,,,,,,,,
91,0,,html-keyboard-response,91,226527,0.0-4.13-2.13,d4ftibxj1kh,2022-09-19 17:34:25.309,5f42167916548e3e557a1e6a,2,100,36,0,0,25,Female,,,"
  <table>
  <tr height=300>
    <td width=300 height=300><img src=""static/images/cards/7_of_red_stars.svg"" width=""175px"" height=""250px""></img></td>
    <td width=300 height=300><img src=""static/images/cards/back_of_red_stars.svg"" width=""175px"" height=""250px""></img></td>
  </tr>
  <tr height=200>
    <td width=300><img src=""static/images/keys/z.svg"" width=""35%"" height=""75%""></img></td>
    <td width=300></td>
  </tr>
</table>
  ",,,,,,,,,,,,,,,,,,,,,,,,,,,,
92,0,,html-keyboard-response,92,228030,0.0-4.13-3.13,d4ftibxj1kh,2022-09-19 17:34:25.309,5f42167916548e3e557a1e6a,2,100,36,0,0,25,Female,,,"<p style=""font-size:50px"">You win!
+10 points this round!</p>",,,,,,,,,,,,,,,,,,,,,,,,,,,,
93,0,,html-keyboard-response,93,228536,0.0-4.13-4.13,d4ftibxj1kh,2022-09-19 17:34:25.309,5f42167916548e3e557a1e6a,2,100,36,0,0,25,Female,,,,,,1.0,learning,13.0,B,,red,,stars,,,,B,red,stars,,0.0,1.0,1,left,652.400000006,7.0,1.0,1.0,,,
94,0,,html-keyboard-response,94,230037,0.0-4.14-0.14,d4ftibxj1kh,2022-09-19 17:34:25.309,5f42167916548e3e557a1e6a,2,100,36,0,0,25,Female,,,"<img src=""static/images/cards/stack_of_black_moons.svg"" width=""175px"" height=""250px""></img>",,,,,,,,,,,,,,,,,,,,,,,,,,,,
95,0,,html-keyboard-response,95,230906,0.0-4.14-1.14,d4ftibxj1kh,2022-09-19 17:34:25.309,5f42167916548e3e557a1e6a,2,100,36,0,0,25,Female,366.3000000119,,"
  <table>
  <tr height=300>
    <td width=300 height=300><img src=""static/images/cards/back_of_black_moons.svg"" width=""175px"" height=""250px""></img></td>
    <td width=300 height=300><img src=""static/images/cards/back_of_black_moons.svg"" width=""175px"" height=""250px""></img></td>
  </tr>
  <tr height=200>
    <td width=300><img src=""static/images/keys/z.svg"" width=""35%"" height=""75%""></img></td>
    <td width=300><img src=""static/images/keys/m.svg"" width=""35%"" height=""75%""></img></td>
  </tr>
</table>
  ",77.0,1.0,,,,,,,,,,,,,,,,,,,,,,,,,,
96,0,,html-keyboard-response,96,232408,0.0-4.14-2.14,d4ftibxj1kh,2022-09-19 17:34:25.309,5f42167916548e3e557a1e6a,2,100,36,0,0,25,Female,,,"
  <table>
  <tr height=300>
    <td width=300 height=300><img src=""static/images/cards/back_of_black_moons.svg"" width=""175px"" height=""250px""></img></td>
    <td width=300 height=300><img src=""static/images/cards/3_of_black_moons.svg"" width=""175px"" height=""250px""></img></td>
  </tr>
  <tr height=200>
    <td width=300><img src=""static/images/keys/z.svg"" width=""35%"" height=""75%""></img></td>
    <td width=300><img src=""static/images/keys/m.svg"" width=""35%"" height=""75%""></img></td>
  </tr>
</table>
  ",,,,,,,,,,,,,,,,,,,,,,,,,,,,
97,0,,html-keyboard-response,97,233910,0.0-4.14-3.14,d4ftibxj1kh,2022-09-19 17:34:25.309,5f42167916548e3e557a1e6a,2,100,36,0,0,25,Female,,,"<p style=""font-size:50px"">You Lose!
No points this round.</p>",,,,,,,,,,,,,,,,,,,,,,,,,,,,
98,0,,html-keyboard-response,98,234416,0.0-4.14-4.14,d4ftibxj1kh,2022-09-19 17:34:25.309,5f42167916548e3e557a1e6a,2,100,36,0,0,25,Female,,,,,,1.0,learning,14.0,C,,black,,moons,,,,C,black,moons,,1.0,0.0,NA,right,366.3000000119,3.0,0.0,0.0,,,
99,0,,html-keyboard-response,99,235917,0.0-4.15-0.15,d4ftibxj1kh,2022-09-19 17:34:25.309,5f42167916548e3e557a1e6a,2,100,36,0,0,25,Female,,,"<img src=""static/images/cards/stack_of_red_moons.svg"" width=""175px"" height=""250px""></img>",,,,,,,,,,,,,,,,,,,,,,,,,,,,
100,0,,html-keyboard-response,100,237002,0.0-4.15-1.15,d4ftibxj1kh,2022-09-19 17:34:25.309,5f42167916548e3e557a1e6a,2,100,36,0,0,25,Female,582.8000000119,,"
  <table>
  <tr height=300>
    <td width=300 height=300><img src=""static/images/cards/back_of_red_moons.svg"" width=""175px"" height=""250px""></img></td>
    <td width=300 height=300><img src=""static/images/cards/back_of_red_moons.svg"" width=""175px"" height=""250px""></img></td>
  </tr>
  <tr height=200>
    <td width=300><img src=""static/images/keys/z.svg"" width=""35%"" height=""75%""></img></td>
    <td width=300></td>
  </tr>
</table>
  ",90.0,1.0,,,,,,,,,,,,,,,,,,,,,,,,,,
101,0,,html-keyboard-response,101,238504,0.0-4.15-2.15,d4ftibxj1kh,2022-09-19 17:34:25.309,5f42167916548e3e557a1e6a,2,100,36,0,0,25,Female,,,"
  <table>
  <tr height=300>
    <td width=300 height=300><img src=""static/images/cards/7_of_red_moons.svg"" width=""175px"" height=""250px""></img></td>
    <td width=300 height=300><img src=""static/images/cards/back_of_red_moons.svg"" width=""175px"" height=""250px""></img></td>
  </tr>
  <tr height=200>
    <td width=300><img src=""static/images/keys/z.svg"" width=""35%"" height=""75%""></img></td>
    <td width=300></td>
  </tr>
</table>
  ",,,,,,,,,,,,,,,,,,,,,,,,,,,,
102,0,,html-keyboard-response,102,240006,0.0-4.15-3.15,d4ftibxj1kh,2022-09-19 17:34:25.309,5f42167916548e3e557a1e6a,2,100,36,0,0,25,Female,,,"<p style=""font-size:50px"">You Lose!
No points this round.</p>",,,,,,,,,,,,,,,,,,,,,,,,,,,,
103,0,,html-keyboard-response,103,240512,0.0-4.15-4.15,d4ftibxj1kh,2022-09-19 17:34:25.309,5f42167916548e3e557a1e6a,2,100,36,0,0,25,Female,,,,,,1.0,learning,15.0,D,,red,,moons,,,,D,red,moons,,0.0,0.0,1,left,582.8000000119,7.0,1.0,0.0,,,
104,0,,html-keyboard-response,104,242014,0.0-4.16-0.16,d4ftibxj1kh,2022-09-19 17:34:25.309,5f42167916548e3e557a1e6a,2,100,36,0,0,25,Female,,,"<img src=""static/images/cards/stack_of_red_bolts.svg"" width=""175px"" height=""250px""></img>",,,,,,,,,,,,,,,,,,,,,,,,,,,,
105,0,,html-keyboard-response,105,243076,0.0-4.16-1.16,d4ftibxj1kh,2022-09-19 17:34:25.309,5f42167916548e3e557a1e6a,2,100,36,0,0,25,Female,559.2999999821,,"
  <table>
  <tr height=300>
    <td width=300 height=300><img src=""static/images/cards/back_of_red_bolts.svg"" width=""175px"" height=""250px""></img></td>
    <td width=300 height=300><img src=""static/images/cards/back_of_red_bolts.svg"" width=""175px"" height=""250px""></img></td>
  </tr>
  <tr height=200>
    <td width=300><img src=""static/images/keys/z.svg"" width=""35%"" height=""75%""></img></td>
    <td width=300><img src=""static/images/keys/m.svg"" width=""35%"" height=""75%""></img></td>
  </tr>
</table>
  ",90.0,1.0,,,,,,,,,,,,,,,,,,,,,,,,,,
106,0,,html-keyboard-response,106,244578,0.0-4.16-2.16,d4ftibxj1kh,2022-09-19 17:34:25.309,5f42167916548e3e557a1e6a,2,100,36,0,0,25,Female,,,"
  <table>
  <tr height=300>
    <td width=300 height=300><img src=""static/images/cards/1_of_red_bolts.svg"" width=""175px"" height=""250px""></img></td>
    <td width=300 height=300><img src=""static/images/cards/back_of_red_bolts.svg"" width=""175px"" height=""250px""></img></td>
  </tr>
  <tr height=200>
    <td width=300><img src=""static/images/keys/z.svg"" width=""35%"" height=""75%""></img></td>
    <td width=300><img src=""static/images/keys/m.svg"" width=""35%"" height=""75%""></img></td>
  </tr>
</table>
  ",,,,,,,,,,,,,,,,,,,,,,,,,,,,
107,0,,html-keyboard-response,107,246081,0.0-4.16-3.16,d4ftibxj1kh,2022-09-19 17:34:25.309,5f42167916548e3e557a1e6a,2,100,36,0,0,25,Female,,,"<p style=""font-size:50px"">You win!
+10 points this round!</p>",,,,,,,,,,,,,,,,,,,,,,,,,,,,
108,0,,html-keyboard-response,108,246586,0.0-4.16-4.16,d4ftibxj1kh,2022-09-19 17:34:25.309,5f42167916548e3e557a1e6a,2,100,36,0,0,25,Female,,,,,,1.0,learning,16.0,Xc,,red,,bolts,,,,Xc,red,bolts,,1.0,0.0,NA,left,559.2999999821,1.0,0.0,1.0,,,
109,0,,html-keyboard-response,109,248087,0.0-4.17-0.17,d4ftibxj1kh,2022-09-19 17:34:25.309,5f42167916548e3e557a1e6a,2,100,36,0,0,25,Female,,,"<img src=""static/images/cards/stack_of_black_bolts.svg"" width=""175px"" height=""250px""></img>",,,,,,,,,,,,,,,,,,,,,,,,,,,,
110,0,,html-keyboard-response,110,249050,0.0-4.17-1.17,d4ftibxj1kh,2022-09-19 17:34:25.309,5f42167916548e3e557a1e6a,2,100,36,0,0,25,Female,461.5,,"
  <table>
  <tr height=300>
    <td width=300 height=300><img src=""static/images/cards/back_of_black_bolts.svg"" width=""175px"" height=""250px""></img></td>
    <td width=300 height=300><img src=""static/images/cards/back_of_black_bolts.svg"" width=""175px"" height=""250px""></img></td>
  </tr>
  <tr height=200>
    <td width=300></td>
    <td width=300><img src=""static/images/keys/m.svg"" width=""35%"" height=""75%""></img></td>
  </tr>
</table>
  ",77.0,1.0,,,,,,,,,,,,,,,,,,,,,,,,,,
111,0,,html-keyboard-response,111,250551,0.0-4.17-2.17,d4ftibxj1kh,2022-09-19 17:34:25.309,5f42167916548e3e557a1e6a,2,100,36,0,0,25,Female,,,"
  <table>
  <tr height=300>
    <td width=300 height=300><img src=""static/images/cards/back_of_black_bolts.svg"" width=""175px"" height=""250px""></img></td>
    <td width=300 height=300><img src=""static/images/cards/6_of_black_bolts.svg"" width=""175px"" height=""250px""></img></td>
  </tr>
  <tr height=200>
    <td width=300></td>
    <td width=300><img src=""static/images/keys/m.svg"" width=""35%"" height=""75%""></img></td>
  </tr>
</table>
  ",,,,,,,,,,,,,,,,,,,,,,,,,,,,
112,0,,html-keyboard-response,112,252053,0.0-4.17-3.17,d4ftibxj1kh,2022-09-19 17:34:25.309,5f42167916548e3e557a1e6a,2,100,36,0,0,25,Female,,,"<p style=""font-size:50px"">You win!
+10 points this round!</p>",,,,,,,,,,,,,,,,,,,,,,,,,,,,
113,0,,html-keyboard-response,113,252559,0.0-4.17-4.17,d4ftibxj1kh,2022-09-19 17:34:25.309,5f42167916548e3e557a1e6a,2,100,36,0,0,25,Female,,,,,,1.0,learning,17.0,Xnc,,black,,bolts,,,,Xnc,black,bolts,,0.0,0.0,0,right,461.5,6.0,1.0,1.0,,,
114,0,,html-keyboard-response,114,254060,0.0-4.18-0.18,d4ftibxj1kh,2022-09-19 17:34:25.309,5f42167916548e3e557a1e6a,2,100,36,0,0,25,Female,,,"<img src=""static/images/cards/stack_of_black_stars.svg"" width=""175px"" height=""250px""></img>",,,,,,,,,,,,,,,,,,,,,,,,,,,,
115,0,,html-keyboard-response,115,255050,0.0-4.18-1.18,d4ftibxj1kh,2022-09-19 17:34:25.309,5f42167916548e3e557a1e6a,2,100,36,0,0,25,Female,488.5,,"
  <table>
  <tr height=300>
    <td width=300 height=300><img src=""static/images/cards/back_of_black_stars.svg"" width=""175px"" height=""250px""></img></td>
    <td width=300 height=300><img src=""static/images/cards/back_of_black_stars.svg"" width=""175px"" height=""250px""></img></td>
  </tr>
  <tr height=200>
    <td width=300><img src=""static/images/keys/z.svg"" width=""35%"" height=""75%""></img></td>
    <td width=300><img src=""static/images/keys/m.svg"" width=""35%"" height=""75%""></img></td>
  </tr>
</table>
  ",90.0,1.0,,,,,,,,,,,,,,,,,,,,,,,,,,
116,0,,html-keyboard-response,116,256552,0.0-4.18-2.18,d4ftibxj1kh,2022-09-19 17:34:25.309,5f42167916548e3e557a1e6a,2,100,36,0,0,25,Female,,,"
  <table>
  <tr height=300>
    <td width=300 height=300><img src=""static/images/cards/6_of_black_stars.svg"" width=""175px"" height=""250px""></img></td>
    <td width=300 height=300><img src=""static/images/cards/back_of_black_stars.svg"" width=""175px"" height=""250px""></img></td>
  </tr>
  <tr height=200>
    <td width=300><img src=""static/images/keys/z.svg"" width=""35%"" height=""75%""></img></td>
    <td width=300><img src=""static/images/keys/m.svg"" width=""35%"" height=""75%""></img></td>
  </tr>
</table>
  ",,,,,,,,,,,,,,,,,,,,,,,,,,,,
117,0,,html-keyboard-response,117,258055,0.0-4.18-3.18,d4ftibxj1kh,2022-09-19 17:34:25.309,5f42167916548e3e557a1e6a,2,100,36,0,0,25,Female,,,"<p style=""font-size:50px"">You win!
+10 points this round!</p>",,,,,,,,,,,,,,,,,,,,,,,,,,,,
118,0,,html-keyboard-response,118,258560,0.0-4.18-4.18,d4ftibxj1kh,2022-09-19 17:34:25.309,5f42167916548e3e557a1e6a,2,100,36,0,0,25,Female,,,,,,1.0,learning,18.0,A,,black,,stars,,,,A,black,stars,,1.0,1.0,NA,left,488.5,6.0,1.0,1.0,,,
119,0,,html-keyboard-response,119,260062,0.0-4.19-0.19,d4ftibxj1kh,2022-09-19 17:34:25.309,5f42167916548e3e557a1e6a,2,100,36,0,0,25,Female,,,"<img src=""static/images/cards/stack_of_red_stars.svg"" width=""175px"" height=""250px""></img>",,,,,,,,,,,,,,,,,,,,,,,,,,,,
120,0,,html-keyboard-response,120,260994,0.0-4.19-1.19,d4ftibxj1kh,2022-09-19 17:34:25.309,5f42167916548e3e557a1e6a,2,100,36,0,0,25,Female,430.6999999881,,"
  <table>
  <tr height=300>
    <td width=300 height=300><img src=""static/images/cards/back_of_red_stars.svg"" width=""175px"" height=""250px""></img></td>
    <td width=300 height=300><img src=""static/images/cards/back_of_red_stars.svg"" width=""175px"" height=""250px""></img></td>
  </tr>
  <tr height=200>
    <td width=300><img src=""static/images/keys/z.svg"" width=""35%"" height=""75%""></img></td>
    <td width=300></td>
  </tr>
</table>
  ",90.0,1.0,,,,,,,,,,,,,,,,,,,,,,,,,,
121,0,,html-keyboard-response,121,262496,0.0-4.19-2.19,d4ftibxj1kh,2022-09-19 17:34:25.309,5f42167916548e3e557a1e6a,2,100,36,0,0,25,Female,,,"
  <table>
  <tr height=300>
    <td width=300 height=300><img src=""static/images/cards/4_of_red_stars.svg"" width=""175px"" height=""250px""></img></td>
    <td width=300 height=300><img src=""static/images/cards/back_of_red_stars.svg"" width=""175px"" height=""250px""></img></td>
  </tr>
  <tr height=200>
    <td width=300><img src=""static/images/keys/z.svg"" width=""35%"" height=""75%""></img></td>
    <td width=300></td>
  </tr>
</table>
  ",,,,,,,,,,,,,,,,,,,,,,,,,,,,
122,0,,html-keyboard-response,122,263999,0.0-4.19-3.19,d4ftibxj1kh,2022-09-19 17:34:25.309,5f42167916548e3e557a1e6a,2,100,36,0,0,25,Female,,,"<p style=""font-size:50px"">You Lose!
No points this round.</p>",,,,,,,,,,,,,,,,,,,,,,,,,,,,
123,0,,html-keyboard-response,123,264504,0.0-4.19-4.19,d4ftibxj1kh,2022-09-19 17:34:25.309,5f42167916548e3e557a1e6a,2,100,36,0,0,25,Female,,,,,,1.0,learning,19.0,B,,red,,stars,,,,B,red,stars,,0.0,1.0,1,left,430.6999999881,4.0,0.0,0.0,,,
124,0,,html-keyboard-response,124,266006,0.0-4.20-0.20,d4ftibxj1kh,2022-09-19 17:34:25.309,5f42167916548e3e557a1e6a,2,100,36,0,0,25,Female,,,"<img src=""static/images/cards/stack_of_black_moons.svg"" width=""175px"" height=""250px""></img>",,,,,,,,,,,,,,,,,,,,,,,,,,,,
125,0,,html-keyboard-response,125,267002,0.0-4.20-1.20,d4ftibxj1kh,2022-09-19 17:34:25.309,5f42167916548e3e557a1e6a,2,100,36,0,0,25,Female,494.1999999881,,"
  <table>
  <tr height=300>
    <td width=300 height=300><img src=""static/images/cards/back_of_black_moons.svg"" width=""175px"" height=""250px""></img></td>
    <td width=300 height=300><img src=""static/images/cards/back_of_black_moons.svg"" width=""175px"" height=""250px""></img></td>
  </tr>
  <tr height=200>
    <td width=300><img src=""static/images/keys/z.svg"" width=""35%"" height=""75%""></img></td>
    <td width=300><img src=""static/images/keys/m.svg"" width=""35%"" height=""75%""></img></td>
  </tr>
</table>
  ",77.0,1.0,,,,,,,,,,,,,,,,,,,,,,,,,,
126,0,,html-keyboard-response,126,268504,0.0-4.20-2.20,d4ftibxj1kh,2022-09-19 17:34:25.309,5f42167916548e3e557a1e6a,2,100,36,0,0,25,Female,,,"
  <table>
  <tr height=300>
    <td width=300 height=300><img src=""static/images/cards/back_of_black_moons.svg"" width=""175px"" height=""250px""></img></td>
    <td width=300 height=300><img src=""static/images/cards/6_of_black_moons.svg"" width=""175px"" height=""250px""></img></td>
  </tr>
  <tr height=200>
    <td width=300><img src=""static/images/keys/z.svg"" width=""35%"" height=""75%""></img></td>
    <td width=300><img src=""static/images/keys/m.svg"" width=""35%"" height=""75%""></img></td>
  </tr>
</table>
  ",,,,,,,,,,,,,,,,,,,,,,,,,,,,
127,0,,html-keyboard-response,127,270006,0.0-4.20-3.20,d4ftibxj1kh,2022-09-19 17:34:25.309,5f42167916548e3e557a1e6a,2,100,36,0,0,25,Female,,,"<p style=""font-size:50px"">You Lose!
No points this round.</p>",,,,,,,,,,,,,,,,,,,,,,,,,,,,
128,0,,html-keyboard-response,128,270512,0.0-4.20-4.20,d4ftibxj1kh,2022-09-19 17:34:25.309,5f42167916548e3e557a1e6a,2,100,36,0,0,25,Female,,,,,,1.0,learning,20.0,C,,black,,moons,,,,C,black,moons,,1.0,0.0,NA,right,494.1999999881,6.0,1.0,0.0,,,
129,0,,html-keyboard-response,129,272014,0.0-4.21-0.21,d4ftibxj1kh,2022-09-19 17:34:25.309,5f42167916548e3e557a1e6a,2,100,36,0,0,25,Female,,,"<img src=""static/images/cards/stack_of_red_moons.svg"" width=""175px"" height=""250px""></img>",,,,,,,,,,,,,,,,,,,,,,,,,,,,
130,0,,html-keyboard-response,130,272970,0.0-4.21-1.21,d4ftibxj1kh,2022-09-19 17:34:25.309,5f42167916548e3e557a1e6a,2,100,36,0,0,25,Female,455.099999994,,"
  <table>
  <tr height=300>
    <td width=300 height=300><img src=""static/images/cards/back_of_red_moons.svg"" width=""175px"" height=""250px""></img></td>
    <td width=300 height=300><img src=""static/images/cards/back_of_red_moons.svg"" width=""175px"" height=""250px""></img></td>
  </tr>
  <tr height=200>
    <td width=300><img src=""static/images/keys/z.svg"" width=""35%"" height=""75%""></img></td>
    <td width=300></td>
  </tr>
</table>
  ",90.0,1.0,,,,,,,,,,,,,,,,,,,,,,,,,,
131,0,,html-keyboard-response,131,274473,0.0-4.21-2.21,d4ftibxj1kh,2022-09-19 17:34:25.309,5f42167916548e3e557a1e6a,2,100,36,0,0,25,Female,,,"
  <table>
  <tr height=300>
    <td width=300 height=300><img src=""static/images/cards/1_of_red_moons.svg"" width=""175px"" height=""250px""></img></td>
    <td width=300 height=300><img src=""static/images/cards/back_of_red_moons.svg"" width=""175px"" height=""250px""></img></td>
  </tr>
  <tr height=200>
    <td width=300><img src=""static/images/keys/z.svg"" width=""35%"" height=""75%""></img></td>
    <td width=300></td>
  </tr>
</table>
  ",,,,,,,,,,,,,,,,,,,,,,,,,,,,
132,0,,html-keyboard-response,132,275974,0.0-4.21-3.21,d4ftibxj1kh,2022-09-19 17:34:25.309,5f42167916548e3e557a1e6a,2,100,36,0,0,25,Female,,,"<p style=""font-size:50px"">You Lose!
No points this round.</p>",,,,,,,,,,,,,,,,,,,,,,,,,,,,
133,0,,html-keyboard-response,133,276480,0.0-4.21-4.21,d4ftibxj1kh,2022-09-19 17:34:25.309,5f42167916548e3e557a1e6a,2,100,36,0,0,25,Female,,,,,,1.0,learning,21.0,D,,red,,moons,,,,D,red,moons,,0.0,0.0,1,left,455.099999994,1.0,0.0,0.0,,,
134,0,,html-keyboard-response,134,277981,0.0-4.22-0.22,d4ftibxj1kh,2022-09-19 17:34:25.309,5f42167916548e3e557a1e6a,2,100,36,0,0,25,Female,,,"<img src=""static/images/cards/stack_of_red_bolts.svg"" width=""175px"" height=""250px""></img>",,,,,,,,,,,,,,,,,,,,,,,,,,,,
135,0,,html-keyboard-response,135,278850,0.0-4.22-1.22,d4ftibxj1kh,2022-09-19 17:34:25.309,5f42167916548e3e557a1e6a,2,100,36,0,0,25,Female,367.400000006,,"
  <table>
  <tr height=300>
    <td width=300 height=300><img src=""static/images/cards/back_of_red_bolts.svg"" width=""175px"" height=""250px""></img></td>
    <td width=300 height=300><img src=""static/images/cards/back_of_red_bolts.svg"" width=""175px"" height=""250px""></img></td>
  </tr>
  <tr height=200>
    <td width=300><img src=""static/images/keys/z.svg"" width=""35%"" height=""75%""></img></td>
    <td width=300><img src=""static/images/keys/m.svg"" width=""35%"" height=""75%""></img></td>
  </tr>
</table>
  ",90.0,1.0,,,,,,,,,,,,,,,,,,,,,,,,,,
136,0,,html-keyboard-response,136,280353,0.0-4.22-2.22,d4ftibxj1kh,2022-09-19 17:34:25.309,5f42167916548e3e557a1e6a,2,100,36,0,0,25,Female,,,"
  <table>
  <tr height=300>
    <td width=300 height=300><img src=""static/images/cards/2_of_red_bolts.svg"" width=""175px"" height=""250px""></img></td>
    <td width=300 height=300><img src=""static/images/cards/back_of_red_bolts.svg"" width=""175px"" height=""250px""></img></td>
  </tr>
  <tr height=200>
    <td width=300><img src=""static/images/keys/z.svg"" width=""35%"" height=""75%""></img></td>
    <td width=300><img src=""static/images/keys/m.svg"" width=""35%"" height=""75%""></img></td>
  </tr>
</table>
  ",,,,,,,,,,,,,,,,,,,,,,,,,,,,
137,0,,html-keyboard-response,137,281855,0.0-4.22-3.22,d4ftibxj1kh,2022-09-19 17:34:25.309,5f42167916548e3e557a1e6a,2,100,36,0,0,25,Female,,,"<p style=""font-size:50px"">You win!
+10 points this round!</p>",,,,,,,,,,,,,,,,,,,,,,,,,,,,
138,0,,html-keyboard-response,138,282361,0.0-4.22-4.22,d4ftibxj1kh,2022-09-19 17:34:25.309,5f42167916548e3e557a1e6a,2,100,36,0,0,25,Female,,,,,,1.0,learning,22.0,Xc,,red,,bolts,,,,Xc,red,bolts,,1.0,0.0,NA,left,367.400000006,2.0,0.0,1.0,,,
139,0,,html-keyboard-response,139,283862,0.0-4.23-0.23,d4ftibxj1kh,2022-09-19 17:34:25.309,5f42167916548e3e557a1e6a,2,100,36,0,0,25,Female,,,"<img src=""static/images/cards/stack_of_black_bolts.svg"" width=""175px"" height=""250px""></img>",,,,,,,,,,,,,,,,,,,,,,,,,,,,
140,0,,html-keyboard-response,140,285147,0.0-4.23-1.23,d4ftibxj1kh,2022-09-19 17:34:25.309,5f42167916548e3e557a1e6a,2,100,36,0,0,25,Female,782.099999994,,"
  <table>
  <tr height=300>
    <td width=300 height=300><img src=""static/images/cards/back_of_black_bolts.svg"" width=""175px"" height=""250px""></img></td>
    <td width=300 height=300><img src=""static/images/cards/back_of_black_bolts.svg"" width=""175px"" height=""250px""></img></td>
  </tr>
  <tr height=200>
    <td width=300><img src=""static/images/keys/z.svg"" width=""35%"" height=""75%""></img></td>
    <td width=300></td>
  </tr>
</table>
  ",90.0,1.0,,,,,,,,,,,,,,,,,,,,,,,,,,
141,0,,html-keyboard-response,141,286648,0.0-4.23-2.23,d4ftibxj1kh,2022-09-19 17:34:25.309,5f42167916548e3e557a1e6a,2,100,36,0,0,25,Female,,,"
  <table>
  <tr height=300>
    <td width=300 height=300><img src=""static/images/cards/2_of_black_bolts.svg"" width=""175px"" height=""250px""></img></td>
    <td width=300 height=300><img src=""static/images/cards/back_of_black_bolts.svg"" width=""175px"" height=""250px""></img></td>
  </tr>
  <tr height=200>
    <td width=300><img src=""static/images/keys/z.svg"" width=""35%"" height=""75%""></img></td>
    <td width=300></td>
  </tr>
</table>
  ",,,,,,,,,,,,,,,,,,,,,,,,,,,,
142,0,,html-keyboard-response,142,288151,0.0-4.23-3.23,d4ftibxj1kh,2022-09-19 17:34:25.309,5f42167916548e3e557a1e6a,2,100,36,0,0,25,Female,,,"<p style=""font-size:50px"">You win!
+10 points this round!</p>",,,,,,,,,,,,,,,,,,,,,,,,,,,,
143,0,,html-keyboard-response,143,288657,0.0-4.23-4.23,d4ftibxj1kh,2022-09-19 17:34:25.309,5f42167916548e3e557a1e6a,2,100,36,0,0,25,Female,,,,,,1.0,learning,23.0,Xnc,,black,,bolts,,,,Xnc,black,bolts,,0.0,0.0,1,left,782.099999994,2.0,0.0,1.0,,,
144,0,,call-function,144,288662,0.0-5.0,d4ftibxj1kh,2022-09-19 17:34:25.309,5f42167916548e3e557a1e6a,2,100,36,0,0,25,Female,,,,,,,,,,,,,,,,,,,,,,,,,,,,,,,
145,0,,image-keyboard-response,145,310186,0.0-6.0-0.0,d4ftibxj1kh,2022-09-19 17:34:25.309,5f42167916548e3e557a1e6a,2,100,36,0,0,25,Female,21523.8999999762,,static/images/instructions_CB_2/Slide20.png,39.0,,,,,,,,,,,,,,,,,,,,,,,,,,,
146,0,,image-keyboard-response,146,333218,0.0-6.1-0.1,d4ftibxj1kh,2022-09-19 17:34:25.309,5f42167916548e3e557a1e6a,2,100,36,0,0,25,Female,23031.8999999762,,static/images/instructions_CB_2/Slide21.png,39.0,,,,,,,,,,,,,,,,,,,,,,,,,,,
147,0,,image-keyboard-response,147,334938,0.0-6.2-0.2,d4ftibxj1kh,2022-09-19 17:34:25.309,5f42167916548e3e557a1e6a,2,100,36,0,0,25,Female,1719.0,,static/images/instructions_CB_2/Slide22.png,39.0,,,,,,,,,,,,,,,,,,,,,,,,,,,
148,0,,image-keyboard-response,148,355707,0.0-6.3-0.3,d4ftibxj1kh,2022-09-19 17:34:25.309,5f42167916548e3e557a1e6a,2,100,36,0,0,25,Female,20767.8999999762,,static/images/instructions_CB_2/Slide23.png,39.0,,,,,,,,,,,,,,,,,,,,,,,,,,,
149,0,,image-keyboard-response,149,356154,0.0-6.4-0.4,d4ftibxj1kh,2022-09-19 17:34:25.309,5f42167916548e3e557a1e6a,2,100,36,0,0,25,Female,447.0,,static/images/instructions_CB_2/Slide24.png,37.0,,,,,,,,,,,,,,,,,,,,,,,,,,,
150,0,,image-keyboard-response,150,364963,0.0-6.5-0.5,d4ftibxj1kh,2022-09-19 17:34:25.309,5f42167916548e3e557a1e6a,2,100,36,0,0,25,Female,8807.6999999881,,static/images/instructions_CB_2/Slide23.png,39.0,,,,,,,,,,,,,,,,,,,,,,,,,,,
151,0,,image-keyboard-response,151,366595,0.0-6.6-0.6,d4ftibxj1kh,2022-09-19 17:34:25.309,5f42167916548e3e557a1e6a,2,100,36,0,0,25,Female,1631.5,,static/images/instructions_CB_2/Slide24.png,39.0,,,,,,,,,,,,,,,,,,,,,,,,,,,
152,0,,html-keyboard-response,152,369659,0.0-7.0-0.0,d4ftibxj1kh,2022-09-19 17:34:25.309,5f42167916548e3e557a1e6a,2,100,36,0,0,25,Female,3062.8000000119,,"
  <table>
  <tr height=300>
    <td width=300 height=300><img src=""static/images/cards/stack_of_red_moons.svg"" width=""175px"" height=""250px""></img></td>
    <td width=300 height=300><img src=""static/images/cards/stack_of_black_moons.svg"" width=""175px"" height=""250px""></img></td>
  </tr>
  <tr height=200>
    <td width=300><img src=""static/images/keys/w.svg"" width=""35%"" height=""75%""></img></td>
    <td width=300><img src=""static/images/keys/o.svg"" width=""35%"" height=""75%""></img></td>
  </tr>
</table>
  ",79.0,1.0,,,,,,,,,,,,,,,,,,,,,,,,,,
153,0,,html-keyboard-response,153,370811,0.0-7.0-1.0,d4ftibxj1kh,2022-09-19 17:34:25.309,5f42167916548e3e557a1e6a,2,100,36,0,0,25,Female,651.0,,"
  <table>
  <tr height=300>
    <td width=300 height=300><img src=""static/images/cards/back_of_black_moons.svg"" width=""175px"" height=""250px""></img></td>
    <td width=300 height=300><img src=""static/images/cards/back_of_black_moons.svg"" width=""175px"" height=""250px""></img></td>
  </tr>
  <tr height=200>
    <td width=300><img src=""static/images/keys/z.svg"" width=""35%"" height=""75%""></img></td>
    <td width=300><img src=""static/images/keys/m.svg"" width=""35%"" height=""75%""></img></td>
  </tr>
</table>
  ",90.0,1.0,,,,,,,,,,,,,,,,,,,,,,,,,,
154,0,,html-keyboard-response,154,372312,0.0-7.0-2.0,d4ftibxj1kh,2022-09-19 17:34:25.309,5f42167916548e3e557a1e6a,2,100,36,0,0,25,Female,,,"
  <table>
  <tr height=300>
    <td width=300 height=300><img src=""static/images/cards/3_of_black_moons.svg"" width=""175px"" height=""250px""></img></td>
    <td width=300 height=300><img src=""static/images/cards/back_of_black_moons.svg"" width=""175px"" height=""250px""></img></td>
  </tr>
  <tr height=200>
    <td width=300><img src=""static/images/keys/z.svg"" width=""35%"" height=""75%""></img></td>
    <td width=300><img src=""static/images/keys/m.svg"" width=""35%"" height=""75%""></img></td>
  </tr>
</table>
  ",,,,,,,,,,,,,,,,,,,,,,,,,,,,
155,0,,html-keyboard-response,155,373814,0.0-7.0-3.0,d4ftibxj1kh,2022-09-19 17:34:25.309,5f42167916548e3e557a1e6a,2,100,36,0,0,25,Female,,,"<p style=""font-size:50px"">You Lose!
No points this round.</p>",,,,,,,,,,,,,,,,,,,,,,,,,,,,
156,0,,html-keyboard-response,156,374321,0.0-7.0-4.0,d4ftibxj1kh,2022-09-19 17:34:25.309,5f42167916548e3e557a1e6a,2,100,36,0,0,25,Female,,,,,,1.0,choice,0.0,C,D,red,black,moons,moons,D,C,C,black,moons,3062.8000000119,1.0,0.0,NA,left,651.0,3.0,0.0,0.0,,,
157,0,,html-keyboard-response,157,379275,0.0-7.1-0.1,d4ftibxj1kh,2022-09-19 17:34:25.309,5f42167916548e3e557a1e6a,2,100,36,0,0,25,Female,4952.7999999821,,"
  <table>
  <tr height=300>
    <td width=300 height=300><img src=""static/images/cards/stack_of_black_moons.svg"" width=""175px"" height=""250px""></img></td>
    <td width=300 height=300><img src=""static/images/cards/stack_of_black_stars.svg"" width=""175px"" height=""250px""></img></td>
  </tr>
  <tr height=200>
    <td width=300><img src=""static/images/keys/w.svg"" width=""35%"" height=""75%""></img></td>
    <td width=300><img src=""static/images/keys/o.svg"" width=""35%"" height=""75%""></img></td>
  </tr>
</table>
  ",79.0,2.0,,,,,,,,,,,,,,,,,,,,,,,,,,
158,0,,html-keyboard-response,158,381163,0.0-7.1-1.1,d4ftibxj1kh,2022-09-19 17:34:25.309,5f42167916548e3e557a1e6a,2,100,36,0,0,25,Female,1386.400000006,,"
  <table>
  <tr height=300>
    <td width=300 height=300><img src=""static/images/cards/back_of_black_stars.svg"" width=""175px"" height=""250px""></img></td>
    <td width=300 height=300><img src=""static/images/cards/back_of_black_stars.svg"" width=""175px"" height=""250px""></img></td>
  </tr>
  <tr height=200>
    <td width=300><img src=""static/images/keys/z.svg"" width=""35%"" height=""75%""></img></td>
    <td width=300><img src=""static/images/keys/m.svg"" width=""35%"" height=""75%""></img></td>
  </tr>
</table>
  ",90.0,1.0,,,,,,,,,,,,,,,,,,,,,,,,,,
159,0,,html-keyboard-response,159,382665,0.0-7.1-2.1,d4ftibxj1kh,2022-09-19 17:34:25.309,5f42167916548e3e557a1e6a,2,100,36,0,0,25,Female,,,"
  <table>
  <tr height=300>
    <td width=300 height=300><img src=""static/images/cards/3_of_black_stars.svg"" width=""175px"" height=""250px""></img></td>
    <td width=300 height=300><img src=""static/images/cards/back_of_black_stars.svg"" width=""175px"" height=""250px""></img></td>
  </tr>
  <tr height=200>
    <td width=300><img src=""static/images/keys/z.svg"" width=""35%"" height=""75%""></img></td>
    <td width=300><img src=""static/images/keys/m.svg"" width=""35%"" height=""75%""></img></td>
  </tr>
</table>
  ",,,,,,,,,,,,,,,,,,,,,,,,,,,,
160,0,,html-keyboard-response,160,384167,0.0-7.1-3.1,d4ftibxj1kh,2022-09-19 17:34:25.309,5f42167916548e3e557a1e6a,2,100,36,0,0,25,Female,,,"<p style=""font-size:50px"">You Lose!
No points this round.</p>",,,,,,,,,,,,,,,,,,,,,,,,,,,,
161,0,,html-keyboard-response,161,384673,0.0-7.1-4.1,d4ftibxj1kh,2022-09-19 17:34:25.309,5f42167916548e3e557a1e6a,2,100,36,0,0,25,Female,,,,,,1.0,choice,1.0,A,C,black,black,moons,stars,C,A,A,black,stars,4952.7999999821,1.0,1.0,NA,left,1386.400000006,3.0,0.0,0.0,,,
162,0,,html-keyboard-response,162,386211,0.0-7.2-0.2,d4ftibxj1kh,2022-09-19 17:34:25.309,5f42167916548e3e557a1e6a,2,100,36,0,0,25,Female,1537.0,,"
  <table>
  <tr height=300>
    <td width=300 height=300><img src=""static/images/cards/stack_of_black_stars.svg"" width=""175px"" height=""250px""></img></td>
    <td width=300 height=300><img src=""static/images/cards/stack_of_red_moons.svg"" width=""175px"" height=""250px""></img></td>
  </tr>
  <tr height=200>
    <td width=300><img src=""static/images/keys/w.svg"" width=""35%"" height=""75%""></img></td>
    <td width=300><img src=""static/images/keys/o.svg"" width=""35%"" height=""75%""></img></td>
  </tr>
</table>
  ",79.0,1.0,,,,,,,,,,,,,,,,,,,,,,,,,,
163,0,,html-keyboard-response,163,387171,0.0-7.2-1.2,d4ftibxj1kh,2022-09-19 17:34:25.309,5f42167916548e3e557a1e6a,2,100,36,0,0,25,Female,457.7000000179,,"
  <table>
  <tr height=300>
    <td width=300 height=300><img src=""static/images/cards/back_of_red_moons.svg"" width=""175px"" height=""250px""></img></td>
    <td width=300 height=300><img src=""static/images/cards/back_of_red_moons.svg"" width=""175px"" height=""250px""></img></td>
  </tr>
  <tr height=200>
    <td width=300><img src=""static/images/keys/z.svg"" width=""35%"" height=""75%""></img></td>
    <td width=300></td>
  </tr>
</table>
  ",90.0,1.0,,,,,,,,,,,,,,,,,,,,,,,,,,
164,0,,html-keyboard-response,164,388672,0.0-7.2-2.2,d4ftibxj1kh,2022-09-19 17:34:25.309,5f42167916548e3e557a1e6a,2,100,36,0,0,25,Female,,,"
  <table>
  <tr height=300>
    <td width=300 height=300><img src=""static/images/cards/9_of_red_moons.svg"" width=""175px"" height=""250px""></img></td>
    <td width=300 height=300><img src=""static/images/cards/back_of_red_moons.svg"" width=""175px"" height=""250px""></img></td>
  </tr>
  <tr height=200>
    <td width=300><img src=""static/images/keys/z.svg"" width=""35%"" height=""75%""></img></td>
    <td width=300></td>
  </tr>
</table>
  ",,,,,,,,,,,,,,,,,,,,,,,,,,,,
165,0,,html-keyboard-response,165,390175,0.0-7.2-3.2,d4ftibxj1kh,2022-09-19 17:34:25.309,5f42167916548e3e557a1e6a,2,100,36,0,0,25,Female,,,"<p style=""font-size:50px"">You Lose!
No points this round.</p>",,,,,,,,,,,,,,,,,,,,,,,,,,,,
166,0,,html-keyboard-response,166,390681,0.0-7.2-4.2,d4ftibxj1kh,2022-09-19 17:34:25.309,5f42167916548e3e557a1e6a,2,100,36,0,0,25,Female,,,,,,1.0,choice,2.0,A,D,black,red,stars,moons,A,D,D,red,moons,1537.0,0.0,0.0,1,left,457.7000000179,9.0,1.0,0.0,,,
167,0,,html-keyboard-response,167,392179,0.0-7.3-0.3,d4ftibxj1kh,2022-09-19 17:34:25.309,5f42167916548e3e557a1e6a,2,100,36,0,0,25,Female,1496.599999994,,"
  <table>
  <tr height=300>
    <td width=300 height=300><img src=""static/images/cards/stack_of_red_moons.svg"" width=""175px"" height=""250px""></img></td>
    <td width=300 height=300><img src=""static/images/cards/stack_of_black_bolts.svg"" width=""175px"" height=""250px""></img></td>
  </tr>
  <tr height=200>
    <td width=300><img src=""static/images/keys/w.svg"" width=""35%"" height=""75%""></img></td>
    <td width=300><img src=""static/images/keys/o.svg"" width=""35%"" height=""75%""></img></td>
  </tr>
</table>
  ",79.0,1.0,,,,,,,,,,,,,,,,,,,,,,,,,,
168,0,,html-keyboard-response,168,394099,0.0-7.3-1.3,d4ftibxj1kh,2022-09-19 17:34:25.309,5f42167916548e3e557a1e6a,2,100,36,0,0,25,Female,1418.7999999821,,"
  <table>
  <tr height=300>
    <td width=300 height=300><img src=""static/images/cards/back_of_black_bolts.svg"" width=""175px"" height=""250px""></img></td>
    <td width=300 height=300><img src=""static/images/cards/back_of_black_bolts.svg"" width=""175px"" height=""250px""></img></td>
  </tr>
  <tr height=200>
    <td width=300></td>
    <td width=300><img src=""static/images/keys/m.svg"" width=""35%"" height=""75%""></img></td>
  </tr>
</table>
  ",77.0,2.0,,,,,,,,,,,,,,,,,,,,,,,,,,
169,0,,html-keyboard-response,169,395600,0.0-7.3-2.3,d4ftibxj1kh,2022-09-19 17:34:25.309,5f42167916548e3e557a1e6a,2,100,36,0,0,25,Female,,,"
  <table>
  <tr height=300>
    <td width=300 height=300><img src=""static/images/cards/back_of_black_bolts.svg"" width=""175px"" height=""250px""></img></td>
    <td width=300 height=300><img src=""static/images/cards/10_of_black_bolts.svg"" width=""175px"" height=""250px""></img></td>
  </tr>
  <tr height=200>
    <td width=300></td>
    <td width=300><img src=""static/images/keys/m.svg"" width=""35%"" height=""75%""></img></td>
  </tr>
</table>
  ",,,,,,,,,,,,,,,,,,,,,,,,,,,,
170,0,,html-keyboard-response,170,397103,0.0-7.3-3.3,d4ftibxj1kh,2022-09-19 17:34:25.309,5f42167916548e3e557a1e6a,2,100,36,0,0,25,Female,,,"<p style=""font-size:50px"">You win!
+10 points this round!</p>",,,,,,,,,,,,,,,,,,,,,,,,,,,,
171,0,,html-keyboard-response,171,397609,0.0-7.3-4.3,d4ftibxj1kh,2022-09-19 17:34:25.309,5f42167916548e3e557a1e6a,2,100,36,0,0,25,Female,,,,,,1.0,choice,3.0,D,Xnc,red,black,moons,bolts,D,Xnc,Xnc,black,bolts,1496.599999994,0.0,0.0,0,right,1418.7999999821,10.0,1.0,1.0,,,
172,0,,html-keyboard-response,172,399690,0.0-7.4-0.4,d4ftibxj1kh,2022-09-19 17:34:25.309,5f42167916548e3e557a1e6a,2,100,36,0,0,25,Female,2081.1999999881,,"
  <table>
  <tr height=300>
    <td width=300 height=300><img src=""static/images/cards/stack_of_red_stars.svg"" width=""175px"" height=""250px""></img></td>
    <td width=300 height=300><img src=""static/images/cards/stack_of_black_stars.svg"" width=""175px"" height=""250px""></img></td>
  </tr>
  <tr height=200>
    <td width=300><img src=""static/images/keys/w.svg"" width=""35%"" height=""75%""></img></td>
    <td width=300><img src=""static/images/keys/o.svg"" width=""35%"" height=""75%""></img></td>
  </tr>
</table>
  ",79.0,1.0,,,,,,,,,,,,,,,,,,,,,,,,,,
173,0,,html-keyboard-response,173,400706,0.0-7.4-1.4,d4ftibxj1kh,2022-09-19 17:34:25.309,5f42167916548e3e557a1e6a,2,100,36,0,0,25,Female,514.0,,"
  <table>
  <tr height=300>
    <td width=300 height=300><img src=""static/images/cards/back_of_black_stars.svg"" width=""175px"" height=""250px""></img></td>
    <td width=300 height=300><img src=""static/images/cards/back_of_black_stars.svg"" width=""175px"" height=""250px""></img></td>
  </tr>
  <tr height=200>
    <td width=300><img src=""static/images/keys/z.svg"" width=""35%"" height=""75%""></img></td>
    <td width=300><img src=""static/images/keys/m.svg"" width=""35%"" height=""75%""></img></td>
  </tr>
</table>
  ",77.0,1.0,,,,,,,,,,,,,,,,,,,,,,,,,,
174,0,,html-keyboard-response,174,402208,0.0-7.4-2.4,d4ftibxj1kh,2022-09-19 17:34:25.309,5f42167916548e3e557a1e6a,2,100,36,0,0,25,Female,,,"
  <table>
  <tr height=300>
    <td width=300 height=300><img src=""static/images/cards/back_of_black_stars.svg"" width=""175px"" height=""250px""></img></td>
    <td width=300 height=300><img src=""static/images/cards/9_of_black_stars.svg"" width=""175px"" height=""250px""></img></td>
  </tr>
  <tr height=200>
    <td width=300><img src=""static/images/keys/z.svg"" width=""35%"" height=""75%""></img></td>
    <td width=300><img src=""static/images/keys/m.svg"" width=""35%"" height=""75%""></img></td>
  </tr>
</table>
  ",,,,,,,,,,,,,,,,,,,,,,,,,,,,
175,0,,html-keyboard-response,175,403711,0.0-7.4-3.4,d4ftibxj1kh,2022-09-19 17:34:25.309,5f42167916548e3e557a1e6a,2,100,36,0,0,25,Female,,,"<p style=""font-size:50px"">You win!
+10 points this round!</p>",,,,,,,,,,,,,,,,,,,,,,,,,,,,
176,0,,html-keyboard-response,176,404217,0.0-7.4-4.4,d4ftibxj1kh,2022-09-19 17:34:25.309,5f42167916548e3e557a1e6a,2,100,36,0,0,25,Female,,,,,,1.0,choice,4.0,A,B,red,black,stars,stars,B,A,A,black,stars,2081.1999999881,1.0,1.0,NA,right,514.0,9.0,1.0,1.0,,,
177,0,,html-keyboard-response,177,406875,0.0-7.5-0.5,d4ftibxj1kh,2022-09-19 17:34:25.309,5f42167916548e3e557a1e6a,2,100,36,0,0,25,Female,2656.3000000119,,"
  <table>
  <tr height=300>
    <td width=300 height=300><img src=""static/images/cards/stack_of_black_moons.svg"" width=""175px"" height=""250px""></img></td>
    <td width=300 height=300><img src=""static/images/cards/stack_of_black_stars.svg"" width=""175px"" height=""250px""></img></td>
  </tr>
  <tr height=200>
    <td width=300><img src=""static/images/keys/w.svg"" width=""35%"" height=""75%""></img></td>
    <td width=300><img src=""static/images/keys/o.svg"" width=""35%"" height=""75%""></img></td>
  </tr>
</table>
  ",79.0,1.0,,,,,,,,,,,,,,,,,,,,,,,,,,
178,0,,html-keyboard-response,178,408410,0.0-7.5-1.5,d4ftibxj1kh,2022-09-19 17:34:25.309,5f42167916548e3e557a1e6a,2,100,36,0,0,25,Female,1034.400000006,,"
  <table>
  <tr height=300>
    <td width=300 height=300><img src=""static/images/cards/back_of_black_stars.svg"" width=""175px"" height=""250px""></img></td>
    <td width=300 height=300><img src=""static/images/cards/back_of_black_stars.svg"" width=""175px"" height=""250px""></img></td>
  </tr>
  <tr height=200>
    <td width=300><img src=""static/images/keys/z.svg"" width=""35%"" height=""75%""></img></td>
    <td width=300><img src=""static/images/keys/m.svg"" width=""35%"" height=""75%""></img></td>
  </tr>
</table>
  ",77.0,1.0,,,,,,,,,,,,,,,,,,,,,,,,,,
179,0,,html-keyboard-response,179,409912,0.0-7.5-2.5,d4ftibxj1kh,2022-09-19 17:34:25.309,5f42167916548e3e557a1e6a,2,100,36,0,0,25,Female,,,"
  <table>
  <tr height=300>
    <td width=300 height=300><img src=""static/images/cards/back_of_black_stars.svg"" width=""175px"" height=""250px""></img></td>
    <td width=300 height=300><img src=""static/images/cards/3_of_black_stars.svg"" width=""175px"" height=""250px""></img></td>
  </tr>
  <tr height=200>
    <td width=300><img src=""static/images/keys/z.svg"" width=""35%"" height=""75%""></img></td>
    <td width=300><img src=""static/images/keys/m.svg"" width=""35%"" height=""75%""></img></td>
  </tr>
</table>
  ",,,,,,,,,,,,,,,,,,,,,,,,,,,,
180,0,,html-keyboard-response,180,411414,0.0-7.5-3.5,d4ftibxj1kh,2022-09-19 17:34:25.309,5f42167916548e3e557a1e6a,2,100,36,0,0,25,Female,,,"<p style=""font-size:50px"">You Lose!
No points this round.</p>",,,,,,,,,,,,,,,,,,,,,,,,,,,,
181,0,,html-keyboard-response,181,411921,0.0-7.5-4.5,d4ftibxj1kh,2022-09-19 17:34:25.309,5f42167916548e3e557a1e6a,2,100,36,0,0,25,Female,,,,,,1.0,choice,5.0,A,C,black,black,moons,stars,C,A,A,black,stars,2656.3000000119,1.0,1.0,NA,right,1034.400000006,3.0,0.0,0.0,,,
182,0,,html-keyboard-response,182,413514,0.0-7.6-0.6,d4ftibxj1kh,2022-09-19 17:34:25.309,5f42167916548e3e557a1e6a,2,100,36,0,0,25,Female,1592.7000000179,,"
  <table>
  <tr height=300>
    <td width=300 height=300><img src=""static/images/cards/stack_of_black_stars.svg"" width=""175px"" height=""250px""></img></td>
    <td width=300 height=300><img src=""static/images/cards/stack_of_red_stars.svg"" width=""175px"" height=""250px""></img></td>
  </tr>
  <tr height=200>
    <td width=300><img src=""static/images/keys/w.svg"" width=""35%"" height=""75%""></img></td>
    <td width=300><img src=""static/images/keys/o.svg"" width=""35%"" height=""75%""></img></td>
  </tr>
</table>
  ",79.0,1.0,,,,,,,,,,,,,,,,,,,,,,,,,,
183,0,,html-keyboard-response,183,415210,0.0-7.6-1.6,d4ftibxj1kh,2022-09-19 17:34:25.309,5f42167916548e3e557a1e6a,2,100,36,0,0,25,Female,1194.2999999821,,"
  <table>
  <tr height=300>
    <td width=300 height=300><img src=""static/images/cards/back_of_red_stars.svg"" width=""175px"" height=""250px""></img></td>
    <td width=300 height=300><img src=""static/images/cards/back_of_red_stars.svg"" width=""175px"" height=""250px""></img></td>
  </tr>
  <tr height=200>
    <td width=300></td>
    <td width=300><img src=""static/images/keys/m.svg"" width=""35%"" height=""75%""></img></td>
  </tr>
</table>
  ",77.0,1.0,,,,,,,,,,,,,,,,,,,,,,,,,,
184,0,,html-keyboard-response,184,416712,0.0-7.6-2.6,d4ftibxj1kh,2022-09-19 17:34:25.309,5f42167916548e3e557a1e6a,2,100,36,0,0,25,Female,,,"
  <table>
  <tr height=300>
    <td width=300 height=300><img src=""static/images/cards/back_of_red_stars.svg"" width=""175px"" height=""250px""></img></td>
    <td width=300 height=300><img src=""static/images/cards/2_of_red_stars.svg"" width=""175px"" height=""250px""></img></td>
  </tr>
  <tr height=200>
    <td width=300></td>
    <td width=300><img src=""static/images/keys/m.svg"" width=""35%"" height=""75%""></img></td>
  </tr>
</table>
  ",,,,,,,,,,,,,,,,,,,,,,,,,,,,
185,0,,html-keyboard-response,185,418215,0.0-7.6-3.6,d4ftibxj1kh,2022-09-19 17:34:25.309,5f42167916548e3e557a1e6a,2,100,36,0,0,25,Female,,,"<p style=""font-size:50px"">You Lose!
No points this round.</p>",,,,,,,,,,,,,,,,,,,,,,,,,,,,
186,0,,html-keyboard-response,186,418721,0.0-7.6-4.6,d4ftibxj1kh,2022-09-19 17:34:25.309,5f42167916548e3e557a1e6a,2,100,36,0,0,25,Female,,,,,,1.0,choice,6.0,A,B,black,red,stars,stars,A,B,B,red,stars,1592.7000000179,0.0,1.0,0,right,1194.2999999821,2.0,0.0,0.0,,,
187,0,,html-keyboard-response,187,421538,0.0-7.7-0.7,d4ftibxj1kh,2022-09-19 17:34:25.309,5f42167916548e3e557a1e6a,2,100,36,0,0,25,Female,2816.3999999762,,"
  <table>
  <tr height=300>
    <td width=300 height=300><img src=""static/images/cards/stack_of_red_moons.svg"" width=""175px"" height=""250px""></img></td>
    <td width=300 height=300><img src=""static/images/cards/stack_of_red_stars.svg"" width=""175px"" height=""250px""></img></td>
  </tr>
  <tr height=200>
    <td width=300><img src=""static/images/keys/w.svg"" width=""35%"" height=""75%""></img></td>
    <td width=300><img src=""static/images/keys/o.svg"" width=""35%"" height=""75%""></img></td>
  </tr>
</table>
  ",79.0,1.0,,,,,,,,,,,,,,,,,,,,,,,,,,
188,0,,html-keyboard-response,188,422370,0.0-7.7-1.7,d4ftibxj1kh,2022-09-19 17:34:25.309,5f42167916548e3e557a1e6a,2,100,36,0,0,25,Female,329.900000006,,"
  <table>
  <tr height=300>
    <td width=300 height=300><img src=""static/images/cards/back_of_red_stars.svg"" width=""175px"" height=""250px""></img></td>
    <td width=300 height=300><img src=""static/images/cards/back_of_red_stars.svg"" width=""175px"" height=""250px""></img></td>
  </tr>
  <tr height=200>
    <td width=300><img src=""static/images/keys/z.svg"" width=""35%"" height=""75%""></img></td>
    <td width=300></td>
  </tr>
</table>
  ",90.0,1.0,,,,,,,,,,,,,,,,,,,,,,,,,,
189,0,,html-keyboard-response,189,423872,0.0-7.7-2.7,d4ftibxj1kh,2022-09-19 17:34:25.309,5f42167916548e3e557a1e6a,2,100,36,0,0,25,Female,,,"
  <table>
  <tr height=300>
    <td width=300 height=300><img src=""static/images/cards/7_of_red_stars.svg"" width=""175px"" height=""250px""></img></td>
    <td width=300 height=300><img src=""static/images/cards/back_of_red_stars.svg"" width=""175px"" height=""250px""></img></td>
  </tr>
  <tr height=200>
    <td width=300><img src=""static/images/keys/z.svg"" width=""35%"" height=""75%""></img></td>
    <td width=300></td>
  </tr>
</table>
  ",,,,,,,,,,,,,,,,,,,,,,,,,,,,
190,0,,html-keyboard-response,190,425374,0.0-7.7-3.7,d4ftibxj1kh,2022-09-19 17:34:25.309,5f42167916548e3e557a1e6a,2,100,36,0,0,25,Female,,,"<p style=""font-size:50px"">You win!
+10 points this round!</p>",,,,,,,,,,,,,,,,,,,,,,,,,,,,
191,0,,html-keyboard-response,191,425881,0.0-7.7-4.7,d4ftibxj1kh,2022-09-19 17:34:25.309,5f42167916548e3e557a1e6a,2,100,36,0,0,25,Female,,,,,,1.0,choice,7.0,B,D,red,red,moons,stars,D,B,B,red,stars,2816.3999999762,0.0,1.0,1,left,329.900000006,7.0,1.0,1.0,,,
192,0,,html-keyboard-response,192,427570,0.0-7.8-0.8,d4ftibxj1kh,2022-09-19 17:34:25.309,5f42167916548e3e557a1e6a,2,100,36,0,0,25,Female,1688.0,,"
  <table>
  <tr height=300>
    <td width=300 height=300><img src=""static/images/cards/stack_of_black_stars.svg"" width=""175px"" height=""250px""></img></td>
    <td width=300 height=300><img src=""static/images/cards/stack_of_red_stars.svg"" width=""175px"" height=""250px""></img></td>
  </tr>
  <tr height=200>
    <td width=300><img src=""static/images/keys/w.svg"" width=""35%"" height=""75%""></img></td>
    <td width=300><img src=""static/images/keys/o.svg"" width=""35%"" height=""75%""></img></td>
  </tr>
</table>
  ",87.0,1.0,,,,,,,,,,,,,,,,,,,,,,,,,,
193,0,,html-keyboard-response,193,428338,0.0-7.8-1.8,d4ftibxj1kh,2022-09-19 17:34:25.309,5f42167916548e3e557a1e6a,2,100,36,0,0,25,Female,265.3000000119,,"
  <table>
  <tr height=300>
    <td width=300 height=300><img src=""static/images/cards/back_of_black_stars.svg"" width=""175px"" height=""250px""></img></td>
    <td width=300 height=300><img src=""static/images/cards/back_of_black_stars.svg"" width=""175px"" height=""250px""></img></td>
  </tr>
  <tr height=200>
    <td width=300><img src=""static/images/keys/z.svg"" width=""35%"" height=""75%""></img></td>
    <td width=300><img src=""static/images/keys/m.svg"" width=""35%"" height=""75%""></img></td>
  </tr>
</table>
  ",90.0,1.0,,,,,,,,,,,,,,,,,,,,,,,,,,
194,0,,html-keyboard-response,194,429840,0.0-7.8-2.8,d4ftibxj1kh,2022-09-19 17:34:25.309,5f42167916548e3e557a1e6a,2,100,36,0,0,25,Female,,,"
  <table>
  <tr height=300>
    <td width=300 height=300><img src=""static/images/cards/10_of_black_stars.svg"" width=""175px"" height=""250px""></img></td>
    <td width=300 height=300><img src=""static/images/cards/back_of_black_stars.svg"" width=""175px"" height=""250px""></img></td>
  </tr>
  <tr height=200>
    <td width=300><img src=""static/images/keys/z.svg"" width=""35%"" height=""75%""></img></td>
    <td width=300><img src=""static/images/keys/m.svg"" width=""35%"" height=""75%""></img></td>
  </tr>
</table>
  ",,,,,,,,,,,,,,,,,,,,,,,,,,,,
195,0,,html-keyboard-response,195,431341,0.0-7.8-3.8,d4ftibxj1kh,2022-09-19 17:34:25.309,5f42167916548e3e557a1e6a,2,100,36,0,0,25,Female,,,"<p style=""font-size:50px"">You win!
+10 points this round!</p>",,,,,,,,,,,,,,,,,,,,,,,,,,,,
196,0,,html-keyboard-response,196,431848,0.0-7.8-4.8,d4ftibxj1kh,2022-09-19 17:34:25.309,5f42167916548e3e557a1e6a,2,100,36,0,0,25,Female,,,,,,1.0,choice,8.0,A,B,black,red,stars,stars,A,B,A,black,stars,1688.0,1.0,1.0,NA,left,265.3000000119,10.0,1.0,1.0,,,
197,0,,html-keyboard-response,197,433322,0.0-7.9-0.9,d4ftibxj1kh,2022-09-19 17:34:25.309,5f42167916548e3e557a1e6a,2,100,36,0,0,25,Female,1473.5,,"
  <table>
  <tr height=300>
    <td width=300 height=300><img src=""static/images/cards/stack_of_red_stars.svg"" width=""175px"" height=""250px""></img></td>
    <td width=300 height=300><img src=""static/images/cards/stack_of_red_bolts.svg"" width=""175px"" height=""250px""></img></td>
  </tr>
  <tr height=200>
    <td width=300><img src=""static/images/keys/w.svg"" width=""35%"" height=""75%""></img></td>
    <td width=300><img src=""static/images/keys/o.svg"" width=""35%"" height=""75%""></img></td>
  </tr>
</table>
  ",79.0,1.0,,,,,,,,,,,,,,,,,,,,,,,,,,
198,0,,html-keyboard-response,198,434186,0.0-7.9-1.9,d4ftibxj1kh,2022-09-19 17:34:25.309,5f42167916548e3e557a1e6a,2,100,36,0,0,25,Female,362.3000000119,,"
  <table>
  <tr height=300>
    <td width=300 height=300><img src=""static/images/cards/back_of_red_bolts.svg"" width=""175px"" height=""250px""></img></td>
    <td width=300 height=300><img src=""static/images/cards/back_of_red_bolts.svg"" width=""175px"" height=""250px""></img></td>
  </tr>
  <tr height=200>
    <td width=300><img src=""static/images/keys/z.svg"" width=""35%"" height=""75%""></img></td>
    <td width=300><img src=""static/images/keys/m.svg"" width=""35%"" height=""75%""></img></td>
  </tr>
</table>
  ",90.0,1.0,,,,,,,,,,,,,,,,,,,,,,,,,,
199,0,,html-keyboard-response,199,435687,0.0-7.9-2.9,d4ftibxj1kh,2022-09-19 17:34:25.309,5f42167916548e3e557a1e6a,2,100,36,0,0,25,Female,,,"
  <table>
  <tr height=300>
    <td width=300 height=300><img src=""static/images/cards/9_of_red_bolts.svg"" width=""175px"" height=""250px""></img></td>
    <td width=300 height=300><img src=""static/images/cards/back_of_red_bolts.svg"" width=""175px"" height=""250px""></img></td>
  </tr>
  <tr height=200>
    <td width=300><img src=""static/images/keys/z.svg"" width=""35%"" height=""75%""></img></td>
    <td width=300><img src=""static/images/keys/m.svg"" width=""35%"" height=""75%""></img></td>
  </tr>
</table>
  ",,,,,,,,,,,,,,,,,,,,,,,,,,,,
200,0,,html-keyboard-response,200,437190,0.0-7.9-3.9,d4ftibxj1kh,2022-09-19 17:34:25.309,5f42167916548e3e557a1e6a,2,100,36,0,0,25,Female,,,"<p style=""font-size:50px"">You win!
+10 points this round!</p>",,,,,,,,,,,,,,,,,,,,,,,,,,,,
201,0,,html-keyboard-response,201,437698,0.0-7.9-4.9,d4ftibxj1kh,2022-09-19 17:34:25.309,5f42167916548e3e557a1e6a,2,100,36,0,0,25,Female,,,,,,1.0,choice,9.0,B,Xc,red,red,stars,bolts,B,Xc,Xc,red,bolts,1473.5,1.0,0.0,NA,left,362.3000000119,9.0,1.0,1.0,,,
202,0,,html-keyboard-response,202,439522,0.0-7.10-0.10,d4ftibxj1kh,2022-09-19 17:34:25.309,5f42167916548e3e557a1e6a,2,100,36,0,0,25,Female,1823.400000006,,"
  <table>
  <tr height=300>
    <td width=300 height=300><img src=""static/images/cards/stack_of_red_moons.svg"" width=""175px"" height=""250px""></img></td>
    <td width=300 height=300><img src=""static/images/cards/stack_of_black_stars.svg"" width=""175px"" height=""250px""></img></td>
  </tr>
  <tr height=200>
    <td width=300><img src=""static/images/keys/w.svg"" width=""35%"" height=""75%""></img></td>
    <td width=300><img src=""static/images/keys/o.svg"" width=""35%"" height=""75%""></img></td>
  </tr>
</table>
  ",79.0,1.0,,,,,,,,,,,,,,,,,,,,,,,,,,
203,0,,html-keyboard-response,203,440410,0.0-7.10-1.10,d4ftibxj1kh,2022-09-19 17:34:25.309,5f42167916548e3e557a1e6a,2,100,36,0,0,25,Female,386.599999994,,"
  <table>
  <tr height=300>
    <td width=300 height=300><img src=""static/images/cards/back_of_black_stars.svg"" width=""175px"" height=""250px""></img></td>
    <td width=300 height=300><img src=""static/images/cards/back_of_black_stars.svg"" width=""175px"" height=""250px""></img></td>
  </tr>
  <tr height=200>
    <td width=300><img src=""static/images/keys/z.svg"" width=""35%"" height=""75%""></img></td>
    <td width=300><img src=""static/images/keys/m.svg"" width=""35%"" height=""75%""></img></td>
  </tr>
</table>
  ",90.0,1.0,,,,,,,,,,,,,,,,,,,,,,,,,,
204,0,,html-keyboard-response,204,441912,0.0-7.10-2.10,d4ftibxj1kh,2022-09-19 17:34:25.309,5f42167916548e3e557a1e6a,2,100,36,0,0,25,Female,,,"
  <table>
  <tr height=300>
    <td width=300 height=300><img src=""static/images/cards/9_of_black_stars.svg"" width=""175px"" height=""250px""></img></td>
    <td width=300 height=300><img src=""static/images/cards/back_of_black_stars.svg"" width=""175px"" height=""250px""></img></td>
  </tr>
  <tr height=200>
    <td width=300><img src=""static/images/keys/z.svg"" width=""35%"" height=""75%""></img></td>
    <td width=300><img src=""static/images/keys/m.svg"" width=""35%"" height=""75%""></img></td>
  </tr>
</table>
  ",,,,,,,,,,,,,,,,,,,,,,,,,,,,
205,0,,html-keyboard-response,205,443415,0.0-7.10-3.10,d4ftibxj1kh,2022-09-19 17:34:25.309,5f42167916548e3e557a1e6a,2,100,36,0,0,25,Female,,,"<p style=""font-size:50px"">You win!
+10 points this round!</p>",,,,,,,,,,,,,,,,,,,,,,,,,,,,
206,0,,html-keyboard-response,206,443920,0.0-7.10-4.10,d4ftibxj1kh,2022-09-19 17:34:25.309,5f42167916548e3e557a1e6a,2,100,36,0,0,25,Female,,,,,,1.0,choice,10.0,A,D,red,black,moons,stars,D,A,A,black,stars,1823.400000006,1.0,1.0,NA,left,386.599999994,9.0,1.0,1.0,,,
207,0,,html-keyboard-response,207,445714,0.0-7.11-0.11,d4ftibxj1kh,2022-09-19 17:34:25.309,5f42167916548e3e557a1e6a,2,100,36,0,0,25,Female,1793.400000006,,"
  <table>
  <tr height=300>
    <td width=300 height=300><img src=""static/images/cards/stack_of_red_bolts.svg"" width=""175px"" height=""250px""></img></td>
    <td width=300 height=300><img src=""static/images/cards/stack_of_red_moons.svg"" width=""175px"" height=""250px""></img></td>
  </tr>
  <tr height=200>
    <td width=300><img src=""static/images/keys/w.svg"" width=""35%"" height=""75%""></img></td>
    <td width=300><img src=""static/images/keys/o.svg"" width=""35%"" height=""75%""></img></td>
  </tr>
</table>
  ",87.0,1.0,,,,,,,,,,,,,,,,,,,,,,,,,,
208,0,,html-keyboard-response,208,446418,0.0-7.11-1.11,d4ftibxj1kh,2022-09-19 17:34:25.309,5f42167916548e3e557a1e6a,2,100,36,0,0,25,Female,202.099999994,,"
  <table>
  <tr height=300>
    <td width=300 height=300><img src=""static/images/cards/back_of_red_bolts.svg"" width=""175px"" height=""250px""></img></td>
    <td width=300 height=300><img src=""static/images/cards/back_of_red_bolts.svg"" width=""175px"" height=""250px""></img></td>
  </tr>
  <tr height=200>
    <td width=300><img src=""static/images/keys/z.svg"" width=""35%"" height=""75%""></img></td>
    <td width=300><img src=""static/images/keys/m.svg"" width=""35%"" height=""75%""></img></td>
  </tr>
</table>
  ",90.0,1.0,,,,,,,,,,,,,,,,,,,,,,,,,,
209,0,,html-keyboard-response,209,447920,0.0-7.11-2.11,d4ftibxj1kh,2022-09-19 17:34:25.309,5f42167916548e3e557a1e6a,2,100,36,0,0,25,Female,,,"
  <table>
  <tr height=300>
    <td width=300 height=300><img src=""static/images/cards/4_of_red_bolts.svg"" width=""175px"" height=""250px""></img></td>
    <td width=300 height=300><img src=""static/images/cards/back_of_red_bolts.svg"" width=""175px"" height=""250px""></img></td>
  </tr>
  <tr height=200>
    <td width=300><img src=""static/images/keys/z.svg"" width=""35%"" height=""75%""></img></td>
    <td width=300><img src=""static/images/keys/m.svg"" width=""35%"" height=""75%""></img></td>
  </tr>
</table>
  ",,,,,,,,,,,,,,,,,,,,,,,,,,,,
210,0,,html-keyboard-response,210,449422,0.0-7.11-3.11,d4ftibxj1kh,2022-09-19 17:34:25.309,5f42167916548e3e557a1e6a,2,100,36,0,0,25,Female,,,"<p style=""font-size:50px"">You win!
+10 points this round!</p>",,,,,,,,,,,,,,,,,,,,,,,,,,,,
211,0,,html-keyboard-response,211,449930,0.0-7.11-4.11,d4ftibxj1kh,2022-09-19 17:34:25.309,5f42167916548e3e557a1e6a,2,100,36,0,0,25,Female,,,,,,1.0,choice,11.0,D,Xc,red,red,bolts,moons,Xc,D,Xc,red,bolts,1793.400000006,1.0,0.0,NA,left,202.099999994,4.0,0.0,1.0,,,
212,0,,html-keyboard-response,212,451978,0.0-7.12-0.12,d4ftibxj1kh,2022-09-19 17:34:25.309,5f42167916548e3e557a1e6a,2,100,36,0,0,25,Female,2047.6999999881,,"
  <table>
  <tr height=300>
    <td width=300 height=300><img src=""static/images/cards/stack_of_red_moons.svg"" width=""175px"" height=""250px""></img></td>
    <td width=300 height=300><img src=""static/images/cards/stack_of_red_stars.svg"" width=""175px"" height=""250px""></img></td>
  </tr>
  <tr height=200>
    <td width=300><img src=""static/images/keys/w.svg"" width=""35%"" height=""75%""></img></td>
    <td width=300><img src=""static/images/keys/o.svg"" width=""35%"" height=""75%""></img></td>
  </tr>
</table>
  ",79.0,1.0,,,,,,,,,,,,,,,,,,,,,,,,,,
213,0,,html-keyboard-response,213,453922,0.0-7.12-1.12,d4ftibxj1kh,2022-09-19 17:34:25.309,5f42167916548e3e557a1e6a,2,100,36,0,0,25,Female,1442.7000000179,,"
  <table>
  <tr height=300>
    <td width=300 height=300><img src=""static/images/cards/back_of_red_stars.svg"" width=""175px"" height=""250px""></img></td>
    <td width=300 height=300><img src=""static/images/cards/back_of_red_stars.svg"" width=""175px"" height=""250px""></img></td>
  </tr>
  <tr height=200>
    <td width=300></td>
    <td width=300><img src=""static/images/keys/m.svg"" width=""35%"" height=""75%""></img></td>
  </tr>
</table>
  ",77.0,2.0,,,,,,,,,,,,,,,,,,,,,,,,,,
214,0,,html-keyboard-response,214,455424,0.0-7.12-2.12,d4ftibxj1kh,2022-09-19 17:34:25.309,5f42167916548e3e557a1e6a,2,100,36,0,0,25,Female,,,"
  <table>
  <tr height=300>
    <td width=300 height=300><img src=""static/images/cards/back_of_red_stars.svg"" width=""175px"" height=""250px""></img></td>
    <td width=300 height=300><img src=""static/images/cards/10_of_red_stars.svg"" width=""175px"" height=""250px""></img></td>
  </tr>
  <tr height=200>
    <td width=300></td>
    <td width=300><img src=""static/images/keys/m.svg"" width=""35%"" height=""75%""></img></td>
  </tr>
</table>
  ",,,,,,,,,,,,,,,,,,,,,,,,,,,,
215,0,,html-keyboard-response,215,456926,0.0-7.12-3.12,d4ftibxj1kh,2022-09-19 17:34:25.309,5f42167916548e3e557a1e6a,2,100,36,0,0,25,Female,,,"<p style=""font-size:50px"">You win!
+10 points this round!</p>",,,,,,,,,,,,,,,,,,,,,,,,,,,,
216,0,,html-keyboard-response,216,457432,0.0-7.12-4.12,d4ftibxj1kh,2022-09-19 17:34:25.309,5f42167916548e3e557a1e6a,2,100,36,0,0,25,Female,,,,,,1.0,choice,12.0,B,D,red,red,moons,stars,D,B,B,red,stars,2047.6999999881,0.0,1.0,0,right,1442.7000000179,10.0,1.0,1.0,,,
217,0,,html-keyboard-response,217,459034,0.0-7.13-0.13,d4ftibxj1kh,2022-09-19 17:34:25.309,5f42167916548e3e557a1e6a,2,100,36,0,0,25,Female,1601.5,,"
  <table>
  <tr height=300>
    <td width=300 height=300><img src=""static/images/cards/stack_of_black_stars.svg"" width=""175px"" height=""250px""></img></td>
    <td width=300 height=300><img src=""static/images/cards/stack_of_black_moons.svg"" width=""175px"" height=""250px""></img></td>
  </tr>
  <tr height=200>
    <td width=300><img src=""static/images/keys/w.svg"" width=""35%"" height=""75%""></img></td>
    <td width=300><img src=""static/images/keys/o.svg"" width=""35%"" height=""75%""></img></td>
  </tr>
</table>
  ",87.0,1.0,,,,,,,,,,,,,,,,,,,,,,,,,,
218,0,,html-keyboard-response,218,459834,0.0-7.13-1.13,d4ftibxj1kh,2022-09-19 17:34:25.309,5f42167916548e3e557a1e6a,2,100,36,0,0,25,Female,297.099999994,,"
  <table>
  <tr height=300>
    <td width=300 height=300><img src=""static/images/cards/back_of_black_stars.svg"" width=""175px"" height=""250px""></img></td>
    <td width=300 height=300><img src=""static/images/cards/back_of_black_stars.svg"" width=""175px"" height=""250px""></img></td>
  </tr>
  <tr height=200>
    <td width=300><img src=""static/images/keys/z.svg"" width=""35%"" height=""75%""></img></td>
    <td width=300><img src=""static/images/keys/m.svg"" width=""35%"" height=""75%""></img></td>
  </tr>
</table>
  ",90.0,1.0,,,,,,,,,,,,,,,,,,,,,,,,,,
219,0,,html-keyboard-response,219,461337,0.0-7.13-2.13,d4ftibxj1kh,2022-09-19 17:34:25.309,5f42167916548e3e557a1e6a,2,100,36,0,0,25,Female,,,"
  <table>
  <tr height=300>
    <td width=300 height=300><img src=""static/images/cards/4_of_black_stars.svg"" width=""175px"" height=""250px""></img></td>
    <td width=300 height=300><img src=""static/images/cards/back_of_black_stars.svg"" width=""175px"" height=""250px""></img></td>
  </tr>
  <tr height=200>
    <td width=300><img src=""static/images/keys/z.svg"" width=""35%"" height=""75%""></img></td>
    <td width=300><img src=""static/images/keys/m.svg"" width=""35%"" height=""75%""></img></td>
  </tr>
</table>
  ",,,,,,,,,,,,,,,,,,,,,,,,,,,,
220,0,,html-keyboard-response,220,462840,0.0-7.13-3.13,d4ftibxj1kh,2022-09-19 17:34:25.309,5f42167916548e3e557a1e6a,2,100,36,0,0,25,Female,,,"<p style=""font-size:50px"">You Lose!
No points this round.</p>",,,,,,,,,,,,,,,,,,,,,,,,,,,,
221,0,,html-keyboard-response,221,463345,0.0-7.13-4.13,d4ftibxj1kh,2022-09-19 17:34:25.309,5f42167916548e3e557a1e6a,2,100,36,0,0,25,Female,,,,,,1.0,choice,13.0,A,C,black,black,stars,moons,A,C,A,black,stars,1601.5,1.0,1.0,NA,left,297.099999994,4.0,0.0,0.0,,,
222,0,,html-keyboard-response,222,468002,0.0-7.14-0.14,d4ftibxj1kh,2022-09-19 17:34:25.309,5f42167916548e3e557a1e6a,2,100,36,0,0,25,Female,4655.900000006,,"
  <table>
  <tr height=300>
    <td width=300 height=300><img src=""static/images/cards/stack_of_black_moons.svg"" width=""175px"" height=""250px""></img></td>
    <td width=300 height=300><img src=""static/images/cards/stack_of_red_moons.svg"" width=""175px"" height=""250px""></img></td>
  </tr>
  <tr height=200>
    <td width=300><img src=""static/images/keys/w.svg"" width=""35%"" height=""75%""></img></td>
    <td width=300><img src=""static/images/keys/o.svg"" width=""35%"" height=""75%""></img></td>
  </tr>
</table>
  ",87.0,1.0,,,,,,,,,,,,,,,,,,,,,,,,,,
223,0,,html-keyboard-response,223,469155,0.0-7.14-1.14,d4ftibxj1kh,2022-09-19 17:34:25.309,5f42167916548e3e557a1e6a,2,100,36,0,0,25,Female,651.0,,"
  <table>
  <tr height=300>
    <td width=300 height=300><img src=""static/images/cards/back_of_black_moons.svg"" width=""175px"" height=""250px""></img></td>
    <td width=300 height=300><img src=""static/images/cards/back_of_black_moons.svg"" width=""175px"" height=""250px""></img></td>
  </tr>
  <tr height=200>
    <td width=300><img src=""static/images/keys/z.svg"" width=""35%"" height=""75%""></img></td>
    <td width=300><img src=""static/images/keys/m.svg"" width=""35%"" height=""75%""></img></td>
  </tr>
</table>
  ",77.0,1.0,,,,,,,,,,,,,,,,,,,,,,,,,,
224,0,,html-keyboard-response,224,470657,0.0-7.14-2.14,d4ftibxj1kh,2022-09-19 17:34:25.309,5f42167916548e3e557a1e6a,2,100,36,0,0,25,Female,,,"
  <table>
  <tr height=300>
    <td width=300 height=300><img src=""static/images/cards/back_of_black_moons.svg"" width=""175px"" height=""250px""></img></td>
    <td width=300 height=300><img src=""static/images/cards/4_of_black_moons.svg"" width=""175px"" height=""250px""></img></td>
  </tr>
  <tr height=200>
    <td width=300><img src=""static/images/keys/z.svg"" width=""35%"" height=""75%""></img></td>
    <td width=300><img src=""static/images/keys/m.svg"" width=""35%"" height=""75%""></img></td>
  </tr>
</table>
  ",,,,,,,,,,,,,,,,,,,,,,,,,,,,
225,0,,html-keyboard-response,225,472159,0.0-7.14-3.14,d4ftibxj1kh,2022-09-19 17:34:25.309,5f42167916548e3e557a1e6a,2,100,36,0,0,25,Female,,,"<p style=""font-size:50px"">You Lose!
No points this round.</p>",,,,,,,,,,,,,,,,,,,,,,,,,,,,
226,0,,html-keyboard-response,226,472665,0.0-7.14-4.14,d4ftibxj1kh,2022-09-19 17:34:25.309,5f42167916548e3e557a1e6a,2,100,36,0,0,25,Female,,,,,,1.0,choice,14.0,C,D,black,red,moons,moons,C,D,C,black,moons,4655.900000006,1.0,0.0,NA,right,651.0,4.0,0.0,0.0,,,
227,0,,html-keyboard-response,227,474234,0.0-7.15-0.15,d4ftibxj1kh,2022-09-19 17:34:25.309,5f42167916548e3e557a1e6a,2,100,36,0,0,25,Female,1568.8000000119,,"
  <table>
  <tr height=300>
    <td width=300 height=300><img src=""static/images/cards/stack_of_black_moons.svg"" width=""175px"" height=""250px""></img></td>
    <td width=300 height=300><img src=""static/images/cards/stack_of_black_stars.svg"" width=""175px"" height=""250px""></img></td>
  </tr>
  <tr height=200>
    <td width=300><img src=""static/images/keys/w.svg"" width=""35%"" height=""75%""></img></td>
    <td width=300><img src=""static/images/keys/o.svg"" width=""35%"" height=""75%""></img></td>
  </tr>
</table>
  ",79.0,1.0,,,,,,,,,,,,,,,,,,,,,,,,,,
228,0,,html-keyboard-response,228,475066,0.0-7.15-1.15,d4ftibxj1kh,2022-09-19 17:34:25.309,5f42167916548e3e557a1e6a,2,100,36,0,0,25,Female,330.3000000119,,"
  <table>
  <tr height=300>
    <td width=300 height=300><img src=""static/images/cards/back_of_black_stars.svg"" width=""175px"" height=""250px""></img></td>
    <td width=300 height=300><img src=""static/images/cards/back_of_black_stars.svg"" width=""175px"" height=""250px""></img></td>
  </tr>
  <tr height=200>
    <td width=300><img src=""static/images/keys/z.svg"" width=""35%"" height=""75%""></img></td>
    <td width=300><img src=""static/images/keys/m.svg"" width=""35%"" height=""75%""></img></td>
  </tr>
</table>
  ",90.0,1.0,,,,,,,,,,,,,,,,,,,,,,,,,,
229,0,,html-keyboard-response,229,476568,0.0-7.15-2.15,d4ftibxj1kh,2022-09-19 17:34:25.309,5f42167916548e3e557a1e6a,2,100,36,0,0,25,Female,,,"
  <table>
  <tr height=300>
    <td width=300 height=300><img src=""static/images/cards/3_of_black_stars.svg"" width=""175px"" height=""250px""></img></td>
    <td width=300 height=300><img src=""static/images/cards/back_of_black_stars.svg"" width=""175px"" height=""250px""></img></td>
  </tr>
  <tr height=200>
    <td width=300><img src=""static/images/keys/z.svg"" width=""35%"" height=""75%""></img></td>
    <td width=300><img src=""static/images/keys/m.svg"" width=""35%"" height=""75%""></img></td>
  </tr>
</table>
  ",,,,,,,,,,,,,,,,,,,,,,,,,,,,
230,0,,html-keyboard-response,230,478071,0.0-7.15-3.15,d4ftibxj1kh,2022-09-19 17:34:25.309,5f42167916548e3e557a1e6a,2,100,36,0,0,25,Female,,,"<p style=""font-size:50px"">You Lose!
No points this round.</p>",,,,,,,,,,,,,,,,,,,,,,,,,,,,
231,0,,html-keyboard-response,231,478577,0.0-7.15-4.15,d4ftibxj1kh,2022-09-19 17:34:25.309,5f42167916548e3e557a1e6a,2,100,36,0,0,25,Female,,,,,,1.0,choice,15.0,A,C,black,black,moons,stars,C,A,A,black,stars,1568.8000000119,1.0,1.0,NA,left,330.3000000119,3.0,0.0,0.0,,,
232,0,,html-keyboard-response,232,480243,0.0-7.16-0.16,d4ftibxj1kh,2022-09-19 17:34:25.309,5f42167916548e3e557a1e6a,2,100,36,0,0,25,Female,1664.900000006,,"
  <table>
  <tr height=300>
    <td width=300 height=300><img src=""static/images/cards/stack_of_black_moons.svg"" width=""175px"" height=""250px""></img></td>
    <td width=300 height=300><img src=""static/images/cards/stack_of_red_moons.svg"" width=""175px"" height=""250px""></img></td>
  </tr>
  <tr height=200>
    <td width=300><img src=""static/images/keys/w.svg"" width=""35%"" height=""75%""></img></td>
    <td width=300><img src=""static/images/keys/o.svg"" width=""35%"" height=""75%""></img></td>
  </tr>
</table>
  ",87.0,1.0,,,,,,,,,,,,,,,,,,,,,,,,,,
233,0,,html-keyboard-response,233,481258,0.0-7.16-1.16,d4ftibxj1kh,2022-09-19 17:34:25.309,5f42167916548e3e557a1e6a,2,100,36,0,0,25,Female,513.900000006,,"
  <table>
  <tr height=300>
    <td width=300 height=300><img src=""static/images/cards/back_of_black_moons.svg"" width=""175px"" height=""250px""></img></td>
    <td width=300 height=300><img src=""static/images/cards/back_of_black_moons.svg"" width=""175px"" height=""250px""></img></td>
  </tr>
  <tr height=200>
    <td width=300><img src=""static/images/keys/z.svg"" width=""35%"" height=""75%""></img></td>
    <td width=300><img src=""static/images/keys/m.svg"" width=""35%"" height=""75%""></img></td>
  </tr>
</table>
  ",90.0,1.0,,,,,,,,,,,,,,,,,,,,,,,,,,
