,index,success,trial_type,trial_index,time_elapsed,internal_node_id,subject,date,prol_id,ctbl,sense_of_control_A,sense_of_control_B,sense_of_control_C,sense_of_control_D,age,gender,rt,url,stimulus,key_press,is_data_trial,phase,trial,deck1,deck2,col1,col2,sym1,sym2,deck_l,deck_r,chosen_deck,chosen_col,chosen_sym,deck_rt,choose_choice,mutual_info,hidden_key,chosen_card,card_rt,player_num,win_card,outcome,mock_rating,npress,response,responses
0,0,1.0,fullscreen,0,14347,0.0-0.0,z9wbczifewk,2022-09-19 16:45:22.802,615dbec57d764bf5ab0a56e5,2,60,81,27,37,38,female,,,,,,,,,,,,,,,,,,,,,,,,,,,,,,,
1,0,,external-html,1,37703,0.0-1.0,z9wbczifewk,2022-09-19 16:45:22.802,615dbec57d764bf5ab0a56e5,2,60,81,27,37,38,female,23293.3,static/js/sub/consent.html,,,,,,,,,,,,,,,,,,,,,,,,,,,,,
2,0,,call-function,2,37705,0.0-2.0,z9wbczifewk,2022-09-19 16:45:22.802,615dbec57d764bf5ab0a56e5,2,60,81,27,37,38,female,,,,,,,,,,,,,,,,,,,,,,,,,,,,,,,
3,0,,image-keyboard-response,3,46654,0.0-3.0-0.0,z9wbczifewk,2022-09-19 16:45:22.802,615dbec57d764bf5ab0a56e5,2,60,81,27,37,38,female,8946.9000000001,,static/images/instructions_CB_2/Slide1.png,39.0,,,,,,,,,,,,,,,,,,,,,,,,,,,
4,0,,image-keyboard-response,4,65856,0.0-3.1-0.1,z9wbczifewk,2022-09-19 16:45:22.802,615dbec57d764bf5ab0a56e5,2,60,81,27,37,38,female,19199.3999999999,,static/images/instructions_CB_2/Slide2.png,39.0,,,,,,,,,,,,,,,,,,,,,,,,,,,
5,0,,image-keyboard-response,5,75905,0.0-3.2-0.2,z9wbczifewk,2022-09-19 16:45:22.802,615dbec57d764bf5ab0a56e5,2,60,81,27,37,38,female,10046.7,,static/images/instructions_CB_2/Slide3.png,39.0,,,,,,,,,,,,,,,,,,,,,,,,,,,
6,0,,image-keyboard-response,6,89535,0.0-3.3-0.3,z9wbczifewk,2022-09-19 16:45:22.802,615dbec57d764bf5ab0a56e5,2,60,81,27,37,38,female,13628.1000000001,,static/images/instructions_CB_2/Slide4.png,39.0,,,,,,,,,,,,,,,,,,,,,,,,,,,
7,0,,image-keyboard-response,7,104471,0.0-3.4-0.4,z9wbczifewk,2022-09-19 16:45:22.802,615dbec57d764bf5ab0a56e5,2,60,81,27,37,38,female,14935.0999999999,,static/images/instructions_CB_2/Slide5.png,39.0,,,,,,,,,,,,,,,,,,,,,,,,,,,
8,0,,image-keyboard-response,8,110414,0.0-3.5-0.5,z9wbczifewk,2022-09-19 16:45:22.802,615dbec57d764bf5ab0a56e5,2,60,81,27,37,38,female,5941.4000000001,,static/images/instructions_CB_2/Slide6.png,39.0,,,,,,,,,,,,,,,,,,,,,,,,,,,
9,0,,image-keyboard-response,9,125468,0.0-3.6-0.6,z9wbczifewk,2022-09-19 16:45:22.802,615dbec57d764bf5ab0a56e5,2,60,81,27,37,38,female,15051.7,,static/images/instructions_CB_2/Slide7.png,39.0,,,,,,,,,,,,,,,,,,,,,,,,,,,
10,0,,image-keyboard-response,10,158030,0.0-3.7-0.7,z9wbczifewk,2022-09-19 16:45:22.802,615dbec57d764bf5ab0a56e5,2,60,81,27,37,38,female,32559.7,,static/images/instructions_CB_2/Slide8.png,39.0,,,,,,,,,,,,,,,,,,,,,,,,,,,
11,0,,image-keyboard-response,11,168563,0.0-3.8-0.8,z9wbczifewk,2022-09-19 16:45:22.802,615dbec57d764bf5ab0a56e5,2,60,81,27,37,38,female,10532.0,,static/images/instructions_CB_2/Slide9.png,39.0,,,,,,,,,,,,,,,,,,,,,,,,,,,
12,0,,image-keyboard-response,12,194076,0.0-3.9-0.9,z9wbczifewk,2022-09-19 16:45:22.802,615dbec57d764bf5ab0a56e5,2,60,81,27,37,38,female,25511.7000000002,,static/images/instructions_CB_2/Slide10.png,39.0,,,,,,,,,,,,,,,,,,,,,,,,,,,
13,0,,image-keyboard-response,13,204939,0.0-3.10-0.10,z9wbczifewk,2022-09-19 16:45:22.802,615dbec57d764bf5ab0a56e5,2,60,81,27,37,38,female,10861.6000000001,,static/images/instructions_CB_2/Slide11.png,39.0,,,,,,,,,,,,,,,,,,,,,,,,,,,
14,0,,image-keyboard-response,14,225217,0.0-3.11-0.11,z9wbczifewk,2022-09-19 16:45:22.802,615dbec57d764bf5ab0a56e5,2,60,81,27,37,38,female,20276.3,,static/images/instructions_CB_2/Slide12.png,39.0,,,,,,,,,,,,,,,,,,,,,,,,,,,
15,0,,image-keyboard-response,15,263333,0.0-3.12-0.12,z9wbczifewk,2022-09-19 16:45:22.802,615dbec57d764bf5ab0a56e5,2,60,81,27,37,38,female,38115.1000000001,,static/images/instructions_CB_2/Slide13.png,39.0,,,,,,,,,,,,,,,,,,,,,,,,,,,
16,0,,image-keyboard-response,16,274435,0.0-3.13-0.13,z9wbczifewk,2022-09-19 16:45:22.802,615dbec57d764bf5ab0a56e5,2,60,81,27,37,38,female,11100.2,,static/images/instructions_CB_2/Slide14.png,39.0,,,,,,,,,,,,,,,,,,,,,,,,,,,
17,0,,image-keyboard-response,17,291580,0.0-3.14-0.14,z9wbczifewk,2022-09-19 16:45:22.802,615dbec57d764bf5ab0a56e5,2,60,81,27,37,38,female,17143.9000000001,,static/images/instructions_CB_2/Slide15.png,39.0,,,,,,,,,,,,,,,,,,,,,,,,,,,
18,0,,image-keyboard-response,18,304708,0.0-3.15-0.15,z9wbczifewk,2022-09-19 16:45:22.802,615dbec57d764bf5ab0a56e5,2,60,81,27,37,38,female,13126.5,,static/images/instructions_CB_2/Slide16.png,39.0,,,,,,,,,,,,,,,,,,,,,,,,,,,
19,0,,image-keyboard-response,19,319108,0.0-3.16-0.16,z9wbczifewk,2022-09-19 16:45:22.802,615dbec57d764bf5ab0a56e5,2,60,81,27,37,38,female,14398.8,,static/images/instructions_CB_2/Slide17.png,39.0,,,,,,,,,,,,,,,,,,,,,,,,,,,
20,0,,image-keyboard-response,20,351397,0.0-3.17-0.17,z9wbczifewk,2022-09-19 16:45:22.802,615dbec57d764bf5ab0a56e5,2,60,81,27,37,38,female,32288.0999999999,,static/images/instructions_CB_2/Slide18.png,39.0,,,,,,,,,,,,,,,,,,,,,,,,,,,
21,0,,image-keyboard-response,21,360325,0.0-3.18-0.18,z9wbczifewk,2022-09-19 16:45:22.802,615dbec57d764bf5ab0a56e5,2,60,81,27,37,38,female,8926.0,,static/images/instructions_CB_2/Slide19.png,39.0,,,,,,,,,,,,,,,,,,,,,,,,,,,
22,0,,html-keyboard-response,22,361827,0.0-4.0-0.0,z9wbczifewk,2022-09-19 16:45:22.802,615dbec57d764bf5ab0a56e5,2,60,81,27,37,38,female,,,"<img src=""static/images/cards/stack_of_black_stars.svg"" width=""175px"" height=""250px""></img>",,,,,,,,,,,,,,,,,,,,,,,,,,,,
23,0,,html-keyboard-response,23,365330,0.0-4.0-1.0,z9wbczifewk,2022-09-19 16:45:22.802,615dbec57d764bf5ab0a56e5,2,60,81,27,37,38,female,,,"
  <table>
  <tr height=300>
    <td width=300 height=300><img src=""static/images/cards/back_of_black_stars.svg"" width=""175px"" height=""250px""></img></td>
    <td width=300 height=300><img src=""static/images/cards/back_of_black_stars.svg"" width=""175px"" height=""250px""></img></td>
  </tr>
  <tr height=200>
    <td width=300><img src=""static/images/keys/z.svg"" width=""35%"" height=""75%""></img></td>
    <td width=300><img src=""static/images/keys/m.svg"" width=""35%"" height=""75%""></img></td>
  </tr>
</table>
  ",,,,,,,,,,,,,,,,,,,,,,,,,,,,
24,0,,html-keyboard-response,24,365332,0.0-4.0-2.0,z9wbczifewk,2022-09-19 16:45:22.802,615dbec57d764bf5ab0a56e5,2,60,81,27,37,38,female,,,,,,,,,,,,,,,,,,,,,,,,,,,,,,,
25,0,,html-keyboard-response,25,366833,0.0-4.0-3.0,z9wbczifewk,2022-09-19 16:45:22.802,615dbec57d764bf5ab0a56e5,2,60,81,27,37,38,female,,,"<p style=""font-size:50px"">Too slow!</p>",,,,,,,,,,,,,,,,,,,,,,,,,,,,
26,0,,html-keyboard-response,26,367339,0.0-4.0-4.0,z9wbczifewk,2022-09-19 16:45:22.802,615dbec57d764bf5ab0a56e5,2,60,81,27,37,38,female,,,,,1.0,learning,0.0,A,,black,,stars,,,,A,black,stars,,1.0,1.0,NA,,,,,,,,,
27,0,,html-keyboard-response,27,368841,0.0-4.1-0.1,z9wbczifewk,2022-09-19 16:45:22.802,615dbec57d764bf5ab0a56e5,2,60,81,27,37,38,female,,,"<img src=""static/images/cards/stack_of_red_stars.svg"" width=""175px"" height=""250px""></img>",,,,,,,,,,,,,,,,,,,,,,,,,,,,
28,0,,html-keyboard-response,28,369429,0.0-4.1-1.1,z9wbczifewk,2022-09-19 16:45:22.802,615dbec57d764bf5ab0a56e5,2,60,81,27,37,38,female,84.6000000001,,"
  <table>
  <tr height=300>
    <td width=300 height=300><img src=""static/images/cards/back_of_red_stars.svg"" width=""175px"" height=""250px""></img></td>
    <td width=300 height=300><img src=""static/images/cards/back_of_red_stars.svg"" width=""175px"" height=""250px""></img></td>
  </tr>
  <tr height=200>
    <td width=300></td>
    <td width=300><img src=""static/images/keys/m.svg"" width=""35%"" height=""75%""></img></td>
  </tr>
</table>
  ",77.0,,,,,,,,,,,,,,,,,,,,,,,,,1.0,,
29,0,,html-keyboard-response,29,370931,0.0-4.1-2.1,z9wbczifewk,2022-09-19 16:45:22.802,615dbec57d764bf5ab0a56e5,2,60,81,27,37,38,female,,,"
  <table>
  <tr height=300>
    <td width=300 height=300><img src=""static/images/cards/back_of_red_stars.svg"" width=""175px"" height=""250px""></img></td>
    <td width=300 height=300><img src=""static/images/cards/7_of_red_stars.svg"" width=""175px"" height=""250px""></img></td>
  </tr>
  <tr height=200>
    <td width=300></td>
    <td width=300><img src=""static/images/keys/m.svg"" width=""35%"" height=""75%""></img></td>
  </tr>
</table>
  ",,,,,,,,,,,,,,,,,,,,,,,,,,,,
30,0,,html-keyboard-response,30,372432,0.0-4.1-3.1,z9wbczifewk,2022-09-19 16:45:22.802,615dbec57d764bf5ab0a56e5,2,60,81,27,37,38,female,,,"<p style=""font-size:50px"">You win!
+10 points this round!</p>",,,,,,,,,,,,,,,,,,,,,,,,,,,,
31,0,,html-keyboard-response,31,372938,0.0-4.1-4.1,z9wbczifewk,2022-09-19 16:45:22.802,615dbec57d764bf5ab0a56e5,2,60,81,27,37,38,female,,,,,1.0,learning,1.0,B,,red,,stars,,,,B,red,stars,,0.0,1.0,0,right,84.6000000001,7.0,1.0,1.0,,,,
32,0,,html-keyboard-response,32,374440,0.0-4.2-0.2,z9wbczifewk,2022-09-19 16:45:22.802,615dbec57d764bf5ab0a56e5,2,60,81,27,37,38,female,,,"<img src=""static/images/cards/stack_of_black_moons.svg"" width=""175px"" height=""250px""></img>",,,,,,,,,,,,,,,,,,,,,,,,,,,,
33,0,,html-keyboard-response,33,376203,0.0-4.2-1.2,z9wbczifewk,2022-09-19 16:45:22.802,615dbec57d764bf5ab0a56e5,2,60,81,27,37,38,female,1259.7,,"
  <table>
  <tr height=300>
    <td width=300 height=300><img src=""static/images/cards/back_of_black_moons.svg"" width=""175px"" height=""250px""></img></td>
    <td width=300 height=300><img src=""static/images/cards/back_of_black_moons.svg"" width=""175px"" height=""250px""></img></td>
  </tr>
  <tr height=200>
    <td width=300><img src=""static/images/keys/z.svg"" width=""35%"" height=""75%""></img></td>
    <td width=300><img src=""static/images/keys/m.svg"" width=""35%"" height=""75%""></img></td>
  </tr>
</table>
  ",90.0,,,,,,,,,,,,,,,,,,,,,,,,,1.0,,
34,0,,html-keyboard-response,34,377706,0.0-4.2-2.2,z9wbczifewk,2022-09-19 16:45:22.802,615dbec57d764bf5ab0a56e5,2,60,81,27,37,38,female,,,"
  <table>
  <tr height=300>
    <td width=300 height=300><img src=""static/images/cards/2_of_black_moons.svg"" width=""175px"" height=""250px""></img></td>
    <td width=300 height=300><img src=""static/images/cards/back_of_black_moons.svg"" width=""175px"" height=""250px""></img></td>
  </tr>
  <tr height=200>
    <td width=300><img src=""static/images/keys/z.svg"" width=""35%"" height=""75%""></img></td>
    <td width=300><img src=""static/images/keys/m.svg"" width=""35%"" height=""75%""></img></td>
  </tr>
</table>
  ",,,,,,,,,,,,,,,,,,,,,,,,,,,,
35,0,,html-keyboard-response,35,379207,0.0-4.2-3.2,z9wbczifewk,2022-09-19 16:45:22.802,615dbec57d764bf5ab0a56e5,2,60,81,27,37,38,female,,,"<p style=""font-size:50px"">You win!
+10 points this round!</p>",,,,,,,,,,,,,,,,,,,,,,,,,,,,
36,0,,html-keyboard-response,36,379713,0.0-4.2-4.2,z9wbczifewk,2022-09-19 16:45:22.802,615dbec57d764bf5ab0a56e5,2,60,81,27,37,38,female,,,,,1.0,learning,2.0,C,,black,,moons,,,,C,black,moons,,1.0,0.0,NA,left,1259.7,2.0,0.0,1.0,,,,
37,0,,html-keyboard-response,37,381215,0.0-4.3-0.3,z9wbczifewk,2022-09-19 16:45:22.802,615dbec57d764bf5ab0a56e5,2,60,81,27,37,38,female,,,"<img src=""static/images/cards/stack_of_red_moons.svg"" width=""175px"" height=""250px""></img>",,,,,,,,,,,,,,,,,,,,,,,,,,,,
38,0,,html-keyboard-response,38,383021,0.0-4.3-1.3,z9wbczifewk,2022-09-19 16:45:22.802,615dbec57d764bf5ab0a56e5,2,60,81,27,37,38,female,1303.3999999999,,"
  <table>
  <tr height=300>
    <td width=300 height=300><img src=""static/images/cards/back_of_red_moons.svg"" width=""175px"" height=""250px""></img></td>
    <td width=300 height=300><img src=""static/images/cards/back_of_red_moons.svg"" width=""175px"" height=""250px""></img></td>
  </tr>
  <tr height=200>
    <td width=300></td>
    <td width=300><img src=""static/images/keys/m.svg"" width=""35%"" height=""75%""></img></td>
  </tr>
</table>
  ",77.0,,,,,,,,,,,,,,,,,,,,,,,,,1.0,,
39,0,,html-keyboard-response,39,384523,0.0-4.3-2.3,z9wbczifewk,2022-09-19 16:45:22.802,615dbec57d764bf5ab0a56e5,2,60,81,27,37,38,female,,,"
  <table>
  <tr height=300>
    <td width=300 height=300><img src=""static/images/cards/back_of_red_moons.svg"" width=""175px"" height=""250px""></img></td>
    <td width=300 height=300><img src=""static/images/cards/2_of_red_moons.svg"" width=""175px"" height=""250px""></img></td>
  </tr>
  <tr height=200>
    <td width=300></td>
    <td width=300><img src=""static/images/keys/m.svg"" width=""35%"" height=""75%""></img></td>
  </tr>
</table>
  ",,,,,,,,,,,,,,,,,,,,,,,,,,,,
40,0,,html-keyboard-response,40,386025,0.0-4.3-3.3,z9wbczifewk,2022-09-19 16:45:22.802,615dbec57d764bf5ab0a56e5,2,60,81,27,37,38,female,,,"<p style=""font-size:50px"">You Lose!
No points this round.</p>",,,,,,,,,,,,,,,,,,,,,,,,,,,,
41,0,,html-keyboard-response,41,386530,0.0-4.3-4.3,z9wbczifewk,2022-09-19 16:45:22.802,615dbec57d764bf5ab0a56e5,2,60,81,27,37,38,female,,,,,1.0,learning,3.0,D,,red,,moons,,,,D,red,moons,,0.0,0.0,0,right,1303.3999999999,2.0,0.0,0.0,,,,
42,0,,html-keyboard-response,42,388032,0.0-4.4-0.4,z9wbczifewk,2022-09-19 16:45:22.802,615dbec57d764bf5ab0a56e5,2,60,81,27,37,38,female,,,"<img src=""static/images/cards/stack_of_red_bolts.svg"" width=""175px"" height=""250px""></img>",,,,,,,,,,,,,,,,,,,,,,,,,,,,
43,0,,html-keyboard-response,43,389958,0.0-4.4-1.4,z9wbczifewk,2022-09-19 16:45:22.802,615dbec57d764bf5ab0a56e5,2,60,81,27,37,38,female,1422.6000000001,,"
  <table>
  <tr height=300>
    <td width=300 height=300><img src=""static/images/cards/back_of_red_bolts.svg"" width=""175px"" height=""250px""></img></td>
    <td width=300 height=300><img src=""static/images/cards/back_of_red_bolts.svg"" width=""175px"" height=""250px""></img></td>
  </tr>
  <tr height=200>
    <td width=300><img src=""static/images/keys/z.svg"" width=""35%"" height=""75%""></img></td>
    <td width=300><img src=""static/images/keys/m.svg"" width=""35%"" height=""75%""></img></td>
  </tr>
</table>
  ",77.0,,,,,,,,,,,,,,,,,,,,,,,,,1.0,,
44,0,,html-keyboard-response,44,391460,0.0-4.4-2.4,z9wbczifewk,2022-09-19 16:45:22.802,615dbec57d764bf5ab0a56e5,2,60,81,27,37,38,female,,,"
  <table>
  <tr height=300>
    <td width=300 height=300><img src=""static/images/cards/back_of_red_bolts.svg"" width=""175px"" height=""250px""></img></td>
    <td width=300 height=300><img src=""static/images/cards/10_of_red_bolts.svg"" width=""175px"" height=""250px""></img></td>
  </tr>
  <tr height=200>
    <td width=300><img src=""static/images/keys/z.svg"" width=""35%"" height=""75%""></img></td>
    <td width=300><img src=""static/images/keys/m.svg"" width=""35%"" height=""75%""></img></td>
  </tr>
</table>
  ",,,,,,,,,,,,,,,,,,,,,,,,,,,,
45,0,,html-keyboard-response,45,392962,0.0-4.4-3.4,z9wbczifewk,2022-09-19 16:45:22.802,615dbec57d764bf5ab0a56e5,2,60,81,27,37,38,female,,,"<p style=""font-size:50px"">You win!
+10 points this round!</p>",,,,,,,,,,,,,,,,,,,,,,,,,,,,
46,0,,html-keyboard-response,46,393468,0.0-4.4-4.4,z9wbczifewk,2022-09-19 16:45:22.802,615dbec57d764bf5ab0a56e5,2,60,81,27,37,38,female,,,,,1.0,learning,4.0,Xc,,red,,bolts,,,,Xc,red,bolts,,1.0,0.0,NA,right,1422.6000000001,10.0,1.0,1.0,,,,
47,0,,html-keyboard-response,47,394969,0.0-4.5-0.5,z9wbczifewk,2022-09-19 16:45:22.802,615dbec57d764bf5ab0a56e5,2,60,81,27,37,38,female,,,"<img src=""static/images/cards/stack_of_black_bolts.svg"" width=""175px"" height=""250px""></img>",,,,,,,,,,,,,,,,,,,,,,,,,,,,
48,0,,html-keyboard-response,48,397109,0.0-4.5-1.5,z9wbczifewk,2022-09-19 16:45:22.802,615dbec57d764bf5ab0a56e5,2,60,81,27,37,38,female,1636.8,,"
  <table>
  <tr height=300>
    <td width=300 height=300><img src=""static/images/cards/back_of_black_bolts.svg"" width=""175px"" height=""250px""></img></td>
    <td width=300 height=300><img src=""static/images/cards/back_of_black_bolts.svg"" width=""175px"" height=""250px""></img></td>
  </tr>
  <tr height=200>
    <td width=300><img src=""static/images/keys/z.svg"" width=""35%"" height=""75%""></img></td>
    <td width=300></td>
  </tr>
</table>
  ",90.0,,,,,,,,,,,,,,,,,,,,,,,,,1.0,,
49,0,,html-keyboard-response,49,398611,0.0-4.5-2.5,z9wbczifewk,2022-09-19 16:45:22.802,615dbec57d764bf5ab0a56e5,2,60,81,27,37,38,female,,,"
  <table>
  <tr height=300>
    <td width=300 height=300><img src=""static/images/cards/8_of_black_bolts.svg"" width=""175px"" height=""250px""></img></td>
    <td width=300 height=300><img src=""static/images/cards/back_of_black_bolts.svg"" width=""175px"" height=""250px""></img></td>
  </tr>
  <tr height=200>
    <td width=300><img src=""static/images/keys/z.svg"" width=""35%"" height=""75%""></img></td>
    <td width=300></td>
  </tr>
</table>
  ",,,,,,,,,,,,,,,,,,,,,,,,,,,,
50,0,,html-keyboard-response,50,400113,0.0-4.5-3.5,z9wbczifewk,2022-09-19 16:45:22.802,615dbec57d764bf5ab0a56e5,2,60,81,27,37,38,female,,,"<p style=""font-size:50px"">You win!
+10 points this round!</p>",,,,,,,,,,,,,,,,,,,,,,,,,,,,
51,0,,html-keyboard-response,51,400618,0.0-4.5-4.5,z9wbczifewk,2022-09-19 16:45:22.802,615dbec57d764bf5ab0a56e5,2,60,81,27,37,38,female,,,,,1.0,learning,5.0,Xnc,,black,,bolts,,,,Xnc,black,bolts,,0.0,0.0,1,left,1636.8,8.0,1.0,1.0,,,,
52,0,,html-keyboard-response,52,402120,0.0-4.6-0.6,z9wbczifewk,2022-09-19 16:45:22.802,615dbec57d764bf5ab0a56e5,2,60,81,27,37,38,female,,,"<img src=""static/images/cards/stack_of_black_stars.svg"" width=""175px"" height=""250px""></img>",,,,,,,,,,,,,,,,,,,,,,,,,,,,
53,0,,html-keyboard-response,53,404179,0.0-4.6-1.6,z9wbczifewk,2022-09-19 16:45:22.802,615dbec57d764bf5ab0a56e5,2,60,81,27,37,38,female,1556.7000000002,,"
  <table>
  <tr height=300>
    <td width=300 height=300><img src=""static/images/cards/back_of_black_stars.svg"" width=""175px"" height=""250px""></img></td>
    <td width=300 height=300><img src=""static/images/cards/back_of_black_stars.svg"" width=""175px"" height=""250px""></img></td>
  </tr>
  <tr height=200>
    <td width=300><img src=""static/images/keys/z.svg"" width=""35%"" height=""75%""></img></td>
    <td width=300><img src=""static/images/keys/m.svg"" width=""35%"" height=""75%""></img></td>
  </tr>
</table>
  ",77.0,,,,,,,,,,,,,,,,,,,,,,,,,1.0,,
54,0,,html-keyboard-response,54,405682,0.0-4.6-2.6,z9wbczifewk,2022-09-19 16:45:22.802,615dbec57d764bf5ab0a56e5,2,60,81,27,37,38,female,,,"
  <table>
  <tr height=300>
    <td width=300 height=300><img src=""static/images/cards/back_of_black_stars.svg"" width=""175px"" height=""250px""></img></td>
    <td width=300 height=300><img src=""static/images/cards/8_of_black_stars.svg"" width=""175px"" height=""250px""></img></td>
  </tr>
  <tr height=200>
    <td width=300><img src=""static/images/keys/z.svg"" width=""35%"" height=""75%""></img></td>
    <td width=300><img src=""static/images/keys/m.svg"" width=""35%"" height=""75%""></img></td>
  </tr>
</table>
  ",,,,,,,,,,,,,,,,,,,,,,,,,,,,
55,0,,html-keyboard-response,55,407183,0.0-4.6-3.6,z9wbczifewk,2022-09-19 16:45:22.802,615dbec57d764bf5ab0a56e5,2,60,81,27,37,38,female,,,"<p style=""font-size:50px"">You win!
+10 points this round!</p>",,,,,,,,,,,,,,,,,,,,,,,,,,,,
56,0,,html-keyboard-response,56,407689,0.0-4.6-4.6,z9wbczifewk,2022-09-19 16:45:22.802,615dbec57d764bf5ab0a56e5,2,60,81,27,37,38,female,,,,,1.0,learning,6.0,A,,black,,stars,,,,A,black,stars,,1.0,1.0,NA,right,1556.7000000002,8.0,1.0,1.0,,,,
57,0,,html-keyboard-response,57,409190,0.0-4.7-0.7,z9wbczifewk,2022-09-19 16:45:22.802,615dbec57d764bf5ab0a56e5,2,60,81,27,37,38,female,,,"<img src=""static/images/cards/stack_of_red_stars.svg"" width=""175px"" height=""250px""></img>",,,,,,,,,,,,,,,,,,,,,,,,,,,,
58,0,,html-keyboard-response,58,410943,0.0-4.7-1.7,z9wbczifewk,2022-09-19 16:45:22.802,615dbec57d764bf5ab0a56e5,2,60,81,27,37,38,female,1249.5,,"
  <table>
  <tr height=300>
    <td width=300 height=300><img src=""static/images/cards/back_of_red_stars.svg"" width=""175px"" height=""250px""></img></td>
    <td width=300 height=300><img src=""static/images/cards/back_of_red_stars.svg"" width=""175px"" height=""250px""></img></td>
  </tr>
  <tr height=200>
    <td width=300></td>
    <td width=300><img src=""static/images/keys/m.svg"" width=""35%"" height=""75%""></img></td>
  </tr>
</table>
  ",77.0,,,,,,,,,,,,,,,,,,,,,,,,,1.0,,
59,0,,html-keyboard-response,59,412445,0.0-4.7-2.7,z9wbczifewk,2022-09-19 16:45:22.802,615dbec57d764bf5ab0a56e5,2,60,81,27,37,38,female,,,"
  <table>
  <tr height=300>
    <td width=300 height=300><img src=""static/images/cards/back_of_red_stars.svg"" width=""175px"" height=""250px""></img></td>
    <td width=300 height=300><img src=""static/images/cards/2_of_red_stars.svg"" width=""175px"" height=""250px""></img></td>
  </tr>
  <tr height=200>
    <td width=300></td>
    <td width=300><img src=""static/images/keys/m.svg"" width=""35%"" height=""75%""></img></td>
  </tr>
</table>
  ",,,,,,,,,,,,,,,,,,,,,,,,,,,,
60,0,,html-keyboard-response,60,413947,0.0-4.7-3.7,z9wbczifewk,2022-09-19 16:45:22.802,615dbec57d764bf5ab0a56e5,2,60,81,27,37,38,female,,,"<p style=""font-size:50px"">You Lose!
No points this round.</p>",,,,,,,,,,,,,,,,,,,,,,,,,,,,
61,0,,html-keyboard-response,61,414453,0.0-4.7-4.7,z9wbczifewk,2022-09-19 16:45:22.802,615dbec57d764bf5ab0a56e5,2,60,81,27,37,38,female,,,,,1.0,learning,7.0,B,,red,,stars,,,,B,red,stars,,0.0,1.0,0,right,1249.5,2.0,0.0,0.0,,,,
62,0,,html-keyboard-response,62,415955,0.0-4.8-0.8,z9wbczifewk,2022-09-19 16:45:22.802,615dbec57d764bf5ab0a56e5,2,60,81,27,37,38,female,,,"<img src=""static/images/cards/stack_of_black_moons.svg"" width=""175px"" height=""250px""></img>",,,,,,,,,,,,,,,,,,,,,,,,,,,,
63,0,,html-keyboard-response,63,417984,0.0-4.8-1.8,z9wbczifewk,2022-09-19 16:45:22.802,615dbec57d764bf5ab0a56e5,2,60,81,27,37,38,female,1526.3,,"
  <table>
  <tr height=300>
    <td width=300 height=300><img src=""static/images/cards/back_of_black_moons.svg"" width=""175px"" height=""250px""></img></td>
    <td width=300 height=300><img src=""static/images/cards/back_of_black_moons.svg"" width=""175px"" height=""250px""></img></td>
  </tr>
  <tr height=200>
    <td width=300><img src=""static/images/keys/z.svg"" width=""35%"" height=""75%""></img></td>
    <td width=300><img src=""static/images/keys/m.svg"" width=""35%"" height=""75%""></img></td>
  </tr>
</table>
  ",77.0,,,,,,,,,,,,,,,,,,,,,,,,,1.0,,
64,0,,html-keyboard-response,64,419486,0.0-4.8-2.8,z9wbczifewk,2022-09-19 16:45:22.802,615dbec57d764bf5ab0a56e5,2,60,81,27,37,38,female,,,"
  <table>
  <tr height=300>
    <td width=300 height=300><img src=""static/images/cards/back_of_black_moons.svg"" width=""175px"" height=""250px""></img></td>
    <td width=300 height=300><img src=""static/images/cards/1_of_black_moons.svg"" width=""175px"" height=""250px""></img></td>
  </tr>
  <tr height=200>
    <td width=300><img src=""static/images/keys/z.svg"" width=""35%"" height=""75%""></img></td>
    <td width=300><img src=""static/images/keys/m.svg"" width=""35%"" height=""75%""></img></td>
  </tr>
</table>
  ",,,,,,,,,,,,,,,,,,,,,,,,,,,,
65,0,,html-keyboard-response,65,420988,0.0-4.8-3.8,z9wbczifewk,2022-09-19 16:45:22.802,615dbec57d764bf5ab0a56e5,2,60,81,27,37,38,female,,,"<p style=""font-size:50px"">You Lose!
No points this round.</p>",,,,,,,,,,,,,,,,,,,,,,,,,,,,
66,0,,html-keyboard-response,66,421493,0.0-4.8-4.8,z9wbczifewk,2022-09-19 16:45:22.802,615dbec57d764bf5ab0a56e5,2,60,81,27,37,38,female,,,,,1.0,learning,8.0,C,,black,,moons,,,,C,black,moons,,1.0,0.0,NA,right,1526.3,1.0,0.0,0.0,,,,
67,0,,html-keyboard-response,67,422997,0.0-4.9-0.9,z9wbczifewk,2022-09-19 16:45:22.802,615dbec57d764bf5ab0a56e5,2,60,81,27,37,38,female,,,"<img src=""static/images/cards/stack_of_red_moons.svg"" width=""175px"" height=""250px""></img>",,,,,,,,,,,,,,,,,,,,,,,,,,,,
68,0,,html-keyboard-response,68,425286,0.0-4.9-1.9,z9wbczifewk,2022-09-19 16:45:22.802,615dbec57d764bf5ab0a56e5,2,60,81,27,37,38,female,1786.2000000002,,"
  <table>
  <tr height=300>
    <td width=300 height=300><img src=""static/images/cards/back_of_red_moons.svg"" width=""175px"" height=""250px""></img></td>
    <td width=300 height=300><img src=""static/images/cards/back_of_red_moons.svg"" width=""175px"" height=""250px""></img></td>
  </tr>
  <tr height=200>
    <td width=300></td>
    <td width=300><img src=""static/images/keys/m.svg"" width=""35%"" height=""75%""></img></td>
  </tr>
</table>
  ",77.0,,,,,,,,,,,,,,,,,,,,,,,,,1.0,,
69,0,,html-keyboard-response,69,426790,0.0-4.9-2.9,z9wbczifewk,2022-09-19 16:45:22.802,615dbec57d764bf5ab0a56e5,2,60,81,27,37,38,female,,,"
  <table>
  <tr height=300>
    <td width=300 height=300><img src=""static/images/cards/back_of_red_moons.svg"" width=""175px"" height=""250px""></img></td>
    <td width=300 height=300><img src=""static/images/cards/1_of_red_moons.svg"" width=""175px"" height=""250px""></img></td>
  </tr>
  <tr height=200>
    <td width=300></td>
    <td width=300><img src=""static/images/keys/m.svg"" width=""35%"" height=""75%""></img></td>
  </tr>
</table>
  ",,,,,,,,,,,,,,,,,,,,,,,,,,,,
70,0,,html-keyboard-response,70,428292,0.0-4.9-3.9,z9wbczifewk,2022-09-19 16:45:22.802,615dbec57d764bf5ab0a56e5,2,60,81,27,37,38,female,,,"<p style=""font-size:50px"">You win!
+10 points this round!</p>",,,,,,,,,,,,,,,,,,,,,,,,,,,,
71,0,,html-keyboard-response,71,428797,0.0-4.9-4.9,z9wbczifewk,2022-09-19 16:45:22.802,615dbec57d764bf5ab0a56e5,2,60,81,27,37,38,female,,,,,1.0,learning,9.0,D,,red,,moons,,,,D,red,moons,,0.0,0.0,0,right,1786.2000000002,1.0,0.0,1.0,,,,
72,0,,html-keyboard-response,72,430299,0.0-4.10-0.10,z9wbczifewk,2022-09-19 16:45:22.802,615dbec57d764bf5ab0a56e5,2,60,81,27,37,38,female,,,"<img src=""static/images/cards/stack_of_red_bolts.svg"" width=""175px"" height=""250px""></img>",,,,,,,,,,,,,,,,,,,,,,,,,,,,
73,0,,html-keyboard-response,73,431949,0.0-4.10-1.10,z9wbczifewk,2022-09-19 16:45:22.802,615dbec57d764bf5ab0a56e5,2,60,81,27,37,38,female,1146.5999999999,,"
  <table>
  <tr height=300>
    <td width=300 height=300><img src=""static/images/cards/back_of_red_bolts.svg"" width=""175px"" height=""250px""></img></td>
    <td width=300 height=300><img src=""static/images/cards/back_of_red_bolts.svg"" width=""175px"" height=""250px""></img></td>
  </tr>
  <tr height=200>
    <td width=300><img src=""static/images/keys/z.svg"" width=""35%"" height=""75%""></img></td>
    <td width=300><img src=""static/images/keys/m.svg"" width=""35%"" height=""75%""></img></td>
  </tr>
</table>
  ",90.0,,,,,,,,,,,,,,,,,,,,,,,,,1.0,,
74,0,,html-keyboard-response,74,433452,0.0-4.10-2.10,z9wbczifewk,2022-09-19 16:45:22.802,615dbec57d764bf5ab0a56e5,2,60,81,27,37,38,female,,,"
  <table>
  <tr height=300>
    <td width=300 height=300><img src=""static/images/cards/6_of_red_bolts.svg"" width=""175px"" height=""250px""></img></td>
    <td width=300 height=300><img src=""static/images/cards/back_of_red_bolts.svg"" width=""175px"" height=""250px""></img></td>
  </tr>
  <tr height=200>
    <td width=300><img src=""static/images/keys/z.svg"" width=""35%"" height=""75%""></img></td>
    <td width=300><img src=""static/images/keys/m.svg"" width=""35%"" height=""75%""></img></td>
  </tr>
</table>
  ",,,,,,,,,,,,,,,,,,,,,,,,,,,,
75,0,,html-keyboard-response,75,434953,0.0-4.10-3.10,z9wbczifewk,2022-09-19 16:45:22.802,615dbec57d764bf5ab0a56e5,2,60,81,27,37,38,female,,,"<p style=""font-size:50px"">You win!
+10 points this round!</p>",,,,,,,,,,,,,,,,,,,,,,,,,,,,
76,0,,html-keyboard-response,76,435459,0.0-4.10-4.10,z9wbczifewk,2022-09-19 16:45:22.802,615dbec57d764bf5ab0a56e5,2,60,81,27,37,38,female,,,,,1.0,learning,10.0,Xc,,red,,bolts,,,,Xc,red,bolts,,1.0,0.0,NA,left,1146.5999999999,6.0,1.0,1.0,,,,
77,0,,html-keyboard-response,77,436960,0.0-4.11-0.11,z9wbczifewk,2022-09-19 16:45:22.802,615dbec57d764bf5ab0a56e5,2,60,81,27,37,38,female,,,"<img src=""static/images/cards/stack_of_black_bolts.svg"" width=""175px"" height=""250px""></img>",,,,,,,,,,,,,,,,,,,,,,,,,,,,
78,0,,html-keyboard-response,78,438582,0.0-4.11-1.11,z9wbczifewk,2022-09-19 16:45:22.802,615dbec57d764bf5ab0a56e5,2,60,81,27,37,38,female,1119.8,,"
  <table>
  <tr height=300>
    <td width=300 height=300><img src=""static/images/cards/back_of_black_bolts.svg"" width=""175px"" height=""250px""></img></td>
    <td width=300 height=300><img src=""static/images/cards/back_of_black_bolts.svg"" width=""175px"" height=""250px""></img></td>
  </tr>
  <tr height=200>
    <td width=300><img src=""static/images/keys/z.svg"" width=""35%"" height=""75%""></img></td>
    <td width=300></td>
  </tr>
</table>
  ",90.0,,,,,,,,,,,,,,,,,,,,,,,,,1.0,,
79,0,,html-keyboard-response,79,440085,0.0-4.11-2.11,z9wbczifewk,2022-09-19 16:45:22.802,615dbec57d764bf5ab0a56e5,2,60,81,27,37,38,female,,,"
  <table>
  <tr height=300>
    <td width=300 height=300><img src=""static/images/cards/10_of_black_bolts.svg"" width=""175px"" height=""250px""></img></td>
    <td width=300 height=300><img src=""static/images/cards/back_of_black_bolts.svg"" width=""175px"" height=""250px""></img></td>
  </tr>
  <tr height=200>
    <td width=300><img src=""static/images/keys/z.svg"" width=""35%"" height=""75%""></img></td>
    <td width=300></td>
  </tr>
</table>
  ",,,,,,,,,,,,,,,,,,,,,,,,,,,,
80,0,,html-keyboard-response,80,441586,0.0-4.11-3.11,z9wbczifewk,2022-09-19 16:45:22.802,615dbec57d764bf5ab0a56e5,2,60,81,27,37,38,female,,,"<p style=""font-size:50px"">You win!
+10 points this round!</p>",,,,,,,,,,,,,,,,,,,,,,,,,,,,
81,0,,html-keyboard-response,81,442091,0.0-4.11-4.11,z9wbczifewk,2022-09-19 16:45:22.802,615dbec57d764bf5ab0a56e5,2,60,81,27,37,38,female,,,,,1.0,learning,11.0,Xnc,,black,,bolts,,,,Xnc,black,bolts,,0.0,0.0,1,left,1119.8,10.0,1.0,1.0,,,,
82,0,,html-keyboard-response,82,443593,0.0-4.12-0.12,z9wbczifewk,2022-09-19 16:45:22.802,615dbec57d764bf5ab0a56e5,2,60,81,27,37,38,female,,,"<img src=""static/images/cards/stack_of_black_stars.svg"" width=""175px"" height=""250px""></img>",,,,,,,,,,,,,,,,,,,,,,,,,,,,
83,0,,html-keyboard-response,83,445342,0.0-4.12-1.12,z9wbczifewk,2022-09-19 16:45:22.802,615dbec57d764bf5ab0a56e5,2,60,81,27,37,38,female,1246.0,,"
  <table>
  <tr height=300>
    <td width=300 height=300><img src=""static/images/cards/back_of_black_stars.svg"" width=""175px"" height=""250px""></img></td>
    <td width=300 height=300><img src=""static/images/cards/back_of_black_stars.svg"" width=""175px"" height=""250px""></img></td>
  </tr>
  <tr height=200>
    <td width=300><img src=""static/images/keys/z.svg"" width=""35%"" height=""75%""></img></td>
    <td width=300><img src=""static/images/keys/m.svg"" width=""35%"" height=""75%""></img></td>
  </tr>
</table>
  ",77.0,,,,,,,,,,,,,,,,,,,,,,,,,1.0,,
84,0,,html-keyboard-response,84,446845,0.0-4.12-2.12,z9wbczifewk,2022-09-19 16:45:22.802,615dbec57d764bf5ab0a56e5,2,60,81,27,37,38,female,,,"
  <table>
  <tr height=300>
    <td width=300 height=300><img src=""static/images/cards/back_of_black_stars.svg"" width=""175px"" height=""250px""></img></td>
    <td width=300 height=300><img src=""static/images/cards/7_of_black_stars.svg"" width=""175px"" height=""250px""></img></td>
  </tr>
  <tr height=200>
    <td width=300><img src=""static/images/keys/z.svg"" width=""35%"" height=""75%""></img></td>
    <td width=300><img src=""static/images/keys/m.svg"" width=""35%"" height=""75%""></img></td>
  </tr>
</table>
  ",,,,,,,,,,,,,,,,,,,,,,,,,,,,
85,0,,html-keyboard-response,85,448346,0.0-4.12-3.12,z9wbczifewk,2022-09-19 16:45:22.802,615dbec57d764bf5ab0a56e5,2,60,81,27,37,38,female,,,"<p style=""font-size:50px"">You win!
+10 points this round!</p>",,,,,,,,,,,,,,,,,,,,,,,,,,,,
86,0,,html-keyboard-response,86,448851,0.0-4.12-4.12,z9wbczifewk,2022-09-19 16:45:22.802,615dbec57d764bf5ab0a56e5,2,60,81,27,37,38,female,,,,,1.0,learning,12.0,A,,black,,stars,,,,A,black,stars,,1.0,1.0,NA,right,1246.0,7.0,1.0,1.0,,,,
87,0,,html-keyboard-response,87,450353,0.0-4.13-0.13,z9wbczifewk,2022-09-19 16:45:22.802,615dbec57d764bf5ab0a56e5,2,60,81,27,37,38,female,,,"<img src=""static/images/cards/stack_of_red_stars.svg"" width=""175px"" height=""250px""></img>",,,,,,,,,,,,,,,,,,,,,,,,,,,,
88,0,,html-keyboard-response,88,451876,0.0-4.13-1.13,z9wbczifewk,2022-09-19 16:45:22.802,615dbec57d764bf5ab0a56e5,2,60,81,27,37,38,female,1020.6000000001,,"
  <table>
  <tr height=300>
    <td width=300 height=300><img src=""static/images/cards/back_of_red_stars.svg"" width=""175px"" height=""250px""></img></td>
    <td width=300 height=300><img src=""static/images/cards/back_of_red_stars.svg"" width=""175px"" height=""250px""></img></td>
  </tr>
  <tr height=200>
    <td width=300><img src=""static/images/keys/z.svg"" width=""35%"" height=""75%""></img></td>
    <td width=300></td>
  </tr>
</table>
  ",90.0,,,,,,,,,,,,,,,,,,,,,,,,,1.0,,
89,0,,html-keyboard-response,89,453379,0.0-4.13-2.13,z9wbczifewk,2022-09-19 16:45:22.802,615dbec57d764bf5ab0a56e5,2,60,81,27,37,38,female,,,"
  <table>
  <tr height=300>
    <td width=300 height=300><img src=""static/images/cards/9_of_red_stars.svg"" width=""175px"" height=""250px""></img></td>
    <td width=300 height=300><img src=""static/images/cards/back_of_red_stars.svg"" width=""175px"" height=""250px""></img></td>
  </tr>
  <tr height=200>
    <td width=300><img src=""static/images/keys/z.svg"" width=""35%"" height=""75%""></img></td>
    <td width=300></td>
  </tr>
</table>
  ",,,,,,,,,,,,,,,,,,,,,,,,,,,,
90,0,,html-keyboard-response,90,454880,0.0-4.13-3.13,z9wbczifewk,2022-09-19 16:45:22.802,615dbec57d764bf5ab0a56e5,2,60,81,27,37,38,female,,,"<p style=""font-size:50px"">You win!
+10 points this round!</p>",,,,,,,,,,,,,,,,,,,,,,,,,,,,
91,0,,html-keyboard-response,91,455385,0.0-4.13-4.13,z9wbczifewk,2022-09-19 16:45:22.802,615dbec57d764bf5ab0a56e5,2,60,81,27,37,38,female,,,,,1.0,learning,13.0,B,,red,,stars,,,,B,red,stars,,0.0,1.0,1,left,1020.6000000001,9.0,1.0,1.0,,,,
92,0,,html-keyboard-response,92,456887,0.0-4.14-0.14,z9wbczifewk,2022-09-19 16:45:22.802,615dbec57d764bf5ab0a56e5,2,60,81,27,37,38,female,,,"<img src=""static/images/cards/stack_of_black_moons.svg"" width=""175px"" height=""250px""></img>",,,,,,,,,,,,,,,,,,,,,,,,,,,,
93,0,,html-keyboard-response,93,458627,0.0-4.14-1.14,z9wbczifewk,2022-09-19 16:45:22.802,615dbec57d764bf5ab0a56e5,2,60,81,27,37,38,female,1237.5999999999,,"
  <table>
  <tr height=300>
    <td width=300 height=300><img src=""static/images/cards/back_of_black_moons.svg"" width=""175px"" height=""250px""></img></td>
    <td width=300 height=300><img src=""static/images/cards/back_of_black_moons.svg"" width=""175px"" height=""250px""></img></td>
  </tr>
  <tr height=200>
    <td width=300><img src=""static/images/keys/z.svg"" width=""35%"" height=""75%""></img></td>
    <td width=300><img src=""static/images/keys/m.svg"" width=""35%"" height=""75%""></img></td>
  </tr>
</table>
  ",90.0,,,,,,,,,,,,,,,,,,,,,,,,,1.0,,
94,0,,html-keyboard-response,94,460130,0.0-4.14-2.14,z9wbczifewk,2022-09-19 16:45:22.802,615dbec57d764bf5ab0a56e5,2,60,81,27,37,38,female,,,"
  <table>
  <tr height=300>
    <td width=300 height=300><img src=""static/images/cards/6_of_black_moons.svg"" width=""175px"" height=""250px""></img></td>
    <td width=300 height=300><img src=""static/images/cards/back_of_black_moons.svg"" width=""175px"" height=""250px""></img></td>
  </tr>
  <tr height=200>
    <td width=300><img src=""static/images/keys/z.svg"" width=""35%"" height=""75%""></img></td>
    <td width=300><img src=""static/images/keys/m.svg"" width=""35%"" height=""75%""></img></td>
  </tr>
</table>
  ",,,,,,,,,,,,,,,,,,,,,,,,,,,,
95,0,,html-keyboard-response,95,461632,0.0-4.14-3.14,z9wbczifewk,2022-09-19 16:45:22.802,615dbec57d764bf5ab0a56e5,2,60,81,27,37,38,female,,,"<p style=""font-size:50px"">You win!
+10 points this round!</p>",,,,,,,,,,,,,,,,,,,,,,,,,,,,
96,0,,html-keyboard-response,96,462137,0.0-4.14-4.14,z9wbczifewk,2022-09-19 16:45:22.802,615dbec57d764bf5ab0a56e5,2,60,81,27,37,38,female,,,,,1.0,learning,14.0,C,,black,,moons,,,,C,black,moons,,1.0,0.0,NA,left,1237.5999999999,6.0,1.0,1.0,,,,
97,0,,html-keyboard-response,97,463639,0.0-4.15-0.15,z9wbczifewk,2022-09-19 16:45:22.802,615dbec57d764bf5ab0a56e5,2,60,81,27,37,38,female,,,"<img src=""static/images/cards/stack_of_red_moons.svg"" width=""175px"" height=""250px""></img>",,,,,,,,,,,,,,,,,,,,,,,,,,,,
98,0,,html-keyboard-response,98,465143,0.0-4.15-1.15,z9wbczifewk,2022-09-19 16:45:22.802,615dbec57d764bf5ab0a56e5,2,60,81,27,37,38,female,1002.5,,"
  <table>
  <tr height=300>
    <td width=300 height=300><img src=""static/images/cards/back_of_red_moons.svg"" width=""175px"" height=""250px""></img></td>
    <td width=300 height=300><img src=""static/images/cards/back_of_red_moons.svg"" width=""175px"" height=""250px""></img></td>
  </tr>
  <tr height=200>
    <td width=300></td>
    <td width=300><img src=""static/images/keys/m.svg"" width=""35%"" height=""75%""></img></td>
  </tr>
</table>
  ",77.0,,,,,,,,,,,,,,,,,,,,,,,,,1.0,,
99,0,,html-keyboard-response,99,466646,0.0-4.15-2.15,z9wbczifewk,2022-09-19 16:45:22.802,615dbec57d764bf5ab0a56e5,2,60,81,27,37,38,female,,,"
  <table>
  <tr height=300>
    <td width=300 height=300><img src=""static/images/cards/back_of_red_moons.svg"" width=""175px"" height=""250px""></img></td>
    <td width=300 height=300><img src=""static/images/cards/7_of_red_moons.svg"" width=""175px"" height=""250px""></img></td>
  </tr>
  <tr height=200>
    <td width=300></td>
    <td width=300><img src=""static/images/keys/m.svg"" width=""35%"" height=""75%""></img></td>
  </tr>
</table>
  ",,,,,,,,,,,,,,,,,,,,,,,,,,,,
100,0,,html-keyboard-response,100,468147,0.0-4.15-3.15,z9wbczifewk,2022-09-19 16:45:22.802,615dbec57d764bf5ab0a56e5,2,60,81,27,37,38,female,,,"<p style=""font-size:50px"">You Lose!
No points this round.</p>",,,,,,,,,,,,,,,,,,,,,,,,,,,,
101,0,,html-keyboard-response,101,468652,0.0-4.15-4.15,z9wbczifewk,2022-09-19 16:45:22.802,615dbec57d764bf5ab0a56e5,2,60,81,27,37,38,female,,,,,1.0,learning,15.0,D,,red,,moons,,,,D,red,moons,,0.0,0.0,0,right,1002.5,7.0,1.0,0.0,,,,
102,0,,html-keyboard-response,102,470154,0.0-4.16-0.16,z9wbczifewk,2022-09-19 16:45:22.802,615dbec57d764bf5ab0a56e5,2,60,81,27,37,38,female,,,"<img src=""static/images/cards/stack_of_red_bolts.svg"" width=""175px"" height=""250px""></img>",,,,,,,,,,,,,,,,,,,,,,,,,,,,
103,0,,html-keyboard-response,103,471815,0.0-4.16-1.16,z9wbczifewk,2022-09-19 16:45:22.802,615dbec57d764bf5ab0a56e5,2,60,81,27,37,38,female,1158.0999999999,,"
  <table>
  <tr height=300>
    <td width=300 height=300><img src=""static/images/cards/back_of_red_bolts.svg"" width=""175px"" height=""250px""></img></td>
    <td width=300 height=300><img src=""static/images/cards/back_of_red_bolts.svg"" width=""175px"" height=""250px""></img></td>
  </tr>
  <tr height=200>
    <td width=300><img src=""static/images/keys/z.svg"" width=""35%"" height=""75%""></img></td>
    <td width=300><img src=""static/images/keys/m.svg"" width=""35%"" height=""75%""></img></td>
  </tr>
</table>
  ",77.0,,,,,,,,,,,,,,,,,,,,,,,,,1.0,,
104,0,,html-keyboard-response,104,473317,0.0-4.16-2.16,z9wbczifewk,2022-09-19 16:45:22.802,615dbec57d764bf5ab0a56e5,2,60,81,27,37,38,female,,,"
  <table>
  <tr height=300>
    <td width=300 height=300><img src=""static/images/cards/back_of_red_bolts.svg"" width=""175px"" height=""250px""></img></td>
    <td width=300 height=300><img src=""static/images/cards/4_of_red_bolts.svg"" width=""175px"" height=""250px""></img></td>
  </tr>
  <tr height=200>
    <td width=300><img src=""static/images/keys/z.svg"" width=""35%"" height=""75%""></img></td>
    <td width=300><img src=""static/images/keys/m.svg"" width=""35%"" height=""75%""></img></td>
  </tr>
</table>
  ",,,,,,,,,,,,,,,,,,,,,,,,,,,,
105,0,,html-keyboard-response,105,474819,0.0-4.16-3.16,z9wbczifewk,2022-09-19 16:45:22.802,615dbec57d764bf5ab0a56e5,2,60,81,27,37,38,female,,,"<p style=""font-size:50px"">You win!
+10 points this round!</p>",,,,,,,,,,,,,,,,,,,,,,,,,,,,
106,0,,html-keyboard-response,106,475325,0.0-4.16-4.16,z9wbczifewk,2022-09-19 16:45:22.802,615dbec57d764bf5ab0a56e5,2,60,81,27,37,38,female,,,,,1.0,learning,16.0,Xc,,red,,bolts,,,,Xc,red,bolts,,1.0,0.0,NA,right,1158.0999999999,4.0,0.0,1.0,,,,
107,0,,html-keyboard-response,107,476826,0.0-4.17-0.17,z9wbczifewk,2022-09-19 16:45:22.802,615dbec57d764bf5ab0a56e5,2,60,81,27,37,38,female,,,"<img src=""static/images/cards/stack_of_black_bolts.svg"" width=""175px"" height=""250px""></img>",,,,,,,,,,,,,,,,,,,,,,,,,,,,
108,0,,html-keyboard-response,108,478205,0.0-4.17-1.17,z9wbczifewk,2022-09-19 16:45:22.802,615dbec57d764bf5ab0a56e5,2,60,81,27,37,38,female,875.8999999999,,"
  <table>
  <tr height=300>
    <td width=300 height=300><img src=""static/images/cards/back_of_black_bolts.svg"" width=""175px"" height=""250px""></img></td>
    <td width=300 height=300><img src=""static/images/cards/back_of_black_bolts.svg"" width=""175px"" height=""250px""></img></td>
  </tr>
  <tr height=200>
    <td width=300><img src=""static/images/keys/z.svg"" width=""35%"" height=""75%""></img></td>
    <td width=300></td>
  </tr>
</table>
  ",90.0,,,,,,,,,,,,,,,,,,,,,,,,,1.0,,
109,0,,html-keyboard-response,109,479707,0.0-4.17-2.17,z9wbczifewk,2022-09-19 16:45:22.802,615dbec57d764bf5ab0a56e5,2,60,81,27,37,38,female,,,"
  <table>
  <tr height=300>
    <td width=300 height=300><img src=""static/images/cards/3_of_black_bolts.svg"" width=""175px"" height=""250px""></img></td>
    <td width=300 height=300><img src=""static/images/cards/back_of_black_bolts.svg"" width=""175px"" height=""250px""></img></td>
  </tr>
  <tr height=200>
    <td width=300><img src=""static/images/keys/z.svg"" width=""35%"" height=""75%""></img></td>
    <td width=300></td>
  </tr>
</table>
  ",,,,,,,,,,,,,,,,,,,,,,,,,,,,
110,0,,html-keyboard-response,110,481208,0.0-4.17-3.17,z9wbczifewk,2022-09-19 16:45:22.802,615dbec57d764bf5ab0a56e5,2,60,81,27,37,38,female,,,"<p style=""font-size:50px"">You win!
+10 points this round!</p>",,,,,,,,,,,,,,,,,,,,,,,,,,,,
111,0,,html-keyboard-response,111,481714,0.0-4.17-4.17,z9wbczifewk,2022-09-19 16:45:22.802,615dbec57d764bf5ab0a56e5,2,60,81,27,37,38,female,,,,,1.0,learning,17.0,Xnc,,black,,bolts,,,,Xnc,black,bolts,,0.0,0.0,1,left,875.8999999999,3.0,0.0,1.0,,,,
112,0,,html-keyboard-response,112,483215,0.0-4.18-0.18,z9wbczifewk,2022-09-19 16:45:22.802,615dbec57d764bf5ab0a56e5,2,60,81,27,37,38,female,,,"<img src=""static/images/cards/stack_of_black_stars.svg"" width=""175px"" height=""250px""></img>",,,,,,,,,,,,,,,,,,,,,,,,,,,,
113,0,,html-keyboard-response,113,485136,0.0-4.18-1.18,z9wbczifewk,2022-09-19 16:45:22.802,615dbec57d764bf5ab0a56e5,2,60,81,27,37,38,female,1418.5,,"
  <table>
  <tr height=300>
    <td width=300 height=300><img src=""static/images/cards/back_of_black_stars.svg"" width=""175px"" height=""250px""></img></td>
    <td width=300 height=300><img src=""static/images/cards/back_of_black_stars.svg"" width=""175px"" height=""250px""></img></td>
  </tr>
  <tr height=200>
    <td width=300><img src=""static/images/keys/z.svg"" width=""35%"" height=""75%""></img></td>
    <td width=300><img src=""static/images/keys/m.svg"" width=""35%"" height=""75%""></img></td>
  </tr>
</table>
  ",77.0,,,,,,,,,,,,,,,,,,,,,,,,,1.0,,
114,0,,html-keyboard-response,114,486639,0.0-4.18-2.18,z9wbczifewk,2022-09-19 16:45:22.802,615dbec57d764bf5ab0a56e5,2,60,81,27,37,38,female,,,"
  <table>
  <tr height=300>
    <td width=300 height=300><img src=""static/images/cards/back_of_black_stars.svg"" width=""175px"" height=""250px""></img></td>
    <td width=300 height=300><img src=""static/images/cards/2_of_black_stars.svg"" width=""175px"" height=""250px""></img></td>
  </tr>
  <tr height=200>
    <td width=300><img src=""static/images/keys/z.svg"" width=""35%"" height=""75%""></img></td>
    <td width=300><img src=""static/images/keys/m.svg"" width=""35%"" height=""75%""></img></td>
  </tr>
</table>
  ",,,,,,,,,,,,,,,,,,,,,,,,,,,,
115,0,,html-keyboard-response,115,488141,0.0-4.18-3.18,z9wbczifewk,2022-09-19 16:45:22.802,615dbec57d764bf5ab0a56e5,2,60,81,27,37,38,female,,,"<p style=""font-size:50px"">You Lose!
No points this round.</p>",,,,,,,,,,,,,,,,,,,,,,,,,,,,
116,0,,html-keyboard-response,116,488646,0.0-4.18-4.18,z9wbczifewk,2022-09-19 16:45:22.802,615dbec57d764bf5ab0a56e5,2,60,81,27,37,38,female,,,,,1.0,learning,18.0,A,,black,,stars,,,,A,black,stars,,1.0,1.0,NA,right,1418.5,2.0,0.0,0.0,,,,
117,0,,html-keyboard-response,117,490148,0.0-4.19-0.19,z9wbczifewk,2022-09-19 16:45:22.802,615dbec57d764bf5ab0a56e5,2,60,81,27,37,38,female,,,"<img src=""static/images/cards/stack_of_red_stars.svg"" width=""175px"" height=""250px""></img>",,,,,,,,,,,,,,,,,,,,,,,,,,,,
118,0,,html-keyboard-response,118,491640,0.0-4.19-1.19,z9wbczifewk,2022-09-19 16:45:22.802,615dbec57d764bf5ab0a56e5,2,60,81,27,37,38,female,987.9000000001,,"
  <table>
  <tr height=300>
    <td width=300 height=300><img src=""static/images/cards/back_of_red_stars.svg"" width=""175px"" height=""250px""></img></td>
    <td width=300 height=300><img src=""static/images/cards/back_of_red_stars.svg"" width=""175px"" height=""250px""></img></td>
  </tr>
  <tr height=200>
    <td width=300><img src=""static/images/keys/z.svg"" width=""35%"" height=""75%""></img></td>
    <td width=300></td>
  </tr>
</table>
  ",90.0,,,,,,,,,,,,,,,,,,,,,,,,,1.0,,
119,0,,html-keyboard-response,119,493142,0.0-4.19-2.19,z9wbczifewk,2022-09-19 16:45:22.802,615dbec57d764bf5ab0a56e5,2,60,81,27,37,38,female,,,"
  <table>
  <tr height=300>
    <td width=300 height=300><img src=""static/images/cards/1_of_red_stars.svg"" width=""175px"" height=""250px""></img></td>
    <td width=300 height=300><img src=""static/images/cards/back_of_red_stars.svg"" width=""175px"" height=""250px""></img></td>
  </tr>
  <tr height=200>
    <td width=300><img src=""static/images/keys/z.svg"" width=""35%"" height=""75%""></img></td>
    <td width=300></td>
  </tr>
</table>
  ",,,,,,,,,,,,,,,,,,,,,,,,,,,,
120,0,,html-keyboard-response,120,494644,0.0-4.19-3.19,z9wbczifewk,2022-09-19 16:45:22.802,615dbec57d764bf5ab0a56e5,2,60,81,27,37,38,female,,,"<p style=""font-size:50px"">You Lose!
No points this round.</p>",,,,,,,,,,,,,,,,,,,,,,,,,,,,
121,0,,html-keyboard-response,121,495150,0.0-4.19-4.19,z9wbczifewk,2022-09-19 16:45:22.802,615dbec57d764bf5ab0a56e5,2,60,81,27,37,38,female,,,,,1.0,learning,19.0,B,,red,,stars,,,,B,red,stars,,0.0,1.0,1,left,987.9000000001,1.0,0.0,0.0,,,,
122,0,,html-keyboard-response,122,496651,0.0-4.20-0.20,z9wbczifewk,2022-09-19 16:45:22.802,615dbec57d764bf5ab0a56e5,2,60,81,27,37,38,female,,,"<img src=""static/images/cards/stack_of_black_moons.svg"" width=""175px"" height=""250px""></img>",,,,,,,,,,,,,,,,,,,,,,,,,,,,
123,0,,html-keyboard-response,123,498648,0.0-4.20-1.20,z9wbczifewk,2022-09-19 16:45:22.802,615dbec57d764bf5ab0a56e5,2,60,81,27,37,38,female,1494.0,,"
  <table>
  <tr height=300>
    <td width=300 height=300><img src=""static/images/cards/back_of_black_moons.svg"" width=""175px"" height=""250px""></img></td>
    <td width=300 height=300><img src=""static/images/cards/back_of_black_moons.svg"" width=""175px"" height=""250px""></img></td>
  </tr>
  <tr height=200>
    <td width=300><img src=""static/images/keys/z.svg"" width=""35%"" height=""75%""></img></td>
    <td width=300><img src=""static/images/keys/m.svg"" width=""35%"" height=""75%""></img></td>
  </tr>
</table>
  ",77.0,,,,,,,,,,,,,,,,,,,,,,,,,1.0,,
124,0,,html-keyboard-response,124,500150,0.0-4.20-2.20,z9wbczifewk,2022-09-19 16:45:22.802,615dbec57d764bf5ab0a56e5,2,60,81,27,37,38,female,,,"
  <table>
  <tr height=300>
    <td width=300 height=300><img src=""static/images/cards/back_of_black_moons.svg"" width=""175px"" height=""250px""></img></td>
    <td width=300 height=300><img src=""static/images/cards/10_of_black_moons.svg"" width=""175px"" height=""250px""></img></td>
  </tr>
  <tr height=200>
    <td width=300><img src=""static/images/keys/z.svg"" width=""35%"" height=""75%""></img></td>
    <td width=300><img src=""static/images/keys/m.svg"" width=""35%"" height=""75%""></img></td>
  </tr>
</table>
  ",,,,,,,,,,,,,,,,,,,,,,,,,,,,
125,0,,html-keyboard-response,125,501652,0.0-4.20-3.20,z9wbczifewk,2022-09-19 16:45:22.802,615dbec57d764bf5ab0a56e5,2,60,81,27,37,38,female,,,"<p style=""font-size:50px"">You Lose!
No points this round.</p>",,,,,,,,,,,,,,,,,,,,,,,,,,,,
126,0,,html-keyboard-response,126,502157,0.0-4.20-4.20,z9wbczifewk,2022-09-19 16:45:22.802,615dbec57d764bf5ab0a56e5,2,60,81,27,37,38,female,,,,,1.0,learning,20.0,C,,black,,moons,,,,C,black,moons,,1.0,0.0,NA,right,1494.0,10.0,1.0,0.0,,,,
127,0,,html-keyboard-response,127,503659,0.0-4.21-0.21,z9wbczifewk,2022-09-19 16:45:22.802,615dbec57d764bf5ab0a56e5,2,60,81,27,37,38,female,,,"<img src=""static/images/cards/stack_of_red_moons.svg"" width=""175px"" height=""250px""></img>",,,,,,,,,,,,,,,,,,,,,,,,,,,,
128,0,,html-keyboard-response,128,505588,0.0-4.21-1.21,z9wbczifewk,2022-09-19 16:45:22.802,615dbec57d764bf5ab0a56e5,2,60,81,27,37,38,female,1426.5999999999,,"
  <table>
  <tr height=300>
    <td width=300 height=300><img src=""static/images/cards/back_of_red_moons.svg"" width=""175px"" height=""250px""></img></td>
    <td width=300 height=300><img src=""static/images/cards/back_of_red_moons.svg"" width=""175px"" height=""250px""></img></td>
  </tr>
  <tr height=200>
    <td width=300><img src=""static/images/keys/z.svg"" width=""35%"" height=""75%""></img></td>
    <td width=300></td>
  </tr>
</table>
  ",90.0,,,,,,,,,,,,,,,,,,,,,,,,,1.0,,
129,0,,html-keyboard-response,129,507089,0.0-4.21-2.21,z9wbczifewk,2022-09-19 16:45:22.802,615dbec57d764bf5ab0a56e5,2,60,81,27,37,38,female,,,"
  <table>
  <tr height=300>
    <td width=300 height=300><img src=""static/images/cards/6_of_red_moons.svg"" width=""175px"" height=""250px""></img></td>
    <td width=300 height=300><img src=""static/images/cards/back_of_red_moons.svg"" width=""175px"" height=""250px""></img></td>
  </tr>
  <tr height=200>
    <td width=300><img src=""static/images/keys/z.svg"" width=""35%"" height=""75%""></img></td>
    <td width=300></td>
  </tr>
</table>
  ",,,,,,,,,,,,,,,,,,,,,,,,,,,,
130,0,,html-keyboard-response,130,508591,0.0-4.21-3.21,z9wbczifewk,2022-09-19 16:45:22.802,615dbec57d764bf5ab0a56e5,2,60,81,27,37,38,female,,,"<p style=""font-size:50px"">You win!
+10 points this round!</p>",,,,,,,,,,,,,,,,,,,,,,,,,,,,
131,0,,html-keyboard-response,131,509096,0.0-4.21-4.21,z9wbczifewk,2022-09-19 16:45:22.802,615dbec57d764bf5ab0a56e5,2,60,81,27,37,38,female,,,,,1.0,learning,21.0,D,,red,,moons,,,,D,red,moons,,0.0,0.0,1,left,1426.5999999999,6.0,1.0,1.0,,,,
132,0,,html-keyboard-response,132,510598,0.0-4.22-0.22,z9wbczifewk,2022-09-19 16:45:22.802,615dbec57d764bf5ab0a56e5,2,60,81,27,37,38,female,,,"<img src=""static/images/cards/stack_of_red_bolts.svg"" width=""175px"" height=""250px""></img>",,,,,,,,,,,,,,,,,,,,,,,,,,,,
133,0,,html-keyboard-response,133,512116,0.0-4.22-1.22,z9wbczifewk,2022-09-19 16:45:22.802,615dbec57d764bf5ab0a56e5,2,60,81,27,37,38,female,1015.7,,"
  <table>
  <tr height=300>
    <td width=300 height=300><img src=""static/images/cards/back_of_red_bolts.svg"" width=""175px"" height=""250px""></img></td>
    <td width=300 height=300><img src=""static/images/cards/back_of_red_bolts.svg"" width=""175px"" height=""250px""></img></td>
  </tr>
  <tr height=200>
    <td width=300><img src=""static/images/keys/z.svg"" width=""35%"" height=""75%""></img></td>
    <td width=300><img src=""static/images/keys/m.svg"" width=""35%"" height=""75%""></img></td>
  </tr>
</table>
  ",90.0,,,,,,,,,,,,,,,,,,,,,,,,,1.0,,
134,0,,html-keyboard-response,134,513619,0.0-4.22-2.22,z9wbczifewk,2022-09-19 16:45:22.802,615dbec57d764bf5ab0a56e5,2,60,81,27,37,38,female,,,"
  <table>
  <tr height=300>
    <td width=300 height=300><img src=""static/images/cards/2_of_red_bolts.svg"" width=""175px"" height=""250px""></img></td>
    <td width=300 height=300><img src=""static/images/cards/back_of_red_bolts.svg"" width=""175px"" height=""250px""></img></td>
  </tr>
  <tr height=200>
    <td width=300><img src=""static/images/keys/z.svg"" width=""35%"" height=""75%""></img></td>
    <td width=300><img src=""static/images/keys/m.svg"" width=""35%"" height=""75%""></img></td>
  </tr>
</table>
  ",,,,,,,,,,,,,,,,,,,,,,,,,,,,
135,0,,html-keyboard-response,135,515121,0.0-4.22-3.22,z9wbczifewk,2022-09-19 16:45:22.802,615dbec57d764bf5ab0a56e5,2,60,81,27,37,38,female,,,"<p style=""font-size:50px"">You win!
+10 points this round!</p>",,,,,,,,,,,,,,,,,,,,,,,,,,,,
136,0,,html-keyboard-response,136,515626,0.0-4.22-4.22,z9wbczifewk,2022-09-19 16:45:22.802,615dbec57d764bf5ab0a56e5,2,60,81,27,37,38,female,,,,,1.0,learning,22.0,Xc,,red,,bolts,,,,Xc,red,bolts,,1.0,0.0,NA,left,1015.7,2.0,0.0,1.0,,,,
137,0,,html-keyboard-response,137,517128,0.0-4.23-0.23,z9wbczifewk,2022-09-19 16:45:22.802,615dbec57d764bf5ab0a56e5,2,60,81,27,37,38,female,,,"<img src=""static/images/cards/stack_of_black_bolts.svg"" width=""175px"" height=""250px""></img>",,,,,,,,,,,,,,,,,,,,,,,,,,,,
138,0,,html-keyboard-response,138,518582,0.0-4.23-1.23,z9wbczifewk,2022-09-19 16:45:22.802,615dbec57d764bf5ab0a56e5,2,60,81,27,37,38,female,951.4000000001,,"
  <table>
  <tr height=300>
    <td width=300 height=300><img src=""static/images/cards/back_of_black_bolts.svg"" width=""175px"" height=""250px""></img></td>
    <td width=300 height=300><img src=""static/images/cards/back_of_black_bolts.svg"" width=""175px"" height=""250px""></img></td>
  </tr>
  <tr height=200>
    <td width=300><img src=""static/images/keys/z.svg"" width=""35%"" height=""75%""></img></td>
    <td width=300></td>
  </tr>
</table>
  ",90.0,,,,,,,,,,,,,,,,,,,,,,,,,1.0,,
139,0,,html-keyboard-response,139,520084,0.0-4.23-2.23,z9wbczifewk,2022-09-19 16:45:22.802,615dbec57d764bf5ab0a56e5,2,60,81,27,37,38,female,,,"
  <table>
  <tr height=300>
    <td width=300 height=300><img src=""static/images/cards/3_of_black_bolts.svg"" width=""175px"" height=""250px""></img></td>
    <td width=300 height=300><img src=""static/images/cards/back_of_black_bolts.svg"" width=""175px"" height=""250px""></img></td>
  </tr>
  <tr height=200>
    <td width=300><img src=""static/images/keys/z.svg"" width=""35%"" height=""75%""></img></td>
    <td width=300></td>
  </tr>
</table>
  ",,,,,,,,,,,,,,,,,,,,,,,,,,,,
140,0,,html-keyboard-response,140,521586,0.0-4.23-3.23,z9wbczifewk,2022-09-19 16:45:22.802,615dbec57d764bf5ab0a56e5,2,60,81,27,37,38,female,,,"<p style=""font-size:50px"">You win!
+10 points this round!</p>",,,,,,,,,,,,,,,,,,,,,,,,,,,,
141,0,,html-keyboard-response,141,522091,0.0-4.23-4.23,z9wbczifewk,2022-09-19 16:45:22.802,615dbec57d764bf5ab0a56e5,2,60,81,27,37,38,female,,,,,1.0,learning,23.0,Xnc,,black,,bolts,,,,Xnc,black,bolts,,0.0,0.0,1,left,951.4000000001,3.0,0.0,1.0,,,,
142,0,,call-function,142,522099,0.0-5.0,z9wbczifewk,2022-09-19 16:45:22.802,615dbec57d764bf5ab0a56e5,2,60,81,27,37,38,female,,,,,,,,,,,,,,,,,,,,,,,,,,,,,,,
143,0,,image-keyboard-response,143,532511,0.0-6.0-0.0,z9wbczifewk,2022-09-19 16:45:22.802,615dbec57d764bf5ab0a56e5,2,60,81,27,37,38,female,10410.5999999999,,static/images/instructions_CB_2/Slide20.png,39.0,,,,,,,,,,,,,,,,,,,,,,,,,,,
144,0,,image-keyboard-response,144,561582,0.0-6.1-0.1,z9wbczifewk,2022-09-19 16:45:22.802,615dbec57d764bf5ab0a56e5,2,60,81,27,37,38,female,29069.9000000001,,static/images/instructions_CB_2/Slide21.png,39.0,,,,,,,,,,,,,,,,,,,,,,,,,,,
145,0,,image-keyboard-response,145,618815,0.0-6.2-0.2,z9wbczifewk,2022-09-19 16:45:22.802,615dbec57d764bf5ab0a56e5,2,60,81,27,37,38,female,57231.5,,static/images/instructions_CB_2/Slide22.png,37.0,,,,,,,,,,,,,,,,,,,,,,,,,,,
146,0,,image-keyboard-response,146,621781,0.0-6.3-0.3,z9wbczifewk,2022-09-19 16:45:22.802,615dbec57d764bf5ab0a56e5,2,60,81,27,37,38,female,2964.3999999999,,static/images/instructions_CB_2/Slide21.png,39.0,,,,,,,,,,,,,,,,,,,,,,,,,,,
147,0,,image-keyboard-response,147,647300,0.0-6.4-0.4,z9wbczifewk,2022-09-19 16:45:22.802,615dbec57d764bf5ab0a56e5,2,60,81,27,37,38,female,25517.3999999999,,static/images/instructions_CB_2/Slide22.png,39.0,,,,,,,,,,,,,,,,,,,,,,,,,,,
148,0,,image-keyboard-response,148,668655,0.0-6.5-0.5,z9wbczifewk,2022-09-19 16:45:22.802,615dbec57d764bf5ab0a56e5,2,60,81,27,37,38,female,21354.1000000001,,static/images/instructions_CB_2/Slide23.png,39.0,,,,,,,,,,,,,,,,,,,,,,,,,,,
149,0,,image-keyboard-response,149,672340,0.0-6.6-0.6,z9wbczifewk,2022-09-19 16:45:22.802,615dbec57d764bf5ab0a56e5,2,60,81,27,37,38,female,3682.8999999999,,static/images/instructions_CB_2/Slide24.png,39.0,,,,,,,,,,,,,,,,,,,,,,,,,,,
150,0,,html-keyboard-response,150,677343,0.0-7.0-0.0,z9wbczifewk,2022-09-19 16:45:22.802,615dbec57d764bf5ab0a56e5,2,60,81,27,37,38,female,,,"
  <table>
  <tr height=300>
    <td width=300 height=300><img src=""static/images/cards/stack_of_red_moons.svg"" width=""175px"" height=""250px""></img></td>
    <td width=300 height=300><img src=""static/images/cards/stack_of_black_stars.svg"" width=""175px"" height=""250px""></img></td>
  </tr>
  <tr height=200>
    <td width=300><img src=""static/images/keys/w.svg"" width=""35%"" height=""75%""></img></td>
    <td width=300><img src=""static/images/keys/o.svg"" width=""35%"" height=""75%""></img></td>
  </tr>
</table>
  ",,,,,,,,,,,,,,,,,,,,,,,,,,,,
151,0,,html-keyboard-response,151,677844,0.0-7.0-1.0,z9wbczifewk,2022-09-19 16:45:22.802,615dbec57d764bf5ab0a56e5,2,60,81,27,37,38,female,,,,,,,,,,,,,,,,,,,,,,,,,,,,,,,
152,0,,html-keyboard-response,152,677846,0.0-7.0-2.0,z9wbczifewk,2022-09-19 16:45:22.802,615dbec57d764bf5ab0a56e5,2,60,81,27,37,38,female,,,,,,,,,,,,,,,,,,,,,,,,,,,,,,,
153,0,,html-keyboard-response,153,679348,0.0-7.0-3.0,z9wbczifewk,2022-09-19 16:45:22.802,615dbec57d764bf5ab0a56e5,2,60,81,27,37,38,female,,,"<p style=""font-size:50px"">Too slow!</p>",,,,,,,,,,,,,,,,,,,,,,,,,,,,
154,0,,html-keyboard-response,154,679853,0.0-7.0-4.0,z9wbczifewk,2022-09-19 16:45:22.802,615dbec57d764bf5ab0a56e5,2,60,81,27,37,38,female,,,,,1.0,choice,0.0,A,D,red,black,moons,stars,D,A,,,,,0.0,0.0,1,,,3.0,0.0,1.0,,,,
155,0,,html-keyboard-response,155,682393,0.0-7.1-0.1,z9wbczifewk,2022-09-19 16:45:22.802,615dbec57d764bf5ab0a56e5,2,60,81,27,37,38,female,2536.5,,"
  <table>
  <tr height=300>
    <td width=300 height=300><img src=""static/images/cards/stack_of_red_stars.svg"" width=""175px"" height=""250px""></img></td>
    <td width=300 height=300><img src=""static/images/cards/stack_of_red_moons.svg"" width=""175px"" height=""250px""></img></td>
  </tr>
  <tr height=200>
    <td width=300><img src=""static/images/keys/w.svg"" width=""35%"" height=""75%""></img></td>
    <td width=300><img src=""static/images/keys/o.svg"" width=""35%"" height=""75%""></img></td>
  </tr>
</table>
  ",79.0,,,,,,,,,,,,,,,,,,,,,,,,,1.0,,
156,0,,html-keyboard-response,156,685123,0.0-7.1-1.1,z9wbczifewk,2022-09-19 16:45:22.802,615dbec57d764bf5ab0a56e5,2,60,81,27,37,38,female,2228.2,,"
  <table>
  <tr height=300>
    <td width=300 height=300><img src=""static/images/cards/back_of_red_moons.svg"" width=""175px"" height=""250px""></img></td>
    <td width=300 height=300><img src=""static/images/cards/back_of_red_moons.svg"" width=""175px"" height=""250px""></img></td>
  </tr>
  <tr height=200>
    <td width=300></td>
    <td width=300><img src=""static/images/keys/m.svg"" width=""35%"" height=""75%""></img></td>
  </tr>
</table>
  ",77.0,,,,,,,,,,,,,,,,,,,,,,,,,1.0,,
157,0,,html-keyboard-response,157,686625,0.0-7.1-2.1,z9wbczifewk,2022-09-19 16:45:22.802,615dbec57d764bf5ab0a56e5,2,60,81,27,37,38,female,,,"
  <table>
  <tr height=300>
    <td width=300 height=300><img src=""static/images/cards/back_of_red_moons.svg"" width=""175px"" height=""250px""></img></td>
    <td width=300 height=300><img src=""static/images/cards/3_of_red_moons.svg"" width=""175px"" height=""250px""></img></td>
  </tr>
  <tr height=200>
    <td width=300></td>
    <td width=300><img src=""static/images/keys/m.svg"" width=""35%"" height=""75%""></img></td>
  </tr>
</table>
  ",,,,,,,,,,,,,,,,,,,,,,,,,,,,
158,0,,html-keyboard-response,158,688126,0.0-7.1-3.1,z9wbczifewk,2022-09-19 16:45:22.802,615dbec57d764bf5ab0a56e5,2,60,81,27,37,38,female,,,"<p style=""font-size:50px"">You win!
+10 points this round!</p>",,,,,,,,,,,,,,,,,,,,,,,,,,,,
159,0,,html-keyboard-response,159,688632,0.0-7.1-4.1,z9wbczifewk,2022-09-19 16:45:22.802,615dbec57d764bf5ab0a56e5,2,60,81,27,37,38,female,,,,,1.0,choice,1.0,B,D,red,red,stars,moons,B,D,D,red,moons,2536.5,0.0,0.0,0,right,2228.2,3.0,0.0,1.0,,,,
160,0,,html-keyboard-response,160,693015,0.0-7.2-0.2,z9wbczifewk,2022-09-19 16:45:22.802,615dbec57d764bf5ab0a56e5,2,60,81,27,37,38,female,4380.8999999999,,"
  <table>
  <tr height=300>
    <td width=300 height=300><img src=""static/images/cards/stack_of_red_stars.svg"" width=""175px"" height=""250px""></img></td>
    <td width=300 height=300><img src=""static/images/cards/stack_of_black_moons.svg"" width=""175px"" height=""250px""></img></td>
  </tr>
  <tr height=200>
    <td width=300><img src=""static/images/keys/w.svg"" width=""35%"" height=""75%""></img></td>
    <td width=300><img src=""static/images/keys/o.svg"" width=""35%"" height=""75%""></img></td>
  </tr>
</table>
  ",87.0,,,,,,,,,,,,,,,,,,,,,,,,,2.0,,
161,0,,html-keyboard-response,161,694918,0.0-7.2-1.2,z9wbczifewk,2022-09-19 16:45:22.802,615dbec57d764bf5ab0a56e5,2,60,81,27,37,38,female,1400.1000000001,,"
  <table>
  <tr height=300>
    <td width=300 height=300><img src=""static/images/cards/back_of_red_stars.svg"" width=""175px"" height=""250px""></img></td>
    <td width=300 height=300><img src=""static/images/cards/back_of_red_stars.svg"" width=""175px"" height=""250px""></img></td>
  </tr>
  <tr height=200>
    <td width=300></td>
    <td width=300><img src=""static/images/keys/m.svg"" width=""35%"" height=""75%""></img></td>
  </tr>
</table>
  ",77.0,,,,,,,,,,,,,,,,,,,,,,,,,1.0,,
162,0,,html-keyboard-response,162,696420,0.0-7.2-2.2,z9wbczifewk,2022-09-19 16:45:22.802,615dbec57d764bf5ab0a56e5,2,60,81,27,37,38,female,,,"
  <table>
  <tr height=300>
    <td width=300 height=300><img src=""static/images/cards/back_of_red_stars.svg"" width=""175px"" height=""250px""></img></td>
    <td width=300 height=300><img src=""static/images/cards/7_of_red_stars.svg"" width=""175px"" height=""250px""></img></td>
  </tr>
  <tr height=200>
    <td width=300></td>
    <td width=300><img src=""static/images/keys/m.svg"" width=""35%"" height=""75%""></img></td>
  </tr>
</table>
  ",,,,,,,,,,,,,,,,,,,,,,,,,,,,
163,0,,html-keyboard-response,163,697922,0.0-7.2-3.2,z9wbczifewk,2022-09-19 16:45:22.802,615dbec57d764bf5ab0a56e5,2,60,81,27,37,38,female,,,"<p style=""font-size:50px"">You win!
+10 points this round!</p>",,,,,,,,,,,,,,,,,,,,,,,,,,,,
164,0,,html-keyboard-response,164,698427,0.0-7.2-4.2,z9wbczifewk,2022-09-19 16:45:22.802,615dbec57d764bf5ab0a56e5,2,60,81,27,37,38,female,,,,,1.0,choice,2.0,B,C,red,black,stars,moons,B,C,B,red,stars,4380.8999999999,0.0,1.0,0,right,1400.1000000001,7.0,1.0,1.0,,,,
165,0,,html-keyboard-response,165,700814,0.0-7.3-0.3,z9wbczifewk,2022-09-19 16:45:22.802,615dbec57d764bf5ab0a56e5,2,60,81,27,37,38,female,2384.4000000001,,"
  <table>
  <tr height=300>
    <td width=300 height=300><img src=""static/images/cards/stack_of_red_moons.svg"" width=""175px"" height=""250px""></img></td>
    <td width=300 height=300><img src=""static/images/cards/stack_of_red_stars.svg"" width=""175px"" height=""250px""></img></td>
  </tr>
  <tr height=200>
    <td width=300><img src=""static/images/keys/w.svg"" width=""35%"" height=""75%""></img></td>
    <td width=300><img src=""static/images/keys/o.svg"" width=""35%"" height=""75%""></img></td>
  </tr>
</table>
  ",79.0,,,,,,,,,,,,,,,,,,,,,,,,,1.0,,
166,0,,html-keyboard-response,166,702855,0.0-7.3-1.3,z9wbczifewk,2022-09-19 16:45:22.802,615dbec57d764bf5ab0a56e5,2,60,81,27,37,38,female,1538.0,,"
  <table>
  <tr height=300>
    <td width=300 height=300><img src=""static/images/cards/back_of_red_stars.svg"" width=""175px"" height=""250px""></img></td>
    <td width=300 height=300><img src=""static/images/cards/back_of_red_stars.svg"" width=""175px"" height=""250px""></img></td>
  </tr>
  <tr height=200>
    <td width=300><img src=""static/images/keys/z.svg"" width=""35%"" height=""75%""></img></td>
    <td width=300></td>
  </tr>
</table>
  ",90.0,,,,,,,,,,,,,,,,,,,,,,,,,1.0,,
167,0,,html-keyboard-response,167,704357,0.0-7.3-2.3,z9wbczifewk,2022-09-19 16:45:22.802,615dbec57d764bf5ab0a56e5,2,60,81,27,37,38,female,,,"
  <table>
  <tr height=300>
    <td width=300 height=300><img src=""static/images/cards/2_of_red_stars.svg"" width=""175px"" height=""250px""></img></td>
    <td width=300 height=300><img src=""static/images/cards/back_of_red_stars.svg"" width=""175px"" height=""250px""></img></td>
  </tr>
  <tr height=200>
    <td width=300><img src=""static/images/keys/z.svg"" width=""35%"" height=""75%""></img></td>
    <td width=300></td>
  </tr>
</table>
  ",,,,,,,,,,,,,,,,,,,,,,,,,,,,
168,0,,html-keyboard-response,168,705859,0.0-7.3-3.3,z9wbczifewk,2022-09-19 16:45:22.802,615dbec57d764bf5ab0a56e5,2,60,81,27,37,38,female,,,"<p style=""font-size:50px"">You Lose!
No points this round.</p>",,,,,,,,,,,,,,,,,,,,,,,,,,,,
169,0,,html-keyboard-response,169,706364,0.0-7.3-4.3,z9wbczifewk,2022-09-19 16:45:22.802,615dbec57d764bf5ab0a56e5,2,60,81,27,37,38,female,,,,,1.0,choice,3.0,B,D,red,red,moons,stars,D,B,B,red,stars,2384.4000000001,0.0,1.0,1,left,1538.0,2.0,0.0,0.0,,,,
170,0,,html-keyboard-response,170,708598,0.0-7.4-0.4,z9wbczifewk,2022-09-19 16:45:22.802,615dbec57d764bf5ab0a56e5,2,60,81,27,37,38,female,2231.4000000001,,"
  <table>
  <tr height=300>
    <td width=300 height=300><img src=""static/images/cards/stack_of_black_bolts.svg"" width=""175px"" height=""250px""></img></td>
    <td width=300 height=300><img src=""static/images/cards/stack_of_red_stars.svg"" width=""175px"" height=""250px""></img></td>
  </tr>
  <tr height=200>
    <td width=300><img src=""static/images/keys/w.svg"" width=""35%"" height=""75%""></img></td>
    <td width=300><img src=""static/images/keys/o.svg"" width=""35%"" height=""75%""></img></td>
  </tr>
</table>
  ",79.0,,,,,,,,,,,,,,,,,,,,,,,,,1.0,,
171,0,,html-keyboard-response,171,711189,0.0-7.4-1.4,z9wbczifewk,2022-09-19 16:45:22.802,615dbec57d764bf5ab0a56e5,2,60,81,27,37,38,female,2089.0,,"
  <table>
  <tr height=300>
    <td width=300 height=300><img src=""static/images/cards/back_of_red_stars.svg"" width=""175px"" height=""250px""></img></td>
    <td width=300 height=300><img src=""static/images/cards/back_of_red_stars.svg"" width=""175px"" height=""250px""></img></td>
  </tr>
  <tr height=200>
    <td width=300></td>
    <td width=300><img src=""static/images/keys/m.svg"" width=""35%"" height=""75%""></img></td>
  </tr>
</table>
  ",77.0,,,,,,,,,,,,,,,,,,,,,,,,,1.0,,
172,0,,html-keyboard-response,172,712691,0.0-7.4-2.4,z9wbczifewk,2022-09-19 16:45:22.802,615dbec57d764bf5ab0a56e5,2,60,81,27,37,38,female,,,"
  <table>
  <tr height=300>
    <td width=300 height=300><img src=""static/images/cards/back_of_red_stars.svg"" width=""175px"" height=""250px""></img></td>
    <td width=300 height=300><img src=""static/images/cards/7_of_red_stars.svg"" width=""175px"" height=""250px""></img></td>
  </tr>
  <tr height=200>
    <td width=300></td>
    <td width=300><img src=""static/images/keys/m.svg"" width=""35%"" height=""75%""></img></td>
  </tr>
</table>
  ",,,,,,,,,,,,,,,,,,,,,,,,,,,,
173,0,,html-keyboard-response,173,714193,0.0-7.4-3.4,z9wbczifewk,2022-09-19 16:45:22.802,615dbec57d764bf5ab0a56e5,2,60,81,27,37,38,female,,,"<p style=""font-size:50px"">You win!
+10 points this round!</p>",,,,,,,,,,,,,,,,,,,,,,,,,,,,
174,0,,html-keyboard-response,174,714698,0.0-7.4-4.4,z9wbczifewk,2022-09-19 16:45:22.802,615dbec57d764bf5ab0a56e5,2,60,81,27,37,38,female,,,,,1.0,choice,4.0,B,Xnc,black,red,bolts,stars,Xnc,B,B,red,stars,2231.4000000001,0.0,1.0,0,right,2089.0,7.0,1.0,1.0,,,,
175,0,,html-keyboard-response,175,716637,0.0-7.5-0.5,z9wbczifewk,2022-09-19 16:45:22.802,615dbec57d764bf5ab0a56e5,2,60,81,27,37,38,female,1935.8,,"
  <table>
  <tr height=300>
    <td width=300 height=300><img src=""static/images/cards/stack_of_black_stars.svg"" width=""175px"" height=""250px""></img></td>
    <td width=300 height=300><img src=""static/images/cards/stack_of_red_stars.svg"" width=""175px"" height=""250px""></img></td>
  </tr>
  <tr height=200>
    <td width=300><img src=""static/images/keys/w.svg"" width=""35%"" height=""75%""></img></td>
    <td width=300><img src=""static/images/keys/o.svg"" width=""35%"" height=""75%""></img></td>
  </tr>
</table>
  ",87.0,,,,,,,,,,,,,,,,,,,,,,,,,1.0,,
176,0,,html-keyboard-response,176,719118,0.0-7.5-1.5,z9wbczifewk,2022-09-19 16:45:22.802,615dbec57d764bf5ab0a56e5,2,60,81,27,37,38,female,1979.0,,"
  <table>
  <tr height=300>
    <td width=300 height=300><img src=""static/images/cards/back_of_black_stars.svg"" width=""175px"" height=""250px""></img></td>
    <td width=300 height=300><img src=""static/images/cards/back_of_black_stars.svg"" width=""175px"" height=""250px""></img></td>
  </tr>
  <tr height=200>
    <td width=300><img src=""static/images/keys/z.svg"" width=""35%"" height=""75%""></img></td>
    <td width=300><img src=""static/images/keys/m.svg"" width=""35%"" height=""75%""></img></td>
  </tr>
</table>
  ",77.0,,,,,,,,,,,,,,,,,,,,,,,,,1.0,,
177,0,,html-keyboard-response,177,720620,0.0-7.5-2.5,z9wbczifewk,2022-09-19 16:45:22.802,615dbec57d764bf5ab0a56e5,2,60,81,27,37,38,female,,,"
  <table>
  <tr height=300>
    <td width=300 height=300><img src=""static/images/cards/back_of_black_stars.svg"" width=""175px"" height=""250px""></img></td>
    <td width=300 height=300><img src=""static/images/cards/6_of_black_stars.svg"" width=""175px"" height=""250px""></img></td>
  </tr>
  <tr height=200>
    <td width=300><img src=""static/images/keys/z.svg"" width=""35%"" height=""75%""></img></td>
    <td width=300><img src=""static/images/keys/m.svg"" width=""35%"" height=""75%""></img></td>
  </tr>
</table>
  ",,,,,,,,,,,,,,,,,,,,,,,,,,,,
178,0,,html-keyboard-response,178,722121,0.0-7.5-3.5,z9wbczifewk,2022-09-19 16:45:22.802,615dbec57d764bf5ab0a56e5,2,60,81,27,37,38,female,,,"<p style=""font-size:50px"">You win!
+10 points this round!</p>",,,,,,,,,,,,,,,,,,,,,,,,,,,,
179,0,,html-keyboard-response,179,722627,0.0-7.5-4.5,z9wbczifewk,2022-09-19 16:45:22.802,615dbec57d764bf5ab0a56e5,2,60,81,27,37,38,female,,,,,1.0,choice,5.0,A,B,black,red,stars,stars,A,B,A,black,stars,1935.8,1.0,1.0,NA,right,1979.0,6.0,1.0,1.0,,,,
180,0,,html-keyboard-response,180,725606,0.0-7.6-0.6,z9wbczifewk,2022-09-19 16:45:22.802,615dbec57d764bf5ab0a56e5,2,60,81,27,37,38,female,2977.2000000002,,"
  <table>
  <tr height=300>
    <td width=300 height=300><img src=""static/images/cards/stack_of_black_stars.svg"" width=""175px"" height=""250px""></img></td>
    <td width=300 height=300><img src=""static/images/cards/stack_of_red_stars.svg"" width=""175px"" height=""250px""></img></td>
  </tr>
  <tr height=200>
    <td width=300><img src=""static/images/keys/w.svg"" width=""35%"" height=""75%""></img></td>
    <td width=300><img src=""static/images/keys/o.svg"" width=""35%"" height=""75%""></img></td>
  </tr>
</table>
  ",79.0,,,,,,,,,,,,,,,,,,,,,,,,,1.0,,
181,0,,html-keyboard-response,181,727516,0.0-7.6-1.6,z9wbczifewk,2022-09-19 16:45:22.802,615dbec57d764bf5ab0a56e5,2,60,81,27,37,38,female,1407.2999999998,,"
  <table>
  <tr height=300>
    <td width=300 height=300><img src=""static/images/cards/back_of_red_stars.svg"" width=""175px"" height=""250px""></img></td>
    <td width=300 height=300><img src=""static/images/cards/back_of_red_stars.svg"" width=""175px"" height=""250px""></img></td>
  </tr>
  <tr height=200>
    <td width=300><img src=""static/images/keys/z.svg"" width=""35%"" height=""75%""></img></td>
    <td width=300></td>
  </tr>
</table>
  ",90.0,,,,,,,,,,,,,,,,,,,,,,,,,1.0,,
182,0,,html-keyboard-response,182,729018,0.0-7.6-2.6,z9wbczifewk,2022-09-19 16:45:22.802,615dbec57d764bf5ab0a56e5,2,60,81,27,37,38,female,,,"
  <table>
  <tr height=300>
    <td width=300 height=300><img src=""static/images/cards/4_of_red_stars.svg"" width=""175px"" height=""250px""></img></td>
    <td width=300 height=300><img src=""static/images/cards/back_of_red_stars.svg"" width=""175px"" height=""250px""></img></td>
  </tr>
  <tr height=200>
    <td width=300><img src=""static/images/keys/z.svg"" width=""35%"" height=""75%""></img></td>
    <td width=300></td>
  </tr>
</table>
  ",,,,,,,,,,,,,,,,,,,,,,,,,,,,
183,0,,html-keyboard-response,183,730520,0.0-7.6-3.6,z9wbczifewk,2022-09-19 16:45:22.802,615dbec57d764bf5ab0a56e5,2,60,81,27,37,38,female,,,"<p style=""font-size:50px"">You Lose!
No points this round.</p>",,,,,,,,,,,,,,,,,,,,,,,,,,,,
184,0,,html-keyboard-response,184,731025,0.0-7.6-4.6,z9wbczifewk,2022-09-19 16:45:22.802,615dbec57d764bf5ab0a56e5,2,60,81,27,37,38,female,,,,,1.0,choice,6.0,A,B,black,red,stars,stars,A,B,B,red,stars,2977.2000000002,0.0,1.0,1,left,1407.2999999998,4.0,0.0,0.0,,,,
185,0,,html-keyboard-response,185,733373,0.0-7.7-0.7,z9wbczifewk,2022-09-19 16:45:22.802,615dbec57d764bf5ab0a56e5,2,60,81,27,37,38,female,2345.3999999999,,"
  <table>
  <tr height=300>
    <td width=300 height=300><img src=""static/images/cards/stack_of_black_moons.svg"" width=""175px"" height=""250px""></img></td>
    <td width=300 height=300><img src=""static/images/cards/stack_of_black_stars.svg"" width=""175px"" height=""250px""></img></td>
  </tr>
  <tr height=200>
    <td width=300><img src=""static/images/keys/w.svg"" width=""35%"" height=""75%""></img></td>
    <td width=300><img src=""static/images/keys/o.svg"" width=""35%"" height=""75%""></img></td>
  </tr>
</table>
  ",79.0,,,,,,,,,,,,,,,,,,,,,,,,,1.0,,
186,0,,html-keyboard-response,186,735728,0.0-7.7-1.7,z9wbczifewk,2022-09-19 16:45:22.802,615dbec57d764bf5ab0a56e5,2,60,81,27,37,38,female,1852.0,,"
  <table>
  <tr height=300>
    <td width=300 height=300><img src=""static/images/cards/back_of_black_stars.svg"" width=""175px"" height=""250px""></img></td>
    <td width=300 height=300><img src=""static/images/cards/back_of_black_stars.svg"" width=""175px"" height=""250px""></img></td>
  </tr>
  <tr height=200>
    <td width=300><img src=""static/images/keys/z.svg"" width=""35%"" height=""75%""></img></td>
    <td width=300><img src=""static/images/keys/m.svg"" width=""35%"" height=""75%""></img></td>
  </tr>
</table>
  ",90.0,,,,,,,,,,,,,,,,,,,,,,,,,1.0,,
187,0,,html-keyboard-response,187,737230,0.0-7.7-2.7,z9wbczifewk,2022-09-19 16:45:22.802,615dbec57d764bf5ab0a56e5,2,60,81,27,37,38,female,,,"
  <table>
  <tr height=300>
    <td width=300 height=300><img src=""static/images/cards/10_of_black_stars.svg"" width=""175px"" height=""250px""></img></td>
    <td width=300 height=300><img src=""static/images/cards/back_of_black_stars.svg"" width=""175px"" height=""250px""></img></td>
  </tr>
  <tr height=200>
    <td width=300><img src=""static/images/keys/z.svg"" width=""35%"" height=""75%""></img></td>
    <td width=300><img src=""static/images/keys/m.svg"" width=""35%"" height=""75%""></img></td>
  </tr>
</table>
  ",,,,,,,,,,,,,,,,,,,,,,,,,,,,
188,0,,html-keyboard-response,188,738731,0.0-7.7-3.7,z9wbczifewk,2022-09-19 16:45:22.802,615dbec57d764bf5ab0a56e5,2,60,81,27,37,38,female,,,"<p style=""font-size:50px"">You win!
+10 points this round!</p>",,,,,,,,,,,,,,,,,,,,,,,,,,,,
189,0,,html-keyboard-response,189,739237,0.0-7.7-4.7,z9wbczifewk,2022-09-19 16:45:22.802,615dbec57d764bf5ab0a56e5,2,60,81,27,37,38,female,,,,,1.0,choice,7.0,A,C,black,black,moons,stars,C,A,A,black,stars,2345.3999999999,1.0,1.0,NA,left,1852.0,10.0,1.0,1.0,,,,
190,0,,html-keyboard-response,190,742022,0.0-7.8-0.8,z9wbczifewk,2022-09-19 16:45:22.802,615dbec57d764bf5ab0a56e5,2,60,81,27,37,38,female,2782.7000000002,,"
  <table>
  <tr height=300>
    <td width=300 height=300><img src=""static/images/cards/stack_of_black_moons.svg"" width=""175px"" height=""250px""></img></td>
    <td width=300 height=300><img src=""static/images/cards/stack_of_black_stars.svg"" width=""175px"" height=""250px""></img></td>
  </tr>
  <tr height=200>
    <td width=300><img src=""static/images/keys/w.svg"" width=""35%"" height=""75%""></img></td>
    <td width=300><img src=""static/images/keys/o.svg"" width=""35%"" height=""75%""></img></td>
  </tr>
</table>
  ",79.0,,,,,,,,,,,,,,,,,,,,,,,,,1.0,,
191,0,,html-keyboard-response,191,744559,0.0-7.8-1.8,z9wbczifewk,2022-09-19 16:45:22.802,615dbec57d764bf5ab0a56e5,2,60,81,27,37,38,female,2033.7000000002,,"
  <table>
  <tr height=300>
    <td width=300 height=300><img src=""static/images/cards/back_of_black_stars.svg"" width=""175px"" height=""250px""></img></td>
    <td width=300 height=300><img src=""static/images/cards/back_of_black_stars.svg"" width=""175px"" height=""250px""></img></td>
  </tr>
  <tr height=200>
    <td width=300><img src=""static/images/keys/z.svg"" width=""35%"" height=""75%""></img></td>
    <td width=300><img src=""static/images/keys/m.svg"" width=""35%"" height=""75%""></img></td>
  </tr>
</table>
  ",90.0,,,,,,,,,,,,,,,,,,,,,,,,,1.0,,
192,0,,html-keyboard-response,192,746061,0.0-7.8-2.8,z9wbczifewk,2022-09-19 16:45:22.802,615dbec57d764bf5ab0a56e5,2,60,81,27,37,38,female,,,"
  <table>
  <tr height=300>
    <td width=300 height=300><img src=""static/images/cards/1_of_black_stars.svg"" width=""175px"" height=""250px""></img></td>
    <td width=300 height=300><img src=""static/images/cards/back_of_black_stars.svg"" width=""175px"" height=""250px""></img></td>
  </tr>
  <tr height=200>
    <td width=300><img src=""static/images/keys/z.svg"" width=""35%"" height=""75%""></img></td>
    <td width=300><img src=""static/images/keys/m.svg"" width=""35%"" height=""75%""></img></td>
  </tr>
</table>
  ",,,,,,,,,,,,,,,,,,,,,,,,,,,,
193,0,,html-keyboard-response,193,747562,0.0-7.8-3.8,z9wbczifewk,2022-09-19 16:45:22.802,615dbec57d764bf5ab0a56e5,2,60,81,27,37,38,female,,,"<p style=""font-size:50px"">You Lose!
No points this round.</p>",,,,,,,,,,,,,,,,,,,,,,,,,,,,
194,0,,html-keyboard-response,194,748068,0.0-7.8-4.8,z9wbczifewk,2022-09-19 16:45:22.802,615dbec57d764bf5ab0a56e5,2,60,81,27,37,38,female,,,,,1.0,choice,8.0,A,C,black,black,moons,stars,C,A,A,black,stars,2782.7000000002,1.0,1.0,NA,left,2033.7000000002,1.0,0.0,0.0,,,,
195,0,,html-keyboard-response,195,749464,0.0-7.9-0.9,z9wbczifewk,2022-09-19 16:45:22.802,615dbec57d764bf5ab0a56e5,2,60,81,27,37,38,female,1393.3999999999,,"
  <table>
  <tr height=300>
    <td width=300 height=300><img src=""static/images/cards/stack_of_black_moons.svg"" width=""175px"" height=""250px""></img></td>
    <td width=300 height=300><img src=""static/images/cards/stack_of_red_stars.svg"" width=""175px"" height=""250px""></img></td>
  </tr>
  <tr height=200>
    <td width=300><img src=""static/images/keys/w.svg"" width=""35%"" height=""75%""></img></td>
    <td width=300><img src=""static/images/keys/o.svg"" width=""35%"" height=""75%""></img></td>
  </tr>
</table>
  ",79.0,,,,,,,,,,,,,,,,,,,,,,,,,1.0,,
196,0,,html-keyboard-response,196,751780,0.0-7.9-1.9,z9wbczifewk,2022-09-19 16:45:22.802,615dbec57d764bf5ab0a56e5,2,60,81,27,37,38,female,1813.8999999999,,"
  <table>
  <tr height=300>
    <td width=300 height=300><img src=""static/images/cards/back_of_red_stars.svg"" width=""175px"" height=""250px""></img></td>
    <td width=300 height=300><img src=""static/images/cards/back_of_red_stars.svg"" width=""175px"" height=""250px""></img></td>
  </tr>
  <tr height=200>
    <td width=300></td>
    <td width=300><img src=""static/images/keys/m.svg"" width=""35%"" height=""75%""></img></td>
  </tr>
</table>
  ",77.0,,,,,,,,,,,,,,,,,,,,,,,,,1.0,,
197,0,,html-keyboard-response,197,753283,0.0-7.9-2.9,z9wbczifewk,2022-09-19 16:45:22.802,615dbec57d764bf5ab0a56e5,2,60,81,27,37,38,female,,,"
  <table>
  <tr height=300>
    <td width=300 height=300><img src=""static/images/cards/back_of_red_stars.svg"" width=""175px"" height=""250px""></img></td>
    <td width=300 height=300><img src=""static/images/cards/2_of_red_stars.svg"" width=""175px"" height=""250px""></img></td>
  </tr>
  <tr height=200>
    <td width=300></td>
    <td width=300><img src=""static/images/keys/m.svg"" width=""35%"" height=""75%""></img></td>
  </tr>
</table>
  ",,,,,,,,,,,,,,,,,,,,,,,,,,,,
198,0,,html-keyboard-response,198,754784,0.0-7.9-3.9,z9wbczifewk,2022-09-19 16:45:22.802,615dbec57d764bf5ab0a56e5,2,60,81,27,37,38,female,,,"<p style=""font-size:50px"">You Lose!
No points this round.</p>",,,,,,,,,,,,,,,,,,,,,,,,,,,,
199,0,,html-keyboard-response,199,755290,0.0-7.9-4.9,z9wbczifewk,2022-09-19 16:45:22.802,615dbec57d764bf5ab0a56e5,2,60,81,27,37,38,female,,,,,1.0,choice,9.0,B,C,black,red,moons,stars,C,B,B,red,stars,1393.3999999999,0.0,1.0,0,right,1813.8999999999,2.0,0.0,0.0,,,,
200,0,,html-keyboard-response,200,757728,0.0-7.10-0.10,z9wbczifewk,2022-09-19 16:45:22.802,615dbec57d764bf5ab0a56e5,2,60,81,27,37,38,female,2435.5999999996,,"
  <table>
  <tr height=300>
    <td width=300 height=300><img src=""static/images/cards/stack_of_red_stars.svg"" width=""175px"" height=""250px""></img></td>
    <td width=300 height=300><img src=""static/images/cards/stack_of_black_stars.svg"" width=""175px"" height=""250px""></img></td>
  </tr>
  <tr height=200>
    <td width=300><img src=""static/images/keys/w.svg"" width=""35%"" height=""75%""></img></td>
    <td width=300><img src=""static/images/keys/o.svg"" width=""35%"" height=""75%""></img></td>
  </tr>
</table>
  ",87.0,,,,,,,,,,,,,,,,,,,,,,,,,1.0,,
201,0,,html-keyboard-response,201,759771,0.0-7.10-1.10,z9wbczifewk,2022-09-19 16:45:22.802,615dbec57d764bf5ab0a56e5,2,60,81,27,37,38,female,1540.8000000003,,"
  <table>
  <tr height=300>
    <td width=300 height=300><img src=""static/images/cards/back_of_red_stars.svg"" width=""175px"" height=""250px""></img></td>
    <td width=300 height=300><img src=""static/images/cards/back_of_red_stars.svg"" width=""175px"" height=""250px""></img></td>
  </tr>
  <tr height=200>
    <td width=300></td>
    <td width=300><img src=""static/images/keys/m.svg"" width=""35%"" height=""75%""></img></td>
  </tr>
</table>
  ",77.0,,,,,,,,,,,,,,,,,,,,,,,,,1.0,,
202,0,,html-keyboard-response,202,761273,0.0-7.10-2.10,z9wbczifewk,2022-09-19 16:45:22.802,615dbec57d764bf5ab0a56e5,2,60,81,27,37,38,female,,,"
  <table>
  <tr height=300>
    <td width=300 height=300><img src=""static/images/cards/back_of_red_stars.svg"" width=""175px"" height=""250px""></img></td>
    <td width=300 height=300><img src=""static/images/cards/3_of_red_stars.svg"" width=""175px"" height=""250px""></img></td>
  </tr>
  <tr height=200>
    <td width=300></td>
    <td width=300><img src=""static/images/keys/m.svg"" width=""35%"" height=""75%""></img></td>
  </tr>
</table>
  ",,,,,,,,,,,,,,,,,,,,,,,,,,,,
203,0,,html-keyboard-response,203,762775,0.0-7.10-3.10,z9wbczifewk,2022-09-19 16:45:22.802,615dbec57d764bf5ab0a56e5,2,60,81,27,37,38,female,,,"<p style=""font-size:50px"">You Lose!
No points this round.</p>",,,,,,,,,,,,,,,,,,,,,,,,,,,,
204,0,,html-keyboard-response,204,763280,0.0-7.10-4.10,z9wbczifewk,2022-09-19 16:45:22.802,615dbec57d764bf5ab0a56e5,2,60,81,27,37,38,female,,,,,1.0,choice,10.0,A,B,red,black,stars,stars,B,A,B,red,stars,2435.5999999996,0.0,1.0,0,right,1540.8000000003,3.0,0.0,0.0,,,,
205,0,,html-keyboard-response,205,765269,0.0-7.11-0.11,z9wbczifewk,2022-09-19 16:45:22.802,615dbec57d764bf5ab0a56e5,2,60,81,27,37,38,female,1985.6999999997,,"
  <table>
  <tr height=300>
    <td width=300 height=300><img src=""static/images/cards/stack_of_black_bolts.svg"" width=""175px"" height=""250px""></img></td>
    <td width=300 height=300><img src=""static/images/cards/stack_of_black_stars.svg"" width=""175px"" height=""250px""></img></td>
  </tr>
  <tr height=200>
    <td width=300><img src=""static/images/keys/w.svg"" width=""35%"" height=""75%""></img></td>
    <td width=300><img src=""static/images/keys/o.svg"" width=""35%"" height=""75%""></img></td>
  </tr>
</table>
  ",87.0,,,,,,,,,,,,,,,,,,,,,,,,,1.0,,
206,0,,html-keyboard-response,206,767389,0.0-7.11-1.11,z9wbczifewk,2022-09-19 16:45:22.802,615dbec57d764bf5ab0a56e5,2,60,81,27,37,38,female,1616.8999999999,,"
  <table>
  <tr height=300>
    <td width=300 height=300><img src=""static/images/cards/back_of_black_bolts.svg"" width=""175px"" height=""250px""></img></td>
    <td width=300 height=300><img src=""static/images/cards/back_of_black_bolts.svg"" width=""175px"" height=""250px""></img></td>
  </tr>
  <tr height=200>
    <td width=300></td>
    <td width=300><img src=""static/images/keys/m.svg"" width=""35%"" height=""75%""></img></td>
  </tr>
</table>
  ",77.0,,,,,,,,,,,,,,,,,,,,,,,,,1.0,,
207,0,,html-keyboard-response,207,768891,0.0-7.11-2.11,z9wbczifewk,2022-09-19 16:45:22.802,615dbec57d764bf5ab0a56e5,2,60,81,27,37,38,female,,,"
  <table>
  <tr height=300>
    <td width=300 height=300><img src=""static/images/cards/back_of_black_bolts.svg"" width=""175px"" height=""250px""></img></td>
    <td width=300 height=300><img src=""static/images/cards/1_of_black_bolts.svg"" width=""175px"" height=""250px""></img></td>
  </tr>
  <tr height=200>
    <td width=300></td>
    <td width=300><img src=""static/images/keys/m.svg"" width=""35%"" height=""75%""></img></td>
  </tr>
</table>
  ",,,,,,,,,,,,,,,,,,,,,,,,,,,,
208,0,,html-keyboard-response,208,770392,0.0-7.11-3.11,z9wbczifewk,2022-09-19 16:45:22.802,615dbec57d764bf5ab0a56e5,2,60,81,27,37,38,female,,,"<p style=""font-size:50px"">You win!
+10 points this round!</p>",,,,,,,,,,,,,,,,,,,,,,,,,,,,
209,0,,html-keyboard-response,209,770898,0.0-7.11-4.11,z9wbczifewk,2022-09-19 16:45:22.802,615dbec57d764bf5ab0a56e5,2,60,81,27,37,38,female,,,,,1.0,choice,11.0,A,Xnc,black,black,bolts,stars,Xnc,A,Xnc,black,bolts,1985.6999999997,0.0,0.0,0,right,1616.8999999999,1.0,0.0,1.0,,,,
210,0,,html-keyboard-response,210,772893,0.0-7.12-0.12,z9wbczifewk,2022-09-19 16:45:22.802,615dbec57d764bf5ab0a56e5,2,60,81,27,37,38,female,1992.6999999997,,"
  <table>
  <tr height=300>
    <td width=300 height=300><img src=""static/images/cards/stack_of_black_moons.svg"" width=""175px"" height=""250px""></img></td>
    <td width=300 height=300><img src=""static/images/cards/stack_of_red_bolts.svg"" width=""175px"" height=""250px""></img></td>
  </tr>
  <tr height=200>
    <td width=300><img src=""static/images/keys/w.svg"" width=""35%"" height=""75%""></img></td>
    <td width=300><img src=""static/images/keys/o.svg"" width=""35%"" height=""75%""></img></td>
  </tr>
</table>
  ",79.0,,,,,,,,,,,,,,,,,,,,,,,,,1.0,,
211,0,,html-keyboard-response,211,775158,0.0-7.12-1.12,z9wbczifewk,2022-09-19 16:45:22.802,615dbec57d764bf5ab0a56e5,2,60,81,27,37,38,female,1762.1999999997,,"
  <table>
  <tr height=300>
    <td width=300 height=300><img src=""static/images/cards/back_of_red_bolts.svg"" width=""175px"" height=""250px""></img></td>
    <td width=300 height=300><img src=""static/images/cards/back_of_red_bolts.svg"" width=""175px"" height=""250px""></img></td>
  </tr>
  <tr height=200>
    <td width=300><img src=""static/images/keys/z.svg"" width=""35%"" height=""75%""></img></td>
    <td width=300><img src=""static/images/keys/m.svg"" width=""35%"" height=""75%""></img></td>
  </tr>
</table>
  ",77.0,,,,,,,,,,,,,,,,,,,,,,,,,1.0,,
212,0,,html-keyboard-response,212,776660,0.0-7.12-2.12,z9wbczifewk,2022-09-19 16:45:22.802,615dbec57d764bf5ab0a56e5,2,60,81,27,37,38,female,,,"
  <table>
  <tr height=300>
    <td width=300 height=300><img src=""static/images/cards/back_of_red_bolts.svg"" width=""175px"" height=""250px""></img></td>
    <td width=300 height=300><img src=""static/images/cards/3_of_red_bolts.svg"" width=""175px"" height=""250px""></img></td>
  </tr>
  <tr height=200>
    <td width=300><img src=""static/images/keys/z.svg"" width=""35%"" height=""75%""></img></td>
    <td width=300><img src=""static/images/keys/m.svg"" width=""35%"" height=""75%""></img></td>
  </tr>
</table>
  ",,,,,,,,,,,,,,,,,,,,,,,,,,,,
213,0,,html-keyboard-response,213,778162,0.0-7.12-3.12,z9wbczifewk,2022-09-19 16:45:22.802,615dbec57d764bf5ab0a56e5,2,60,81,27,37,38,female,,,"<p style=""font-size:50px"">You win!
+10 points this round!</p>",,,,,,,,,,,,,,,,,,,,,,,,,,,,
214,0,,html-keyboard-response,214,778667,0.0-7.12-4.12,z9wbczifewk,2022-09-19 16:45:22.802,615dbec57d764bf5ab0a56e5,2,60,81,27,37,38,female,,,,,1.0,choice,12.0,C,Xc,black,red,moons,bolts,C,Xc,Xc,red,bolts,1992.6999999997,1.0,0.0,NA,right,1762.1999999997,3.0,0.0,1.0,,,,
215,0,,html-keyboard-response,215,782004,0.0-7.13-0.13,z9wbczifewk,2022-09-19 16:45:22.802,615dbec57d764bf5ab0a56e5,2,60,81,27,37,38,female,3333.8999999999,,"
  <table>
  <tr height=300>
    <td width=300 height=300><img src=""static/images/cards/stack_of_black_moons.svg"" width=""175px"" height=""250px""></img></td>
    <td width=300 height=300><img src=""static/images/cards/stack_of_red_moons.svg"" width=""175px"" height=""250px""></img></td>
  </tr>
  <tr height=200>
    <td width=300><img src=""static/images/keys/w.svg"" width=""35%"" height=""75%""></img></td>
    <td width=300><img src=""static/images/keys/o.svg"" width=""35%"" height=""75%""></img></td>
  </tr>
</table>
  ",79.0,,,,,,,,,,,,,,,,,,,,,,,,,1.0,,
216,0,,html-keyboard-response,216,784149,0.0-7.13-1.13,z9wbczifewk,2022-09-19 16:45:22.802,615dbec57d764bf5ab0a56e5,2,60,81,27,37,38,female,1642.5,,"
  <table>
  <tr height=300>
    <td width=300 height=300><img src=""static/images/cards/back_of_red_moons.svg"" width=""175px"" height=""250px""></img></td>
    <td width=300 height=300><img src=""static/images/cards/back_of_red_moons.svg"" width=""175px"" height=""250px""></img></td>
  </tr>
  <tr height=200>
    <td width=300><img src=""static/images/keys/z.svg"" width=""35%"" height=""75%""></img></td>
    <td width=300></td>
  </tr>
</table>
  ",90.0,,,,,,,,,,,,,,,,,,,,,,,,,1.0,,
217,0,,html-keyboard-response,217,785651,0.0-7.13-2.13,z9wbczifewk,2022-09-19 16:45:22.802,615dbec57d764bf5ab0a56e5,2,60,81,27,37,38,female,,,"
  <table>
  <tr height=300>
    <td width=300 height=300><img src=""static/images/cards/9_of_red_moons.svg"" width=""175px"" height=""250px""></img></td>
    <td width=300 height=300><img src=""static/images/cards/back_of_red_moons.svg"" width=""175px"" height=""250px""></img></td>
  </tr>
  <tr height=200>
    <td width=300><img src=""static/images/keys/z.svg"" width=""35%"" height=""75%""></img></td>
    <td width=300></td>
  </tr>
</table>
  ",,,,,,,,,,,,,,,,,,,,,,,,,,,,
218,0,,html-keyboard-response,218,787153,0.0-7.13-3.13,z9wbczifewk,2022-09-19 16:45:22.802,615dbec57d764bf5ab0a56e5,2,60,81,27,37,38,female,,,"<p style=""font-size:50px"">You win!
+10 points this round!</p>",,,,,,,,,,,,,,,,,,,,,,,,,,,,
219,0,,html-keyboard-response,219,787658,0.0-7.13-4.13,z9wbczifewk,2022-09-19 16:45:22.802,615dbec57d764bf5ab0a56e5,2,60,81,27,37,38,female,,,,,1.0,choice,13.0,C,D,black,red,moons,moons,C,D,D,red,moons,3333.8999999999,0.0,0.0,1,left,1642.5,9.0,1.0,1.0,,,,
220,0,,html-keyboard-response,220,790343,0.0-7.14-0.14,z9wbczifewk,2022-09-19 16:45:22.802,615dbec57d764bf5ab0a56e5,2,60,81,27,37,38,female,2682.1999999997,,"
  <table>
  <tr height=300>
    <td width=300 height=300><img src=""static/images/cards/stack_of_red_stars.svg"" width=""175px"" height=""250px""></img></td>
    <td width=300 height=300><img src=""static/images/cards/stack_of_red_moons.svg"" width=""175px"" height=""250px""></img></td>
  </tr>
  <tr height=200>
    <td width=300><img src=""static/images/keys/w.svg"" width=""35%"" height=""75%""></img></td>
    <td width=300><img src=""static/images/keys/o.svg"" width=""35%"" height=""75%""></img></td>
  </tr>
</table>
  ",87.0,,,,,,,,,,,,,,,,,,,,,,,,,1.0,,
221,0,,html-keyboard-response,221,792609,0.0-7.14-1.14,z9wbczifewk,2022-09-19 16:45:22.802,615dbec57d764bf5ab0a56e5,2,60,81,27,37,38,female,1764.1000000001,,"
  <table>
  <tr height=300>
    <td width=300 height=300><img src=""static/images/cards/back_of_red_stars.svg"" width=""175px"" height=""250px""></img></td>
    <td width=300 height=300><img src=""static/images/cards/back_of_red_stars.svg"" width=""175px"" height=""250px""></img></td>
  </tr>
  <tr height=200>
    <td width=300></td>
    <td width=300><img src=""static/images/keys/m.svg"" width=""35%"" height=""75%""></img></td>
  </tr>
</table>
  ",77.0,,,,,,,,,,,,,,,,,,,,,,,,,1.0,,
222,0,,html-keyboard-response,222,794111,0.0-7.14-2.14,z9wbczifewk,2022-09-19 16:45:22.802,615dbec57d764bf5ab0a56e5,2,60,81,27,37,38,female,,,"
  <table>
  <tr height=300>
    <td width=300 height=300><img src=""static/images/cards/back_of_red_stars.svg"" width=""175px"" height=""250px""></img></td>
    <td width=300 height=300><img src=""static/images/cards/1_of_red_stars.svg"" width=""175px"" height=""250px""></img></td>
  </tr>
  <tr height=200>
    <td width=300></td>
    <td width=300><img src=""static/images/keys/m.svg"" width=""35%"" height=""75%""></img></td>
  </tr>
</table>
  ",,,,,,,,,,,,,,,,,,,,,,,,,,,,
223,0,,html-keyboard-response,223,795613,0.0-7.14-3.14,z9wbczifewk,2022-09-19 16:45:22.802,615dbec57d764bf5ab0a56e5,2,60,81,27,37,38,female,,,"<p style=""font-size:50px"">You Lose!
No points this round.</p>",,,,,,,,,,,,,,,,,,,,,,,,,,,,
224,0,,html-keyboard-response,224,796119,0.0-7.14-4.14,z9wbczifewk,2022-09-19 16:45:22.802,615dbec57d764bf5ab0a56e5,2,60,81,27,37,38,female,,,,,1.0,choice,14.0,B,D,red,red,stars,moons,B,D,B,red,stars,2682.1999999997,0.0,1.0,0,right,1764.1000000001,1.0,0.0,0.0,,,,
225,0,,html-keyboard-response,225,801121,0.0-7.15-0.15,z9wbczifewk,2022-09-19 16:45:22.802,615dbec57d764bf5ab0a56e5,2,60,81,27,37,38,female,,,"
  <table>
  <tr height=300>
    <td width=300 height=300><img src=""static/images/cards/stack_of_red_stars.svg"" width=""175px"" height=""250px""></img></td>
    <td width=300 height=300><img src=""static/images/cards/stack_of_red_moons.svg"" width=""175px"" height=""250px""></img></td>
  </tr>
  <tr height=200>
    <td width=300><img src=""static/images/keys/w.svg"" width=""35%"" height=""75%""></img></td>
    <td width=300><img src=""static/images/keys/o.svg"" width=""35%"" height=""75%""></img></td>
  </tr>
</table>
  ",,,,,,,,,,,,,,,,,,,,,,,,,,,,
226,0,,html-keyboard-response,226,801627,0.0-7.15-1.15,z9wbczifewk,2022-09-19 16:45:22.802,615dbec57d764bf5ab0a56e5,2,60,81,27,37,38,female,,,,,,,,,,,,,,,,,,,,,,,,,,,,,,,
227,0,,html-keyboard-response,227,801632,0.0-7.15-2.15,z9wbczifewk,2022-09-19 16:45:22.802,615dbec57d764bf5ab0a56e5,2,60,81,27,37,38,female,,,,,,,,,,,,,,,,,,,,,,,,,,,,,,,
228,0,,html-keyboard-response,228,803134,0.0-7.15-3.15,z9wbczifewk,2022-09-19 16:45:22.802,615dbec57d764bf5ab0a56e5,2,60,81,27,37,38,female,,,"<p style=""font-size:50px"">Too slow!</p>",,,,,,,,,,,,,,,,,,,,,,,,,,,,
229,0,,html-keyboard-response,229,803639,0.0-7.15-4.15,z9wbczifewk,2022-09-19 16:45:22.802,615dbec57d764bf5ab0a56e5,2,60,81,27,37,38,female,,,,,1.0,choice,15.0,B,D,red,red,stars,moons,B,D,,,,,0.0,1.0,0,,,1.0,0.0,0.0,,,,
230,0,,html-keyboard-response,230,808641,0.0-7.16-0.16,z9wbczifewk,2022-09-19 16:45:22.802,615dbec57d764bf5ab0a56e5,2,60,81,27,37,38,female,,,"
  <table>
  <tr height=300>
    <td width=300 height=300><img src=""static/images/cards/stack_of_red_moons.svg"" width=""175px"" height=""250px""></img></td>
    <td width=300 height=300><img src=""static/images/cards/stack_of_red_stars.svg"" width=""175px"" height=""250px""></img></td>
  </tr>
  <tr height=200>
    <td width=300><img src=""static/images/keys/w.svg"" width=""35%"" height=""75%""></img></td>
    <td width=300><img src=""static/images/keys/o.svg"" width=""35%"" height=""75%""></img></td>
  </tr>
</table>
  ",,,,,,,,,,,,,,,,,,,,,,,,,,,,
231,0,,html-keyboard-response,231,809147,0.0-7.16-1.16,z9wbczifewk,2022-09-19 16:45:22.802,615dbec57d764bf5ab0a56e5,2,60,81,27,37,38,female,,,,,,,,,,,,,,,,,,,,,,,,,,,,,,,
232,0,,html-keyboard-response,232,809152,0.0-7.16-2.16,z9wbczifewk,2022-09-19 16:45:22.802,615dbec57d764bf5ab0a56e5,2,60,81,27,37,38,female,,,,,,,,,,,,,,,,,,,,,,,,,,,,,,,
233,0,,html-keyboard-response,233,810654,0.0-7.16-3.16,z9wbczifewk,2022-09-19 16:45:22.802,615dbec57d764bf5ab0a56e5,2,60,81,27,37,38,female,,,"<p style=""font-size:50px"">Too slow!</p>",,,,,,,,,,,,,,,,,,,,,,,,,,,,
234,0,,html-keyboard-response,234,811160,0.0-7.16-4.16,z9wbczifewk,2022-09-19 16:45:22.802,615dbec57d764bf5ab0a56e5,2,60,81,27,37,38,female,,,,,1.0,choice,16.0,B,D,red,red,moons,stars,D,B,,,,,0.0,1.0,0,,,1.0,0.0,0.0,,,,
235,0,,html-keyboard-response,235,813390,0.0-7.17-0.17,z9wbczifewk,2022-09-19 16:45:22.802,615dbec57d764bf5ab0a56e5,2,60,81,27,37,38,female,2227.5,,"
  <table>
  <tr height=300>
    <td width=300 height=300><img src=""static/images/cards/stack_of_red_stars.svg"" width=""175px"" height=""250px""></img></td>
    <td width=300 height=300><img src=""static/images/cards/stack_of_black_moons.svg"" width=""175px"" height=""250px""></img></td>
  </tr>
  <tr height=200>
    <td width=300><img src=""static/images/keys/w.svg"" width=""35%"" height=""75%""></img></td>
    <td width=300><img src=""static/images/keys/o.svg"" width=""35%"" height=""75%""></img></td>
  </tr>
</table>
  ",87.0,,,,,,,,,,,,,,,,,,,,,,,,,1.0,,
236,0,,html-keyboard-response,236,815803,0.0-7.17-1.17,z9wbczifewk,2022-09-19 16:45:22.802,615dbec57d764bf5ab0a56e5,2,60,81,27,37,38,female,1910.5,,"
  <table>
  <tr height=300>
    <td width=300 height=300><img src=""static/images/cards/back_of_red_stars.svg"" width=""175px"" height=""250px""></img></td>
    <td width=300 height=300><img src=""static/images/cards/back_of_red_stars.svg"" width=""175px"" height=""250px""></img></td>
  </tr>
  <tr height=200>
    <td width=300><img src=""static/images/keys/z.svg"" width=""35%"" height=""75%""></img></td>
    <td width=300></td>
  </tr>
</table>
  ",90.0,,,,,,,,,,,,,,,,,,,,,,,,,1.0,,
237,0,,html-keyboard-response,237,817305,0.0-7.17-2.17,z9wbczifewk,2022-09-19 16:45:22.802,615dbec57d764bf5ab0a56e5,2,60,81,27,37,38,female,,,"
  <table>
  <tr height=300>
    <td width=300 height=300><img src=""static/images/cards/1_of_red_stars.svg"" width=""175px"" height=""250px""></img></td>
    <td width=300 height=300><img src=""static/images/cards/back_of_red_stars.svg"" width=""175px"" height=""250px""></img></td>
  </tr>
  <tr height=200>
    <td width=300><img src=""static/images/keys/z.svg"" width=""35%"" height=""75%""></img></td>
    <td width=300></td>
  </tr>
</table>
  ",,,,,,,,,,,,,,,,,,,,,,,,,,,,
238,0,,html-keyboard-response,238,818806,0.0-7.17-3.17,z9wbczifewk,2022-09-19 16:45:22.802,615dbec57d764bf5ab0a56e5,2,60,81,27,37,38,female,,,"<p style=""font-size:50px"">You Lose!
No points this round.</p>",,,,,,,,,,,,,,,,,,,,,,,,,,,,
239,0,,html-keyboard-response,239,819312,0.0-7.17-4.17,z9wbczifewk,2022-09-19 16:45:22.802,615dbec57d764bf5ab0a56e5,2,60,81,27,37,38,female,,,,,1.0,choice,17.0,B,C,red,black,stars,moons,B,C,B,red,stars,2227.5,0.0,1.0,1,left,1910.5,1.0,0.0,0.0,,,,
240,0,,html-keyboard-response,240,820655,0.0-7.18-0.18,z9wbczifewk,2022-09-19 16:45:22.802,615dbec57d764bf5ab0a56e5,2,60,81,27,37,38,female,1340.6000000001,,"
  <table>
  <tr height=300>
    <td width=300 height=300><img src=""static/images/cards/stack_of_black_stars.svg"" width=""175px"" height=""250px""></img></td>
    <td width=300 height=300><img src=""static/images/cards/stack_of_red_stars.svg"" width=""175px"" height=""250px""></img></td>
  </tr>
  <tr height=200>
    <td width=300><img src=""static/images/keys/w.svg"" width=""35%"" height=""75%""></img></td>
    <td width=300><img src=""static/images/keys/o.svg"" width=""35%"" height=""75%""></img></td>
  </tr>
</table>
  ",79.0,,,,,,,,,,,,,,,,,,,,,,,,,1.0,,
241,0,,html-keyboard-response,241,822756,0.0-7.18-1.18,z9wbczifewk,2022-09-19 16:45:22.802,615dbec57d764bf5ab0a56e5,2,60,81,27,37,38,female,1599.1999999997,,"
  <table>
  <tr height=300>
    <td width=300 height=300><img src=""static/images/cards/back_of_red_stars.svg"" width=""175px"" height=""250px""></img></td>
    <td width=300 height=300><img src=""static/images/cards/back_of_red_stars.svg"" width=""175px"" height=""250px""></img></td>
  </tr>
  <tr height=200>
    <td width=300><img src=""static/images/keys/z.svg"" width=""35%"" height=""75%""></img></td>
    <td width=300></td>
  </tr>
</table>
  ",90.0,,,,,,,,,,,,,,,,,,,,,,,,,1.0,,
