,index,success,trial_type,trial_index,time_elapsed,internal_node_id,subject,date,prol_id,ctbl,sense_of_control_A,sense_of_control_B,sense_of_control_C,sense_of_control_D,age,gender,rt,url,stimulus,key_press,is_data_trial,phase,trial,deck1,deck2,col1,col2,sym1,sym2,deck_l,deck_r,chosen_deck,chosen_col,chosen_sym,deck_rt,choose_choice,mutual_info,hidden_key,chosen_card,card_rt,player_num,win_card,outcome,mock_rating,npress,response,responses
0,0,1.0,fullscreen,0,19306,0.0-0.0,k8wm0nx1cw,2022-09-19 17:57:53.587,5b6641d6bd3c8a0001d487d5,3,76,19,70,44,35,Female,,,,,,,,,,,,,,,,,,,,,,,,,,,,,,,
1,0,,external-html,1,42359,0.0-1.0,k8wm0nx1cw,2022-09-19 17:57:53.587,5b6641d6bd3c8a0001d487d5,3,76,19,70,44,35,Female,22983.2999999523,static/js/sub/consent.html,,,,,,,,,,,,,,,,,,,,,,,,,,,,,
2,0,,call-function,2,42360,0.0-2.0,k8wm0nx1cw,2022-09-19 17:57:53.587,5b6641d6bd3c8a0001d487d5,3,76,19,70,44,35,Female,,,,,,,,,,,,,,,,,,,,,,,,,,,,,,,
3,0,,image-keyboard-response,3,58495,0.0-3.0-0.0,k8wm0nx1cw,2022-09-19 17:57:53.587,5b6641d6bd3c8a0001d487d5,3,76,19,70,44,35,Female,16134.5,,static/images/instructions_CB_3/Slide1.png,39.0,,,,,,,,,,,,,,,,,,,,,,,,,,,
4,0,,image-keyboard-response,4,101596,0.0-3.1-0.1,k8wm0nx1cw,2022-09-19 17:57:53.587,5b6641d6bd3c8a0001d487d5,3,76,19,70,44,35,Female,43099.7999999523,,static/images/instructions_CB_3/Slide2.png,39.0,,,,,,,,,,,,,,,,,,,,,,,,,,,
5,0,,image-keyboard-response,5,136460,0.0-3.2-0.2,k8wm0nx1cw,2022-09-19 17:57:53.587,5b6641d6bd3c8a0001d487d5,3,76,19,70,44,35,Female,34862.6000000238,,static/images/instructions_CB_3/Slide3.png,39.0,,,,,,,,,,,,,,,,,,,,,,,,,,,
6,0,,image-keyboard-response,6,152161,0.0-3.3-0.3,k8wm0nx1cw,2022-09-19 17:57:53.587,5b6641d6bd3c8a0001d487d5,3,76,19,70,44,35,Female,15699.1999999881,,static/images/instructions_CB_3/Slide4.png,39.0,,,,,,,,,,,,,,,,,,,,,,,,,,,
7,0,,image-keyboard-response,7,193299,0.0-3.4-0.4,k8wm0nx1cw,2022-09-19 17:57:53.587,5b6641d6bd3c8a0001d487d5,3,76,19,70,44,35,Female,41137.8000000119,,static/images/instructions_CB_3/Slide5.png,39.0,,,,,,,,,,,,,,,,,,,,,,,,,,,
8,0,,image-keyboard-response,8,197412,0.0-3.5-0.5,k8wm0nx1cw,2022-09-19 17:57:53.587,5b6641d6bd3c8a0001d487d5,3,76,19,70,44,35,Female,4111.8000000119,,static/images/instructions_CB_3/Slide6.png,39.0,,,,,,,,,,,,,,,,,,,,,,,,,,,
9,0,,image-keyboard-response,9,205636,0.0-3.6-0.6,k8wm0nx1cw,2022-09-19 17:57:53.587,5b6641d6bd3c8a0001d487d5,3,76,19,70,44,35,Female,8223.3999999762,,static/images/instructions_CB_3/Slide7.png,39.0,,,,,,,,,,,,,,,,,,,,,,,,,,,
10,0,,image-keyboard-response,10,235926,0.0-3.7-0.7,k8wm0nx1cw,2022-09-19 17:57:53.587,5b6641d6bd3c8a0001d487d5,3,76,19,70,44,35,Female,30289.0,,static/images/instructions_CB_3/Slide8.png,39.0,,,,,,,,,,,,,,,,,,,,,,,,,,,
11,0,,image-keyboard-response,11,248039,0.0-3.8-0.8,k8wm0nx1cw,2022-09-19 17:57:53.587,5b6641d6bd3c8a0001d487d5,3,76,19,70,44,35,Female,12112.3000000119,,static/images/instructions_CB_3/Slide9.png,39.0,,,,,,,,,,,,,,,,,,,,,,,,,,,
12,0,,image-keyboard-response,12,270916,0.0-3.9-0.9,k8wm0nx1cw,2022-09-19 17:57:53.587,5b6641d6bd3c8a0001d487d5,3,76,19,70,44,35,Female,22876.1000000238,,static/images/instructions_CB_3/Slide10.png,39.0,,,,,,,,,,,,,,,,,,,,,,,,,,,
13,0,,image-keyboard-response,13,286092,0.0-3.10-0.10,k8wm0nx1cw,2022-09-19 17:57:53.587,5b6641d6bd3c8a0001d487d5,3,76,19,70,44,35,Female,15175.8999999762,,static/images/instructions_CB_3/Slide11.png,39.0,,,,,,,,,,,,,,,,,,,,,,,,,,,
14,0,,image-keyboard-response,14,299542,0.0-3.11-0.11,k8wm0nx1cw,2022-09-19 17:57:53.587,5b6641d6bd3c8a0001d487d5,3,76,19,70,44,35,Female,13449.1000000238,,static/images/instructions_CB_3/Slide12.png,39.0,,,,,,,,,,,,,,,,,,,,,,,,,,,
15,0,,image-keyboard-response,15,316780,0.0-3.12-0.12,k8wm0nx1cw,2022-09-19 17:57:53.587,5b6641d6bd3c8a0001d487d5,3,76,19,70,44,35,Female,17237.6000000238,,static/images/instructions_CB_3/Slide13.png,39.0,,,,,,,,,,,,,,,,,,,,,,,,,,,
16,0,,image-keyboard-response,16,326343,0.0-3.13-0.13,k8wm0nx1cw,2022-09-19 17:57:53.587,5b6641d6bd3c8a0001d487d5,3,76,19,70,44,35,Female,9562.3000000119,,static/images/instructions_CB_3/Slide14.png,39.0,,,,,,,,,,,,,,,,,,,,,,,,,,,
17,0,,image-keyboard-response,17,343394,0.0-3.14-0.14,k8wm0nx1cw,2022-09-19 17:57:53.587,5b6641d6bd3c8a0001d487d5,3,76,19,70,44,35,Female,17050.8000000119,,static/images/instructions_CB_3/Slide15.png,39.0,,,,,,,,,,,,,,,,,,,,,,,,,,,
18,0,,image-keyboard-response,18,353433,0.0-3.15-0.15,k8wm0nx1cw,2022-09-19 17:57:53.587,5b6641d6bd3c8a0001d487d5,3,76,19,70,44,35,Female,10037.3999999762,,static/images/instructions_CB_3/Slide16.png,39.0,,,,,,,,,,,,,,,,,,,,,,,,,,,
19,0,,image-keyboard-response,19,367033,0.0-3.16-0.16,k8wm0nx1cw,2022-09-19 17:57:53.587,5b6641d6bd3c8a0001d487d5,3,76,19,70,44,35,Female,13599.4000000358,,static/images/instructions_CB_3/Slide17.png,39.0,,,,,,,,,,,,,,,,,,,,,,,,,,,
20,0,,image-keyboard-response,20,407499,0.0-3.17-0.17,k8wm0nx1cw,2022-09-19 17:57:53.587,5b6641d6bd3c8a0001d487d5,3,76,19,70,44,35,Female,40465.0,,static/images/instructions_CB_3/Slide18.png,39.0,,,,,,,,,,,,,,,,,,,,,,,,,,,
21,0,,image-keyboard-response,21,425399,0.0-3.18-0.18,k8wm0nx1cw,2022-09-19 17:57:53.587,5b6641d6bd3c8a0001d487d5,3,76,19,70,44,35,Female,17899.5,,static/images/instructions_CB_3/Slide19.png,39.0,,,,,,,,,,,,,,,,,,,,,,,,,,,
22,0,,html-keyboard-response,22,426909,0.0-4.0-0.0,k8wm0nx1cw,2022-09-19 17:57:53.587,5b6641d6bd3c8a0001d487d5,3,76,19,70,44,35,Female,,,"<img src=""static/images/cards/stack_of_black_moons.svg"" width=""175px"" height=""250px""></img>",,,,,,,,,,,,,,,,,,,,,,,,,,,,
23,0,,html-keyboard-response,23,430427,0.0-4.0-1.0,k8wm0nx1cw,2022-09-19 17:57:53.587,5b6641d6bd3c8a0001d487d5,3,76,19,70,44,35,Female,,,"
  <table>
  <tr height=300>
    <td width=300 height=300><img src=""static/images/cards/back_of_black_moons.svg"" width=""175px"" height=""250px""></img></td>
    <td width=300 height=300><img src=""static/images/cards/back_of_black_moons.svg"" width=""175px"" height=""250px""></img></td>
  </tr>
  <tr height=200>
    <td width=300><img src=""static/images/keys/z.svg"" width=""35%"" height=""75%""></img></td>
    <td width=300><img src=""static/images/keys/m.svg"" width=""35%"" height=""75%""></img></td>
  </tr>
</table>
  ",,,,,,,,,,,,,,,,,,,,,,,,,,,,
24,0,,html-keyboard-response,24,430428,0.0-4.0-2.0,k8wm0nx1cw,2022-09-19 17:57:53.587,5b6641d6bd3c8a0001d487d5,3,76,19,70,44,35,Female,,,,,,,,,,,,,,,,,,,,,,,,,,,,,,,
25,0,,html-keyboard-response,25,431936,0.0-4.0-3.0,k8wm0nx1cw,2022-09-19 17:57:53.587,5b6641d6bd3c8a0001d487d5,3,76,19,70,44,35,Female,,,"<p style=""font-size:50px"">Too slow!</p>",,,,,,,,,,,,,,,,,,,,,,,,,,,,
26,0,,html-keyboard-response,26,432443,0.0-4.0-4.0,k8wm0nx1cw,2022-09-19 17:57:53.587,5b6641d6bd3c8a0001d487d5,3,76,19,70,44,35,Female,,,,,1.0,learning,0.0,A,,black,,moons,,,,A,black,moons,,1.0,1.0,NA,,,,,,,,,
27,0,,html-keyboard-response,27,433955,0.0-4.1-0.1,k8wm0nx1cw,2022-09-19 17:57:53.587,5b6641d6bd3c8a0001d487d5,3,76,19,70,44,35,Female,,,"<img src=""static/images/cards/stack_of_red_moons.svg"" width=""175px"" height=""250px""></img>",,,,,,,,,,,,,,,,,,,,,,,,,,,,
28,0,,html-keyboard-response,28,435924,0.0-4.1-1.1,k8wm0nx1cw,2022-09-19 17:57:53.587,5b6641d6bd3c8a0001d487d5,3,76,19,70,44,35,Female,1458.9000000358,,"
  <table>
  <tr height=300>
    <td width=300 height=300><img src=""static/images/cards/back_of_red_moons.svg"" width=""175px"" height=""250px""></img></td>
    <td width=300 height=300><img src=""static/images/cards/back_of_red_moons.svg"" width=""175px"" height=""250px""></img></td>
  </tr>
  <tr height=200>
    <td width=300><img src=""static/images/keys/z.svg"" width=""35%"" height=""75%""></img></td>
    <td width=300></td>
  </tr>
</table>
  ",90.0,,,,,,,,,,,,,,,,,,,,,,,,,1.0,,
29,0,,html-keyboard-response,29,437439,0.0-4.1-2.1,k8wm0nx1cw,2022-09-19 17:57:53.587,5b6641d6bd3c8a0001d487d5,3,76,19,70,44,35,Female,,,"
  <table>
  <tr height=300>
    <td width=300 height=300><img src=""static/images/cards/10_of_red_moons.svg"" width=""175px"" height=""250px""></img></td>
    <td width=300 height=300><img src=""static/images/cards/back_of_red_moons.svg"" width=""175px"" height=""250px""></img></td>
  </tr>
  <tr height=200>
    <td width=300><img src=""static/images/keys/z.svg"" width=""35%"" height=""75%""></img></td>
    <td width=300></td>
  </tr>
</table>
  ",,,,,,,,,,,,,,,,,,,,,,,,,,,,
30,0,,html-keyboard-response,30,438958,0.0-4.1-3.1,k8wm0nx1cw,2022-09-19 17:57:53.587,5b6641d6bd3c8a0001d487d5,3,76,19,70,44,35,Female,,,"<p style=""font-size:50px"">You win!
+10 points this round!</p>",,,,,,,,,,,,,,,,,,,,,,,,,,,,
31,0,,html-keyboard-response,31,439468,0.0-4.1-4.1,k8wm0nx1cw,2022-09-19 17:57:53.587,5b6641d6bd3c8a0001d487d5,3,76,19,70,44,35,Female,,,,,1.0,learning,1.0,B,,red,,moons,,,,B,red,moons,,0.0,1.0,1,left,1458.9000000358,10.0,1.0,1.0,,,,
32,0,,html-keyboard-response,32,440976,0.0-4.2-0.2,k8wm0nx1cw,2022-09-19 17:57:53.587,5b6641d6bd3c8a0001d487d5,3,76,19,70,44,35,Female,,,"<img src=""static/images/cards/stack_of_black_stars.svg"" width=""175px"" height=""250px""></img>",,,,,,,,,,,,,,,,,,,,,,,,,,,,
33,0,,html-keyboard-response,33,442262,0.0-4.2-1.2,k8wm0nx1cw,2022-09-19 17:57:53.587,5b6641d6bd3c8a0001d487d5,3,76,19,70,44,35,Female,777.6999999881,,"
  <table>
  <tr height=300>
    <td width=300 height=300><img src=""static/images/cards/back_of_black_stars.svg"" width=""175px"" height=""250px""></img></td>
    <td width=300 height=300><img src=""static/images/cards/back_of_black_stars.svg"" width=""175px"" height=""250px""></img></td>
  </tr>
  <tr height=200>
    <td width=300><img src=""static/images/keys/z.svg"" width=""35%"" height=""75%""></img></td>
    <td width=300><img src=""static/images/keys/m.svg"" width=""35%"" height=""75%""></img></td>
  </tr>
</table>
  ",77.0,,,,,,,,,,,,,,,,,,,,,,,,,1.0,,
34,0,,html-keyboard-response,34,443768,0.0-4.2-2.2,k8wm0nx1cw,2022-09-19 17:57:53.587,5b6641d6bd3c8a0001d487d5,3,76,19,70,44,35,Female,,,"
  <table>
  <tr height=300>
    <td width=300 height=300><img src=""static/images/cards/back_of_black_stars.svg"" width=""175px"" height=""250px""></img></td>
    <td width=300 height=300><img src=""static/images/cards/7_of_black_stars.svg"" width=""175px"" height=""250px""></img></td>
  </tr>
  <tr height=200>
    <td width=300><img src=""static/images/keys/z.svg"" width=""35%"" height=""75%""></img></td>
    <td width=300><img src=""static/images/keys/m.svg"" width=""35%"" height=""75%""></img></td>
  </tr>
</table>
  ",,,,,,,,,,,,,,,,,,,,,,,,,,,,
35,0,,html-keyboard-response,35,445290,0.0-4.2-3.2,k8wm0nx1cw,2022-09-19 17:57:53.587,5b6641d6bd3c8a0001d487d5,3,76,19,70,44,35,Female,,,"<p style=""font-size:50px"">You win!
+10 points this round!</p>",,,,,,,,,,,,,,,,,,,,,,,,,,,,
36,0,,html-keyboard-response,36,445803,0.0-4.2-4.2,k8wm0nx1cw,2022-09-19 17:57:53.587,5b6641d6bd3c8a0001d487d5,3,76,19,70,44,35,Female,,,,,1.0,learning,2.0,C,,black,,stars,,,,C,black,stars,,1.0,0.0,NA,right,777.6999999881,7.0,1.0,1.0,,,,
37,0,,html-keyboard-response,37,447315,0.0-4.3-0.3,k8wm0nx1cw,2022-09-19 17:57:53.587,5b6641d6bd3c8a0001d487d5,3,76,19,70,44,35,Female,,,"<img src=""static/images/cards/stack_of_red_stars.svg"" width=""175px"" height=""250px""></img>",,,,,,,,,,,,,,,,,,,,,,,,,,,,
38,0,,html-keyboard-response,38,448589,0.0-4.3-1.3,k8wm0nx1cw,2022-09-19 17:57:53.587,5b6641d6bd3c8a0001d487d5,3,76,19,70,44,35,Female,766.1999999881,,"
  <table>
  <tr height=300>
    <td width=300 height=300><img src=""static/images/cards/back_of_red_stars.svg"" width=""175px"" height=""250px""></img></td>
    <td width=300 height=300><img src=""static/images/cards/back_of_red_stars.svg"" width=""175px"" height=""250px""></img></td>
  </tr>
  <tr height=200>
    <td width=300></td>
    <td width=300><img src=""static/images/keys/m.svg"" width=""35%"" height=""75%""></img></td>
  </tr>
</table>
  ",77.0,,,,,,,,,,,,,,,,,,,,,,,,,1.0,,
39,0,,html-keyboard-response,39,450102,0.0-4.3-2.3,k8wm0nx1cw,2022-09-19 17:57:53.587,5b6641d6bd3c8a0001d487d5,3,76,19,70,44,35,Female,,,"
  <table>
  <tr height=300>
    <td width=300 height=300><img src=""static/images/cards/back_of_red_stars.svg"" width=""175px"" height=""250px""></img></td>
    <td width=300 height=300><img src=""static/images/cards/8_of_red_stars.svg"" width=""175px"" height=""250px""></img></td>
  </tr>
  <tr height=200>
    <td width=300></td>
    <td width=300><img src=""static/images/keys/m.svg"" width=""35%"" height=""75%""></img></td>
  </tr>
</table>
  ",,,,,,,,,,,,,,,,,,,,,,,,,,,,
40,0,,html-keyboard-response,40,451617,0.0-4.3-3.3,k8wm0nx1cw,2022-09-19 17:57:53.587,5b6641d6bd3c8a0001d487d5,3,76,19,70,44,35,Female,,,"<p style=""font-size:50px"">You Lose!
No points this round.</p>",,,,,,,,,,,,,,,,,,,,,,,,,,,,
41,0,,html-keyboard-response,41,452127,0.0-4.3-4.3,k8wm0nx1cw,2022-09-19 17:57:53.587,5b6641d6bd3c8a0001d487d5,3,76,19,70,44,35,Female,,,,,1.0,learning,3.0,D,,red,,stars,,,,D,red,stars,,0.0,0.0,0,right,766.1999999881,8.0,1.0,0.0,,,,
42,0,,html-keyboard-response,42,453638,0.0-4.4-0.4,k8wm0nx1cw,2022-09-19 17:57:53.587,5b6641d6bd3c8a0001d487d5,3,76,19,70,44,35,Female,,,"<img src=""static/images/cards/stack_of_red_bolts.svg"" width=""175px"" height=""250px""></img>",,,,,,,,,,,,,,,,,,,,,,,,,,,,
43,0,,html-keyboard-response,43,454726,0.0-4.4-1.4,k8wm0nx1cw,2022-09-19 17:57:53.587,5b6641d6bd3c8a0001d487d5,3,76,19,70,44,35,Female,582.5,,"
  <table>
  <tr height=300>
    <td width=300 height=300><img src=""static/images/cards/back_of_red_bolts.svg"" width=""175px"" height=""250px""></img></td>
    <td width=300 height=300><img src=""static/images/cards/back_of_red_bolts.svg"" width=""175px"" height=""250px""></img></td>
  </tr>
  <tr height=200>
    <td width=300><img src=""static/images/keys/z.svg"" width=""35%"" height=""75%""></img></td>
    <td width=300><img src=""static/images/keys/m.svg"" width=""35%"" height=""75%""></img></td>
  </tr>
</table>
  ",90.0,,,,,,,,,,,,,,,,,,,,,,,,,1.0,,
44,0,,html-keyboard-response,44,456228,0.0-4.4-2.4,k8wm0nx1cw,2022-09-19 17:57:53.587,5b6641d6bd3c8a0001d487d5,3,76,19,70,44,35,Female,,,"
  <table>
  <tr height=300>
    <td width=300 height=300><img src=""static/images/cards/3_of_red_bolts.svg"" width=""175px"" height=""250px""></img></td>
    <td width=300 height=300><img src=""static/images/cards/back_of_red_bolts.svg"" width=""175px"" height=""250px""></img></td>
  </tr>
  <tr height=200>
    <td width=300><img src=""static/images/keys/z.svg"" width=""35%"" height=""75%""></img></td>
    <td width=300><img src=""static/images/keys/m.svg"" width=""35%"" height=""75%""></img></td>
  </tr>
</table>
  ",,,,,,,,,,,,,,,,,,,,,,,,,,,,
45,0,,html-keyboard-response,45,457743,0.0-4.4-3.4,k8wm0nx1cw,2022-09-19 17:57:53.587,5b6641d6bd3c8a0001d487d5,3,76,19,70,44,35,Female,,,"<p style=""font-size:50px"">You win!
+10 points this round!</p>",,,,,,,,,,,,,,,,,,,,,,,,,,,,
46,0,,html-keyboard-response,46,458254,0.0-4.4-4.4,k8wm0nx1cw,2022-09-19 17:57:53.587,5b6641d6bd3c8a0001d487d5,3,76,19,70,44,35,Female,,,,,1.0,learning,4.0,Xc,,red,,bolts,,,,Xc,red,bolts,,1.0,0.0,NA,left,582.5,3.0,0.0,1.0,,,,
47,0,,html-keyboard-response,47,459759,0.0-4.5-0.5,k8wm0nx1cw,2022-09-19 17:57:53.587,5b6641d6bd3c8a0001d487d5,3,76,19,70,44,35,Female,,,"<img src=""static/images/cards/stack_of_black_bolts.svg"" width=""175px"" height=""250px""></img>",,,,,,,,,,,,,,,,,,,,,,,,,,,,
48,0,,html-keyboard-response,48,460900,0.0-4.5-1.5,k8wm0nx1cw,2022-09-19 17:57:53.587,5b6641d6bd3c8a0001d487d5,3,76,19,70,44,35,Female,636.6999999881,,"
  <table>
  <tr height=300>
    <td width=300 height=300><img src=""static/images/cards/back_of_black_bolts.svg"" width=""175px"" height=""250px""></img></td>
    <td width=300 height=300><img src=""static/images/cards/back_of_black_bolts.svg"" width=""175px"" height=""250px""></img></td>
  </tr>
  <tr height=200>
    <td width=300></td>
    <td width=300><img src=""static/images/keys/m.svg"" width=""35%"" height=""75%""></img></td>
  </tr>
</table>
  ",77.0,,,,,,,,,,,,,,,,,,,,,,,,,1.0,,
49,0,,html-keyboard-response,49,462404,0.0-4.5-2.5,k8wm0nx1cw,2022-09-19 17:57:53.587,5b6641d6bd3c8a0001d487d5,3,76,19,70,44,35,Female,,,"
  <table>
  <tr height=300>
    <td width=300 height=300><img src=""static/images/cards/back_of_black_bolts.svg"" width=""175px"" height=""250px""></img></td>
    <td width=300 height=300><img src=""static/images/cards/10_of_black_bolts.svg"" width=""175px"" height=""250px""></img></td>
  </tr>
  <tr height=200>
    <td width=300></td>
    <td width=300><img src=""static/images/keys/m.svg"" width=""35%"" height=""75%""></img></td>
  </tr>
</table>
  ",,,,,,,,,,,,,,,,,,,,,,,,,,,,
50,0,,html-keyboard-response,50,463926,0.0-4.5-3.5,k8wm0nx1cw,2022-09-19 17:57:53.587,5b6641d6bd3c8a0001d487d5,3,76,19,70,44,35,Female,,,"<p style=""font-size:50px"">You win!
+10 points this round!</p>",,,,,,,,,,,,,,,,,,,,,,,,,,,,
51,0,,html-keyboard-response,51,464437,0.0-4.5-4.5,k8wm0nx1cw,2022-09-19 17:57:53.587,5b6641d6bd3c8a0001d487d5,3,76,19,70,44,35,Female,,,,,1.0,learning,5.0,Xnc,,black,,bolts,,,,Xnc,black,bolts,,0.0,0.0,0,right,636.6999999881,10.0,1.0,1.0,,,,
52,0,,html-keyboard-response,52,465952,0.0-4.6-0.6,k8wm0nx1cw,2022-09-19 17:57:53.587,5b6641d6bd3c8a0001d487d5,3,76,19,70,44,35,Female,,,"<img src=""static/images/cards/stack_of_black_moons.svg"" width=""175px"" height=""250px""></img>",,,,,,,,,,,,,,,,,,,,,,,,,,,,
53,0,,html-keyboard-response,53,467265,0.0-4.6-1.6,k8wm0nx1cw,2022-09-19 17:57:53.587,5b6641d6bd3c8a0001d487d5,3,76,19,70,44,35,Female,811.0,,"
  <table>
  <tr height=300>
    <td width=300 height=300><img src=""static/images/cards/back_of_black_moons.svg"" width=""175px"" height=""250px""></img></td>
    <td width=300 height=300><img src=""static/images/cards/back_of_black_moons.svg"" width=""175px"" height=""250px""></img></td>
  </tr>
  <tr height=200>
    <td width=300><img src=""static/images/keys/z.svg"" width=""35%"" height=""75%""></img></td>
    <td width=300><img src=""static/images/keys/m.svg"" width=""35%"" height=""75%""></img></td>
  </tr>
</table>
  ",90.0,,,,,,,,,,,,,,,,,,,,,,,,,1.0,,
54,0,,html-keyboard-response,54,468766,0.0-4.6-2.6,k8wm0nx1cw,2022-09-19 17:57:53.587,5b6641d6bd3c8a0001d487d5,3,76,19,70,44,35,Female,,,"
  <table>
  <tr height=300>
    <td width=300 height=300><img src=""static/images/cards/10_of_black_moons.svg"" width=""175px"" height=""250px""></img></td>
    <td width=300 height=300><img src=""static/images/cards/back_of_black_moons.svg"" width=""175px"" height=""250px""></img></td>
  </tr>
  <tr height=200>
    <td width=300><img src=""static/images/keys/z.svg"" width=""35%"" height=""75%""></img></td>
    <td width=300><img src=""static/images/keys/m.svg"" width=""35%"" height=""75%""></img></td>
  </tr>
</table>
  ",,,,,,,,,,,,,,,,,,,,,,,,,,,,
55,0,,html-keyboard-response,55,470276,0.0-4.6-3.6,k8wm0nx1cw,2022-09-19 17:57:53.587,5b6641d6bd3c8a0001d487d5,3,76,19,70,44,35,Female,,,"<p style=""font-size:50px"">You win!
+10 points this round!</p>",,,,,,,,,,,,,,,,,,,,,,,,,,,,
56,0,,html-keyboard-response,56,470787,0.0-4.6-4.6,k8wm0nx1cw,2022-09-19 17:57:53.587,5b6641d6bd3c8a0001d487d5,3,76,19,70,44,35,Female,,,,,1.0,learning,6.0,A,,black,,moons,,,,A,black,moons,,1.0,1.0,NA,left,811.0,10.0,1.0,1.0,,,,
57,0,,html-keyboard-response,57,472300,0.0-4.7-0.7,k8wm0nx1cw,2022-09-19 17:57:53.587,5b6641d6bd3c8a0001d487d5,3,76,19,70,44,35,Female,,,"<img src=""static/images/cards/stack_of_red_moons.svg"" width=""175px"" height=""250px""></img>",,,,,,,,,,,,,,,,,,,,,,,,,,,,
58,0,,html-keyboard-response,58,473389,0.0-4.7-1.7,k8wm0nx1cw,2022-09-19 17:57:53.587,5b6641d6bd3c8a0001d487d5,3,76,19,70,44,35,Female,574.6999999881,,"
  <table>
  <tr height=300>
    <td width=300 height=300><img src=""static/images/cards/back_of_red_moons.svg"" width=""175px"" height=""250px""></img></td>
    <td width=300 height=300><img src=""static/images/cards/back_of_red_moons.svg"" width=""175px"" height=""250px""></img></td>
  </tr>
  <tr height=200>
    <td width=300><img src=""static/images/keys/z.svg"" width=""35%"" height=""75%""></img></td>
    <td width=300></td>
  </tr>
</table>
  ",90.0,,,,,,,,,,,,,,,,,,,,,,,,,1.0,,
59,0,,html-keyboard-response,59,474893,0.0-4.7-2.7,k8wm0nx1cw,2022-09-19 17:57:53.587,5b6641d6bd3c8a0001d487d5,3,76,19,70,44,35,Female,,,"
  <table>
  <tr height=300>
    <td width=300 height=300><img src=""static/images/cards/1_of_red_moons.svg"" width=""175px"" height=""250px""></img></td>
    <td width=300 height=300><img src=""static/images/cards/back_of_red_moons.svg"" width=""175px"" height=""250px""></img></td>
  </tr>
  <tr height=200>
    <td width=300><img src=""static/images/keys/z.svg"" width=""35%"" height=""75%""></img></td>
    <td width=300></td>
  </tr>
</table>
  ",,,,,,,,,,,,,,,,,,,,,,,,,,,,
60,0,,html-keyboard-response,60,476403,0.0-4.7-3.7,k8wm0nx1cw,2022-09-19 17:57:53.587,5b6641d6bd3c8a0001d487d5,3,76,19,70,44,35,Female,,,"<p style=""font-size:50px"">You Lose!
No points this round.</p>",,,,,,,,,,,,,,,,,,,,,,,,,,,,
61,0,,html-keyboard-response,61,476914,0.0-4.7-4.7,k8wm0nx1cw,2022-09-19 17:57:53.587,5b6641d6bd3c8a0001d487d5,3,76,19,70,44,35,Female,,,,,1.0,learning,7.0,B,,red,,moons,,,,B,red,moons,,0.0,1.0,1,left,574.6999999881,1.0,0.0,0.0,,,,
62,0,,html-keyboard-response,62,478416,0.0-4.8-0.8,k8wm0nx1cw,2022-09-19 17:57:53.587,5b6641d6bd3c8a0001d487d5,3,76,19,70,44,35,Female,,,"<img src=""static/images/cards/stack_of_black_stars.svg"" width=""175px"" height=""250px""></img>",,,,,,,,,,,,,,,,,,,,,,,,,,,,
63,0,,html-keyboard-response,63,479427,0.0-4.8-1.8,k8wm0nx1cw,2022-09-19 17:57:53.587,5b6641d6bd3c8a0001d487d5,3,76,19,70,44,35,Female,503.2999999523,,"
  <table>
  <tr height=300>
    <td width=300 height=300><img src=""static/images/cards/back_of_black_stars.svg"" width=""175px"" height=""250px""></img></td>
    <td width=300 height=300><img src=""static/images/cards/back_of_black_stars.svg"" width=""175px"" height=""250px""></img></td>
  </tr>
  <tr height=200>
    <td width=300><img src=""static/images/keys/z.svg"" width=""35%"" height=""75%""></img></td>
    <td width=300><img src=""static/images/keys/m.svg"" width=""35%"" height=""75%""></img></td>
  </tr>
</table>
  ",77.0,,,,,,,,,,,,,,,,,,,,,,,,,1.0,,
64,0,,html-keyboard-response,64,480930,0.0-4.8-2.8,k8wm0nx1cw,2022-09-19 17:57:53.587,5b6641d6bd3c8a0001d487d5,3,76,19,70,44,35,Female,,,"
  <table>
  <tr height=300>
    <td width=300 height=300><img src=""static/images/cards/back_of_black_stars.svg"" width=""175px"" height=""250px""></img></td>
    <td width=300 height=300><img src=""static/images/cards/2_of_black_stars.svg"" width=""175px"" height=""250px""></img></td>
  </tr>
  <tr height=200>
    <td width=300><img src=""static/images/keys/z.svg"" width=""35%"" height=""75%""></img></td>
    <td width=300><img src=""static/images/keys/m.svg"" width=""35%"" height=""75%""></img></td>
  </tr>
</table>
  ",,,,,,,,,,,,,,,,,,,,,,,,,,,,
65,0,,html-keyboard-response,65,482448,0.0-4.8-3.8,k8wm0nx1cw,2022-09-19 17:57:53.587,5b6641d6bd3c8a0001d487d5,3,76,19,70,44,35,Female,,,"<p style=""font-size:50px"">You win!
+10 points this round!</p>",,,,,,,,,,,,,,,,,,,,,,,,,,,,
66,0,,html-keyboard-response,66,482961,0.0-4.8-4.8,k8wm0nx1cw,2022-09-19 17:57:53.587,5b6641d6bd3c8a0001d487d5,3,76,19,70,44,35,Female,,,,,1.0,learning,8.0,C,,black,,stars,,,,C,black,stars,,1.0,0.0,NA,right,503.2999999523,2.0,0.0,1.0,,,,
67,0,,html-keyboard-response,67,484466,0.0-4.9-0.9,k8wm0nx1cw,2022-09-19 17:57:53.587,5b6641d6bd3c8a0001d487d5,3,76,19,70,44,35,Female,,,"<img src=""static/images/cards/stack_of_red_stars.svg"" width=""175px"" height=""250px""></img>",,,,,,,,,,,,,,,,,,,,,,,,,,,,
68,0,,html-keyboard-response,68,485452,0.0-4.9-1.9,k8wm0nx1cw,2022-09-19 17:57:53.587,5b6641d6bd3c8a0001d487d5,3,76,19,70,44,35,Female,478.0,,"
  <table>
  <tr height=300>
    <td width=300 height=300><img src=""static/images/cards/back_of_red_stars.svg"" width=""175px"" height=""250px""></img></td>
    <td width=300 height=300><img src=""static/images/cards/back_of_red_stars.svg"" width=""175px"" height=""250px""></img></td>
  </tr>
  <tr height=200>
    <td width=300></td>
    <td width=300><img src=""static/images/keys/m.svg"" width=""35%"" height=""75%""></img></td>
  </tr>
</table>
  ",77.0,,,,,,,,,,,,,,,,,,,,,,,,,1.0,,
69,0,,html-keyboard-response,69,486955,0.0-4.9-2.9,k8wm0nx1cw,2022-09-19 17:57:53.587,5b6641d6bd3c8a0001d487d5,3,76,19,70,44,35,Female,,,"
  <table>
  <tr height=300>
    <td width=300 height=300><img src=""static/images/cards/back_of_red_stars.svg"" width=""175px"" height=""250px""></img></td>
    <td width=300 height=300><img src=""static/images/cards/3_of_red_stars.svg"" width=""175px"" height=""250px""></img></td>
  </tr>
  <tr height=200>
    <td width=300></td>
    <td width=300><img src=""static/images/keys/m.svg"" width=""35%"" height=""75%""></img></td>
  </tr>
</table>
  ",,,,,,,,,,,,,,,,,,,,,,,,,,,,
70,0,,html-keyboard-response,70,488471,0.0-4.9-3.9,k8wm0nx1cw,2022-09-19 17:57:53.587,5b6641d6bd3c8a0001d487d5,3,76,19,70,44,35,Female,,,"<p style=""font-size:50px"">You win!
+10 points this round!</p>",,,,,,,,,,,,,,,,,,,,,,,,,,,,
71,0,,html-keyboard-response,71,488984,0.0-4.9-4.9,k8wm0nx1cw,2022-09-19 17:57:53.587,5b6641d6bd3c8a0001d487d5,3,76,19,70,44,35,Female,,,,,1.0,learning,9.0,D,,red,,stars,,,,D,red,stars,,0.0,0.0,0,right,478.0,3.0,0.0,1.0,,,,
72,0,,html-keyboard-response,72,490499,0.0-4.10-0.10,k8wm0nx1cw,2022-09-19 17:57:53.587,5b6641d6bd3c8a0001d487d5,3,76,19,70,44,35,Female,,,"<img src=""static/images/cards/stack_of_red_bolts.svg"" width=""175px"" height=""250px""></img>",,,,,,,,,,,,,,,,,,,,,,,,,,,,
73,0,,html-keyboard-response,73,491691,0.0-4.10-1.10,k8wm0nx1cw,2022-09-19 17:57:53.587,5b6641d6bd3c8a0001d487d5,3,76,19,70,44,35,Female,682.6000000238,,"
  <table>
  <tr height=300>
    <td width=300 height=300><img src=""static/images/cards/back_of_red_bolts.svg"" width=""175px"" height=""250px""></img></td>
    <td width=300 height=300><img src=""static/images/cards/back_of_red_bolts.svg"" width=""175px"" height=""250px""></img></td>
  </tr>
  <tr height=200>
    <td width=300><img src=""static/images/keys/z.svg"" width=""35%"" height=""75%""></img></td>
    <td width=300><img src=""static/images/keys/m.svg"" width=""35%"" height=""75%""></img></td>
  </tr>
</table>
  ",90.0,,,,,,,,,,,,,,,,,,,,,,,,,1.0,,
74,0,,html-keyboard-response,74,493207,0.0-4.10-2.10,k8wm0nx1cw,2022-09-19 17:57:53.587,5b6641d6bd3c8a0001d487d5,3,76,19,70,44,35,Female,,,"
  <table>
  <tr height=300>
    <td width=300 height=300><img src=""static/images/cards/6_of_red_bolts.svg"" width=""175px"" height=""250px""></img></td>
    <td width=300 height=300><img src=""static/images/cards/back_of_red_bolts.svg"" width=""175px"" height=""250px""></img></td>
  </tr>
  <tr height=200>
    <td width=300><img src=""static/images/keys/z.svg"" width=""35%"" height=""75%""></img></td>
    <td width=300><img src=""static/images/keys/m.svg"" width=""35%"" height=""75%""></img></td>
  </tr>
</table>
  ",,,,,,,,,,,,,,,,,,,,,,,,,,,,
75,0,,html-keyboard-response,75,494723,0.0-4.10-3.10,k8wm0nx1cw,2022-09-19 17:57:53.587,5b6641d6bd3c8a0001d487d5,3,76,19,70,44,35,Female,,,"<p style=""font-size:50px"">You win!
+10 points this round!</p>",,,,,,,,,,,,,,,,,,,,,,,,,,,,
76,0,,html-keyboard-response,76,495234,0.0-4.10-4.10,k8wm0nx1cw,2022-09-19 17:57:53.587,5b6641d6bd3c8a0001d487d5,3,76,19,70,44,35,Female,,,,,1.0,learning,10.0,Xc,,red,,bolts,,,,Xc,red,bolts,,1.0,0.0,NA,left,682.6000000238,6.0,1.0,1.0,,,,
77,0,,html-keyboard-response,77,496750,0.0-4.11-0.11,k8wm0nx1cw,2022-09-19 17:57:53.587,5b6641d6bd3c8a0001d487d5,3,76,19,70,44,35,Female,,,"<img src=""static/images/cards/stack_of_black_bolts.svg"" width=""175px"" height=""250px""></img>",,,,,,,,,,,,,,,,,,,,,,,,,,,,
78,0,,html-keyboard-response,78,497703,0.0-4.11-1.11,k8wm0nx1cw,2022-09-19 17:57:53.587,5b6641d6bd3c8a0001d487d5,3,76,19,70,44,35,Female,446.0999999642,,"
  <table>
  <tr height=300>
    <td width=300 height=300><img src=""static/images/cards/back_of_black_bolts.svg"" width=""175px"" height=""250px""></img></td>
    <td width=300 height=300><img src=""static/images/cards/back_of_black_bolts.svg"" width=""175px"" height=""250px""></img></td>
  </tr>
  <tr height=200>
    <td width=300><img src=""static/images/keys/z.svg"" width=""35%"" height=""75%""></img></td>
    <td width=300></td>
  </tr>
</table>
  ",90.0,,,,,,,,,,,,,,,,,,,,,,,,,1.0,,
79,0,,html-keyboard-response,79,499209,0.0-4.11-2.11,k8wm0nx1cw,2022-09-19 17:57:53.587,5b6641d6bd3c8a0001d487d5,3,76,19,70,44,35,Female,,,"
  <table>
  <tr height=300>
    <td width=300 height=300><img src=""static/images/cards/1_of_black_bolts.svg"" width=""175px"" height=""250px""></img></td>
    <td width=300 height=300><img src=""static/images/cards/back_of_black_bolts.svg"" width=""175px"" height=""250px""></img></td>
  </tr>
  <tr height=200>
    <td width=300><img src=""static/images/keys/z.svg"" width=""35%"" height=""75%""></img></td>
    <td width=300></td>
  </tr>
</table>
  ",,,,,,,,,,,,,,,,,,,,,,,,,,,,
80,0,,html-keyboard-response,80,500729,0.0-4.11-3.11,k8wm0nx1cw,2022-09-19 17:57:53.587,5b6641d6bd3c8a0001d487d5,3,76,19,70,44,35,Female,,,"<p style=""font-size:50px"">You win!
+10 points this round!</p>",,,,,,,,,,,,,,,,,,,,,,,,,,,,
81,0,,html-keyboard-response,81,501240,0.0-4.11-4.11,k8wm0nx1cw,2022-09-19 17:57:53.587,5b6641d6bd3c8a0001d487d5,3,76,19,70,44,35,Female,,,,,1.0,learning,11.0,Xnc,,black,,bolts,,,,Xnc,black,bolts,,0.0,0.0,1,left,446.0999999642,1.0,0.0,1.0,,,,
82,0,,html-keyboard-response,82,502748,0.0-4.12-0.12,k8wm0nx1cw,2022-09-19 17:57:53.587,5b6641d6bd3c8a0001d487d5,3,76,19,70,44,35,Female,,,"<img src=""static/images/cards/stack_of_black_moons.svg"" width=""175px"" height=""250px""></img>",,,,,,,,,,,,,,,,,,,,,,,,,,,,
83,0,,html-keyboard-response,83,503854,0.0-4.12-1.12,k8wm0nx1cw,2022-09-19 17:57:53.587,5b6641d6bd3c8a0001d487d5,3,76,19,70,44,35,Female,598.7000000477,,"
  <table>
  <tr height=300>
    <td width=300 height=300><img src=""static/images/cards/back_of_black_moons.svg"" width=""175px"" height=""250px""></img></td>
    <td width=300 height=300><img src=""static/images/cards/back_of_black_moons.svg"" width=""175px"" height=""250px""></img></td>
  </tr>
  <tr height=200>
    <td width=300><img src=""static/images/keys/z.svg"" width=""35%"" height=""75%""></img></td>
    <td width=300><img src=""static/images/keys/m.svg"" width=""35%"" height=""75%""></img></td>
  </tr>
</table>
  ",77.0,,,,,,,,,,,,,,,,,,,,,,,,,1.0,,
84,0,,html-keyboard-response,84,505362,0.0-4.12-2.12,k8wm0nx1cw,2022-09-19 17:57:53.587,5b6641d6bd3c8a0001d487d5,3,76,19,70,44,35,Female,,,"
  <table>
  <tr height=300>
    <td width=300 height=300><img src=""static/images/cards/back_of_black_moons.svg"" width=""175px"" height=""250px""></img></td>
    <td width=300 height=300><img src=""static/images/cards/1_of_black_moons.svg"" width=""175px"" height=""250px""></img></td>
  </tr>
  <tr height=200>
    <td width=300><img src=""static/images/keys/z.svg"" width=""35%"" height=""75%""></img></td>
    <td width=300><img src=""static/images/keys/m.svg"" width=""35%"" height=""75%""></img></td>
  </tr>
</table>
  ",,,,,,,,,,,,,,,,,,,,,,,,,,,,
85,0,,html-keyboard-response,85,506881,0.0-4.12-3.12,k8wm0nx1cw,2022-09-19 17:57:53.587,5b6641d6bd3c8a0001d487d5,3,76,19,70,44,35,Female,,,"<p style=""font-size:50px"">You Lose!
No points this round.</p>",,,,,,,,,,,,,,,,,,,,,,,,,,,,
86,0,,html-keyboard-response,86,507390,0.0-4.12-4.12,k8wm0nx1cw,2022-09-19 17:57:53.587,5b6641d6bd3c8a0001d487d5,3,76,19,70,44,35,Female,,,,,1.0,learning,12.0,A,,black,,moons,,,,A,black,moons,,1.0,1.0,NA,right,598.7000000477,1.0,0.0,0.0,,,,
87,0,,html-keyboard-response,87,508899,0.0-4.13-0.13,k8wm0nx1cw,2022-09-19 17:57:53.587,5b6641d6bd3c8a0001d487d5,3,76,19,70,44,35,Female,,,"<img src=""static/images/cards/stack_of_red_moons.svg"" width=""175px"" height=""250px""></img>",,,,,,,,,,,,,,,,,,,,,,,,,,,,
88,0,,html-keyboard-response,88,509867,0.0-4.13-1.13,k8wm0nx1cw,2022-09-19 17:57:53.587,5b6641d6bd3c8a0001d487d5,3,76,19,70,44,35,Female,462.3000000119,,"
  <table>
  <tr height=300>
    <td width=300 height=300><img src=""static/images/cards/back_of_red_moons.svg"" width=""175px"" height=""250px""></img></td>
    <td width=300 height=300><img src=""static/images/cards/back_of_red_moons.svg"" width=""175px"" height=""250px""></img></td>
  </tr>
  <tr height=200>
    <td width=300><img src=""static/images/keys/z.svg"" width=""35%"" height=""75%""></img></td>
    <td width=300></td>
  </tr>
</table>
  ",90.0,,,,,,,,,,,,,,,,,,,,,,,,,1.0,,
89,0,,html-keyboard-response,89,511372,0.0-4.13-2.13,k8wm0nx1cw,2022-09-19 17:57:53.587,5b6641d6bd3c8a0001d487d5,3,76,19,70,44,35,Female,,,"
  <table>
  <tr height=300>
    <td width=300 height=300><img src=""static/images/cards/1_of_red_moons.svg"" width=""175px"" height=""250px""></img></td>
    <td width=300 height=300><img src=""static/images/cards/back_of_red_moons.svg"" width=""175px"" height=""250px""></img></td>
  </tr>
  <tr height=200>
    <td width=300><img src=""static/images/keys/z.svg"" width=""35%"" height=""75%""></img></td>
    <td width=300></td>
  </tr>
</table>
  ",,,,,,,,,,,,,,,,,,,,,,,,,,,,
90,0,,html-keyboard-response,90,512889,0.0-4.13-3.13,k8wm0nx1cw,2022-09-19 17:57:53.587,5b6641d6bd3c8a0001d487d5,3,76,19,70,44,35,Female,,,"<p style=""font-size:50px"">You Lose!
No points this round.</p>",,,,,,,,,,,,,,,,,,,,,,,,,,,,
91,0,,html-keyboard-response,91,513401,0.0-4.13-4.13,k8wm0nx1cw,2022-09-19 17:57:53.587,5b6641d6bd3c8a0001d487d5,3,76,19,70,44,35,Female,,,,,1.0,learning,13.0,B,,red,,moons,,,,B,red,moons,,0.0,1.0,1,left,462.3000000119,1.0,0.0,0.0,,,,
92,0,,html-keyboard-response,92,514915,0.0-4.14-0.14,k8wm0nx1cw,2022-09-19 17:57:53.587,5b6641d6bd3c8a0001d487d5,3,76,19,70,44,35,Female,,,"<img src=""static/images/cards/stack_of_black_stars.svg"" width=""175px"" height=""250px""></img>",,,,,,,,,,,,,,,,,,,,,,,,,,,,
93,0,,html-keyboard-response,93,515930,0.0-4.14-1.14,k8wm0nx1cw,2022-09-19 17:57:53.587,5b6641d6bd3c8a0001d487d5,3,76,19,70,44,35,Female,509.8000000119,,"
  <table>
  <tr height=300>
    <td width=300 height=300><img src=""static/images/cards/back_of_black_stars.svg"" width=""175px"" height=""250px""></img></td>
    <td width=300 height=300><img src=""static/images/cards/back_of_black_stars.svg"" width=""175px"" height=""250px""></img></td>
  </tr>
  <tr height=200>
    <td width=300><img src=""static/images/keys/z.svg"" width=""35%"" height=""75%""></img></td>
    <td width=300><img src=""static/images/keys/m.svg"" width=""35%"" height=""75%""></img></td>
  </tr>
</table>
  ",77.0,,,,,,,,,,,,,,,,,,,,,,,,,1.0,,
94,0,,html-keyboard-response,94,517441,0.0-4.14-2.14,k8wm0nx1cw,2022-09-19 17:57:53.587,5b6641d6bd3c8a0001d487d5,3,76,19,70,44,35,Female,,,"
  <table>
  <tr height=300>
    <td width=300 height=300><img src=""static/images/cards/back_of_black_stars.svg"" width=""175px"" height=""250px""></img></td>
    <td width=300 height=300><img src=""static/images/cards/3_of_black_stars.svg"" width=""175px"" height=""250px""></img></td>
  </tr>
  <tr height=200>
    <td width=300><img src=""static/images/keys/z.svg"" width=""35%"" height=""75%""></img></td>
    <td width=300><img src=""static/images/keys/m.svg"" width=""35%"" height=""75%""></img></td>
  </tr>
</table>
  ",,,,,,,,,,,,,,,,,,,,,,,,,,,,
95,0,,html-keyboard-response,95,518962,0.0-4.14-3.14,k8wm0nx1cw,2022-09-19 17:57:53.587,5b6641d6bd3c8a0001d487d5,3,76,19,70,44,35,Female,,,"<p style=""font-size:50px"">You win!
+10 points this round!</p>",,,,,,,,,,,,,,,,,,,,,,,,,,,,
96,0,,html-keyboard-response,96,519479,0.0-4.14-4.14,k8wm0nx1cw,2022-09-19 17:57:53.587,5b6641d6bd3c8a0001d487d5,3,76,19,70,44,35,Female,,,,,1.0,learning,14.0,C,,black,,stars,,,,C,black,stars,,1.0,0.0,NA,right,509.8000000119,3.0,0.0,1.0,,,,
97,0,,html-keyboard-response,97,520993,0.0-4.15-0.15,k8wm0nx1cw,2022-09-19 17:57:53.587,5b6641d6bd3c8a0001d487d5,3,76,19,70,44,35,Female,,,"<img src=""static/images/cards/stack_of_red_stars.svg"" width=""175px"" height=""250px""></img>",,,,,,,,,,,,,,,,,,,,,,,,,,,,
98,0,,html-keyboard-response,98,521943,0.0-4.15-1.15,k8wm0nx1cw,2022-09-19 17:57:53.587,5b6641d6bd3c8a0001d487d5,3,76,19,70,44,35,Female,442.1999999881,,"
  <table>
  <tr height=300>
    <td width=300 height=300><img src=""static/images/cards/back_of_red_stars.svg"" width=""175px"" height=""250px""></img></td>
    <td width=300 height=300><img src=""static/images/cards/back_of_red_stars.svg"" width=""175px"" height=""250px""></img></td>
  </tr>
  <tr height=200>
    <td width=300><img src=""static/images/keys/z.svg"" width=""35%"" height=""75%""></img></td>
    <td width=300></td>
  </tr>
</table>
  ",90.0,,,,,,,,,,,,,,,,,,,,,,,,,1.0,,
99,0,,html-keyboard-response,99,523450,0.0-4.15-2.15,k8wm0nx1cw,2022-09-19 17:57:53.587,5b6641d6bd3c8a0001d487d5,3,76,19,70,44,35,Female,,,"
  <table>
  <tr height=300>
    <td width=300 height=300><img src=""static/images/cards/2_of_red_stars.svg"" width=""175px"" height=""250px""></img></td>
    <td width=300 height=300><img src=""static/images/cards/back_of_red_stars.svg"" width=""175px"" height=""250px""></img></td>
  </tr>
  <tr height=200>
    <td width=300><img src=""static/images/keys/z.svg"" width=""35%"" height=""75%""></img></td>
    <td width=300></td>
  </tr>
</table>
  ",,,,,,,,,,,,,,,,,,,,,,,,,,,,
100,0,,html-keyboard-response,100,524961,0.0-4.15-3.15,k8wm0nx1cw,2022-09-19 17:57:53.587,5b6641d6bd3c8a0001d487d5,3,76,19,70,44,35,Female,,,"<p style=""font-size:50px"">You Lose!
No points this round.</p>",,,,,,,,,,,,,,,,,,,,,,,,,,,,
101,0,,html-keyboard-response,101,525474,0.0-4.15-4.15,k8wm0nx1cw,2022-09-19 17:57:53.587,5b6641d6bd3c8a0001d487d5,3,76,19,70,44,35,Female,,,,,1.0,learning,15.0,D,,red,,stars,,,,D,red,stars,,0.0,0.0,1,left,442.1999999881,2.0,0.0,0.0,,,,
102,0,,html-keyboard-response,102,526989,0.0-4.16-0.16,k8wm0nx1cw,2022-09-19 17:57:53.587,5b6641d6bd3c8a0001d487d5,3,76,19,70,44,35,Female,,,"<img src=""static/images/cards/stack_of_red_bolts.svg"" width=""175px"" height=""250px""></img>",,,,,,,,,,,,,,,,,,,,,,,,,,,,
103,0,,html-keyboard-response,103,527993,0.0-4.16-1.16,k8wm0nx1cw,2022-09-19 17:57:53.587,5b6641d6bd3c8a0001d487d5,3,76,19,70,44,35,Female,499.8000000119,,"
  <table>
  <tr height=300>
    <td width=300 height=300><img src=""static/images/cards/back_of_red_bolts.svg"" width=""175px"" height=""250px""></img></td>
    <td width=300 height=300><img src=""static/images/cards/back_of_red_bolts.svg"" width=""175px"" height=""250px""></img></td>
  </tr>
  <tr height=200>
    <td width=300><img src=""static/images/keys/z.svg"" width=""35%"" height=""75%""></img></td>
    <td width=300><img src=""static/images/keys/m.svg"" width=""35%"" height=""75%""></img></td>
  </tr>
</table>
  ",90.0,,,,,,,,,,,,,,,,,,,,,,,,,1.0,,
104,0,,html-keyboard-response,104,529506,0.0-4.16-2.16,k8wm0nx1cw,2022-09-19 17:57:53.587,5b6641d6bd3c8a0001d487d5,3,76,19,70,44,35,Female,,,"
  <table>
  <tr height=300>
    <td width=300 height=300><img src=""static/images/cards/8_of_red_bolts.svg"" width=""175px"" height=""250px""></img></td>
    <td width=300 height=300><img src=""static/images/cards/back_of_red_bolts.svg"" width=""175px"" height=""250px""></img></td>
  </tr>
  <tr height=200>
    <td width=300><img src=""static/images/keys/z.svg"" width=""35%"" height=""75%""></img></td>
    <td width=300><img src=""static/images/keys/m.svg"" width=""35%"" height=""75%""></img></td>
  </tr>
</table>
  ",,,,,,,,,,,,,,,,,,,,,,,,,,,,
105,0,,html-keyboard-response,105,531022,0.0-4.16-3.16,k8wm0nx1cw,2022-09-19 17:57:53.587,5b6641d6bd3c8a0001d487d5,3,76,19,70,44,35,Female,,,"<p style=""font-size:50px"">You win!
+10 points this round!</p>",,,,,,,,,,,,,,,,,,,,,,,,,,,,
106,0,,html-keyboard-response,106,531528,0.0-4.16-4.16,k8wm0nx1cw,2022-09-19 17:57:53.587,5b6641d6bd3c8a0001d487d5,3,76,19,70,44,35,Female,,,,,1.0,learning,16.0,Xc,,red,,bolts,,,,Xc,red,bolts,,1.0,0.0,NA,left,499.8000000119,8.0,1.0,1.0,,,,
107,0,,html-keyboard-response,107,533044,0.0-4.17-0.17,k8wm0nx1cw,2022-09-19 17:57:53.587,5b6641d6bd3c8a0001d487d5,3,76,19,70,44,35,Female,,,"<img src=""static/images/cards/stack_of_black_bolts.svg"" width=""175px"" height=""250px""></img>",,,,,,,,,,,,,,,,,,,,,,,,,,,,
108,0,,html-keyboard-response,108,534031,0.0-4.17-1.17,k8wm0nx1cw,2022-09-19 17:57:53.587,5b6641d6bd3c8a0001d487d5,3,76,19,70,44,35,Female,480.0,,"
  <table>
  <tr height=300>
    <td width=300 height=300><img src=""static/images/cards/back_of_black_bolts.svg"" width=""175px"" height=""250px""></img></td>
    <td width=300 height=300><img src=""static/images/cards/back_of_black_bolts.svg"" width=""175px"" height=""250px""></img></td>
  </tr>
  <tr height=200>
    <td width=300></td>
    <td width=300><img src=""static/images/keys/m.svg"" width=""35%"" height=""75%""></img></td>
  </tr>
</table>
  ",77.0,,,,,,,,,,,,,,,,,,,,,,,,,1.0,,
109,0,,html-keyboard-response,109,535543,0.0-4.17-2.17,k8wm0nx1cw,2022-09-19 17:57:53.587,5b6641d6bd3c8a0001d487d5,3,76,19,70,44,35,Female,,,"
  <table>
  <tr height=300>
    <td width=300 height=300><img src=""static/images/cards/back_of_black_bolts.svg"" width=""175px"" height=""250px""></img></td>
    <td width=300 height=300><img src=""static/images/cards/4_of_black_bolts.svg"" width=""175px"" height=""250px""></img></td>
  </tr>
  <tr height=200>
    <td width=300></td>
    <td width=300><img src=""static/images/keys/m.svg"" width=""35%"" height=""75%""></img></td>
  </tr>
</table>
  ",,,,,,,,,,,,,,,,,,,,,,,,,,,,
110,0,,html-keyboard-response,110,537055,0.0-4.17-3.17,k8wm0nx1cw,2022-09-19 17:57:53.587,5b6641d6bd3c8a0001d487d5,3,76,19,70,44,35,Female,,,"<p style=""font-size:50px"">You win!
+10 points this round!</p>",,,,,,,,,,,,,,,,,,,,,,,,,,,,
111,0,,html-keyboard-response,111,537563,0.0-4.17-4.17,k8wm0nx1cw,2022-09-19 17:57:53.587,5b6641d6bd3c8a0001d487d5,3,76,19,70,44,35,Female,,,,,1.0,learning,17.0,Xnc,,black,,bolts,,,,Xnc,black,bolts,,0.0,0.0,0,right,480.0,4.0,0.0,1.0,,,,
112,0,,html-keyboard-response,112,539069,0.0-4.18-0.18,k8wm0nx1cw,2022-09-19 17:57:53.587,5b6641d6bd3c8a0001d487d5,3,76,19,70,44,35,Female,,,"<img src=""static/images/cards/stack_of_black_moons.svg"" width=""175px"" height=""250px""></img>",,,,,,,,,,,,,,,,,,,,,,,,,,,,
113,0,,html-keyboard-response,113,540107,0.0-4.18-1.18,k8wm0nx1cw,2022-09-19 17:57:53.587,5b6641d6bd3c8a0001d487d5,3,76,19,70,44,35,Female,532.3000000119,,"
  <table>
  <tr height=300>
    <td width=300 height=300><img src=""static/images/cards/back_of_black_moons.svg"" width=""175px"" height=""250px""></img></td>
    <td width=300 height=300><img src=""static/images/cards/back_of_black_moons.svg"" width=""175px"" height=""250px""></img></td>
  </tr>
  <tr height=200>
    <td width=300><img src=""static/images/keys/z.svg"" width=""35%"" height=""75%""></img></td>
    <td width=300><img src=""static/images/keys/m.svg"" width=""35%"" height=""75%""></img></td>
  </tr>
</table>
  ",77.0,,,,,,,,,,,,,,,,,,,,,,,,,1.0,,
114,0,,html-keyboard-response,114,541612,0.0-4.18-2.18,k8wm0nx1cw,2022-09-19 17:57:53.587,5b6641d6bd3c8a0001d487d5,3,76,19,70,44,35,Female,,,"
  <table>
  <tr height=300>
    <td width=300 height=300><img src=""static/images/cards/back_of_black_moons.svg"" width=""175px"" height=""250px""></img></td>
    <td width=300 height=300><img src=""static/images/cards/7_of_black_moons.svg"" width=""175px"" height=""250px""></img></td>
  </tr>
  <tr height=200>
    <td width=300><img src=""static/images/keys/z.svg"" width=""35%"" height=""75%""></img></td>
    <td width=300><img src=""static/images/keys/m.svg"" width=""35%"" height=""75%""></img></td>
  </tr>
</table>
  ",,,,,,,,,,,,,,,,,,,,,,,,,,,,
115,0,,html-keyboard-response,115,543130,0.0-4.18-3.18,k8wm0nx1cw,2022-09-19 17:57:53.587,5b6641d6bd3c8a0001d487d5,3,76,19,70,44,35,Female,,,"<p style=""font-size:50px"">You win!
+10 points this round!</p>",,,,,,,,,,,,,,,,,,,,,,,,,,,,
116,0,,html-keyboard-response,116,543643,0.0-4.18-4.18,k8wm0nx1cw,2022-09-19 17:57:53.587,5b6641d6bd3c8a0001d487d5,3,76,19,70,44,35,Female,,,,,1.0,learning,18.0,A,,black,,moons,,,,A,black,moons,,1.0,1.0,NA,right,532.3000000119,7.0,1.0,1.0,,,,
117,0,,html-keyboard-response,117,545149,0.0-4.19-0.19,k8wm0nx1cw,2022-09-19 17:57:53.587,5b6641d6bd3c8a0001d487d5,3,76,19,70,44,35,Female,,,"<img src=""static/images/cards/stack_of_red_moons.svg"" width=""175px"" height=""250px""></img>",,,,,,,,,,,,,,,,,,,,,,,,,,,,
118,0,,html-keyboard-response,118,546095,0.0-4.19-1.19,k8wm0nx1cw,2022-09-19 17:57:53.587,5b6641d6bd3c8a0001d487d5,3,76,19,70,44,35,Female,440.0999999642,,"
  <table>
  <tr height=300>
    <td width=300 height=300><img src=""static/images/cards/back_of_red_moons.svg"" width=""175px"" height=""250px""></img></td>
    <td width=300 height=300><img src=""static/images/cards/back_of_red_moons.svg"" width=""175px"" height=""250px""></img></td>
  </tr>
  <tr height=200>
    <td width=300><img src=""static/images/keys/z.svg"" width=""35%"" height=""75%""></img></td>
    <td width=300></td>
  </tr>
</table>
  ",90.0,,,,,,,,,,,,,,,,,,,,,,,,,1.0,,
119,0,,html-keyboard-response,119,547598,0.0-4.19-2.19,k8wm0nx1cw,2022-09-19 17:57:53.587,5b6641d6bd3c8a0001d487d5,3,76,19,70,44,35,Female,,,"
  <table>
  <tr height=300>
    <td width=300 height=300><img src=""static/images/cards/9_of_red_moons.svg"" width=""175px"" height=""250px""></img></td>
    <td width=300 height=300><img src=""static/images/cards/back_of_red_moons.svg"" width=""175px"" height=""250px""></img></td>
  </tr>
  <tr height=200>
    <td width=300><img src=""static/images/keys/z.svg"" width=""35%"" height=""75%""></img></td>
    <td width=300></td>
  </tr>
</table>
  ",,,,,,,,,,,,,,,,,,,,,,,,,,,,
120,0,,html-keyboard-response,120,549127,0.0-4.19-3.19,k8wm0nx1cw,2022-09-19 17:57:53.587,5b6641d6bd3c8a0001d487d5,3,76,19,70,44,35,Female,,,"<p style=""font-size:50px"">You win!
+10 points this round!</p>",,,,,,,,,,,,,,,,,,,,,,,,,,,,
121,0,,html-keyboard-response,121,549647,0.0-4.19-4.19,k8wm0nx1cw,2022-09-19 17:57:53.587,5b6641d6bd3c8a0001d487d5,3,76,19,70,44,35,Female,,,,,1.0,learning,19.0,B,,red,,moons,,,,B,red,moons,,0.0,1.0,1,left,440.0999999642,9.0,1.0,1.0,,,,
122,0,,html-keyboard-response,122,551153,0.0-4.20-0.20,k8wm0nx1cw,2022-09-19 17:57:53.587,5b6641d6bd3c8a0001d487d5,3,76,19,70,44,35,Female,,,"<img src=""static/images/cards/stack_of_black_stars.svg"" width=""175px"" height=""250px""></img>",,,,,,,,,,,,,,,,,,,,,,,,,,,,
123,0,,html-keyboard-response,123,552132,0.0-4.20-1.20,k8wm0nx1cw,2022-09-19 17:57:53.587,5b6641d6bd3c8a0001d487d5,3,76,19,70,44,35,Female,475.5,,"
  <table>
  <tr height=300>
    <td width=300 height=300><img src=""static/images/cards/back_of_black_stars.svg"" width=""175px"" height=""250px""></img></td>
    <td width=300 height=300><img src=""static/images/cards/back_of_black_stars.svg"" width=""175px"" height=""250px""></img></td>
  </tr>
  <tr height=200>
    <td width=300><img src=""static/images/keys/z.svg"" width=""35%"" height=""75%""></img></td>
    <td width=300><img src=""static/images/keys/m.svg"" width=""35%"" height=""75%""></img></td>
  </tr>
</table>
  ",77.0,,,,,,,,,,,,,,,,,,,,,,,,,1.0,,
124,0,,html-keyboard-response,124,553633,0.0-4.20-2.20,k8wm0nx1cw,2022-09-19 17:57:53.587,5b6641d6bd3c8a0001d487d5,3,76,19,70,44,35,Female,,,"
  <table>
  <tr height=300>
    <td width=300 height=300><img src=""static/images/cards/back_of_black_stars.svg"" width=""175px"" height=""250px""></img></td>
    <td width=300 height=300><img src=""static/images/cards/9_of_black_stars.svg"" width=""175px"" height=""250px""></img></td>
  </tr>
  <tr height=200>
    <td width=300><img src=""static/images/keys/z.svg"" width=""35%"" height=""75%""></img></td>
    <td width=300><img src=""static/images/keys/m.svg"" width=""35%"" height=""75%""></img></td>
  </tr>
</table>
  ",,,,,,,,,,,,,,,,,,,,,,,,,,,,
125,0,,html-keyboard-response,125,555153,0.0-4.20-3.20,k8wm0nx1cw,2022-09-19 17:57:53.587,5b6641d6bd3c8a0001d487d5,3,76,19,70,44,35,Female,,,"<p style=""font-size:50px"">You win!
+10 points this round!</p>",,,,,,,,,,,,,,,,,,,,,,,,,,,,
126,0,,html-keyboard-response,126,555667,0.0-4.20-4.20,k8wm0nx1cw,2022-09-19 17:57:53.587,5b6641d6bd3c8a0001d487d5,3,76,19,70,44,35,Female,,,,,1.0,learning,20.0,C,,black,,stars,,,,C,black,stars,,1.0,0.0,NA,right,475.5,9.0,1.0,1.0,,,,
127,0,,html-keyboard-response,127,557181,0.0-4.21-0.21,k8wm0nx1cw,2022-09-19 17:57:53.587,5b6641d6bd3c8a0001d487d5,3,76,19,70,44,35,Female,,,"<img src=""static/images/cards/stack_of_red_stars.svg"" width=""175px"" height=""250px""></img>",,,,,,,,,,,,,,,,,,,,,,,,,,,,
128,0,,html-keyboard-response,128,558120,0.0-4.21-1.21,k8wm0nx1cw,2022-09-19 17:57:53.587,5b6641d6bd3c8a0001d487d5,3,76,19,70,44,35,Female,435.8999999762,,"
  <table>
  <tr height=300>
    <td width=300 height=300><img src=""static/images/cards/back_of_red_stars.svg"" width=""175px"" height=""250px""></img></td>
    <td width=300 height=300><img src=""static/images/cards/back_of_red_stars.svg"" width=""175px"" height=""250px""></img></td>
  </tr>
  <tr height=200>
    <td width=300><img src=""static/images/keys/z.svg"" width=""35%"" height=""75%""></img></td>
    <td width=300></td>
  </tr>
</table>
  ",90.0,,,,,,,,,,,,,,,,,,,,,,,,,1.0,,
129,0,,html-keyboard-response,129,559626,0.0-4.21-2.21,k8wm0nx1cw,2022-09-19 17:57:53.587,5b6641d6bd3c8a0001d487d5,3,76,19,70,44,35,Female,,,"
  <table>
  <tr height=300>
    <td width=300 height=300><img src=""static/images/cards/7_of_red_stars.svg"" width=""175px"" height=""250px""></img></td>
    <td width=300 height=300><img src=""static/images/cards/back_of_red_stars.svg"" width=""175px"" height=""250px""></img></td>
  </tr>
  <tr height=200>
    <td width=300><img src=""static/images/keys/z.svg"" width=""35%"" height=""75%""></img></td>
    <td width=300></td>
  </tr>
</table>
  ",,,,,,,,,,,,,,,,,,,,,,,,,,,,
130,0,,html-keyboard-response,130,561133,0.0-4.21-3.21,k8wm0nx1cw,2022-09-19 17:57:53.587,5b6641d6bd3c8a0001d487d5,3,76,19,70,44,35,Female,,,"<p style=""font-size:50px"">You win!
+10 points this round!</p>",,,,,,,,,,,,,,,,,,,,,,,,,,,,
131,0,,html-keyboard-response,131,561647,0.0-4.21-4.21,k8wm0nx1cw,2022-09-19 17:57:53.587,5b6641d6bd3c8a0001d487d5,3,76,19,70,44,35,Female,,,,,1.0,learning,21.0,D,,red,,stars,,,,D,red,stars,,0.0,0.0,1,left,435.8999999762,7.0,1.0,1.0,,,,
132,0,,html-keyboard-response,132,563149,0.0-4.22-0.22,k8wm0nx1cw,2022-09-19 17:57:53.587,5b6641d6bd3c8a0001d487d5,3,76,19,70,44,35,Female,,,"<img src=""static/images/cards/stack_of_red_bolts.svg"" width=""175px"" height=""250px""></img>",,,,,,,,,,,,,,,,,,,,,,,,,,,,
133,0,,html-keyboard-response,133,564070,0.0-4.22-1.22,k8wm0nx1cw,2022-09-19 17:57:53.587,5b6641d6bd3c8a0001d487d5,3,76,19,70,44,35,Female,415.8999999762,,"
  <table>
  <tr height=300>
    <td width=300 height=300><img src=""static/images/cards/back_of_red_bolts.svg"" width=""175px"" height=""250px""></img></td>
    <td width=300 height=300><img src=""static/images/cards/back_of_red_bolts.svg"" width=""175px"" height=""250px""></img></td>
  </tr>
  <tr height=200>
    <td width=300><img src=""static/images/keys/z.svg"" width=""35%"" height=""75%""></img></td>
    <td width=300><img src=""static/images/keys/m.svg"" width=""35%"" height=""75%""></img></td>
  </tr>
</table>
  ",77.0,,,,,,,,,,,,,,,,,,,,,,,,,1.0,,
134,0,,html-keyboard-response,134,565585,0.0-4.22-2.22,k8wm0nx1cw,2022-09-19 17:57:53.587,5b6641d6bd3c8a0001d487d5,3,76,19,70,44,35,Female,,,"
  <table>
  <tr height=300>
    <td width=300 height=300><img src=""static/images/cards/back_of_red_bolts.svg"" width=""175px"" height=""250px""></img></td>
    <td width=300 height=300><img src=""static/images/cards/4_of_red_bolts.svg"" width=""175px"" height=""250px""></img></td>
  </tr>
  <tr height=200>
    <td width=300><img src=""static/images/keys/z.svg"" width=""35%"" height=""75%""></img></td>
    <td width=300><img src=""static/images/keys/m.svg"" width=""35%"" height=""75%""></img></td>
  </tr>
</table>
  ",,,,,,,,,,,,,,,,,,,,,,,,,,,,
135,0,,html-keyboard-response,135,567097,0.0-4.22-3.22,k8wm0nx1cw,2022-09-19 17:57:53.587,5b6641d6bd3c8a0001d487d5,3,76,19,70,44,35,Female,,,"<p style=""font-size:50px"">You win!
+10 points this round!</p>",,,,,,,,,,,,,,,,,,,,,,,,,,,,
136,0,,html-keyboard-response,136,567618,0.0-4.22-4.22,k8wm0nx1cw,2022-09-19 17:57:53.587,5b6641d6bd3c8a0001d487d5,3,76,19,70,44,35,Female,,,,,1.0,learning,22.0,Xc,,red,,bolts,,,,Xc,red,bolts,,1.0,0.0,NA,right,415.8999999762,4.0,0.0,1.0,,,,
137,0,,html-keyboard-response,137,569132,0.0-4.23-0.23,k8wm0nx1cw,2022-09-19 17:57:53.587,5b6641d6bd3c8a0001d487d5,3,76,19,70,44,35,Female,,,"<img src=""static/images/cards/stack_of_black_bolts.svg"" width=""175px"" height=""250px""></img>",,,,,,,,,,,,,,,,,,,,,,,,,,,,
138,0,,html-keyboard-response,138,570033,0.0-4.23-1.23,k8wm0nx1cw,2022-09-19 17:57:53.587,5b6641d6bd3c8a0001d487d5,3,76,19,70,44,35,Female,392.1000000238,,"
  <table>
  <tr height=300>
    <td width=300 height=300><img src=""static/images/cards/back_of_black_bolts.svg"" width=""175px"" height=""250px""></img></td>
    <td width=300 height=300><img src=""static/images/cards/back_of_black_bolts.svg"" width=""175px"" height=""250px""></img></td>
  </tr>
  <tr height=200>
    <td width=300><img src=""static/images/keys/z.svg"" width=""35%"" height=""75%""></img></td>
    <td width=300></td>
  </tr>
</table>
  ",90.0,,,,,,,,,,,,,,,,,,,,,,,,,1.0,,
139,0,,html-keyboard-response,139,571545,0.0-4.23-2.23,k8wm0nx1cw,2022-09-19 17:57:53.587,5b6641d6bd3c8a0001d487d5,3,76,19,70,44,35,Female,,,"
  <table>
  <tr height=300>
    <td width=300 height=300><img src=""static/images/cards/6_of_black_bolts.svg"" width=""175px"" height=""250px""></img></td>
    <td width=300 height=300><img src=""static/images/cards/back_of_black_bolts.svg"" width=""175px"" height=""250px""></img></td>
  </tr>
  <tr height=200>
    <td width=300><img src=""static/images/keys/z.svg"" width=""35%"" height=""75%""></img></td>
    <td width=300></td>
  </tr>
</table>
  ",,,,,,,,,,,,,,,,,,,,,,,,,,,,
140,0,,html-keyboard-response,140,573063,0.0-4.23-3.23,k8wm0nx1cw,2022-09-19 17:57:53.587,5b6641d6bd3c8a0001d487d5,3,76,19,70,44,35,Female,,,"<p style=""font-size:50px"">You win!
+10 points this round!</p>",,,,,,,,,,,,,,,,,,,,,,,,,,,,
141,0,,html-keyboard-response,141,573570,0.0-4.23-4.23,k8wm0nx1cw,2022-09-19 17:57:53.587,5b6641d6bd3c8a0001d487d5,3,76,19,70,44,35,Female,,,,,1.0,learning,23.0,Xnc,,black,,bolts,,,,Xnc,black,bolts,,0.0,0.0,1,left,392.1000000238,6.0,1.0,1.0,,,,
142,0,,call-function,142,573574,0.0-5.0,k8wm0nx1cw,2022-09-19 17:57:53.587,5b6641d6bd3c8a0001d487d5,3,76,19,70,44,35,Female,,,,,,,,,,,,,,,,,,,,,,,,,,,,,,,
143,0,,image-keyboard-response,143,598536,0.0-6.0-0.0,k8wm0nx1cw,2022-09-19 17:57:53.587,5b6641d6bd3c8a0001d487d5,3,76,19,70,44,35,Female,24961.5,,static/images/instructions_CB_3/Slide20.png,39.0,,,,,,,,,,,,,,,,,,,,,,,,,,,
144,0,,image-keyboard-response,144,622999,0.0-6.1-0.1,k8wm0nx1cw,2022-09-19 17:57:53.587,5b6641d6bd3c8a0001d487d5,3,76,19,70,44,35,Female,24462.4000000358,,static/images/instructions_CB_3/Slide21.png,39.0,,,,,,,,,,,,,,,,,,,,,,,,,,,
145,0,,image-keyboard-response,145,645225,0.0-6.2-0.2,k8wm0nx1cw,2022-09-19 17:57:53.587,5b6641d6bd3c8a0001d487d5,3,76,19,70,44,35,Female,22225.6000000238,,static/images/instructions_CB_3/Slide22.png,39.0,,,,,,,,,,,,,,,,,,,,,,,,,,,
146,0,,image-keyboard-response,146,657751,0.0-6.3-0.3,k8wm0nx1cw,2022-09-19 17:57:53.587,5b6641d6bd3c8a0001d487d5,3,76,19,70,44,35,Female,12525.1000000238,,static/images/instructions_CB_3/Slide23.png,39.0,,,,,,,,,,,,,,,,,,,,,,,,,,,
147,0,,image-keyboard-response,147,661338,0.0-6.4-0.4,k8wm0nx1cw,2022-09-19 17:57:53.587,5b6641d6bd3c8a0001d487d5,3,76,19,70,44,35,Female,3586.3000000119,,static/images/instructions_CB_3/Slide24.png,39.0,,,,,,,,,,,,,,,,,,,,,,,,,,,
148,0,,html-keyboard-response,148,663117,0.0-7.0-0.0,k8wm0nx1cw,2022-09-19 17:57:53.587,5b6641d6bd3c8a0001d487d5,3,76,19,70,44,35,Female,1775.1999999881,,"
  <table>
  <tr height=300>
    <td width=300 height=300><img src=""static/images/cards/stack_of_black_stars.svg"" width=""175px"" height=""250px""></img></td>
    <td width=300 height=300><img src=""static/images/cards/stack_of_black_moons.svg"" width=""175px"" height=""250px""></img></td>
  </tr>
  <tr height=200>
    <td width=300><img src=""static/images/keys/w.svg"" width=""35%"" height=""75%""></img></td>
    <td width=300><img src=""static/images/keys/o.svg"" width=""35%"" height=""75%""></img></td>
  </tr>
</table>
  ",87.0,,,,,,,,,,,,,,,,,,,,,,,,,1.0,,
149,0,,html-keyboard-response,149,665052,0.0-7.0-1.0,k8wm0nx1cw,2022-09-19 17:57:53.587,5b6641d6bd3c8a0001d487d5,3,76,19,70,44,35,Female,1423.5999999642,,"
  <table>
  <tr height=300>
    <td width=300 height=300><img src=""static/images/cards/back_of_black_stars.svg"" width=""175px"" height=""250px""></img></td>
    <td width=300 height=300><img src=""static/images/cards/back_of_black_stars.svg"" width=""175px"" height=""250px""></img></td>
  </tr>
  <tr height=200>
    <td width=300><img src=""static/images/keys/z.svg"" width=""35%"" height=""75%""></img></td>
    <td width=300><img src=""static/images/keys/m.svg"" width=""35%"" height=""75%""></img></td>
  </tr>
</table>
  ",77.0,,,,,,,,,,,,,,,,,,,,,,,,,1.0,,
150,0,,html-keyboard-response,150,666568,0.0-7.0-2.0,k8wm0nx1cw,2022-09-19 17:57:53.587,5b6641d6bd3c8a0001d487d5,3,76,19,70,44,35,Female,,,"
  <table>
  <tr height=300>
    <td width=300 height=300><img src=""static/images/cards/back_of_black_stars.svg"" width=""175px"" height=""250px""></img></td>
    <td width=300 height=300><img src=""static/images/cards/10_of_black_stars.svg"" width=""175px"" height=""250px""></img></td>
  </tr>
  <tr height=200>
    <td width=300><img src=""static/images/keys/z.svg"" width=""35%"" height=""75%""></img></td>
    <td width=300><img src=""static/images/keys/m.svg"" width=""35%"" height=""75%""></img></td>
  </tr>
</table>
  ",,,,,,,,,,,,,,,,,,,,,,,,,,,,
151,0,,html-keyboard-response,151,668085,0.0-7.0-3.0,k8wm0nx1cw,2022-09-19 17:57:53.587,5b6641d6bd3c8a0001d487d5,3,76,19,70,44,35,Female,,,"<p style=""font-size:50px"">You win!
+10 points this round!</p>",,,,,,,,,,,,,,,,,,,,,,,,,,,,
152,0,,html-keyboard-response,152,668604,0.0-7.0-4.0,k8wm0nx1cw,2022-09-19 17:57:53.587,5b6641d6bd3c8a0001d487d5,3,76,19,70,44,35,Female,,,,,1.0,choice,0.0,A,C,black,black,stars,moons,C,A,C,black,stars,1775.1999999881,1.0,0.0,NA,right,1423.5999999642,10.0,1.0,1.0,,,,
153,0,,html-keyboard-response,153,670051,0.0-7.1-0.1,k8wm0nx1cw,2022-09-19 17:57:53.587,5b6641d6bd3c8a0001d487d5,3,76,19,70,44,35,Female,1445.6999999881,,"
  <table>
  <tr height=300>
    <td width=300 height=300><img src=""static/images/cards/stack_of_red_moons.svg"" width=""175px"" height=""250px""></img></td>
    <td width=300 height=300><img src=""static/images/cards/stack_of_black_stars.svg"" width=""175px"" height=""250px""></img></td>
  </tr>
  <tr height=200>
    <td width=300><img src=""static/images/keys/w.svg"" width=""35%"" height=""75%""></img></td>
    <td width=300><img src=""static/images/keys/o.svg"" width=""35%"" height=""75%""></img></td>
  </tr>
</table>
  ",87.0,,,,,,,,,,,,,,,,,,,,,,,,,1.0,,
154,0,,html-keyboard-response,154,671641,0.0-7.1-1.1,k8wm0nx1cw,2022-09-19 17:57:53.587,5b6641d6bd3c8a0001d487d5,3,76,19,70,44,35,Female,1073.6999999881,,"
  <table>
  <tr height=300>
    <td width=300 height=300><img src=""static/images/cards/back_of_red_moons.svg"" width=""175px"" height=""250px""></img></td>
    <td width=300 height=300><img src=""static/images/cards/back_of_red_moons.svg"" width=""175px"" height=""250px""></img></td>
  </tr>
  <tr height=200>
    <td width=300><img src=""static/images/keys/z.svg"" width=""35%"" height=""75%""></img></td>
    <td width=300></td>
  </tr>
</table>
  ",90.0,,,,,,,,,,,,,,,,,,,,,,,,,1.0,,
155,0,,html-keyboard-response,155,673152,0.0-7.1-2.1,k8wm0nx1cw,2022-09-19 17:57:53.587,5b6641d6bd3c8a0001d487d5,3,76,19,70,44,35,Female,,,"
  <table>
  <tr height=300>
    <td width=300 height=300><img src=""static/images/cards/8_of_red_moons.svg"" width=""175px"" height=""250px""></img></td>
    <td width=300 height=300><img src=""static/images/cards/back_of_red_moons.svg"" width=""175px"" height=""250px""></img></td>
  </tr>
  <tr height=200>
    <td width=300><img src=""static/images/keys/z.svg"" width=""35%"" height=""75%""></img></td>
    <td width=300></td>
  </tr>
</table>
  ",,,,,,,,,,,,,,,,,,,,,,,,,,,,
156,0,,html-keyboard-response,156,674667,0.0-7.1-3.1,k8wm0nx1cw,2022-09-19 17:57:53.587,5b6641d6bd3c8a0001d487d5,3,76,19,70,44,35,Female,,,"<p style=""font-size:50px"">You win!
+10 points this round!</p>",,,,,,,,,,,,,,,,,,,,,,,,,,,,
157,0,,html-keyboard-response,157,675178,0.0-7.1-4.1,k8wm0nx1cw,2022-09-19 17:57:53.587,5b6641d6bd3c8a0001d487d5,3,76,19,70,44,35,Female,,,,,1.0,choice,1.0,B,C,red,black,moons,stars,B,C,B,red,moons,1445.6999999881,0.0,1.0,1,left,1073.6999999881,8.0,1.0,1.0,,,,
158,0,,html-keyboard-response,158,675664,0.0-7.2-0.2,k8wm0nx1cw,2022-09-19 17:57:53.587,5b6641d6bd3c8a0001d487d5,3,76,19,70,44,35,Female,485.4000000358,,"
  <table>
  <tr height=300>
    <td width=300 height=300><img src=""static/images/cards/stack_of_red_stars.svg"" width=""175px"" height=""250px""></img></td>
    <td width=300 height=300><img src=""static/images/cards/stack_of_black_moons.svg"" width=""175px"" height=""250px""></img></td>
  </tr>
  <tr height=200>
    <td width=300><img src=""static/images/keys/w.svg"" width=""35%"" height=""75%""></img></td>
    <td width=300><img src=""static/images/keys/o.svg"" width=""35%"" height=""75%""></img></td>
  </tr>
</table>
  ",79.0,,,,,,,,,,,,,,,,,,,,,,,,,1.0,,
159,0,,html-keyboard-response,159,676852,0.0-7.2-1.2,k8wm0nx1cw,2022-09-19 17:57:53.587,5b6641d6bd3c8a0001d487d5,3,76,19,70,44,35,Female,681.1000000238,,"
  <table>
  <tr height=300>
    <td width=300 height=300><img src=""static/images/cards/back_of_black_moons.svg"" width=""175px"" height=""250px""></img></td>
    <td width=300 height=300><img src=""static/images/cards/back_of_black_moons.svg"" width=""175px"" height=""250px""></img></td>
  </tr>
  <tr height=200>
    <td width=300><img src=""static/images/keys/z.svg"" width=""35%"" height=""75%""></img></td>
    <td width=300><img src=""static/images/keys/m.svg"" width=""35%"" height=""75%""></img></td>
  </tr>
</table>
  ",77.0,,,,,,,,,,,,,,,,,,,,,,,,,1.0,,
160,0,,html-keyboard-response,160,678354,0.0-7.2-2.2,k8wm0nx1cw,2022-09-19 17:57:53.587,5b6641d6bd3c8a0001d487d5,3,76,19,70,44,35,Female,,,"
  <table>
  <tr height=300>
    <td width=300 height=300><img src=""static/images/cards/back_of_black_moons.svg"" width=""175px"" height=""250px""></img></td>
    <td width=300 height=300><img src=""static/images/cards/8_of_black_moons.svg"" width=""175px"" height=""250px""></img></td>
  </tr>
  <tr height=200>
    <td width=300><img src=""static/images/keys/z.svg"" width=""35%"" height=""75%""></img></td>
    <td width=300><img src=""static/images/keys/m.svg"" width=""35%"" height=""75%""></img></td>
  </tr>
</table>
  ",,,,,,,,,,,,,,,,,,,,,,,,,,,,
161,0,,html-keyboard-response,161,679871,0.0-7.2-3.2,k8wm0nx1cw,2022-09-19 17:57:53.587,5b6641d6bd3c8a0001d487d5,3,76,19,70,44,35,Female,,,"<p style=""font-size:50px"">You win!
+10 points this round!</p>",,,,,,,,,,,,,,,,,,,,,,,,,,,,
162,0,,html-keyboard-response,162,680385,0.0-7.2-4.2,k8wm0nx1cw,2022-09-19 17:57:53.587,5b6641d6bd3c8a0001d487d5,3,76,19,70,44,35,Female,,,,,1.0,choice,2.0,A,D,red,black,stars,moons,D,A,A,black,moons,485.4000000358,1.0,1.0,NA,right,681.1000000238,8.0,1.0,1.0,,,,
163,0,,html-keyboard-response,163,680927,0.0-7.3-0.3,k8wm0nx1cw,2022-09-19 17:57:53.587,5b6641d6bd3c8a0001d487d5,3,76,19,70,44,35,Female,541.0,,"
  <table>
  <tr height=300>
    <td width=300 height=300><img src=""static/images/cards/stack_of_black_stars.svg"" width=""175px"" height=""250px""></img></td>
    <td width=300 height=300><img src=""static/images/cards/stack_of_red_stars.svg"" width=""175px"" height=""250px""></img></td>
  </tr>
  <tr height=200>
    <td width=300><img src=""static/images/keys/w.svg"" width=""35%"" height=""75%""></img></td>
    <td width=300><img src=""static/images/keys/o.svg"" width=""35%"" height=""75%""></img></td>
  </tr>
</table>
  ",87.0,,,,,,,,,,,,,,,,,,,,,,,,,1.0,,
164,0,,html-keyboard-response,164,682202,0.0-7.3-1.3,k8wm0nx1cw,2022-09-19 17:57:53.587,5b6641d6bd3c8a0001d487d5,3,76,19,70,44,35,Female,771.6999999881,,"
  <table>
  <tr height=300>
    <td width=300 height=300><img src=""static/images/cards/back_of_black_stars.svg"" width=""175px"" height=""250px""></img></td>
    <td width=300 height=300><img src=""static/images/cards/back_of_black_stars.svg"" width=""175px"" height=""250px""></img></td>
  </tr>
  <tr height=200>
    <td width=300><img src=""static/images/keys/z.svg"" width=""35%"" height=""75%""></img></td>
    <td width=300><img src=""static/images/keys/m.svg"" width=""35%"" height=""75%""></img></td>
  </tr>
</table>
  ",90.0,,,,,,,,,,,,,,,,,,,,,,,,,1.0,,
165,0,,html-keyboard-response,165,683713,0.0-7.3-2.3,k8wm0nx1cw,2022-09-19 17:57:53.587,5b6641d6bd3c8a0001d487d5,3,76,19,70,44,35,Female,,,"
  <table>
  <tr height=300>
    <td width=300 height=300><img src=""static/images/cards/1_of_black_stars.svg"" width=""175px"" height=""250px""></img></td>
    <td width=300 height=300><img src=""static/images/cards/back_of_black_stars.svg"" width=""175px"" height=""250px""></img></td>
  </tr>
  <tr height=200>
    <td width=300><img src=""static/images/keys/z.svg"" width=""35%"" height=""75%""></img></td>
    <td width=300><img src=""static/images/keys/m.svg"" width=""35%"" height=""75%""></img></td>
  </tr>
</table>
  ",,,,,,,,,,,,,,,,,,,,,,,,,,,,
166,0,,html-keyboard-response,166,685230,0.0-7.3-3.3,k8wm0nx1cw,2022-09-19 17:57:53.587,5b6641d6bd3c8a0001d487d5,3,76,19,70,44,35,Female,,,"<p style=""font-size:50px"">You win!
+10 points this round!</p>",,,,,,,,,,,,,,,,,,,,,,,,,,,,
167,0,,html-keyboard-response,167,685741,0.0-7.3-4.3,k8wm0nx1cw,2022-09-19 17:57:53.587,5b6641d6bd3c8a0001d487d5,3,76,19,70,44,35,Female,,,,,1.0,choice,3.0,C,D,black,red,stars,stars,C,D,C,black,stars,541.0,1.0,0.0,NA,left,771.6999999881,1.0,0.0,1.0,,,,
168,0,,html-keyboard-response,168,686353,0.0-7.4-0.4,k8wm0nx1cw,2022-09-19 17:57:53.587,5b6641d6bd3c8a0001d487d5,3,76,19,70,44,35,Female,610.4000000358,,"
  <table>
  <tr height=300>
    <td width=300 height=300><img src=""static/images/cards/stack_of_red_stars.svg"" width=""175px"" height=""250px""></img></td>
    <td width=300 height=300><img src=""static/images/cards/stack_of_red_moons.svg"" width=""175px"" height=""250px""></img></td>
  </tr>
  <tr height=200>
    <td width=300><img src=""static/images/keys/w.svg"" width=""35%"" height=""75%""></img></td>
    <td width=300><img src=""static/images/keys/o.svg"" width=""35%"" height=""75%""></img></td>
  </tr>
</table>
  ",87.0,,,,,,,,,,,,,,,,,,,,,,,,,1.0,,
169,0,,html-keyboard-response,169,687415,0.0-7.4-1.4,k8wm0nx1cw,2022-09-19 17:57:53.587,5b6641d6bd3c8a0001d487d5,3,76,19,70,44,35,Female,559.3000000119,,"
  <table>
  <tr height=300>
    <td width=300 height=300><img src=""static/images/cards/back_of_red_stars.svg"" width=""175px"" height=""250px""></img></td>
    <td width=300 height=300><img src=""static/images/cards/back_of_red_stars.svg"" width=""175px"" height=""250px""></img></td>
  </tr>
  <tr height=200>
    <td width=300></td>
    <td width=300><img src=""static/images/keys/m.svg"" width=""35%"" height=""75%""></img></td>
  </tr>
</table>
  ",77.0,,,,,,,,,,,,,,,,,,,,,,,,,1.0,,
170,0,,html-keyboard-response,170,688926,0.0-7.4-2.4,k8wm0nx1cw,2022-09-19 17:57:53.587,5b6641d6bd3c8a0001d487d5,3,76,19,70,44,35,Female,,,"
  <table>
  <tr height=300>
    <td width=300 height=300><img src=""static/images/cards/back_of_red_stars.svg"" width=""175px"" height=""250px""></img></td>
    <td width=300 height=300><img src=""static/images/cards/10_of_red_stars.svg"" width=""175px"" height=""250px""></img></td>
  </tr>
  <tr height=200>
    <td width=300></td>
    <td width=300><img src=""static/images/keys/m.svg"" width=""35%"" height=""75%""></img></td>
  </tr>
</table>
  ",,,,,,,,,,,,,,,,,,,,,,,,,,,,
171,0,,html-keyboard-response,171,690443,0.0-7.4-3.4,k8wm0nx1cw,2022-09-19 17:57:53.587,5b6641d6bd3c8a0001d487d5,3,76,19,70,44,35,Female,,,"<p style=""font-size:50px"">You win!
+10 points this round!</p>",,,,,,,,,,,,,,,,,,,,,,,,,,,,
172,0,,html-keyboard-response,172,690953,0.0-7.4-4.4,k8wm0nx1cw,2022-09-19 17:57:53.587,5b6641d6bd3c8a0001d487d5,3,76,19,70,44,35,Female,,,,,1.0,choice,4.0,B,D,red,red,stars,moons,D,B,D,red,stars,610.4000000358,0.0,0.0,0,right,559.3000000119,10.0,1.0,1.0,,,,
173,0,,html-keyboard-response,173,691403,0.0-7.5-0.5,k8wm0nx1cw,2022-09-19 17:57:53.587,5b6641d6bd3c8a0001d487d5,3,76,19,70,44,35,Female,448.5,,"
  <table>
  <tr height=300>
    <td width=300 height=300><img src=""static/images/cards/stack_of_black_moons.svg"" width=""175px"" height=""250px""></img></td>
    <td width=300 height=300><img src=""static/images/cards/stack_of_red_moons.svg"" width=""175px"" height=""250px""></img></td>
  </tr>
  <tr height=200>
    <td width=300><img src=""static/images/keys/w.svg"" width=""35%"" height=""75%""></img></td>
    <td width=300><img src=""static/images/keys/o.svg"" width=""35%"" height=""75%""></img></td>
  </tr>
</table>
  ",79.0,,,,,,,,,,,,,,,,,,,,,,,,,1.0,,
174,0,,html-keyboard-response,174,692366,0.0-7.5-1.5,k8wm0nx1cw,2022-09-19 17:57:53.587,5b6641d6bd3c8a0001d487d5,3,76,19,70,44,35,Female,456.3000000119,,"
  <table>
  <tr height=300>
    <td width=300 height=300><img src=""static/images/cards/back_of_red_moons.svg"" width=""175px"" height=""250px""></img></td>
    <td width=300 height=300><img src=""static/images/cards/back_of_red_moons.svg"" width=""175px"" height=""250px""></img></td>
  </tr>
  <tr height=200>
    <td width=300><img src=""static/images/keys/z.svg"" width=""35%"" height=""75%""></img></td>
    <td width=300></td>
  </tr>
</table>
  ",90.0,,,,,,,,,,,,,,,,,,,,,,,,,1.0,,
175,0,,html-keyboard-response,175,693879,0.0-7.5-2.5,k8wm0nx1cw,2022-09-19 17:57:53.587,5b6641d6bd3c8a0001d487d5,3,76,19,70,44,35,Female,,,"
  <table>
  <tr height=300>
    <td width=300 height=300><img src=""static/images/cards/4_of_red_moons.svg"" width=""175px"" height=""250px""></img></td>
    <td width=300 height=300><img src=""static/images/cards/back_of_red_moons.svg"" width=""175px"" height=""250px""></img></td>
  </tr>
  <tr height=200>
    <td width=300><img src=""static/images/keys/z.svg"" width=""35%"" height=""75%""></img></td>
    <td width=300></td>
  </tr>
</table>
  ",,,,,,,,,,,,,,,,,,,,,,,,,,,,
176,0,,html-keyboard-response,176,695401,0.0-7.5-3.5,k8wm0nx1cw,2022-09-19 17:57:53.587,5b6641d6bd3c8a0001d487d5,3,76,19,70,44,35,Female,,,"<p style=""font-size:50px"">You Lose!
No points this round.</p>",,,,,,,,,,,,,,,,,,,,,,,,,,,,
177,0,,html-keyboard-response,177,695914,0.0-7.5-4.5,k8wm0nx1cw,2022-09-19 17:57:53.587,5b6641d6bd3c8a0001d487d5,3,76,19,70,44,35,Female,,,,,1.0,choice,5.0,A,B,black,red,moons,moons,A,B,B,red,moons,448.5,0.0,1.0,1,left,456.3000000119,4.0,0.0,0.0,,,,
178,0,,html-keyboard-response,178,696566,0.0-7.6-0.6,k8wm0nx1cw,2022-09-19 17:57:53.587,5b6641d6bd3c8a0001d487d5,3,76,19,70,44,35,Female,650.8999999762,,"
  <table>
  <tr height=300>
    <td width=300 height=300><img src=""static/images/cards/stack_of_black_moons.svg"" width=""175px"" height=""250px""></img></td>
    <td width=300 height=300><img src=""static/images/cards/stack_of_red_moons.svg"" width=""175px"" height=""250px""></img></td>
  </tr>
  <tr height=200>
    <td width=300><img src=""static/images/keys/w.svg"" width=""35%"" height=""75%""></img></td>
    <td width=300><img src=""static/images/keys/o.svg"" width=""35%"" height=""75%""></img></td>
  </tr>
</table>
  ",87.0,,,,,,,,,,,,,,,,,,,,,,,,,1.0,,
179,0,,html-keyboard-response,179,697503,0.0-7.6-1.6,k8wm0nx1cw,2022-09-19 17:57:53.587,5b6641d6bd3c8a0001d487d5,3,76,19,70,44,35,Female,429.1000000238,,"
  <table>
  <tr height=300>
    <td width=300 height=300><img src=""static/images/cards/back_of_black_moons.svg"" width=""175px"" height=""250px""></img></td>
    <td width=300 height=300><img src=""static/images/cards/back_of_black_moons.svg"" width=""175px"" height=""250px""></img></td>
  </tr>
  <tr height=200>
    <td width=300><img src=""static/images/keys/z.svg"" width=""35%"" height=""75%""></img></td>
    <td width=300><img src=""static/images/keys/m.svg"" width=""35%"" height=""75%""></img></td>
  </tr>
</table>
  ",77.0,,,,,,,,,,,,,,,,,,,,,,,,,1.0,,
180,0,,html-keyboard-response,180,699006,0.0-7.6-2.6,k8wm0nx1cw,2022-09-19 17:57:53.587,5b6641d6bd3c8a0001d487d5,3,76,19,70,44,35,Female,,,"
  <table>
  <tr height=300>
    <td width=300 height=300><img src=""static/images/cards/back_of_black_moons.svg"" width=""175px"" height=""250px""></img></td>
    <td width=300 height=300><img src=""static/images/cards/3_of_black_moons.svg"" width=""175px"" height=""250px""></img></td>
  </tr>
  <tr height=200>
    <td width=300><img src=""static/images/keys/z.svg"" width=""35%"" height=""75%""></img></td>
    <td width=300><img src=""static/images/keys/m.svg"" width=""35%"" height=""75%""></img></td>
  </tr>
</table>
  ",,,,,,,,,,,,,,,,,,,,,,,,,,,,
181,0,,html-keyboard-response,181,700530,0.0-7.6-3.6,k8wm0nx1cw,2022-09-19 17:57:53.587,5b6641d6bd3c8a0001d487d5,3,76,19,70,44,35,Female,,,"<p style=""font-size:50px"">You Lose!
No points this round.</p>",,,,,,,,,,,,,,,,,,,,,,,,,,,,
182,0,,html-keyboard-response,182,701052,0.0-7.6-4.6,k8wm0nx1cw,2022-09-19 17:57:53.587,5b6641d6bd3c8a0001d487d5,3,76,19,70,44,35,Female,,,,,1.0,choice,6.0,A,B,black,red,moons,moons,A,B,A,black,moons,650.8999999762,1.0,1.0,NA,right,429.1000000238,3.0,0.0,0.0,,,,
183,0,,html-keyboard-response,183,701704,0.0-7.7-0.7,k8wm0nx1cw,2022-09-19 17:57:53.587,5b6641d6bd3c8a0001d487d5,3,76,19,70,44,35,Female,651.6000000238,,"
  <table>
  <tr height=300>
    <td width=300 height=300><img src=""static/images/cards/stack_of_red_bolts.svg"" width=""175px"" height=""250px""></img></td>
    <td width=300 height=300><img src=""static/images/cards/stack_of_black_moons.svg"" width=""175px"" height=""250px""></img></td>
  </tr>
  <tr height=200>
    <td width=300><img src=""static/images/keys/w.svg"" width=""35%"" height=""75%""></img></td>
    <td width=300><img src=""static/images/keys/o.svg"" width=""35%"" height=""75%""></img></td>
  </tr>
</table>
  ",79.0,,,,,,,,,,,,,,,,,,,,,,,,,1.0,,
184,0,,html-keyboard-response,184,702716,0.0-7.7-1.7,k8wm0nx1cw,2022-09-19 17:57:53.587,5b6641d6bd3c8a0001d487d5,3,76,19,70,44,35,Female,496.8000000119,,"
  <table>
  <tr height=300>
    <td width=300 height=300><img src=""static/images/cards/back_of_black_moons.svg"" width=""175px"" height=""250px""></img></td>
    <td width=300 height=300><img src=""static/images/cards/back_of_black_moons.svg"" width=""175px"" height=""250px""></img></td>
  </tr>
  <tr height=200>
    <td width=300><img src=""static/images/keys/z.svg"" width=""35%"" height=""75%""></img></td>
    <td width=300><img src=""static/images/keys/m.svg"" width=""35%"" height=""75%""></img></td>
  </tr>
</table>
  ",90.0,,,,,,,,,,,,,,,,,,,,,,,,,1.0,,
185,0,,html-keyboard-response,185,704224,0.0-7.7-2.7,k8wm0nx1cw,2022-09-19 17:57:53.587,5b6641d6bd3c8a0001d487d5,3,76,19,70,44,35,Female,,,"
  <table>
  <tr height=300>
    <td width=300 height=300><img src=""static/images/cards/6_of_black_moons.svg"" width=""175px"" height=""250px""></img></td>
    <td width=300 height=300><img src=""static/images/cards/back_of_black_moons.svg"" width=""175px"" height=""250px""></img></td>
  </tr>
  <tr height=200>
    <td width=300><img src=""static/images/keys/z.svg"" width=""35%"" height=""75%""></img></td>
    <td width=300><img src=""static/images/keys/m.svg"" width=""35%"" height=""75%""></img></td>
  </tr>
</table>
  ",,,,,,,,,,,,,,,,,,,,,,,,,,,,
186,0,,html-keyboard-response,186,705735,0.0-7.7-3.7,k8wm0nx1cw,2022-09-19 17:57:53.587,5b6641d6bd3c8a0001d487d5,3,76,19,70,44,35,Female,,,"<p style=""font-size:50px"">You win!
+10 points this round!</p>",,,,,,,,,,,,,,,,,,,,,,,,,,,,
187,0,,html-keyboard-response,187,706250,0.0-7.7-4.7,k8wm0nx1cw,2022-09-19 17:57:53.587,5b6641d6bd3c8a0001d487d5,3,76,19,70,44,35,Female,,,,,1.0,choice,7.0,A,Xc,red,black,bolts,moons,Xc,A,A,black,moons,651.6000000238,1.0,1.0,NA,left,496.8000000119,6.0,1.0,1.0,,,,
188,0,,html-keyboard-response,188,706792,0.0-7.8-0.8,k8wm0nx1cw,2022-09-19 17:57:53.587,5b6641d6bd3c8a0001d487d5,3,76,19,70,44,35,Female,541.4000000358,,"
  <table>
  <tr height=300>
    <td width=300 height=300><img src=""static/images/cards/stack_of_red_stars.svg"" width=""175px"" height=""250px""></img></td>
    <td width=300 height=300><img src=""static/images/cards/stack_of_black_moons.svg"" width=""175px"" height=""250px""></img></td>
  </tr>
  <tr height=200>
    <td width=300><img src=""static/images/keys/w.svg"" width=""35%"" height=""75%""></img></td>
    <td width=300><img src=""static/images/keys/o.svg"" width=""35%"" height=""75%""></img></td>
  </tr>
</table>
  ",87.0,,,,,,,,,,,,,,,,,,,,,,,,,1.0,,
189,0,,html-keyboard-response,189,707804,0.0-7.8-1.8,k8wm0nx1cw,2022-09-19 17:57:53.587,5b6641d6bd3c8a0001d487d5,3,76,19,70,44,35,Female,504.3999999762,,"
  <table>
  <tr height=300>
    <td width=300 height=300><img src=""static/images/cards/back_of_red_stars.svg"" width=""175px"" height=""250px""></img></td>
    <td width=300 height=300><img src=""static/images/cards/back_of_red_stars.svg"" width=""175px"" height=""250px""></img></td>
  </tr>
  <tr height=200>
    <td width=300><img src=""static/images/keys/z.svg"" width=""35%"" height=""75%""></img></td>
    <td width=300></td>
  </tr>
</table>
  ",90.0,,,,,,,,,,,,,,,,,,,,,,,,,1.0,,
190,0,,html-keyboard-response,190,709305,0.0-7.8-2.8,k8wm0nx1cw,2022-09-19 17:57:53.587,5b6641d6bd3c8a0001d487d5,3,76,19,70,44,35,Female,,,"
  <table>
  <tr height=300>
    <td width=300 height=300><img src=""static/images/cards/1_of_red_stars.svg"" width=""175px"" height=""250px""></img></td>
    <td width=300 height=300><img src=""static/images/cards/back_of_red_stars.svg"" width=""175px"" height=""250px""></img></td>
  </tr>
  <tr height=200>
    <td width=300><img src=""static/images/keys/z.svg"" width=""35%"" height=""75%""></img></td>
    <td width=300></td>
  </tr>
</table>
  ",,,,,,,,,,,,,,,,,,,,,,,,,,,,
191,0,,html-keyboard-response,191,710823,0.0-7.8-3.8,k8wm0nx1cw,2022-09-19 17:57:53.587,5b6641d6bd3c8a0001d487d5,3,76,19,70,44,35,Female,,,"<p style=""font-size:50px"">You Lose!
No points this round.</p>",,,,,,,,,,,,,,,,,,,,,,,,,,,,
192,0,,html-keyboard-response,192,711336,0.0-7.8-4.8,k8wm0nx1cw,2022-09-19 17:57:53.587,5b6641d6bd3c8a0001d487d5,3,76,19,70,44,35,Female,,,,,1.0,choice,8.0,A,D,red,black,stars,moons,D,A,D,red,stars,541.4000000358,0.0,0.0,1,left,504.3999999762,1.0,0.0,0.0,,,,
193,0,,html-keyboard-response,193,711791,0.0-7.9-0.9,k8wm0nx1cw,2022-09-19 17:57:53.587,5b6641d6bd3c8a0001d487d5,3,76,19,70,44,35,Female,453.5,,"
  <table>
  <tr height=300>
    <td width=300 height=300><img src=""static/images/cards/stack_of_black_moons.svg"" width=""175px"" height=""250px""></img></td>
    <td width=300 height=300><img src=""static/images/cards/stack_of_black_stars.svg"" width=""175px"" height=""250px""></img></td>
  </tr>
  <tr height=200>
    <td width=300><img src=""static/images/keys/w.svg"" width=""35%"" height=""75%""></img></td>
    <td width=300><img src=""static/images/keys/o.svg"" width=""35%"" height=""75%""></img></td>
  </tr>
</table>
  ",79.0,,,,,,,,,,,,,,,,,,,,,,,,,1.0,,
194,0,,html-keyboard-response,194,712780,0.0-7.9-1.9,k8wm0nx1cw,2022-09-19 17:57:53.587,5b6641d6bd3c8a0001d487d5,3,76,19,70,44,35,Female,483.0,,"
  <table>
  <tr height=300>
    <td width=300 height=300><img src=""static/images/cards/back_of_black_stars.svg"" width=""175px"" height=""250px""></img></td>
    <td width=300 height=300><img src=""static/images/cards/back_of_black_stars.svg"" width=""175px"" height=""250px""></img></td>
  </tr>
  <tr height=200>
    <td width=300><img src=""static/images/keys/z.svg"" width=""35%"" height=""75%""></img></td>
    <td width=300><img src=""static/images/keys/m.svg"" width=""35%"" height=""75%""></img></td>
  </tr>
</table>
  ",90.0,,,,,,,,,,,,,,,,,,,,,,,,,1.0,,
195,0,,html-keyboard-response,195,714296,0.0-7.9-2.9,k8wm0nx1cw,2022-09-19 17:57:53.587,5b6641d6bd3c8a0001d487d5,3,76,19,70,44,35,Female,,,"
  <table>
  <tr height=300>
    <td width=300 height=300><img src=""static/images/cards/6_of_black_stars.svg"" width=""175px"" height=""250px""></img></td>
    <td width=300 height=300><img src=""static/images/cards/back_of_black_stars.svg"" width=""175px"" height=""250px""></img></td>
  </tr>
  <tr height=200>
    <td width=300><img src=""static/images/keys/z.svg"" width=""35%"" height=""75%""></img></td>
    <td width=300><img src=""static/images/keys/m.svg"" width=""35%"" height=""75%""></img></td>
  </tr>
</table>
  ",,,,,,,,,,,,,,,,,,,,,,,,,,,,
196,0,,html-keyboard-response,196,715812,0.0-7.9-3.9,k8wm0nx1cw,2022-09-19 17:57:53.587,5b6641d6bd3c8a0001d487d5,3,76,19,70,44,35,Female,,,"<p style=""font-size:50px"">You win!
+10 points this round!</p>",,,,,,,,,,,,,,,,,,,,,,,,,,,,
197,0,,html-keyboard-response,197,716328,0.0-7.9-4.9,k8wm0nx1cw,2022-09-19 17:57:53.587,5b6641d6bd3c8a0001d487d5,3,76,19,70,44,35,Female,,,,,1.0,choice,9.0,A,C,black,black,moons,stars,A,C,C,black,stars,453.5,1.0,0.0,NA,left,483.0,6.0,1.0,1.0,,,,
198,0,,html-keyboard-response,198,716804,0.0-7.10-0.10,k8wm0nx1cw,2022-09-19 17:57:53.587,5b6641d6bd3c8a0001d487d5,3,76,19,70,44,35,Female,475.1999999881,,"
  <table>
  <tr height=300>
    <td width=300 height=300><img src=""static/images/cards/stack_of_black_bolts.svg"" width=""175px"" height=""250px""></img></td>
    <td width=300 height=300><img src=""static/images/cards/stack_of_red_moons.svg"" width=""175px"" height=""250px""></img></td>
  </tr>
  <tr height=200>
    <td width=300><img src=""static/images/keys/w.svg"" width=""35%"" height=""75%""></img></td>
    <td width=300><img src=""static/images/keys/o.svg"" width=""35%"" height=""75%""></img></td>
  </tr>
</table>
  ",87.0,,,,,,,,,,,,,,,,,,,,,,,,,1.0,,
199,0,,html-keyboard-response,199,717754,0.0-7.10-1.10,k8wm0nx1cw,2022-09-19 17:57:53.587,5b6641d6bd3c8a0001d487d5,3,76,19,70,44,35,Female,434.1999999881,,"
  <table>
  <tr height=300>
    <td width=300 height=300><img src=""static/images/cards/back_of_black_bolts.svg"" width=""175px"" height=""250px""></img></td>
    <td width=300 height=300><img src=""static/images/cards/back_of_black_bolts.svg"" width=""175px"" height=""250px""></img></td>
  </tr>
  <tr height=200>
    <td width=300></td>
    <td width=300><img src=""static/images/keys/m.svg"" width=""35%"" height=""75%""></img></td>
  </tr>
</table>
  ",77.0,,,,,,,,,,,,,,,,,,,,,,,,,1.0,,
200,0,,html-keyboard-response,200,719267,0.0-7.10-2.10,k8wm0nx1cw,2022-09-19 17:57:53.587,5b6641d6bd3c8a0001d487d5,3,76,19,70,44,35,Female,,,"
  <table>
  <tr height=300>
    <td width=300 height=300><img src=""static/images/cards/back_of_black_bolts.svg"" width=""175px"" height=""250px""></img></td>
    <td width=300 height=300><img src=""static/images/cards/7_of_black_bolts.svg"" width=""175px"" height=""250px""></img></td>
  </tr>
  <tr height=200>
    <td width=300></td>
    <td width=300><img src=""static/images/keys/m.svg"" width=""35%"" height=""75%""></img></td>
  </tr>
</table>
  ",,,,,,,,,,,,,,,,,,,,,,,,,,,,
201,0,,html-keyboard-response,201,720783,0.0-7.10-3.10,k8wm0nx1cw,2022-09-19 17:57:53.587,5b6641d6bd3c8a0001d487d5,3,76,19,70,44,35,Female,,,"<p style=""font-size:50px"">You win!
+10 points this round!</p>",,,,,,,,,,,,,,,,,,,,,,,,,,,,
202,0,,html-keyboard-response,202,721300,0.0-7.10-4.10,k8wm0nx1cw,2022-09-19 17:57:53.587,5b6641d6bd3c8a0001d487d5,3,76,19,70,44,35,Female,,,,,1.0,choice,10.0,B,Xnc,black,red,bolts,moons,Xnc,B,Xnc,black,bolts,475.1999999881,0.0,0.0,0,right,434.1999999881,7.0,1.0,1.0,,,,
203,0,,html-keyboard-response,203,721754,0.0-7.11-0.11,k8wm0nx1cw,2022-09-19 17:57:53.587,5b6641d6bd3c8a0001d487d5,3,76,19,70,44,35,Female,453.5,,"
  <table>
  <tr height=300>
    <td width=300 height=300><img src=""static/images/cards/stack_of_black_stars.svg"" width=""175px"" height=""250px""></img></td>
    <td width=300 height=300><img src=""static/images/cards/stack_of_red_stars.svg"" width=""175px"" height=""250px""></img></td>
  </tr>
  <tr height=200>
    <td width=300><img src=""static/images/keys/w.svg"" width=""35%"" height=""75%""></img></td>
    <td width=300><img src=""static/images/keys/o.svg"" width=""35%"" height=""75%""></img></td>
  </tr>
</table>
  ",79.0,,,,,,,,,,,,,,,,,,,,,,,,,1.0,,
204,0,,html-keyboard-response,204,722680,0.0-7.11-1.11,k8wm0nx1cw,2022-09-19 17:57:53.587,5b6641d6bd3c8a0001d487d5,3,76,19,70,44,35,Female,420.8999999762,,"
  <table>
  <tr height=300>
    <td width=300 height=300><img src=""static/images/cards/back_of_red_stars.svg"" width=""175px"" height=""250px""></img></td>
    <td width=300 height=300><img src=""static/images/cards/back_of_red_stars.svg"" width=""175px"" height=""250px""></img></td>
  </tr>
  <tr height=200>
    <td width=300></td>
    <td width=300><img src=""static/images/keys/m.svg"" width=""35%"" height=""75%""></img></td>
  </tr>
</table>
  ",77.0,,,,,,,,,,,,,,,,,,,,,,,,,1.0,,
205,0,,html-keyboard-response,205,724192,0.0-7.11-2.11,k8wm0nx1cw,2022-09-19 17:57:53.587,5b6641d6bd3c8a0001d487d5,3,76,19,70,44,35,Female,,,"
  <table>
  <tr height=300>
    <td width=300 height=300><img src=""static/images/cards/back_of_red_stars.svg"" width=""175px"" height=""250px""></img></td>
    <td width=300 height=300><img src=""static/images/cards/10_of_red_stars.svg"" width=""175px"" height=""250px""></img></td>
  </tr>
  <tr height=200>
    <td width=300></td>
    <td width=300><img src=""static/images/keys/m.svg"" width=""35%"" height=""75%""></img></td>
  </tr>
</table>
  ",,,,,,,,,,,,,,,,,,,,,,,,,,,,
206,0,,html-keyboard-response,206,725694,0.0-7.11-3.11,k8wm0nx1cw,2022-09-19 17:57:53.587,5b6641d6bd3c8a0001d487d5,3,76,19,70,44,35,Female,,,"<p style=""font-size:50px"">You Lose!
No points this round.</p>",,,,,,,,,,,,,,,,,,,,,,,,,,,,
207,0,,html-keyboard-response,207,726209,0.0-7.11-4.11,k8wm0nx1cw,2022-09-19 17:57:53.587,5b6641d6bd3c8a0001d487d5,3,76,19,70,44,35,Female,,,,,1.0,choice,11.0,C,D,black,red,stars,stars,C,D,D,red,stars,453.5,0.0,0.0,0,right,420.8999999762,10.0,1.0,0.0,,,,
208,0,,html-keyboard-response,208,726630,0.0-7.12-0.12,k8wm0nx1cw,2022-09-19 17:57:53.587,5b6641d6bd3c8a0001d487d5,3,76,19,70,44,35,Female,419.5999999642,,"
  <table>
  <tr height=300>
    <td width=300 height=300><img src=""static/images/cards/stack_of_black_stars.svg"" width=""175px"" height=""250px""></img></td>
    <td width=300 height=300><img src=""static/images/cards/stack_of_red_stars.svg"" width=""175px"" height=""250px""></img></td>
  </tr>
  <tr height=200>
    <td width=300><img src=""static/images/keys/w.svg"" width=""35%"" height=""75%""></img></td>
    <td width=300><img src=""static/images/keys/o.svg"" width=""35%"" height=""75%""></img></td>
  </tr>
</table>
  ",79.0,,,,,,,,,,,,,,,,,,,,,,,,,1.0,,
209,0,,html-keyboard-response,209,727667,0.0-7.12-1.12,k8wm0nx1cw,2022-09-19 17:57:53.587,5b6641d6bd3c8a0001d487d5,3,76,19,70,44,35,Female,532.3000000119,,"
  <table>
  <tr height=300>
    <td width=300 height=300><img src=""static/images/cards/back_of_red_stars.svg"" width=""175px"" height=""250px""></img></td>
    <td width=300 height=300><img src=""static/images/cards/back_of_red_stars.svg"" width=""175px"" height=""250px""></img></td>
  </tr>
  <tr height=200>
    <td width=300></td>
    <td width=300><img src=""static/images/keys/m.svg"" width=""35%"" height=""75%""></img></td>
  </tr>
</table>
  ",77.0,,,,,,,,,,,,,,,,,,,,,,,,,1.0,,
210,0,,html-keyboard-response,210,729173,0.0-7.12-2.12,k8wm0nx1cw,2022-09-19 17:57:53.587,5b6641d6bd3c8a0001d487d5,3,76,19,70,44,35,Female,,,"
  <table>
  <tr height=300>
    <td width=300 height=300><img src=""static/images/cards/back_of_red_stars.svg"" width=""175px"" height=""250px""></img></td>
    <td width=300 height=300><img src=""static/images/cards/6_of_red_stars.svg"" width=""175px"" height=""250px""></img></td>
  </tr>
  <tr height=200>
    <td width=300></td>
    <td width=300><img src=""static/images/keys/m.svg"" width=""35%"" height=""75%""></img></td>
  </tr>
</table>
  ",,,,,,,,,,,,,,,,,,,,,,,,,,,,
211,0,,html-keyboard-response,211,730680,0.0-7.12-3.12,k8wm0nx1cw,2022-09-19 17:57:53.587,5b6641d6bd3c8a0001d487d5,3,76,19,70,44,35,Female,,,"<p style=""font-size:50px"">You Lose!
No points this round.</p>",,,,,,,,,,,,,,,,,,,,,,,,,,,,
212,0,,html-keyboard-response,212,731189,0.0-7.12-4.12,k8wm0nx1cw,2022-09-19 17:57:53.587,5b6641d6bd3c8a0001d487d5,3,76,19,70,44,35,Female,,,,,1.0,choice,12.0,C,D,black,red,stars,stars,C,D,D,red,stars,419.5999999642,0.0,0.0,0,right,532.3000000119,6.0,1.0,0.0,,,,
213,0,,html-keyboard-response,213,731654,0.0-7.13-0.13,k8wm0nx1cw,2022-09-19 17:57:53.587,5b6641d6bd3c8a0001d487d5,3,76,19,70,44,35,Female,464.6000000238,,"
  <table>
  <tr height=300>
    <td width=300 height=300><img src=""static/images/cards/stack_of_red_moons.svg"" width=""175px"" height=""250px""></img></td>
    <td width=300 height=300><img src=""static/images/cards/stack_of_black_stars.svg"" width=""175px"" height=""250px""></img></td>
  </tr>
  <tr height=200>
    <td width=300><img src=""static/images/keys/w.svg"" width=""35%"" height=""75%""></img></td>
    <td width=300><img src=""static/images/keys/o.svg"" width=""35%"" height=""75%""></img></td>
  </tr>
</table>
  ",79.0,,,,,,,,,,,,,,,,,,,,,,,,,1.0,,
214,0,,html-keyboard-response,214,732730,0.0-7.13-1.13,k8wm0nx1cw,2022-09-19 17:57:53.587,5b6641d6bd3c8a0001d487d5,3,76,19,70,44,35,Female,570.8000000119,,"
  <table>
  <tr height=300>
    <td width=300 height=300><img src=""static/images/cards/back_of_black_stars.svg"" width=""175px"" height=""250px""></img></td>
    <td width=300 height=300><img src=""static/images/cards/back_of_black_stars.svg"" width=""175px"" height=""250px""></img></td>
  </tr>
  <tr height=200>
    <td width=300><img src=""static/images/keys/z.svg"" width=""35%"" height=""75%""></img></td>
    <td width=300><img src=""static/images/keys/m.svg"" width=""35%"" height=""75%""></img></td>
  </tr>
</table>
  ",90.0,,,,,,,,,,,,,,,,,,,,,,,,,1.0,,
215,0,,html-keyboard-response,215,734238,0.0-7.13-2.13,k8wm0nx1cw,2022-09-19 17:57:53.587,5b6641d6bd3c8a0001d487d5,3,76,19,70,44,35,Female,,,"
  <table>
  <tr height=300>
    <td width=300 height=300><img src=""static/images/cards/9_of_black_stars.svg"" width=""175px"" height=""250px""></img></td>
    <td width=300 height=300><img src=""static/images/cards/back_of_black_stars.svg"" width=""175px"" height=""250px""></img></td>
  </tr>
  <tr height=200>
    <td width=300><img src=""static/images/keys/z.svg"" width=""35%"" height=""75%""></img></td>
    <td width=300><img src=""static/images/keys/m.svg"" width=""35%"" height=""75%""></img></td>
  </tr>
</table>
  ",,,,,,,,,,,,,,,,,,,,,,,,,,,,
216,0,,html-keyboard-response,216,735751,0.0-7.13-3.13,k8wm0nx1cw,2022-09-19 17:57:53.587,5b6641d6bd3c8a0001d487d5,3,76,19,70,44,35,Female,,,"<p style=""font-size:50px"">You win!
+10 points this round!</p>",,,,,,,,,,,,,,,,,,,,,,,,,,,,
217,0,,html-keyboard-response,217,736263,0.0-7.13-4.13,k8wm0nx1cw,2022-09-19 17:57:53.587,5b6641d6bd3c8a0001d487d5,3,76,19,70,44,35,Female,,,,,1.0,choice,13.0,B,C,red,black,moons,stars,B,C,C,black,stars,464.6000000238,1.0,0.0,NA,left,570.8000000119,9.0,1.0,1.0,,,,
218,0,,html-keyboard-response,218,736792,0.0-7.14-0.14,k8wm0nx1cw,2022-09-19 17:57:53.587,5b6641d6bd3c8a0001d487d5,3,76,19,70,44,35,Female,528.3000000119,,"
  <table>
  <tr height=300>
    <td width=300 height=300><img src=""static/images/cards/stack_of_black_stars.svg"" width=""175px"" height=""250px""></img></td>
    <td width=300 height=300><img src=""static/images/cards/stack_of_black_moons.svg"" width=""175px"" height=""250px""></img></td>
  </tr>
  <tr height=200>
    <td width=300><img src=""static/images/keys/w.svg"" width=""35%"" height=""75%""></img></td>
    <td width=300><img src=""static/images/keys/o.svg"" width=""35%"" height=""75%""></img></td>
  </tr>
</table>
  ",79.0,,,,,,,,,,,,,,,,,,,,,,,,,1.0,,
219,0,,html-keyboard-response,219,737818,0.0-7.14-1.14,k8wm0nx1cw,2022-09-19 17:57:53.587,5b6641d6bd3c8a0001d487d5,3,76,19,70,44,35,Female,513.5,,"
  <table>
  <tr height=300>
    <td width=300 height=300><img src=""static/images/cards/back_of_black_moons.svg"" width=""175px"" height=""250px""></img></td>
    <td width=300 height=300><img src=""static/images/cards/back_of_black_moons.svg"" width=""175px"" height=""250px""></img></td>
  </tr>
  <tr height=200>
    <td width=300><img src=""static/images/keys/z.svg"" width=""35%"" height=""75%""></img></td>
    <td width=300><img src=""static/images/keys/m.svg"" width=""35%"" height=""75%""></img></td>
  </tr>
</table>
  ",90.0,,,,,,,,,,,,,,,,,,,,,,,,,1.0,,
220,0,,html-keyboard-response,220,739334,0.0-7.14-2.14,k8wm0nx1cw,2022-09-19 17:57:53.587,5b6641d6bd3c8a0001d487d5,3,76,19,70,44,35,Female,,,"
  <table>
  <tr height=300>
    <td width=300 height=300><img src=""static/images/cards/3_of_black_moons.svg"" width=""175px"" height=""250px""></img></td>
    <td width=300 height=300><img src=""static/images/cards/back_of_black_moons.svg"" width=""175px"" height=""250px""></img></td>
  </tr>
  <tr height=200>
    <td width=300><img src=""static/images/keys/z.svg"" width=""35%"" height=""75%""></img></td>
    <td width=300><img src=""static/images/keys/m.svg"" width=""35%"" height=""75%""></img></td>
  </tr>
</table>
  ",,,,,,,,,,,,,,,,,,,,,,,,,,,,
221,0,,html-keyboard-response,221,740848,0.0-7.14-3.14,k8wm0nx1cw,2022-09-19 17:57:53.587,5b6641d6bd3c8a0001d487d5,3,76,19,70,44,35,Female,,,"<p style=""font-size:50px"">You Lose!
No points this round.</p>",,,,,,,,,,,,,,,,,,,,,,,,,,,,
222,0,,html-keyboard-response,222,741361,0.0-7.14-4.14,k8wm0nx1cw,2022-09-19 17:57:53.587,5b6641d6bd3c8a0001d487d5,3,76,19,70,44,35,Female,,,,,1.0,choice,14.0,A,C,black,black,stars,moons,C,A,A,black,moons,528.3000000119,1.0,1.0,NA,left,513.5,3.0,0.0,0.0,,,,
223,0,,html-keyboard-response,223,741717,0.0-7.15-0.15,k8wm0nx1cw,2022-09-19 17:57:53.587,5b6641d6bd3c8a0001d487d5,3,76,19,70,44,35,Female,354.8000000119,,"
  <table>
  <tr height=300>
    <td width=300 height=300><img src=""static/images/cards/stack_of_red_moons.svg"" width=""175px"" height=""250px""></img></td>
    <td width=300 height=300><img src=""static/images/cards/stack_of_black_moons.svg"" width=""175px"" height=""250px""></img></td>
  </tr>
  <tr height=200>
    <td width=300><img src=""static/images/keys/w.svg"" width=""35%"" height=""75%""></img></td>
    <td width=300><img src=""static/images/keys/o.svg"" width=""35%"" height=""75%""></img></td>
  </tr>
</table>
  ",87.0,,,,,,,,,,,,,,,,,,,,,,,,,1.0,,
224,0,,html-keyboard-response,224,743005,0.0-7.15-1.15,k8wm0nx1cw,2022-09-19 17:57:53.587,5b6641d6bd3c8a0001d487d5,3,76,19,70,44,35,Female,783.3999999762,,"
  <table>
  <tr height=300>
    <td width=300 height=300><img src=""static/images/cards/back_of_red_moons.svg"" width=""175px"" height=""250px""></img></td>
    <td width=300 height=300><img src=""static/images/cards/back_of_red_moons.svg"" width=""175px"" height=""250px""></img></td>
  </tr>
  <tr height=200>
    <td width=300><img src=""static/images/keys/z.svg"" width=""35%"" height=""75%""></img></td>
    <td width=300></td>
  </tr>
</table>
  ",90.0,,,,,,,,,,,,,,,,,,,,,,,,,1.0,,
225,0,,html-keyboard-response,225,744514,0.0-7.15-2.15,k8wm0nx1cw,2022-09-19 17:57:53.587,5b6641d6bd3c8a0001d487d5,3,76,19,70,44,35,Female,,,"
  <table>
  <tr height=300>
    <td width=300 height=300><img src=""static/images/cards/4_of_red_moons.svg"" width=""175px"" height=""250px""></img></td>
    <td width=300 height=300><img src=""static/images/cards/back_of_red_moons.svg"" width=""175px"" height=""250px""></img></td>
  </tr>
  <tr height=200>
    <td width=300><img src=""static/images/keys/z.svg"" width=""35%"" height=""75%""></img></td>
    <td width=300></td>
  </tr>
</table>
  ",,,,,,,,,,,,,,,,,,,,,,,,,,,,
226,0,,html-keyboard-response,226,746032,0.0-7.15-3.15,k8wm0nx1cw,2022-09-19 17:57:53.587,5b6641d6bd3c8a0001d487d5,3,76,19,70,44,35,Female,,,"<p style=""font-size:50px"">You Lose!
No points this round.</p>",,,,,,,,,,,,,,,,,,,,,,,,,,,,
227,0,,html-keyboard-response,227,746546,0.0-7.15-4.15,k8wm0nx1cw,2022-09-19 17:57:53.587,5b6641d6bd3c8a0001d487d5,3,76,19,70,44,35,Female,,,,,1.0,choice,15.0,A,B,red,black,moons,moons,B,A,B,red,moons,354.8000000119,0.0,1.0,1,left,783.3999999762,4.0,0.0,0.0,,,,
228,0,,html-keyboard-response,228,747080,0.0-7.16-0.16,k8wm0nx1cw,2022-09-19 17:57:53.587,5b6641d6bd3c8a0001d487d5,3,76,19,70,44,35,Female,533.5,,"
  <table>
  <tr height=300>
    <td width=300 height=300><img src=""static/images/cards/stack_of_black_moons.svg"" width=""175px"" height=""250px""></img></td>
    <td width=300 height=300><img src=""static/images/cards/stack_of_black_stars.svg"" width=""175px"" height=""250px""></img></td>
  </tr>
  <tr height=200>
    <td width=300><img src=""static/images/keys/w.svg"" width=""35%"" height=""75%""></img></td>
    <td width=300><img src=""static/images/keys/o.svg"" width=""35%"" height=""75%""></img></td>
  </tr>
</table>
  ",87.0,,,,,,,,,,,,,,,,,,,,,,,,,1.0,,
229,0,,html-keyboard-response,229,748081,0.0-7.16-1.16,k8wm0nx1cw,2022-09-19 17:57:53.587,5b6641d6bd3c8a0001d487d5,3,76,19,70,44,35,Female,484.8000000119,,"
  <table>
  <tr height=300>
    <td width=300 height=300><img src=""static/images/cards/back_of_black_moons.svg"" width=""175px"" height=""250px""></img></td>
    <td width=300 height=300><img src=""static/images/cards/back_of_black_moons.svg"" width=""175px"" height=""250px""></img></td>
  </tr>
  <tr height=200>
    <td width=300><img src=""static/images/keys/z.svg"" width=""35%"" height=""75%""></img></td>
    <td width=300><img src=""static/images/keys/m.svg"" width=""35%"" height=""75%""></img></td>
  </tr>
</table>
  ",77.0,,,,,,,,,,,,,,,,,,,,,,,,,1.0,,
230,0,,html-keyboard-response,230,749583,0.0-7.16-2.16,k8wm0nx1cw,2022-09-19 17:57:53.587,5b6641d6bd3c8a0001d487d5,3,76,19,70,44,35,Female,,,"
  <table>
  <tr height=300>
    <td width=300 height=300><img src=""static/images/cards/back_of_black_moons.svg"" width=""175px"" height=""250px""></img></td>
    <td width=300 height=300><img src=""static/images/cards/1_of_black_moons.svg"" width=""175px"" height=""250px""></img></td>
  </tr>
  <tr height=200>
    <td width=300><img src=""static/images/keys/z.svg"" width=""35%"" height=""75%""></img></td>
    <td width=300><img src=""static/images/keys/m.svg"" width=""35%"" height=""75%""></img></td>
  </tr>
</table>
  ",,,,,,,,,,,,,,,,,,,,,,,,,,,,
231,0,,html-keyboard-response,231,751100,0.0-7.16-3.16,k8wm0nx1cw,2022-09-19 17:57:53.587,5b6641d6bd3c8a0001d487d5,3,76,19,70,44,35,Female,,,"<p style=""font-size:50px"">You Lose!
No points this round.</p>",,,,,,,,,,,,,,,,,,,,,,,,,,,,
232,0,,html-keyboard-response,232,751616,0.0-7.16-4.16,k8wm0nx1cw,2022-09-19 17:57:53.587,5b6641d6bd3c8a0001d487d5,3,76,19,70,44,35,Female,,,,,1.0,choice,16.0,A,C,black,black,moons,stars,A,C,A,black,moons,533.5,1.0,1.0,NA,right,484.8000000119,1.0,0.0,0.0,,,,
233,0,,html-keyboard-response,233,752130,0.0-7.17-0.17,k8wm0nx1cw,2022-09-19 17:57:53.587,5b6641d6bd3c8a0001d487d5,3,76,19,70,44,35,Female,513.3999999762,,"
  <table>
  <tr height=300>
    <td width=300 height=300><img src=""static/images/cards/stack_of_black_moons.svg"" width=""175px"" height=""250px""></img></td>
    <td width=300 height=300><img src=""static/images/cards/stack_of_red_moons.svg"" width=""175px"" height=""250px""></img></td>
  </tr>
  <tr height=200>
    <td width=300><img src=""static/images/keys/w.svg"" width=""35%"" height=""75%""></img></td>
    <td width=300><img src=""static/images/keys/o.svg"" width=""35%"" height=""75%""></img></td>
  </tr>
</table>
