,index,success,trial_type,trial_index,time_elapsed,internal_node_id,subject,date,prol_id,ctbl,sense_of_control_A,sense_of_control_B,sense_of_control_C,sense_of_control_D,age,gender,rt,url,stimulus,key_press,npress,is_data_trial,phase,trial,deck1,deck2,col1,col2,sym1,sym2,deck_l,deck_r,chosen_deck,chosen_col,chosen_sym,deck_rt,choose_choice,mutual_info,hidden_key,chosen_card,card_rt,player_num,win_card,outcome,mock_rating,response,responses
0,0,1.0,fullscreen,0,9823,0.0-0.0,twki4fnf14m,2022-09-16 18:29:27.059,5f4f990e0e7da9068d0a9802,0,86,59,74,41,40,female,,,,,,,,,,,,,,,,,,,,,,,,,,,,,,,
1,0,,external-html,1,24021,0.0-1.0,twki4fnf14m,2022-09-16 18:29:27.059,5f4f990e0e7da9068d0a9802,0,86,59,74,41,40,female,14138.5,static/js/sub/consent.html,,,,,,,,,,,,,,,,,,,,,,,,,,,,,
2,0,,call-function,2,24022,0.0-2.0,twki4fnf14m,2022-09-16 18:29:27.059,5f4f990e0e7da9068d0a9802,0,86,59,74,41,40,female,,,,,,,,,,,,,,,,,,,,,,,,,,,,,,,
3,0,,image-keyboard-response,3,27309,0.0-3.0-0.0,twki4fnf14m,2022-09-16 18:29:27.059,5f4f990e0e7da9068d0a9802,0,86,59,74,41,40,female,3284.1999998093,,static/images/instructions_CB_0/Slide1.png,39.0,,,,,,,,,,,,,,,,,,,,,,,,,,,
4,0,,image-keyboard-response,4,38588,0.0-3.1-0.1,twki4fnf14m,2022-09-16 18:29:27.059,5f4f990e0e7da9068d0a9802,0,86,59,74,41,40,female,11278.5,,static/images/instructions_CB_0/Slide2.png,37.0,,,,,,,,,,,,,,,,,,,,,,,,,,,
5,0,,image-keyboard-response,5,40558,0.0-3.2-0.2,twki4fnf14m,2022-09-16 18:29:27.059,5f4f990e0e7da9068d0a9802,0,86,59,74,41,40,female,1968.2000002861,,static/images/instructions_CB_0/Slide1.png,39.0,,,,,,,,,,,,,,,,,,,,,,,,,,,
6,0,,image-keyboard-response,6,41182,0.0-3.3-0.3,twki4fnf14m,2022-09-16 18:29:27.059,5f4f990e0e7da9068d0a9802,0,86,59,74,41,40,female,622.5,,static/images/instructions_CB_0/Slide2.png,39.0,,,,,,,,,,,,,,,,,,,,,,,,,,,
7,0,,image-keyboard-response,7,45985,0.0-3.4-0.4,twki4fnf14m,2022-09-16 18:29:27.059,5f4f990e0e7da9068d0a9802,0,86,59,74,41,40,female,4801.6000003815,,static/images/instructions_CB_0/Slide3.png,39.0,,,,,,,,,,,,,,,,,,,,,,,,,,,
8,0,,image-keyboard-response,8,48288,0.0-3.5-0.5,twki4fnf14m,2022-09-16 18:29:27.059,5f4f990e0e7da9068d0a9802,0,86,59,74,41,40,female,2302.0,,static/images/instructions_CB_0/Slide4.png,39.0,,,,,,,,,,,,,,,,,,,,,,,,,,,
9,0,,image-keyboard-response,9,52754,0.0-3.6-0.6,twki4fnf14m,2022-09-16 18:29:27.059,5f4f990e0e7da9068d0a9802,0,86,59,74,41,40,female,4465.4000000954,,static/images/instructions_CB_0/Slide5.png,39.0,,,,,,,,,,,,,,,,,,,,,,,,,,,
10,0,,image-keyboard-response,10,54950,0.0-3.7-0.7,twki4fnf14m,2022-09-16 18:29:27.059,5f4f990e0e7da9068d0a9802,0,86,59,74,41,40,female,2195.1999998093,,static/images/instructions_CB_0/Slide6.png,39.0,,,,,,,,,,,,,,,,,,,,,,,,,,,
11,0,,image-keyboard-response,11,58596,0.0-3.8-0.8,twki4fnf14m,2022-09-16 18:29:27.059,5f4f990e0e7da9068d0a9802,0,86,59,74,41,40,female,3644.7000002861,,static/images/instructions_CB_0/Slide7.png,39.0,,,,,,,,,,,,,,,,,,,,,,,,,,,
12,0,,image-keyboard-response,12,69127,0.0-3.9-0.9,twki4fnf14m,2022-09-16 18:29:27.059,5f4f990e0e7da9068d0a9802,0,86,59,74,41,40,female,10529.7000002861,,static/images/instructions_CB_0/Slide8.png,39.0,,,,,,,,,,,,,,,,,,,,,,,,,,,
13,0,,image-keyboard-response,13,73983,0.0-3.10-0.10,twki4fnf14m,2022-09-16 18:29:27.059,5f4f990e0e7da9068d0a9802,0,86,59,74,41,40,female,4855.0,,static/images/instructions_CB_0/Slide9.png,39.0,,,,,,,,,,,,,,,,,,,,,,,,,,,
14,0,,image-keyboard-response,14,82611,0.0-3.11-0.11,twki4fnf14m,2022-09-16 18:29:27.059,5f4f990e0e7da9068d0a9802,0,86,59,74,41,40,female,8626.5999999046,,static/images/instructions_CB_0/Slide10.png,39.0,,,,,,,,,,,,,,,,,,,,,,,,,,,
15,0,,image-keyboard-response,15,83992,0.0-3.12-0.12,twki4fnf14m,2022-09-16 18:29:27.059,5f4f990e0e7da9068d0a9802,0,86,59,74,41,40,female,1380.4000000954,,static/images/instructions_CB_0/Slide11.png,39.0,,,,,,,,,,,,,,,,,,,,,,,,,,,
16,0,,image-keyboard-response,16,90952,0.0-3.13-0.13,twki4fnf14m,2022-09-16 18:29:27.059,5f4f990e0e7da9068d0a9802,0,86,59,74,41,40,female,6959.0,,static/images/instructions_CB_0/Slide12.png,39.0,,,,,,,,,,,,,,,,,,,,,,,,,,,
17,0,,image-keyboard-response,17,94510,0.0-3.14-0.14,twki4fnf14m,2022-09-16 18:29:27.059,5f4f990e0e7da9068d0a9802,0,86,59,74,41,40,female,3556.4000000954,,static/images/instructions_CB_0/Slide13.png,39.0,,,,,,,,,,,,,,,,,,,,,,,,,,,
18,0,,image-keyboard-response,18,96439,0.0-3.15-0.15,twki4fnf14m,2022-09-16 18:29:27.059,5f4f990e0e7da9068d0a9802,0,86,59,74,41,40,female,1928.5999999046,,static/images/instructions_CB_0/Slide14.png,39.0,,,,,,,,,,,,,,,,,,,,,,,,,,,
19,0,,image-keyboard-response,19,101725,0.0-3.16-0.16,twki4fnf14m,2022-09-16 18:29:27.059,5f4f990e0e7da9068d0a9802,0,86,59,74,41,40,female,5284.4000000954,,static/images/instructions_CB_0/Slide15.png,39.0,,,,,,,,,,,,,,,,,,,,,,,,,,,
20,0,,image-keyboard-response,20,106830,0.0-3.17-0.17,twki4fnf14m,2022-09-16 18:29:27.059,5f4f990e0e7da9068d0a9802,0,86,59,74,41,40,female,5104.5,,static/images/instructions_CB_0/Slide16.png,39.0,,,,,,,,,,,,,,,,,,,,,,,,,,,
21,0,,image-keyboard-response,21,109293,0.0-3.18-0.18,twki4fnf14m,2022-09-16 18:29:27.059,5f4f990e0e7da9068d0a9802,0,86,59,74,41,40,female,2461.7000002861,,static/images/instructions_CB_0/Slide17.png,39.0,,,,,,,,,,,,,,,,,,,,,,,,,,,
22,0,,image-keyboard-response,22,112286,0.0-3.19-0.19,twki4fnf14m,2022-09-16 18:29:27.059,5f4f990e0e7da9068d0a9802,0,86,59,74,41,40,female,2992.2999997139,,static/images/instructions_CB_0/Slide18.png,39.0,,,,,,,,,,,,,,,,,,,,,,,,,,,
23,0,,image-keyboard-response,23,114595,0.0-3.20-0.20,twki4fnf14m,2022-09-16 18:29:27.059,5f4f990e0e7da9068d0a9802,0,86,59,74,41,40,female,2308.4000000954,,static/images/instructions_CB_0/Slide19.png,39.0,,,,,,,,,,,,,,,,,,,,,,,,,,,
24,0,,html-keyboard-response,24,116104,0.0-4.0-0.0,twki4fnf14m,2022-09-16 18:29:27.059,5f4f990e0e7da9068d0a9802,0,86,59,74,41,40,female,,,"<img src=""static/images/cards/stack_of_red_stars.svg"" width=""175px"" height=""250px""></img>",,,,,,,,,,,,,,,,,,,,,,,,,,,,
25,0,,html-keyboard-response,25,118238,0.0-4.0-1.0,twki4fnf14m,2022-09-16 18:29:27.059,5f4f990e0e7da9068d0a9802,0,86,59,74,41,40,female,1617.7000002861,,"
  <table>
  <tr height=300>
    <td width=300 height=300><img src=""static/images/cards/back_of_red_stars.svg"" width=""175px"" height=""250px""></img></td>
    <td width=300 height=300><img src=""static/images/cards/back_of_red_stars.svg"" width=""175px"" height=""250px""></img></td>
  </tr>
  <tr height=200>
    <td width=300><img src=""static/images/keys/z.svg"" width=""35%"" height=""75%""></img></td>
    <td width=300><img src=""static/images/keys/m.svg"" width=""35%"" height=""75%""></img></td>
  </tr>
</table>
  ",90.0,1.0,,,,,,,,,,,,,,,,,,,,,,,,,,
26,0,,html-keyboard-response,26,119747,0.0-4.0-2.0,twki4fnf14m,2022-09-16 18:29:27.059,5f4f990e0e7da9068d0a9802,0,86,59,74,41,40,female,,,"
  <table>
  <tr height=300>
    <td width=300 height=300><img src=""static/images/cards/3_of_red_stars.svg"" width=""175px"" height=""250px""></img></td>
    <td width=300 height=300><img src=""static/images/cards/back_of_red_stars.svg"" width=""175px"" height=""250px""></img></td>
  </tr>
  <tr height=200>
    <td width=300><img src=""static/images/keys/z.svg"" width=""35%"" height=""75%""></img></td>
    <td width=300><img src=""static/images/keys/m.svg"" width=""35%"" height=""75%""></img></td>
  </tr>
</table>
  ",,,,,,,,,,,,,,,,,,,,,,,,,,,,
27,0,,html-keyboard-response,27,121262,0.0-4.0-3.0,twki4fnf14m,2022-09-16 18:29:27.059,5f4f990e0e7da9068d0a9802,0,86,59,74,41,40,female,,,"<p style=""font-size:50px"">You Lose!
No points this round.</p>",,,,,,,,,,,,,,,,,,,,,,,,,,,,
28,0,,html-keyboard-response,28,121773,0.0-4.0-4.0,twki4fnf14m,2022-09-16 18:29:27.059,5f4f990e0e7da9068d0a9802,0,86,59,74,41,40,female,,,,,,1.0,learning,0.0,A,,red,,stars,,,,A,red,stars,,1.0,1.0,NA,left,1617.7000002861,3.0,0.0,0.0,,,
29,0,,html-keyboard-response,29,123278,0.0-4.1-0.1,twki4fnf14m,2022-09-16 18:29:27.059,5f4f990e0e7da9068d0a9802,0,86,59,74,41,40,female,,,"<img src=""static/images/cards/stack_of_black_stars.svg"" width=""175px"" height=""250px""></img>",,,,,,,,,,,,,,,,,,,,,,,,,,,,
30,0,,html-keyboard-response,30,124903,0.0-4.1-1.1,twki4fnf14m,2022-09-16 18:29:27.059,5f4f990e0e7da9068d0a9802,0,86,59,74,41,40,female,1120.0999999046,,"
  <table>
  <tr height=300>
    <td width=300 height=300><img src=""static/images/cards/back_of_black_stars.svg"" width=""175px"" height=""250px""></img></td>
    <td width=300 height=300><img src=""static/images/cards/back_of_black_stars.svg"" width=""175px"" height=""250px""></img></td>
  </tr>
  <tr height=200>
    <td width=300></td>
    <td width=300><img src=""static/images/keys/m.svg"" width=""35%"" height=""75%""></img></td>
  </tr>
</table>
  ",77.0,1.0,,,,,,,,,,,,,,,,,,,,,,,,,,
31,0,,html-keyboard-response,31,126410,0.0-4.1-2.1,twki4fnf14m,2022-09-16 18:29:27.059,5f4f990e0e7da9068d0a9802,0,86,59,74,41,40,female,,,"
  <table>
  <tr height=300>
    <td width=300 height=300><img src=""static/images/cards/back_of_black_stars.svg"" width=""175px"" height=""250px""></img></td>
    <td width=300 height=300><img src=""static/images/cards/8_of_black_stars.svg"" width=""175px"" height=""250px""></img></td>
  </tr>
  <tr height=200>
    <td width=300></td>
    <td width=300><img src=""static/images/keys/m.svg"" width=""35%"" height=""75%""></img></td>
  </tr>
</table>
  ",,,,,,,,,,,,,,,,,,,,,,,,,,,,
32,0,,html-keyboard-response,32,127928,0.0-4.1-3.1,twki4fnf14m,2022-09-16 18:29:27.059,5f4f990e0e7da9068d0a9802,0,86,59,74,41,40,female,,,"<p style=""font-size:50px"">You win!
+10 points this round!</p>",,,,,,,,,,,,,,,,,,,,,,,,,,,,
33,0,,html-keyboard-response,33,128449,0.0-4.1-4.1,twki4fnf14m,2022-09-16 18:29:27.059,5f4f990e0e7da9068d0a9802,0,86,59,74,41,40,female,,,,,,1.0,learning,1.0,B,,black,,stars,,,,B,black,stars,,0.0,1.0,0,right,1120.0999999046,8.0,1.0,1.0,,,
34,0,,html-keyboard-response,34,129960,0.0-4.2-0.2,twki4fnf14m,2022-09-16 18:29:27.059,5f4f990e0e7da9068d0a9802,0,86,59,74,41,40,female,,,"<img src=""static/images/cards/stack_of_red_moons.svg"" width=""175px"" height=""250px""></img>",,,,,,,,,,,,,,,,,,,,,,,,,,,,
35,0,,html-keyboard-response,35,131354,0.0-4.2-1.2,twki4fnf14m,2022-09-16 18:29:27.059,5f4f990e0e7da9068d0a9802,0,86,59,74,41,40,female,881.3999996185,,"
  <table>
  <tr height=300>
    <td width=300 height=300><img src=""static/images/cards/back_of_red_moons.svg"" width=""175px"" height=""250px""></img></td>
    <td width=300 height=300><img src=""static/images/cards/back_of_red_moons.svg"" width=""175px"" height=""250px""></img></td>
  </tr>
  <tr height=200>
    <td width=300><img src=""static/images/keys/z.svg"" width=""35%"" height=""75%""></img></td>
    <td width=300><img src=""static/images/keys/m.svg"" width=""35%"" height=""75%""></img></td>
  </tr>
</table>
  ",77.0,1.0,,,,,,,,,,,,,,,,,,,,,,,,,,
36,0,,html-keyboard-response,36,132856,0.0-4.2-2.2,twki4fnf14m,2022-09-16 18:29:27.059,5f4f990e0e7da9068d0a9802,0,86,59,74,41,40,female,,,"
  <table>
  <tr height=300>
    <td width=300 height=300><img src=""static/images/cards/back_of_red_moons.svg"" width=""175px"" height=""250px""></img></td>
    <td width=300 height=300><img src=""static/images/cards/1_of_red_moons.svg"" width=""175px"" height=""250px""></img></td>
  </tr>
  <tr height=200>
    <td width=300><img src=""static/images/keys/z.svg"" width=""35%"" height=""75%""></img></td>
    <td width=300><img src=""static/images/keys/m.svg"" width=""35%"" height=""75%""></img></td>
  </tr>
</table>
  ",,,,,,,,,,,,,,,,,,,,,,,,,,,,
37,0,,html-keyboard-response,37,134359,0.0-4.2-3.2,twki4fnf14m,2022-09-16 18:29:27.059,5f4f990e0e7da9068d0a9802,0,86,59,74,41,40,female,,,"<p style=""font-size:50px"">You win!
+10 points this round!</p>",,,,,,,,,,,,,,,,,,,,,,,,,,,,
38,0,,html-keyboard-response,38,134878,0.0-4.2-4.2,twki4fnf14m,2022-09-16 18:29:27.059,5f4f990e0e7da9068d0a9802,0,86,59,74,41,40,female,,,,,,1.0,learning,2.0,C,,red,,moons,,,,C,red,moons,,1.0,0.0,NA,right,881.3999996185,1.0,0.0,1.0,,,
39,0,,html-keyboard-response,39,136393,0.0-4.3-0.3,twki4fnf14m,2022-09-16 18:29:27.059,5f4f990e0e7da9068d0a9802,0,86,59,74,41,40,female,,,"<img src=""static/images/cards/stack_of_black_moons.svg"" width=""175px"" height=""250px""></img>",,,,,,,,,,,,,,,,,,,,,,,,,,,,
40,0,,html-keyboard-response,40,137823,0.0-4.3-1.3,twki4fnf14m,2022-09-16 18:29:27.059,5f4f990e0e7da9068d0a9802,0,86,59,74,41,40,female,926.7000002861,,"
  <table>
  <tr height=300>
    <td width=300 height=300><img src=""static/images/cards/back_of_black_moons.svg"" width=""175px"" height=""250px""></img></td>
    <td width=300 height=300><img src=""static/images/cards/back_of_black_moons.svg"" width=""175px"" height=""250px""></img></td>
  </tr>
  <tr height=200>
    <td width=300></td>
    <td width=300><img src=""static/images/keys/m.svg"" width=""35%"" height=""75%""></img></td>
  </tr>
</table>
  ",77.0,1.0,,,,,,,,,,,,,,,,,,,,,,,,,,
41,0,,html-keyboard-response,41,139340,0.0-4.3-2.3,twki4fnf14m,2022-09-16 18:29:27.059,5f4f990e0e7da9068d0a9802,0,86,59,74,41,40,female,,,"
  <table>
  <tr height=300>
    <td width=300 height=300><img src=""static/images/cards/back_of_black_moons.svg"" width=""175px"" height=""250px""></img></td>
    <td width=300 height=300><img src=""static/images/cards/8_of_black_moons.svg"" width=""175px"" height=""250px""></img></td>
  </tr>
  <tr height=200>
    <td width=300></td>
    <td width=300><img src=""static/images/keys/m.svg"" width=""35%"" height=""75%""></img></td>
  </tr>
</table>
  ",,,,,,,,,,,,,,,,,,,,,,,,,,,,
42,0,,html-keyboard-response,42,140869,0.0-4.3-3.3,twki4fnf14m,2022-09-16 18:29:27.059,5f4f990e0e7da9068d0a9802,0,86,59,74,41,40,female,,,"<p style=""font-size:50px"">You Lose!
No points this round.</p>",,,,,,,,,,,,,,,,,,,,,,,,,,,,
43,0,,html-keyboard-response,43,141390,0.0-4.3-4.3,twki4fnf14m,2022-09-16 18:29:27.059,5f4f990e0e7da9068d0a9802,0,86,59,74,41,40,female,,,,,,1.0,learning,3.0,D,,black,,moons,,,,D,black,moons,,0.0,0.0,0,right,926.7000002861,8.0,1.0,0.0,,,
44,0,,html-keyboard-response,44,142902,0.0-4.4-0.4,twki4fnf14m,2022-09-16 18:29:27.059,5f4f990e0e7da9068d0a9802,0,86,59,74,41,40,female,,,"<img src=""static/images/cards/stack_of_red_bolts.svg"" width=""175px"" height=""250px""></img>",,,,,,,,,,,,,,,,,,,,,,,,,,,,
45,0,,html-keyboard-response,45,144578,0.0-4.4-1.4,twki4fnf14m,2022-09-16 18:29:27.059,5f4f990e0e7da9068d0a9802,0,86,59,74,41,40,female,1174.0,,"
  <table>
  <tr height=300>
    <td width=300 height=300><img src=""static/images/cards/back_of_red_bolts.svg"" width=""175px"" height=""250px""></img></td>
    <td width=300 height=300><img src=""static/images/cards/back_of_red_bolts.svg"" width=""175px"" height=""250px""></img></td>
  </tr>
  <tr height=200>
    <td width=300><img src=""static/images/keys/z.svg"" width=""35%"" height=""75%""></img></td>
    <td width=300><img src=""static/images/keys/m.svg"" width=""35%"" height=""75%""></img></td>
  </tr>
</table>
  ",90.0,1.0,,,,,,,,,,,,,,,,,,,,,,,,,,
46,0,,html-keyboard-response,46,146087,0.0-4.4-2.4,twki4fnf14m,2022-09-16 18:29:27.059,5f4f990e0e7da9068d0a9802,0,86,59,74,41,40,female,,,"
  <table>
  <tr height=300>
    <td width=300 height=300><img src=""static/images/cards/2_of_red_bolts.svg"" width=""175px"" height=""250px""></img></td>
    <td width=300 height=300><img src=""static/images/cards/back_of_red_bolts.svg"" width=""175px"" height=""250px""></img></td>
  </tr>
  <tr height=200>
    <td width=300><img src=""static/images/keys/z.svg"" width=""35%"" height=""75%""></img></td>
    <td width=300><img src=""static/images/keys/m.svg"" width=""35%"" height=""75%""></img></td>
  </tr>
</table>
  ",,,,,,,,,,,,,,,,,,,,,,,,,,,,
47,0,,html-keyboard-response,47,147616,0.0-4.4-3.4,twki4fnf14m,2022-09-16 18:29:27.059,5f4f990e0e7da9068d0a9802,0,86,59,74,41,40,female,,,"<p style=""font-size:50px"">You win!
+10 points this round!</p>",,,,,,,,,,,,,,,,,,,,,,,,,,,,
48,0,,html-keyboard-response,48,148134,0.0-4.4-4.4,twki4fnf14m,2022-09-16 18:29:27.059,5f4f990e0e7da9068d0a9802,0,86,59,74,41,40,female,,,,,,1.0,learning,4.0,Xc,,red,,bolts,,,,Xc,red,bolts,,1.0,0.0,NA,left,1174.0,2.0,0.0,1.0,,,
49,0,,html-keyboard-response,49,149646,0.0-4.5-0.5,twki4fnf14m,2022-09-16 18:29:27.059,5f4f990e0e7da9068d0a9802,0,86,59,74,41,40,female,,,"<img src=""static/images/cards/stack_of_black_bolts.svg"" width=""175px"" height=""250px""></img>",,,,,,,,,,,,,,,,,,,,,,,,,,,,
50,0,,html-keyboard-response,50,150637,0.0-4.5-1.5,twki4fnf14m,2022-09-16 18:29:27.059,5f4f990e0e7da9068d0a9802,0,86,59,74,41,40,female,486.7000002861,,"
  <table>
  <tr height=300>
    <td width=300 height=300><img src=""static/images/cards/back_of_black_bolts.svg"" width=""175px"" height=""250px""></img></td>
    <td width=300 height=300><img src=""static/images/cards/back_of_black_bolts.svg"" width=""175px"" height=""250px""></img></td>
  </tr>
  <tr height=200>
    <td width=300></td>
    <td width=300><img src=""static/images/keys/m.svg"" width=""35%"" height=""75%""></img></td>
  </tr>
</table>
  ",77.0,1.0,,,,,,,,,,,,,,,,,,,,,,,,,,
51,0,,html-keyboard-response,51,152153,0.0-4.5-2.5,twki4fnf14m,2022-09-16 18:29:27.059,5f4f990e0e7da9068d0a9802,0,86,59,74,41,40,female,,,"
  <table>
  <tr height=300>
    <td width=300 height=300><img src=""static/images/cards/back_of_black_bolts.svg"" width=""175px"" height=""250px""></img></td>
    <td width=300 height=300><img src=""static/images/cards/10_of_black_bolts.svg"" width=""175px"" height=""250px""></img></td>
  </tr>
  <tr height=200>
    <td width=300></td>
    <td width=300><img src=""static/images/keys/m.svg"" width=""35%"" height=""75%""></img></td>
  </tr>
</table>
  ",,,,,,,,,,,,,,,,,,,,,,,,,,,,
52,0,,html-keyboard-response,52,153660,0.0-4.5-3.5,twki4fnf14m,2022-09-16 18:29:27.059,5f4f990e0e7da9068d0a9802,0,86,59,74,41,40,female,,,"<p style=""font-size:50px"">You win!
+10 points this round!</p>",,,,,,,,,,,,,,,,,,,,,,,,,,,,
53,0,,html-keyboard-response,53,154180,0.0-4.5-4.5,twki4fnf14m,2022-09-16 18:29:27.059,5f4f990e0e7da9068d0a9802,0,86,59,74,41,40,female,,,,,,1.0,learning,5.0,Xnc,,black,,bolts,,,,Xnc,black,bolts,,0.0,0.0,0,right,486.7000002861,10.0,1.0,1.0,,,
54,0,,html-keyboard-response,54,155694,0.0-4.6-0.6,twki4fnf14m,2022-09-16 18:29:27.059,5f4f990e0e7da9068d0a9802,0,86,59,74,41,40,female,,,"<img src=""static/images/cards/stack_of_red_stars.svg"" width=""175px"" height=""250px""></img>",,,,,,,,,,,,,,,,,,,,,,,,,,,,
55,0,,html-keyboard-response,55,157159,0.0-4.6-1.6,twki4fnf14m,2022-09-16 18:29:27.059,5f4f990e0e7da9068d0a9802,0,86,59,74,41,40,female,961.0999999046,,"
  <table>
  <tr height=300>
    <td width=300 height=300><img src=""static/images/cards/back_of_red_stars.svg"" width=""175px"" height=""250px""></img></td>
    <td width=300 height=300><img src=""static/images/cards/back_of_red_stars.svg"" width=""175px"" height=""250px""></img></td>
  </tr>
  <tr height=200>
    <td width=300><img src=""static/images/keys/z.svg"" width=""35%"" height=""75%""></img></td>
    <td width=300><img src=""static/images/keys/m.svg"" width=""35%"" height=""75%""></img></td>
  </tr>
</table>
  ",90.0,1.0,,,,,,,,,,,,,,,,,,,,,,,,,,
56,0,,html-keyboard-response,56,158674,0.0-4.6-2.6,twki4fnf14m,2022-09-16 18:29:27.059,5f4f990e0e7da9068d0a9802,0,86,59,74,41,40,female,,,"
  <table>
  <tr height=300>
    <td width=300 height=300><img src=""static/images/cards/7_of_red_stars.svg"" width=""175px"" height=""250px""></img></td>
    <td width=300 height=300><img src=""static/images/cards/back_of_red_stars.svg"" width=""175px"" height=""250px""></img></td>
  </tr>
  <tr height=200>
    <td width=300><img src=""static/images/keys/z.svg"" width=""35%"" height=""75%""></img></td>
    <td width=300><img src=""static/images/keys/m.svg"" width=""35%"" height=""75%""></img></td>
  </tr>
</table>
  ",,,,,,,,,,,,,,,,,,,,,,,,,,,,
57,0,,html-keyboard-response,57,160189,0.0-4.6-3.6,twki4fnf14m,2022-09-16 18:29:27.059,5f4f990e0e7da9068d0a9802,0,86,59,74,41,40,female,,,"<p style=""font-size:50px"">You win!
+10 points this round!</p>",,,,,,,,,,,,,,,,,,,,,,,,,,,,
58,0,,html-keyboard-response,58,160709,0.0-4.6-4.6,twki4fnf14m,2022-09-16 18:29:27.059,5f4f990e0e7da9068d0a9802,0,86,59,74,41,40,female,,,,,,1.0,learning,6.0,A,,red,,stars,,,,A,red,stars,,1.0,1.0,NA,left,961.0999999046,7.0,1.0,1.0,,,
59,0,,html-keyboard-response,59,162222,0.0-4.7-0.7,twki4fnf14m,2022-09-16 18:29:27.059,5f4f990e0e7da9068d0a9802,0,86,59,74,41,40,female,,,"<img src=""static/images/cards/stack_of_black_stars.svg"" width=""175px"" height=""250px""></img>",,,,,,,,,,,,,,,,,,,,,,,,,,,,
60,0,,html-keyboard-response,60,163446,0.0-4.7-1.7,twki4fnf14m,2022-09-16 18:29:27.059,5f4f990e0e7da9068d0a9802,0,86,59,74,41,40,female,720.4000000954,,"
  <table>
  <tr height=300>
    <td width=300 height=300><img src=""static/images/cards/back_of_black_stars.svg"" width=""175px"" height=""250px""></img></td>
    <td width=300 height=300><img src=""static/images/cards/back_of_black_stars.svg"" width=""175px"" height=""250px""></img></td>
  </tr>
  <tr height=200>
    <td width=300><img src=""static/images/keys/z.svg"" width=""35%"" height=""75%""></img></td>
    <td width=300></td>
  </tr>
</table>
  ",90.0,1.0,,,,,,,,,,,,,,,,,,,,,,,,,,
61,0,,html-keyboard-response,61,164949,0.0-4.7-2.7,twki4fnf14m,2022-09-16 18:29:27.059,5f4f990e0e7da9068d0a9802,0,86,59,74,41,40,female,,,"
  <table>
  <tr height=300>
    <td width=300 height=300><img src=""static/images/cards/8_of_black_stars.svg"" width=""175px"" height=""250px""></img></td>
    <td width=300 height=300><img src=""static/images/cards/back_of_black_stars.svg"" width=""175px"" height=""250px""></img></td>
  </tr>
  <tr height=200>
    <td width=300><img src=""static/images/keys/z.svg"" width=""35%"" height=""75%""></img></td>
    <td width=300></td>
  </tr>
</table>
  ",,,,,,,,,,,,,,,,,,,,,,,,,,,,
62,0,,html-keyboard-response,62,166469,0.0-4.7-3.7,twki4fnf14m,2022-09-16 18:29:27.059,5f4f990e0e7da9068d0a9802,0,86,59,74,41,40,female,,,"<p style=""font-size:50px"">You win!
+10 points this round!</p>",,,,,,,,,,,,,,,,,,,,,,,,,,,,
63,0,,html-keyboard-response,63,166979,0.0-4.7-4.7,twki4fnf14m,2022-09-16 18:29:27.059,5f4f990e0e7da9068d0a9802,0,86,59,74,41,40,female,,,,,,1.0,learning,7.0,B,,black,,stars,,,,B,black,stars,,0.0,1.0,1,left,720.4000000954,8.0,1.0,1.0,,,
64,0,,html-keyboard-response,64,168484,0.0-4.8-0.8,twki4fnf14m,2022-09-16 18:29:27.059,5f4f990e0e7da9068d0a9802,0,86,59,74,41,40,female,,,"<img src=""static/images/cards/stack_of_red_moons.svg"" width=""175px"" height=""250px""></img>",,,,,,,,,,,,,,,,,,,,,,,,,,,,
65,0,,html-keyboard-response,65,169702,0.0-4.8-1.8,twki4fnf14m,2022-09-16 18:29:27.059,5f4f990e0e7da9068d0a9802,0,86,59,74,41,40,female,710.0999999046,,"
  <table>
  <tr height=300>
    <td width=300 height=300><img src=""static/images/cards/back_of_red_moons.svg"" width=""175px"" height=""250px""></img></td>
    <td width=300 height=300><img src=""static/images/cards/back_of_red_moons.svg"" width=""175px"" height=""250px""></img></td>
  </tr>
  <tr height=200>
    <td width=300><img src=""static/images/keys/z.svg"" width=""35%"" height=""75%""></img></td>
    <td width=300><img src=""static/images/keys/m.svg"" width=""35%"" height=""75%""></img></td>
  </tr>
</table>
  ",77.0,1.0,,,,,,,,,,,,,,,,,,,,,,,,,,
66,0,,html-keyboard-response,66,171213,0.0-4.8-2.8,twki4fnf14m,2022-09-16 18:29:27.059,5f4f990e0e7da9068d0a9802,0,86,59,74,41,40,female,,,"
  <table>
  <tr height=300>
    <td width=300 height=300><img src=""static/images/cards/back_of_red_moons.svg"" width=""175px"" height=""250px""></img></td>
    <td width=300 height=300><img src=""static/images/cards/9_of_red_moons.svg"" width=""175px"" height=""250px""></img></td>
  </tr>
  <tr height=200>
    <td width=300><img src=""static/images/keys/z.svg"" width=""35%"" height=""75%""></img></td>
    <td width=300><img src=""static/images/keys/m.svg"" width=""35%"" height=""75%""></img></td>
  </tr>
</table>
  ",,,,,,,,,,,,,,,,,,,,,,,,,,,,
67,0,,html-keyboard-response,67,172721,0.0-4.8-3.8,twki4fnf14m,2022-09-16 18:29:27.059,5f4f990e0e7da9068d0a9802,0,86,59,74,41,40,female,,,"<p style=""font-size:50px"">You win!
+10 points this round!</p>",,,,,,,,,,,,,,,,,,,,,,,,,,,,
68,0,,html-keyboard-response,68,173240,0.0-4.8-4.8,twki4fnf14m,2022-09-16 18:29:27.059,5f4f990e0e7da9068d0a9802,0,86,59,74,41,40,female,,,,,,1.0,learning,8.0,C,,red,,moons,,,,C,red,moons,,1.0,0.0,NA,right,710.0999999046,9.0,1.0,1.0,,,
69,0,,html-keyboard-response,69,174754,0.0-4.9-0.9,twki4fnf14m,2022-09-16 18:29:27.059,5f4f990e0e7da9068d0a9802,0,86,59,74,41,40,female,,,"<img src=""static/images/cards/stack_of_black_moons.svg"" width=""175px"" height=""250px""></img>",,,,,,,,,,,,,,,,,,,,,,,,,,,,
70,0,,html-keyboard-response,70,175816,0.0-4.9-1.9,twki4fnf14m,2022-09-16 18:29:27.059,5f4f990e0e7da9068d0a9802,0,86,59,74,41,40,female,545.6999998093,,"
  <table>
  <tr height=300>
    <td width=300 height=300><img src=""static/images/cards/back_of_black_moons.svg"" width=""175px"" height=""250px""></img></td>
    <td width=300 height=300><img src=""static/images/cards/back_of_black_moons.svg"" width=""175px"" height=""250px""></img></td>
  </tr>
  <tr height=200>
    <td width=300><img src=""static/images/keys/z.svg"" width=""35%"" height=""75%""></img></td>
    <td width=300></td>
  </tr>
</table>
  ",90.0,1.0,,,,,,,,,,,,,,,,,,,,,,,,,,
71,0,,html-keyboard-response,71,177333,0.0-4.9-2.9,twki4fnf14m,2022-09-16 18:29:27.059,5f4f990e0e7da9068d0a9802,0,86,59,74,41,40,female,,,"
  <table>
  <tr height=300>
    <td width=300 height=300><img src=""static/images/cards/10_of_black_moons.svg"" width=""175px"" height=""250px""></img></td>
    <td width=300 height=300><img src=""static/images/cards/back_of_black_moons.svg"" width=""175px"" height=""250px""></img></td>
  </tr>
  <tr height=200>
    <td width=300><img src=""static/images/keys/z.svg"" width=""35%"" height=""75%""></img></td>
    <td width=300></td>
  </tr>
</table>
  ",,,,,,,,,,,,,,,,,,,,,,,,,,,,
72,0,,html-keyboard-response,72,178840,0.0-4.9-3.9,twki4fnf14m,2022-09-16 18:29:27.059,5f4f990e0e7da9068d0a9802,0,86,59,74,41,40,female,,,"<p style=""font-size:50px"">You Lose!
No points this round.</p>",,,,,,,,,,,,,,,,,,,,,,,,,,,,
73,0,,html-keyboard-response,73,179361,0.0-4.9-4.9,twki4fnf14m,2022-09-16 18:29:27.059,5f4f990e0e7da9068d0a9802,0,86,59,74,41,40,female,,,,,,1.0,learning,9.0,D,,black,,moons,,,,D,black,moons,,0.0,0.0,1,left,545.6999998093,10.0,1.0,0.0,,,
74,0,,html-keyboard-response,74,180875,0.0-4.10-0.10,twki4fnf14m,2022-09-16 18:29:27.059,5f4f990e0e7da9068d0a9802,0,86,59,74,41,40,female,,,"<img src=""static/images/cards/stack_of_red_bolts.svg"" width=""175px"" height=""250px""></img>",,,,,,,,,,,,,,,,,,,,,,,,,,,,
75,0,,html-keyboard-response,75,181912,0.0-4.10-1.10,twki4fnf14m,2022-09-16 18:29:27.059,5f4f990e0e7da9068d0a9802,0,86,59,74,41,40,female,533.2999997139,,"
  <table>
  <tr height=300>
    <td width=300 height=300><img src=""static/images/cards/back_of_red_bolts.svg"" width=""175px"" height=""250px""></img></td>
    <td width=300 height=300><img src=""static/images/cards/back_of_red_bolts.svg"" width=""175px"" height=""250px""></img></td>
  </tr>
  <tr height=200>
    <td width=300><img src=""static/images/keys/z.svg"" width=""35%"" height=""75%""></img></td>
    <td width=300><img src=""static/images/keys/m.svg"" width=""35%"" height=""75%""></img></td>
  </tr>
</table>
  ",77.0,1.0,,,,,,,,,,,,,,,,,,,,,,,,,,
76,0,,html-keyboard-response,76,183422,0.0-4.10-2.10,twki4fnf14m,2022-09-16 18:29:27.059,5f4f990e0e7da9068d0a9802,0,86,59,74,41,40,female,,,"
  <table>
  <tr height=300>
    <td width=300 height=300><img src=""static/images/cards/back_of_red_bolts.svg"" width=""175px"" height=""250px""></img></td>
    <td width=300 height=300><img src=""static/images/cards/7_of_red_bolts.svg"" width=""175px"" height=""250px""></img></td>
  </tr>
  <tr height=200>
    <td width=300><img src=""static/images/keys/z.svg"" width=""35%"" height=""75%""></img></td>
    <td width=300><img src=""static/images/keys/m.svg"" width=""35%"" height=""75%""></img></td>
  </tr>
</table>
  ",,,,,,,,,,,,,,,,,,,,,,,,,,,,
77,0,,html-keyboard-response,77,184949,0.0-4.10-3.10,twki4fnf14m,2022-09-16 18:29:27.059,5f4f990e0e7da9068d0a9802,0,86,59,74,41,40,female,,,"<p style=""font-size:50px"">You win!
+10 points this round!</p>",,,,,,,,,,,,,,,,,,,,,,,,,,,,
78,0,,html-keyboard-response,78,185469,0.0-4.10-4.10,twki4fnf14m,2022-09-16 18:29:27.059,5f4f990e0e7da9068d0a9802,0,86,59,74,41,40,female,,,,,,1.0,learning,10.0,Xc,,red,,bolts,,,,Xc,red,bolts,,1.0,0.0,NA,right,533.2999997139,7.0,1.0,1.0,,,
79,0,,html-keyboard-response,79,186980,0.0-4.11-0.11,twki4fnf14m,2022-09-16 18:29:27.059,5f4f990e0e7da9068d0a9802,0,86,59,74,41,40,female,,,"<img src=""static/images/cards/stack_of_black_bolts.svg"" width=""175px"" height=""250px""></img>",,,,,,,,,,,,,,,,,,,,,,,,,,,,
80,0,,html-keyboard-response,80,188026,0.0-4.11-1.11,twki4fnf14m,2022-09-16 18:29:27.059,5f4f990e0e7da9068d0a9802,0,86,59,74,41,40,female,529.0,,"
  <table>
  <tr height=300>
    <td width=300 height=300><img src=""static/images/cards/back_of_black_bolts.svg"" width=""175px"" height=""250px""></img></td>
    <td width=300 height=300><img src=""static/images/cards/back_of_black_bolts.svg"" width=""175px"" height=""250px""></img></td>
  </tr>
  <tr height=200>
    <td width=300><img src=""static/images/keys/z.svg"" width=""35%"" height=""75%""></img></td>
    <td width=300></td>
  </tr>
</table>
  ",90.0,1.0,,,,,,,,,,,,,,,,,,,,,,,,,,
81,0,,html-keyboard-response,81,189528,0.0-4.11-2.11,twki4fnf14m,2022-09-16 18:29:27.059,5f4f990e0e7da9068d0a9802,0,86,59,74,41,40,female,,,"
  <table>
  <tr height=300>
    <td width=300 height=300><img src=""static/images/cards/2_of_black_bolts.svg"" width=""175px"" height=""250px""></img></td>
    <td width=300 height=300><img src=""static/images/cards/back_of_black_bolts.svg"" width=""175px"" height=""250px""></img></td>
  </tr>
  <tr height=200>
    <td width=300><img src=""static/images/keys/z.svg"" width=""35%"" height=""75%""></img></td>
    <td width=300></td>
  </tr>
</table>
  ",,,,,,,,,,,,,,,,,,,,,,,,,,,,
82,0,,html-keyboard-response,82,191046,0.0-4.11-3.11,twki4fnf14m,2022-09-16 18:29:27.059,5f4f990e0e7da9068d0a9802,0,86,59,74,41,40,female,,,"<p style=""font-size:50px"">You win!
+10 points this round!</p>",,,,,,,,,,,,,,,,,,,,,,,,,,,,
83,0,,html-keyboard-response,83,191563,0.0-4.11-4.11,twki4fnf14m,2022-09-16 18:29:27.059,5f4f990e0e7da9068d0a9802,0,86,59,74,41,40,female,,,,,,1.0,learning,11.0,Xnc,,black,,bolts,,,,Xnc,black,bolts,,0.0,0.0,1,left,529.0,2.0,0.0,1.0,,,
84,0,,html-keyboard-response,84,193073,0.0-4.12-0.12,twki4fnf14m,2022-09-16 18:29:27.059,5f4f990e0e7da9068d0a9802,0,86,59,74,41,40,female,,,"<img src=""static/images/cards/stack_of_red_stars.svg"" width=""175px"" height=""250px""></img>",,,,,,,,,,,,,,,,,,,,,,,,,,,,
85,0,,html-keyboard-response,85,193978,0.0-4.12-1.12,twki4fnf14m,2022-09-16 18:29:27.059,5f4f990e0e7da9068d0a9802,0,86,59,74,41,40,female,402.8000001907,,"
  <table>
  <tr height=300>
    <td width=300 height=300><img src=""static/images/cards/back_of_red_stars.svg"" width=""175px"" height=""250px""></img></td>
    <td width=300 height=300><img src=""static/images/cards/back_of_red_stars.svg"" width=""175px"" height=""250px""></img></td>
  </tr>
  <tr height=200>
    <td width=300><img src=""static/images/keys/z.svg"" width=""35%"" height=""75%""></img></td>
    <td width=300><img src=""static/images/keys/m.svg"" width=""35%"" height=""75%""></img></td>
  </tr>
</table>
  ",90.0,1.0,,,,,,,,,,,,,,,,,,,,,,,,,,
86,0,,html-keyboard-response,86,195490,0.0-4.12-2.12,twki4fnf14m,2022-09-16 18:29:27.059,5f4f990e0e7da9068d0a9802,0,86,59,74,41,40,female,,,"
  <table>
  <tr height=300>
    <td width=300 height=300><img src=""static/images/cards/7_of_red_stars.svg"" width=""175px"" height=""250px""></img></td>
    <td width=300 height=300><img src=""static/images/cards/back_of_red_stars.svg"" width=""175px"" height=""250px""></img></td>
  </tr>
  <tr height=200>
    <td width=300><img src=""static/images/keys/z.svg"" width=""35%"" height=""75%""></img></td>
    <td width=300><img src=""static/images/keys/m.svg"" width=""35%"" height=""75%""></img></td>
  </tr>
</table>
  ",,,,,,,,,,,,,,,,,,,,,,,,,,,,
87,0,,html-keyboard-response,87,197007,0.0-4.12-3.12,twki4fnf14m,2022-09-16 18:29:27.059,5f4f990e0e7da9068d0a9802,0,86,59,74,41,40,female,,,"<p style=""font-size:50px"">You win!
+10 points this round!</p>",,,,,,,,,,,,,,,,,,,,,,,,,,,,
88,0,,html-keyboard-response,88,197514,0.0-4.12-4.12,twki4fnf14m,2022-09-16 18:29:27.059,5f4f990e0e7da9068d0a9802,0,86,59,74,41,40,female,,,,,,1.0,learning,12.0,A,,red,,stars,,,,A,red,stars,,1.0,1.0,NA,left,402.8000001907,7.0,1.0,1.0,,,
89,0,,html-keyboard-response,89,199017,0.0-4.13-0.13,twki4fnf14m,2022-09-16 18:29:27.059,5f4f990e0e7da9068d0a9802,0,86,59,74,41,40,female,,,"<img src=""static/images/cards/stack_of_black_stars.svg"" width=""175px"" height=""250px""></img>",,,,,,,,,,,,,,,,,,,,,,,,,,,,
90,0,,html-keyboard-response,90,202532,0.0-4.13-1.13,twki4fnf14m,2022-09-16 18:29:27.059,5f4f990e0e7da9068d0a9802,0,86,59,74,41,40,female,,,"
  <table>
  <tr height=300>
    <td width=300 height=300><img src=""static/images/cards/back_of_black_stars.svg"" width=""175px"" height=""250px""></img></td>
    <td width=300 height=300><img src=""static/images/cards/back_of_black_stars.svg"" width=""175px"" height=""250px""></img></td>
  </tr>
  <tr height=200>
    <td width=300><img src=""static/images/keys/z.svg"" width=""35%"" height=""75%""></img></td>
    <td width=300></td>
  </tr>
</table>
  ",,,,,,,,,,,,,,,,,,,,,,,,,,,,
91,0,,html-keyboard-response,91,202537,0.0-4.13-2.13,twki4fnf14m,2022-09-16 18:29:27.059,5f4f990e0e7da9068d0a9802,0,86,59,74,41,40,female,,,,,,,,,,,,,,,,,,,,,,,,,,,,,,,
92,0,,html-keyboard-response,92,204053,0.0-4.13-3.13,twki4fnf14m,2022-09-16 18:29:27.059,5f4f990e0e7da9068d0a9802,0,86,59,74,41,40,female,,,"<p style=""font-size:50px"">Too slow!</p>",,,,,,,,,,,,,,,,,,,,,,,,,,,,
93,0,,html-keyboard-response,93,204559,0.0-4.13-4.13,twki4fnf14m,2022-09-16 18:29:27.059,5f4f990e0e7da9068d0a9802,0,86,59,74,41,40,female,,,,,,1.0,learning,13.0,B,,black,,stars,,,,B,black,stars,,0.0,1.0,1,,,7.0,1.0,1.0,,,
94,0,,html-keyboard-response,94,206065,0.0-4.14-0.14,twki4fnf14m,2022-09-16 18:29:27.059,5f4f990e0e7da9068d0a9802,0,86,59,74,41,40,female,,,"<img src=""static/images/cards/stack_of_red_moons.svg"" width=""175px"" height=""250px""></img>",,,,,,,,,,,,,,,,,,,,,,,,,,,,
95,0,,html-keyboard-response,95,207039,0.0-4.14-1.14,twki4fnf14m,2022-09-16 18:29:27.059,5f4f990e0e7da9068d0a9802,0,86,59,74,41,40,female,457.9000000954,,"
  <table>
  <tr height=300>
    <td width=300 height=300><img src=""static/images/cards/back_of_red_moons.svg"" width=""175px"" height=""250px""></img></td>
    <td width=300 height=300><img src=""static/images/cards/back_of_red_moons.svg"" width=""175px"" height=""250px""></img></td>
  </tr>
  <tr height=200>
    <td width=300><img src=""static/images/keys/z.svg"" width=""35%"" height=""75%""></img></td>
    <td width=300><img src=""static/images/keys/m.svg"" width=""35%"" height=""75%""></img></td>
  </tr>
</table>
  ",90.0,1.0,,,,,,,,,,,,,,,,,,,,,,,,,,
96,0,,html-keyboard-response,96,208552,0.0-4.14-2.14,twki4fnf14m,2022-09-16 18:29:27.059,5f4f990e0e7da9068d0a9802,0,86,59,74,41,40,female,,,"
  <table>
  <tr height=300>
    <td width=300 height=300><img src=""static/images/cards/4_of_red_moons.svg"" width=""175px"" height=""250px""></img></td>
    <td width=300 height=300><img src=""static/images/cards/back_of_red_moons.svg"" width=""175px"" height=""250px""></img></td>
  </tr>
  <tr height=200>
    <td width=300><img src=""static/images/keys/z.svg"" width=""35%"" height=""75%""></img></td>
    <td width=300><img src=""static/images/keys/m.svg"" width=""35%"" height=""75%""></img></td>
  </tr>
</table>
  ",,,,,,,,,,,,,,,,,,,,,,,,,,,,
97,0,,html-keyboard-response,97,210075,0.0-4.14-3.14,twki4fnf14m,2022-09-16 18:29:27.059,5f4f990e0e7da9068d0a9802,0,86,59,74,41,40,female,,,"<p style=""font-size:50px"">You win!
+10 points this round!</p>",,,,,,,,,,,,,,,,,,,,,,,,,,,,
98,0,,html-keyboard-response,98,210595,0.0-4.14-4.14,twki4fnf14m,2022-09-16 18:29:27.059,5f4f990e0e7da9068d0a9802,0,86,59,74,41,40,female,,,,,,1.0,learning,14.0,C,,red,,moons,,,,C,red,moons,,1.0,0.0,NA,left,457.9000000954,4.0,0.0,1.0,,,
99,0,,html-keyboard-response,99,212110,0.0-4.15-0.15,twki4fnf14m,2022-09-16 18:29:27.059,5f4f990e0e7da9068d0a9802,0,86,59,74,41,40,female,,,"<img src=""static/images/cards/stack_of_black_moons.svg"" width=""175px"" height=""250px""></img>",,,,,,,,,,,,,,,,,,,,,,,,,,,,
100,0,,html-keyboard-response,100,212996,0.0-4.15-1.15,twki4fnf14m,2022-09-16 18:29:27.059,5f4f990e0e7da9068d0a9802,0,86,59,74,41,40,female,368.5,,"
  <table>
  <tr height=300>
    <td width=300 height=300><img src=""static/images/cards/back_of_black_moons.svg"" width=""175px"" height=""250px""></img></td>
    <td width=300 height=300><img src=""static/images/cards/back_of_black_moons.svg"" width=""175px"" height=""250px""></img></td>
  </tr>
  <tr height=200>
    <td width=300></td>
    <td width=300><img src=""static/images/keys/m.svg"" width=""35%"" height=""75%""></img></td>
  </tr>
</table>
  ",77.0,1.0,,,,,,,,,,,,,,,,,,,,,,,,,,
101,0,,html-keyboard-response,101,214511,0.0-4.15-2.15,twki4fnf14m,2022-09-16 18:29:27.059,5f4f990e0e7da9068d0a9802,0,86,59,74,41,40,female,,,"
  <table>
  <tr height=300>
    <td width=300 height=300><img src=""static/images/cards/back_of_black_moons.svg"" width=""175px"" height=""250px""></img></td>
    <td width=300 height=300><img src=""static/images/cards/3_of_black_moons.svg"" width=""175px"" height=""250px""></img></td>
  </tr>
  <tr height=200>
    <td width=300></td>
    <td width=300><img src=""static/images/keys/m.svg"" width=""35%"" height=""75%""></img></td>
  </tr>
</table>
  ",,,,,,,,,,,,,,,,,,,,,,,,,,,,
102,0,,html-keyboard-response,102,216029,0.0-4.15-3.15,twki4fnf14m,2022-09-16 18:29:27.059,5f4f990e0e7da9068d0a9802,0,86,59,74,41,40,female,,,"<p style=""font-size:50px"">You Lose!
No points this round.</p>",,,,,,,,,,,,,,,,,,,,,,,,,,,,
103,0,,html-keyboard-response,103,216541,0.0-4.15-4.15,twki4fnf14m,2022-09-16 18:29:27.059,5f4f990e0e7da9068d0a9802,0,86,59,74,41,40,female,,,,,,1.0,learning,15.0,D,,black,,moons,,,,D,black,moons,,0.0,0.0,0,right,368.5,3.0,0.0,0.0,,,
104,0,,html-keyboard-response,104,218053,0.0-4.16-0.16,twki4fnf14m,2022-09-16 18:29:27.059,5f4f990e0e7da9068d0a9802,0,86,59,74,41,40,female,,,"<img src=""static/images/cards/stack_of_red_bolts.svg"" width=""175px"" height=""250px""></img>",,,,,,,,,,,,,,,,,,,,,,,,,,,,
105,0,,html-keyboard-response,105,218987,0.0-4.16-1.16,twki4fnf14m,2022-09-16 18:29:27.059,5f4f990e0e7da9068d0a9802,0,86,59,74,41,40,female,418.1000003815,,"
  <table>
  <tr height=300>
    <td width=300 height=300><img src=""static/images/cards/back_of_red_bolts.svg"" width=""175px"" height=""250px""></img></td>
    <td width=300 height=300><img src=""static/images/cards/back_of_red_bolts.svg"" width=""175px"" height=""250px""></img></td>
  </tr>
  <tr height=200>
    <td width=300><img src=""static/images/keys/z.svg"" width=""35%"" height=""75%""></img></td>
    <td width=300><img src=""static/images/keys/m.svg"" width=""35%"" height=""75%""></img></td>
  </tr>
</table>
  ",90.0,1.0,,,,,,,,,,,,,,,,,,,,,,,,,,
106,0,,html-keyboard-response,106,220502,0.0-4.16-2.16,twki4fnf14m,2022-09-16 18:29:27.059,5f4f990e0e7da9068d0a9802,0,86,59,74,41,40,female,,,"
  <table>
  <tr height=300>
    <td width=300 height=300><img src=""static/images/cards/4_of_red_bolts.svg"" width=""175px"" height=""250px""></img></td>
    <td width=300 height=300><img src=""static/images/cards/back_of_red_bolts.svg"" width=""175px"" height=""250px""></img></td>
  </tr>
  <tr height=200>
    <td width=300><img src=""static/images/keys/z.svg"" width=""35%"" height=""75%""></img></td>
    <td width=300><img src=""static/images/keys/m.svg"" width=""35%"" height=""75%""></img></td>
  </tr>
</table>
  ",,,,,,,,,,,,,,,,,,,,,,,,,,,,
107,0,,html-keyboard-response,107,222033,0.0-4.16-3.16,twki4fnf14m,2022-09-16 18:29:27.059,5f4f990e0e7da9068d0a9802,0,86,59,74,41,40,female,,,"<p style=""font-size:50px"">You win!
+10 points this round!</p>",,,,,,,,,,,,,,,,,,,,,,,,,,,,
108,0,,html-keyboard-response,108,222551,0.0-4.16-4.16,twki4fnf14m,2022-09-16 18:29:27.059,5f4f990e0e7da9068d0a9802,0,86,59,74,41,40,female,,,,,,1.0,learning,16.0,Xc,,red,,bolts,,,,Xc,red,bolts,,1.0,0.0,NA,left,418.1000003815,4.0,0.0,1.0,,,
109,0,,html-keyboard-response,109,224061,0.0-4.17-0.17,twki4fnf14m,2022-09-16 18:29:27.059,5f4f990e0e7da9068d0a9802,0,86,59,74,41,40,female,,,"<img src=""static/images/cards/stack_of_black_bolts.svg"" width=""175px"" height=""250px""></img>",,,,,,,,,,,,,,,,,,,,,,,,,,,,
110,0,,html-keyboard-response,110,224985,0.0-4.17-1.17,twki4fnf14m,2022-09-16 18:29:27.059,5f4f990e0e7da9068d0a9802,0,86,59,74,41,40,female,420.7000002861,,"
  <table>
  <tr height=300>
    <td width=300 height=300><img src=""static/images/cards/back_of_black_bolts.svg"" width=""175px"" height=""250px""></img></td>
    <td width=300 height=300><img src=""static/images/cards/back_of_black_bolts.svg"" width=""175px"" height=""250px""></img></td>
  </tr>
  <tr height=200>
    <td width=300></td>
    <td width=300><img src=""static/images/keys/m.svg"" width=""35%"" height=""75%""></img></td>
  </tr>
</table>
  ",77.0,1.0,,,,,,,,,,,,,,,,,,,,,,,,,,
111,0,,html-keyboard-response,111,226495,0.0-4.17-2.17,twki4fnf14m,2022-09-16 18:29:27.059,5f4f990e0e7da9068d0a9802,0,86,59,74,41,40,female,,,"
  <table>
  <tr height=300>
    <td width=300 height=300><img src=""static/images/cards/back_of_black_bolts.svg"" width=""175px"" height=""250px""></img></td>
    <td width=300 height=300><img src=""static/images/cards/4_of_black_bolts.svg"" width=""175px"" height=""250px""></img></td>
  </tr>
  <tr height=200>
    <td width=300></td>
    <td width=300><img src=""static/images/keys/m.svg"" width=""35%"" height=""75%""></img></td>
  </tr>
</table>
  ",,,,,,,,,,,,,,,,,,,,,,,,,,,,
112,0,,html-keyboard-response,112,228021,0.0-4.17-3.17,twki4fnf14m,2022-09-16 18:29:27.059,5f4f990e0e7da9068d0a9802,0,86,59,74,41,40,female,,,"<p style=""font-size:50px"">You win!
+10 points this round!</p>",,,,,,,,,,,,,,,,,,,,,,,,,,,,
113,0,,html-keyboard-response,113,228538,0.0-4.17-4.17,twki4fnf14m,2022-09-16 18:29:27.059,5f4f990e0e7da9068d0a9802,0,86,59,74,41,40,female,,,,,,1.0,learning,17.0,Xnc,,black,,bolts,,,,Xnc,black,bolts,,0.0,0.0,0,right,420.7000002861,4.0,0.0,1.0,,,
114,0,,html-keyboard-response,114,230047,0.0-4.18-0.18,twki4fnf14m,2022-09-16 18:29:27.059,5f4f990e0e7da9068d0a9802,0,86,59,74,41,40,female,,,"<img src=""static/images/cards/stack_of_red_stars.svg"" width=""175px"" height=""250px""></img>",,,,,,,,,,,,,,,,,,,,,,,,,,,,
115,0,,html-keyboard-response,115,230909,0.0-4.18-1.18,twki4fnf14m,2022-09-16 18:29:27.059,5f4f990e0e7da9068d0a9802,0,86,59,74,41,40,female,347.2000002861,,"
  <table>
  <tr height=300>
    <td width=300 height=300><img src=""static/images/cards/back_of_red_stars.svg"" width=""175px"" height=""250px""></img></td>
    <td width=300 height=300><img src=""static/images/cards/back_of_red_stars.svg"" width=""175px"" height=""250px""></img></td>
  </tr>
  <tr height=200>
    <td width=300><img src=""static/images/keys/z.svg"" width=""35%"" height=""75%""></img></td>
    <td width=300><img src=""static/images/keys/m.svg"" width=""35%"" height=""75%""></img></td>
  </tr>
</table>
  ",90.0,1.0,,,,,,,,,,,,,,,,,,,,,,,,,,
116,0,,html-keyboard-response,116,232417,0.0-4.18-2.18,twki4fnf14m,2022-09-16 18:29:27.059,5f4f990e0e7da9068d0a9802,0,86,59,74,41,40,female,,,"
  <table>
  <tr height=300>
    <td width=300 height=300><img src=""static/images/cards/1_of_red_stars.svg"" width=""175px"" height=""250px""></img></td>
    <td width=300 height=300><img src=""static/images/cards/back_of_red_stars.svg"" width=""175px"" height=""250px""></img></td>
  </tr>
  <tr height=200>
    <td width=300><img src=""static/images/keys/z.svg"" width=""35%"" height=""75%""></img></td>
    <td width=300><img src=""static/images/keys/m.svg"" width=""35%"" height=""75%""></img></td>
  </tr>
</table>
  ",,,,,,,,,,,,,,,,,,,,,,,,,,,,
117,0,,html-keyboard-response,117,233930,0.0-4.18-3.18,twki4fnf14m,2022-09-16 18:29:27.059,5f4f990e0e7da9068d0a9802,0,86,59,74,41,40,female,,,"<p style=""font-size:50px"">You Lose!
No points this round.</p>",,,,,,,,,,,,,,,,,,,,,,,,,,,,
118,0,,html-keyboard-response,118,234436,0.0-4.18-4.18,twki4fnf14m,2022-09-16 18:29:27.059,5f4f990e0e7da9068d0a9802,0,86,59,74,41,40,female,,,,,,1.0,learning,18.0,A,,red,,stars,,,,A,red,stars,,1.0,1.0,NA,left,347.2000002861,1.0,0.0,0.0,,,
119,0,,html-keyboard-response,119,235941,0.0-4.19-0.19,twki4fnf14m,2022-09-16 18:29:27.059,5f4f990e0e7da9068d0a9802,0,86,59,74,41,40,female,,,"<img src=""static/images/cards/stack_of_black_stars.svg"" width=""175px"" height=""250px""></img>",,,,,,,,,,,,,,,,,,,,,,,,,,,,
120,0,,html-keyboard-response,120,237017,0.0-4.19-1.19,twki4fnf14m,2022-09-16 18:29:27.059,5f4f990e0e7da9068d0a9802,0,86,59,74,41,40,female,573.2000002861,,"
  <table>
  <tr height=300>
    <td width=300 height=300><img src=""static/images/cards/back_of_black_stars.svg"" width=""175px"" height=""250px""></img></td>
    <td width=300 height=300><img src=""static/images/cards/back_of_black_stars.svg"" width=""175px"" height=""250px""></img></td>
  </tr>
  <tr height=200>
    <td width=300><img src=""static/images/keys/z.svg"" width=""35%"" height=""75%""></img></td>
    <td width=300></td>
  </tr>
</table>
  ",90.0,1.0,,,,,,,,,,,,,,,,,,,,,,,,,,
121,0,,html-keyboard-response,121,238526,0.0-4.19-2.19,twki4fnf14m,2022-09-16 18:29:27.059,5f4f990e0e7da9068d0a9802,0,86,59,74,41,40,female,,,"
  <table>
  <tr height=300>
    <td width=300 height=300><img src=""static/images/cards/1_of_black_stars.svg"" width=""175px"" height=""250px""></img></td>
    <td width=300 height=300><img src=""static/images/cards/back_of_black_stars.svg"" width=""175px"" height=""250px""></img></td>
  </tr>
  <tr height=200>
    <td width=300><img src=""static/images/keys/z.svg"" width=""35%"" height=""75%""></img></td>
    <td width=300></td>
  </tr>
</table>
  ",,,,,,,,,,,,,,,,,,,,,,,,,,,,
122,0,,html-keyboard-response,122,240043,0.0-4.19-3.19,twki4fnf14m,2022-09-16 18:29:27.059,5f4f990e0e7da9068d0a9802,0,86,59,74,41,40,female,,,"<p style=""font-size:50px"">You Lose!
No points this round.</p>",,,,,,,,,,,,,,,,,,,,,,,,,,,,
123,0,,html-keyboard-response,123,240565,0.0-4.19-4.19,twki4fnf14m,2022-09-16 18:29:27.059,5f4f990e0e7da9068d0a9802,0,86,59,74,41,40,female,,,,,,1.0,learning,19.0,B,,black,,stars,,,,B,black,stars,,0.0,1.0,1,left,573.2000002861,1.0,0.0,0.0,,,
124,0,,html-keyboard-response,124,242078,0.0-4.20-0.20,twki4fnf14m,2022-09-16 18:29:27.059,5f4f990e0e7da9068d0a9802,0,86,59,74,41,40,female,,,"<img src=""static/images/cards/stack_of_red_moons.svg"" width=""175px"" height=""250px""></img>",,,,,,,,,,,,,,,,,,,,,,,,,,,,
125,0,,html-keyboard-response,125,243047,0.0-4.20-1.20,twki4fnf14m,2022-09-16 18:29:27.059,5f4f990e0e7da9068d0a9802,0,86,59,74,41,40,female,467.0,,"
  <table>
  <tr height=300>
    <td width=300 height=300><img src=""static/images/cards/back_of_red_moons.svg"" width=""175px"" height=""250px""></img></td>
    <td width=300 height=300><img src=""static/images/cards/back_of_red_moons.svg"" width=""175px"" height=""250px""></img></td>
  </tr>
  <tr height=200>
    <td width=300><img src=""static/images/keys/z.svg"" width=""35%"" height=""75%""></img></td>
    <td width=300><img src=""static/images/keys/m.svg"" width=""35%"" height=""75%""></img></td>
  </tr>
</table>
  ",77.0,1.0,,,,,,,,,,,,,,,,,,,,,,,,,,
126,0,,html-keyboard-response,126,244563,0.0-4.20-2.20,twki4fnf14m,2022-09-16 18:29:27.059,5f4f990e0e7da9068d0a9802,0,86,59,74,41,40,female,,,"
  <table>
  <tr height=300>
    <td width=300 height=300><img src=""static/images/cards/back_of_red_moons.svg"" width=""175px"" height=""250px""></img></td>
    <td width=300 height=300><img src=""static/images/cards/8_of_red_moons.svg"" width=""175px"" height=""250px""></img></td>
  </tr>
  <tr height=200>
    <td width=300><img src=""static/images/keys/z.svg"" width=""35%"" height=""75%""></img></td>
    <td width=300><img src=""static/images/keys/m.svg"" width=""35%"" height=""75%""></img></td>
  </tr>
</table>
  ",,,,,,,,,,,,,,,,,,,,,,,,,,,,
127,0,,html-keyboard-response,127,246089,0.0-4.20-3.20,twki4fnf14m,2022-09-16 18:29:27.059,5f4f990e0e7da9068d0a9802,0,86,59,74,41,40,female,,,"<p style=""font-size:50px"">You win!
+10 points this round!</p>",,,,,,,,,,,,,,,,,,,,,,,,,,,,
128,0,,html-keyboard-response,128,246608,0.0-4.20-4.20,twki4fnf14m,2022-09-16 18:29:27.059,5f4f990e0e7da9068d0a9802,0,86,59,74,41,40,female,,,,,,1.0,learning,20.0,C,,red,,moons,,,,C,red,moons,,1.0,0.0,NA,right,467.0,8.0,1.0,1.0,,,
129,0,,html-keyboard-response,129,248122,0.0-4.21-0.21,twki4fnf14m,2022-09-16 18:29:27.059,5f4f990e0e7da9068d0a9802,0,86,59,74,41,40,female,,,"<img src=""static/images/cards/stack_of_black_moons.svg"" width=""175px"" height=""250px""></img>",,,,,,,,,,,,,,,,,,,,,,,,,,,,
130,0,,html-keyboard-response,130,249025,0.0-4.21-1.21,twki4fnf14m,2022-09-16 18:29:27.059,5f4f990e0e7da9068d0a9802,0,86,59,74,41,40,female,401.3000001907,,"
  <table>
  <tr height=300>
    <td width=300 height=300><img src=""static/images/cards/back_of_black_moons.svg"" width=""175px"" height=""250px""></img></td>
    <td width=300 height=300><img src=""static/images/cards/back_of_black_moons.svg"" width=""175px"" height=""250px""></img></td>
  </tr>
  <tr height=200>
    <td width=300><img src=""static/images/keys/z.svg"" width=""35%"" height=""75%""></img></td>
    <td width=300></td>
  </tr>
</table>
  ",90.0,1.0,,,,,,,,,,,,,,,,,,,,,,,,,,
131,0,,html-keyboard-response,131,250532,0.0-4.21-2.21,twki4fnf14m,2022-09-16 18:29:27.059,5f4f990e0e7da9068d0a9802,0,86,59,74,41,40,female,,,"
  <table>
  <tr height=300>
    <td width=300 height=300><img src=""static/images/cards/3_of_black_moons.svg"" width=""175px"" height=""250px""></img></td>
    <td width=300 height=300><img src=""static/images/cards/back_of_black_moons.svg"" width=""175px"" height=""250px""></img></td>
  </tr>
  <tr height=200>
    <td width=300><img src=""static/images/keys/z.svg"" width=""35%"" height=""75%""></img></td>
    <td width=300></td>
  </tr>
</table>
  ",,,,,,,,,,,,,,,,,,,,,,,,,,,,
132,0,,html-keyboard-response,132,252062,0.0-4.21-3.21,twki4fnf14m,2022-09-16 18:29:27.059,5f4f990e0e7da9068d0a9802,0,86,59,74,41,40,female,,,"<p style=""font-size:50px"">You Lose!
No points this round.</p>",,,,,,,,,,,,,,,,,,,,,,,,,,,,
133,0,,html-keyboard-response,133,252581,0.0-4.21-4.21,twki4fnf14m,2022-09-16 18:29:27.059,5f4f990e0e7da9068d0a9802,0,86,59,74,41,40,female,,,,,,1.0,learning,21.0,D,,black,,moons,,,,D,black,moons,,0.0,0.0,1,left,401.3000001907,3.0,0.0,0.0,,,
134,0,,html-keyboard-response,134,254094,0.0-4.22-0.22,twki4fnf14m,2022-09-16 18:29:27.059,5f4f990e0e7da9068d0a9802,0,86,59,74,41,40,female,,,"<img src=""static/images/cards/stack_of_red_bolts.svg"" width=""175px"" height=""250px""></img>",,,,,,,,,,,,,,,,,,,,,,,,,,,,
135,0,,html-keyboard-response,135,255052,0.0-4.22-1.22,twki4fnf14m,2022-09-16 18:29:27.059,5f4f990e0e7da9068d0a9802,0,86,59,74,41,40,female,455.5,,"
  <table>
  <tr height=300>
    <td width=300 height=300><img src=""static/images/cards/back_of_red_bolts.svg"" width=""175px"" height=""250px""></img></td>
    <td width=300 height=300><img src=""static/images/cards/back_of_red_bolts.svg"" width=""175px"" height=""250px""></img></td>
  </tr>
  <tr height=200>
    <td width=300><img src=""static/images/keys/z.svg"" width=""35%"" height=""75%""></img></td>
    <td width=300><img src=""static/images/keys/m.svg"" width=""35%"" height=""75%""></img></td>
  </tr>
</table>
  ",77.0,1.0,,,,,,,,,,,,,,,,,,,,,,,,,,
136,0,,html-keyboard-response,136,256555,0.0-4.22-2.22,twki4fnf14m,2022-09-16 18:29:27.059,5f4f990e0e7da9068d0a9802,0,86,59,74,41,40,female,,,"
  <table>
  <tr height=300>
    <td width=300 height=300><img src=""static/images/cards/back_of_red_bolts.svg"" width=""175px"" height=""250px""></img></td>
    <td width=300 height=300><img src=""static/images/cards/8_of_red_bolts.svg"" width=""175px"" height=""250px""></img></td>
  </tr>
  <tr height=200>
    <td width=300><img src=""static/images/keys/z.svg"" width=""35%"" height=""75%""></img></td>
    <td width=300><img src=""static/images/keys/m.svg"" width=""35%"" height=""75%""></img></td>
  </tr>
</table>
  ",,,,,,,,,,,,,,,,,,,,,,,,,,,,
137,0,,html-keyboard-response,137,258068,0.0-4.22-3.22,twki4fnf14m,2022-09-16 18:29:27.059,5f4f990e0e7da9068d0a9802,0,86,59,74,41,40,female,,,"<p style=""font-size:50px"">You win!
+10 points this round!</p>",,,,,,,,,,,,,,,,,,,,,,,,,,,,
138,0,,html-keyboard-response,138,258589,0.0-4.22-4.22,twki4fnf14m,2022-09-16 18:29:27.059,5f4f990e0e7da9068d0a9802,0,86,59,74,41,40,female,,,,,,1.0,learning,22.0,Xc,,red,,bolts,,,,Xc,red,bolts,,1.0,0.0,NA,right,455.5,8.0,1.0,1.0,,,
139,0,,html-keyboard-response,139,260095,0.0-4.23-0.23,twki4fnf14m,2022-09-16 18:29:27.059,5f4f990e0e7da9068d0a9802,0,86,59,74,41,40,female,,,"<img src=""static/images/cards/stack_of_black_bolts.svg"" width=""175px"" height=""250px""></img>",,,,,,,,,,,,,,,,,,,,,,,,,,,,
140,0,,html-keyboard-response,140,261091,0.0-4.23-1.23,twki4fnf14m,2022-09-16 18:29:27.059,5f4f990e0e7da9068d0a9802,0,86,59,74,41,40,female,493.5,,"
  <table>
  <tr height=300>
    <td width=300 height=300><img src=""static/images/cards/back_of_black_bolts.svg"" width=""175px"" height=""250px""></img></td>
    <td width=300 height=300><img src=""static/images/cards/back_of_black_bolts.svg"" width=""175px"" height=""250px""></img></td>
  </tr>
  <tr height=200>
    <td width=300></td>
    <td width=300><img src=""static/images/keys/m.svg"" width=""35%"" height=""75%""></img></td>
  </tr>
</table>
  ",77.0,1.0,,,,,,,,,,,,,,,,,,,,,,,,,,
141,0,,html-keyboard-response,141,262596,0.0-4.23-2.23,twki4fnf14m,2022-09-16 18:29:27.059,5f4f990e0e7da9068d0a9802,0,86,59,74,41,40,female,,,"
  <table>
  <tr height=300>
    <td width=300 height=300><img src=""static/images/cards/back_of_black_bolts.svg"" width=""175px"" height=""250px""></img></td>
    <td width=300 height=300><img src=""static/images/cards/8_of_black_bolts.svg"" width=""175px"" height=""250px""></img></td>
  </tr>
  <tr height=200>
    <td width=300></td>
    <td width=300><img src=""static/images/keys/m.svg"" width=""35%"" height=""75%""></img></td>
  </tr>
</table>
  ",,,,,,,,,,,,,,,,,,,,,,,,,,,,
142,0,,html-keyboard-response,142,264124,0.0-4.23-3.23,twki4fnf14m,2022-09-16 18:29:27.059,5f4f990e0e7da9068d0a9802,0,86,59,74,41,40,female,,,"<p style=""font-size:50px"">You win!
+10 points this round!</p>",,,,,,,,,,,,,,,,,,,,,,,,,,,,
143,0,,html-keyboard-response,143,264633,0.0-4.23-4.23,twki4fnf14m,2022-09-16 18:29:27.059,5f4f990e0e7da9068d0a9802,0,86,59,74,41,40,female,,,,,,1.0,learning,23.0,Xnc,,black,,bolts,,,,Xnc,black,bolts,,0.0,0.0,0,right,493.5,8.0,1.0,1.0,,,
144,0,,call-function,144,264641,0.0-5.0,twki4fnf14m,2022-09-16 18:29:27.059,5f4f990e0e7da9068d0a9802,0,86,59,74,41,40,female,,,,,,,,,,,,,,,,,,,,,,,,,,,,,,,
145,0,,image-keyboard-response,145,267729,0.0-6.0-0.0,twki4fnf14m,2022-09-16 18:29:27.059,5f4f990e0e7da9068d0a9802,0,86,59,74,41,40,female,3087.5999999046,,static/images/instructions_CB_0/Slide20.png,39.0,,,,,,,,,,,,,,,,,,,,,,,,,,,
146,0,,image-keyboard-response,146,271095,0.0-6.1-0.1,twki4fnf14m,2022-09-16 18:29:27.059,5f4f990e0e7da9068d0a9802,0,86,59,74,41,40,female,3365.3000001907,,static/images/instructions_CB_0/Slide21.png,39.0,,,,,,,,,,,,,,,,,,,,,,,,,,,
147,0,,image-keyboard-response,147,276328,0.0-6.2-0.2,twki4fnf14m,2022-09-16 18:29:27.059,5f4f990e0e7da9068d0a9802,0,86,59,74,41,40,female,5231.5999999046,,static/images/instructions_CB_0/Slide22.png,39.0,,,,,,,,,,,,,,,,,,,,,,,,,,,
148,0,,image-keyboard-response,148,278003,0.0-6.3-0.3,twki4fnf14m,2022-09-16 18:29:27.059,5f4f990e0e7da9068d0a9802,0,86,59,74,41,40,female,1674.2000002861,,static/images/instructions_CB_0/Slide23.png,39.0,,,,,,,,,,,,,,,,,,,,,,,,,,,
149,0,,image-keyboard-response,149,279413,0.0-6.4-0.4,twki4fnf14m,2022-09-16 18:29:27.059,5f4f990e0e7da9068d0a9802,0,86,59,74,41,40,female,1408.5999999046,,static/images/instructions_CB_0/Slide24.png,39.0,,,,,,,,,,,,,,,,,,,,,,,,,,,
150,0,,html-keyboard-response,150,280476,0.0-7.0-0.0,twki4fnf14m,2022-09-16 18:29:27.059,5f4f990e0e7da9068d0a9802,0,86,59,74,41,40,female,1061.5999999046,,"
  <table>
  <tr height=300>
    <td width=300 height=300><img src=""static/images/cards/stack_of_red_bolts.svg"" width=""175px"" height=""250px""></img></td>
    <td width=300 height=300><img src=""static/images/cards/stack_of_red_stars.svg"" width=""175px"" height=""250px""></img></td>
  </tr>
  <tr height=200>
    <td width=300><img src=""static/images/keys/w.svg"" width=""35%"" height=""75%""></img></td>
    <td width=300><img src=""static/images/keys/o.svg"" width=""35%"" height=""75%""></img></td>
  </tr>
</table>
  ",87.0,1.0,,,,,,,,,,,,,,,,,,,,,,,,,,
151,0,,html-keyboard-response,151,282884,0.0-7.0-1.0,twki4fnf14m,2022-09-16 18:29:27.059,5f4f990e0e7da9068d0a9802,0,86,59,74,41,40,female,1898.6000003815,,"
  <table>
  <tr height=300>
    <td width=300 height=300><img src=""static/images/cards/back_of_red_bolts.svg"" width=""175px"" height=""250px""></img></td>
    <td width=300 height=300><img src=""static/images/cards/back_of_red_bolts.svg"" width=""175px"" height=""250px""></img></td>
  </tr>
  <tr height=200>
    <td width=300><img src=""static/images/keys/z.svg"" width=""35%"" height=""75%""></img></td>
    <td width=300><img src=""static/images/keys/m.svg"" width=""35%"" height=""75%""></img></td>
  </tr>
</table>
  ",90.0,1.0,,,,,,,,,,,,,,,,,,,,,,,,,,
152,0,,html-keyboard-response,152,284392,0.0-7.0-2.0,twki4fnf14m,2022-09-16 18:29:27.059,5f4f990e0e7da9068d0a9802,0,86,59,74,41,40,female,,,"
  <table>
  <tr height=300>
    <td width=300 height=300><img src=""static/images/cards/7_of_red_bolts.svg"" width=""175px"" height=""250px""></img></td>
    <td width=300 height=300><img src=""static/images/cards/back_of_red_bolts.svg"" width=""175px"" height=""250px""></img></td>
  </tr>
  <tr height=200>
    <td width=300><img src=""static/images/keys/z.svg"" width=""35%"" height=""75%""></img></td>
    <td width=300><img src=""static/images/keys/m.svg"" width=""35%"" height=""75%""></img></td>
  </tr>
</table>
  ",,,,,,,,,,,,,,,,,,,,,,,,,,,,
153,0,,html-keyboard-response,153,285921,0.0-7.0-3.0,twki4fnf14m,2022-09-16 18:29:27.059,5f4f990e0e7da9068d0a9802,0,86,59,74,41,40,female,,,"<p style=""font-size:50px"">You win!
+10 points this round!</p>",,,,,,,,,,,,,,,,,,,,,,,,,,,,
154,0,,html-keyboard-response,154,286441,0.0-7.0-4.0,twki4fnf14m,2022-09-16 18:29:27.059,5f4f990e0e7da9068d0a9802,0,86,59,74,41,40,female,,,,,,1.0,choice,0.0,A,Xc,red,red,bolts,stars,Xc,A,Xc,red,bolts,1061.5999999046,1.0,0.0,NA,left,1898.6000003815,7.0,1.0,1.0,,,
155,0,,html-keyboard-response,155,287693,0.0-7.1-0.1,twki4fnf14m,2022-09-16 18:29:27.059,5f4f990e0e7da9068d0a9802,0,86,59,74,41,40,female,1250.0,,"
  <table>
  <tr height=300>
    <td width=300 height=300><img src=""static/images/cards/stack_of_red_moons.svg"" width=""175px"" height=""250px""></img></td>
    <td width=300 height=300><img src=""static/images/cards/stack_of_black_stars.svg"" width=""175px"" height=""250px""></img></td>
  </tr>
  <tr height=200>
    <td width=300><img src=""static/images/keys/w.svg"" width=""35%"" height=""75%""></img></td>
    <td width=300><img src=""static/images/keys/o.svg"" width=""35%"" height=""75%""></img></td>
  </tr>
</table>
  ",79.0,1.0,,,,,,,,,,,,,,,,,,,,,,,,,,
156,0,,html-keyboard-response,156,289222,0.0-7.1-1.1,twki4fnf14m,2022-09-16 18:29:27.059,5f4f990e0e7da9068d0a9802,0,86,59,74,41,40,female,1014.9000000954,,"
  <table>
  <tr height=300>
    <td width=300 height=300><img src=""static/images/cards/back_of_black_stars.svg"" width=""175px"" height=""250px""></img></td>
    <td width=300 height=300><img src=""static/images/cards/back_of_black_stars.svg"" width=""175px"" height=""250px""></img></td>
  </tr>
  <tr height=200>
    <td width=300><img src=""static/images/keys/z.svg"" width=""35%"" height=""75%""></img></td>
    <td width=300></td>
  </tr>
</table>
  ",90.0,1.0,,,,,,,,,,,,,,,,,,,,,,,,,,
157,0,,html-keyboard-response,157,290734,0.0-7.1-2.1,twki4fnf14m,2022-09-16 18:29:27.059,5f4f990e0e7da9068d0a9802,0,86,59,74,41,40,female,,,"
  <table>
  <tr height=300>
    <td width=300 height=300><img src=""static/images/cards/9_of_black_stars.svg"" width=""175px"" height=""250px""></img></td>
    <td width=300 height=300><img src=""static/images/cards/back_of_black_stars.svg"" width=""175px"" height=""250px""></img></td>
  </tr>
  <tr height=200>
    <td width=300><img src=""static/images/keys/z.svg"" width=""35%"" height=""75%""></img></td>
    <td width=300></td>
  </tr>
</table>
  ",,,,,,,,,,,,,,,,,,,,,,,,,,,,
158,0,,html-keyboard-response,158,292263,0.0-7.1-3.1,twki4fnf14m,2022-09-16 18:29:27.059,5f4f990e0e7da9068d0a9802,0,86,59,74,41,40,female,,,"<p style=""font-size:50px"">You win!
+10 points this round!</p>",,,,,,,,,,,,,,,,,,,,,,,,,,,,
159,0,,html-keyboard-response,159,292781,0.0-7.1-4.1,twki4fnf14m,2022-09-16 18:29:27.059,5f4f990e0e7da9068d0a9802,0,86,59,74,41,40,female,,,,,,1.0,choice,1.0,B,C,red,black,moons,stars,C,B,B,black,stars,1250.0,0.0,1.0,1,left,1014.9000000954,9.0,1.0,1.0,,,
160,0,,html-keyboard-response,160,293642,0.0-7.2-0.2,twki4fnf14m,2022-09-16 18:29:27.059,5f4f990e0e7da9068d0a9802,0,86,59,74,41,40,female,859.0,,"
  <table>
  <tr height=300>
    <td width=300 height=300><img src=""static/images/cards/stack_of_red_stars.svg"" width=""175px"" height=""250px""></img></td>
    <td width=300 height=300><img src=""static/images/cards/stack_of_red_moons.svg"" width=""175px"" height=""250px""></img></td>
  </tr>
  <tr height=200>
    <td width=300><img src=""static/images/keys/w.svg"" width=""35%"" height=""75%""></img></td>
    <td width=300><img src=""static/images/keys/o.svg"" width=""35%"" height=""75%""></img></td>
  </tr>
</table>
  ",87.0,1.0,,,,,,,,,,,,,,,,,,,,,,,,,,
161,0,,html-keyboard-response,161,295306,0.0-7.2-1.2,twki4fnf14m,2022-09-16 18:29:27.059,5f4f990e0e7da9068d0a9802,0,86,59,74,41,40,female,1151.3000001907,,"
  <table>
  <tr height=300>
    <td width=300 height=300><img src=""static/images/cards/back_of_red_stars.svg"" width=""175px"" height=""250px""></img></td>
    <td width=300 height=300><img src=""static/images/cards/back_of_red_stars.svg"" width=""175px"" height=""250px""></img></td>
  </tr>
  <tr height=200>
    <td width=300><img src=""static/images/keys/z.svg"" width=""35%"" height=""75%""></img></td>
    <td width=300><img src=""static/images/keys/m.svg"" width=""35%"" height=""75%""></img></td>
  </tr>
</table>
  ",77.0,1.0,,,,,,,,,,,,,,,,,,,,,,,,,,
162,0,,html-keyboard-response,162,296822,0.0-7.2-2.2,twki4fnf14m,2022-09-16 18:29:27.059,5f4f990e0e7da9068d0a9802,0,86,59,74,41,40,female,,,"
  <table>
  <tr height=300>
    <td width=300 height=300><img src=""static/images/cards/back_of_red_stars.svg"" width=""175px"" height=""250px""></img></td>
    <td width=300 height=300><img src=""static/images/cards/9_of_red_stars.svg"" width=""175px"" height=""250px""></img></td>
  </tr>
  <tr height=200>
    <td width=300><img src=""static/images/keys/z.svg"" width=""35%"" height=""75%""></img></td>
    <td width=300><img src=""static/images/keys/m.svg"" width=""35%"" height=""75%""></img></td>
  </tr>
</table>
  ",,,,,,,,,,,,,,,,,,,,,,,,,,,,
163,0,,html-keyboard-response,163,298344,0.0-7.2-3.2,twki4fnf14m,2022-09-16 18:29:27.059,5f4f990e0e7da9068d0a9802,0,86,59,74,41,40,female,,,"<p style=""font-size:50px"">You win!
+10 points this round!</p>",,,,,,,,,,,,,,,,,,,,,,,,,,,,
164,0,,html-keyboard-response,164,298852,0.0-7.2-4.2,twki4fnf14m,2022-09-16 18:29:27.059,5f4f990e0e7da9068d0a9802,0,86,59,74,41,40,female,,,,,,1.0,choice,2.0,A,C,red,red,stars,moons,A,C,A,red,stars,859.0,1.0,1.0,NA,right,1151.3000001907,9.0,1.0,1.0,,,
165,0,,html-keyboard-response,165,299731,0.0-7.3-0.3,twki4fnf14m,2022-09-16 18:29:27.059,5f4f990e0e7da9068d0a9802,0,86,59,74,41,40,female,877.0,,"
  <table>
  <tr height=300>
    <td width=300 height=300><img src=""static/images/cards/stack_of_red_stars.svg"" width=""175px"" height=""250px""></img></td>
    <td width=300 height=300><img src=""static/images/cards/stack_of_black_stars.svg"" width=""175px"" height=""250px""></img></td>
  </tr>
  <tr height=200>
    <td width=300><img src=""static/images/keys/w.svg"" width=""35%"" height=""75%""></img></td>
    <td width=300><img src=""static/images/keys/o.svg"" width=""35%"" height=""75%""></img></td>
  </tr>
</table>
  ",87.0,1.0,,,,,,,,,,,,,,,,,,,,,,,,,,
166,0,,html-keyboard-response,166,301138,0.0-7.3-1.3,twki4fnf14m,2022-09-16 18:29:27.059,5f4f990e0e7da9068d0a9802,0,86,59,74,41,40,female,898.0,,"
  <table>
  <tr height=300>
    <td width=300 height=300><img src=""static/images/cards/back_of_red_stars.svg"" width=""175px"" height=""250px""></img></td>
    <td width=300 height=300><img src=""static/images/cards/back_of_red_stars.svg"" width=""175px"" height=""250px""></img></td>
  </tr>
  <tr height=200>
    <td width=300><img src=""static/images/keys/z.svg"" width=""35%"" height=""75%""></img></td>
    <td width=300><img src=""static/images/keys/m.svg"" width=""35%"" height=""75%""></img></td>
  </tr>
</table>
  ",90.0,1.0,,,,,,,,,,,,,,,,,,,,,,,,,,
167,0,,html-keyboard-response,167,302641,0.0-7.3-2.3,twki4fnf14m,2022-09-16 18:29:27.059,5f4f990e0e7da9068d0a9802,0,86,59,74,41,40,female,,,"
  <table>
  <tr height=300>
    <td width=300 height=300><img src=""static/images/cards/10_of_red_stars.svg"" width=""175px"" height=""250px""></img></td>
    <td width=300 height=300><img src=""static/images/cards/back_of_red_stars.svg"" width=""175px"" height=""250px""></img></td>
  </tr>
  <tr height=200>
    <td width=300><img src=""static/images/keys/z.svg"" width=""35%"" height=""75%""></img></td>
    <td width=300><img src=""static/images/keys/m.svg"" width=""35%"" height=""75%""></img></td>
  </tr>
</table>
  ",,,,,,,,,,,,,,,,,,,,,,,,,,,,
168,0,,html-keyboard-response,168,304144,0.0-7.3-3.3,twki4fnf14m,2022-09-16 18:29:27.059,5f4f990e0e7da9068d0a9802,0,86,59,74,41,40,female,,,"<p style=""font-size:50px"">You win!
+10 points this round!</p>",,,,,,,,,,,,,,,,,,,,,,,,,,,,
169,0,,html-keyboard-response,169,304654,0.0-7.3-4.3,twki4fnf14m,2022-09-16 18:29:27.059,5f4f990e0e7da9068d0a9802,0,86,59,74,41,40,female,,,,,,1.0,choice,3.0,A,B,red,black,stars,stars,A,B,A,red,stars,877.0,1.0,1.0,NA,left,898.0,10.0,1.0,1.0,,,
170,0,,html-keyboard-response,170,305782,0.0-7.4-0.4,twki4fnf14m,2022-09-16 18:29:27.059,5f4f990e0e7da9068d0a9802,0,86,59,74,41,40,female,1127.1999998093,,"
  <table>
  <tr height=300>
    <td width=300 height=300><img src=""static/images/cards/stack_of_black_stars.svg"" width=""175px"" height=""250px""></img></td>
    <td width=300 height=300><img src=""static/images/cards/stack_of_black_moons.svg"" width=""175px"" height=""250px""></img></td>
  </tr>
  <tr height=200>
    <td width=300><img src=""static/images/keys/w.svg"" width=""35%"" height=""75%""></img></td>
    <td width=300><img src=""static/images/keys/o.svg"" width=""35%"" height=""75%""></img></td>
  </tr>
</table>
  ",79.0,1.0,,,,,,,,,,,,,,,,,,,,,,,,,,
171,0,,html-keyboard-response,171,307252,0.0-7.4-1.4,twki4fnf14m,2022-09-16 18:29:27.059,5f4f990e0e7da9068d0a9802,0,86,59,74,41,40,female,960.5999999046,,"
  <table>
  <tr height=300>
    <td width=300 height=300><img src=""static/images/cards/back_of_black_moons.svg"" width=""175px"" height=""250px""></img></td>
    <td width=300 height=300><img src=""static/images/cards/back_of_black_moons.svg"" width=""175px"" height=""250px""></img></td>
  </tr>
  <tr height=200>
    <td width=300></td>
    <td width=300><img src=""static/images/keys/m.svg"" width=""35%"" height=""75%""></img></td>
  </tr>
</table>
  ",77.0,1.0,,,,,,,,,,,,,,,,,,,,,,,,,,
172,0,,html-keyboard-response,172,308754,0.0-7.4-2.4,twki4fnf14m,2022-09-16 18:29:27.059,5f4f990e0e7da9068d0a9802,0,86,59,74,41,40,female,,,"
  <table>
  <tr height=300>
    <td width=300 height=300><img src=""static/images/cards/back_of_black_moons.svg"" width=""175px"" height=""250px""></img></td>
    <td width=300 height=300><img src=""static/images/cards/9_of_black_moons.svg"" width=""175px"" height=""250px""></img></td>
  </tr>
  <tr height=200>
    <td width=300></td>
    <td width=300><img src=""static/images/keys/m.svg"" width=""35%"" height=""75%""></img></td>
  </tr>
</table>
  ",,,,,,,,,,,,,,,,,,,,,,,,,,,,
173,0,,html-keyboard-response,173,310284,0.0-7.4-3.4,twki4fnf14m,2022-09-16 18:29:27.059,5f4f990e0e7da9068d0a9802,0,86,59,74,41,40,female,,,"<p style=""font-size:50px"">You Lose!
No points this round.</p>",,,,,,,,,,,,,,,,,,,,,,,,,,,,
174,0,,html-keyboard-response,174,310802,0.0-7.4-4.4,twki4fnf14m,2022-09-16 18:29:27.059,5f4f990e0e7da9068d0a9802,0,86,59,74,41,40,female,,,,,,1.0,choice,4.0,B,D,black,black,stars,moons,B,D,D,black,moons,1127.1999998093,0.0,0.0,0,right,960.5999999046,9.0,1.0,0.0,,,
175,0,,html-keyboard-response,175,311437,0.0-7.5-0.5,twki4fnf14m,2022-09-16 18:29:27.059,5f4f990e0e7da9068d0a9802,0,86,59,74,41,40,female,634.5999999046,,"
  <table>
  <tr height=300>
    <td width=300 height=300><img src=""static/images/cards/stack_of_black_moons.svg"" width=""175px"" height=""250px""></img></td>
    <td width=300 height=300><img src=""static/images/cards/stack_of_red_stars.svg"" width=""175px"" height=""250px""></img></td>
  </tr>
  <tr height=200>
    <td width=300><img src=""static/images/keys/w.svg"" width=""35%"" height=""75%""></img></td>
    <td width=300><img src=""static/images/keys/o.svg"" width=""35%"" height=""75%""></img></td>
  </tr>
</table>
  ",87.0,1.0,,,,,,,,,,,,,,,,,,,,,,,,,,
176,0,,html-keyboard-response,176,312744,0.0-7.5-1.5,twki4fnf14m,2022-09-16 18:29:27.059,5f4f990e0e7da9068d0a9802,0,86,59,74,41,40,female,794.4000000954,,"
  <table>
  <tr height=300>
    <td width=300 height=300><img src=""static/images/cards/back_of_black_moons.svg"" width=""175px"" height=""250px""></img></td>
    <td width=300 height=300><img src=""static/images/cards/back_of_black_moons.svg"" width=""175px"" height=""250px""></img></td>
  </tr>
  <tr height=200>
    <td width=300><img src=""static/images/keys/z.svg"" width=""35%"" height=""75%""></img></td>
    <td width=300></td>
  </tr>
</table>
  ",90.0,1.0,,,,,,,,,,,,,,,,,,,,,,,,,,
177,0,,html-keyboard-response,177,314257,0.0-7.5-2.5,twki4fnf14m,2022-09-16 18:29:27.059,5f4f990e0e7da9068d0a9802,0,86,59,74,41,40,female,,,"
  <table>
  <tr height=300>
    <td width=300 height=300><img src=""static/images/cards/6_of_black_moons.svg"" width=""175px"" height=""250px""></img></td>
    <td width=300 height=300><img src=""static/images/cards/back_of_black_moons.svg"" width=""175px"" height=""250px""></img></td>
  </tr>
  <tr height=200>
    <td width=300><img src=""static/images/keys/z.svg"" width=""35%"" height=""75%""></img></td>
    <td width=300></td>
  </tr>
</table>
  ",,,,,,,,,,,,,,,,,,,,,,,,,,,,
178,0,,html-keyboard-response,178,315775,0.0-7.5-3.5,twki4fnf14m,2022-09-16 18:29:27.059,5f4f990e0e7da9068d0a9802,0,86,59,74,41,40,female,,,"<p style=""font-size:50px"">You win!
+10 points this round!</p>",,,,,,,,,,,,,,,,,,,,,,,,,,,,
179,0,,html-keyboard-response,179,316296,0.0-7.5-4.5,twki4fnf14m,2022-09-16 18:29:27.059,5f4f990e0e7da9068d0a9802,0,86,59,74,41,40,female,,,,,,1.0,choice,5.0,A,D,black,red,moons,stars,D,A,D,black,moons,634.5999999046,0.0,0.0,1,left,794.4000000954,6.0,1.0,1.0,,,
180,0,,html-keyboard-response,180,317277,0.0-7.6-0.6,twki4fnf14m,2022-09-16 18:29:27.059,5f4f990e0e7da9068d0a9802,0,86,59,74,41,40,female,979.2000002861,,"
  <table>
  <tr height=300>
    <td width=300 height=300><img src=""static/images/cards/stack_of_black_stars.svg"" width=""175px"" height=""250px""></img></td>
    <td width=300 height=300><img src=""static/images/cards/stack_of_red_stars.svg"" width=""175px"" height=""250px""></img></td>
  </tr>
  <tr height=200>
    <td width=300><img src=""static/images/keys/w.svg"" width=""35%"" height=""75%""></img></td>
    <td width=300><img src=""static/images/keys/o.svg"" width=""35%"" height=""75%""></img></td>
  </tr>
</table>
  ",79.0,1.0,,,,,,,,,,,,,,,,,,,,,,,,,,
181,0,,html-keyboard-response,181,318696,0.0-7.6-1.6,twki4fnf14m,2022-09-16 18:29:27.059,5f4f990e0e7da9068d0a9802,0,86,59,74,41,40,female,909.0999999046,,"
  <table>
  <tr height=300>
    <td width=300 height=300><img src=""static/images/cards/back_of_red_stars.svg"" width=""175px"" height=""250px""></img></td>
    <td width=300 height=300><img src=""static/images/cards/back_of_red_stars.svg"" width=""175px"" height=""250px""></img></td>
  </tr>
  <tr height=200>
    <td width=300><img src=""static/images/keys/z.svg"" width=""35%"" height=""75%""></img></td>
    <td width=300><img src=""static/images/keys/m.svg"" width=""35%"" height=""75%""></img></td>
  </tr>
</table>
  ",90.0,1.0,,,,,,,,,,,,,,,,,,,,,,,,,,
182,0,,html-keyboard-response,182,320201,0.0-7.6-2.6,twki4fnf14m,2022-09-16 18:29:27.059,5f4f990e0e7da9068d0a9802,0,86,59,74,41,40,female,,,"
  <table>
  <tr height=300>
    <td width=300 height=300><img src=""static/images/cards/2_of_red_stars.svg"" width=""175px"" height=""250px""></img></td>
    <td width=300 height=300><img src=""static/images/cards/back_of_red_stars.svg"" width=""175px"" height=""250px""></img></td>
  </tr>
  <tr height=200>
    <td width=300><img src=""static/images/keys/z.svg"" width=""35%"" height=""75%""></img></td>
    <td width=300><img src=""static/images/keys/m.svg"" width=""35%"" height=""75%""></img></td>
  </tr>
</table>
  ",,,,,,,,,,,,,,,,,,,,,,,,,,,,
183,0,,html-keyboard-response,183,321728,0.0-7.6-3.6,twki4fnf14m,2022-09-16 18:29:27.059,5f4f990e0e7da9068d0a9802,0,86,59,74,41,40,female,,,"<p style=""font-size:50px"">You Lose!
No points this round.</p>",,,,,,,,,,,,,,,,,,,,,,,,,,,,
184,0,,html-keyboard-response,184,322235,0.0-7.6-4.6,twki4fnf14m,2022-09-16 18:29:27.059,5f4f990e0e7da9068d0a9802,0,86,59,74,41,40,female,,,,,,1.0,choice,6.0,A,B,black,red,stars,stars,B,A,A,red,stars,979.2000002861,1.0,1.0,NA,left,909.0999999046,2.0,0.0,0.0,,,
185,0,,html-keyboard-response,185,323087,0.0-7.7-0.7,twki4fnf14m,2022-09-16 18:29:27.059,5f4f990e0e7da9068d0a9802,0,86,59,74,41,40,female,850.9000000954,,"
  <table>
  <tr height=300>
    <td width=300 height=300><img src=""static/images/cards/stack_of_black_moons.svg"" width=""175px"" height=""250px""></img></td>
    <td width=300 height=300><img src=""static/images/cards/stack_of_red_moons.svg"" width=""175px"" height=""250px""></img></td>
  </tr>
  <tr height=200>
    <td width=300><img src=""static/images/keys/w.svg"" width=""35%"" height=""75%""></img></td>
    <td width=300><img src=""static/images/keys/o.svg"" width=""35%"" height=""75%""></img></td>
  </tr>
</table>
  ",87.0,1.0,,,,,,,,,,,,,,,,,,,,,,,,,,
186,0,,html-keyboard-response,186,324402,0.0-7.7-1.7,twki4fnf14m,2022-09-16 18:29:27.059,5f4f990e0e7da9068d0a9802,0,86,59,74,41,40,female,809.5,,"
  <table>
  <tr height=300>
    <td width=300 height=300><img src=""static/images/cards/back_of_black_moons.svg"" width=""175px"" height=""250px""></img></td>
    <td width=300 height=300><img src=""static/images/cards/back_of_black_moons.svg"" width=""175px"" height=""250px""></img></td>
  </tr>
  <tr height=200>
    <td width=300><img src=""static/images/keys/z.svg"" width=""35%"" height=""75%""></img></td>
    <td width=300></td>
  </tr>
</table>
  ",90.0,1.0,,,,,,,,,,,,,,,,,,,,,,,,,,
187,0,,html-keyboard-response,187,325904,0.0-7.7-2.7,twki4fnf14m,2022-09-16 18:29:27.059,5f4f990e0e7da9068d0a9802,0,86,59,74,41,40,female,,,"
  <table>
  <tr height=300>
    <td width=300 height=300><img src=""static/images/cards/10_of_black_moons.svg"" width=""175px"" height=""250px""></img></td>
    <td width=300 height=300><img src=""static/images/cards/back_of_black_moons.svg"" width=""175px"" height=""250px""></img></td>
  </tr>
  <tr height=200>
    <td width=300><img src=""static/images/keys/z.svg"" width=""35%"" height=""75%""></img></td>
    <td width=300></td>
  </tr>
</table>
  ",,,,,,,,,,,,,,,,,,,,,,,,,,,,
188,0,,html-keyboard-response,188,327431,0.0-7.7-3.7,twki4fnf14m,2022-09-16 18:29:27.059,5f4f990e0e7da9068d0a9802,0,86,59,74,41,40,female,,,"<p style=""font-size:50px"">You win!
+10 points this round!</p>",,,,,,,,,,,,,,,,,,,,,,,,,,,,
189,0,,html-keyboard-response,189,327952,0.0-7.7-4.7,twki4fnf14m,2022-09-16 18:29:27.059,5f4f990e0e7da9068d0a9802,0,86,59,74,41,40,female,,,,,,1.0,choice,7.0,C,D,black,red,moons,moons,D,C,D,black,moons,850.9000000954,0.0,0.0,1,left,809.5,10.0,1.0,1.0,,,
190,0,,html-keyboard-response,190,329792,0.0-7.8-0.8,twki4fnf14m,2022-09-16 18:29:27.059,5f4f990e0e7da9068d0a9802,0,86,59,74,41,40,female,1839.0999999046,,"
  <table>
  <tr height=300>
    <td width=300 height=300><img src=""static/images/cards/stack_of_black_stars.svg"" width=""175px"" height=""250px""></img></td>
    <td width=300 height=300><img src=""static/images/cards/stack_of_black_moons.svg"" width=""175px"" height=""250px""></img></td>
  </tr>
  <tr height=200>
    <td width=300><img src=""static/images/keys/w.svg"" width=""35%"" height=""75%""></img></td>
    <td width=300><img src=""static/images/keys/o.svg"" width=""35%"" height=""75%""></img></td>
  </tr>
</table>
  ",87.0,1.0,,,,,,,,,,,,,,,,,,,,,,,,,,
191,0,,html-keyboard-response,191,331216,0.0-7.8-1.8,twki4fnf14m,2022-09-16 18:29:27.059,5f4f990e0e7da9068d0a9802,0,86,59,74,41,40,female,911.6000003815,,"
  <table>
  <tr height=300>
    <td width=300 height=300><img src=""static/images/cards/back_of_black_stars.svg"" width=""175px"" height=""250px""></img></td>
    <td width=300 height=300><img src=""static/images/cards/back_of_black_stars.svg"" width=""175px"" height=""250px""></img></td>
  </tr>
  <tr height=200>
    <td width=300></td>
    <td width=300><img src=""static/images/keys/m.svg"" width=""35%"" height=""75%""></img></td>
  </tr>
</table>
  ",77.0,1.0,,,,,,,,,,,,,,,,,,,,,,,,,,
192,0,,html-keyboard-response,192,332732,0.0-7.8-2.8,twki4fnf14m,2022-09-16 18:29:27.059,5f4f990e0e7da9068d0a9802,0,86,59,74,41,40,female,,,"
  <table>
  <tr height=300>
    <td width=300 height=300><img src=""static/images/cards/back_of_black_stars.svg"" width=""175px"" height=""250px""></img></td>
    <td width=300 height=300><img src=""static/images/cards/2_of_black_stars.svg"" width=""175px"" height=""250px""></img></td>
  </tr>
  <tr height=200>
    <td width=300></td>
    <td width=300><img src=""static/images/keys/m.svg"" width=""35%"" height=""75%""></img></td>
  </tr>
</table>
  ",,,,,,,,,,,,,,,,,,,,,,,,,,,,
193,0,,html-keyboard-response,193,334260,0.0-7.8-3.8,twki4fnf14m,2022-09-16 18:29:27.059,5f4f990e0e7da9068d0a9802,0,86,59,74,41,40,female,,,"<p style=""font-size:50px"">You Lose!
No points this round.</p>",,,,,,,,,,,,,,,,,,,,,,,,,,,,
194,0,,html-keyboard-response,194,334779,0.0-7.8-4.8,twki4fnf14m,2022-09-16 18:29:27.059,5f4f990e0e7da9068d0a9802,0,86,59,74,41,40,female,,,,,,1.0,choice,8.0,B,D,black,black,stars,moons,B,D,B,black,stars,1839.0999999046,0.0,1.0,0,right,911.6000003815,2.0,0.0,0.0,,,
195,0,,html-keyboard-response,195,335621,0.0-7.9-0.9,twki4fnf14m,2022-09-16 18:29:27.059,5f4f990e0e7da9068d0a9802,0,86,59,74,41,40,female,840.4000000954,,"
  <table>
  <tr height=300>
    <td width=300 height=300><img src=""static/images/cards/stack_of_red_moons.svg"" width=""175px"" height=""250px""></img></td>
    <td width=300 height=300><img src=""static/images/cards/stack_of_black_bolts.svg"" width=""175px"" height=""250px""></img></td>
  </tr>
  <tr height=200>
    <td width=300><img src=""static/images/keys/w.svg"" width=""35%"" height=""75%""></img></td>
    <td width=300><img src=""static/images/keys/o.svg"" width=""35%"" height=""75%""></img></td>
  </tr>
</table>
  ",79.0,1.0,,,,,,,,,,,,,,,,,,,,,,,,,,
196,0,,html-keyboard-response,196,337006,0.0-7.9-1.9,twki4fnf14m,2022-09-16 18:29:27.059,5f4f990e0e7da9068d0a9802,0,86,59,74,41,40,female,872.9000000954,,"
  <table>
  <tr height=300>
    <td width=300 height=300><img src=""static/images/cards/back_of_black_bolts.svg"" width=""175px"" height=""250px""></img></td>
    <td width=300 height=300><img src=""static/images/cards/back_of_black_bolts.svg"" width=""175px"" height=""250px""></img></td>
  </tr>
  <tr height=200>
    <td width=300><img src=""static/images/keys/z.svg"" width=""35%"" height=""75%""></img></td>
    <td width=300></td>
  </tr>
</table>
  ",90.0,1.0,,,,,,,,,,,,,,,,,,,,,,,,,,
197,0,,html-keyboard-response,197,338520,0.0-7.9-2.9,twki4fnf14m,2022-09-16 18:29:27.059,5f4f990e0e7da9068d0a9802,0,86,59,74,41,40,female,,,"
  <table>
  <tr height=300>
    <td width=300 height=300><img src=""static/images/cards/6_of_black_bolts.svg"" width=""175px"" height=""250px""></img></td>
    <td width=300 height=300><img src=""static/images/cards/back_of_black_bolts.svg"" width=""175px"" height=""250px""></img></td>
  </tr>
  <tr height=200>
    <td width=300><img src=""static/images/keys/z.svg"" width=""35%"" height=""75%""></img></td>
    <td width=300></td>
  </tr>
</table>
  ",,,,,,,,,,,,,,,,,,,,,,,,,,,,
198,0,,html-keyboard-response,198,340037,0.0-7.9-3.9,twki4fnf14m,2022-09-16 18:29:27.059,5f4f990e0e7da9068d0a9802,0,86,59,74,41,40,female,,,"<p style=""font-size:50px"">You win!
+10 points this round!</p>",,,,,,,,,,,,,,,,,,,,,,,,,,,,
199,0,,html-keyboard-response,199,340557,0.0-7.9-4.9,twki4fnf14m,2022-09-16 18:29:27.059,5f4f990e0e7da9068d0a9802,0,86,59,74,41,40,female,,,,,,1.0,choice,9.0,C,Xnc,red,black,moons,bolts,C,Xnc,Xnc,black,bolts,840.4000000954,0.0,0.0,1,left,872.9000000954,6.0,1.0,1.0,,,
200,0,,html-keyboard-response,200,342271,0.0-7.10-0.10,twki4fnf14m,2022-09-16 18:29:27.059,5f4f990e0e7da9068d0a9802,0,86,59,74,41,40,female,1713.1999998093,,"
  <table>
  <tr height=300>
    <td width=300 height=300><img src=""static/images/cards/stack_of_black_stars.svg"" width=""175px"" height=""250px""></img></td>
    <td width=300 height=300><img src=""static/images/cards/stack_of_black_bolts.svg"" width=""175px"" height=""250px""></img></td>
  </tr>
  <tr height=200>
    <td width=300><img src=""static/images/keys/w.svg"" width=""35%"" height=""75%""></img></td>
    <td width=300><img src=""static/images/keys/o.svg"" width=""35%"" height=""75%""></img></td>
  </tr>
</table>
  ",79.0,1.0,,,,,,,,,,,,,,,,,,,,,,,,,,
201,0,,html-keyboard-response,201,343554,0.0-7.10-1.10,twki4fnf14m,2022-09-16 18:29:27.059,5f4f990e0e7da9068d0a9802,0,86,59,74,41,40,female,771.2999997139,,"
  <table>
  <tr height=300>
    <td width=300 height=300><img src=""static/images/cards/back_of_black_bolts.svg"" width=""175px"" height=""250px""></img></td>
    <td width=300 height=300><img src=""static/images/cards/back_of_black_bolts.svg"" width=""175px"" height=""250px""></img></td>
  </tr>
  <tr height=200>
    <td width=300><img src=""static/images/keys/z.svg"" width=""35%"" height=""75%""></img></td>
    <td width=300></td>
  </tr>
</table>
  ",90.0,1.0,,,,,,,,,,,,,,,,,,,,,,,,,,
202,0,,html-keyboard-response,202,345058,0.0-7.10-2.10,twki4fnf14m,2022-09-16 18:29:27.059,5f4f990e0e7da9068d0a9802,0,86,59,74,41,40,female,,,"
  <table>
  <tr height=300>
    <td width=300 height=300><img src=""static/images/cards/9_of_black_bolts.svg"" width=""175px"" height=""250px""></img></td>
    <td width=300 height=300><img src=""static/images/cards/back_of_black_bolts.svg"" width=""175px"" height=""250px""></img></td>
  </tr>
  <tr height=200>
    <td width=300><img src=""static/images/keys/z.svg"" width=""35%"" height=""75%""></img></td>
    <td width=300></td>
  </tr>
</table>
  ",,,,,,,,,,,,,,,,,,,,,,,,,,,,
203,0,,html-keyboard-response,203,346576,0.0-7.10-3.10,twki4fnf14m,2022-09-16 18:29:27.059,5f4f990e0e7da9068d0a9802,0,86,59,74,41,40,female,,,"<p style=""font-size:50px"">You win!
+10 points this round!</p>",,,,,,,,,,,,,,,,,,,,,,,,,,,,
204,0,,html-keyboard-response,204,347095,0.0-7.10-4.10,twki4fnf14m,2022-09-16 18:29:27.059,5f4f990e0e7da9068d0a9802,0,86,59,74,41,40,female,,,,,,1.0,choice,10.0,B,Xnc,black,black,stars,bolts,B,Xnc,Xnc,black,bolts,1713.1999998093,0.0,0.0,1,left,771.2999997139,9.0,1.0,1.0,,,
205,0,,html-keyboard-response,205,348071,0.0-7.11-0.11,twki4fnf14m,2022-09-16 18:29:27.059,5f4f990e0e7da9068d0a9802,0,86,59,74,41,40,female,974.4000000954,,"
  <table>
  <tr height=300>
    <td width=300 height=300><img src=""static/images/cards/stack_of_black_moons.svg"" width=""175px"" height=""250px""></img></td>
    <td width=300 height=300><img src=""static/images/cards/stack_of_red_bolts.svg"" width=""175px"" height=""250px""></img></td>
  </tr>
  <tr height=200>
    <td width=300><img src=""static/images/keys/w.svg"" width=""35%"" height=""75%""></img></td>
    <td width=300><img src=""static/images/keys/o.svg"" width=""35%"" height=""75%""></img></td>
  </tr>
</table>
  ",79.0,1.0,,,,,,,,,,,,,,,,,,,,,,,,,,
206,0,,html-keyboard-response,206,349475,0.0-7.11-1.11,twki4fnf14m,2022-09-16 18:29:27.059,5f4f990e0e7da9068d0a9802,0,86,59,74,41,40,female,889.0999999046,,"
  <table>
  <tr height=300>
    <td width=300 height=300><img src=""static/images/cards/back_of_red_bolts.svg"" width=""175px"" height=""250px""></img></td>
    <td width=300 height=300><img src=""static/images/cards/back_of_red_bolts.svg"" width=""175px"" height=""250px""></img></td>
  </tr>
  <tr height=200>
    <td width=300><img src=""static/images/keys/z.svg"" width=""35%"" height=""75%""></img></td>
    <td width=300><img src=""static/images/keys/m.svg"" width=""35%"" height=""75%""></img></td>
  </tr>
</table>
  ",90.0,1.0,,,,,,,,,,,,,,,,,,,,,,,,,,
207,0,,html-keyboard-response,207,350979,0.0-7.11-2.11,twki4fnf14m,2022-09-16 18:29:27.059,5f4f990e0e7da9068d0a9802,0,86,59,74,41,40,female,,,"
  <table>
  <tr height=300>
    <td width=300 height=300><img src=""static/images/cards/6_of_red_bolts.svg"" width=""175px"" height=""250px""></img></td>
    <td width=300 height=300><img src=""static/images/cards/back_of_red_bolts.svg"" width=""175px"" height=""250px""></img></td>
  </tr>
  <tr height=200>
    <td width=300><img src=""static/images/keys/z.svg"" width=""35%"" height=""75%""></img></td>
    <td width=300><img src=""static/images/keys/m.svg"" width=""35%"" height=""75%""></img></td>
  </tr>
</table>
  ",,,,,,,,,,,,,,,,,,,,,,,,,,,,
208,0,,html-keyboard-response,208,352508,0.0-7.11-3.11,twki4fnf14m,2022-09-16 18:29:27.059,5f4f990e0e7da9068d0a9802,0,86,59,74,41,40,female,,,"<p style=""font-size:50px"">You win!
+10 points this round!</p>",,,,,,,,,,,,,,,,,,,,,,,,,,,,
209,0,,html-keyboard-response,209,353026,0.0-7.11-4.11,twki4fnf14m,2022-09-16 18:29:27.059,5f4f990e0e7da9068d0a9802,0,86,59,74,41,40,female,,,,,,1.0,choice,11.0,D,Xc,black,red,moons,bolts,D,Xc,Xc,red,bolts,974.4000000954,1.0,0.0,NA,left,889.0999999046,6.0,1.0,1.0,,,
210,0,,html-keyboard-response,210,354192,0.0-7.12-0.12,twki4fnf14m,2022-09-16 18:29:27.059,5f4f990e0e7da9068d0a9802,0,86,59,74,41,40,female,1165.0,,"
  <table>
  <tr height=300>
    <td width=300 height=300><img src=""static/images/cards/stack_of_black_stars.svg"" width=""175px"" height=""250px""></img></td>
    <td width=300 height=300><img src=""static/images/cards/stack_of_red_stars.svg"" width=""175px"" height=""250px""></img></td>
  </tr>
  <tr height=200>
    <td width=300><img src=""static/images/keys/w.svg"" width=""35%"" height=""75%""></img></td>
    <td width=300><img src=""static/images/keys/o.svg"" width=""35%"" height=""75%""></img></td>
  </tr>
</table>
  ",79.0,1.0,,,,,,,,,,,,,,,,,,,,,,,,,,
211,0,,html-keyboard-response,211,355560,0.0-7.12-1.12,twki4fnf14m,2022-09-16 18:29:27.059,5f4f990e0e7da9068d0a9802,0,86,59,74,41,40,female,865.6999998093,,"
  <table>
  <tr height=300>
    <td width=300 height=300><img src=""static/images/cards/back_of_red_stars.svg"" width=""175px"" height=""250px""></img></td>
    <td width=300 height=300><img src=""static/images/cards/back_of_red_stars.svg"" width=""175px"" height=""250px""></img></td>
  </tr>
  <tr height=200>
    <td width=300><img src=""static/images/keys/z.svg"" width=""35%"" height=""75%""></img></td>
    <td width=300><img src=""static/images/keys/m.svg"" width=""35%"" height=""75%""></img></td>
  </tr>
</table>
  ",77.0,1.0,,,,,,,,,,,,,,,,,,,,,,,,,,
212,0,,html-keyboard-response,212,357070,0.0-7.12-2.12,twki4fnf14m,2022-09-16 18:29:27.059,5f4f990e0e7da9068d0a9802,0,86,59,74,41,40,female,,,"
  <table>
  <tr height=300>
    <td width=300 height=300><img src=""static/images/cards/back_of_red_stars.svg"" width=""175px"" height=""250px""></img></td>
    <td width=300 height=300><img src=""static/images/cards/1_of_red_stars.svg"" width=""175px"" height=""250px""></img></td>
  </tr>
  <tr height=200>
    <td width=300><img src=""static/images/keys/z.svg"" width=""35%"" height=""75%""></img></td>
    <td width=300><img src=""static/images/keys/m.svg"" width=""35%"" height=""75%""></img></td>
  </tr>
</table>
  ",,,,,,,,,,,,,,,,,,,,,,,,,,,,
213,0,,html-keyboard-response,213,358601,0.0-7.12-3.12,twki4fnf14m,2022-09-16 18:29:27.059,5f4f990e0e7da9068d0a9802,0,86,59,74,41,40,female,,,"<p style=""font-size:50px"">You Lose!
No points this round.</p>",,,,,,,,,,,,,,,,,,,,,,,,,,,,
214,0,,html-keyboard-response,214,359118,0.0-7.12-4.12,twki4fnf14m,2022-09-16 18:29:27.059,5f4f990e0e7da9068d0a9802,0,86,59,74,41,40,female,,,,,,1.0,choice,12.0,A,B,black,red,stars,stars,B,A,A,red,stars,1165.0,1.0,1.0,NA,right,865.6999998093,1.0,0.0,0.0,,,
215,0,,html-keyboard-response,215,360316,0.0-7.13-0.13,twki4fnf14m,2022-09-16 18:29:27.059,5f4f990e0e7da9068d0a9802,0,86,59,74,41,40,female,1196.9000000954,,"
  <table>
  <tr height=300>
    <td width=300 height=300><img src=""static/images/cards/stack_of_black_moons.svg"" width=""175px"" height=""250px""></img></td>
    <td width=300 height=300><img src=""static/images/cards/stack_of_red_moons.svg"" width=""175px"" height=""250px""></img></td>
  </tr>
  <tr height=200>
    <td width=300><img src=""static/images/keys/w.svg"" width=""35%"" height=""75%""></img></td>
    <td width=300><img src=""static/images/keys/o.svg"" width=""35%"" height=""75%""></img></td>
  </tr>
</table>
  ",87.0,1.0,,,,,,,,,,,,,,,,,,,,,,,,,,
216,0,,html-keyboard-response,216,361691,0.0-7.13-1.13,twki4fnf14m,2022-09-16 18:29:27.059,5f4f990e0e7da9068d0a9802,0,86,59,74,41,40,female,866.0,,"
  <table>
  <tr height=300>
    <td width=300 height=300><img src=""static/images/cards/back_of_black_moons.svg"" width=""175px"" height=""250px""></img></td>
    <td width=300 height=300><img src=""static/images/cards/back_of_black_moons.svg"" width=""175px"" height=""250px""></img></td>
  </tr>
  <tr height=200>
    <td width=300></td>
    <td width=300><img src=""static/images/keys/m.svg"" width=""35%"" height=""75%""></img></td>
  </tr>
</table>
  ",77.0,1.0,,,,,,,,,,,,,,,,,,,,,,,,,,
217,0,,html-keyboard-response,217,363201,0.0-7.13-2.13,twki4fnf14m,2022-09-16 18:29:27.059,5f4f990e0e7da9068d0a9802,0,86,59,74,41,40,female,,,"
  <table>
  <tr height=300>
    <td width=300 height=300><img src=""static/images/cards/back_of_black_moons.svg"" width=""175px"" height=""250px""></img></td>
    <td width=300 height=300><img src=""static/images/cards/3_of_black_moons.svg"" width=""175px"" height=""250px""></img></td>
  </tr>
  <tr height=200>
    <td width=300></td>
    <td width=300><img src=""static/images/keys/m.svg"" width=""35%"" height=""75%""></img></td>
  </tr>
</table>
  ",,,,,,,,,,,,,,,,,,,,,,,,,,,,
218,0,,html-keyboard-response,218,364732,0.0-7.13-3.13,twki4fnf14m,2022-09-16 18:29:27.059,5f4f990e0e7da9068d0a9802,0,86,59,74,41,40,female,,,"<p style=""font-size:50px"">You Lose!
No points this round.</p>",,,,,,,,,,,,,,,,,,,,,,,,,,,,
219,0,,html-keyboard-response,219,365251,0.0-7.13-4.13,twki4fnf14m,2022-09-16 18:29:27.059,5f4f990e0e7da9068d0a9802,0,86,59,74,41,40,female,,,,,,1.0,choice,13.0,C,D,black,red,moons,moons,D,C,D,black,moons,1196.9000000954,0.0,0.0,0,right,866.0,3.0,0.0,0.0,,,
220,0,,html-keyboard-response,220,366352,0.0-7.14-0.14,twki4fnf14m,2022-09-16 18:29:27.059,5f4f990e0e7da9068d0a9802,0,86,59,74,41,40,female,1099.0,,"
  <table>
  <tr height=300>
    <td width=300 height=300><img src=""static/images/cards/stack_of_red_moons.svg"" width=""175px"" height=""250px""></img></td>
    <td width=300 height=300><img src=""static/images/cards/stack_of_red_stars.svg"" width=""175px"" height=""250px""></img></td>
  </tr>
  <tr height=200>
    <td width=300><img src=""static/images/keys/w.svg"" width=""35%"" height=""75%""></img></td>
    <td width=300><img src=""static/images/keys/o.svg"" width=""35%"" height=""75%""></img></td>
  </tr>
</table>
  ",79.0,1.0,,,,,,,,,,,,,,,,,,,,,,,,,,
221,0,,html-keyboard-response,221,367569,0.0-7.14-1.14,twki4fnf14m,2022-09-16 18:29:27.059,5f4f990e0e7da9068d0a9802,0,86,59,74,41,40,female,712.4000000954,,"
  <table>
  <tr height=300>
    <td width=300 height=300><img src=""static/images/cards/back_of_red_stars.svg"" width=""175px"" height=""250px""></img></td>
    <td width=300 height=300><img src=""static/images/cards/back_of_red_stars.svg"" width=""175px"" height=""250px""></img></td>
  </tr>
  <tr height=200>
    <td width=300><img src=""static/images/keys/z.svg"" width=""35%"" height=""75%""></img></td>
    <td width=300><img src=""static/images/keys/m.svg"" width=""35%"" height=""75%""></img></td>
  </tr>
</table>
  ",90.0,1.0,,,,,,,,,,,,,,,,,,,,,,,,,,
222,0,,html-keyboard-response,222,369073,0.0-7.14-2.14,twki4fnf14m,2022-09-16 18:29:27.059,5f4f990e0e7da9068d0a9802,0,86,59,74,41,40,female,,,"
  <table>
  <tr height=300>
    <td width=300 height=300><img src=""static/images/cards/3_of_red_stars.svg"" width=""175px"" height=""250px""></img></td>
    <td width=300 height=300><img src=""static/images/cards/back_of_red_stars.svg"" width=""175px"" height=""250px""></img></td>
  </tr>
  <tr height=200>
    <td width=300><img src=""static/images/keys/z.svg"" width=""35%"" height=""75%""></img></td>
    <td width=300><img src=""static/images/keys/m.svg"" width=""35%"" height=""75%""></img></td>
  </tr>
</table>
  ",,,,,,,,,,,,,,,,,,,,,,,,,,,,
223,0,,html-keyboard-response,223,370599,0.0-7.14-3.14,twki4fnf14m,2022-09-16 18:29:27.059,5f4f990e0e7da9068d0a9802,0,86,59,74,41,40,female,,,"<p style=""font-size:50px"">You Lose!
No points this round.</p>",,,,,,,,,,,,,,,,,,,,,,,,,,,,
224,0,,html-keyboard-response,224,371118,0.0-7.14-4.14,twki4fnf14m,2022-09-16 18:29:27.059,5f4f990e0e7da9068d0a9802,0,86,59,74,41,40,female,,,,,,1.0,choice,14.0,A,C,red,red,moons,stars,C,A,A,red,stars,1099.0,1.0,1.0,NA,left,712.4000000954,3.0,0.0,0.0,,,
225,0,,html-keyboard-response,225,371961,0.0-7.15-0.15,twki4fnf14m,2022-09-16 18:29:27.059,5f4f990e0e7da9068d0a9802,0,86,59,74,41,40,female,841.5,,"
  <table>
  <tr height=300>
    <td width=300 height=300><img src=""static/images/cards/stack_of_red_stars.svg"" width=""175px"" height=""250px""></img></td>
    <td width=300 height=300><img src=""static/images/cards/stack_of_red_moons.svg"" width=""175px"" height=""250px""></img></td>
  </tr>
  <tr height=200>
    <td width=300><img src=""static/images/keys/w.svg"" width=""35%"" height=""75%""></img></td>
    <td width=300><img src=""static/images/keys/o.svg"" width=""35%"" height=""75%""></img></td>
  </tr>
</table>
  ",87.0,1.0,,,,,,,,,,,,,,,,,,,,,,,,,,
226,0,,html-keyboard-response,226,373133,0.0-7.15-1.15,twki4fnf14m,2022-09-16 18:29:27.059,5f4f990e0e7da9068d0a9802,0,86,59,74,41,40,female,669.0,,"
  <table>
  <tr height=300>
    <td width=300 height=300><img src=""static/images/cards/back_of_red_stars.svg"" width=""175px"" height=""250px""></img></td>
    <td width=300 height=300><img src=""static/images/cards/back_of_red_stars.svg"" width=""175px"" height=""250px""></img></td>
  </tr>
  <tr height=200>
    <td width=300><img src=""static/images/keys/z.svg"" width=""35%"" height=""75%""></img></td>
    <td width=300><img src=""static/images/keys/m.svg"" width=""35%"" height=""75%""></img></td>
  </tr>
</table>
  ",77.0,1.0,,,,,,,,,,,,,,,,,,,,,,,,,,
227,0,,html-keyboard-response,227,374639,0.0-7.15-2.15,twki4fnf14m,2022-09-16 18:29:27.059,5f4f990e0e7da9068d0a9802,0,86,59,74,41,40,female,,,"
  <table>
  <tr height=300>
    <td width=300 height=300><img src=""static/images/cards/back_of_red_stars.svg"" width=""175px"" height=""250px""></img></td>
    <td width=300 height=300><img src=""static/images/cards/1_of_red_stars.svg"" width=""175px"" height=""250px""></img></td>
  </tr>
  <tr height=200>
    <td width=300><img src=""static/images/keys/z.svg"" width=""35%"" height=""75%""></img></td>
    <td width=300><img src=""static/images/keys/m.svg"" width=""35%"" height=""75%""></img></td>
  </tr>
</table>
  ",,,,,,,,,,,,,,,,,,,,,,,,,,,,
228,0,,html-keyboard-response,228,376157,0.0-7.15-3.15,twki4fnf14m,2022-09-16 18:29:27.059,5f4f990e0e7da9068d0a9802,0,86,59,74,41,40,female,,,"<p style=""font-size:50px"">You Lose!
No points this round.</p>",,,,,,,,,,,,,,,,,,,,,,,,,,,,
229,0,,html-keyboard-response,229,376675,0.0-7.15-4.15,twki4fnf14m,2022-09-16 18:29:27.059,5f4f990e0e7da9068d0a9802,0,86,59,74,41,40,female,,,,,,1.0,choice,15.0,A,C,red,red,stars,moons,A,C,A,red,stars,841.5,1.0,1.0,NA,right,669.0,1.0,0.0,0.0,,,
230,0,,html-keyboard-response,230,377368,0.0-7.16-0.16,twki4fnf14m,2022-09-16 18:29:27.059,5f4f990e0e7da9068d0a9802,0,86,59,74,41,40,female,691.4000000954,,"
  <table>
  <tr height=300>
    <td width=300 height=300><img src=""static/images/cards/stack_of_red_moons.svg"" width=""175px"" height=""250px""></img></td>
    <td width=300 height=300><img src=""static/images/cards/stack_of_red_stars.svg"" width=""175px"" height=""250px""></img></td>
  </tr>
  <tr height=200>
    <td width=300><img src=""static/images/keys/w.svg"" width=""35%"" height=""75%""></img></td>
    <td width=300><img src=""static/images/keys/o.svg"" width=""35%"" height=""75%""></img></td>
  </tr>
</table>
  ",87.0,1.0,,,,,,,,,,,,,,,,,,,,,,,,,,
231,0,,html-keyboard-response,231,378804,0.0-7.16-1.16,twki4fnf14m,2022-09-16 18:29:27.059,5f4f990e0e7da9068d0a9802,0,86,59,74,41,40,female,933.3000001907,,"
  <table>
  <tr height=300>
    <td width=300 height=300><img src=""static/images/cards/back_of_red_moons.svg"" width=""175px"" height=""250px""></img></td>
    <td width=300 height=300><img src=""static/images/cards/back_of_red_moons.svg"" width=""175px"" height=""250px""></img></td>
  </tr>
  <tr height=200>
    <td width=300><img src=""static/images/keys/z.svg"" width=""35%"" height=""75%""></img></td>
    <td width=300><img src=""static/images/keys/m.svg"" width=""35%"" height=""75%""></img></td>
  </tr>
</table>
  ",90.0,1.0,,,,,,,,,,,,,,,,,,,,,,,,,,
232,0,,html-keyboard-response,232,380317,0.0-7.16-2.16,twki4fnf14m,2022-09-16 18:29:27.059,5f4f990e0e7da9068d0a9802,0,86,59,74,41,40,female,,,"
  <table>
  <tr height=300>
    <td width=300 height=300><img src=""static/images/cards/2_of_red_moons.svg"" width=""175px"" height=""250px""></img></td>
    <td width=300 height=300><img src=""static/images/cards/back_of_red_moons.svg"" width=""175px"" height=""250px""></img></td>
  </tr>
  <tr height=200>
    <td width=300><img src=""static/images/keys/z.svg"" width=""35%"" height=""75%""></img></td>
    <td width=300><img src=""static/images/keys/m.svg"" width=""35%"" height=""75%""></img></td>
  </tr>
</table>
  ",,,,,,,,,,,,,,,,,,,,,,,,,,,,
233,0,,html-keyboard-response,233,381835,0.0-7.16-3.16,twki4fnf14m,2022-09-16 18:29:27.059,5f4f990e0e7da9068d0a9802,0,86,59,74,41,40,female,,,"<p style=""font-size:50px"">You win!
+10 points this round!</p>",,,,,,,,,,,,,,,,,,,,,,,,,,,,
234,0,,html-keyboard-response,234,382344,0.0-7.16-4.16,twki4fnf14m,2022-09-16 18:29:27.059,5f4f990e0e7da9068d0a9802,0,86,59,74,41,40,female,,,,,,1.0,choice,16.0,A,C,red,red,moons,stars,C,A,C,red,moons,691.4000000954,1.0,0.0,NA,left,933.3000001907,2.0,0.0,1.0,,,
