,index,success,trial_type,trial_index,time_elapsed,internal_node_id,subject,date,prol_id,ctbl,sense_of_control_A,sense_of_control_B,sense_of_control_C,sense_of_control_D,age,gender,rt,url,stimulus,key_press,is_data_trial,phase,trial,deck1,deck2,col1,col2,sym1,sym2,deck_l,deck_r,chosen_deck,chosen_col,chosen_sym,deck_rt,choose_choice,mutual_info,hidden_key,chosen_card,card_rt,player_num,win_card,outcome,mock_rating,npress,response,responses
0,0,1.0,fullscreen,0,4295,0.0-0.0,e2z84lzbop,2022-09-19 17:33:39.500,632085a9bf72d10d30d799c6,1,79,42,60,42,26,Male,,,,,,,,,,,,,,,,,,,,,,,,,,,,,,,
1,0,,external-html,1,24183,0.0-1.0,e2z84lzbop,2022-09-19 17:33:39.500,632085a9bf72d10d30d799c6,1,79,42,60,42,26,Male,19760.099999994,static/js/sub/consent.html,,,,,,,,,,,,,,,,,,,,,,,,,,,,,
2,0,,call-function,2,24185,0.0-2.0,e2z84lzbop,2022-09-19 17:33:39.500,632085a9bf72d10d30d799c6,1,79,42,60,42,26,Male,,,,,,,,,,,,,,,,,,,,,,,,,,,,,,,
3,0,,image-keyboard-response,3,29796,0.0-3.0-0.0,e2z84lzbop,2022-09-19 17:33:39.500,632085a9bf72d10d30d799c6,1,79,42,60,42,26,Male,5610.2000000179,,static/images/instructions_CB_1/Slide1.png,39.0,,,,,,,,,,,,,,,,,,,,,,,,,,,
4,0,,image-keyboard-response,4,38408,0.0-3.1-0.1,e2z84lzbop,2022-09-19 17:33:39.500,632085a9bf72d10d30d799c6,1,79,42,60,42,26,Male,8610.8999999762,,static/images/instructions_CB_1/Slide2.png,39.0,,,,,,,,,,,,,,,,,,,,,,,,,,,
5,0,,image-keyboard-response,5,42359,0.0-3.2-0.2,e2z84lzbop,2022-09-19 17:33:39.500,632085a9bf72d10d30d799c6,1,79,42,60,42,26,Male,3950.599999994,,static/images/instructions_CB_1/Slide3.png,39.0,,,,,,,,,,,,,,,,,,,,,,,,,,,
6,0,,image-keyboard-response,6,46147,0.0-3.3-0.3,e2z84lzbop,2022-09-19 17:33:39.500,632085a9bf72d10d30d799c6,1,79,42,60,42,26,Male,3786.0,,static/images/instructions_CB_1/Slide4.png,39.0,,,,,,,,,,,,,,,,,,,,,,,,,,,
7,0,,image-keyboard-response,7,54744,0.0-3.4-0.4,e2z84lzbop,2022-09-19 17:33:39.500,632085a9bf72d10d30d799c6,1,79,42,60,42,26,Male,8596.5,,static/images/instructions_CB_1/Slide5.png,37.0,,,,,,,,,,,,,,,,,,,,,,,,,,,
8,0,,image-keyboard-response,8,55960,0.0-3.5-0.5,e2z84lzbop,2022-09-19 17:33:39.500,632085a9bf72d10d30d799c6,1,79,42,60,42,26,Male,1215.400000006,,static/images/instructions_CB_1/Slide4.png,39.0,,,,,,,,,,,,,,,,,,,,,,,,,,,
9,0,,image-keyboard-response,9,56764,0.0-3.6-0.6,e2z84lzbop,2022-09-19 17:33:39.500,632085a9bf72d10d30d799c6,1,79,42,60,42,26,Male,802.900000006,,static/images/instructions_CB_1/Slide5.png,39.0,,,,,,,,,,,,,,,,,,,,,,,,,,,
10,0,,image-keyboard-response,10,59041,0.0-3.7-0.7,e2z84lzbop,2022-09-19 17:33:39.500,632085a9bf72d10d30d799c6,1,79,42,60,42,26,Male,2277.0,,static/images/instructions_CB_1/Slide6.png,37.0,,,,,,,,,,,,,,,,,,,,,,,,,,,
11,0,,image-keyboard-response,11,59291,0.0-3.8-0.8,e2z84lzbop,2022-09-19 17:33:39.500,632085a9bf72d10d30d799c6,1,79,42,60,42,26,Male,249.2000000179,,static/images/instructions_CB_1/Slide5.png,37.0,,,,,,,,,,,,,,,,,,,,,,,,,,,
12,0,,image-keyboard-response,12,59784,0.0-3.9-0.9,e2z84lzbop,2022-09-19 17:33:39.500,632085a9bf72d10d30d799c6,1,79,42,60,42,26,Male,492.0,,static/images/instructions_CB_1/Slide4.png,39.0,,,,,,,,,,,,,,,,,,,,,,,,,,,
13,0,,image-keyboard-response,13,59989,0.0-3.10-0.10,e2z84lzbop,2022-09-19 17:33:39.500,632085a9bf72d10d30d799c6,1,79,42,60,42,26,Male,205.0,,static/images/instructions_CB_1/Slide5.png,39.0,,,,,,,,,,,,,,,,,,,,,,,,,,,
14,0,,image-keyboard-response,14,60680,0.0-3.11-0.11,e2z84lzbop,2022-09-19 17:33:39.500,632085a9bf72d10d30d799c6,1,79,42,60,42,26,Male,690.099999994,,static/images/instructions_CB_1/Slide6.png,39.0,,,,,,,,,,,,,,,,,,,,,,,,,,,
15,0,,image-keyboard-response,15,64570,0.0-3.12-0.12,e2z84lzbop,2022-09-19 17:33:39.500,632085a9bf72d10d30d799c6,1,79,42,60,42,26,Male,3889.3000000119,,static/images/instructions_CB_1/Slide7.png,39.0,,,,,,,,,,,,,,,,,,,,,,,,,,,
16,0,,image-keyboard-response,16,71568,0.0-3.13-0.13,e2z84lzbop,2022-09-19 17:33:39.500,632085a9bf72d10d30d799c6,1,79,42,60,42,26,Male,6997.7999999821,,static/images/instructions_CB_1/Slide8.png,39.0,,,,,,,,,,,,,,,,,,,,,,,,,,,
17,0,,image-keyboard-response,17,76956,0.0-3.14-0.14,e2z84lzbop,2022-09-19 17:33:39.500,632085a9bf72d10d30d799c6,1,79,42,60,42,26,Male,5387.6000000238,,static/images/instructions_CB_1/Slide9.png,39.0,,,,,,,,,,,,,,,,,,,,,,,,,,,
18,0,,image-keyboard-response,18,91410,0.0-3.15-0.15,e2z84lzbop,2022-09-19 17:33:39.500,632085a9bf72d10d30d799c6,1,79,42,60,42,26,Male,14453.2999999821,,static/images/instructions_CB_1/Slide10.png,39.0,,,,,,,,,,,,,,,,,,,,,,,,,,,
19,0,,image-keyboard-response,19,94065,0.0-3.16-0.16,e2z84lzbop,2022-09-19 17:33:39.500,632085a9bf72d10d30d799c6,1,79,42,60,42,26,Male,2654.099999994,,static/images/instructions_CB_1/Slide11.png,37.0,,,,,,,,,,,,,,,,,,,,,,,,,,,
20,0,,image-keyboard-response,20,96375,0.0-3.17-0.17,e2z84lzbop,2022-09-19 17:33:39.500,632085a9bf72d10d30d799c6,1,79,42,60,42,26,Male,2309.7000000179,,static/images/instructions_CB_1/Slide10.png,39.0,,,,,,,,,,,,,,,,,,,,,,,,,,,
21,0,,image-keyboard-response,21,121770,0.0-3.18-0.18,e2z84lzbop,2022-09-19 17:33:39.500,632085a9bf72d10d30d799c6,1,79,42,60,42,26,Male,25394.599999994,,static/images/instructions_CB_1/Slide11.png,39.0,,,,,,,,,,,,,,,,,,,,,,,,,,,
22,0,,image-keyboard-response,22,133392,0.0-3.19-0.19,e2z84lzbop,2022-09-19 17:33:39.500,632085a9bf72d10d30d799c6,1,79,42,60,42,26,Male,11621.3000000119,,static/images/instructions_CB_1/Slide12.png,39.0,,,,,,,,,,,,,,,,,,,,,,,,,,,
23,0,,image-keyboard-response,23,151453,0.0-3.20-0.20,e2z84lzbop,2022-09-19 17:33:39.500,632085a9bf72d10d30d799c6,1,79,42,60,42,26,Male,18060.3000000119,,static/images/instructions_CB_1/Slide13.png,39.0,,,,,,,,,,,,,,,,,,,,,,,,,,,
24,0,,image-keyboard-response,24,157545,0.0-3.21-0.21,e2z84lzbop,2022-09-19 17:33:39.500,632085a9bf72d10d30d799c6,1,79,42,60,42,26,Male,6091.1999999881,,static/images/instructions_CB_1/Slide14.png,39.0,,,,,,,,,,,,,,,,,,,,,,,,,,,
25,0,,image-keyboard-response,25,165786,0.0-3.22-0.22,e2z84lzbop,2022-09-19 17:33:39.500,632085a9bf72d10d30d799c6,1,79,42,60,42,26,Male,8240.900000006,,static/images/instructions_CB_1/Slide15.png,39.0,,,,,,,,,,,,,,,,,,,,,,,,,,,
26,0,,image-keyboard-response,26,175088,0.0-3.23-0.23,e2z84lzbop,2022-09-19 17:33:39.500,632085a9bf72d10d30d799c6,1,79,42,60,42,26,Male,9301.7000000179,,static/images/instructions_CB_1/Slide16.png,39.0,,,,,,,,,,,,,,,,,,,,,,,,,,,
27,0,,image-keyboard-response,27,185043,0.0-3.24-0.24,e2z84lzbop,2022-09-19 17:33:39.500,632085a9bf72d10d30d799c6,1,79,42,60,42,26,Male,9954.7999999821,,static/images/instructions_CB_1/Slide17.png,39.0,,,,,,,,,,,,,,,,,,,,,,,,,,,
28,0,,image-keyboard-response,28,190193,0.0-3.25-0.25,e2z84lzbop,2022-09-19 17:33:39.500,632085a9bf72d10d30d799c6,1,79,42,60,42,26,Male,5148.7999999821,,static/images/instructions_CB_1/Slide18.png,39.0,,,,,,,,,,,,,,,,,,,,,,,,,,,
29,0,,image-keyboard-response,29,192045,0.0-3.26-0.26,e2z84lzbop,2022-09-19 17:33:39.500,632085a9bf72d10d30d799c6,1,79,42,60,42,26,Male,1851.6000000238,,static/images/instructions_CB_1/Slide19.png,37.0,,,,,,,,,,,,,,,,,,,,,,,,,,,
30,0,,image-keyboard-response,30,193315,0.0-3.27-0.27,e2z84lzbop,2022-09-19 17:33:39.500,632085a9bf72d10d30d799c6,1,79,42,60,42,26,Male,1269.7999999821,,static/images/instructions_CB_1/Slide18.png,39.0,,,,,,,,,,,,,,,,,,,,,,,,,,,
31,0,,image-keyboard-response,31,200968,0.0-3.28-0.28,e2z84lzbop,2022-09-19 17:33:39.500,632085a9bf72d10d30d799c6,1,79,42,60,42,26,Male,7652.599999994,,static/images/instructions_CB_1/Slide19.png,39.0,,,,,,,,,,,,,,,,,,,,,,,,,,,
32,0,,html-keyboard-response,32,202470,0.0-4.0-0.0,e2z84lzbop,2022-09-19 17:33:39.500,632085a9bf72d10d30d799c6,1,79,42,60,42,26,Male,,,"<img src=""static/images/cards/stack_of_red_moons.svg"" width=""175px"" height=""250px""></img>",,,,,,,,,,,,,,,,,,,,,,,,,,,,
33,0,,html-keyboard-response,33,205972,0.0-4.0-1.0,e2z84lzbop,2022-09-19 17:33:39.500,632085a9bf72d10d30d799c6,1,79,42,60,42,26,Male,,,"
  <table>
  <tr height=300>
    <td width=300 height=300><img src=""static/images/cards/back_of_red_moons.svg"" width=""175px"" height=""250px""></img></td>
    <td width=300 height=300><img src=""static/images/cards/back_of_red_moons.svg"" width=""175px"" height=""250px""></img></td>
  </tr>
  <tr height=200>
    <td width=300><img src=""static/images/keys/z.svg"" width=""35%"" height=""75%""></img></td>
    <td width=300><img src=""static/images/keys/m.svg"" width=""35%"" height=""75%""></img></td>
  </tr>
</table>
  ",,,,,,,,,,,,,,,,,,,,,,,,,,,,
34,0,,html-keyboard-response,34,205973,0.0-4.0-2.0,e2z84lzbop,2022-09-19 17:33:39.500,632085a9bf72d10d30d799c6,1,79,42,60,42,26,Male,,,,,,,,,,,,,,,,,,,,,,,,,,,,,,,
35,0,,html-keyboard-response,35,207474,0.0-4.0-3.0,e2z84lzbop,2022-09-19 17:33:39.500,632085a9bf72d10d30d799c6,1,79,42,60,42,26,Male,,,"<p style=""font-size:50px"">Too slow!</p>",,,,,,,,,,,,,,,,,,,,,,,,,,,,
36,0,,html-keyboard-response,36,207980,0.0-4.0-4.0,e2z84lzbop,2022-09-19 17:33:39.500,632085a9bf72d10d30d799c6,1,79,42,60,42,26,Male,,,,,1.0,learning,0.0,A,,red,,moons,,,,A,red,moons,,1.0,1.0,NA,,,,,,,,,
37,0,,html-keyboard-response,37,209481,0.0-4.1-0.1,e2z84lzbop,2022-09-19 17:33:39.500,632085a9bf72d10d30d799c6,1,79,42,60,42,26,Male,,,"<img src=""static/images/cards/stack_of_black_moons.svg"" width=""175px"" height=""250px""></img>",,,,,,,,,,,,,,,,,,,,,,,,,,,,
38,0,,html-keyboard-response,38,211357,0.0-4.1-1.1,e2z84lzbop,2022-09-19 17:33:39.500,632085a9bf72d10d30d799c6,1,79,42,60,42,26,Male,1373.900000006,,"
  <table>
  <tr height=300>
    <td width=300 height=300><img src=""static/images/cards/back_of_black_moons.svg"" width=""175px"" height=""250px""></img></td>
    <td width=300 height=300><img src=""static/images/cards/back_of_black_moons.svg"" width=""175px"" height=""250px""></img></td>
  </tr>
  <tr height=200>
    <td width=300></td>
    <td width=300><img src=""static/images/keys/m.svg"" width=""35%"" height=""75%""></img></td>
  </tr>
</table>
  ",77.0,,,,,,,,,,,,,,,,,,,,,,,,,1.0,,
39,0,,html-keyboard-response,39,212859,0.0-4.1-2.1,e2z84lzbop,2022-09-19 17:33:39.500,632085a9bf72d10d30d799c6,1,79,42,60,42,26,Male,,,"
  <table>
  <tr height=300>
    <td width=300 height=300><img src=""static/images/cards/back_of_black_moons.svg"" width=""175px"" height=""250px""></img></td>
    <td width=300 height=300><img src=""static/images/cards/10_of_black_moons.svg"" width=""175px"" height=""250px""></img></td>
  </tr>
  <tr height=200>
    <td width=300></td>
    <td width=300><img src=""static/images/keys/m.svg"" width=""35%"" height=""75%""></img></td>
  </tr>
</table>
  ",,,,,,,,,,,,,,,,,,,,,,,,,,,,
40,0,,html-keyboard-response,40,214362,0.0-4.1-3.1,e2z84lzbop,2022-09-19 17:33:39.500,632085a9bf72d10d30d799c6,1,79,42,60,42,26,Male,,,"<p style=""font-size:50px"">You win!
+10 points this round!</p>",,,,,,,,,,,,,,,,,,,,,,,,,,,,
41,0,,html-keyboard-response,41,214868,0.0-4.1-4.1,e2z84lzbop,2022-09-19 17:33:39.500,632085a9bf72d10d30d799c6,1,79,42,60,42,26,Male,,,,,1.0,learning,1.0,B,,black,,moons,,,,B,black,moons,,0.0,1.0,0,right,1373.900000006,10.0,1.0,1.0,,,,
42,0,,html-keyboard-response,42,216370,0.0-4.2-0.2,e2z84lzbop,2022-09-19 17:33:39.500,632085a9bf72d10d30d799c6,1,79,42,60,42,26,Male,,,"<img src=""static/images/cards/stack_of_red_stars.svg"" width=""175px"" height=""250px""></img>",,,,,,,,,,,,,,,,,,,,,,,,,,,,
43,0,,html-keyboard-response,43,218548,0.0-4.2-1.2,e2z84lzbop,2022-09-19 17:33:39.500,632085a9bf72d10d30d799c6,1,79,42,60,42,26,Male,1677.3000000119,,"
  <table>
  <tr height=300>
    <td width=300 height=300><img src=""static/images/cards/back_of_red_stars.svg"" width=""175px"" height=""250px""></img></td>
    <td width=300 height=300><img src=""static/images/cards/back_of_red_stars.svg"" width=""175px"" height=""250px""></img></td>
  </tr>
  <tr height=200>
    <td width=300><img src=""static/images/keys/z.svg"" width=""35%"" height=""75%""></img></td>
    <td width=300><img src=""static/images/keys/m.svg"" width=""35%"" height=""75%""></img></td>
  </tr>
</table>
  ",90.0,,,,,,,,,,,,,,,,,,,,,,,,,1.0,,
44,0,,html-keyboard-response,44,220051,0.0-4.2-2.2,e2z84lzbop,2022-09-19 17:33:39.500,632085a9bf72d10d30d799c6,1,79,42,60,42,26,Male,,,"
  <table>
  <tr height=300>
    <td width=300 height=300><img src=""static/images/cards/3_of_red_stars.svg"" width=""175px"" height=""250px""></img></td>
    <td width=300 height=300><img src=""static/images/cards/back_of_red_stars.svg"" width=""175px"" height=""250px""></img></td>
  </tr>
  <tr height=200>
    <td width=300><img src=""static/images/keys/z.svg"" width=""35%"" height=""75%""></img></td>
    <td width=300><img src=""static/images/keys/m.svg"" width=""35%"" height=""75%""></img></td>
  </tr>
</table>
  ",,,,,,,,,,,,,,,,,,,,,,,,,,,,
45,0,,html-keyboard-response,45,221553,0.0-4.2-3.2,e2z84lzbop,2022-09-19 17:33:39.500,632085a9bf72d10d30d799c6,1,79,42,60,42,26,Male,,,"<p style=""font-size:50px"">You Lose!
No points this round.</p>",,,,,,,,,,,,,,,,,,,,,,,,,,,,
46,0,,html-keyboard-response,46,222058,0.0-4.2-4.2,e2z84lzbop,2022-09-19 17:33:39.500,632085a9bf72d10d30d799c6,1,79,42,60,42,26,Male,,,,,1.0,learning,2.0,C,,red,,stars,,,,C,red,stars,,1.0,0.0,NA,left,1677.3000000119,3.0,0.0,0.0,,,,
47,0,,html-keyboard-response,47,223560,0.0-4.3-0.3,e2z84lzbop,2022-09-19 17:33:39.500,632085a9bf72d10d30d799c6,1,79,42,60,42,26,Male,,,"<img src=""static/images/cards/stack_of_black_stars.svg"" width=""175px"" height=""250px""></img>",,,,,,,,,,,,,,,,,,,,,,,,,,,,
48,0,,html-keyboard-response,48,225187,0.0-4.3-1.3,e2z84lzbop,2022-09-19 17:33:39.500,632085a9bf72d10d30d799c6,1,79,42,60,42,26,Male,1126.0,,"
  <table>
  <tr height=300>
    <td width=300 height=300><img src=""static/images/cards/back_of_black_stars.svg"" width=""175px"" height=""250px""></img></td>
    <td width=300 height=300><img src=""static/images/cards/back_of_black_stars.svg"" width=""175px"" height=""250px""></img></td>
  </tr>
  <tr height=200>
    <td width=300></td>
    <td width=300><img src=""static/images/keys/m.svg"" width=""35%"" height=""75%""></img></td>
  </tr>
</table>
  ",77.0,,,,,,,,,,,,,,,,,,,,,,,,,1.0,,
49,0,,html-keyboard-response,49,226689,0.0-4.3-2.3,e2z84lzbop,2022-09-19 17:33:39.500,632085a9bf72d10d30d799c6,1,79,42,60,42,26,Male,,,"
  <table>
  <tr height=300>
    <td width=300 height=300><img src=""static/images/cards/back_of_black_stars.svg"" width=""175px"" height=""250px""></img></td>
    <td width=300 height=300><img src=""static/images/cards/2_of_black_stars.svg"" width=""175px"" height=""250px""></img></td>
  </tr>
  <tr height=200>
    <td width=300></td>
    <td width=300><img src=""static/images/keys/m.svg"" width=""35%"" height=""75%""></img></td>
  </tr>
</table>
  ",,,,,,,,,,,,,,,,,,,,,,,,,,,,
50,0,,html-keyboard-response,50,228191,0.0-4.3-3.3,e2z84lzbop,2022-09-19 17:33:39.500,632085a9bf72d10d30d799c6,1,79,42,60,42,26,Male,,,"<p style=""font-size:50px"">You win!
+10 points this round!</p>",,,,,,,,,,,,,,,,,,,,,,,,,,,,
51,0,,html-keyboard-response,51,228696,0.0-4.3-4.3,e2z84lzbop,2022-09-19 17:33:39.500,632085a9bf72d10d30d799c6,1,79,42,60,42,26,Male,,,,,1.0,learning,3.0,D,,black,,stars,,,,D,black,stars,,0.0,0.0,0,right,1126.0,2.0,0.0,1.0,,,,
52,0,,html-keyboard-response,52,230197,0.0-4.4-0.4,e2z84lzbop,2022-09-19 17:33:39.500,632085a9bf72d10d30d799c6,1,79,42,60,42,26,Male,,,"<img src=""static/images/cards/stack_of_red_bolts.svg"" width=""175px"" height=""250px""></img>",,,,,,,,,,,,,,,,,,,,,,,,,,,,
53,0,,html-keyboard-response,53,232098,0.0-4.4-1.4,e2z84lzbop,2022-09-19 17:33:39.500,632085a9bf72d10d30d799c6,1,79,42,60,42,26,Male,1397.5,,"
  <table>
  <tr height=300>
    <td width=300 height=300><img src=""static/images/cards/back_of_red_bolts.svg"" width=""175px"" height=""250px""></img></td>
    <td width=300 height=300><img src=""static/images/cards/back_of_red_bolts.svg"" width=""175px"" height=""250px""></img></td>
  </tr>
  <tr height=200>
    <td width=300><img src=""static/images/keys/z.svg"" width=""35%"" height=""75%""></img></td>
    <td width=300><img src=""static/images/keys/m.svg"" width=""35%"" height=""75%""></img></td>
  </tr>
</table>
  ",77.0,,,,,,,,,,,,,,,,,,,,,,,,,1.0,,
54,0,,html-keyboard-response,54,233601,0.0-4.4-2.4,e2z84lzbop,2022-09-19 17:33:39.500,632085a9bf72d10d30d799c6,1,79,42,60,42,26,Male,,,"
  <table>
  <tr height=300>
    <td width=300 height=300><img src=""static/images/cards/back_of_red_bolts.svg"" width=""175px"" height=""250px""></img></td>
    <td width=300 height=300><img src=""static/images/cards/9_of_red_bolts.svg"" width=""175px"" height=""250px""></img></td>
  </tr>
  <tr height=200>
    <td width=300><img src=""static/images/keys/z.svg"" width=""35%"" height=""75%""></img></td>
    <td width=300><img src=""static/images/keys/m.svg"" width=""35%"" height=""75%""></img></td>
  </tr>
</table>
  ",,,,,,,,,,,,,,,,,,,,,,,,,,,,
55,0,,html-keyboard-response,55,235103,0.0-4.4-3.4,e2z84lzbop,2022-09-19 17:33:39.500,632085a9bf72d10d30d799c6,1,79,42,60,42,26,Male,,,"<p style=""font-size:50px"">You win!
+10 points this round!</p>",,,,,,,,,,,,,,,,,,,,,,,,,,,,
56,0,,html-keyboard-response,56,235610,0.0-4.4-4.4,e2z84lzbop,2022-09-19 17:33:39.500,632085a9bf72d10d30d799c6,1,79,42,60,42,26,Male,,,,,1.0,learning,4.0,Xc,,red,,bolts,,,,Xc,red,bolts,,1.0,0.0,NA,right,1397.5,9.0,1.0,1.0,,,,
57,0,,html-keyboard-response,57,237111,0.0-4.5-0.5,e2z84lzbop,2022-09-19 17:33:39.500,632085a9bf72d10d30d799c6,1,79,42,60,42,26,Male,,,"<img src=""static/images/cards/stack_of_black_bolts.svg"" width=""175px"" height=""250px""></img>",,,,,,,,,,,,,,,,,,,,,,,,,,,,
58,0,,html-keyboard-response,58,238626,0.0-4.5-1.5,e2z84lzbop,2022-09-19 17:33:39.500,632085a9bf72d10d30d799c6,1,79,42,60,42,26,Male,1013.3999999762,,"
  <table>
  <tr height=300>
    <td width=300 height=300><img src=""static/images/cards/back_of_black_bolts.svg"" width=""175px"" height=""250px""></img></td>
    <td width=300 height=300><img src=""static/images/cards/back_of_black_bolts.svg"" width=""175px"" height=""250px""></img></td>
  </tr>
  <tr height=200>
    <td width=300><img src=""static/images/keys/z.svg"" width=""35%"" height=""75%""></img></td>
    <td width=300></td>
  </tr>
</table>
  ",90.0,,,,,,,,,,,,,,,,,,,,,,,,,1.0,,
59,0,,html-keyboard-response,59,240128,0.0-4.5-2.5,e2z84lzbop,2022-09-19 17:33:39.500,632085a9bf72d10d30d799c6,1,79,42,60,42,26,Male,,,"
  <table>
  <tr height=300>
    <td width=300 height=300><img src=""static/images/cards/7_of_black_bolts.svg"" width=""175px"" height=""250px""></img></td>
    <td width=300 height=300><img src=""static/images/cards/back_of_black_bolts.svg"" width=""175px"" height=""250px""></img></td>
  </tr>
  <tr height=200>
    <td width=300><img src=""static/images/keys/z.svg"" width=""35%"" height=""75%""></img></td>
    <td width=300></td>
  </tr>
</table>
  ",,,,,,,,,,,,,,,,,,,,,,,,,,,,
60,0,,html-keyboard-response,60,241631,0.0-4.5-3.5,e2z84lzbop,2022-09-19 17:33:39.500,632085a9bf72d10d30d799c6,1,79,42,60,42,26,Male,,,"<p style=""font-size:50px"">You win!
+10 points this round!</p>",,,,,,,,,,,,,,,,,,,,,,,,,,,,
61,0,,html-keyboard-response,61,242139,0.0-4.5-4.5,e2z84lzbop,2022-09-19 17:33:39.500,632085a9bf72d10d30d799c6,1,79,42,60,42,26,Male,,,,,1.0,learning,5.0,Xnc,,black,,bolts,,,,Xnc,black,bolts,,0.0,0.0,1,left,1013.3999999762,7.0,1.0,1.0,,,,
62,0,,html-keyboard-response,62,243640,0.0-4.6-0.6,e2z84lzbop,2022-09-19 17:33:39.500,632085a9bf72d10d30d799c6,1,79,42,60,42,26,Male,,,"<img src=""static/images/cards/stack_of_red_moons.svg"" width=""175px"" height=""250px""></img>",,,,,,,,,,,,,,,,,,,,,,,,,,,,
63,0,,html-keyboard-response,63,245772,0.0-4.6-1.6,e2z84lzbop,2022-09-19 17:33:39.500,632085a9bf72d10d30d799c6,1,79,42,60,42,26,Male,1631.2000000179,,"
  <table>
  <tr height=300>
    <td width=300 height=300><img src=""static/images/cards/back_of_red_moons.svg"" width=""175px"" height=""250px""></img></td>
    <td width=300 height=300><img src=""static/images/cards/back_of_red_moons.svg"" width=""175px"" height=""250px""></img></td>
  </tr>
  <tr height=200>
    <td width=300><img src=""static/images/keys/z.svg"" width=""35%"" height=""75%""></img></td>
    <td width=300><img src=""static/images/keys/m.svg"" width=""35%"" height=""75%""></img></td>
  </tr>
</table>
  ",90.0,,,,,,,,,,,,,,,,,,,,,,,,,1.0,,
64,0,,html-keyboard-response,64,247274,0.0-4.6-2.6,e2z84lzbop,2022-09-19 17:33:39.500,632085a9bf72d10d30d799c6,1,79,42,60,42,26,Male,,,"
  <table>
  <tr height=300>
    <td width=300 height=300><img src=""static/images/cards/6_of_red_moons.svg"" width=""175px"" height=""250px""></img></td>
    <td width=300 height=300><img src=""static/images/cards/back_of_red_moons.svg"" width=""175px"" height=""250px""></img></td>
  </tr>
  <tr height=200>
    <td width=300><img src=""static/images/keys/z.svg"" width=""35%"" height=""75%""></img></td>
    <td width=300><img src=""static/images/keys/m.svg"" width=""35%"" height=""75%""></img></td>
  </tr>
</table>
  ",,,,,,,,,,,,,,,,,,,,,,,,,,,,
65,0,,html-keyboard-response,65,248777,0.0-4.6-3.6,e2z84lzbop,2022-09-19 17:33:39.500,632085a9bf72d10d30d799c6,1,79,42,60,42,26,Male,,,"<p style=""font-size:50px"">You win!
+10 points this round!</p>",,,,,,,,,,,,,,,,,,,,,,,,,,,,
66,0,,html-keyboard-response,66,249283,0.0-4.6-4.6,e2z84lzbop,2022-09-19 17:33:39.500,632085a9bf72d10d30d799c6,1,79,42,60,42,26,Male,,,,,1.0,learning,6.0,A,,red,,moons,,,,A,red,moons,,1.0,1.0,NA,left,1631.2000000179,6.0,1.0,1.0,,,,
67,0,,html-keyboard-response,67,250785,0.0-4.7-0.7,e2z84lzbop,2022-09-19 17:33:39.500,632085a9bf72d10d30d799c6,1,79,42,60,42,26,Male,,,"<img src=""static/images/cards/stack_of_black_moons.svg"" width=""175px"" height=""250px""></img>",,,,,,,,,,,,,,,,,,,,,,,,,,,,
68,0,,html-keyboard-response,68,252239,0.0-4.7-1.7,e2z84lzbop,2022-09-19 17:33:39.500,632085a9bf72d10d30d799c6,1,79,42,60,42,26,Male,952.0,,"
  <table>
  <tr height=300>
    <td width=300 height=300><img src=""static/images/cards/back_of_black_moons.svg"" width=""175px"" height=""250px""></img></td>
    <td width=300 height=300><img src=""static/images/cards/back_of_black_moons.svg"" width=""175px"" height=""250px""></img></td>
  </tr>
  <tr height=200>
    <td width=300></td>
    <td width=300><img src=""static/images/keys/m.svg"" width=""35%"" height=""75%""></img></td>
  </tr>
</table>
  ",77.0,,,,,,,,,,,,,,,,,,,,,,,,,1.0,,
69,0,,html-keyboard-response,69,253740,0.0-4.7-2.7,e2z84lzbop,2022-09-19 17:33:39.500,632085a9bf72d10d30d799c6,1,79,42,60,42,26,Male,,,"
  <table>
  <tr height=300>
    <td width=300 height=300><img src=""static/images/cards/back_of_black_moons.svg"" width=""175px"" height=""250px""></img></td>
    <td width=300 height=300><img src=""static/images/cards/1_of_black_moons.svg"" width=""175px"" height=""250px""></img></td>
  </tr>
  <tr height=200>
    <td width=300></td>
    <td width=300><img src=""static/images/keys/m.svg"" width=""35%"" height=""75%""></img></td>
  </tr>
</table>
  ",,,,,,,,,,,,,,,,,,,,,,,,,,,,
70,0,,html-keyboard-response,70,255243,0.0-4.7-3.7,e2z84lzbop,2022-09-19 17:33:39.500,632085a9bf72d10d30d799c6,1,79,42,60,42,26,Male,,,"<p style=""font-size:50px"">You Lose!
No points this round.</p>",,,,,,,,,,,,,,,,,,,,,,,,,,,,
71,0,,html-keyboard-response,71,255750,0.0-4.7-4.7,e2z84lzbop,2022-09-19 17:33:39.500,632085a9bf72d10d30d799c6,1,79,42,60,42,26,Male,,,,,1.0,learning,7.0,B,,black,,moons,,,,B,black,moons,,0.0,1.0,0,right,952.0,1.0,0.0,0.0,,,,
72,0,,html-keyboard-response,72,257251,0.0-4.8-0.8,e2z84lzbop,2022-09-19 17:33:39.500,632085a9bf72d10d30d799c6,1,79,42,60,42,26,Male,,,"<img src=""static/images/cards/stack_of_red_stars.svg"" width=""175px"" height=""250px""></img>",,,,,,,,,,,,,,,,,,,,,,,,,,,,
73,0,,html-keyboard-response,73,258733,0.0-4.8-1.8,e2z84lzbop,2022-09-19 17:33:39.500,632085a9bf72d10d30d799c6,1,79,42,60,42,26,Male,979.7000000179,,"
  <table>
  <tr height=300>
    <td width=300 height=300><img src=""static/images/cards/back_of_red_stars.svg"" width=""175px"" height=""250px""></img></td>
    <td width=300 height=300><img src=""static/images/cards/back_of_red_stars.svg"" width=""175px"" height=""250px""></img></td>
  </tr>
  <tr height=200>
    <td width=300><img src=""static/images/keys/z.svg"" width=""35%"" height=""75%""></img></td>
    <td width=300><img src=""static/images/keys/m.svg"" width=""35%"" height=""75%""></img></td>
  </tr>
</table>
  ",90.0,,,,,,,,,,,,,,,,,,,,,,,,,1.0,,
74,0,,html-keyboard-response,74,260235,0.0-4.8-2.8,e2z84lzbop,2022-09-19 17:33:39.500,632085a9bf72d10d30d799c6,1,79,42,60,42,26,Male,,,"
  <table>
  <tr height=300>
    <td width=300 height=300><img src=""static/images/cards/8_of_red_stars.svg"" width=""175px"" height=""250px""></img></td>
    <td width=300 height=300><img src=""static/images/cards/back_of_red_stars.svg"" width=""175px"" height=""250px""></img></td>
  </tr>
  <tr height=200>
    <td width=300><img src=""static/images/keys/z.svg"" width=""35%"" height=""75%""></img></td>
    <td width=300><img src=""static/images/keys/m.svg"" width=""35%"" height=""75%""></img></td>
  </tr>
</table>
  ",,,,,,,,,,,,,,,,,,,,,,,,,,,,
75,0,,html-keyboard-response,75,261738,0.0-4.8-3.8,e2z84lzbop,2022-09-19 17:33:39.500,632085a9bf72d10d30d799c6,1,79,42,60,42,26,Male,,,"<p style=""font-size:50px"">You Lose!
No points this round.</p>",,,,,,,,,,,,,,,,,,,,,,,,,,,,
76,0,,html-keyboard-response,76,262246,0.0-4.8-4.8,e2z84lzbop,2022-09-19 17:33:39.500,632085a9bf72d10d30d799c6,1,79,42,60,42,26,Male,,,,,1.0,learning,8.0,C,,red,,stars,,,,C,red,stars,,1.0,0.0,NA,left,979.7000000179,8.0,1.0,0.0,,,,
77,0,,html-keyboard-response,77,263747,0.0-4.9-0.9,e2z84lzbop,2022-09-19 17:33:39.500,632085a9bf72d10d30d799c6,1,79,42,60,42,26,Male,,,"<img src=""static/images/cards/stack_of_black_stars.svg"" width=""175px"" height=""250px""></img>",,,,,,,,,,,,,,,,,,,,,,,,,,,,
78,0,,html-keyboard-response,78,265314,0.0-4.9-1.9,e2z84lzbop,2022-09-19 17:33:39.500,632085a9bf72d10d30d799c6,1,79,42,60,42,26,Male,1064.2999999821,,"
  <table>
  <tr height=300>
    <td width=300 height=300><img src=""static/images/cards/back_of_black_stars.svg"" width=""175px"" height=""250px""></img></td>
    <td width=300 height=300><img src=""static/images/cards/back_of_black_stars.svg"" width=""175px"" height=""250px""></img></td>
  </tr>
  <tr height=200>
    <td width=300><img src=""static/images/keys/z.svg"" width=""35%"" height=""75%""></img></td>
    <td width=300></td>
  </tr>
</table>
  ",90.0,,,,,,,,,,,,,,,,,,,,,,,,,1.0,,
79,0,,html-keyboard-response,79,266815,0.0-4.9-2.9,e2z84lzbop,2022-09-19 17:33:39.500,632085a9bf72d10d30d799c6,1,79,42,60,42,26,Male,,,"
  <table>
  <tr height=300>
    <td width=300 height=300><img src=""static/images/cards/6_of_black_stars.svg"" width=""175px"" height=""250px""></img></td>
    <td width=300 height=300><img src=""static/images/cards/back_of_black_stars.svg"" width=""175px"" height=""250px""></img></td>
  </tr>
  <tr height=200>
    <td width=300><img src=""static/images/keys/z.svg"" width=""35%"" height=""75%""></img></td>
    <td width=300></td>
  </tr>
</table>
  ",,,,,,,,,,,,,,,,,,,,,,,,,,,,
80,0,,html-keyboard-response,80,268317,0.0-4.9-3.9,e2z84lzbop,2022-09-19 17:33:39.500,632085a9bf72d10d30d799c6,1,79,42,60,42,26,Male,,,"<p style=""font-size:50px"">You win!
+10 points this round!</p>",,,,,,,,,,,,,,,,,,,,,,,,,,,,
81,0,,html-keyboard-response,81,268824,0.0-4.9-4.9,e2z84lzbop,2022-09-19 17:33:39.500,632085a9bf72d10d30d799c6,1,79,42,60,42,26,Male,,,,,1.0,learning,9.0,D,,black,,stars,,,,D,black,stars,,0.0,0.0,1,left,1064.2999999821,6.0,1.0,1.0,,,,
82,0,,html-keyboard-response,82,270325,0.0-4.10-0.10,e2z84lzbop,2022-09-19 17:33:39.500,632085a9bf72d10d30d799c6,1,79,42,60,42,26,Male,,,"<img src=""static/images/cards/stack_of_red_bolts.svg"" width=""175px"" height=""250px""></img>",,,,,,,,,,,,,,,,,,,,,,,,,,,,
83,0,,html-keyboard-response,83,271834,0.0-4.10-1.10,e2z84lzbop,2022-09-19 17:33:39.500,632085a9bf72d10d30d799c6,1,79,42,60,42,26,Male,1006.900000006,,"
  <table>
  <tr height=300>
    <td width=300 height=300><img src=""static/images/cards/back_of_red_bolts.svg"" width=""175px"" height=""250px""></img></td>
    <td width=300 height=300><img src=""static/images/cards/back_of_red_bolts.svg"" width=""175px"" height=""250px""></img></td>
  </tr>
  <tr height=200>
    <td width=300><img src=""static/images/keys/z.svg"" width=""35%"" height=""75%""></img></td>
    <td width=300><img src=""static/images/keys/m.svg"" width=""35%"" height=""75%""></img></td>
  </tr>
</table>
  ",90.0,,,,,,,,,,,,,,,,,,,,,,,,,1.0,,
84,0,,html-keyboard-response,84,273336,0.0-4.10-2.10,e2z84lzbop,2022-09-19 17:33:39.500,632085a9bf72d10d30d799c6,1,79,42,60,42,26,Male,,,"
  <table>
  <tr height=300>
    <td width=300 height=300><img src=""static/images/cards/7_of_red_bolts.svg"" width=""175px"" height=""250px""></img></td>
    <td width=300 height=300><img src=""static/images/cards/back_of_red_bolts.svg"" width=""175px"" height=""250px""></img></td>
  </tr>
  <tr height=200>
    <td width=300><img src=""static/images/keys/z.svg"" width=""35%"" height=""75%""></img></td>
    <td width=300><img src=""static/images/keys/m.svg"" width=""35%"" height=""75%""></img></td>
  </tr>
</table>
  ",,,,,,,,,,,,,,,,,,,,,,,,,,,,
85,0,,html-keyboard-response,85,274839,0.0-4.10-3.10,e2z84lzbop,2022-09-19 17:33:39.500,632085a9bf72d10d30d799c6,1,79,42,60,42,26,Male,,,"<p style=""font-size:50px"">You win!
+10 points this round!</p>",,,,,,,,,,,,,,,,,,,,,,,,,,,,
86,0,,html-keyboard-response,86,275346,0.0-4.10-4.10,e2z84lzbop,2022-09-19 17:33:39.500,632085a9bf72d10d30d799c6,1,79,42,60,42,26,Male,,,,,1.0,learning,10.0,Xc,,red,,bolts,,,,Xc,red,bolts,,1.0,0.0,NA,left,1006.900000006,7.0,1.0,1.0,,,,
87,0,,html-keyboard-response,87,276847,0.0-4.11-0.11,e2z84lzbop,2022-09-19 17:33:39.500,632085a9bf72d10d30d799c6,1,79,42,60,42,26,Male,,,"<img src=""static/images/cards/stack_of_black_bolts.svg"" width=""175px"" height=""250px""></img>",,,,,,,,,,,,,,,,,,,,,,,,,,,,
88,0,,html-keyboard-response,88,277798,0.0-4.11-1.11,e2z84lzbop,2022-09-19 17:33:39.500,632085a9bf72d10d30d799c6,1,79,42,60,42,26,Male,448.400000006,,"
  <table>
  <tr height=300>
    <td width=300 height=300><img src=""static/images/cards/back_of_black_bolts.svg"" width=""175px"" height=""250px""></img></td>
    <td width=300 height=300><img src=""static/images/cards/back_of_black_bolts.svg"" width=""175px"" height=""250px""></img></td>
  </tr>
  <tr height=200>
    <td width=300></td>
    <td width=300><img src=""static/images/keys/m.svg"" width=""35%"" height=""75%""></img></td>
  </tr>
</table>
  ",77.0,,,,,,,,,,,,,,,,,,,,,,,,,1.0,,
89,0,,html-keyboard-response,89,279300,0.0-4.11-2.11,e2z84lzbop,2022-09-19 17:33:39.500,632085a9bf72d10d30d799c6,1,79,42,60,42,26,Male,,,"
  <table>
  <tr height=300>
    <td width=300 height=300><img src=""static/images/cards/back_of_black_bolts.svg"" width=""175px"" height=""250px""></img></td>
    <td width=300 height=300><img src=""static/images/cards/3_of_black_bolts.svg"" width=""175px"" height=""250px""></img></td>
  </tr>
  <tr height=200>
    <td width=300></td>
    <td width=300><img src=""static/images/keys/m.svg"" width=""35%"" height=""75%""></img></td>
  </tr>
</table>
  ",,,,,,,,,,,,,,,,,,,,,,,,,,,,
90,0,,html-keyboard-response,90,280802,0.0-4.11-3.11,e2z84lzbop,2022-09-19 17:33:39.500,632085a9bf72d10d30d799c6,1,79,42,60,42,26,Male,,,"<p style=""font-size:50px"">You win!
+10 points this round!</p>",,,,,,,,,,,,,,,,,,,,,,,,,,,,
91,0,,html-keyboard-response,91,281308,0.0-4.11-4.11,e2z84lzbop,2022-09-19 17:33:39.500,632085a9bf72d10d30d799c6,1,79,42,60,42,26,Male,,,,,1.0,learning,11.0,Xnc,,black,,bolts,,,,Xnc,black,bolts,,0.0,0.0,0,right,448.400000006,3.0,0.0,1.0,,,,
92,0,,html-keyboard-response,92,282809,0.0-4.12-0.12,e2z84lzbop,2022-09-19 17:33:39.500,632085a9bf72d10d30d799c6,1,79,42,60,42,26,Male,,,"<img src=""static/images/cards/stack_of_red_moons.svg"" width=""175px"" height=""250px""></img>",,,,,,,,,,,,,,,,,,,,,,,,,,,,
93,0,,html-keyboard-response,93,283839,0.0-4.12-1.12,e2z84lzbop,2022-09-19 17:33:39.500,632085a9bf72d10d30d799c6,1,79,42,60,42,26,Male,528.1999999881,,"
  <table>
  <tr height=300>
    <td width=300 height=300><img src=""static/images/cards/back_of_red_moons.svg"" width=""175px"" height=""250px""></img></td>
    <td width=300 height=300><img src=""static/images/cards/back_of_red_moons.svg"" width=""175px"" height=""250px""></img></td>
  </tr>
  <tr height=200>
    <td width=300><img src=""static/images/keys/z.svg"" width=""35%"" height=""75%""></img></td>
    <td width=300><img src=""static/images/keys/m.svg"" width=""35%"" height=""75%""></img></td>
  </tr>
</table>
  ",90.0,,,,,,,,,,,,,,,,,,,,,,,,,1.0,,
94,0,,html-keyboard-response,94,285341,0.0-4.12-2.12,e2z84lzbop,2022-09-19 17:33:39.500,632085a9bf72d10d30d799c6,1,79,42,60,42,26,Male,,,"
  <table>
  <tr height=300>
    <td width=300 height=300><img src=""static/images/cards/2_of_red_moons.svg"" width=""175px"" height=""250px""></img></td>
    <td width=300 height=300><img src=""static/images/cards/back_of_red_moons.svg"" width=""175px"" height=""250px""></img></td>
  </tr>
  <tr height=200>
    <td width=300><img src=""static/images/keys/z.svg"" width=""35%"" height=""75%""></img></td>
    <td width=300><img src=""static/images/keys/m.svg"" width=""35%"" height=""75%""></img></td>
  </tr>
</table>
  ",,,,,,,,,,,,,,,,,,,,,,,,,,,,
95,0,,html-keyboard-response,95,286843,0.0-4.12-3.12,e2z84lzbop,2022-09-19 17:33:39.500,632085a9bf72d10d30d799c6,1,79,42,60,42,26,Male,,,"<p style=""font-size:50px"">You Lose!
No points this round.</p>",,,,,,,,,,,,,,,,,,,,,,,,,,,,
96,0,,html-keyboard-response,96,287349,0.0-4.12-4.12,e2z84lzbop,2022-09-19 17:33:39.500,632085a9bf72d10d30d799c6,1,79,42,60,42,26,Male,,,,,1.0,learning,12.0,A,,red,,moons,,,,A,red,moons,,1.0,1.0,NA,left,528.1999999881,2.0,0.0,0.0,,,,
97,0,,html-keyboard-response,97,288851,0.0-4.13-0.13,e2z84lzbop,2022-09-19 17:33:39.500,632085a9bf72d10d30d799c6,1,79,42,60,42,26,Male,,,"<img src=""static/images/cards/stack_of_black_moons.svg"" width=""175px"" height=""250px""></img>",,,,,,,,,,,,,,,,,,,,,,,,,,,,
98,0,,html-keyboard-response,98,289946,0.0-4.13-1.13,e2z84lzbop,2022-09-19 17:33:39.500,632085a9bf72d10d30d799c6,1,79,42,60,42,26,Male,594.099999994,,"
  <table>
  <tr height=300>
    <td width=300 height=300><img src=""static/images/cards/back_of_black_moons.svg"" width=""175px"" height=""250px""></img></td>
    <td width=300 height=300><img src=""static/images/cards/back_of_black_moons.svg"" width=""175px"" height=""250px""></img></td>
  </tr>
  <tr height=200>
    <td width=300><img src=""static/images/keys/z.svg"" width=""35%"" height=""75%""></img></td>
    <td width=300></td>
  </tr>
</table>
  ",90.0,,,,,,,,,,,,,,,,,,,,,,,,,1.0,,
99,0,,html-keyboard-response,99,291448,0.0-4.13-2.13,e2z84lzbop,2022-09-19 17:33:39.500,632085a9bf72d10d30d799c6,1,79,42,60,42,26,Male,,,"
  <table>
  <tr height=300>
    <td width=300 height=300><img src=""static/images/cards/1_of_black_moons.svg"" width=""175px"" height=""250px""></img></td>
    <td width=300 height=300><img src=""static/images/cards/back_of_black_moons.svg"" width=""175px"" height=""250px""></img></td>
  </tr>
  <tr height=200>
    <td width=300><img src=""static/images/keys/z.svg"" width=""35%"" height=""75%""></img></td>
    <td width=300></td>
  </tr>
</table>
  ",,,,,,,,,,,,,,,,,,,,,,,,,,,,
100,0,,html-keyboard-response,100,292951,0.0-4.13-3.13,e2z84lzbop,2022-09-19 17:33:39.500,632085a9bf72d10d30d799c6,1,79,42,60,42,26,Male,,,"<p style=""font-size:50px"">You Lose!
No points this round.</p>",,,,,,,,,,,,,,,,,,,,,,,,,,,,
101,0,,html-keyboard-response,101,293458,0.0-4.13-4.13,e2z84lzbop,2022-09-19 17:33:39.500,632085a9bf72d10d30d799c6,1,79,42,60,42,26,Male,,,,,1.0,learning,13.0,B,,black,,moons,,,,B,black,moons,,0.0,1.0,1,left,594.099999994,1.0,0.0,0.0,,,,
102,0,,html-keyboard-response,102,294959,0.0-4.14-0.14,e2z84lzbop,2022-09-19 17:33:39.500,632085a9bf72d10d30d799c6,1,79,42,60,42,26,Male,,,"<img src=""static/images/cards/stack_of_red_stars.svg"" width=""175px"" height=""250px""></img>",,,,,,,,,,,,,,,,,,,,,,,,,,,,
103,0,,html-keyboard-response,103,296240,0.0-4.14-1.14,e2z84lzbop,2022-09-19 17:33:39.500,632085a9bf72d10d30d799c6,1,79,42,60,42,26,Male,778.099999994,,"
  <table>
  <tr height=300>
    <td width=300 height=300><img src=""static/images/cards/back_of_red_stars.svg"" width=""175px"" height=""250px""></img></td>
    <td width=300 height=300><img src=""static/images/cards/back_of_red_stars.svg"" width=""175px"" height=""250px""></img></td>
  </tr>
  <tr height=200>
    <td width=300><img src=""static/images/keys/z.svg"" width=""35%"" height=""75%""></img></td>
    <td width=300><img src=""static/images/keys/m.svg"" width=""35%"" height=""75%""></img></td>
  </tr>
</table>
  ",77.0,,,,,,,,,,,,,,,,,,,,,,,,,1.0,,
104,0,,html-keyboard-response,104,297742,0.0-4.14-2.14,e2z84lzbop,2022-09-19 17:33:39.500,632085a9bf72d10d30d799c6,1,79,42,60,42,26,Male,,,"
  <table>
  <tr height=300>
    <td width=300 height=300><img src=""static/images/cards/back_of_red_stars.svg"" width=""175px"" height=""250px""></img></td>
    <td width=300 height=300><img src=""static/images/cards/3_of_red_stars.svg"" width=""175px"" height=""250px""></img></td>
  </tr>
  <tr height=200>
    <td width=300><img src=""static/images/keys/z.svg"" width=""35%"" height=""75%""></img></td>
    <td width=300><img src=""static/images/keys/m.svg"" width=""35%"" height=""75%""></img></td>
  </tr>
</table>
  ",,,,,,,,,,,,,,,,,,,,,,,,,,,,
105,0,,html-keyboard-response,105,299244,0.0-4.14-3.14,e2z84lzbop,2022-09-19 17:33:39.500,632085a9bf72d10d30d799c6,1,79,42,60,42,26,Male,,,"<p style=""font-size:50px"">You Lose!
No points this round.</p>",,,,,,,,,,,,,,,,,,,,,,,,,,,,
106,0,,html-keyboard-response,106,299750,0.0-4.14-4.14,e2z84lzbop,2022-09-19 17:33:39.500,632085a9bf72d10d30d799c6,1,79,42,60,42,26,Male,,,,,1.0,learning,14.0,C,,red,,stars,,,,C,red,stars,,1.0,0.0,NA,right,778.099999994,3.0,0.0,0.0,,,,
107,0,,html-keyboard-response,107,301252,0.0-4.15-0.15,e2z84lzbop,2022-09-19 17:33:39.500,632085a9bf72d10d30d799c6,1,79,42,60,42,26,Male,,,"<img src=""static/images/cards/stack_of_black_stars.svg"" width=""175px"" height=""250px""></img>",,,,,,,,,,,,,,,,,,,,,,,,,,,,
108,0,,html-keyboard-response,108,302813,0.0-4.15-1.15,e2z84lzbop,2022-09-19 17:33:39.500,632085a9bf72d10d30d799c6,1,79,42,60,42,26,Male,1058.400000006,,"
  <table>
  <tr height=300>
    <td width=300 height=300><img src=""static/images/cards/back_of_black_stars.svg"" width=""175px"" height=""250px""></img></td>
    <td width=300 height=300><img src=""static/images/cards/back_of_black_stars.svg"" width=""175px"" height=""250px""></img></td>
  </tr>
  <tr height=200>
    <td width=300><img src=""static/images/keys/z.svg"" width=""35%"" height=""75%""></img></td>
    <td width=300></td>
  </tr>
</table>
  ",90.0,,,,,,,,,,,,,,,,,,,,,,,,,1.0,,
109,0,,html-keyboard-response,109,304315,0.0-4.15-2.15,e2z84lzbop,2022-09-19 17:33:39.500,632085a9bf72d10d30d799c6,1,79,42,60,42,26,Male,,,"
  <table>
  <tr height=300>
    <td width=300 height=300><img src=""static/images/cards/9_of_black_stars.svg"" width=""175px"" height=""250px""></img></td>
    <td width=300 height=300><img src=""static/images/cards/back_of_black_stars.svg"" width=""175px"" height=""250px""></img></td>
  </tr>
  <tr height=200>
    <td width=300><img src=""static/images/keys/z.svg"" width=""35%"" height=""75%""></img></td>
    <td width=300></td>
  </tr>
</table>
  ",,,,,,,,,,,,,,,,,,,,,,,,,,,,
110,0,,html-keyboard-response,110,305819,0.0-4.15-3.15,e2z84lzbop,2022-09-19 17:33:39.500,632085a9bf72d10d30d799c6,1,79,42,60,42,26,Male,,,"<p style=""font-size:50px"">You win!
+10 points this round!</p>",,,,,,,,,,,,,,,,,,,,,,,,,,,,
111,0,,html-keyboard-response,111,306325,0.0-4.15-4.15,e2z84lzbop,2022-09-19 17:33:39.500,632085a9bf72d10d30d799c6,1,79,42,60,42,26,Male,,,,,1.0,learning,15.0,D,,black,,stars,,,,D,black,stars,,0.0,0.0,1,left,1058.400000006,9.0,1.0,1.0,,,,
112,0,,html-keyboard-response,112,307827,0.0-4.16-0.16,e2z84lzbop,2022-09-19 17:33:39.500,632085a9bf72d10d30d799c6,1,79,42,60,42,26,Male,,,"<img src=""static/images/cards/stack_of_red_bolts.svg"" width=""175px"" height=""250px""></img>",,,,,,,,,,,,,,,,,,,,,,,,,,,,
113,0,,html-keyboard-response,113,309451,0.0-4.16-1.16,e2z84lzbop,2022-09-19 17:33:39.500,632085a9bf72d10d30d799c6,1,79,42,60,42,26,Male,1122.7000000179,,"
  <table>
  <tr height=300>
    <td width=300 height=300><img src=""static/images/cards/back_of_red_bolts.svg"" width=""175px"" height=""250px""></img></td>
    <td width=300 height=300><img src=""static/images/cards/back_of_red_bolts.svg"" width=""175px"" height=""250px""></img></td>
  </tr>
  <tr height=200>
    <td width=300><img src=""static/images/keys/z.svg"" width=""35%"" height=""75%""></img></td>
    <td width=300><img src=""static/images/keys/m.svg"" width=""35%"" height=""75%""></img></td>
  </tr>
</table>
  ",90.0,,,,,,,,,,,,,,,,,,,,,,,,,1.0,,
114,0,,html-keyboard-response,114,310953,0.0-4.16-2.16,e2z84lzbop,2022-09-19 17:33:39.500,632085a9bf72d10d30d799c6,1,79,42,60,42,26,Male,,,"
  <table>
  <tr height=300>
    <td width=300 height=300><img src=""static/images/cards/1_of_red_bolts.svg"" width=""175px"" height=""250px""></img></td>
    <td width=300 height=300><img src=""static/images/cards/back_of_red_bolts.svg"" width=""175px"" height=""250px""></img></td>
  </tr>
  <tr height=200>
    <td width=300><img src=""static/images/keys/z.svg"" width=""35%"" height=""75%""></img></td>
    <td width=300><img src=""static/images/keys/m.svg"" width=""35%"" height=""75%""></img></td>
  </tr>
</table>
  ",,,,,,,,,,,,,,,,,,,,,,,,,,,,
115,0,,html-keyboard-response,115,312455,0.0-4.16-3.16,e2z84lzbop,2022-09-19 17:33:39.500,632085a9bf72d10d30d799c6,1,79,42,60,42,26,Male,,,"<p style=""font-size:50px"">You win!
+10 points this round!</p>",,,,,,,,,,,,,,,,,,,,,,,,,,,,
116,0,,html-keyboard-response,116,312961,0.0-4.16-4.16,e2z84lzbop,2022-09-19 17:33:39.500,632085a9bf72d10d30d799c6,1,79,42,60,42,26,Male,,,,,1.0,learning,16.0,Xc,,red,,bolts,,,,Xc,red,bolts,,1.0,0.0,NA,left,1122.7000000179,1.0,0.0,1.0,,,,
117,0,,html-keyboard-response,117,314462,0.0-4.17-0.17,e2z84lzbop,2022-09-19 17:33:39.500,632085a9bf72d10d30d799c6,1,79,42,60,42,26,Male,,,"<img src=""static/images/cards/stack_of_black_bolts.svg"" width=""175px"" height=""250px""></img>",,,,,,,,,,,,,,,,,,,,,,,,,,,,
118,0,,html-keyboard-response,118,316026,0.0-4.17-1.17,e2z84lzbop,2022-09-19 17:33:39.500,632085a9bf72d10d30d799c6,1,79,42,60,42,26,Male,1061.8999999762,,"
  <table>
  <tr height=300>
    <td width=300 height=300><img src=""static/images/cards/back_of_black_bolts.svg"" width=""175px"" height=""250px""></img></td>
    <td width=300 height=300><img src=""static/images/cards/back_of_black_bolts.svg"" width=""175px"" height=""250px""></img></td>
  </tr>
  <tr height=200>
    <td width=300><img src=""static/images/keys/z.svg"" width=""35%"" height=""75%""></img></td>
    <td width=300></td>
  </tr>
</table>
  ",90.0,,,,,,,,,,,,,,,,,,,,,,,,,1.0,,
119,0,,html-keyboard-response,119,317528,0.0-4.17-2.17,e2z84lzbop,2022-09-19 17:33:39.500,632085a9bf72d10d30d799c6,1,79,42,60,42,26,Male,,,"
  <table>
  <tr height=300>
    <td width=300 height=300><img src=""static/images/cards/3_of_black_bolts.svg"" width=""175px"" height=""250px""></img></td>
    <td width=300 height=300><img src=""static/images/cards/back_of_black_bolts.svg"" width=""175px"" height=""250px""></img></td>
  </tr>
  <tr height=200>
    <td width=300><img src=""static/images/keys/z.svg"" width=""35%"" height=""75%""></img></td>
    <td width=300></td>
  </tr>
</table>
  ",,,,,,,,,,,,,,,,,,,,,,,,,,,,
120,0,,html-keyboard-response,120,319031,0.0-4.17-3.17,e2z84lzbop,2022-09-19 17:33:39.500,632085a9bf72d10d30d799c6,1,79,42,60,42,26,Male,,,"<p style=""font-size:50px"">You win!
+10 points this round!</p>",,,,,,,,,,,,,,,,,,,,,,,,,,,,
121,0,,html-keyboard-response,121,319538,0.0-4.17-4.17,e2z84lzbop,2022-09-19 17:33:39.500,632085a9bf72d10d30d799c6,1,79,42,60,42,26,Male,,,,,1.0,learning,17.0,Xnc,,black,,bolts,,,,Xnc,black,bolts,,0.0,0.0,1,left,1061.8999999762,3.0,0.0,1.0,,,,
122,0,,html-keyboard-response,122,321039,0.0-4.18-0.18,e2z84lzbop,2022-09-19 17:33:39.500,632085a9bf72d10d30d799c6,1,79,42,60,42,26,Male,,,"<img src=""static/images/cards/stack_of_red_moons.svg"" width=""175px"" height=""250px""></img>",,,,,,,,,,,,,,,,,,,,,,,,,,,,
123,0,,html-keyboard-response,123,322537,0.0-4.18-1.18,e2z84lzbop,2022-09-19 17:33:39.500,632085a9bf72d10d30d799c6,1,79,42,60,42,26,Male,996.5,,"
  <table>
  <tr height=300>
    <td width=300 height=300><img src=""static/images/cards/back_of_red_moons.svg"" width=""175px"" height=""250px""></img></td>
    <td width=300 height=300><img src=""static/images/cards/back_of_red_moons.svg"" width=""175px"" height=""250px""></img></td>
  </tr>
  <tr height=200>
    <td width=300><img src=""static/images/keys/z.svg"" width=""35%"" height=""75%""></img></td>
    <td width=300><img src=""static/images/keys/m.svg"" width=""35%"" height=""75%""></img></td>
  </tr>
</table>
  ",77.0,,,,,,,,,,,,,,,,,,,,,,,,,1.0,,
124,0,,html-keyboard-response,124,324039,0.0-4.18-2.18,e2z84lzbop,2022-09-19 17:33:39.500,632085a9bf72d10d30d799c6,1,79,42,60,42,26,Male,,,"
  <table>
  <tr height=300>
    <td width=300 height=300><img src=""static/images/cards/back_of_red_moons.svg"" width=""175px"" height=""250px""></img></td>
    <td width=300 height=300><img src=""static/images/cards/3_of_red_moons.svg"" width=""175px"" height=""250px""></img></td>
  </tr>
  <tr height=200>
    <td width=300><img src=""static/images/keys/z.svg"" width=""35%"" height=""75%""></img></td>
    <td width=300><img src=""static/images/keys/m.svg"" width=""35%"" height=""75%""></img></td>
  </tr>
</table>
  ",,,,,,,,,,,,,,,,,,,,,,,,,,,,
125,0,,html-keyboard-response,125,325541,0.0-4.18-3.18,e2z84lzbop,2022-09-19 17:33:39.500,632085a9bf72d10d30d799c6,1,79,42,60,42,26,Male,,,"<p style=""font-size:50px"">You Lose!
No points this round.</p>",,,,,,,,,,,,,,,,,,,,,,,,,,,,
126,0,,html-keyboard-response,126,326048,0.0-4.18-4.18,e2z84lzbop,2022-09-19 17:33:39.500,632085a9bf72d10d30d799c6,1,79,42,60,42,26,Male,,,,,1.0,learning,18.0,A,,red,,moons,,,,A,red,moons,,1.0,1.0,NA,right,996.5,3.0,0.0,0.0,,,,
127,0,,html-keyboard-response,127,327550,0.0-4.19-0.19,e2z84lzbop,2022-09-19 17:33:39.500,632085a9bf72d10d30d799c6,1,79,42,60,42,26,Male,,,"<img src=""static/images/cards/stack_of_black_moons.svg"" width=""175px"" height=""250px""></img>",,,,,,,,,,,,,,,,,,,,,,,,,,,,
128,0,,html-keyboard-response,128,329229,0.0-4.19-1.19,e2z84lzbop,2022-09-19 17:33:39.500,632085a9bf72d10d30d799c6,1,79,42,60,42,26,Male,1177.400000006,,"
  <table>
  <tr height=300>
    <td width=300 height=300><img src=""static/images/cards/back_of_black_moons.svg"" width=""175px"" height=""250px""></img></td>
    <td width=300 height=300><img src=""static/images/cards/back_of_black_moons.svg"" width=""175px"" height=""250px""></img></td>
  </tr>
  <tr height=200>
    <td width=300><img src=""static/images/keys/z.svg"" width=""35%"" height=""75%""></img></td>
    <td width=300></td>
  </tr>
</table>
  ",90.0,,,,,,,,,,,,,,,,,,,,,,,,,1.0,,
129,0,,html-keyboard-response,129,330732,0.0-4.19-2.19,e2z84lzbop,2022-09-19 17:33:39.500,632085a9bf72d10d30d799c6,1,79,42,60,42,26,Male,,,"
  <table>
  <tr height=300>
    <td width=300 height=300><img src=""static/images/cards/6_of_black_moons.svg"" width=""175px"" height=""250px""></img></td>
    <td width=300 height=300><img src=""static/images/cards/back_of_black_moons.svg"" width=""175px"" height=""250px""></img></td>
  </tr>
  <tr height=200>
    <td width=300><img src=""static/images/keys/z.svg"" width=""35%"" height=""75%""></img></td>
    <td width=300></td>
  </tr>
</table>
  ",,,,,,,,,,,,,,,,,,,,,,,,,,,,
130,0,,html-keyboard-response,130,332234,0.0-4.19-3.19,e2z84lzbop,2022-09-19 17:33:39.500,632085a9bf72d10d30d799c6,1,79,42,60,42,26,Male,,,"<p style=""font-size:50px"">You win!
+10 points this round!</p>",,,,,,,,,,,,,,,,,,,,,,,,,,,,
131,0,,html-keyboard-response,131,332740,0.0-4.19-4.19,e2z84lzbop,2022-09-19 17:33:39.500,632085a9bf72d10d30d799c6,1,79,42,60,42,26,Male,,,,,1.0,learning,19.0,B,,black,,moons,,,,B,black,moons,,0.0,1.0,1,left,1177.400000006,6.0,1.0,1.0,,,,
132,0,,html-keyboard-response,132,334242,0.0-4.20-0.20,e2z84lzbop,2022-09-19 17:33:39.500,632085a9bf72d10d30d799c6,1,79,42,60,42,26,Male,,,"<img src=""static/images/cards/stack_of_red_stars.svg"" width=""175px"" height=""250px""></img>",,,,,,,,,,,,,,,,,,,,,,,,,,,,
133,0,,html-keyboard-response,133,335160,0.0-4.20-1.20,e2z84lzbop,2022-09-19 17:33:39.500,632085a9bf72d10d30d799c6,1,79,42,60,42,26,Male,416.1999999881,,"
  <table>
  <tr height=300>
    <td width=300 height=300><img src=""static/images/cards/back_of_red_stars.svg"" width=""175px"" height=""250px""></img></td>
    <td width=300 height=300><img src=""static/images/cards/back_of_red_stars.svg"" width=""175px"" height=""250px""></img></td>
  </tr>
  <tr height=200>
    <td width=300><img src=""static/images/keys/z.svg"" width=""35%"" height=""75%""></img></td>
    <td width=300><img src=""static/images/keys/m.svg"" width=""35%"" height=""75%""></img></td>
  </tr>
</table>
  ",77.0,,,,,,,,,,,,,,,,,,,,,,,,,1.0,,
134,0,,html-keyboard-response,134,336661,0.0-4.20-2.20,e2z84lzbop,2022-09-19 17:33:39.500,632085a9bf72d10d30d799c6,1,79,42,60,42,26,Male,,,"
  <table>
  <tr height=300>
    <td width=300 height=300><img src=""static/images/cards/back_of_red_stars.svg"" width=""175px"" height=""250px""></img></td>
    <td width=300 height=300><img src=""static/images/cards/8_of_red_stars.svg"" width=""175px"" height=""250px""></img></td>
  </tr>
  <tr height=200>
    <td width=300><img src=""static/images/keys/z.svg"" width=""35%"" height=""75%""></img></td>
    <td width=300><img src=""static/images/keys/m.svg"" width=""35%"" height=""75%""></img></td>
  </tr>
</table>
  ",,,,,,,,,,,,,,,,,,,,,,,,,,,,
135,0,,html-keyboard-response,135,338164,0.0-4.20-3.20,e2z84lzbop,2022-09-19 17:33:39.500,632085a9bf72d10d30d799c6,1,79,42,60,42,26,Male,,,"<p style=""font-size:50px"">You Lose!
No points this round.</p>",,,,,,,,,,,,,,,,,,,,,,,,,,,,
136,0,,html-keyboard-response,136,338672,0.0-4.20-4.20,e2z84lzbop,2022-09-19 17:33:39.500,632085a9bf72d10d30d799c6,1,79,42,60,42,26,Male,,,,,1.0,learning,20.0,C,,red,,stars,,,,C,red,stars,,1.0,0.0,NA,right,416.1999999881,8.0,1.0,0.0,,,,
137,0,,html-keyboard-response,137,340173,0.0-4.21-0.21,e2z84lzbop,2022-09-19 17:33:39.500,632085a9bf72d10d30d799c6,1,79,42,60,42,26,Male,,,"<img src=""static/images/cards/stack_of_black_stars.svg"" width=""175px"" height=""250px""></img>",,,,,,,,,,,,,,,,,,,,,,,,,,,,
138,0,,html-keyboard-response,138,341556,0.0-4.21-1.21,e2z84lzbop,2022-09-19 17:33:39.500,632085a9bf72d10d30d799c6,1,79,42,60,42,26,Male,880.7999999821,,"
  <table>
  <tr height=300>
    <td width=300 height=300><img src=""static/images/cards/back_of_black_stars.svg"" width=""175px"" height=""250px""></img></td>
    <td width=300 height=300><img src=""static/images/cards/back_of_black_stars.svg"" width=""175px"" height=""250px""></img></td>
  </tr>
  <tr height=200>
    <td width=300></td>
    <td width=300><img src=""static/images/keys/m.svg"" width=""35%"" height=""75%""></img></td>
  </tr>
</table>
  ",77.0,,,,,,,,,,,,,,,,,,,,,,,,,1.0,,
139,0,,html-keyboard-response,139,343059,0.0-4.21-2.21,e2z84lzbop,2022-09-19 17:33:39.500,632085a9bf72d10d30d799c6,1,79,42,60,42,26,Male,,,"
  <table>
  <tr height=300>
    <td width=300 height=300><img src=""static/images/cards/back_of_black_stars.svg"" width=""175px"" height=""250px""></img></td>
    <td width=300 height=300><img src=""static/images/cards/4_of_black_stars.svg"" width=""175px"" height=""250px""></img></td>
  </tr>
  <tr height=200>
    <td width=300></td>
    <td width=300><img src=""static/images/keys/m.svg"" width=""35%"" height=""75%""></img></td>
  </tr>
</table>
  ",,,,,,,,,,,,,,,,,,,,,,,,,,,,
140,0,,html-keyboard-response,140,344562,0.0-4.21-3.21,e2z84lzbop,2022-09-19 17:33:39.500,632085a9bf72d10d30d799c6,1,79,42,60,42,26,Male,,,"<p style=""font-size:50px"">You win!
+10 points this round!</p>",,,,,,,,,,,,,,,,,,,,,,,,,,,,
141,0,,html-keyboard-response,141,345068,0.0-4.21-4.21,e2z84lzbop,2022-09-19 17:33:39.500,632085a9bf72d10d30d799c6,1,79,42,60,42,26,Male,,,,,1.0,learning,21.0,D,,black,,stars,,,,D,black,stars,,0.0,0.0,0,right,880.7999999821,4.0,0.0,1.0,,,,
142,0,,html-keyboard-response,142,346569,0.0-4.22-0.22,e2z84lzbop,2022-09-19 17:33:39.500,632085a9bf72d10d30d799c6,1,79,42,60,42,26,Male,,,"<img src=""static/images/cards/stack_of_red_bolts.svg"" width=""175px"" height=""250px""></img>",,,,,,,,,,,,,,,,,,,,,,,,,,,,
143,0,,html-keyboard-response,143,348141,0.0-4.22-1.22,e2z84lzbop,2022-09-19 17:33:39.500,632085a9bf72d10d30d799c6,1,79,42,60,42,26,Male,1070.5,,"
  <table>
  <tr height=300>
    <td width=300 height=300><img src=""static/images/cards/back_of_red_bolts.svg"" width=""175px"" height=""250px""></img></td>
    <td width=300 height=300><img src=""static/images/cards/back_of_red_bolts.svg"" width=""175px"" height=""250px""></img></td>
  </tr>
  <tr height=200>
    <td width=300><img src=""static/images/keys/z.svg"" width=""35%"" height=""75%""></img></td>
    <td width=300><img src=""static/images/keys/m.svg"" width=""35%"" height=""75%""></img></td>
  </tr>
</table>
  ",77.0,,,,,,,,,,,,,,,,,,,,,,,,,1.0,,
144,0,,html-keyboard-response,144,349643,0.0-4.22-2.22,e2z84lzbop,2022-09-19 17:33:39.500,632085a9bf72d10d30d799c6,1,79,42,60,42,26,Male,,,"
  <table>
  <tr height=300>
    <td width=300 height=300><img src=""static/images/cards/back_of_red_bolts.svg"" width=""175px"" height=""250px""></img></td>
    <td width=300 height=300><img src=""static/images/cards/1_of_red_bolts.svg"" width=""175px"" height=""250px""></img></td>
  </tr>
  <tr height=200>
    <td width=300><img src=""static/images/keys/z.svg"" width=""35%"" height=""75%""></img></td>
    <td width=300><img src=""static/images/keys/m.svg"" width=""35%"" height=""75%""></img></td>
  </tr>
</table>
  ",,,,,,,,,,,,,,,,,,,,,,,,,,,,
145,0,,html-keyboard-response,145,351145,0.0-4.22-3.22,e2z84lzbop,2022-09-19 17:33:39.500,632085a9bf72d10d30d799c6,1,79,42,60,42,26,Male,,,"<p style=""font-size:50px"">You win!
+10 points this round!</p>",,,,,,,,,,,,,,,,,,,,,,,,,,,,
146,0,,html-keyboard-response,146,351652,0.0-4.22-4.22,e2z84lzbop,2022-09-19 17:33:39.500,632085a9bf72d10d30d799c6,1,79,42,60,42,26,Male,,,,,1.0,learning,22.0,Xc,,red,,bolts,,,,Xc,red,bolts,,1.0,0.0,NA,right,1070.5,1.0,0.0,1.0,,,,
147,0,,html-keyboard-response,147,353153,0.0-4.23-0.23,e2z84lzbop,2022-09-19 17:33:39.500,632085a9bf72d10d30d799c6,1,79,42,60,42,26,Male,,,"<img src=""static/images/cards/stack_of_black_bolts.svg"" width=""175px"" height=""250px""></img>",,,,,,,,,,,,,,,,,,,,,,,,,,,,
148,0,,html-keyboard-response,148,354798,0.0-4.23-1.23,e2z84lzbop,2022-09-19 17:33:39.500,632085a9bf72d10d30d799c6,1,79,42,60,42,26,Male,1142.5,,"
  <table>
  <tr height=300>
    <td width=300 height=300><img src=""static/images/cards/back_of_black_bolts.svg"" width=""175px"" height=""250px""></img></td>
    <td width=300 height=300><img src=""static/images/cards/back_of_black_bolts.svg"" width=""175px"" height=""250px""></img></td>
  </tr>
  <tr height=200>
    <td width=300><img src=""static/images/keys/z.svg"" width=""35%"" height=""75%""></img></td>
    <td width=300></td>
  </tr>
</table>
  ",90.0,,,,,,,,,,,,,,,,,,,,,,,,,1.0,,
149,0,,html-keyboard-response,149,356299,0.0-4.23-2.23,e2z84lzbop,2022-09-19 17:33:39.500,632085a9bf72d10d30d799c6,1,79,42,60,42,26,Male,,,"
  <table>
  <tr height=300>
    <td width=300 height=300><img src=""static/images/cards/8_of_black_bolts.svg"" width=""175px"" height=""250px""></img></td>
    <td width=300 height=300><img src=""static/images/cards/back_of_black_bolts.svg"" width=""175px"" height=""250px""></img></td>
  </tr>
  <tr height=200>
    <td width=300><img src=""static/images/keys/z.svg"" width=""35%"" height=""75%""></img></td>
    <td width=300></td>
  </tr>
</table>
  ",,,,,,,,,,,,,,,,,,,,,,,,,,,,
150,0,,html-keyboard-response,150,357801,0.0-4.23-3.23,e2z84lzbop,2022-09-19 17:33:39.500,632085a9bf72d10d30d799c6,1,79,42,60,42,26,Male,,,"<p style=""font-size:50px"">You win!
+10 points this round!</p>",,,,,,,,,,,,,,,,,,,,,,,,,,,,
151,0,,html-keyboard-response,151,358307,0.0-4.23-4.23,e2z84lzbop,2022-09-19 17:33:39.500,632085a9bf72d10d30d799c6,1,79,42,60,42,26,Male,,,,,1.0,learning,23.0,Xnc,,black,,bolts,,,,Xnc,black,bolts,,0.0,0.0,1,left,1142.5,8.0,1.0,1.0,,,,
152,0,,call-function,152,358311,0.0-5.0,e2z84lzbop,2022-09-19 17:33:39.500,632085a9bf72d10d30d799c6,1,79,42,60,42,26,Male,,,,,,,,,,,,,,,,,,,,,,,,,,,,,,,
153,0,,image-keyboard-response,153,363438,0.0-6.0-0.0,e2z84lzbop,2022-09-19 17:33:39.500,632085a9bf72d10d30d799c6,1,79,42,60,42,26,Male,5126.7000000179,,static/images/instructions_CB_1/Slide20.png,39.0,,,,,,,,,,,,,,,,,,,,,,,,,,,
154,0,,image-keyboard-response,154,383848,0.0-6.1-0.1,e2z84lzbop,2022-09-19 17:33:39.500,632085a9bf72d10d30d799c6,1,79,42,60,42,26,Male,20409.5,,static/images/instructions_CB_1/Slide21.png,37.0,,,,,,,,,,,,,,,,,,,,,,,,,,,
155,0,,image-keyboard-response,155,385925,0.0-6.2-0.2,e2z84lzbop,2022-09-19 17:33:39.500,632085a9bf72d10d30d799c6,1,79,42,60,42,26,Male,2076.2000000179,,static/images/instructions_CB_1/Slide20.png,39.0,,,,,,,,,,,,,,,,,,,,,,,,,,,
156,0,,image-keyboard-response,156,387229,0.0-6.3-0.3,e2z84lzbop,2022-09-19 17:33:39.500,632085a9bf72d10d30d799c6,1,79,42,60,42,26,Male,1303.400000006,,static/images/instructions_CB_1/Slide21.png,39.0,,,,,,,,,,,,,,,,,,,,,,,,,,,
157,0,,image-keyboard-response,157,392139,0.0-6.4-0.4,e2z84lzbop,2022-09-19 17:33:39.500,632085a9bf72d10d30d799c6,1,79,42,60,42,26,Male,4910.2999999821,,static/images/instructions_CB_1/Slide22.png,39.0,,,,,,,,,,,,,,,,,,,,,,,,,,,
158,0,,image-keyboard-response,158,394115,0.0-6.5-0.5,e2z84lzbop,2022-09-19 17:33:39.500,632085a9bf72d10d30d799c6,1,79,42,60,42,26,Male,1974.8000000119,,static/images/instructions_CB_1/Slide23.png,39.0,,,,,,,,,,,,,,,,,,,,,,,,,,,
159,0,,image-keyboard-response,159,396928,0.0-6.6-0.6,e2z84lzbop,2022-09-19 17:33:39.500,632085a9bf72d10d30d799c6,1,79,42,60,42,26,Male,2812.3000000119,,static/images/instructions_CB_1/Slide24.png,39.0,,,,,,,,,,,,,,,,,,,,,,,,,,,
160,0,,html-keyboard-response,160,399012,0.0-7.0-0.0,e2z84lzbop,2022-09-19 17:33:39.500,632085a9bf72d10d30d799c6,1,79,42,60,42,26,Male,2083.8000000119,,"
  <table>
  <tr height=300>
    <td width=300 height=300><img src=""static/images/cards/stack_of_black_stars.svg"" width=""175px"" height=""250px""></img></td>
    <td width=300 height=300><img src=""static/images/cards/stack_of_red_stars.svg"" width=""175px"" height=""250px""></img></td>
  </tr>
  <tr height=200>
    <td width=300><img src=""static/images/keys/w.svg"" width=""35%"" height=""75%""></img></td>
    <td width=300><img src=""static/images/keys/o.svg"" width=""35%"" height=""75%""></img></td>
  </tr>
</table>
  ",79.0,,,,,,,,,,,,,,,,,,,,,,,,,1.0,,
161,0,,html-keyboard-response,161,400688,0.0-7.0-1.0,e2z84lzbop,2022-09-19 17:33:39.500,632085a9bf72d10d30d799c6,1,79,42,60,42,26,Male,1174.2999999821,,"
  <table>
  <tr height=300>
    <td width=300 height=300><img src=""static/images/cards/back_of_red_stars.svg"" width=""175px"" height=""250px""></img></td>
    <td width=300 height=300><img src=""static/images/cards/back_of_red_stars.svg"" width=""175px"" height=""250px""></img></td>
  </tr>
  <tr height=200>
    <td width=300><img src=""static/images/keys/z.svg"" width=""35%"" height=""75%""></img></td>
    <td width=300><img src=""static/images/keys/m.svg"" width=""35%"" height=""75%""></img></td>
  </tr>
</table>
  ",77.0,,,,,,,,,,,,,,,,,,,,,,,,,1.0,,
162,0,,html-keyboard-response,162,402190,0.0-7.0-2.0,e2z84lzbop,2022-09-19 17:33:39.500,632085a9bf72d10d30d799c6,1,79,42,60,42,26,Male,,,"
  <table>
  <tr height=300>
    <td width=300 height=300><img src=""static/images/cards/back_of_red_stars.svg"" width=""175px"" height=""250px""></img></td>
    <td width=300 height=300><img src=""static/images/cards/2_of_red_stars.svg"" width=""175px"" height=""250px""></img></td>
  </tr>
  <tr height=200>
    <td width=300><img src=""static/images/keys/z.svg"" width=""35%"" height=""75%""></img></td>
    <td width=300><img src=""static/images/keys/m.svg"" width=""35%"" height=""75%""></img></td>
  </tr>
</table>
  ",,,,,,,,,,,,,,,,,,,,,,,,,,,,
163,0,,html-keyboard-response,163,403692,0.0-7.0-3.0,e2z84lzbop,2022-09-19 17:33:39.500,632085a9bf72d10d30d799c6,1,79,42,60,42,26,Male,,,"<p style=""font-size:50px"">You win!
+10 points this round!</p>",,,,,,,,,,,,,,,,,,,,,,,,,,,,
164,0,,html-keyboard-response,164,404200,0.0-7.0-4.0,e2z84lzbop,2022-09-19 17:33:39.500,632085a9bf72d10d30d799c6,1,79,42,60,42,26,Male,,,,,1.0,choice,0.0,C,D,black,red,stars,stars,D,C,C,red,stars,2083.8000000119,1.0,0.0,NA,right,1174.2999999821,2.0,0.0,1.0,,,,
165,0,,html-keyboard-response,165,405254,0.0-7.1-0.1,e2z84lzbop,2022-09-19 17:33:39.500,632085a9bf72d10d30d799c6,1,79,42,60,42,26,Male,1053.599999994,,"
  <table>
  <tr height=300>
    <td width=300 height=300><img src=""static/images/cards/stack_of_red_stars.svg"" width=""175px"" height=""250px""></img></td>
    <td width=300 height=300><img src=""static/images/cards/stack_of_red_moons.svg"" width=""175px"" height=""250px""></img></td>
  </tr>
  <tr height=200>
    <td width=300><img src=""static/images/keys/w.svg"" width=""35%"" height=""75%""></img></td>
    <td width=300><img src=""static/images/keys/o.svg"" width=""35%"" height=""75%""></img></td>
  </tr>
</table>
  ",87.0,,,,,,,,,,,,,,,,,,,,,,,,,1.0,,
166,0,,html-keyboard-response,166,406635,0.0-7.1-1.1,e2z84lzbop,2022-09-19 17:33:39.500,632085a9bf72d10d30d799c6,1,79,42,60,42,26,Male,880.0,,"
  <table>
  <tr height=300>
    <td width=300 height=300><img src=""static/images/cards/back_of_red_stars.svg"" width=""175px"" height=""250px""></img></td>
    <td width=300 height=300><img src=""static/images/cards/back_of_red_stars.svg"" width=""175px"" height=""250px""></img></td>
  </tr>
  <tr height=200>
    <td width=300><img src=""static/images/keys/z.svg"" width=""35%"" height=""75%""></img></td>
    <td width=300><img src=""static/images/keys/m.svg"" width=""35%"" height=""75%""></img></td>
  </tr>
</table>
  ",90.0,,,,,,,,,,,,,,,,,,,,,,,,,1.0,,
167,0,,html-keyboard-response,167,408137,0.0-7.1-2.1,e2z84lzbop,2022-09-19 17:33:39.500,632085a9bf72d10d30d799c6,1,79,42,60,42,26,Male,,,"
  <table>
  <tr height=300>
    <td width=300 height=300><img src=""static/images/cards/1_of_red_stars.svg"" width=""175px"" height=""250px""></img></td>
    <td width=300 height=300><img src=""static/images/cards/back_of_red_stars.svg"" width=""175px"" height=""250px""></img></td>
  </tr>
  <tr height=200>
    <td width=300><img src=""static/images/keys/z.svg"" width=""35%"" height=""75%""></img></td>
    <td width=300><img src=""static/images/keys/m.svg"" width=""35%"" height=""75%""></img></td>
  </tr>
</table>
  ",,,,,,,,,,,,,,,,,,,,,,,,,,,,
168,0,,html-keyboard-response,168,409640,0.0-7.1-3.1,e2z84lzbop,2022-09-19 17:33:39.500,632085a9bf72d10d30d799c6,1,79,42,60,42,26,Male,,,"<p style=""font-size:50px"">You Lose!
No points this round.</p>",,,,,,,,,,,,,,,,,,,,,,,,,,,,
169,0,,html-keyboard-response,169,410145,0.0-7.1-4.1,e2z84lzbop,2022-09-19 17:33:39.500,632085a9bf72d10d30d799c6,1,79,42,60,42,26,Male,,,,,1.0,choice,1.0,A,C,red,red,stars,moons,C,A,C,red,stars,1053.599999994,1.0,0.0,NA,left,880.0,1.0,0.0,0.0,,,,
170,0,,html-keyboard-response,170,410907,0.0-7.2-0.2,e2z84lzbop,2022-09-19 17:33:39.500,632085a9bf72d10d30d799c6,1,79,42,60,42,26,Male,761.099999994,,"
  <table>
  <tr height=300>
    <td width=300 height=300><img src=""static/images/cards/stack_of_red_moons.svg"" width=""175px"" height=""250px""></img></td>
    <td width=300 height=300><img src=""static/images/cards/stack_of_black_stars.svg"" width=""175px"" height=""250px""></img></td>
  </tr>
  <tr height=200>
    <td width=300><img src=""static/images/keys/w.svg"" width=""35%"" height=""75%""></img></td>
    <td width=300><img src=""static/images/keys/o.svg"" width=""35%"" height=""75%""></img></td>
  </tr>
</table>
  ",79.0,,,,,,,,,,,,,,,,,,,,,,,,,1.0,,
171,0,,html-keyboard-response,171,412103,0.0-7.2-1.2,e2z84lzbop,2022-09-19 17:33:39.500,632085a9bf72d10d30d799c6,1,79,42,60,42,26,Male,695.099999994,,"
  <table>
  <tr height=300>
    <td width=300 height=300><img src=""static/images/cards/back_of_black_stars.svg"" width=""175px"" height=""250px""></img></td>
    <td width=300 height=300><img src=""static/images/cards/back_of_black_stars.svg"" width=""175px"" height=""250px""></img></td>
  </tr>
  <tr height=200>
    <td width=300><img src=""static/images/keys/z.svg"" width=""35%"" height=""75%""></img></td>
    <td width=300></td>
  </tr>
</table>
  ",90.0,,,,,,,,,,,,,,,,,,,,,,,,,1.0,,
172,0,,html-keyboard-response,172,413606,0.0-7.2-2.2,e2z84lzbop,2022-09-19 17:33:39.500,632085a9bf72d10d30d799c6,1,79,42,60,42,26,Male,,,"
  <table>
  <tr height=300>
    <td width=300 height=300><img src=""static/images/cards/6_of_black_stars.svg"" width=""175px"" height=""250px""></img></td>
    <td width=300 height=300><img src=""static/images/cards/back_of_black_stars.svg"" width=""175px"" height=""250px""></img></td>
  </tr>
  <tr height=200>
    <td width=300><img src=""static/images/keys/z.svg"" width=""35%"" height=""75%""></img></td>
    <td width=300></td>
  </tr>
</table>
  ",,,,,,,,,,,,,,,,,,,,,,,,,,,,
173,0,,html-keyboard-response,173,415108,0.0-7.2-3.2,e2z84lzbop,2022-09-19 17:33:39.500,632085a9bf72d10d30d799c6,1,79,42,60,42,26,Male,,,"<p style=""font-size:50px"">You win!
+10 points this round!</p>",,,,,,,,,,,,,,,,,,,,,,,,,,,,
174,0,,html-keyboard-response,174,415615,0.0-7.2-4.2,e2z84lzbop,2022-09-19 17:33:39.500,632085a9bf72d10d30d799c6,1,79,42,60,42,26,Male,,,,,1.0,choice,2.0,A,D,red,black,moons,stars,A,D,D,black,stars,761.099999994,0.0,0.0,1,left,695.099999994,6.0,1.0,1.0,,,,
175,0,,html-keyboard-response,175,416409,0.0-7.3-0.3,e2z84lzbop,2022-09-19 17:33:39.500,632085a9bf72d10d30d799c6,1,79,42,60,42,26,Male,793.1999999881,,"
  <table>
  <tr height=300>
    <td width=300 height=300><img src=""static/images/cards/stack_of_red_stars.svg"" width=""175px"" height=""250px""></img></td>
    <td width=300 height=300><img src=""static/images/cards/stack_of_red_moons.svg"" width=""175px"" height=""250px""></img></td>
  </tr>
  <tr height=200>
    <td width=300><img src=""static/images/keys/w.svg"" width=""35%"" height=""75%""></img></td>
    <td width=300><img src=""static/images/keys/o.svg"" width=""35%"" height=""75%""></img></td>
  </tr>
</table>
  ",79.0,,,,,,,,,,,,,,,,,,,,,,,,,1.0,,
176,0,,html-keyboard-response,176,417801,0.0-7.3-1.3,e2z84lzbop,2022-09-19 17:33:39.500,632085a9bf72d10d30d799c6,1,79,42,60,42,26,Male,890.7000000179,,"
  <table>
  <tr height=300>
    <td width=300 height=300><img src=""static/images/cards/back_of_red_moons.svg"" width=""175px"" height=""250px""></img></td>
    <td width=300 height=300><img src=""static/images/cards/back_of_red_moons.svg"" width=""175px"" height=""250px""></img></td>
  </tr>
  <tr height=200>
    <td width=300><img src=""static/images/keys/z.svg"" width=""35%"" height=""75%""></img></td>
    <td width=300><img src=""static/images/keys/m.svg"" width=""35%"" height=""75%""></img></td>
  </tr>
</table>
  ",77.0,,,,,,,,,,,,,,,,,,,,,,,,,1.0,,
177,0,,html-keyboard-response,177,419303,0.0-7.3-2.3,e2z84lzbop,2022-09-19 17:33:39.500,632085a9bf72d10d30d799c6,1,79,42,60,42,26,Male,,,"
  <table>
  <tr height=300>
    <td width=300 height=300><img src=""static/images/cards/back_of_red_moons.svg"" width=""175px"" height=""250px""></img></td>
    <td width=300 height=300><img src=""static/images/cards/2_of_red_moons.svg"" width=""175px"" height=""250px""></img></td>
  </tr>
  <tr height=200>
    <td width=300><img src=""static/images/keys/z.svg"" width=""35%"" height=""75%""></img></td>
    <td width=300><img src=""static/images/keys/m.svg"" width=""35%"" height=""75%""></img></td>
  </tr>
</table>
  ",,,,,,,,,,,,,,,,,,,,,,,,,,,,
178,0,,html-keyboard-response,178,420805,0.0-7.3-3.3,e2z84lzbop,2022-09-19 17:33:39.500,632085a9bf72d10d30d799c6,1,79,42,60,42,26,Male,,,"<p style=""font-size:50px"">You Lose!
No points this round.</p>",,,,,,,,,,,,,,,,,,,,,,,,,,,,
179,0,,html-keyboard-response,179,421311,0.0-7.3-4.3,e2z84lzbop,2022-09-19 17:33:39.500,632085a9bf72d10d30d799c6,1,79,42,60,42,26,Male,,,,,1.0,choice,3.0,A,C,red,red,stars,moons,C,A,A,red,moons,793.1999999881,1.0,1.0,NA,right,890.7000000179,2.0,0.0,0.0,,,,
180,0,,html-keyboard-response,180,422163,0.0-7.4-0.4,e2z84lzbop,2022-09-19 17:33:39.500,632085a9bf72d10d30d799c6,1,79,42,60,42,26,Male,851.400000006,,"
  <table>
  <tr height=300>
    <td width=300 height=300><img src=""static/images/cards/stack_of_red_moons.svg"" width=""175px"" height=""250px""></img></td>
    <td width=300 height=300><img src=""static/images/cards/stack_of_red_stars.svg"" width=""175px"" height=""250px""></img></td>
  </tr>
  <tr height=200>
    <td width=300><img src=""static/images/keys/w.svg"" width=""35%"" height=""75%""></img></td>
    <td width=300><img src=""static/images/keys/o.svg"" width=""35%"" height=""75%""></img></td>
  </tr>
</table>
  ",79.0,,,,,,,,,,,,,,,,,,,,,,,,,1.0,,
181,0,,html-keyboard-response,181,423612,0.0-7.4-1.4,e2z84lzbop,2022-09-19 17:33:39.500,632085a9bf72d10d30d799c6,1,79,42,60,42,26,Male,947.1000000238,,"
  <table>
  <tr height=300>
    <td width=300 height=300><img src=""static/images/cards/back_of_red_stars.svg"" width=""175px"" height=""250px""></img></td>
    <td width=300 height=300><img src=""static/images/cards/back_of_red_stars.svg"" width=""175px"" height=""250px""></img></td>
  </tr>
  <tr height=200>
    <td width=300><img src=""static/images/keys/z.svg"" width=""35%"" height=""75%""></img></td>
    <td width=300><img src=""static/images/keys/m.svg"" width=""35%"" height=""75%""></img></td>
  </tr>
</table>
  ",90.0,,,,,,,,,,,,,,,,,,,,,,,,,1.0,,
182,0,,html-keyboard-response,182,425113,0.0-7.4-2.4,e2z84lzbop,2022-09-19 17:33:39.500,632085a9bf72d10d30d799c6,1,79,42,60,42,26,Male,,,"
  <table>
  <tr height=300>
    <td width=300 height=300><img src=""static/images/cards/4_of_red_stars.svg"" width=""175px"" height=""250px""></img></td>
    <td width=300 height=300><img src=""static/images/cards/back_of_red_stars.svg"" width=""175px"" height=""250px""></img></td>
  </tr>
  <tr height=200>
    <td width=300><img src=""static/images/keys/z.svg"" width=""35%"" height=""75%""></img></td>
    <td width=300><img src=""static/images/keys/m.svg"" width=""35%"" height=""75%""></img></td>
  </tr>
</table>
  ",,,,,,,,,,,,,,,,,,,,,,,,,,,,
183,0,,html-keyboard-response,183,426614,0.0-7.4-3.4,e2z84lzbop,2022-09-19 17:33:39.500,632085a9bf72d10d30d799c6,1,79,42,60,42,26,Male,,,"<p style=""font-size:50px"">You Lose!
No points this round.</p>",,,,,,,,,,,,,,,,,,,,,,,,,,,,
184,0,,html-keyboard-response,184,427120,0.0-7.4-4.4,e2z84lzbop,2022-09-19 17:33:39.500,632085a9bf72d10d30d799c6,1,79,42,60,42,26,Male,,,,,1.0,choice,4.0,A,C,red,red,moons,stars,A,C,C,red,stars,851.400000006,1.0,0.0,NA,left,947.1000000238,4.0,0.0,0.0,,,,
185,0,,html-keyboard-response,185,427991,0.0-7.5-0.5,e2z84lzbop,2022-09-19 17:33:39.500,632085a9bf72d10d30d799c6,1,79,42,60,42,26,Male,870.2000000179,,"
  <table>
  <tr height=300>
    <td width=300 height=300><img src=""static/images/cards/stack_of_red_moons.svg"" width=""175px"" height=""250px""></img></td>
    <td width=300 height=300><img src=""static/images/cards/stack_of_black_stars.svg"" width=""175px"" height=""250px""></img></td>
  </tr>
  <tr height=200>
    <td width=300><img src=""static/images/keys/w.svg"" width=""35%"" height=""75%""></img></td>
    <td width=300><img src=""static/images/keys/o.svg"" width=""35%"" height=""75%""></img></td>
  </tr>
</table>
  ",79.0,,,,,,,,,,,,,,,,,,,,,,,,,1.0,,
186,0,,html-keyboard-response,186,428930,0.0-7.5-1.5,e2z84lzbop,2022-09-19 17:33:39.500,632085a9bf72d10d30d799c6,1,79,42,60,42,26,Male,436.3000000119,,"
  <table>
  <tr height=300>
    <td width=300 height=300><img src=""static/images/cards/back_of_black_stars.svg"" width=""175px"" height=""250px""></img></td>
    <td width=300 height=300><img src=""static/images/cards/back_of_black_stars.svg"" width=""175px"" height=""250px""></img></td>
  </tr>
  <tr height=200>
    <td width=300><img src=""static/images/keys/z.svg"" width=""35%"" height=""75%""></img></td>
    <td width=300></td>
  </tr>
</table>
  ",90.0,,,,,,,,,,,,,,,,,,,,,,,,,1.0,,
187,0,,html-keyboard-response,187,430432,0.0-7.5-2.5,e2z84lzbop,2022-09-19 17:33:39.500,632085a9bf72d10d30d799c6,1,79,42,60,42,26,Male,,,"
  <table>
  <tr height=300>
    <td width=300 height=300><img src=""static/images/cards/2_of_black_stars.svg"" width=""175px"" height=""250px""></img></td>
    <td width=300 height=300><img src=""static/images/cards/back_of_black_stars.svg"" width=""175px"" height=""250px""></img></td>
  </tr>
  <tr height=200>
    <td width=300><img src=""static/images/keys/z.svg"" width=""35%"" height=""75%""></img></td>
    <td width=300></td>
  </tr>
</table>
  ",,,,,,,,,,,,,,,,,,,,,,,,,,,,
188,0,,html-keyboard-response,188,431935,0.0-7.5-3.5,e2z84lzbop,2022-09-19 17:33:39.500,632085a9bf72d10d30d799c6,1,79,42,60,42,26,Male,,,"<p style=""font-size:50px"">You Lose!
No points this round.</p>",,,,,,,,,,,,,,,,,,,,,,,,,,,,
189,0,,html-keyboard-response,189,432441,0.0-7.5-4.5,e2z84lzbop,2022-09-19 17:33:39.500,632085a9bf72d10d30d799c6,1,79,42,60,42,26,Male,,,,,1.0,choice,5.0,A,D,red,black,moons,stars,A,D,D,black,stars,870.2000000179,0.0,0.0,1,left,436.3000000119,2.0,0.0,0.0,,,,
190,0,,html-keyboard-response,190,433142,0.0-7.6-0.6,e2z84lzbop,2022-09-19 17:33:39.500,632085a9bf72d10d30d799c6,1,79,42,60,42,26,Male,700.099999994,,"
  <table>
  <tr height=300>
    <td width=300 height=300><img src=""static/images/cards/stack_of_black_stars.svg"" width=""175px"" height=""250px""></img></td>
    <td width=300 height=300><img src=""static/images/cards/stack_of_red_stars.svg"" width=""175px"" height=""250px""></img></td>
  </tr>
  <tr height=200>
    <td width=300><img src=""static/images/keys/w.svg"" width=""35%"" height=""75%""></img></td>
    <td width=300><img src=""static/images/keys/o.svg"" width=""35%"" height=""75%""></img></td>
  </tr>
</table>
  ",79.0,,,,,,,,,,,,,,,,,,,,,,,,,1.0,,
191,0,,html-keyboard-response,191,434801,0.0-7.6-1.6,e2z84lzbop,2022-09-19 17:33:39.500,632085a9bf72d10d30d799c6,1,79,42,60,42,26,Male,1158.1999999881,,"
  <table>
  <tr height=300>
    <td width=300 height=300><img src=""static/images/cards/back_of_red_stars.svg"" width=""175px"" height=""250px""></img></td>
    <td width=300 height=300><img src=""static/images/cards/back_of_red_stars.svg"" width=""175px"" height=""250px""></img></td>
  </tr>
  <tr height=200>
    <td width=300><img src=""static/images/keys/z.svg"" width=""35%"" height=""75%""></img></td>
    <td width=300><img src=""static/images/keys/m.svg"" width=""35%"" height=""75%""></img></td>
  </tr>
</table>
  ",90.0,,,,,,,,,,,,,,,,,,,,,,,,,1.0,,
192,0,,html-keyboard-response,192,436302,0.0-7.6-2.6,e2z84lzbop,2022-09-19 17:33:39.500,632085a9bf72d10d30d799c6,1,79,42,60,42,26,Male,,,"
  <table>
  <tr height=300>
    <td width=300 height=300><img src=""static/images/cards/10_of_red_stars.svg"" width=""175px"" height=""250px""></img></td>
    <td width=300 height=300><img src=""static/images/cards/back_of_red_stars.svg"" width=""175px"" height=""250px""></img></td>
  </tr>
  <tr height=200>
    <td width=300><img src=""static/images/keys/z.svg"" width=""35%"" height=""75%""></img></td>
    <td width=300><img src=""static/images/keys/m.svg"" width=""35%"" height=""75%""></img></td>
  </tr>
</table>
  ",,,,,,,,,,,,,,,,,,,,,,,,,,,,
193,0,,html-keyboard-response,193,437804,0.0-7.6-3.6,e2z84lzbop,2022-09-19 17:33:39.500,632085a9bf72d10d30d799c6,1,79,42,60,42,26,Male,,,"<p style=""font-size:50px"">You Lose!
No points this round.</p>",,,,,,,,,,,,,,,,,,,,,,,,,,,,
194,0,,html-keyboard-response,194,438310,0.0-7.6-4.6,e2z84lzbop,2022-09-19 17:33:39.500,632085a9bf72d10d30d799c6,1,79,42,60,42,26,Male,,,,,1.0,choice,6.0,C,D,black,red,stars,stars,D,C,C,red,stars,700.099999994,1.0,0.0,NA,left,1158.1999999881,10.0,1.0,0.0,,,,
195,0,,html-keyboard-response,195,438980,0.0-7.7-0.7,e2z84lzbop,2022-09-19 17:33:39.500,632085a9bf72d10d30d799c6,1,79,42,60,42,26,Male,669.5,,"
  <table>
  <tr height=300>
    <td width=300 height=300><img src=""static/images/cards/stack_of_black_stars.svg"" width=""175px"" height=""250px""></img></td>
    <td width=300 height=300><img src=""static/images/cards/stack_of_black_moons.svg"" width=""175px"" height=""250px""></img></td>
  </tr>
  <tr height=200>
    <td width=300><img src=""static/images/keys/w.svg"" width=""35%"" height=""75%""></img></td>
    <td width=300><img src=""static/images/keys/o.svg"" width=""35%"" height=""75%""></img></td>
  </tr>
</table>
  ",79.0,,,,,,,,,,,,,,,,,,,,,,,,,1.0,,
196,0,,html-keyboard-response,196,439921,0.0-7.7-1.7,e2z84lzbop,2022-09-19 17:33:39.500,632085a9bf72d10d30d799c6,1,79,42,60,42,26,Male,438.7999999821,,"
  <table>
  <tr height=300>
    <td width=300 height=300><img src=""static/images/cards/back_of_black_moons.svg"" width=""175px"" height=""250px""></img></td>
    <td width=300 height=300><img src=""static/images/cards/back_of_black_moons.svg"" width=""175px"" height=""250px""></img></td>
  </tr>
  <tr height=200>
    <td width=300></td>
    <td width=300><img src=""static/images/keys/m.svg"" width=""35%"" height=""75%""></img></td>
  </tr>
</table>
  ",77.0,,,,,,,,,,,,,,,,,,,,,,,,,1.0,,
197,0,,html-keyboard-response,197,441423,0.0-7.7-2.7,e2z84lzbop,2022-09-19 17:33:39.500,632085a9bf72d10d30d799c6,1,79,42,60,42,26,Male,,,"
  <table>
  <tr height=300>
    <td width=300 height=300><img src=""static/images/cards/back_of_black_moons.svg"" width=""175px"" height=""250px""></img></td>
    <td width=300 height=300><img src=""static/images/cards/6_of_black_moons.svg"" width=""175px"" height=""250px""></img></td>
  </tr>
  <tr height=200>
    <td width=300></td>
    <td width=300><img src=""static/images/keys/m.svg"" width=""35%"" height=""75%""></img></td>
  </tr>
</table>
  ",,,,,,,,,,,,,,,,,,,,,,,,,,,,
198,0,,html-keyboard-response,198,442925,0.0-7.7-3.7,e2z84lzbop,2022-09-19 17:33:39.500,632085a9bf72d10d30d799c6,1,79,42,60,42,26,Male,,,"<p style=""font-size:50px"">You win!
+10 points this round!</p>",,,,,,,,,,,,,,,,,,,,,,,,,,,,
199,0,,html-keyboard-response,199,443431,0.0-7.7-4.7,e2z84lzbop,2022-09-19 17:33:39.500,632085a9bf72d10d30d799c6,1,79,42,60,42,26,Male,,,,,1.0,choice,7.0,B,D,black,black,stars,moons,D,B,B,black,moons,669.5,0.0,1.0,0,right,438.7999999821,6.0,1.0,1.0,,,,
200,0,,html-keyboard-response,200,444083,0.0-7.8-0.8,e2z84lzbop,2022-09-19 17:33:39.500,632085a9bf72d10d30d799c6,1,79,42,60,42,26,Male,651.099999994,,"
  <table>
  <tr height=300>
    <td width=300 height=300><img src=""static/images/cards/stack_of_black_stars.svg"" width=""175px"" height=""250px""></img></td>
    <td width=300 height=300><img src=""static/images/cards/stack_of_red_moons.svg"" width=""175px"" height=""250px""></img></td>
  </tr>
  <tr height=200>
    <td width=300><img src=""static/images/keys/w.svg"" width=""35%"" height=""75%""></img></td>
    <td width=300><img src=""static/images/keys/o.svg"" width=""35%"" height=""75%""></img></td>
  </tr>
</table>
  ",79.0,,,,,,,,,,,,,,,,,,,,,,,,,1.0,,
201,0,,html-keyboard-response,201,445164,0.0-7.8-1.8,e2z84lzbop,2022-09-19 17:33:39.500,632085a9bf72d10d30d799c6,1,79,42,60,42,26,Male,580.0,,"
  <table>
  <tr height=300>
    <td width=300 height=300><img src=""static/images/cards/back_of_red_moons.svg"" width=""175px"" height=""250px""></img></td>
    <td width=300 height=300><img src=""static/images/cards/back_of_red_moons.svg"" width=""175px"" height=""250px""></img></td>
  </tr>
  <tr height=200>
    <td width=300><img src=""static/images/keys/z.svg"" width=""35%"" height=""75%""></img></td>
    <td width=300><img src=""static/images/keys/m.svg"" width=""35%"" height=""75%""></img></td>
  </tr>
</table>
  ",77.0,,,,,,,,,,,,,,,,,,,,,,,,,1.0,,
202,0,,html-keyboard-response,202,446666,0.0-7.8-2.8,e2z84lzbop,2022-09-19 17:33:39.500,632085a9bf72d10d30d799c6,1,79,42,60,42,26,Male,,,"
  <table>
  <tr height=300>
    <td width=300 height=300><img src=""static/images/cards/back_of_red_moons.svg"" width=""175px"" height=""250px""></img></td>
    <td width=300 height=300><img src=""static/images/cards/2_of_red_moons.svg"" width=""175px"" height=""250px""></img></td>
  </tr>
  <tr height=200>
    <td width=300><img src=""static/images/keys/z.svg"" width=""35%"" height=""75%""></img></td>
    <td width=300><img src=""static/images/keys/m.svg"" width=""35%"" height=""75%""></img></td>
  </tr>
</table>
  ",,,,,,,,,,,,,,,,,,,,,,,,,,,,
203,0,,html-keyboard-response,203,448169,0.0-7.8-3.8,e2z84lzbop,2022-09-19 17:33:39.500,632085a9bf72d10d30d799c6,1,79,42,60,42,26,Male,,,"<p style=""font-size:50px"">You Lose!
No points this round.</p>",,,,,,,,,,,,,,,,,,,,,,,,,,,,
204,0,,html-keyboard-response,204,448675,0.0-7.8-4.8,e2z84lzbop,2022-09-19 17:33:39.500,632085a9bf72d10d30d799c6,1,79,42,60,42,26,Male,,,,,1.0,choice,8.0,A,D,black,red,stars,moons,D,A,A,red,moons,651.099999994,1.0,1.0,NA,right,580.0,2.0,0.0,0.0,,,,
205,0,,html-keyboard-response,205,450830,0.0-7.9-0.9,e2z84lzbop,2022-09-19 17:33:39.500,632085a9bf72d10d30d799c6,1,79,42,60,42,26,Male,2154.099999994,,"
  <table>
  <tr height=300>
    <td width=300 height=300><img src=""static/images/cards/stack_of_black_moons.svg"" width=""175px"" height=""250px""></img></td>
    <td width=300 height=300><img src=""static/images/cards/stack_of_black_stars.svg"" width=""175px"" height=""250px""></img></td>
  </tr>
  <tr height=200>
    <td width=300><img src=""static/images/keys/w.svg"" width=""35%"" height=""75%""></img></td>
    <td width=300><img src=""static/images/keys/o.svg"" width=""35%"" height=""75%""></img></td>
  </tr>
</table>
  ",87.0,,,,,,,,,,,,,,,,,,,,,,,,,2.0,,
206,0,,html-keyboard-response,206,452287,0.0-7.9-1.9,e2z84lzbop,2022-09-19 17:33:39.500,632085a9bf72d10d30d799c6,1,79,42,60,42,26,Male,955.3999999762,,"
  <table>
  <tr height=300>
    <td width=300 height=300><img src=""static/images/cards/back_of_black_moons.svg"" width=""175px"" height=""250px""></img></td>
    <td width=300 height=300><img src=""static/images/cards/back_of_black_moons.svg"" width=""175px"" height=""250px""></img></td>
  </tr>
  <tr height=200>
    <td width=300></td>
    <td width=300><img src=""static/images/keys/m.svg"" width=""35%"" height=""75%""></img></td>
  </tr>
</table>
  ",77.0,,,,,,,,,,,,,,,,,,,,,,,,,2.0,,
207,0,,html-keyboard-response,207,453789,0.0-7.9-2.9,e2z84lzbop,2022-09-19 17:33:39.500,632085a9bf72d10d30d799c6,1,79,42,60,42,26,Male,,,"
  <table>
  <tr height=300>
    <td width=300 height=300><img src=""static/images/cards/back_of_black_moons.svg"" width=""175px"" height=""250px""></img></td>
    <td width=300 height=300><img src=""static/images/cards/4_of_black_moons.svg"" width=""175px"" height=""250px""></img></td>
  </tr>
  <tr height=200>
    <td width=300></td>
    <td width=300><img src=""static/images/keys/m.svg"" width=""35%"" height=""75%""></img></td>
  </tr>
</table>
  ",,,,,,,,,,,,,,,,,,,,,,,,,,,,
208,0,,html-keyboard-response,208,455291,0.0-7.9-3.9,e2z84lzbop,2022-09-19 17:33:39.500,632085a9bf72d10d30d799c6,1,79,42,60,42,26,Male,,,"<p style=""font-size:50px"">You Lose!
No points this round.</p>",,,,,,,,,,,,,,,,,,,,,,,,,,,,
209,0,,html-keyboard-response,209,455797,0.0-7.9-4.9,e2z84lzbop,2022-09-19 17:33:39.500,632085a9bf72d10d30d799c6,1,79,42,60,42,26,Male,,,,,1.0,choice,9.0,B,D,black,black,moons,stars,B,D,B,black,moons,2154.099999994,0.0,1.0,0,right,955.3999999762,4.0,0.0,0.0,,,,
210,0,,html-keyboard-response,210,457141,0.0-7.10-0.10,e2z84lzbop,2022-09-19 17:33:39.500,632085a9bf72d10d30d799c6,1,79,42,60,42,26,Male,1343.099999994,,"
  <table>
  <tr height=300>
    <td width=300 height=300><img src=""static/images/cards/stack_of_black_moons.svg"" width=""175px"" height=""250px""></img></td>
    <td width=300 height=300><img src=""static/images/cards/stack_of_red_moons.svg"" width=""175px"" height=""250px""></img></td>
  </tr>
  <tr height=200>
    <td width=300><img src=""static/images/keys/w.svg"" width=""35%"" height=""75%""></img></td>
    <td width=300><img src=""static/images/keys/o.svg"" width=""35%"" height=""75%""></img></td>
  </tr>
</table>
  ",79.0,,,,,,,,,,,,,,,,,,,,,,,,,1.0,,
211,0,,html-keyboard-response,211,458753,0.0-7.10-1.10,e2z84lzbop,2022-09-19 17:33:39.500,632085a9bf72d10d30d799c6,1,79,42,60,42,26,Male,1109.8999999762,,"
  <table>
  <tr height=300>
    <td width=300 height=300><img src=""static/images/cards/back_of_red_moons.svg"" width=""175px"" height=""250px""></img></td>
    <td width=300 height=300><img src=""static/images/cards/back_of_red_moons.svg"" width=""175px"" height=""250px""></img></td>
  </tr>
  <tr height=200>
    <td width=300><img src=""static/images/keys/z.svg"" width=""35%"" height=""75%""></img></td>
    <td width=300><img src=""static/images/keys/m.svg"" width=""35%"" height=""75%""></img></td>
  </tr>
</table>
  ",90.0,,,,,,,,,,,,,,,,,,,,,,,,,1.0,,
212,0,,html-keyboard-response,212,460254,0.0-7.10-2.10,e2z84lzbop,2022-09-19 17:33:39.500,632085a9bf72d10d30d799c6,1,79,42,60,42,26,Male,,,"
  <table>
  <tr height=300>
    <td width=300 height=300><img src=""static/images/cards/4_of_red_moons.svg"" width=""175px"" height=""250px""></img></td>
    <td width=300 height=300><img src=""static/images/cards/back_of_red_moons.svg"" width=""175px"" height=""250px""></img></td>
  </tr>
  <tr height=200>
    <td width=300><img src=""static/images/keys/z.svg"" width=""35%"" height=""75%""></img></td>
    <td width=300><img src=""static/images/keys/m.svg"" width=""35%"" height=""75%""></img></td>
  </tr>
</table>
  ",,,,,,,,,,,,,,,,,,,,,,,,,,,,
213,0,,html-keyboard-response,213,461757,0.0-7.10-3.10,e2z84lzbop,2022-09-19 17:33:39.500,632085a9bf72d10d30d799c6,1,79,42,60,42,26,Male,,,"<p style=""font-size:50px"">You Lose!
No points this round.</p>",,,,,,,,,,,,,,,,,,,,,,,,,,,,
214,0,,html-keyboard-response,214,462263,0.0-7.10-4.10,e2z84lzbop,2022-09-19 17:33:39.500,632085a9bf72d10d30d799c6,1,79,42,60,42,26,Male,,,,,1.0,choice,10.0,A,B,black,red,moons,moons,B,A,A,red,moons,1343.099999994,1.0,1.0,NA,left,1109.8999999762,4.0,0.0,0.0,,,,
215,0,,html-keyboard-response,215,462822,0.0-7.11-0.11,e2z84lzbop,2022-09-19 17:33:39.500,632085a9bf72d10d30d799c6,1,79,42,60,42,26,Male,557.7000000179,,"
  <table>
  <tr height=300>
    <td width=300 height=300><img src=""static/images/cards/stack_of_black_stars.svg"" width=""175px"" height=""250px""></img></td>
    <td width=300 height=300><img src=""static/images/cards/stack_of_red_moons.svg"" width=""175px"" height=""250px""></img></td>
  </tr>
  <tr height=200>
    <td width=300><img src=""static/images/keys/w.svg"" width=""35%"" height=""75%""></img></td>
    <td width=300><img src=""static/images/keys/o.svg"" width=""35%"" height=""75%""></img></td>
  </tr>
</table>
  ",87.0,,,,,,,,,,,,,,,,,,,,,,,,,1.0,,
216,0,,html-keyboard-response,216,463769,0.0-7.11-1.11,e2z84lzbop,2022-09-19 17:33:39.500,632085a9bf72d10d30d799c6,1,79,42,60,42,26,Male,446.1999999881,,"
  <table>
  <tr height=300>
    <td width=300 height=300><img src=""static/images/cards/back_of_black_stars.svg"" width=""175px"" height=""250px""></img></td>
    <td width=300 height=300><img src=""static/images/cards/back_of_black_stars.svg"" width=""175px"" height=""250px""></img></td>
  </tr>
  <tr height=200>
    <td width=300><img src=""static/images/keys/z.svg"" width=""35%"" height=""75%""></img></td>
    <td width=300></td>
  </tr>
</table>
  ",90.0,,,,,,,,,,,,,,,,,,,,,,,,,1.0,,
217,0,,html-keyboard-response,217,465271,0.0-7.11-2.11,e2z84lzbop,2022-09-19 17:33:39.500,632085a9bf72d10d30d799c6,1,79,42,60,42,26,Male,,,"
  <table>
  <tr height=300>
    <td width=300 height=300><img src=""static/images/cards/7_of_black_stars.svg"" width=""175px"" height=""250px""></img></td>
    <td width=300 height=300><img src=""static/images/cards/back_of_black_stars.svg"" width=""175px"" height=""250px""></img></td>
  </tr>
  <tr height=200>
    <td width=300><img src=""static/images/keys/z.svg"" width=""35%"" height=""75%""></img></td>
    <td width=300></td>
  </tr>
</table>
  ",,,,,,,,,,,,,,,,,,,,,,,,,,,,
218,0,,html-keyboard-response,218,466775,0.0-7.11-3.11,e2z84lzbop,2022-09-19 17:33:39.500,632085a9bf72d10d30d799c6,1,79,42,60,42,26,Male,,,"<p style=""font-size:50px"">You win!
+10 points this round!</p>",,,,,,,,,,,,,,,,,,,,,,,,,,,,
219,0,,html-keyboard-response,219,467281,0.0-7.11-4.11,e2z84lzbop,2022-09-19 17:33:39.500,632085a9bf72d10d30d799c6,1,79,42,60,42,26,Male,,,,,1.0,choice,11.0,A,D,black,red,stars,moons,D,A,D,black,stars,557.7000000179,0.0,0.0,1,left,446.1999999881,7.0,1.0,1.0,,,,
220,0,,html-keyboard-response,220,468042,0.0-7.12-0.12,e2z84lzbop,2022-09-19 17:33:39.500,632085a9bf72d10d30d799c6,1,79,42,60,42,26,Male,759.7000000179,,"
  <table>
  <tr height=300>
    <td width=300 height=300><img src=""static/images/cards/stack_of_red_moons.svg"" width=""175px"" height=""250px""></img></td>
    <td width=300 height=300><img src=""static/images/cards/stack_of_black_moons.svg"" width=""175px"" height=""250px""></img></td>
  </tr>
  <tr height=200>
    <td width=300><img src=""static/images/keys/w.svg"" width=""35%"" height=""75%""></img></td>
    <td width=300><img src=""static/images/keys/o.svg"" width=""35%"" height=""75%""></img></td>
  </tr>
</table>
  ",79.0,,,,,,,,,,,,,,,,,,,,,,,,,1.0,,
221,0,,html-keyboard-response,221,468953,0.0-7.12-1.12,e2z84lzbop,2022-09-19 17:33:39.500,632085a9bf72d10d30d799c6,1,79,42,60,42,26,Male,410.5,,"
  <table>
  <tr height=300>
    <td width=300 height=300><img src=""static/images/cards/back_of_black_moons.svg"" width=""175px"" height=""250px""></img></td>
    <td width=300 height=300><img src=""static/images/cards/back_of_black_moons.svg"" width=""175px"" height=""250px""></img></td>
  </tr>
  <tr height=200>
    <td width=300></td>
    <td width=300><img src=""static/images/keys/m.svg"" width=""35%"" height=""75%""></img></td>
  </tr>
</table>
  ",77.0,,,,,,,,,,,,,,,,,,,,,,,,,1.0,,
222,0,,html-keyboard-response,222,470455,0.0-7.12-2.12,e2z84lzbop,2022-09-19 17:33:39.500,632085a9bf72d10d30d799c6,1,79,42,60,42,26,Male,,,"
  <table>
  <tr height=300>
    <td width=300 height=300><img src=""static/images/cards/back_of_black_moons.svg"" width=""175px"" height=""250px""></img></td>
    <td width=300 height=300><img src=""static/images/cards/7_of_black_moons.svg"" width=""175px"" height=""250px""></img></td>
  </tr>
  <tr height=200>
    <td width=300></td>
    <td width=300><img src=""static/images/keys/m.svg"" width=""35%"" height=""75%""></img></td>
  </tr>
</table>
  ",,,,,,,,,,,,,,,,,,,,,,,,,,,,
223,0,,html-keyboard-response,223,471958,0.0-7.12-3.12,e2z84lzbop,2022-09-19 17:33:39.500,632085a9bf72d10d30d799c6,1,79,42,60,42,26,Male,,,"<p style=""font-size:50px"">You win!
+10 points this round!</p>",,,,,,,,,,,,,,,,,,,,,,,,,,,,
224,0,,html-keyboard-response,224,472464,0.0-7.12-4.12,e2z84lzbop,2022-09-19 17:33:39.500,632085a9bf72d10d30d799c6,1,79,42,60,42,26,Male,,,,,1.0,choice,12.0,A,B,red,black,moons,moons,A,B,B,black,moons,759.7000000179,0.0,1.0,0,right,410.5,7.0,1.0,1.0,,,,
225,0,,html-keyboard-response,225,473495,0.0-7.13-0.13,e2z84lzbop,2022-09-19 17:33:39.500,632085a9bf72d10d30d799c6,1,79,42,60,42,26,Male,1030.3000000119,,"
  <table>
  <tr height=300>
    <td width=300 height=300><img src=""static/images/cards/stack_of_black_stars.svg"" width=""175px"" height=""250px""></img></td>
    <td width=300 height=300><img src=""static/images/cards/stack_of_red_stars.svg"" width=""175px"" height=""250px""></img></td>
  </tr>
  <tr height=200>
    <td width=300><img src=""static/images/keys/w.svg"" width=""35%"" height=""75%""></img></td>
    <td width=300><img src=""static/images/keys/o.svg"" width=""35%"" height=""75%""></img></td>
  </tr>
</table>
  ",87.0,,,,,,,,,,,,,,,,,,,,,,,,,1.0,,
226,0,,html-keyboard-response,226,474518,0.0-7.13-1.13,e2z84lzbop,2022-09-19 17:33:39.500,632085a9bf72d10d30d799c6,1,79,42,60,42,26,Male,521.2000000179,,"
  <table>
  <tr height=300>
    <td width=300 height=300><img src=""static/images/cards/back_of_black_stars.svg"" width=""175px"" height=""250px""></img></td>
    <td width=300 height=300><img src=""static/images/cards/back_of_black_stars.svg"" width=""175px"" height=""250px""></img></td>
  </tr>
  <tr height=200>
    <td width=300><img src=""static/images/keys/z.svg"" width=""35%"" height=""75%""></img></td>
    <td width=300></td>
  </tr>
</table>
  ",90.0,,,,,,,,,,,,,,,,,,,,,,,,,1.0,,
227,0,,html-keyboard-response,227,476019,0.0-7.13-2.13,e2z84lzbop,2022-09-19 17:33:39.500,632085a9bf72d10d30d799c6,1,79,42,60,42,26,Male,,,"
  <table>
  <tr height=300>
    <td width=300 height=300><img src=""static/images/cards/2_of_black_stars.svg"" width=""175px"" height=""250px""></img></td>
    <td width=300 height=300><img src=""static/images/cards/back_of_black_stars.svg"" width=""175px"" height=""250px""></img></td>
  </tr>
  <tr height=200>
    <td width=300><img src=""static/images/keys/z.svg"" width=""35%"" height=""75%""></img></td>
    <td width=300></td>
  </tr>
</table>
  ",,,,,,,,,,,,,,,,,,,,,,,,,,,,
228,0,,html-keyboard-response,228,477522,0.0-7.13-3.13,e2z84lzbop,2022-09-19 17:33:39.500,632085a9bf72d10d30d799c6,1,79,42,60,42,26,Male,,,"<p style=""font-size:50px"">You Lose!
No points this round.</p>",,,,,,,,,,,,,,,,,,,,,,,,,,,,
229,0,,html-keyboard-response,229,478029,0.0-7.13-4.13,e2z84lzbop,2022-09-19 17:33:39.500,632085a9bf72d10d30d799c6,1,79,42,60,42,26,Male,,,,,1.0,choice,13.0,C,D,black,red,stars,stars,D,C,D,black,stars,1030.3000000119,0.0,0.0,1,left,521.2000000179,2.0,0.0,0.0,,,,
230,0,,html-keyboard-response,230,478628,0.0-7.14-0.14,e2z84lzbop,2022-09-19 17:33:39.500,632085a9bf72d10d30d799c6,1,79,42,60,42,26,Male,598.6999999881,,"
  <table>
  <tr height=300>
    <td width=300 height=300><img src=""static/images/cards/stack_of_red_moons.svg"" width=""175px"" height=""250px""></img></td>
    <td width=300 height=300><img src=""static/images/cards/stack_of_black_stars.svg"" width=""175px"" height=""250px""></img></td>
  </tr>
  <tr height=200>
    <td width=300><img src=""static/images/keys/w.svg"" width=""35%"" height=""75%""></img></td>
    <td width=300><img src=""static/images/keys/o.svg"" width=""35%"" height=""75%""></img></td>
  </tr>
</table>
  ",79.0,,,,,,,,,,,,,,,,,,,,,,,,,1.0,,
231,0,,html-keyboard-response,231,479614,0.0-7.14-1.14,e2z84lzbop,2022-09-19 17:33:39.500,632085a9bf72d10d30d799c6,1,79,42,60,42,26,Male,482.3000000119,,"
  <table>
  <tr height=300>
    <td width=300 height=300><img src=""static/images/cards/back_of_black_stars.svg"" width=""175px"" height=""250px""></img></td>
    <td width=300 height=300><img src=""static/images/cards/back_of_black_stars.svg"" width=""175px"" height=""250px""></img></td>
  </tr>
  <tr height=200>
    <td width=300><img src=""static/images/keys/z.svg"" width=""35%"" height=""75%""></img></td>
    <td width=300></td>
  </tr>
</table>
  ",90.0,,,,,,,,,,,,,,,,,,,,,,,,,1.0,,
232,0,,html-keyboard-response,232,481115,0.0-7.14-2.14,e2z84lzbop,2022-09-19 17:33:39.500,632085a9bf72d10d30d799c6,1,79,42,60,42,26,Male,,,"
  <table>
  <tr height=300>
    <td width=300 height=300><img src=""static/images/cards/2_of_black_stars.svg"" width=""175px"" height=""250px""></img></td>
    <td width=300 height=300><img src=""static/images/cards/back_of_black_stars.svg"" width=""175px"" height=""250px""></img></td>
  </tr>
  <tr height=200>
    <td width=300><img src=""static/images/keys/z.svg"" width=""35%"" height=""75%""></img></td>
    <td width=300></td>
  </tr>
</table>
  ",,,,,,,,,,,,,,,,,,,,,,,,,,,,
233,0,,html-keyboard-response,233,482618,0.0-7.14-3.14,e2z84lzbop,2022-09-19 17:33:39.500,632085a9bf72d10d30d799c6,1,79,42,60,42,26,Male,,,"<p style=""font-size:50px"">You Lose!
No points this round.</p>",,,,,,,,,,,,,,,,,,,,,,,,,,,,
234,0,,html-keyboard-response,234,483125,0.0-7.14-4.14,e2z84lzbop,2022-09-19 17:33:39.500,632085a9bf72d10d30d799c6,1,79,42,60,42,26,Male,,,,,1.0,choice,14.0,A,D,red,black,moons,stars,A,D,D,black,stars,598.6999999881,0.0,0.0,1,left,482.3000000119,2.0,0.0,0.0,,,,
235,0,,html-keyboard-response,235,484339,0.0-7.15-0.15,e2z84lzbop,2022-09-19 17:33:39.500,632085a9bf72d10d30d799c6,1,79,42,60,42,26,Male,1212.7000000179,,"
  <table>
  <tr height=300>
    <td width=300 height=300><img src=""static/images/cards/stack_of_black_stars.svg"" width=""175px"" height=""250px""></img></td>
    <td width=300 height=300><img src=""static/images/cards/stack_of_black_moons.svg"" width=""175px"" height=""250px""></img></td>
  </tr>
  <tr height=200>
    <td width=300><img src=""static/images/keys/w.svg"" width=""35%"" height=""75%""></img></td>
    <td width=300><img src=""static/images/keys/o.svg"" width=""35%"" height=""75%""></img></td>
  </tr>
</table>
  ",87.0,,,,,,,,,,,,,,,,,,,,,,,,,1.0,,
236,0,,html-keyboard-response,236,485434,0.0-7.15-1.15,e2z84lzbop,2022-09-19 17:33:39.500,632085a9bf72d10d30d799c6,1,79,42,60,42,26,Male,594.1999999881,,"
  <table>
  <tr height=300>
    <td width=300 height=300><img src=""static/images/cards/back_of_black_stars.svg"" width=""175px"" height=""250px""></img></td>
    <td width=300 height=300><img src=""static/images/cards/back_of_black_stars.svg"" width=""175px"" height=""250px""></img></td>
  </tr>
  <tr height=200>
    <td width=300><img src=""static/images/keys/z.svg"" width=""35%"" height=""75%""></img></td>
    <td width=300></td>
  </tr>
</table>
  ",90.0,,,,,,,,,,,,,,,,,,,,,,,,,1.0,,
237,0,,html-keyboard-response,237,486935,0.0-7.15-2.15,e2z84lzbop,2022-09-19 17:33:39.500,632085a9bf72d10d30d799c6,1,79,42,60,42,26,Male,,,"
  <table>
  <tr height=300>
    <td width=300 height=300><img src=""static/images/cards/8_of_black_stars.svg"" width=""175px"" height=""250px""></img></td>
    <td width=300 height=300><img src=""static/images/cards/back_of_black_stars.svg"" width=""175px"" height=""250px""></img></td>
  </tr>
  <tr height=200>
    <td width=300><img src=""static/images/keys/z.svg"" width=""35%"" height=""75%""></img></td>
    <td width=300></td>
  </tr>
</table>
  ",,,,,,,,,,,,,,,,,,,,,,,,,,,,
238,0,,html-keyboard-response,238,488436,0.0-7.15-3.15,e2z84lzbop,2022-09-19 17:33:39.500,632085a9bf72d10d30d799c6,1,79,42,60,42,26,Male,,,"<p style=""font-size:50px"">You Lose!
No points this round.</p>",,,,,,,,,,,,,,,,,,,,,,,,,,,,
239,0,,html-keyboard-response,239,488941,0.0-7.15-4.15,e2z84lzbop,2022-09-19 17:33:39.500,632085a9bf72d10d30d799c6,1,79,42,60,42,26,Male,,,,,1.0,choice,15.0,B,D,black,black,stars,moons,D,B,D,black,stars,1212.7000000179,0.0,0.0,1,left,594.1999999881,8.0,1.0,0.0,,,,
240,0,,html-keyboard-response,240,489727,0.0-7.16-0.16,e2z84lzbop,2022-09-19 17:33:39.500,632085a9bf72d10d30d799c6,1,79,42,60,42,26,Male,784.5,,"
  <table>
  <tr height=300>
    <td width=300 height=300><img src=""static/images/cards/stack_of_black_stars.svg"" width=""175px"" height=""250px""></img></td>
    <td width=300 height=300><img src=""static/images/cards/stack_of_red_bolts.svg"" width=""175px"" height=""250px""></img></td>
  </tr>
  <tr height=200>
    <td width=300><img src=""static/images/keys/w.svg"" width=""35%"" height=""75%""></img></td>
    <td width=300><img src=""static/images/keys/o.svg"" width=""35%"" height=""75%""></img></td>
  </tr>
</table>
  ",87.0,,,,,,,,,,,,,,,,,,,,,,,,,1.0,,
241,0,,html-keyboard-response,241,490819,0.0-7.16-1.16,e2z84lzbop,2022-09-19 17:33:39.500,632085a9bf72d10d30d799c6,1,79,42,60,42,26,Male,590.0,,"
  <table>
  <tr height=300>
    <td width=300 height=300><img src=""static/images/cards/back_of_black_stars.svg"" width=""175px"" height=""250px""></img></td>
    <td width=300 height=300><img src=""static/images/cards/back_of_black_stars.svg"" width=""175px"" height=""250px""></img></td>
  </tr>
  <tr height=200>
    <td width=300></td>
