,index,success,trial_type,trial_index,time_elapsed,internal_node_id,subject,date,prol_id,ctbl,sense_of_control_A,sense_of_control_B,sense_of_control_C,sense_of_control_D,age,gender,rt,url,stimulus,key_press,npress,is_data_trial,phase,trial,deck1,deck2,col1,col2,sym1,sym2,deck_l,deck_r,chosen_deck,chosen_col,chosen_sym,deck_rt,choose_choice,mutual_info,hidden_key,chosen_card,card_rt,player_num,win_card,outcome,mock_rating,response,responses
0,0,1.0,fullscreen,0,3159,0.0-0.0,6vt89xg1k1t,2022-09-19 17:33:42.523,5c61598fb40f380001109ca5,3,72,62,5,4,40,male,,,,,,,,,,,,,,,,,,,,,,,,,,,,,,,
1,0,,external-html,1,9467,0.0-1.0,6vt89xg1k1t,2022-09-19 17:33:42.523,5c61598fb40f380001109ca5,3,72,62,5,4,40,male,6179.8,static/js/sub/consent.html,,,,,,,,,,,,,,,,,,,,,,,,,,,,,
2,0,,call-function,2,9469,0.0-2.0,6vt89xg1k1t,2022-09-19 17:33:42.523,5c61598fb40f380001109ca5,3,72,62,5,4,40,male,,,,,,,,,,,,,,,,,,,,,,,,,,,,,,,
3,0,,image-keyboard-response,3,44263,0.0-3.0-0.0,6vt89xg1k1t,2022-09-19 17:33:42.523,5c61598fb40f380001109ca5,3,72,62,5,4,40,male,34792.3,,static/images/instructions_CB_3/Slide1.png,39.0,,,,,,,,,,,,,,,,,,,,,,,,,,,
4,0,,image-keyboard-response,4,53146,0.0-3.1-0.1,6vt89xg1k1t,2022-09-19 17:33:42.523,5c61598fb40f380001109ca5,3,72,62,5,4,40,male,8880.8,,static/images/instructions_CB_3/Slide2.png,39.0,,,,,,,,,,,,,,,,,,,,,,,,,,,
5,0,,image-keyboard-response,5,57044,0.0-3.2-0.2,6vt89xg1k1t,2022-09-19 17:33:42.523,5c61598fb40f380001109ca5,3,72,62,5,4,40,male,3904.2,,static/images/instructions_CB_3/Slide3.png,39.0,,,,,,,,,,,,,,,,,,,,,,,,,,,
6,0,,image-keyboard-response,6,63830,0.0-3.3-0.3,6vt89xg1k1t,2022-09-19 17:33:42.523,5c61598fb40f380001109ca5,3,72,62,5,4,40,male,6784.5999999999,,static/images/instructions_CB_3/Slide4.png,39.0,,,,,,,,,,,,,,,,,,,,,,,,,,,
7,0,,image-keyboard-response,7,68495,0.0-3.4-0.4,6vt89xg1k1t,2022-09-19 17:33:42.523,5c61598fb40f380001109ca5,3,72,62,5,4,40,male,4663.5,,static/images/instructions_CB_3/Slide5.png,39.0,,,,,,,,,,,,,,,,,,,,,,,,,,,
8,0,,image-keyboard-response,8,69633,0.0-3.5-0.5,6vt89xg1k1t,2022-09-19 17:33:42.523,5c61598fb40f380001109ca5,3,72,62,5,4,40,male,1137.1000000001,,static/images/instructions_CB_3/Slide6.png,39.0,,,,,,,,,,,,,,,,,,,,,,,,,,,
9,0,,image-keyboard-response,9,78313,0.0-3.6-0.6,6vt89xg1k1t,2022-09-19 17:33:42.523,5c61598fb40f380001109ca5,3,72,62,5,4,40,male,8678.3999999999,,static/images/instructions_CB_3/Slide7.png,39.0,,,,,,,,,,,,,,,,,,,,,,,,,,,
10,0,,image-keyboard-response,10,117149,0.0-3.7-0.7,6vt89xg1k1t,2022-09-19 17:33:42.523,5c61598fb40f380001109ca5,3,72,62,5,4,40,male,38835.5,,static/images/instructions_CB_3/Slide8.png,39.0,,,,,,,,,,,,,,,,,,,,,,,,,,,
11,0,,image-keyboard-response,11,128986,0.0-3.8-0.8,6vt89xg1k1t,2022-09-19 17:33:42.523,5c61598fb40f380001109ca5,3,72,62,5,4,40,male,11836.2,,static/images/instructions_CB_3/Slide9.png,39.0,,,,,,,,,,,,,,,,,,,,,,,,,,,
12,0,,image-keyboard-response,12,149017,0.0-3.9-0.9,6vt89xg1k1t,2022-09-19 17:33:42.523,5c61598fb40f380001109ca5,3,72,62,5,4,40,male,20029.0999999999,,static/images/instructions_CB_3/Slide10.png,39.0,,,,,,,,,,,,,,,,,,,,,,,,,,,
13,0,,image-keyboard-response,13,152921,0.0-3.10-0.10,6vt89xg1k1t,2022-09-19 17:33:42.523,5c61598fb40f380001109ca5,3,72,62,5,4,40,male,3903.3,,static/images/instructions_CB_3/Slide11.png,39.0,,,,,,,,,,,,,,,,,,,,,,,,,,,
14,0,,image-keyboard-response,14,176863,0.0-3.11-0.11,6vt89xg1k1t,2022-09-19 17:33:42.523,5c61598fb40f380001109ca5,3,72,62,5,4,40,male,23940.8,,static/images/instructions_CB_3/Slide12.png,39.0,,,,,,,,,,,,,,,,,,,,,,,,,,,
15,0,,image-keyboard-response,15,193554,0.0-3.12-0.12,6vt89xg1k1t,2022-09-19 17:33:42.523,5c61598fb40f380001109ca5,3,72,62,5,4,40,male,16675.2,,static/images/instructions_CB_3/Slide13.png,39.0,,,,,,,,,,,,,,,,,,,,,,,,,,,
16,0,,image-keyboard-response,16,201197,0.0-3.13-0.13,6vt89xg1k1t,2022-09-19 17:33:42.523,5c61598fb40f380001109ca5,3,72,62,5,4,40,male,7642.7,,static/images/instructions_CB_3/Slide14.png,39.0,,,,,,,,,,,,,,,,,,,,,,,,,,,
17,0,,image-keyboard-response,17,205676,0.0-3.14-0.14,6vt89xg1k1t,2022-09-19 17:33:42.523,5c61598fb40f380001109ca5,3,72,62,5,4,40,male,4477.5,,static/images/instructions_CB_3/Slide15.png,39.0,,,,,,,,,,,,,,,,,,,,,,,,,,,
18,0,,image-keyboard-response,18,213763,0.0-3.15-0.15,6vt89xg1k1t,2022-09-19 17:33:42.523,5c61598fb40f380001109ca5,3,72,62,5,4,40,male,8085.8,,static/images/instructions_CB_3/Slide16.png,39.0,,,,,,,,,,,,,,,,,,,,,,,,,,,
19,0,,image-keyboard-response,19,220932,0.0-3.16-0.16,6vt89xg1k1t,2022-09-19 17:33:42.523,5c61598fb40f380001109ca5,3,72,62,5,4,40,male,7167.8,,static/images/instructions_CB_3/Slide17.png,39.0,,,,,,,,,,,,,,,,,,,,,,,,,,,
20,0,,image-keyboard-response,20,226407,0.0-3.17-0.17,6vt89xg1k1t,2022-09-19 17:33:42.523,5c61598fb40f380001109ca5,3,72,62,5,4,40,male,5474.3,,static/images/instructions_CB_3/Slide18.png,39.0,,,,,,,,,,,,,,,,,,,,,,,,,,,
21,0,,image-keyboard-response,21,235826,0.0-3.18-0.18,6vt89xg1k1t,2022-09-19 17:33:42.523,5c61598fb40f380001109ca5,3,72,62,5,4,40,male,9417.2000000002,,static/images/instructions_CB_3/Slide19.png,39.0,,,,,,,,,,,,,,,,,,,,,,,,,,,
22,0,,html-keyboard-response,22,237335,0.0-4.0-0.0,6vt89xg1k1t,2022-09-19 17:33:42.523,5c61598fb40f380001109ca5,3,72,62,5,4,40,male,,,"<img src=""static/images/cards/stack_of_black_moons.svg"" width=""175px"" height=""250px""></img>",,,,,,,,,,,,,,,,,,,,,,,,,,,,
23,0,,html-keyboard-response,23,239007,0.0-4.0-1.0,6vt89xg1k1t,2022-09-19 17:33:42.523,5c61598fb40f380001109ca5,3,72,62,5,4,40,male,1155.4000000001,,"
  <table>
  <tr height=300>
    <td width=300 height=300><img src=""static/images/cards/back_of_black_moons.svg"" width=""175px"" height=""250px""></img></td>
    <td width=300 height=300><img src=""static/images/cards/back_of_black_moons.svg"" width=""175px"" height=""250px""></img></td>
  </tr>
  <tr height=200>
    <td width=300><img src=""static/images/keys/z.svg"" width=""35%"" height=""75%""></img></td>
    <td width=300><img src=""static/images/keys/m.svg"" width=""35%"" height=""75%""></img></td>
  </tr>
</table>
  ",77.0,1.0,,,,,,,,,,,,,,,,,,,,,,,,,,
24,0,,html-keyboard-response,24,240518,0.0-4.0-2.0,6vt89xg1k1t,2022-09-19 17:33:42.523,5c61598fb40f380001109ca5,3,72,62,5,4,40,male,,,"
  <table>
  <tr height=300>
    <td width=300 height=300><img src=""static/images/cards/back_of_black_moons.svg"" width=""175px"" height=""250px""></img></td>
    <td width=300 height=300><img src=""static/images/cards/2_of_black_moons.svg"" width=""175px"" height=""250px""></img></td>
  </tr>
  <tr height=200>
    <td width=300><img src=""static/images/keys/z.svg"" width=""35%"" height=""75%""></img></td>
    <td width=300><img src=""static/images/keys/m.svg"" width=""35%"" height=""75%""></img></td>
  </tr>
</table>
  ",,,,,,,,,,,,,,,,,,,,,,,,,,,,
25,0,,html-keyboard-response,25,242034,0.0-4.0-3.0,6vt89xg1k1t,2022-09-19 17:33:42.523,5c61598fb40f380001109ca5,3,72,62,5,4,40,male,,,"<p style=""font-size:50px"">You Lose!
No points this round.</p>",,,,,,,,,,,,,,,,,,,,,,,,,,,,
26,0,,html-keyboard-response,26,242554,0.0-4.0-4.0,6vt89xg1k1t,2022-09-19 17:33:42.523,5c61598fb40f380001109ca5,3,72,62,5,4,40,male,,,,,,1.0,learning,0.0,A,,black,,moons,,,,A,black,moons,,1.0,1.0,NA,right,1155.4000000001,2.0,0.0,0.0,,,
27,0,,html-keyboard-response,27,244067,0.0-4.1-0.1,6vt89xg1k1t,2022-09-19 17:33:42.523,5c61598fb40f380001109ca5,3,72,62,5,4,40,male,,,"<img src=""static/images/cards/stack_of_red_moons.svg"" width=""175px"" height=""250px""></img>",,,,,,,,,,,,,,,,,,,,,,,,,,,,
28,0,,html-keyboard-response,28,245881,0.0-4.1-1.1,6vt89xg1k1t,2022-09-19 17:33:42.523,5c61598fb40f380001109ca5,3,72,62,5,4,40,male,1310.5,,"
  <table>
  <tr height=300>
    <td width=300 height=300><img src=""static/images/cards/back_of_red_moons.svg"" width=""175px"" height=""250px""></img></td>
    <td width=300 height=300><img src=""static/images/cards/back_of_red_moons.svg"" width=""175px"" height=""250px""></img></td>
  </tr>
  <tr height=200>
    <td width=300><img src=""static/images/keys/z.svg"" width=""35%"" height=""75%""></img></td>
    <td width=300></td>
  </tr>
</table>
  ",90.0,1.0,,,,,,,,,,,,,,,,,,,,,,,,,,
29,0,,html-keyboard-response,29,247384,0.0-4.1-2.1,6vt89xg1k1t,2022-09-19 17:33:42.523,5c61598fb40f380001109ca5,3,72,62,5,4,40,male,,,"
  <table>
  <tr height=300>
    <td width=300 height=300><img src=""static/images/cards/8_of_red_moons.svg"" width=""175px"" height=""250px""></img></td>
    <td width=300 height=300><img src=""static/images/cards/back_of_red_moons.svg"" width=""175px"" height=""250px""></img></td>
  </tr>
  <tr height=200>
    <td width=300><img src=""static/images/keys/z.svg"" width=""35%"" height=""75%""></img></td>
    <td width=300></td>
  </tr>
</table>
  ",,,,,,,,,,,,,,,,,,,,,,,,,,,,
30,0,,html-keyboard-response,30,248900,0.0-4.1-3.1,6vt89xg1k1t,2022-09-19 17:33:42.523,5c61598fb40f380001109ca5,3,72,62,5,4,40,male,,,"<p style=""font-size:50px"">You win!
+10 points this round!</p>",,,,,,,,,,,,,,,,,,,,,,,,,,,,
31,0,,html-keyboard-response,31,249420,0.0-4.1-4.1,6vt89xg1k1t,2022-09-19 17:33:42.523,5c61598fb40f380001109ca5,3,72,62,5,4,40,male,,,,,,1.0,learning,1.0,B,,red,,moons,,,,B,red,moons,,0.0,1.0,1,left,1310.5,8.0,1.0,1.0,,,
32,0,,html-keyboard-response,32,250932,0.0-4.2-0.2,6vt89xg1k1t,2022-09-19 17:33:42.523,5c61598fb40f380001109ca5,3,72,62,5,4,40,male,,,"<img src=""static/images/cards/stack_of_black_stars.svg"" width=""175px"" height=""250px""></img>",,,,,,,,,,,,,,,,,,,,,,,,,,,,
33,0,,html-keyboard-response,33,252531,0.0-4.2-1.2,6vt89xg1k1t,2022-09-19 17:33:42.523,5c61598fb40f380001109ca5,3,72,62,5,4,40,male,1096.0,,"
  <table>
  <tr height=300>
    <td width=300 height=300><img src=""static/images/cards/back_of_black_stars.svg"" width=""175px"" height=""250px""></img></td>
    <td width=300 height=300><img src=""static/images/cards/back_of_black_stars.svg"" width=""175px"" height=""250px""></img></td>
  </tr>
  <tr height=200>
    <td width=300><img src=""static/images/keys/z.svg"" width=""35%"" height=""75%""></img></td>
    <td width=300><img src=""static/images/keys/m.svg"" width=""35%"" height=""75%""></img></td>
  </tr>
</table>
  ",90.0,1.0,,,,,,,,,,,,,,,,,,,,,,,,,,
34,0,,html-keyboard-response,34,254038,0.0-4.2-2.2,6vt89xg1k1t,2022-09-19 17:33:42.523,5c61598fb40f380001109ca5,3,72,62,5,4,40,male,,,"
  <table>
  <tr height=300>
    <td width=300 height=300><img src=""static/images/cards/10_of_black_stars.svg"" width=""175px"" height=""250px""></img></td>
    <td width=300 height=300><img src=""static/images/cards/back_of_black_stars.svg"" width=""175px"" height=""250px""></img></td>
  </tr>
  <tr height=200>
    <td width=300><img src=""static/images/keys/z.svg"" width=""35%"" height=""75%""></img></td>
    <td width=300><img src=""static/images/keys/m.svg"" width=""35%"" height=""75%""></img></td>
  </tr>
</table>
  ",,,,,,,,,,,,,,,,,,,,,,,,,,,,
35,0,,html-keyboard-response,35,255565,0.0-4.2-3.2,6vt89xg1k1t,2022-09-19 17:33:42.523,5c61598fb40f380001109ca5,3,72,62,5,4,40,male,,,"<p style=""font-size:50px"">You Lose!
No points this round.</p>",,,,,,,,,,,,,,,,,,,,,,,,,,,,
36,0,,html-keyboard-response,36,256087,0.0-4.2-4.2,6vt89xg1k1t,2022-09-19 17:33:42.523,5c61598fb40f380001109ca5,3,72,62,5,4,40,male,,,,,,1.0,learning,2.0,C,,black,,stars,,,,C,black,stars,,1.0,0.0,NA,left,1096.0,10.0,1.0,0.0,,,
37,0,,html-keyboard-response,37,257604,0.0-4.3-0.3,6vt89xg1k1t,2022-09-19 17:33:42.523,5c61598fb40f380001109ca5,3,72,62,5,4,40,male,,,"<img src=""static/images/cards/stack_of_red_stars.svg"" width=""175px"" height=""250px""></img>",,,,,,,,,,,,,,,,,,,,,,,,,,,,
38,0,,html-keyboard-response,38,259278,0.0-4.3-1.3,6vt89xg1k1t,2022-09-19 17:33:42.523,5c61598fb40f380001109ca5,3,72,62,5,4,40,male,1162.1000000001,,"
  <table>
  <tr height=300>
    <td width=300 height=300><img src=""static/images/cards/back_of_red_stars.svg"" width=""175px"" height=""250px""></img></td>
    <td width=300 height=300><img src=""static/images/cards/back_of_red_stars.svg"" width=""175px"" height=""250px""></img></td>
  </tr>
  <tr height=200>
    <td width=300></td>
    <td width=300><img src=""static/images/keys/m.svg"" width=""35%"" height=""75%""></img></td>
  </tr>
</table>
  ",77.0,1.0,,,,,,,,,,,,,,,,,,,,,,,,,,
39,0,,html-keyboard-response,39,260792,0.0-4.3-2.3,6vt89xg1k1t,2022-09-19 17:33:42.523,5c61598fb40f380001109ca5,3,72,62,5,4,40,male,,,"
  <table>
  <tr height=300>
    <td width=300 height=300><img src=""static/images/cards/back_of_red_stars.svg"" width=""175px"" height=""250px""></img></td>
    <td width=300 height=300><img src=""static/images/cards/9_of_red_stars.svg"" width=""175px"" height=""250px""></img></td>
  </tr>
  <tr height=200>
    <td width=300></td>
    <td width=300><img src=""static/images/keys/m.svg"" width=""35%"" height=""75%""></img></td>
  </tr>
</table>
  ",,,,,,,,,,,,,,,,,,,,,,,,,,,,
40,0,,html-keyboard-response,40,262299,0.0-4.3-3.3,6vt89xg1k1t,2022-09-19 17:33:42.523,5c61598fb40f380001109ca5,3,72,62,5,4,40,male,,,"<p style=""font-size:50px"">You win!
+10 points this round!</p>",,,,,,,,,,,,,,,,,,,,,,,,,,,,
41,0,,html-keyboard-response,41,262820,0.0-4.3-4.3,6vt89xg1k1t,2022-09-19 17:33:42.523,5c61598fb40f380001109ca5,3,72,62,5,4,40,male,,,,,,1.0,learning,3.0,D,,red,,stars,,,,D,red,stars,,0.0,0.0,0,right,1162.1000000001,9.0,1.0,1.0,,,
42,0,,html-keyboard-response,42,264331,0.0-4.4-0.4,6vt89xg1k1t,2022-09-19 17:33:42.523,5c61598fb40f380001109ca5,3,72,62,5,4,40,male,,,"<img src=""static/images/cards/stack_of_red_bolts.svg"" width=""175px"" height=""250px""></img>",,,,,,,,,,,,,,,,,,,,,,,,,,,,
43,0,,html-keyboard-response,43,266299,0.0-4.4-1.4,6vt89xg1k1t,2022-09-19 17:33:42.523,5c61598fb40f380001109ca5,3,72,62,5,4,40,male,1465.3999999999,,"
  <table>
  <tr height=300>
    <td width=300 height=300><img src=""static/images/cards/back_of_red_bolts.svg"" width=""175px"" height=""250px""></img></td>
    <td width=300 height=300><img src=""static/images/cards/back_of_red_bolts.svg"" width=""175px"" height=""250px""></img></td>
  </tr>
  <tr height=200>
    <td width=300><img src=""static/images/keys/z.svg"" width=""35%"" height=""75%""></img></td>
    <td width=300><img src=""static/images/keys/m.svg"" width=""35%"" height=""75%""></img></td>
  </tr>
</table>
  ",90.0,1.0,,,,,,,,,,,,,,,,,,,,,,,,,,
44,0,,html-keyboard-response,44,267814,0.0-4.4-2.4,6vt89xg1k1t,2022-09-19 17:33:42.523,5c61598fb40f380001109ca5,3,72,62,5,4,40,male,,,"
  <table>
  <tr height=300>
    <td width=300 height=300><img src=""static/images/cards/3_of_red_bolts.svg"" width=""175px"" height=""250px""></img></td>
    <td width=300 height=300><img src=""static/images/cards/back_of_red_bolts.svg"" width=""175px"" height=""250px""></img></td>
  </tr>
  <tr height=200>
    <td width=300><img src=""static/images/keys/z.svg"" width=""35%"" height=""75%""></img></td>
    <td width=300><img src=""static/images/keys/m.svg"" width=""35%"" height=""75%""></img></td>
  </tr>
</table>
  ",,,,,,,,,,,,,,,,,,,,,,,,,,,,
45,0,,html-keyboard-response,45,269330,0.0-4.4-3.4,6vt89xg1k1t,2022-09-19 17:33:42.523,5c61598fb40f380001109ca5,3,72,62,5,4,40,male,,,"<p style=""font-size:50px"">You win!
+10 points this round!</p>",,,,,,,,,,,,,,,,,,,,,,,,,,,,
46,0,,html-keyboard-response,46,269846,0.0-4.4-4.4,6vt89xg1k1t,2022-09-19 17:33:42.523,5c61598fb40f380001109ca5,3,72,62,5,4,40,male,,,,,,1.0,learning,4.0,Xc,,red,,bolts,,,,Xc,red,bolts,,1.0,0.0,NA,left,1465.3999999999,3.0,0.0,1.0,,,
47,0,,html-keyboard-response,47,271359,0.0-4.5-0.5,6vt89xg1k1t,2022-09-19 17:33:42.523,5c61598fb40f380001109ca5,3,72,62,5,4,40,male,,,"<img src=""static/images/cards/stack_of_black_bolts.svg"" width=""175px"" height=""250px""></img>",,,,,,,,,,,,,,,,,,,,,,,,,,,,
48,0,,html-keyboard-response,48,272696,0.0-4.5-1.5,6vt89xg1k1t,2022-09-19 17:33:42.523,5c61598fb40f380001109ca5,3,72,62,5,4,40,male,828.8,,"
  <table>
  <tr height=300>
    <td width=300 height=300><img src=""static/images/cards/back_of_black_bolts.svg"" width=""175px"" height=""250px""></img></td>
    <td width=300 height=300><img src=""static/images/cards/back_of_black_bolts.svg"" width=""175px"" height=""250px""></img></td>
  </tr>
  <tr height=200>
    <td width=300><img src=""static/images/keys/z.svg"" width=""35%"" height=""75%""></img></td>
    <td width=300></td>
  </tr>
</table>
  ",90.0,1.0,,,,,,,,,,,,,,,,,,,,,,,,,,
49,0,,html-keyboard-response,49,274213,0.0-4.5-2.5,6vt89xg1k1t,2022-09-19 17:33:42.523,5c61598fb40f380001109ca5,3,72,62,5,4,40,male,,,"
  <table>
  <tr height=300>
    <td width=300 height=300><img src=""static/images/cards/8_of_black_bolts.svg"" width=""175px"" height=""250px""></img></td>
    <td width=300 height=300><img src=""static/images/cards/back_of_black_bolts.svg"" width=""175px"" height=""250px""></img></td>
  </tr>
  <tr height=200>
    <td width=300><img src=""static/images/keys/z.svg"" width=""35%"" height=""75%""></img></td>
    <td width=300></td>
  </tr>
</table>
  ",,,,,,,,,,,,,,,,,,,,,,,,,,,,
50,0,,html-keyboard-response,50,275729,0.0-4.5-3.5,6vt89xg1k1t,2022-09-19 17:33:42.523,5c61598fb40f380001109ca5,3,72,62,5,4,40,male,,,"<p style=""font-size:50px"">You win!
+10 points this round!</p>",,,,,,,,,,,,,,,,,,,,,,,,,,,,
51,0,,html-keyboard-response,51,276235,0.0-4.5-4.5,6vt89xg1k1t,2022-09-19 17:33:42.523,5c61598fb40f380001109ca5,3,72,62,5,4,40,male,,,,,,1.0,learning,5.0,Xnc,,black,,bolts,,,,Xnc,black,bolts,,0.0,0.0,1,left,828.8,8.0,1.0,1.0,,,
52,0,,html-keyboard-response,52,277747,0.0-4.6-0.6,6vt89xg1k1t,2022-09-19 17:33:42.523,5c61598fb40f380001109ca5,3,72,62,5,4,40,male,,,"<img src=""static/images/cards/stack_of_black_moons.svg"" width=""175px"" height=""250px""></img>",,,,,,,,,,,,,,,,,,,,,,,,,,,,
53,0,,html-keyboard-response,53,279200,0.0-4.6-1.6,6vt89xg1k1t,2022-09-19 17:33:42.523,5c61598fb40f380001109ca5,3,72,62,5,4,40,male,935.9000000001,,"
  <table>
  <tr height=300>
    <td width=300 height=300><img src=""static/images/cards/back_of_black_moons.svg"" width=""175px"" height=""250px""></img></td>
    <td width=300 height=300><img src=""static/images/cards/back_of_black_moons.svg"" width=""175px"" height=""250px""></img></td>
  </tr>
  <tr height=200>
    <td width=300><img src=""static/images/keys/z.svg"" width=""35%"" height=""75%""></img></td>
    <td width=300><img src=""static/images/keys/m.svg"" width=""35%"" height=""75%""></img></td>
  </tr>
</table>
  ",77.0,1.0,,,,,,,,,,,,,,,,,,,,,,,,,,
54,0,,html-keyboard-response,54,280717,0.0-4.6-2.6,6vt89xg1k1t,2022-09-19 17:33:42.523,5c61598fb40f380001109ca5,3,72,62,5,4,40,male,,,"
  <table>
  <tr height=300>
    <td width=300 height=300><img src=""static/images/cards/back_of_black_moons.svg"" width=""175px"" height=""250px""></img></td>
    <td width=300 height=300><img src=""static/images/cards/6_of_black_moons.svg"" width=""175px"" height=""250px""></img></td>
  </tr>
  <tr height=200>
    <td width=300><img src=""static/images/keys/z.svg"" width=""35%"" height=""75%""></img></td>
    <td width=300><img src=""static/images/keys/m.svg"" width=""35%"" height=""75%""></img></td>
  </tr>
</table>
  ",,,,,,,,,,,,,,,,,,,,,,,,,,,,
55,0,,html-keyboard-response,55,282245,0.0-4.6-3.6,6vt89xg1k1t,2022-09-19 17:33:42.523,5c61598fb40f380001109ca5,3,72,62,5,4,40,male,,,"<p style=""font-size:50px"">You win!
+10 points this round!</p>",,,,,,,,,,,,,,,,,,,,,,,,,,,,
56,0,,html-keyboard-response,56,282752,0.0-4.6-4.6,6vt89xg1k1t,2022-09-19 17:33:42.523,5c61598fb40f380001109ca5,3,72,62,5,4,40,male,,,,,,1.0,learning,6.0,A,,black,,moons,,,,A,black,moons,,1.0,1.0,NA,right,935.9000000001,6.0,1.0,1.0,,,
57,0,,html-keyboard-response,57,284255,0.0-4.7-0.7,6vt89xg1k1t,2022-09-19 17:33:42.523,5c61598fb40f380001109ca5,3,72,62,5,4,40,male,,,"<img src=""static/images/cards/stack_of_red_moons.svg"" width=""175px"" height=""250px""></img>",,,,,,,,,,,,,,,,,,,,,,,,,,,,
58,0,,html-keyboard-response,58,285731,0.0-4.7-1.7,6vt89xg1k1t,2022-09-19 17:33:42.523,5c61598fb40f380001109ca5,3,72,62,5,4,40,male,968.5,,"
  <table>
  <tr height=300>
    <td width=300 height=300><img src=""static/images/cards/back_of_red_moons.svg"" width=""175px"" height=""250px""></img></td>
    <td width=300 height=300><img src=""static/images/cards/back_of_red_moons.svg"" width=""175px"" height=""250px""></img></td>
  </tr>
  <tr height=200>
    <td width=300></td>
    <td width=300><img src=""static/images/keys/m.svg"" width=""35%"" height=""75%""></img></td>
  </tr>
</table>
  ",77.0,1.0,,,,,,,,,,,,,,,,,,,,,,,,,,
59,0,,html-keyboard-response,59,287244,0.0-4.7-2.7,6vt89xg1k1t,2022-09-19 17:33:42.523,5c61598fb40f380001109ca5,3,72,62,5,4,40,male,,,"
  <table>
  <tr height=300>
    <td width=300 height=300><img src=""static/images/cards/back_of_red_moons.svg"" width=""175px"" height=""250px""></img></td>
    <td width=300 height=300><img src=""static/images/cards/2_of_red_moons.svg"" width=""175px"" height=""250px""></img></td>
  </tr>
  <tr height=200>
    <td width=300></td>
    <td width=300><img src=""static/images/keys/m.svg"" width=""35%"" height=""75%""></img></td>
  </tr>
</table>
  ",,,,,,,,,,,,,,,,,,,,,,,,,,,,
60,0,,html-keyboard-response,60,288761,0.0-4.7-3.7,6vt89xg1k1t,2022-09-19 17:33:42.523,5c61598fb40f380001109ca5,3,72,62,5,4,40,male,,,"<p style=""font-size:50px"">You Lose!
No points this round.</p>",,,,,,,,,,,,,,,,,,,,,,,,,,,,
61,0,,html-keyboard-response,61,289267,0.0-4.7-4.7,6vt89xg1k1t,2022-09-19 17:33:42.523,5c61598fb40f380001109ca5,3,72,62,5,4,40,male,,,,,,1.0,learning,7.0,B,,red,,moons,,,,B,red,moons,,0.0,1.0,0,right,968.5,2.0,0.0,0.0,,,
62,0,,html-keyboard-response,62,290779,0.0-4.8-0.8,6vt89xg1k1t,2022-09-19 17:33:42.523,5c61598fb40f380001109ca5,3,72,62,5,4,40,male,,,"<img src=""static/images/cards/stack_of_black_stars.svg"" width=""175px"" height=""250px""></img>",,,,,,,,,,,,,,,,,,,,,,,,,,,,
63,0,,html-keyboard-response,63,291915,0.0-4.8-1.8,6vt89xg1k1t,2022-09-19 17:33:42.523,5c61598fb40f380001109ca5,3,72,62,5,4,40,male,633.9000000001,,"
  <table>
  <tr height=300>
    <td width=300 height=300><img src=""static/images/cards/back_of_black_stars.svg"" width=""175px"" height=""250px""></img></td>
    <td width=300 height=300><img src=""static/images/cards/back_of_black_stars.svg"" width=""175px"" height=""250px""></img></td>
  </tr>
  <tr height=200>
    <td width=300><img src=""static/images/keys/z.svg"" width=""35%"" height=""75%""></img></td>
    <td width=300><img src=""static/images/keys/m.svg"" width=""35%"" height=""75%""></img></td>
  </tr>
</table>
  ",90.0,1.0,,,,,,,,,,,,,,,,,,,,,,,,,,
64,0,,html-keyboard-response,64,293431,0.0-4.8-2.8,6vt89xg1k1t,2022-09-19 17:33:42.523,5c61598fb40f380001109ca5,3,72,62,5,4,40,male,,,"
  <table>
  <tr height=300>
    <td width=300 height=300><img src=""static/images/cards/7_of_black_stars.svg"" width=""175px"" height=""250px""></img></td>
    <td width=300 height=300><img src=""static/images/cards/back_of_black_stars.svg"" width=""175px"" height=""250px""></img></td>
  </tr>
  <tr height=200>
    <td width=300><img src=""static/images/keys/z.svg"" width=""35%"" height=""75%""></img></td>
    <td width=300><img src=""static/images/keys/m.svg"" width=""35%"" height=""75%""></img></td>
  </tr>
</table>
  ",,,,,,,,,,,,,,,,,,,,,,,,,,,,
65,0,,html-keyboard-response,65,294946,0.0-4.8-3.8,6vt89xg1k1t,2022-09-19 17:33:42.523,5c61598fb40f380001109ca5,3,72,62,5,4,40,male,,,"<p style=""font-size:50px"">You win!
+10 points this round!</p>",,,,,,,,,,,,,,,,,,,,,,,,,,,,
66,0,,html-keyboard-response,66,295465,0.0-4.8-4.8,6vt89xg1k1t,2022-09-19 17:33:42.523,5c61598fb40f380001109ca5,3,72,62,5,4,40,male,,,,,,1.0,learning,8.0,C,,black,,stars,,,,C,black,stars,,1.0,0.0,NA,left,633.9000000001,7.0,1.0,1.0,,,
67,0,,html-keyboard-response,67,296978,0.0-4.9-0.9,6vt89xg1k1t,2022-09-19 17:33:42.523,5c61598fb40f380001109ca5,3,72,62,5,4,40,male,,,"<img src=""static/images/cards/stack_of_red_stars.svg"" width=""175px"" height=""250px""></img>",,,,,,,,,,,,,,,,,,,,,,,,,,,,
68,0,,html-keyboard-response,68,297995,0.0-4.9-1.9,6vt89xg1k1t,2022-09-19 17:33:42.523,5c61598fb40f380001109ca5,3,72,62,5,4,40,male,499.7,,"
  <table>
  <tr height=300>
    <td width=300 height=300><img src=""static/images/cards/back_of_red_stars.svg"" width=""175px"" height=""250px""></img></td>
    <td width=300 height=300><img src=""static/images/cards/back_of_red_stars.svg"" width=""175px"" height=""250px""></img></td>
  </tr>
  <tr height=200>
    <td width=300><img src=""static/images/keys/z.svg"" width=""35%"" height=""75%""></img></td>
    <td width=300></td>
  </tr>
</table>
  ",90.0,1.0,,,,,,,,,,,,,,,,,,,,,,,,,,
69,0,,html-keyboard-response,69,299502,0.0-4.9-2.9,6vt89xg1k1t,2022-09-19 17:33:42.523,5c61598fb40f380001109ca5,3,72,62,5,4,40,male,,,"
  <table>
  <tr height=300>
    <td width=300 height=300><img src=""static/images/cards/4_of_red_stars.svg"" width=""175px"" height=""250px""></img></td>
    <td width=300 height=300><img src=""static/images/cards/back_of_red_stars.svg"" width=""175px"" height=""250px""></img></td>
  </tr>
  <tr height=200>
    <td width=300><img src=""static/images/keys/z.svg"" width=""35%"" height=""75%""></img></td>
    <td width=300></td>
  </tr>
</table>
  ",,,,,,,,,,,,,,,,,,,,,,,,,,,,
70,0,,html-keyboard-response,70,301026,0.0-4.9-3.9,6vt89xg1k1t,2022-09-19 17:33:42.523,5c61598fb40f380001109ca5,3,72,62,5,4,40,male,,,"<p style=""font-size:50px"">You Lose!
No points this round.</p>",,,,,,,,,,,,,,,,,,,,,,,,,,,,
71,0,,html-keyboard-response,71,301532,0.0-4.9-4.9,6vt89xg1k1t,2022-09-19 17:33:42.523,5c61598fb40f380001109ca5,3,72,62,5,4,40,male,,,,,,1.0,learning,9.0,D,,red,,stars,,,,D,red,stars,,0.0,0.0,1,left,499.7,4.0,0.0,0.0,,,
72,0,,html-keyboard-response,72,303044,0.0-4.10-0.10,6vt89xg1k1t,2022-09-19 17:33:42.523,5c61598fb40f380001109ca5,3,72,62,5,4,40,male,,,"<img src=""static/images/cards/stack_of_red_bolts.svg"" width=""175px"" height=""250px""></img>",,,,,,,,,,,,,,,,,,,,,,,,,,,,
73,0,,html-keyboard-response,73,304444,0.0-4.10-1.10,6vt89xg1k1t,2022-09-19 17:33:42.523,5c61598fb40f380001109ca5,3,72,62,5,4,40,male,882.7,,"
  <table>
  <tr height=300>
    <td width=300 height=300><img src=""static/images/cards/back_of_red_bolts.svg"" width=""175px"" height=""250px""></img></td>
    <td width=300 height=300><img src=""static/images/cards/back_of_red_bolts.svg"" width=""175px"" height=""250px""></img></td>
  </tr>
  <tr height=200>
    <td width=300><img src=""static/images/keys/z.svg"" width=""35%"" height=""75%""></img></td>
    <td width=300><img src=""static/images/keys/m.svg"" width=""35%"" height=""75%""></img></td>
  </tr>
</table>
  ",77.0,1.0,,,,,,,,,,,,,,,,,,,,,,,,,,
74,0,,html-keyboard-response,74,305960,0.0-4.10-2.10,6vt89xg1k1t,2022-09-19 17:33:42.523,5c61598fb40f380001109ca5,3,72,62,5,4,40,male,,,"
  <table>
  <tr height=300>
    <td width=300 height=300><img src=""static/images/cards/back_of_red_bolts.svg"" width=""175px"" height=""250px""></img></td>
    <td width=300 height=300><img src=""static/images/cards/6_of_red_bolts.svg"" width=""175px"" height=""250px""></img></td>
  </tr>
  <tr height=200>
    <td width=300><img src=""static/images/keys/z.svg"" width=""35%"" height=""75%""></img></td>
    <td width=300><img src=""static/images/keys/m.svg"" width=""35%"" height=""75%""></img></td>
  </tr>
</table>
  ",,,,,,,,,,,,,,,,,,,,,,,,,,,,
75,0,,html-keyboard-response,75,307477,0.0-4.10-3.10,6vt89xg1k1t,2022-09-19 17:33:42.523,5c61598fb40f380001109ca5,3,72,62,5,4,40,male,,,"<p style=""font-size:50px"">You win!
+10 points this round!</p>",,,,,,,,,,,,,,,,,,,,,,,,,,,,
76,0,,html-keyboard-response,76,307983,0.0-4.10-4.10,6vt89xg1k1t,2022-09-19 17:33:42.523,5c61598fb40f380001109ca5,3,72,62,5,4,40,male,,,,,,1.0,learning,10.0,Xc,,red,,bolts,,,,Xc,red,bolts,,1.0,0.0,NA,right,882.7,6.0,1.0,1.0,,,
77,0,,html-keyboard-response,77,309495,0.0-4.11-0.11,6vt89xg1k1t,2022-09-19 17:33:42.523,5c61598fb40f380001109ca5,3,72,62,5,4,40,male,,,"<img src=""static/images/cards/stack_of_black_bolts.svg"" width=""175px"" height=""250px""></img>",,,,,,,,,,,,,,,,,,,,,,,,,,,,
78,0,,html-keyboard-response,78,310644,0.0-4.11-1.11,6vt89xg1k1t,2022-09-19 17:33:42.523,5c61598fb40f380001109ca5,3,72,62,5,4,40,male,632.3,,"
  <table>
  <tr height=300>
    <td width=300 height=300><img src=""static/images/cards/back_of_black_bolts.svg"" width=""175px"" height=""250px""></img></td>
    <td width=300 height=300><img src=""static/images/cards/back_of_black_bolts.svg"" width=""175px"" height=""250px""></img></td>
  </tr>
  <tr height=200>
    <td width=300><img src=""static/images/keys/z.svg"" width=""35%"" height=""75%""></img></td>
    <td width=300></td>
  </tr>
</table>
  ",90.0,1.0,,,,,,,,,,,,,,,,,,,,,,,,,,
79,0,,html-keyboard-response,79,312154,0.0-4.11-2.11,6vt89xg1k1t,2022-09-19 17:33:42.523,5c61598fb40f380001109ca5,3,72,62,5,4,40,male,,,"
  <table>
  <tr height=300>
    <td width=300 height=300><img src=""static/images/cards/7_of_black_bolts.svg"" width=""175px"" height=""250px""></img></td>
    <td width=300 height=300><img src=""static/images/cards/back_of_black_bolts.svg"" width=""175px"" height=""250px""></img></td>
  </tr>
  <tr height=200>
    <td width=300><img src=""static/images/keys/z.svg"" width=""35%"" height=""75%""></img></td>
    <td width=300></td>
  </tr>
</table>
  ",,,,,,,,,,,,,,,,,,,,,,,,,,,,
80,0,,html-keyboard-response,80,313675,0.0-4.11-3.11,6vt89xg1k1t,2022-09-19 17:33:42.523,5c61598fb40f380001109ca5,3,72,62,5,4,40,male,,,"<p style=""font-size:50px"">You win!
+10 points this round!</p>",,,,,,,,,,,,,,,,,,,,,,,,,,,,
81,0,,html-keyboard-response,81,314182,0.0-4.11-4.11,6vt89xg1k1t,2022-09-19 17:33:42.523,5c61598fb40f380001109ca5,3,72,62,5,4,40,male,,,,,,1.0,learning,11.0,Xnc,,black,,bolts,,,,Xnc,black,bolts,,0.0,0.0,1,left,632.3,7.0,1.0,1.0,,,
82,0,,html-keyboard-response,82,315695,0.0-4.12-0.12,6vt89xg1k1t,2022-09-19 17:33:42.523,5c61598fb40f380001109ca5,3,72,62,5,4,40,male,,,"<img src=""static/images/cards/stack_of_black_moons.svg"" width=""175px"" height=""250px""></img>",,,,,,,,,,,,,,,,,,,,,,,,,,,,
83,0,,html-keyboard-response,83,316763,0.0-4.12-1.12,6vt89xg1k1t,2022-09-19 17:33:42.523,5c61598fb40f380001109ca5,3,72,62,5,4,40,male,552.2000000002,,"
  <table>
  <tr height=300>
    <td width=300 height=300><img src=""static/images/cards/back_of_black_moons.svg"" width=""175px"" height=""250px""></img></td>
    <td width=300 height=300><img src=""static/images/cards/back_of_black_moons.svg"" width=""175px"" height=""250px""></img></td>
  </tr>
  <tr height=200>
    <td width=300><img src=""static/images/keys/z.svg"" width=""35%"" height=""75%""></img></td>
    <td width=300><img src=""static/images/keys/m.svg"" width=""35%"" height=""75%""></img></td>
  </tr>
</table>
  ",90.0,1.0,,,,,,,,,,,,,,,,,,,,,,,,,,
84,0,,html-keyboard-response,84,318275,0.0-4.12-2.12,6vt89xg1k1t,2022-09-19 17:33:42.523,5c61598fb40f380001109ca5,3,72,62,5,4,40,male,,,"
  <table>
  <tr height=300>
    <td width=300 height=300><img src=""static/images/cards/7_of_black_moons.svg"" width=""175px"" height=""250px""></img></td>
    <td width=300 height=300><img src=""static/images/cards/back_of_black_moons.svg"" width=""175px"" height=""250px""></img></td>
  </tr>
  <tr height=200>
    <td width=300><img src=""static/images/keys/z.svg"" width=""35%"" height=""75%""></img></td>
    <td width=300><img src=""static/images/keys/m.svg"" width=""35%"" height=""75%""></img></td>
  </tr>
</table>
  ",,,,,,,,,,,,,,,,,,,,,,,,,,,,
85,0,,html-keyboard-response,85,319777,0.0-4.12-3.12,6vt89xg1k1t,2022-09-19 17:33:42.523,5c61598fb40f380001109ca5,3,72,62,5,4,40,male,,,"<p style=""font-size:50px"">You win!
+10 points this round!</p>",,,,,,,,,,,,,,,,,,,,,,,,,,,,
86,0,,html-keyboard-response,86,320297,0.0-4.12-4.12,6vt89xg1k1t,2022-09-19 17:33:42.523,5c61598fb40f380001109ca5,3,72,62,5,4,40,male,,,,,,1.0,learning,12.0,A,,black,,moons,,,,A,black,moons,,1.0,1.0,NA,left,552.2000000002,7.0,1.0,1.0,,,
87,0,,html-keyboard-response,87,321805,0.0-4.13-0.13,6vt89xg1k1t,2022-09-19 17:33:42.523,5c61598fb40f380001109ca5,3,72,62,5,4,40,male,,,"<img src=""static/images/cards/stack_of_red_moons.svg"" width=""175px"" height=""250px""></img>",,,,,,,,,,,,,,,,,,,,,,,,,,,,
88,0,,html-keyboard-response,88,323205,0.0-4.13-1.13,6vt89xg1k1t,2022-09-19 17:33:42.523,5c61598fb40f380001109ca5,3,72,62,5,4,40,male,894.1000000001,,"
  <table>
  <tr height=300>
    <td width=300 height=300><img src=""static/images/cards/back_of_red_moons.svg"" width=""175px"" height=""250px""></img></td>
    <td width=300 height=300><img src=""static/images/cards/back_of_red_moons.svg"" width=""175px"" height=""250px""></img></td>
  </tr>
  <tr height=200>
    <td width=300></td>
    <td width=300><img src=""static/images/keys/m.svg"" width=""35%"" height=""75%""></img></td>
  </tr>
</table>
  ",77.0,1.0,,,,,,,,,,,,,,,,,,,,,,,,,,
89,0,,html-keyboard-response,89,324710,0.0-4.13-2.13,6vt89xg1k1t,2022-09-19 17:33:42.523,5c61598fb40f380001109ca5,3,72,62,5,4,40,male,,,"
  <table>
  <tr height=300>
    <td width=300 height=300><img src=""static/images/cards/back_of_red_moons.svg"" width=""175px"" height=""250px""></img></td>
    <td width=300 height=300><img src=""static/images/cards/6_of_red_moons.svg"" width=""175px"" height=""250px""></img></td>
  </tr>
  <tr height=200>
    <td width=300></td>
    <td width=300><img src=""static/images/keys/m.svg"" width=""35%"" height=""75%""></img></td>
  </tr>
</table>
  ",,,,,,,,,,,,,,,,,,,,,,,,,,,,
90,0,,html-keyboard-response,90,326225,0.0-4.13-3.13,6vt89xg1k1t,2022-09-19 17:33:42.523,5c61598fb40f380001109ca5,3,72,62,5,4,40,male,,,"<p style=""font-size:50px"">You win!
+10 points this round!</p>",,,,,,,,,,,,,,,,,,,,,,,,,,,,
91,0,,html-keyboard-response,91,326746,0.0-4.13-4.13,6vt89xg1k1t,2022-09-19 17:33:42.523,5c61598fb40f380001109ca5,3,72,62,5,4,40,male,,,,,,1.0,learning,13.0,B,,red,,moons,,,,B,red,moons,,0.0,1.0,0,right,894.1000000001,6.0,1.0,1.0,,,
92,0,,html-keyboard-response,92,328258,0.0-4.14-0.14,6vt89xg1k1t,2022-09-19 17:33:42.523,5c61598fb40f380001109ca5,3,72,62,5,4,40,male,,,"<img src=""static/images/cards/stack_of_black_stars.svg"" width=""175px"" height=""250px""></img>",,,,,,,,,,,,,,,,,,,,,,,,,,,,
93,0,,html-keyboard-response,93,329337,0.0-4.14-1.14,6vt89xg1k1t,2022-09-19 17:33:42.523,5c61598fb40f380001109ca5,3,72,62,5,4,40,male,576.5,,"
  <table>
  <tr height=300>
    <td width=300 height=300><img src=""static/images/cards/back_of_black_stars.svg"" width=""175px"" height=""250px""></img></td>
    <td width=300 height=300><img src=""static/images/cards/back_of_black_stars.svg"" width=""175px"" height=""250px""></img></td>
  </tr>
  <tr height=200>
    <td width=300><img src=""static/images/keys/z.svg"" width=""35%"" height=""75%""></img></td>
    <td width=300><img src=""static/images/keys/m.svg"" width=""35%"" height=""75%""></img></td>
  </tr>
</table>
  ",77.0,1.0,,,,,,,,,,,,,,,,,,,,,,,,,,
94,0,,html-keyboard-response,94,330841,0.0-4.14-2.14,6vt89xg1k1t,2022-09-19 17:33:42.523,5c61598fb40f380001109ca5,3,72,62,5,4,40,male,,,"
  <table>
  <tr height=300>
    <td width=300 height=300><img src=""static/images/cards/back_of_black_stars.svg"" width=""175px"" height=""250px""></img></td>
    <td width=300 height=300><img src=""static/images/cards/3_of_black_stars.svg"" width=""175px"" height=""250px""></img></td>
  </tr>
  <tr height=200>
    <td width=300><img src=""static/images/keys/z.svg"" width=""35%"" height=""75%""></img></td>
    <td width=300><img src=""static/images/keys/m.svg"" width=""35%"" height=""75%""></img></td>
  </tr>
</table>
  ",,,,,,,,,,,,,,,,,,,,,,,,,,,,
95,0,,html-keyboard-response,95,332359,0.0-4.14-3.14,6vt89xg1k1t,2022-09-19 17:33:42.523,5c61598fb40f380001109ca5,3,72,62,5,4,40,male,,,"<p style=""font-size:50px"">You Lose!
No points this round.</p>",,,,,,,,,,,,,,,,,,,,,,,,,,,,
96,0,,html-keyboard-response,96,332879,0.0-4.14-4.14,6vt89xg1k1t,2022-09-19 17:33:42.523,5c61598fb40f380001109ca5,3,72,62,5,4,40,male,,,,,,1.0,learning,14.0,C,,black,,stars,,,,C,black,stars,,1.0,0.0,NA,right,576.5,3.0,0.0,0.0,,,
97,0,,html-keyboard-response,97,334385,0.0-4.15-0.15,6vt89xg1k1t,2022-09-19 17:33:42.523,5c61598fb40f380001109ca5,3,72,62,5,4,40,male,,,"<img src=""static/images/cards/stack_of_red_stars.svg"" width=""175px"" height=""250px""></img>",,,,,,,,,,,,,,,,,,,,,,,,,,,,
98,0,,html-keyboard-response,98,335307,0.0-4.15-1.15,6vt89xg1k1t,2022-09-19 17:33:42.523,5c61598fb40f380001109ca5,3,72,62,5,4,40,male,415.7999999998,,"
  <table>
  <tr height=300>
    <td width=300 height=300><img src=""static/images/cards/back_of_red_stars.svg"" width=""175px"" height=""250px""></img></td>
    <td width=300 height=300><img src=""static/images/cards/back_of_red_stars.svg"" width=""175px"" height=""250px""></img></td>
  </tr>
  <tr height=200>
    <td width=300><img src=""static/images/keys/z.svg"" width=""35%"" height=""75%""></img></td>
    <td width=300></td>
  </tr>
</table>
  ",90.0,1.0,,,,,,,,,,,,,,,,,,,,,,,,,,
99,0,,html-keyboard-response,99,336811,0.0-4.15-2.15,6vt89xg1k1t,2022-09-19 17:33:42.523,5c61598fb40f380001109ca5,3,72,62,5,4,40,male,,,"
  <table>
  <tr height=300>
    <td width=300 height=300><img src=""static/images/cards/1_of_red_stars.svg"" width=""175px"" height=""250px""></img></td>
    <td width=300 height=300><img src=""static/images/cards/back_of_red_stars.svg"" width=""175px"" height=""250px""></img></td>
  </tr>
  <tr height=200>
    <td width=300><img src=""static/images/keys/z.svg"" width=""35%"" height=""75%""></img></td>
    <td width=300></td>
  </tr>
</table>
  ",,,,,,,,,,,,,,,,,,,,,,,,,,,,
100,0,,html-keyboard-response,100,338339,0.0-4.15-3.15,6vt89xg1k1t,2022-09-19 17:33:42.523,5c61598fb40f380001109ca5,3,72,62,5,4,40,male,,,"<p style=""font-size:50px"">You win!
+10 points this round!</p>",,,,,,,,,,,,,,,,,,,,,,,,,,,,
101,0,,html-keyboard-response,101,338845,0.0-4.15-4.15,6vt89xg1k1t,2022-09-19 17:33:42.523,5c61598fb40f380001109ca5,3,72,62,5,4,40,male,,,,,,1.0,learning,15.0,D,,red,,stars,,,,D,red,stars,,0.0,0.0,1,left,415.7999999998,1.0,0.0,1.0,,,
102,0,,html-keyboard-response,102,340356,0.0-4.16-0.16,6vt89xg1k1t,2022-09-19 17:33:42.523,5c61598fb40f380001109ca5,3,72,62,5,4,40,male,,,"<img src=""static/images/cards/stack_of_red_bolts.svg"" width=""175px"" height=""250px""></img>",,,,,,,,,,,,,,,,,,,,,,,,,,,,
103,0,,html-keyboard-response,103,341786,0.0-4.16-1.16,6vt89xg1k1t,2022-09-19 17:33:42.523,5c61598fb40f380001109ca5,3,72,62,5,4,40,male,927.7,,"
  <table>
  <tr height=300>
    <td width=300 height=300><img src=""static/images/cards/back_of_red_bolts.svg"" width=""175px"" height=""250px""></img></td>
    <td width=300 height=300><img src=""static/images/cards/back_of_red_bolts.svg"" width=""175px"" height=""250px""></img></td>
  </tr>
  <tr height=200>
    <td width=300><img src=""static/images/keys/z.svg"" width=""35%"" height=""75%""></img></td>
    <td width=300><img src=""static/images/keys/m.svg"" width=""35%"" height=""75%""></img></td>
  </tr>
</table>
  ",90.0,1.0,,,,,,,,,,,,,,,,,,,,,,,,,,
104,0,,html-keyboard-response,104,343295,0.0-4.16-2.16,6vt89xg1k1t,2022-09-19 17:33:42.523,5c61598fb40f380001109ca5,3,72,62,5,4,40,male,,,"
  <table>
  <tr height=300>
    <td width=300 height=300><img src=""static/images/cards/1_of_red_bolts.svg"" width=""175px"" height=""250px""></img></td>
    <td width=300 height=300><img src=""static/images/cards/back_of_red_bolts.svg"" width=""175px"" height=""250px""></img></td>
  </tr>
  <tr height=200>
    <td width=300><img src=""static/images/keys/z.svg"" width=""35%"" height=""75%""></img></td>
    <td width=300><img src=""static/images/keys/m.svg"" width=""35%"" height=""75%""></img></td>
  </tr>
</table>
  ",,,,,,,,,,,,,,,,,,,,,,,,,,,,
105,0,,html-keyboard-response,105,344809,0.0-4.16-3.16,6vt89xg1k1t,2022-09-19 17:33:42.523,5c61598fb40f380001109ca5,3,72,62,5,4,40,male,,,"<p style=""font-size:50px"">You win!
+10 points this round!</p>",,,,,,,,,,,,,,,,,,,,,,,,,,,,
106,0,,html-keyboard-response,106,345327,0.0-4.16-4.16,6vt89xg1k1t,2022-09-19 17:33:42.523,5c61598fb40f380001109ca5,3,72,62,5,4,40,male,,,,,,1.0,learning,16.0,Xc,,red,,bolts,,,,Xc,red,bolts,,1.0,0.0,NA,left,927.7,1.0,0.0,1.0,,,
107,0,,html-keyboard-response,107,346840,0.0-4.17-0.17,6vt89xg1k1t,2022-09-19 17:33:42.523,5c61598fb40f380001109ca5,3,72,62,5,4,40,male,,,"<img src=""static/images/cards/stack_of_black_bolts.svg"" width=""175px"" height=""250px""></img>",,,,,,,,,,,,,,,,,,,,,,,,,,,,
108,0,,html-keyboard-response,108,347861,0.0-4.17-1.17,6vt89xg1k1t,2022-09-19 17:33:42.523,5c61598fb40f380001109ca5,3,72,62,5,4,40,male,514.5,,"
  <table>
  <tr height=300>
    <td width=300 height=300><img src=""static/images/cards/back_of_black_bolts.svg"" width=""175px"" height=""250px""></img></td>
    <td width=300 height=300><img src=""static/images/cards/back_of_black_bolts.svg"" width=""175px"" height=""250px""></img></td>
  </tr>
  <tr height=200>
    <td width=300></td>
    <td width=300><img src=""static/images/keys/m.svg"" width=""35%"" height=""75%""></img></td>
  </tr>
</table>
  ",77.0,1.0,,,,,,,,,,,,,,,,,,,,,,,,,,
109,0,,html-keyboard-response,109,349372,0.0-4.17-2.17,6vt89xg1k1t,2022-09-19 17:33:42.523,5c61598fb40f380001109ca5,3,72,62,5,4,40,male,,,"
  <table>
  <tr height=300>
    <td width=300 height=300><img src=""static/images/cards/back_of_black_bolts.svg"" width=""175px"" height=""250px""></img></td>
    <td width=300 height=300><img src=""static/images/cards/2_of_black_bolts.svg"" width=""175px"" height=""250px""></img></td>
  </tr>
  <tr height=200>
    <td width=300></td>
    <td width=300><img src=""static/images/keys/m.svg"" width=""35%"" height=""75%""></img></td>
  </tr>
</table>
  ",,,,,,,,,,,,,,,,,,,,,,,,,,,,
110,0,,html-keyboard-response,110,350888,0.0-4.17-3.17,6vt89xg1k1t,2022-09-19 17:33:42.523,5c61598fb40f380001109ca5,3,72,62,5,4,40,male,,,"<p style=""font-size:50px"">You win!
+10 points this round!</p>",,,,,,,,,,,,,,,,,,,,,,,,,,,,
111,0,,html-keyboard-response,111,351395,0.0-4.17-4.17,6vt89xg1k1t,2022-09-19 17:33:42.523,5c61598fb40f380001109ca5,3,72,62,5,4,40,male,,,,,,1.0,learning,17.0,Xnc,,black,,bolts,,,,Xnc,black,bolts,,0.0,0.0,0,right,514.5,2.0,0.0,1.0,,,
112,0,,html-keyboard-response,112,352906,0.0-4.18-0.18,6vt89xg1k1t,2022-09-19 17:33:42.523,5c61598fb40f380001109ca5,3,72,62,5,4,40,male,,,"<img src=""static/images/cards/stack_of_black_moons.svg"" width=""175px"" height=""250px""></img>",,,,,,,,,,,,,,,,,,,,,,,,,,,,
113,0,,html-keyboard-response,113,354245,0.0-4.18-1.18,6vt89xg1k1t,2022-09-19 17:33:42.523,5c61598fb40f380001109ca5,3,72,62,5,4,40,male,822.6000000001,,"
  <table>
  <tr height=300>
    <td width=300 height=300><img src=""static/images/cards/back_of_black_moons.svg"" width=""175px"" height=""250px""></img></td>
    <td width=300 height=300><img src=""static/images/cards/back_of_black_moons.svg"" width=""175px"" height=""250px""></img></td>
  </tr>
  <tr height=200>
    <td width=300><img src=""static/images/keys/z.svg"" width=""35%"" height=""75%""></img></td>
    <td width=300><img src=""static/images/keys/m.svg"" width=""35%"" height=""75%""></img></td>
  </tr>
</table>
  ",90.0,1.0,,,,,,,,,,,,,,,,,,,,,,,,,,
114,0,,html-keyboard-response,114,355763,0.0-4.18-2.18,6vt89xg1k1t,2022-09-19 17:33:42.523,5c61598fb40f380001109ca5,3,72,62,5,4,40,male,,,"
  <table>
  <tr height=300>
    <td width=300 height=300><img src=""static/images/cards/4_of_black_moons.svg"" width=""175px"" height=""250px""></img></td>
    <td width=300 height=300><img src=""static/images/cards/back_of_black_moons.svg"" width=""175px"" height=""250px""></img></td>
  </tr>
  <tr height=200>
    <td width=300><img src=""static/images/keys/z.svg"" width=""35%"" height=""75%""></img></td>
    <td width=300><img src=""static/images/keys/m.svg"" width=""35%"" height=""75%""></img></td>
  </tr>
</table>
  ",,,,,,,,,,,,,,,,,,,,,,,,,,,,
115,0,,html-keyboard-response,115,357273,0.0-4.18-3.18,6vt89xg1k1t,2022-09-19 17:33:42.523,5c61598fb40f380001109ca5,3,72,62,5,4,40,male,,,"<p style=""font-size:50px"">You Lose!
No points this round.</p>",,,,,,,,,,,,,,,,,,,,,,,,,,,,
116,0,,html-keyboard-response,116,357793,0.0-4.18-4.18,6vt89xg1k1t,2022-09-19 17:33:42.523,5c61598fb40f380001109ca5,3,72,62,5,4,40,male,,,,,,1.0,learning,18.0,A,,black,,moons,,,,A,black,moons,,1.0,1.0,NA,left,822.6000000001,4.0,0.0,0.0,,,
117,0,,html-keyboard-response,117,359305,0.0-4.19-0.19,6vt89xg1k1t,2022-09-19 17:33:42.523,5c61598fb40f380001109ca5,3,72,62,5,4,40,male,,,"<img src=""static/images/cards/stack_of_red_moons.svg"" width=""175px"" height=""250px""></img>",,,,,,,,,,,,,,,,,,,,,,,,,,,,
118,0,,html-keyboard-response,118,360551,0.0-4.19-1.19,6vt89xg1k1t,2022-09-19 17:33:42.523,5c61598fb40f380001109ca5,3,72,62,5,4,40,male,744.6000000001,,"
  <table>
  <tr height=300>
    <td width=300 height=300><img src=""static/images/cards/back_of_red_moons.svg"" width=""175px"" height=""250px""></img></td>
    <td width=300 height=300><img src=""static/images/cards/back_of_red_moons.svg"" width=""175px"" height=""250px""></img></td>
  </tr>
  <tr height=200>
    <td width=300></td>
    <td width=300><img src=""static/images/keys/m.svg"" width=""35%"" height=""75%""></img></td>
  </tr>
</table>
  ",77.0,1.0,,,,,,,,,,,,,,,,,,,,,,,,,,
119,0,,html-keyboard-response,119,362056,0.0-4.19-2.19,6vt89xg1k1t,2022-09-19 17:33:42.523,5c61598fb40f380001109ca5,3,72,62,5,4,40,male,,,"
  <table>
  <tr height=300>
    <td width=300 height=300><img src=""static/images/cards/back_of_red_moons.svg"" width=""175px"" height=""250px""></img></td>
    <td width=300 height=300><img src=""static/images/cards/3_of_red_moons.svg"" width=""175px"" height=""250px""></img></td>
  </tr>
  <tr height=200>
    <td width=300></td>
    <td width=300><img src=""static/images/keys/m.svg"" width=""35%"" height=""75%""></img></td>
  </tr>
</table>
  ",,,,,,,,,,,,,,,,,,,,,,,,,,,,
120,0,,html-keyboard-response,120,363588,0.0-4.19-3.19,6vt89xg1k1t,2022-09-19 17:33:42.523,5c61598fb40f380001109ca5,3,72,62,5,4,40,male,,,"<p style=""font-size:50px"">You Lose!
No points this round.</p>",,,,,,,,,,,,,,,,,,,,,,,,,,,,
121,0,,html-keyboard-response,121,364108,0.0-4.19-4.19,6vt89xg1k1t,2022-09-19 17:33:42.523,5c61598fb40f380001109ca5,3,72,62,5,4,40,male,,,,,,1.0,learning,19.0,B,,red,,moons,,,,B,red,moons,,0.0,1.0,0,right,744.6000000001,3.0,0.0,0.0,,,
122,0,,html-keyboard-response,122,365621,0.0-4.20-0.20,6vt89xg1k1t,2022-09-19 17:33:42.523,5c61598fb40f380001109ca5,3,72,62,5,4,40,male,,,"<img src=""static/images/cards/stack_of_black_stars.svg"" width=""175px"" height=""250px""></img>",,,,,,,,,,,,,,,,,,,,,,,,,,,,
123,0,,html-keyboard-response,123,366996,0.0-4.20-1.20,6vt89xg1k1t,2022-09-19 17:33:42.523,5c61598fb40f380001109ca5,3,72,62,5,4,40,male,872.4000000001,,"
  <table>
  <tr height=300>
    <td width=300 height=300><img src=""static/images/cards/back_of_black_stars.svg"" width=""175px"" height=""250px""></img></td>
    <td width=300 height=300><img src=""static/images/cards/back_of_black_stars.svg"" width=""175px"" height=""250px""></img></td>
  </tr>
  <tr height=200>
    <td width=300><img src=""static/images/keys/z.svg"" width=""35%"" height=""75%""></img></td>
    <td width=300><img src=""static/images/keys/m.svg"" width=""35%"" height=""75%""></img></td>
  </tr>
</table>
  ",90.0,1.0,,,,,,,,,,,,,,,,,,,,,,,,,,
124,0,,html-keyboard-response,124,368503,0.0-4.20-2.20,6vt89xg1k1t,2022-09-19 17:33:42.523,5c61598fb40f380001109ca5,3,72,62,5,4,40,male,,,"
  <table>
  <tr height=300>
    <td width=300 height=300><img src=""static/images/cards/3_of_black_stars.svg"" width=""175px"" height=""250px""></img></td>
    <td width=300 height=300><img src=""static/images/cards/back_of_black_stars.svg"" width=""175px"" height=""250px""></img></td>
  </tr>
  <tr height=200>
    <td width=300><img src=""static/images/keys/z.svg"" width=""35%"" height=""75%""></img></td>
    <td width=300><img src=""static/images/keys/m.svg"" width=""35%"" height=""75%""></img></td>
  </tr>
</table>
  ",,,,,,,,,,,,,,,,,,,,,,,,,,,,
125,0,,html-keyboard-response,125,370010,0.0-4.20-3.20,6vt89xg1k1t,2022-09-19 17:33:42.523,5c61598fb40f380001109ca5,3,72,62,5,4,40,male,,,"<p style=""font-size:50px"">You win!
+10 points this round!</p>",,,,,,,,,,,,,,,,,,,,,,,,,,,,
126,0,,html-keyboard-response,126,370525,0.0-4.20-4.20,6vt89xg1k1t,2022-09-19 17:33:42.523,5c61598fb40f380001109ca5,3,72,62,5,4,40,male,,,,,,1.0,learning,20.0,C,,black,,stars,,,,C,black,stars,,1.0,0.0,NA,left,872.4000000001,3.0,0.0,1.0,,,
127,0,,html-keyboard-response,127,372037,0.0-4.21-0.21,6vt89xg1k1t,2022-09-19 17:33:42.523,5c61598fb40f380001109ca5,3,72,62,5,4,40,male,,,"<img src=""static/images/cards/stack_of_red_stars.svg"" width=""175px"" height=""250px""></img>",,,,,,,,,,,,,,,,,,,,,,,,,,,,
128,0,,html-keyboard-response,128,373071,0.0-4.21-1.21,6vt89xg1k1t,2022-09-19 17:33:42.523,5c61598fb40f380001109ca5,3,72,62,5,4,40,male,530.8,,"
  <table>
  <tr height=300>
    <td width=300 height=300><img src=""static/images/cards/back_of_red_stars.svg"" width=""175px"" height=""250px""></img></td>
    <td width=300 height=300><img src=""static/images/cards/back_of_red_stars.svg"" width=""175px"" height=""250px""></img></td>
  </tr>
  <tr height=200>
    <td width=300><img src=""static/images/keys/z.svg"" width=""35%"" height=""75%""></img></td>
    <td width=300></td>
  </tr>
</table>
  ",90.0,1.0,,,,,,,,,,,,,,,,,,,,,,,,,,
129,0,,html-keyboard-response,129,374580,0.0-4.21-2.21,6vt89xg1k1t,2022-09-19 17:33:42.523,5c61598fb40f380001109ca5,3,72,62,5,4,40,male,,,"
  <table>
  <tr height=300>
    <td width=300 height=300><img src=""static/images/cards/9_of_red_stars.svg"" width=""175px"" height=""250px""></img></td>
    <td width=300 height=300><img src=""static/images/cards/back_of_red_stars.svg"" width=""175px"" height=""250px""></img></td>
  </tr>
  <tr height=200>
    <td width=300><img src=""static/images/keys/z.svg"" width=""35%"" height=""75%""></img></td>
    <td width=300></td>
  </tr>
</table>
  ",,,,,,,,,,,,,,,,,,,,,,,,,,,,
130,0,,html-keyboard-response,130,376088,0.0-4.21-3.21,6vt89xg1k1t,2022-09-19 17:33:42.523,5c61598fb40f380001109ca5,3,72,62,5,4,40,male,,,"<p style=""font-size:50px"">You Lose!
No points this round.</p>",,,,,,,,,,,,,,,,,,,,,,,,,,,,
131,0,,html-keyboard-response,131,376608,0.0-4.21-4.21,6vt89xg1k1t,2022-09-19 17:33:42.523,5c61598fb40f380001109ca5,3,72,62,5,4,40,male,,,,,,1.0,learning,21.0,D,,red,,stars,,,,D,red,stars,,0.0,0.0,1,left,530.8,9.0,1.0,0.0,,,
132,0,,html-keyboard-response,132,378120,0.0-4.22-0.22,6vt89xg1k1t,2022-09-19 17:33:42.523,5c61598fb40f380001109ca5,3,72,62,5,4,40,male,,,"<img src=""static/images/cards/stack_of_red_bolts.svg"" width=""175px"" height=""250px""></img>",,,,,,,,,,,,,,,,,,,,,,,,,,,,
133,0,,html-keyboard-response,133,379716,0.0-4.22-1.22,6vt89xg1k1t,2022-09-19 17:33:42.523,5c61598fb40f380001109ca5,3,72,62,5,4,40,male,1094.3999999999,,"
  <table>
  <tr height=300>
    <td width=300 height=300><img src=""static/images/cards/back_of_red_bolts.svg"" width=""175px"" height=""250px""></img></td>
    <td width=300 height=300><img src=""static/images/cards/back_of_red_bolts.svg"" width=""175px"" height=""250px""></img></td>
  </tr>
  <tr height=200>
    <td width=300><img src=""static/images/keys/z.svg"" width=""35%"" height=""75%""></img></td>
    <td width=300><img src=""static/images/keys/m.svg"" width=""35%"" height=""75%""></img></td>
  </tr>
</table>
  ",90.0,1.0,,,,,,,,,,,,,,,,,,,,,,,,,,
134,0,,html-keyboard-response,134,381222,0.0-4.22-2.22,6vt89xg1k1t,2022-09-19 17:33:42.523,5c61598fb40f380001109ca5,3,72,62,5,4,40,male,,,"
  <table>
  <tr height=300>
    <td width=300 height=300><img src=""static/images/cards/10_of_red_bolts.svg"" width=""175px"" height=""250px""></img></td>
    <td width=300 height=300><img src=""static/images/cards/back_of_red_bolts.svg"" width=""175px"" height=""250px""></img></td>
  </tr>
  <tr height=200>
    <td width=300><img src=""static/images/keys/z.svg"" width=""35%"" height=""75%""></img></td>
    <td width=300><img src=""static/images/keys/m.svg"" width=""35%"" height=""75%""></img></td>
  </tr>
</table>
  ",,,,,,,,,,,,,,,,,,,,,,,,,,,,
135,0,,html-keyboard-response,135,382736,0.0-4.22-3.22,6vt89xg1k1t,2022-09-19 17:33:42.523,5c61598fb40f380001109ca5,3,72,62,5,4,40,male,,,"<p style=""font-size:50px"">You win!
+10 points this round!</p>",,,,,,,,,,,,,,,,,,,,,,,,,,,,
136,0,,html-keyboard-response,136,383256,0.0-4.22-4.22,6vt89xg1k1t,2022-09-19 17:33:42.523,5c61598fb40f380001109ca5,3,72,62,5,4,40,male,,,,,,1.0,learning,22.0,Xc,,red,,bolts,,,,Xc,red,bolts,,1.0,0.0,NA,left,1094.3999999999,10.0,1.0,1.0,,,
137,0,,html-keyboard-response,137,384770,0.0-4.23-0.23,6vt89xg1k1t,2022-09-19 17:33:42.523,5c61598fb40f380001109ca5,3,72,62,5,4,40,male,,,"<img src=""static/images/cards/stack_of_black_bolts.svg"" width=""175px"" height=""250px""></img>",,,,,,,,,,,,,,,,,,,,,,,,,,,,
138,0,,html-keyboard-response,138,385857,0.0-4.23-1.23,6vt89xg1k1t,2022-09-19 17:33:42.523,5c61598fb40f380001109ca5,3,72,62,5,4,40,male,570.1000000001,,"
  <table>
  <tr height=300>
    <td width=300 height=300><img src=""static/images/cards/back_of_black_bolts.svg"" width=""175px"" height=""250px""></img></td>
    <td width=300 height=300><img src=""static/images/cards/back_of_black_bolts.svg"" width=""175px"" height=""250px""></img></td>
  </tr>
  <tr height=200>
    <td width=300></td>
    <td width=300><img src=""static/images/keys/m.svg"" width=""35%"" height=""75%""></img></td>
  </tr>
</table>
  ",77.0,1.0,,,,,,,,,,,,,,,,,,,,,,,,,,
139,0,,html-keyboard-response,139,387360,0.0-4.23-2.23,6vt89xg1k1t,2022-09-19 17:33:42.523,5c61598fb40f380001109ca5,3,72,62,5,4,40,male,,,"
  <table>
  <tr height=300>
    <td width=300 height=300><img src=""static/images/cards/back_of_black_bolts.svg"" width=""175px"" height=""250px""></img></td>
    <td width=300 height=300><img src=""static/images/cards/2_of_black_bolts.svg"" width=""175px"" height=""250px""></img></td>
  </tr>
  <tr height=200>
    <td width=300></td>
    <td width=300><img src=""static/images/keys/m.svg"" width=""35%"" height=""75%""></img></td>
  </tr>
</table>
  ",,,,,,,,,,,,,,,,,,,,,,,,,,,,
140,0,,html-keyboard-response,140,388885,0.0-4.23-3.23,6vt89xg1k1t,2022-09-19 17:33:42.523,5c61598fb40f380001109ca5,3,72,62,5,4,40,male,,,"<p style=""font-size:50px"">You win!
+10 points this round!</p>",,,,,,,,,,,,,,,,,,,,,,,,,,,,
141,0,,html-keyboard-response,141,389396,0.0-4.23-4.23,6vt89xg1k1t,2022-09-19 17:33:42.523,5c61598fb40f380001109ca5,3,72,62,5,4,40,male,,,,,,1.0,learning,23.0,Xnc,,black,,bolts,,,,Xnc,black,bolts,,0.0,0.0,0,right,570.1000000001,2.0,0.0,1.0,,,
142,0,,call-function,142,389403,0.0-5.0,6vt89xg1k1t,2022-09-19 17:33:42.523,5c61598fb40f380001109ca5,3,72,62,5,4,40,male,,,,,,,,,,,,,,,,,,,,,,,,,,,,,,,
143,0,,image-keyboard-response,143,394118,0.0-6.0-0.0,6vt89xg1k1t,2022-09-19 17:33:42.523,5c61598fb40f380001109ca5,3,72,62,5,4,40,male,4714.6000000001,,static/images/instructions_CB_3/Slide20.png,39.0,,,,,,,,,,,,,,,,,,,,,,,,,,,
144,0,,image-keyboard-response,144,427813,0.0-6.1-0.1,6vt89xg1k1t,2022-09-19 17:33:42.523,5c61598fb40f380001109ca5,3,72,62,5,4,40,male,33694.1000000001,,static/images/instructions_CB_3/Slide21.png,39.0,,,,,,,,,,,,,,,,,,,,,,,,,,,
145,0,,image-keyboard-response,145,436454,0.0-6.2-0.2,6vt89xg1k1t,2022-09-19 17:33:42.523,5c61598fb40f380001109ca5,3,72,62,5,4,40,male,8651.7,,static/images/instructions_CB_3/Slide22.png,39.0,,,,,,,,,,,,,,,,,,,,,,,,,,,
146,0,,image-keyboard-response,146,442961,0.0-6.3-0.3,6vt89xg1k1t,2022-09-19 17:33:42.523,5c61598fb40f380001109ca5,3,72,62,5,4,40,male,6505.7000000002,,static/images/instructions_CB_3/Slide23.png,39.0,,,,,,,,,,,,,,,,,,,,,,,,,,,
147,0,,image-keyboard-response,147,444998,0.0-6.4-0.4,6vt89xg1k1t,2022-09-19 17:33:42.523,5c61598fb40f380001109ca5,3,72,62,5,4,40,male,2035.8999999999,,static/images/instructions_CB_3/Slide24.png,39.0,,,,,,,,,,,,,,,,,,,,,,,,,,,
148,0,,html-keyboard-response,148,447136,0.0-7.0-0.0,6vt89xg1k1t,2022-09-19 17:33:42.523,5c61598fb40f380001109ca5,3,72,62,5,4,40,male,2136.3999999999,,"
  <table>
  <tr height=300>
    <td width=300 height=300><img src=""static/images/cards/stack_of_black_bolts.svg"" width=""175px"" height=""250px""></img></td>
    <td width=300 height=300><img src=""static/images/cards/stack_of_black_moons.svg"" width=""175px"" height=""250px""></img></td>
  </tr>
  <tr height=200>
    <td width=300><img src=""static/images/keys/w.svg"" width=""35%"" height=""75%""></img></td>
    <td width=300><img src=""static/images/keys/o.svg"" width=""35%"" height=""75%""></img></td>
  </tr>
</table>
  ",87.0,1.0,,,,,,,,,,,,,,,,,,,,,,,,,,
149,0,,html-keyboard-response,149,449344,0.0-7.0-1.0,6vt89xg1k1t,2022-09-19 17:33:42.523,5c61598fb40f380001109ca5,3,72,62,5,4,40,male,1693.7999999998,,"
  <table>
  <tr height=300>
    <td width=300 height=300><img src=""static/images/cards/back_of_black_bolts.svg"" width=""175px"" height=""250px""></img></td>
    <td width=300 height=300><img src=""static/images/cards/back_of_black_bolts.svg"" width=""175px"" height=""250px""></img></td>
  </tr>
  <tr height=200>
    <td width=300><img src=""static/images/keys/z.svg"" width=""35%"" height=""75%""></img></td>
    <td width=300></td>
  </tr>
</table>
  ",90.0,1.0,,,,,,,,,,,,,,,,,,,,,,,,,,
150,0,,html-keyboard-response,150,450852,0.0-7.0-2.0,6vt89xg1k1t,2022-09-19 17:33:42.523,5c61598fb40f380001109ca5,3,72,62,5,4,40,male,,,"
  <table>
  <tr height=300>
    <td width=300 height=300><img src=""static/images/cards/1_of_black_bolts.svg"" width=""175px"" height=""250px""></img></td>
    <td width=300 height=300><img src=""static/images/cards/back_of_black_bolts.svg"" width=""175px"" height=""250px""></img></td>
  </tr>
  <tr height=200>
    <td width=300><img src=""static/images/keys/z.svg"" width=""35%"" height=""75%""></img></td>
    <td width=300></td>
  </tr>
</table>
  ",,,,,,,,,,,,,,,,,,,,,,,,,,,,
151,0,,html-keyboard-response,151,452367,0.0-7.0-3.0,6vt89xg1k1t,2022-09-19 17:33:42.523,5c61598fb40f380001109ca5,3,72,62,5,4,40,male,,,"<p style=""font-size:50px"">You win!
+10 points this round!</p>",,,,,,,,,,,,,,,,,,,,,,,,,,,,
152,0,,html-keyboard-response,152,452874,0.0-7.0-4.0,6vt89xg1k1t,2022-09-19 17:33:42.523,5c61598fb40f380001109ca5,3,72,62,5,4,40,male,,,,,,1.0,choice,0.0,A,Xnc,black,black,bolts,moons,Xnc,A,Xnc,black,bolts,2136.3999999999,0.0,0.0,1,left,1693.7999999998,1.0,0.0,1.0,,,
153,0,,html-keyboard-response,153,454371,0.0-7.1-0.1,6vt89xg1k1t,2022-09-19 17:33:42.523,5c61598fb40f380001109ca5,3,72,62,5,4,40,male,1495.0,,"
  <table>
  <tr height=300>
    <td width=300 height=300><img src=""static/images/cards/stack_of_black_moons.svg"" width=""175px"" height=""250px""></img></td>
    <td width=300 height=300><img src=""static/images/cards/stack_of_red_stars.svg"" width=""175px"" height=""250px""></img></td>
  </tr>
  <tr height=200>
    <td width=300><img src=""static/images/keys/w.svg"" width=""35%"" height=""75%""></img></td>
    <td width=300><img src=""static/images/keys/o.svg"" width=""35%"" height=""75%""></img></td>
  </tr>
</table>
  ",87.0,1.0,,,,,,,,,,,,,,,,,,,,,,,,,,
154,0,,html-keyboard-response,154,456493,0.0-7.1-1.1,6vt89xg1k1t,2022-09-19 17:33:42.523,5c61598fb40f380001109ca5,3,72,62,5,4,40,male,1606.2,,"
  <table>
  <tr height=300>
    <td width=300 height=300><img src=""static/images/cards/back_of_black_moons.svg"" width=""175px"" height=""250px""></img></td>
    <td width=300 height=300><img src=""static/images/cards/back_of_black_moons.svg"" width=""175px"" height=""250px""></img></td>
  </tr>
  <tr height=200>
    <td width=300><img src=""static/images/keys/z.svg"" width=""35%"" height=""75%""></img></td>
    <td width=300><img src=""static/images/keys/m.svg"" width=""35%"" height=""75%""></img></td>
  </tr>
</table>
  ",77.0,1.0,,,,,,,,,,,,,,,,,,,,,,,,,,
155,0,,html-keyboard-response,155,458007,0.0-7.1-2.1,6vt89xg1k1t,2022-09-19 17:33:42.523,5c61598fb40f380001109ca5,3,72,62,5,4,40,male,,,"
  <table>
  <tr height=300>
    <td width=300 height=300><img src=""static/images/cards/back_of_black_moons.svg"" width=""175px"" height=""250px""></img></td>
    <td width=300 height=300><img src=""static/images/cards/3_of_black_moons.svg"" width=""175px"" height=""250px""></img></td>
  </tr>
  <tr height=200>
    <td width=300><img src=""static/images/keys/z.svg"" width=""35%"" height=""75%""></img></td>
    <td width=300><img src=""static/images/keys/m.svg"" width=""35%"" height=""75%""></img></td>
  </tr>
</table>
  ",,,,,,,,,,,,,,,,,,,,,,,,,,,,
156,0,,html-keyboard-response,156,459531,0.0-7.1-3.1,6vt89xg1k1t,2022-09-19 17:33:42.523,5c61598fb40f380001109ca5,3,72,62,5,4,40,male,,,"<p style=""font-size:50px"">You Lose!
No points this round.</p>",,,,,,,,,,,,,,,,,,,,,,,,,,,,
157,0,,html-keyboard-response,157,460038,0.0-7.1-4.1,6vt89xg1k1t,2022-09-19 17:33:42.523,5c61598fb40f380001109ca5,3,72,62,5,4,40,male,,,,,,1.0,choice,1.0,A,D,black,red,moons,stars,A,D,A,black,moons,1495.0,1.0,1.0,NA,right,1606.2,3.0,0.0,0.0,,,
158,0,,html-keyboard-response,158,461282,0.0-7.2-0.2,6vt89xg1k1t,2022-09-19 17:33:42.523,5c61598fb40f380001109ca5,3,72,62,5,4,40,male,1241.8000000003,,"
  <table>
  <tr height=300>
    <td width=300 height=300><img src=""static/images/cards/stack_of_black_stars.svg"" width=""175px"" height=""250px""></img></td>
    <td width=300 height=300><img src=""static/images/cards/stack_of_red_stars.svg"" width=""175px"" height=""250px""></img></td>
  </tr>
  <tr height=200>
    <td width=300><img src=""static/images/keys/w.svg"" width=""35%"" height=""75%""></img></td>
    <td width=300><img src=""static/images/keys/o.svg"" width=""35%"" height=""75%""></img></td>
  </tr>
</table>
  ",87.0,1.0,,,,,,,,,,,,,,,,,,,,,,,,,,
159,0,,html-keyboard-response,159,463054,0.0-7.2-1.2,6vt89xg1k1t,2022-09-19 17:33:42.523,5c61598fb40f380001109ca5,3,72,62,5,4,40,male,1269.2000000002,,"
  <table>
  <tr height=300>
    <td width=300 height=300><img src=""static/images/cards/back_of_black_stars.svg"" width=""175px"" height=""250px""></img></td>
    <td width=300 height=300><img src=""static/images/cards/back_of_black_stars.svg"" width=""175px"" height=""250px""></img></td>
  </tr>
  <tr height=200>
    <td width=300><img src=""static/images/keys/z.svg"" width=""35%"" height=""75%""></img></td>
    <td width=300><img src=""static/images/keys/m.svg"" width=""35%"" height=""75%""></img></td>
  </tr>
</table>
  ",90.0,1.0,,,,,,,,,,,,,,,,,,,,,,,,,,
160,0,,html-keyboard-response,160,464558,0.0-7.2-2.2,6vt89xg1k1t,2022-09-19 17:33:42.523,5c61598fb40f380001109ca5,3,72,62,5,4,40,male,,,"
  <table>
  <tr height=300>
    <td width=300 height=300><img src=""static/images/cards/7_of_black_stars.svg"" width=""175px"" height=""250px""></img></td>
    <td width=300 height=300><img src=""static/images/cards/back_of_black_stars.svg"" width=""175px"" height=""250px""></img></td>
  </tr>
  <tr height=200>
    <td width=300><img src=""static/images/keys/z.svg"" width=""35%"" height=""75%""></img></td>
    <td width=300><img src=""static/images/keys/m.svg"" width=""35%"" height=""75%""></img></td>
  </tr>
</table>
  ",,,,,,,,,,,,,,,,,,,,,,,,,,,,
161,0,,html-keyboard-response,161,466065,0.0-7.2-3.2,6vt89xg1k1t,2022-09-19 17:33:42.523,5c61598fb40f380001109ca5,3,72,62,5,4,40,male,,,"<p style=""font-size:50px"">You win!
+10 points this round!</p>",,,,,,,,,,,,,,,,,,,,,,,,,,,,
162,0,,html-keyboard-response,162,466571,0.0-7.2-4.2,6vt89xg1k1t,2022-09-19 17:33:42.523,5c61598fb40f380001109ca5,3,72,62,5,4,40,male,,,,,,1.0,choice,2.0,C,D,black,red,stars,stars,C,D,C,black,stars,1241.8000000003,1.0,0.0,NA,left,1269.2000000002,7.0,1.0,1.0,,,
163,0,,html-keyboard-response,163,468052,0.0-7.3-0.3,6vt89xg1k1t,2022-09-19 17:33:42.523,5c61598fb40f380001109ca5,3,72,62,5,4,40,male,1479.3000000003,,"
  <table>
  <tr height=300>
    <td width=300 height=300><img src=""static/images/cards/stack_of_red_moons.svg"" width=""175px"" height=""250px""></img></td>
    <td width=300 height=300><img src=""static/images/cards/stack_of_black_stars.svg"" width=""175px"" height=""250px""></img></td>
  </tr>
  <tr height=200>
    <td width=300><img src=""static/images/keys/w.svg"" width=""35%"" height=""75%""></img></td>
    <td width=300><img src=""static/images/keys/o.svg"" width=""35%"" height=""75%""></img></td>
  </tr>
</table>
  ",79.0,1.0,,,,,,,,,,,,,,,,,,,,,,,,,,
164,0,,html-keyboard-response,164,469715,0.0-7.3-1.3,6vt89xg1k1t,2022-09-19 17:33:42.523,5c61598fb40f380001109ca5,3,72,62,5,4,40,male,1149.8999999999,,"
  <table>
  <tr height=300>
    <td width=300 height=300><img src=""static/images/cards/back_of_black_stars.svg"" width=""175px"" height=""250px""></img></td>
    <td width=300 height=300><img src=""static/images/cards/back_of_black_stars.svg"" width=""175px"" height=""250px""></img></td>
  </tr>
  <tr height=200>
    <td width=300><img src=""static/images/keys/z.svg"" width=""35%"" height=""75%""></img></td>
    <td width=300><img src=""static/images/keys/m.svg"" width=""35%"" height=""75%""></img></td>
  </tr>
</table>
  ",77.0,1.0,,,,,,,,,,,,,,,,,,,,,,,,,,
165,0,,html-keyboard-response,165,471221,0.0-7.3-2.3,6vt89xg1k1t,2022-09-19 17:33:42.523,5c61598fb40f380001109ca5,3,72,62,5,4,40,male,,,"
  <table>
  <tr height=300>
    <td width=300 height=300><img src=""static/images/cards/back_of_black_stars.svg"" width=""175px"" height=""250px""></img></td>
    <td width=300 height=300><img src=""static/images/cards/2_of_black_stars.svg"" width=""175px"" height=""250px""></img></td>
  </tr>
  <tr height=200>
    <td width=300><img src=""static/images/keys/z.svg"" width=""35%"" height=""75%""></img></td>
    <td width=300><img src=""static/images/keys/m.svg"" width=""35%"" height=""75%""></img></td>
  </tr>
</table>
  ",,,,,,,,,,,,,,,,,,,,,,,,,,,,
166,0,,html-keyboard-response,166,472731,0.0-7.3-3.3,6vt89xg1k1t,2022-09-19 17:33:42.523,5c61598fb40f380001109ca5,3,72,62,5,4,40,male,,,"<p style=""font-size:50px"">You win!
+10 points this round!</p>",,,,,,,,,,,,,,,,,,,,,,,,,,,,
167,0,,html-keyboard-response,167,473252,0.0-7.3-4.3,6vt89xg1k1t,2022-09-19 17:33:42.523,5c61598fb40f380001109ca5,3,72,62,5,4,40,male,,,,,,1.0,choice,3.0,B,C,red,black,moons,stars,B,C,C,black,stars,1479.3000000003,1.0,0.0,NA,right,1149.8999999999,2.0,0.0,1.0,,,
168,0,,html-keyboard-response,168,474208,0.0-7.4-0.4,6vt89xg1k1t,2022-09-19 17:33:42.523,5c61598fb40f380001109ca5,3,72,62,5,4,40,male,953.7999999998,,"
  <table>
  <tr height=300>
    <td width=300 height=300><img src=""static/images/cards/stack_of_red_stars.svg"" width=""175px"" height=""250px""></img></td>
    <td width=300 height=300><img src=""static/images/cards/stack_of_black_moons.svg"" width=""175px"" height=""250px""></img></td>
  </tr>
  <tr height=200>
    <td width=300><img src=""static/images/keys/w.svg"" width=""35%"" height=""75%""></img></td>
    <td width=300><img src=""static/images/keys/o.svg"" width=""35%"" height=""75%""></img></td>
  </tr>
</table>
  ",87.0,1.0,,,,,,,,,,,,,,,,,,,,,,,,,,
169,0,,html-keyboard-response,169,475841,0.0-7.4-1.4,6vt89xg1k1t,2022-09-19 17:33:42.523,5c61598fb40f380001109ca5,3,72,62,5,4,40,male,1125.7999999998,,"
  <table>
  <tr height=300>
    <td width=300 height=300><img src=""static/images/cards/back_of_red_stars.svg"" width=""175px"" height=""250px""></img></td>
    <td width=300 height=300><img src=""static/images/cards/back_of_red_stars.svg"" width=""175px"" height=""250px""></img></td>
  </tr>
  <tr height=200>
    <td width=300></td>
    <td width=300><img src=""static/images/keys/m.svg"" width=""35%"" height=""75%""></img></td>
  </tr>
</table>
  ",77.0,1.0,,,,,,,,,,,,,,,,,,,,,,,,,,
170,0,,html-keyboard-response,170,477347,0.0-7.4-2.4,6vt89xg1k1t,2022-09-19 17:33:42.523,5c61598fb40f380001109ca5,3,72,62,5,4,40,male,,,"
  <table>
  <tr height=300>
    <td width=300 height=300><img src=""static/images/cards/back_of_red_stars.svg"" width=""175px"" height=""250px""></img></td>
    <td width=300 height=300><img src=""static/images/cards/3_of_red_stars.svg"" width=""175px"" height=""250px""></img></td>
  </tr>
  <tr height=200>
    <td width=300></td>
    <td width=300><img src=""static/images/keys/m.svg"" width=""35%"" height=""75%""></img></td>
  </tr>
</table>
  ",,,,,,,,,,,,,,,,,,,,,,,,,,,,
171,0,,html-keyboard-response,171,478863,0.0-7.4-3.4,6vt89xg1k1t,2022-09-19 17:33:42.523,5c61598fb40f380001109ca5,3,72,62,5,4,40,male,,,"<p style=""font-size:50px"">You Lose!
No points this round.</p>",,,,,,,,,,,,,,,,,,,,,,,,,,,,
172,0,,html-keyboard-response,172,479369,0.0-7.4-4.4,6vt89xg1k1t,2022-09-19 17:33:42.523,5c61598fb40f380001109ca5,3,72,62,5,4,40,male,,,,,,1.0,choice,4.0,A,D,red,black,stars,moons,D,A,D,red,stars,953.7999999998,0.0,0.0,0,right,1125.7999999998,3.0,0.0,0.0,,,
173,0,,html-keyboard-response,173,481247,0.0-7.5-0.5,6vt89xg1k1t,2022-09-19 17:33:42.523,5c61598fb40f380001109ca5,3,72,62,5,4,40,male,1876.5,,"
  <table>
  <tr height=300>
    <td width=300 height=300><img src=""static/images/cards/stack_of_black_stars.svg"" width=""175px"" height=""250px""></img></td>
    <td width=300 height=300><img src=""static/images/cards/stack_of_red_stars.svg"" width=""175px"" height=""250px""></img></td>
  </tr>
  <tr height=200>
    <td width=300><img src=""static/images/keys/w.svg"" width=""35%"" height=""75%""></img></td>
    <td width=300><img src=""static/images/keys/o.svg"" width=""35%"" height=""75%""></img></td>
  </tr>
</table>
  ",87.0,1.0,,,,,,,,,,,,,,,,,,,,,,,,,,
174,0,,html-keyboard-response,174,483189,0.0-7.5-1.5,6vt89xg1k1t,2022-09-19 17:33:42.523,5c61598fb40f380001109ca5,3,72,62,5,4,40,male,1424.8999999999,,"
  <table>
  <tr height=300>
    <td width=300 height=300><img src=""static/images/cards/back_of_black_stars.svg"" width=""175px"" height=""250px""></img></td>
    <td width=300 height=300><img src=""static/images/cards/back_of_black_stars.svg"" width=""175px"" height=""250px""></img></td>
  </tr>
  <tr height=200>
    <td width=300><img src=""static/images/keys/z.svg"" width=""35%"" height=""75%""></img></td>
    <td width=300><img src=""static/images/keys/m.svg"" width=""35%"" height=""75%""></img></td>
  </tr>
</table>
  ",77.0,1.0,,,,,,,,,,,,,,,,,,,,,,,,,,
175,0,,html-keyboard-response,175,484697,0.0-7.5-2.5,6vt89xg1k1t,2022-09-19 17:33:42.523,5c61598fb40f380001109ca5,3,72,62,5,4,40,male,,,"
  <table>
  <tr height=300>
    <td width=300 height=300><img src=""static/images/cards/back_of_black_stars.svg"" width=""175px"" height=""250px""></img></td>
    <td width=300 height=300><img src=""static/images/cards/10_of_black_stars.svg"" width=""175px"" height=""250px""></img></td>
  </tr>
  <tr height=200>
    <td width=300><img src=""static/images/keys/z.svg"" width=""35%"" height=""75%""></img></td>
    <td width=300><img src=""static/images/keys/m.svg"" width=""35%"" height=""75%""></img></td>
  </tr>
</table>
  ",,,,,,,,,,,,,,,,,,,,,,,,,,,,
176,0,,html-keyboard-response,176,486213,0.0-7.5-3.5,6vt89xg1k1t,2022-09-19 17:33:42.523,5c61598fb40f380001109ca5,3,72,62,5,4,40,male,,,"<p style=""font-size:50px"">You win!
+10 points this round!</p>",,,,,,,,,,,,,,,,,,,,,,,,,,,,
177,0,,html-keyboard-response,177,486733,0.0-7.5-4.5,6vt89xg1k1t,2022-09-19 17:33:42.523,5c61598fb40f380001109ca5,3,72,62,5,4,40,male,,,,,,1.0,choice,5.0,C,D,black,red,stars,stars,C,D,C,black,stars,1876.5,1.0,0.0,NA,right,1424.8999999999,10.0,1.0,1.0,,,
178,0,,html-keyboard-response,178,488917,0.0-7.6-0.6,6vt89xg1k1t,2022-09-19 17:33:42.523,5c61598fb40f380001109ca5,3,72,62,5,4,40,male,2181.7999999998,,"
  <table>
  <tr height=300>
    <td width=300 height=300><img src=""static/images/cards/stack_of_black_stars.svg"" width=""175px"" height=""250px""></img></td>
    <td width=300 height=300><img src=""static/images/cards/stack_of_black_moons.svg"" width=""175px"" height=""250px""></img></td>
  </tr>
  <tr height=200>
    <td width=300><img src=""static/images/keys/w.svg"" width=""35%"" height=""75%""></img></td>
    <td width=300><img src=""static/images/keys/o.svg"" width=""35%"" height=""75%""></img></td>
  </tr>
</table>
  ",79.0,1.0,,,,,,,,,,,,,,,,,,,,,,,,,,
179,0,,html-keyboard-response,179,490588,0.0-7.6-1.6,6vt89xg1k1t,2022-09-19 17:33:42.523,5c61598fb40f380001109ca5,3,72,62,5,4,40,male,1157.5,,"
  <table>
  <tr height=300>
    <td width=300 height=300><img src=""static/images/cards/back_of_black_moons.svg"" width=""175px"" height=""250px""></img></td>
    <td width=300 height=300><img src=""static/images/cards/back_of_black_moons.svg"" width=""175px"" height=""250px""></img></td>
  </tr>
  <tr height=200>
    <td width=300><img src=""static/images/keys/z.svg"" width=""35%"" height=""75%""></img></td>
    <td width=300><img src=""static/images/keys/m.svg"" width=""35%"" height=""75%""></img></td>
  </tr>
</table>
  ",77.0,1.0,,,,,,,,,,,,,,,,,,,,,,,,,,
180,0,,html-keyboard-response,180,492094,0.0-7.6-2.6,6vt89xg1k1t,2022-09-19 17:33:42.523,5c61598fb40f380001109ca5,3,72,62,5,4,40,male,,,"
  <table>
  <tr height=300>
    <td width=300 height=300><img src=""static/images/cards/back_of_black_moons.svg"" width=""175px"" height=""250px""></img></td>
    <td width=300 height=300><img src=""static/images/cards/2_of_black_moons.svg"" width=""175px"" height=""250px""></img></td>
  </tr>
  <tr height=200>
    <td width=300><img src=""static/images/keys/z.svg"" width=""35%"" height=""75%""></img></td>
    <td width=300><img src=""static/images/keys/m.svg"" width=""35%"" height=""75%""></img></td>
  </tr>
</table>
  ",,,,,,,,,,,,,,,,,,,,,,,,,,,,
181,0,,html-keyboard-response,181,493598,0.0-7.6-3.6,6vt89xg1k1t,2022-09-19 17:33:42.523,5c61598fb40f380001109ca5,3,72,62,5,4,40,male,,,"<p style=""font-size:50px"">You Lose!
No points this round.</p>",,,,,,,,,,,,,,,,,,,,,,,,,,,,
182,0,,html-keyboard-response,182,494117,0.0-7.6-4.6,6vt89xg1k1t,2022-09-19 17:33:42.523,5c61598fb40f380001109ca5,3,72,62,5,4,40,male,,,,,,1.0,choice,6.0,A,C,black,black,stars,moons,C,A,A,black,moons,2181.7999999998,1.0,1.0,NA,right,1157.5,2.0,0.0,0.0,,,
183,0,,html-keyboard-response,183,495896,0.0-7.7-0.7,6vt89xg1k1t,2022-09-19 17:33:42.523,5c61598fb40f380001109ca5,3,72,62,5,4,40,male,1777.6999999997,,"
  <table>
  <tr height=300>
    <td width=300 height=300><img src=""static/images/cards/stack_of_red_moons.svg"" width=""175px"" height=""250px""></img></td>
    <td width=300 height=300><img src=""static/images/cards/stack_of_red_bolts.svg"" width=""175px"" height=""250px""></img></td>
  </tr>
  <tr height=200>
    <td width=300><img src=""static/images/keys/w.svg"" width=""35%"" height=""75%""></img></td>
    <td width=300><img src=""static/images/keys/o.svg"" width=""35%"" height=""75%""></img></td>
  </tr>
</table>
  ",79.0,1.0,,,,,,,,,,,,,,,,,,,,,,,,,,
184,0,,html-keyboard-response,184,497578,0.0-7.7-1.7,6vt89xg1k1t,2022-09-19 17:33:42.523,5c61598fb40f380001109ca5,3,72,62,5,4,40,male,1153.3999999999,,"
  <table>
  <tr height=300>
    <td width=300 height=300><img src=""static/images/cards/back_of_red_bolts.svg"" width=""175px"" height=""250px""></img></td>
    <td width=300 height=300><img src=""static/images/cards/back_of_red_bolts.svg"" width=""175px"" height=""250px""></img></td>
  </tr>
  <tr height=200>
    <td width=300><img src=""static/images/keys/z.svg"" width=""35%"" height=""75%""></img></td>
    <td width=300><img src=""static/images/keys/m.svg"" width=""35%"" height=""75%""></img></td>
  </tr>
</table>
  ",77.0,1.0,,,,,,,,,,,,,,,,,,,,,,,,,,
185,0,,html-keyboard-response,185,499091,0.0-7.7-2.7,6vt89xg1k1t,2022-09-19 17:33:42.523,5c61598fb40f380001109ca5,3,72,62,5,4,40,male,,,"
  <table>
  <tr height=300>
    <td width=300 height=300><img src=""static/images/cards/back_of_red_bolts.svg"" width=""175px"" height=""250px""></img></td>
    <td width=300 height=300><img src=""static/images/cards/1_of_red_bolts.svg"" width=""175px"" height=""250px""></img></td>
  </tr>
  <tr height=200>
    <td width=300><img src=""static/images/keys/z.svg"" width=""35%"" height=""75%""></img></td>
    <td width=300><img src=""static/images/keys/m.svg"" width=""35%"" height=""75%""></img></td>
  </tr>
</table>
  ",,,,,,,,,,,,,,,,,,,,,,,,,,,,
186,0,,html-keyboard-response,186,500608,0.0-7.7-3.7,6vt89xg1k1t,2022-09-19 17:33:42.523,5c61598fb40f380001109ca5,3,72,62,5,4,40,male,,,"<p style=""font-size:50px"">You win!
+10 points this round!</p>",,,,,,,,,,,,,,,,,,,,,,,,,,,,
187,0,,html-keyboard-response,187,501128,0.0-7.7-4.7,6vt89xg1k1t,2022-09-19 17:33:42.523,5c61598fb40f380001109ca5,3,72,62,5,4,40,male,,,,,,1.0,choice,7.0,B,Xc,red,red,moons,bolts,B,Xc,Xc,red,bolts,1777.6999999997,1.0,0.0,NA,right,1153.3999999999,1.0,0.0,1.0,,,
188,0,,html-keyboard-response,188,502587,0.0-7.8-0.8,6vt89xg1k1t,2022-09-19 17:33:42.523,5c61598fb40f380001109ca5,3,72,62,5,4,40,male,1457.2999999998,,"
  <table>
  <tr height=300>
    <td width=300 height=300><img src=""static/images/cards/stack_of_red_stars.svg"" width=""175px"" height=""250px""></img></td>
    <td width=300 height=300><img src=""static/images/cards/stack_of_red_moons.svg"" width=""175px"" height=""250px""></img></td>
  </tr>
  <tr height=200>
    <td width=300><img src=""static/images/keys/w.svg"" width=""35%"" height=""75%""></img></td>
    <td width=300><img src=""static/images/keys/o.svg"" width=""35%"" height=""75%""></img></td>
  </tr>
</table>
  ",87.0,1.0,,,,,,,,,,,,,,,,,,,,,,,,,,
189,0,,html-keyboard-response,189,504083,0.0-7.8-1.8,6vt89xg1k1t,2022-09-19 17:33:42.523,5c61598fb40f380001109ca5,3,72,62,5,4,40,male,990.3999999999,,"
  <table>
  <tr height=300>
    <td width=300 height=300><img src=""static/images/cards/back_of_red_stars.svg"" width=""175px"" height=""250px""></img></td>
    <td width=300 height=300><img src=""static/images/cards/back_of_red_stars.svg"" width=""175px"" height=""250px""></img></td>
  </tr>
  <tr height=200>
    <td width=300><img src=""static/images/keys/z.svg"" width=""35%"" height=""75%""></img></td>
    <td width=300></td>
  </tr>
</table>
  ",90.0,1.0,,,,,,,,,,,,,,,,,,,,,,,,,,
190,0,,html-keyboard-response,190,505585,0.0-7.8-2.8,6vt89xg1k1t,2022-09-19 17:33:42.523,5c61598fb40f380001109ca5,3,72,62,5,4,40,male,,,"
  <table>
  <tr height=300>
    <td width=300 height=300><img src=""static/images/cards/1_of_red_stars.svg"" width=""175px"" height=""250px""></img></td>
    <td width=300 height=300><img src=""static/images/cards/back_of_red_stars.svg"" width=""175px"" height=""250px""></img></td>
  </tr>
  <tr height=200>
    <td width=300><img src=""static/images/keys/z.svg"" width=""35%"" height=""75%""></img></td>
    <td width=300></td>
  </tr>
</table>
  ",,,,,,,,,,,,,,,,,,,,,,,,,,,,
191,0,,html-keyboard-response,191,507105,0.0-7.8-3.8,6vt89xg1k1t,2022-09-19 17:33:42.523,5c61598fb40f380001109ca5,3,72,62,5,4,40,male,,,"<p style=""font-size:50px"">You win!
+10 points this round!</p>",,,,,,,,,,,,,,,,,,,,,,,,,,,,
192,0,,html-keyboard-response,192,507611,0.0-7.8-4.8,6vt89xg1k1t,2022-09-19 17:33:42.523,5c61598fb40f380001109ca5,3,72,62,5,4,40,male,,,,,,1.0,choice,8.0,B,D,red,red,stars,moons,D,B,D,red,stars,1457.2999999998,0.0,0.0,1,left,990.3999999999,1.0,0.0,1.0,,,
193,0,,html-keyboard-response,193,508807,0.0-7.9-0.9,6vt89xg1k1t,2022-09-19 17:33:42.523,5c61598fb40f380001109ca5,3,72,62,5,4,40,male,1194.7000000002,,"
  <table>
  <tr height=300>
    <td width=300 height=300><img src=""static/images/cards/stack_of_red_stars.svg"" width=""175px"" height=""250px""></img></td>
    <td width=300 height=300><img src=""static/images/cards/stack_of_black_stars.svg"" width=""175px"" height=""250px""></img></td>
  </tr>
  <tr height=200>
    <td width=300><img src=""static/images/keys/w.svg"" width=""35%"" height=""75%""></img></td>
    <td width=300><img src=""static/images/keys/o.svg"" width=""35%"" height=""75%""></img></td>
  </tr>
</table>
  ",79.0,1.0,,,,,,,,,,,,,,,,,,,,,,,,,,
194,0,,html-keyboard-response,194,510388,0.0-7.9-1.9,6vt89xg1k1t,2022-09-19 17:33:42.523,5c61598fb40f380001109ca5,3,72,62,5,4,40,male,1074.5999999996,,"
  <table>
  <tr height=300>
    <td width=300 height=300><img src=""static/images/cards/back_of_black_stars.svg"" width=""175px"" height=""250px""></img></td>
    <td width=300 height=300><img src=""static/images/cards/back_of_black_stars.svg"" width=""175px"" height=""250px""></img></td>
  </tr>
  <tr height=200>
    <td width=300><img src=""static/images/keys/z.svg"" width=""35%"" height=""75%""></img></td>
    <td width=300><img src=""static/images/keys/m.svg"" width=""35%"" height=""75%""></img></td>
  </tr>
</table>
  ",77.0,1.0,,,,,,,,,,,,,,,,,,,,,,,,,,
195,0,,html-keyboard-response,195,511902,0.0-7.9-2.9,6vt89xg1k1t,2022-09-19 17:33:42.523,5c61598fb40f380001109ca5,3,72,62,5,4,40,male,,,"
  <table>
  <tr height=300>
    <td width=300 height=300><img src=""static/images/cards/back_of_black_stars.svg"" width=""175px"" height=""250px""></img></td>
    <td width=300 height=300><img src=""static/images/cards/1_of_black_stars.svg"" width=""175px"" height=""250px""></img></td>
  </tr>
  <tr height=200>
    <td width=300><img src=""static/images/keys/z.svg"" width=""35%"" height=""75%""></img></td>
    <td width=300><img src=""static/images/keys/m.svg"" width=""35%"" height=""75%""></img></td>
  </tr>
</table>
  ",,,,,,,,,,,,,,,,,,,,,,,,,,,,
196,0,,html-keyboard-response,196,513422,0.0-7.9-3.9,6vt89xg1k1t,2022-09-19 17:33:42.523,5c61598fb40f380001109ca5,3,72,62,5,4,40,male,,,"<p style=""font-size:50px"">You win!
+10 points this round!</p>",,,,,,,,,,,,,,,,,,,,,,,,,,,,
197,0,,html-keyboard-response,197,513943,0.0-7.9-4.9,6vt89xg1k1t,2022-09-19 17:33:42.523,5c61598fb40f380001109ca5,3,72,62,5,4,40,male,,,,,,1.0,choice,9.0,C,D,red,black,stars,stars,D,C,C,black,stars,1194.7000000002,1.0,0.0,NA,right,1074.5999999996,1.0,0.0,1.0,,,
198,0,,html-keyboard-response,198,515106,0.0-7.10-0.10,6vt89xg1k1t,2022-09-19 17:33:42.523,5c61598fb40f380001109ca5,3,72,62,5,4,40,male,1160.8000000003,,"
  <table>
  <tr height=300>
    <td width=300 height=300><img src=""static/images/cards/stack_of_black_moons.svg"" width=""175px"" height=""250px""></img></td>
    <td width=300 height=300><img src=""static/images/cards/stack_of_red_moons.svg"" width=""175px"" height=""250px""></img></td>
  </tr>
  <tr height=200>
    <td width=300><img src=""static/images/keys/w.svg"" width=""35%"" height=""75%""></img></td>
    <td width=300><img src=""static/images/keys/o.svg"" width=""35%"" height=""75%""></img></td>
  </tr>
</table>
  ",87.0,1.0,,,,,,,,,,,,,,,,,,,,,,,,,,
199,0,,html-keyboard-response,199,516768,0.0-7.10-1.10,6vt89xg1k1t,2022-09-19 17:33:42.523,5c61598fb40f380001109ca5,3,72,62,5,4,40,male,1145.2999999998,,"
  <table>
  <tr height=300>
    <td width=300 height=300><img src=""static/images/cards/back_of_black_moons.svg"" width=""175px"" height=""250px""></img></td>
    <td width=300 height=300><img src=""static/images/cards/back_of_black_moons.svg"" width=""175px"" height=""250px""></img></td>
  </tr>
  <tr height=200>
    <td width=300><img src=""static/images/keys/z.svg"" width=""35%"" height=""75%""></img></td>
    <td width=300><img src=""static/images/keys/m.svg"" width=""35%"" height=""75%""></img></td>
  </tr>
</table>
  ",77.0,1.0,,,,,,,,,,,,,,,,,,,,,,,,,,
200,0,,html-keyboard-response,200,518273,0.0-7.10-2.10,6vt89xg1k1t,2022-09-19 17:33:42.523,5c61598fb40f380001109ca5,3,72,62,5,4,40,male,,,"
  <table>
  <tr height=300>
    <td width=300 height=300><img src=""static/images/cards/back_of_black_moons.svg"" width=""175px"" height=""250px""></img></td>
    <td width=300 height=300><img src=""static/images/cards/2_of_black_moons.svg"" width=""175px"" height=""250px""></img></td>
  </tr>
  <tr height=200>
    <td width=300><img src=""static/images/keys/z.svg"" width=""35%"" height=""75%""></img></td>
    <td width=300><img src=""static/images/keys/m.svg"" width=""35%"" height=""75%""></img></td>
  </tr>
</table>
  ",,,,,,,,,,,,,,,,,,,,,,,,,,,,
201,0,,html-keyboard-response,201,519789,0.0-7.10-3.10,6vt89xg1k1t,2022-09-19 17:33:42.523,5c61598fb40f380001109ca5,3,72,62,5,4,40,male,,,"<p style=""font-size:50px"">You Lose!
No points this round.</p>",,,,,,,,,,,,,,,,,,,,,,,,,,,,
202,0,,html-keyboard-response,202,520309,0.0-7.10-4.10,6vt89xg1k1t,2022-09-19 17:33:42.523,5c61598fb40f380001109ca5,3,72,62,5,4,40,male,,,,,,1.0,choice,10.0,A,B,black,red,moons,moons,A,B,A,black,moons,1160.8000000003,1.0,1.0,NA,right,1145.2999999998,2.0,0.0,0.0,,,
203,0,,html-keyboard-response,203,521658,0.0-7.11-0.11,6vt89xg1k1t,2022-09-19 17:33:42.523,5c61598fb40f380001109ca5,3,72,62,5,4,40,male,1346.6000000001,,"
  <table>
  <tr height=300>
    <td width=300 height=300><img src=""static/images/cards/stack_of_black_moons.svg"" width=""175px"" height=""250px""></img></td>
    <td width=300 height=300><img src=""static/images/cards/stack_of_red_moons.svg"" width=""175px"" height=""250px""></img></td>
  </tr>
  <tr height=200>
    <td width=300><img src=""static/images/keys/w.svg"" width=""35%"" height=""75%""></img></td>
    <td width=300><img src=""static/images/keys/o.svg"" width=""35%"" height=""75%""></img></td>
  </tr>
</table>
  ",87.0,1.0,,,,,,,,,,,,,,,,,,,,,,,,,,
204,0,,html-keyboard-response,204,523324,0.0-7.11-1.11,6vt89xg1k1t,2022-09-19 17:33:42.523,5c61598fb40f380001109ca5,3,72,62,5,4,40,male,1158.2999999998,,"
  <table>
  <tr height=300>
    <td width=300 height=300><img src=""static/images/cards/back_of_black_moons.svg"" width=""175px"" height=""250px""></img></td>
    <td width=300 height=300><img src=""static/images/cards/back_of_black_moons.svg"" width=""175px"" height=""250px""></img></td>
  </tr>
  <tr height=200>
    <td width=300><img src=""static/images/keys/z.svg"" width=""35%"" height=""75%""></img></td>
    <td width=300><img src=""static/images/keys/m.svg"" width=""35%"" height=""75%""></img></td>
  </tr>
</table>
  ",77.0,1.0,,,,,,,,,,,,,,,,,,,,,,,,,,
205,0,,html-keyboard-response,205,524826,0.0-7.11-2.11,6vt89xg1k1t,2022-09-19 17:33:42.523,5c61598fb40f380001109ca5,3,72,62,5,4,40,male,,,"
  <table>
  <tr height=300>
    <td width=300 height=300><img src=""static/images/cards/back_of_black_moons.svg"" width=""175px"" height=""250px""></img></td>
    <td width=300 height=300><img src=""static/images/cards/10_of_black_moons.svg"" width=""175px"" height=""250px""></img></td>
  </tr>
  <tr height=200>
    <td width=300><img src=""static/images/keys/z.svg"" width=""35%"" height=""75%""></img></td>
    <td width=300><img src=""static/images/keys/m.svg"" width=""35%"" height=""75%""></img></td>
  </tr>
</table>
  ",,,,,,,,,,,,,,,,,,,,,,,,,,,,
206,0,,html-keyboard-response,206,526339,0.0-7.11-3.11,6vt89xg1k1t,2022-09-19 17:33:42.523,5c61598fb40f380001109ca5,3,72,62,5,4,40,male,,,"<p style=""font-size:50px"">You win!
+10 points this round!</p>",,,,,,,,,,,,,,,,,,,,,,,,,,,,
207,0,,html-keyboard-response,207,526859,0.0-7.11-4.11,6vt89xg1k1t,2022-09-19 17:33:42.523,5c61598fb40f380001109ca5,3,72,62,5,4,40,male,,,,,,1.0,choice,11.0,A,B,black,red,moons,moons,A,B,A,black,moons,1346.6000000001,1.0,1.0,NA,right,1158.2999999998,10.0,1.0,1.0,,,
208,0,,html-keyboard-response,208,528404,0.0-7.12-0.12,6vt89xg1k1t,2022-09-19 17:33:42.523,5c61598fb40f380001109ca5,3,72,62,5,4,40,male,1543.2999999998,,"
  <table>
  <tr height=300>
    <td width=300 height=300><img src=""static/images/cards/stack_of_black_stars.svg"" width=""175px"" height=""250px""></img></td>
    <td width=300 height=300><img src=""static/images/cards/stack_of_red_stars.svg"" width=""175px"" height=""250px""></img></td>
  </tr>
  <tr height=200>
    <td width=300><img src=""static/images/keys/w.svg"" width=""35%"" height=""75%""></img></td>
    <td width=300><img src=""static/images/keys/o.svg"" width=""35%"" height=""75%""></img></td>
  </tr>
</table>
  ",79.0,1.0,,,,,,,,,,,,,,,,,,,,,,,,,,
209,0,,html-keyboard-response,209,529839,0.0-7.12-1.12,6vt89xg1k1t,2022-09-19 17:33:42.523,5c61598fb40f380001109ca5,3,72,62,5,4,40,male,934.0,,"
  <table>
  <tr height=300>
    <td width=300 height=300><img src=""static/images/cards/back_of_red_stars.svg"" width=""175px"" height=""250px""></img></td>
    <td width=300 height=300><img src=""static/images/cards/back_of_red_stars.svg"" width=""175px"" height=""250px""></img></td>
  </tr>
  <tr height=200>
    <td width=300></td>
    <td width=300><img src=""static/images/keys/m.svg"" width=""35%"" height=""75%""></img></td>
  </tr>
</table>
  ",77.0,1.0,,,,,,,,,,,,,,,,,,,,,,,,,,
210,0,,html-keyboard-response,210,531353,0.0-7.12-2.12,6vt89xg1k1t,2022-09-19 17:33:42.523,5c61598fb40f380001109ca5,3,72,62,5,4,40,male,,,"
  <table>
  <tr height=300>
    <td width=300 height=300><img src=""static/images/cards/back_of_red_stars.svg"" width=""175px"" height=""250px""></img></td>
    <td width=300 height=300><img src=""static/images/cards/2_of_red_stars.svg"" width=""175px"" height=""250px""></img></td>
  </tr>
  <tr height=200>
    <td width=300></td>
    <td width=300><img src=""static/images/keys/m.svg"" width=""35%"" height=""75%""></img></td>
  </tr>
</table>
  ",,,,,,,,,,,,,,,,,,,,,,,,,,,,
211,0,,html-keyboard-response,211,532870,0.0-7.12-3.12,6vt89xg1k1t,2022-09-19 17:33:42.523,5c61598fb40f380001109ca5,3,72,62,5,4,40,male,,,"<p style=""font-size:50px"">You Lose!
No points this round.</p>",,,,,,,,,,,,,,,,,,,,,,,,,,,,
212,0,,html-keyboard-response,212,533376,0.0-7.12-4.12,6vt89xg1k1t,2022-09-19 17:33:42.523,5c61598fb40f380001109ca5,3,72,62,5,4,40,male,,,,,,1.0,choice,12.0,C,D,black,red,stars,stars,C,D,D,red,stars,1543.2999999998,0.0,0.0,0,right,934.0,2.0,0.0,0.0,,,
213,0,,html-keyboard-response,213,534348,0.0-7.13-0.13,6vt89xg1k1t,2022-09-19 17:33:42.523,5c61598fb40f380001109ca5,3,72,62,5,4,40,male,970.3000000003,,"
  <table>
  <tr height=300>
    <td width=300 height=300><img src=""static/images/cards/stack_of_black_moons.svg"" width=""175px"" height=""250px""></img></td>
    <td width=300 height=300><img src=""static/images/cards/stack_of_red_moons.svg"" width=""175px"" height=""250px""></img></td>
  </tr>
  <tr height=200>
    <td width=300><img src=""static/images/keys/w.svg"" width=""35%"" height=""75%""></img></td>
    <td width=300><img src=""static/images/keys/o.svg"" width=""35%"" height=""75%""></img></td>
  </tr>
</table>
  ",87.0,1.0,,,,,,,,,,,,,,,,,,,,,,,,,,
214,0,,html-keyboard-response,214,535868,0.0-7.13-1.13,6vt89xg1k1t,2022-09-19 17:33:42.523,5c61598fb40f380001109ca5,3,72,62,5,4,40,male,1014.0,,"
  <table>
  <tr height=300>
    <td width=300 height=300><img src=""static/images/cards/back_of_black_moons.svg"" width=""175px"" height=""250px""></img></td>
    <td width=300 height=300><img src=""static/images/cards/back_of_black_moons.svg"" width=""175px"" height=""250px""></img></td>
  </tr>
  <tr height=200>
    <td width=300><img src=""static/images/keys/z.svg"" width=""35%"" height=""75%""></img></td>
    <td width=300><img src=""static/images/keys/m.svg"" width=""35%"" height=""75%""></img></td>
  </tr>
</table>
  ",90.0,1.0,,,,,,,,,,,,,,,,,,,,,,,,,,
215,0,,html-keyboard-response,215,537371,0.0-7.13-2.13,6vt89xg1k1t,2022-09-19 17:33:42.523,5c61598fb40f380001109ca5,3,72,62,5,4,40,male,,,"
  <table>
  <tr height=300>
    <td width=300 height=300><img src=""static/images/cards/3_of_black_moons.svg"" width=""175px"" height=""250px""></img></td>
    <td width=300 height=300><img src=""static/images/cards/back_of_black_moons.svg"" width=""175px"" height=""250px""></img></td>
  </tr>
  <tr height=200>
    <td width=300><img src=""static/images/keys/z.svg"" width=""35%"" height=""75%""></img></td>
    <td width=300><img src=""static/images/keys/m.svg"" width=""35%"" height=""75%""></img></td>
  </tr>
</table>
  ",,,,,,,,,,,,,,,,,,,,,,,,,,,,
216,0,,html-keyboard-response,216,538891,0.0-7.13-3.13,6vt89xg1k1t,2022-09-19 17:33:42.523,5c61598fb40f380001109ca5,3,72,62,5,4,40,male,,,"<p style=""font-size:50px"">You Lose!
No points this round.</p>",,,,,,,,,,,,,,,,,,,,,,,,,,,,
217,0,,html-keyboard-response,217,539399,0.0-7.13-4.13,6vt89xg1k1t,2022-09-19 17:33:42.523,5c61598fb40f380001109ca5,3,72,62,5,4,40,male,,,,,,1.0,choice,13.0,A,B,black,red,moons,moons,A,B,A,black,moons,970.3000000003,1.0,1.0,NA,left,1014.0,3.0,0.0,0.0,,,
218,0,,html-keyboard-response,218,541114,0.0-7.14-0.14,6vt89xg1k1t,2022-09-19 17:33:42.523,5c61598fb40f380001109ca5,3,72,62,5,4,40,male,1713.2999999998,,"
  <table>
  <tr height=300>
    <td width=300 height=300><img src=""static/images/cards/stack_of_red_stars.svg"" width=""175px"" height=""250px""></img></td>
    <td width=300 height=300><img src=""static/images/cards/stack_of_red_moons.svg"" width=""175px"" height=""250px""></img></td>
  </tr>
  <tr height=200>
    <td width=300><img src=""static/images/keys/w.svg"" width=""35%"" height=""75%""></img></td>
    <td width=300><img src=""static/images/keys/o.svg"" width=""35%"" height=""75%""></img></td>
  </tr>
</table>
  ",79.0,1.0,,,,,,,,,,,,,,,,,,,,,,,,,,
219,0,,html-keyboard-response,219,542389,0.0-7.14-1.14,6vt89xg1k1t,2022-09-19 17:33:42.523,5c61598fb40f380001109ca5,3,72,62,5,4,40,male,768.8999999999,,"
  <table>
  <tr height=300>
    <td width=300 height=300><img src=""static/images/cards/back_of_red_moons.svg"" width=""175px"" height=""250px""></img></td>
    <td width=300 height=300><img src=""static/images/cards/back_of_red_moons.svg"" width=""175px"" height=""250px""></img></td>
  </tr>
  <tr height=200>
    <td width=300><img src=""static/images/keys/z.svg"" width=""35%"" height=""75%""></img></td>
    <td width=300></td>
  </tr>
</table>
  ",90.0,1.0,,,,,,,,,,,,,,,,,,,,,,,,,,
220,0,,html-keyboard-response,220,543902,0.0-7.14-2.14,6vt89xg1k1t,2022-09-19 17:33:42.523,5c61598fb40f380001109ca5,3,72,62,5,4,40,male,,,"
  <table>
  <tr height=300>
    <td width=300 height=300><img src=""static/images/cards/2_of_red_moons.svg"" width=""175px"" height=""250px""></img></td>
    <td width=300 height=300><img src=""static/images/cards/back_of_red_moons.svg"" width=""175px"" height=""250px""></img></td>
  </tr>
  <tr height=200>
    <td width=300><img src=""static/images/keys/z.svg"" width=""35%"" height=""75%""></img></td>
    <td width=300></td>
  </tr>
</table>
  ",,,,,,,,,,,,,,,,,,,,,,,,,,,,
221,0,,html-keyboard-response,221,545419,0.0-7.14-3.14,6vt89xg1k1t,2022-09-19 17:33:42.523,5c61598fb40f380001109ca5,3,72,62,5,4,40,male,,,"<p style=""font-size:50px"">You Lose!
No points this round.</p>",,,,,,,,,,,,,,,,,,,,,,,,,,,,
222,0,,html-keyboard-response,222,545940,0.0-7.14-4.14,6vt89xg1k1t,2022-09-19 17:33:42.523,5c61598fb40f380001109ca5,3,72,62,5,4,40,male,,,,,,1.0,choice,14.0,B,D,red,red,stars,moons,D,B,B,red,moons,1713.2999999998,0.0,1.0,1,left,768.8999999999,2.0,0.0,0.0,,,
223,0,,html-keyboard-response,223,547836,0.0-7.15-0.15,6vt89xg1k1t,2022-09-19 17:33:42.523,5c61598fb40f380001109ca5,3,72,62,5,4,40,male,1894.7999999998,,"
  <table>
  <tr height=300>
    <td width=300 height=300><img src=""static/images/cards/stack_of_red_moons.svg"" width=""175px"" height=""250px""></img></td>
    <td width=300 height=300><img src=""static/images/cards/stack_of_red_stars.svg"" width=""175px"" height=""250px""></img></td>
  </tr>
  <tr height=200>
    <td width=300><img src=""static/images/keys/w.svg"" width=""35%"" height=""75%""></img></td>
    <td width=300><img src=""static/images/keys/o.svg"" width=""35%"" height=""75%""></img></td>
  </tr>
</table>
  ",87.0,1.0,,,,,,,,,,,,,,,,,,,,,,,,,,
224,0,,html-keyboard-response,224,549210,0.0-7.15-1.15,6vt89xg1k1t,2022-09-19 17:33:42.523,5c61598fb40f380001109ca5,3,72,62,5,4,40,male,857.5,,"
  <table>
  <tr height=300>
    <td width=300 height=300><img src=""static/images/cards/back_of_red_moons.svg"" width=""175px"" height=""250px""></img></td>
    <td width=300 height=300><img src=""static/images/cards/back_of_red_moons.svg"" width=""175px"" height=""250px""></img></td>
  </tr>
  <tr height=200>
    <td width=300></td>
    <td width=300><img src=""static/images/keys/m.svg"" width=""35%"" height=""75%""></img></td>
  </tr>
</table>
  ",77.0,1.0,,,,,,,,,,,,,,,,,,,,,,,,,,
225,0,,html-keyboard-response,225,550717,0.0-7.15-2.15,6vt89xg1k1t,2022-09-19 17:33:42.523,5c61598fb40f380001109ca5,3,72,62,5,4,40,male,,,"
  <table>
  <tr height=300>
    <td width=300 height=300><img src=""static/images/cards/back_of_red_moons.svg"" width=""175px"" height=""250px""></img></td>
    <td width=300 height=300><img src=""static/images/cards/8_of_red_moons.svg"" width=""175px"" height=""250px""></img></td>
  </tr>
  <tr height=200>
    <td width=300></td>
    <td width=300><img src=""static/images/keys/m.svg"" width=""35%"" height=""75%""></img></td>
  </tr>
</table>
  ",,,,,,,,,,,,,,,,,,,,,,,,,,,,
226,0,,html-keyboard-response,226,552223,0.0-7.15-3.15,6vt89xg1k1t,2022-09-19 17:33:42.523,5c61598fb40f380001109ca5,3,72,62,5,4,40,male,,,"<p style=""font-size:50px"">You win!
+10 points this round!</p>",,,,,,,,,,,,,,,,,,,,,,,,,,,,
227,0,,html-keyboard-response,227,552738,0.0-7.15-4.15,6vt89xg1k1t,2022-09-19 17:33:42.523,5c61598fb40f380001109ca5,3,72,62,5,4,40,male,,,,,,1.0,choice,15.0,B,D,red,red,moons,stars,B,D,B,red,moons,1894.7999999998,0.0,1.0,0,right,857.5,8.0,1.0,1.0,,,
228,0,,html-keyboard-response,228,553969,0.0-7.16-0.16,6vt89xg1k1t,2022-09-19 17:33:42.523,5c61598fb40f380001109ca5,3,72,62,5,4,40,male,1229.1000000001,,"
  <table>
  <tr height=300>
    <td width=300 height=300><img src=""static/images/cards/stack_of_red_moons.svg"" width=""175px"" height=""250px""></img></td>
    <td width=300 height=300><img src=""static/images/cards/stack_of_black_moons.svg"" width=""175px"" height=""250px""></img></td>
  </tr>
  <tr height=200>
    <td width=300><img src=""static/images/keys/w.svg"" width=""35%"" height=""75%""></img></td>
    <td width=300><img src=""static/images/keys/o.svg"" width=""35%"" height=""75%""></img></td>
  </tr>
</table>
  ",79.0,1.0,,,,,,,,,,,,,,,,,,,,,,,,,,
229,0,,html-keyboard-response,229,555140,0.0-7.16-1.16,6vt89xg1k1t,2022-09-19 17:33:42.523,5c61598fb40f380001109ca5,3,72,62,5,4,40,male,653.8999999999,,"
  <table>
  <tr height=300>
    <td width=300 height=300><img src=""static/images/cards/back_of_black_moons.svg"" width=""175px"" height=""250px""></img></td>
    <td width=300 height=300><img src=""static/images/cards/back_of_black_moons.svg"" width=""175px"" height=""250px""></img></td>
  </tr>
  <tr height=200>
    <td width=300><img src=""static/images/keys/z.svg"" width=""35%"" height=""75%""></img></td>
    <td width=300><img src=""static/images/keys/m.svg"" width=""35%"" height=""75%""></img></td>
  </tr>
</table>
  ",77.0,1.0,,,,,,,,,,,,,,,,,,,,,,,,,,
230,0,,html-keyboard-response,230,556650,0.0-7.16-2.16,6vt89xg1k1t,2022-09-19 17:33:42.523,5c61598fb40f380001109ca5,3,72,62,5,4,40,male,,,"
  <table>
  <tr height=300>
    <td width=300 height=300><img src=""static/images/cards/back_of_black_moons.svg"" width=""175px"" height=""250px""></img></td>
    <td width=300 height=300><img src=""static/images/cards/2_of_black_moons.svg"" width=""175px"" height=""250px""></img></td>
  </tr>
  <tr height=200>
    <td width=300><img src=""static/images/keys/z.svg"" width=""35%"" height=""75%""></img></td>
    <td width=300><img src=""static/images/keys/m.svg"" width=""35%"" height=""75%""></img></td>
  </tr>
</table>
  ",,,,,,,,,,,,,,,,,,,,,,,,,,,,
231,0,,html-keyboard-response,231,558166,0.0-7.16-3.16,6vt89xg1k1t,2022-09-19 17:33:42.523,5c61598fb40f380001109ca5,3,72,62,5,4,40,male,,,"<p style=""font-size:50px"">You Lose!
No points this round.</p>",,,,,,,,,,,,,,,,,,,,,,,,,,,,
232,0,,html-keyboard-response,232,558672,0.0-7.16-4.16,6vt89xg1k1t,2022-09-19 17:33:42.523,5c61598fb40f380001109ca5,3,72,62,5,4,40,male,,,,,,1.0,choice,16.0,A,B,red,black,moons,moons,B,A,A,black,moons,1229.1000000001,1.0,1.0,NA,right,653.8999999999,2.0,0.0,0.0,,,
233,0,,html-keyboard-response,233,559964,0.0-7.17-0.17,6vt89xg1k1t,2022-09-19 17:33:42.523,5c61598fb40f380001109ca5,3,72,62,5,4,40,male,1289.3999999999,,"
  <table>
  <tr height=300>
    <td width=300 height=300><img src=""static/images/cards/stack_of_black_moons.svg"" width=""175px"" height=""250px""></img></td>
    <td width=300 height=300><img src=""static/images/cards/stack_of_red_stars.svg"" width=""175px"" height=""250px""></img></td>
  </tr>
  <tr height=200>
    <td width=300><img src=""static/images/keys/w.svg"" width=""35%"" height=""75%""></img></td>
    <td width=300><img src=""static/images/keys/o.svg"" width=""35%"" height=""75%""></img></td>
  </tr>
</table>
