,index,success,trial_type,trial_index,time_elapsed,internal_node_id,subject,date,prol_id,ctbl,sense_of_control_A,sense_of_control_B,sense_of_control_C,sense_of_control_D,age,gender,rt,url,stimulus,key_press,is_data_trial,phase,trial,deck1,deck2,col1,col2,sym1,sym2,deck_l,deck_r,chosen_deck,chosen_col,chosen_sym,deck_rt,choose_choice,mutual_info,hidden_key,chosen_card,card_rt,player_num,win_card,outcome,mock_rating,npress,response,responses
0,0,1.0,fullscreen,0,3201,0.0-0.0,9cdz8r0q26a,2022-09-19 17:58:06.627,62bb42e2f21cfdb280cc975f,2,21,66,34,83,27,Female,,,,,,,,,,,,,,,,,,,,,,,,,,,,,,,
1,0,,external-html,1,6596,0.0-1.0,9cdz8r0q26a,2022-09-19 17:58:06.627,62bb42e2f21cfdb280cc975f,2,21,66,34,83,27,Female,3306.0,static/js/sub/consent.html,,,,,,,,,,,,,,,,,,,,,,,,,,,,,
2,0,,call-function,2,6603,0.0-2.0,9cdz8r0q26a,2022-09-19 17:58:06.627,62bb42e2f21cfdb280cc975f,2,21,66,34,83,27,Female,,,,,,,,,,,,,,,,,,,,,,,,,,,,,,,
3,0,,image-keyboard-response,3,10035,0.0-3.0-0.0,9cdz8r0q26a,2022-09-19 17:58:06.627,62bb42e2f21cfdb280cc975f,2,21,66,34,83,27,Female,3431.0,,static/images/instructions_CB_2/Slide1.png,39.0,,,,,,,,,,,,,,,,,,,,,,,,,,,
4,0,,image-keyboard-response,4,17244,0.0-3.1-0.1,9cdz8r0q26a,2022-09-19 17:58:06.627,62bb42e2f21cfdb280cc975f,2,21,66,34,83,27,Female,7208.0,,static/images/instructions_CB_2/Slide2.png,39.0,,,,,,,,,,,,,,,,,,,,,,,,,,,
5,0,,image-keyboard-response,5,20305,0.0-3.2-0.2,9cdz8r0q26a,2022-09-19 17:58:06.627,62bb42e2f21cfdb280cc975f,2,21,66,34,83,27,Female,3060.0,,static/images/instructions_CB_2/Slide3.png,39.0,,,,,,,,,,,,,,,,,,,,,,,,,,,
6,0,,image-keyboard-response,6,23922,0.0-3.3-0.3,9cdz8r0q26a,2022-09-19 17:58:06.627,62bb42e2f21cfdb280cc975f,2,21,66,34,83,27,Female,3616.0,,static/images/instructions_CB_2/Slide4.png,39.0,,,,,,,,,,,,,,,,,,,,,,,,,,,
7,0,,image-keyboard-response,7,29029,0.0-3.4-0.4,9cdz8r0q26a,2022-09-19 17:58:06.627,62bb42e2f21cfdb280cc975f,2,21,66,34,83,27,Female,5106.0,,static/images/instructions_CB_2/Slide5.png,39.0,,,,,,,,,,,,,,,,,,,,,,,,,,,
8,0,,image-keyboard-response,8,30313,0.0-3.5-0.5,9cdz8r0q26a,2022-09-19 17:58:06.627,62bb42e2f21cfdb280cc975f,2,21,66,34,83,27,Female,1281.0,,static/images/instructions_CB_2/Slide6.png,39.0,,,,,,,,,,,,,,,,,,,,,,,,,,,
9,0,,image-keyboard-response,9,33446,0.0-3.6-0.6,9cdz8r0q26a,2022-09-19 17:58:06.627,62bb42e2f21cfdb280cc975f,2,21,66,34,83,27,Female,3132.0,,static/images/instructions_CB_2/Slide7.png,39.0,,,,,,,,,,,,,,,,,,,,,,,,,,,
10,0,,image-keyboard-response,10,43915,0.0-3.7-0.7,9cdz8r0q26a,2022-09-19 17:58:06.627,62bb42e2f21cfdb280cc975f,2,21,66,34,83,27,Female,10468.0,,static/images/instructions_CB_2/Slide8.png,39.0,,,,,,,,,,,,,,,,,,,,,,,,,,,
11,0,,image-keyboard-response,11,51893,0.0-3.8-0.8,9cdz8r0q26a,2022-09-19 17:58:06.627,62bb42e2f21cfdb280cc975f,2,21,66,34,83,27,Female,7977.0,,static/images/instructions_CB_2/Slide9.png,39.0,,,,,,,,,,,,,,,,,,,,,,,,,,,
12,0,,image-keyboard-response,12,59940,0.0-3.9-0.9,9cdz8r0q26a,2022-09-19 17:58:06.627,62bb42e2f21cfdb280cc975f,2,21,66,34,83,27,Female,8046.0,,static/images/instructions_CB_2/Slide10.png,39.0,,,,,,,,,,,,,,,,,,,,,,,,,,,
13,0,,image-keyboard-response,13,62783,0.0-3.10-0.10,9cdz8r0q26a,2022-09-19 17:58:06.627,62bb42e2f21cfdb280cc975f,2,21,66,34,83,27,Female,2841.0,,static/images/instructions_CB_2/Slide11.png,39.0,,,,,,,,,,,,,,,,,,,,,,,,,,,
14,0,,image-keyboard-response,14,69278,0.0-3.11-0.11,9cdz8r0q26a,2022-09-19 17:58:06.627,62bb42e2f21cfdb280cc975f,2,21,66,34,83,27,Female,6494.0,,static/images/instructions_CB_2/Slide12.png,39.0,,,,,,,,,,,,,,,,,,,,,,,,,,,
15,0,,image-keyboard-response,15,86669,0.0-3.12-0.12,9cdz8r0q26a,2022-09-19 17:58:06.627,62bb42e2f21cfdb280cc975f,2,21,66,34,83,27,Female,17390.0,,static/images/instructions_CB_2/Slide13.png,39.0,,,,,,,,,,,,,,,,,,,,,,,,,,,
16,0,,image-keyboard-response,16,104717,0.0-3.13-0.13,9cdz8r0q26a,2022-09-19 17:58:06.627,62bb42e2f21cfdb280cc975f,2,21,66,34,83,27,Female,18047.0,,static/images/instructions_CB_2/Slide14.png,39.0,,,,,,,,,,,,,,,,,,,,,,,,,,,
17,0,,image-keyboard-response,17,109178,0.0-3.14-0.14,9cdz8r0q26a,2022-09-19 17:58:06.627,62bb42e2f21cfdb280cc975f,2,21,66,34,83,27,Female,4459.0,,static/images/instructions_CB_2/Slide15.png,39.0,,,,,,,,,,,,,,,,,,,,,,,,,,,
18,0,,image-keyboard-response,18,114418,0.0-3.15-0.15,9cdz8r0q26a,2022-09-19 17:58:06.627,62bb42e2f21cfdb280cc975f,2,21,66,34,83,27,Female,5238.0,,static/images/instructions_CB_2/Slide16.png,39.0,,,,,,,,,,,,,,,,,,,,,,,,,,,
19,0,,image-keyboard-response,19,118700,0.0-3.16-0.16,9cdz8r0q26a,2022-09-19 17:58:06.627,62bb42e2f21cfdb280cc975f,2,21,66,34,83,27,Female,4281.0,,static/images/instructions_CB_2/Slide17.png,39.0,,,,,,,,,,,,,,,,,,,,,,,,,,,
20,0,,image-keyboard-response,20,142398,0.0-3.17-0.17,9cdz8r0q26a,2022-09-19 17:58:06.627,62bb42e2f21cfdb280cc975f,2,21,66,34,83,27,Female,23696.0,,static/images/instructions_CB_2/Slide18.png,39.0,,,,,,,,,,,,,,,,,,,,,,,,,,,
21,0,,image-keyboard-response,21,146408,0.0-3.18-0.18,9cdz8r0q26a,2022-09-19 17:58:06.627,62bb42e2f21cfdb280cc975f,2,21,66,34,83,27,Female,4009.0,,static/images/instructions_CB_2/Slide19.png,39.0,,,,,,,,,,,,,,,,,,,,,,,,,,,
22,0,,html-keyboard-response,22,147912,0.0-4.0-0.0,9cdz8r0q26a,2022-09-19 17:58:06.627,62bb42e2f21cfdb280cc975f,2,21,66,34,83,27,Female,,,"<img src=""static/images/cards/stack_of_black_stars.svg"" width=""175px"" height=""250px""></img>",,,,,,,,,,,,,,,,,,,,,,,,,,,,
23,0,,html-keyboard-response,23,151416,0.0-4.0-1.0,9cdz8r0q26a,2022-09-19 17:58:06.627,62bb42e2f21cfdb280cc975f,2,21,66,34,83,27,Female,,,"
  <table>
  <tr height=300>
    <td width=300 height=300><img src=""static/images/cards/back_of_black_stars.svg"" width=""175px"" height=""250px""></img></td>
    <td width=300 height=300><img src=""static/images/cards/back_of_black_stars.svg"" width=""175px"" height=""250px""></img></td>
  </tr>
  <tr height=200>
    <td width=300><img src=""static/images/keys/z.svg"" width=""35%"" height=""75%""></img></td>
    <td width=300><img src=""static/images/keys/m.svg"" width=""35%"" height=""75%""></img></td>
  </tr>
</table>
  ",,,,,,,,,,,,,,,,,,,,,,,,,,,,
24,0,,html-keyboard-response,24,151417,0.0-4.0-2.0,9cdz8r0q26a,2022-09-19 17:58:06.627,62bb42e2f21cfdb280cc975f,2,21,66,34,83,27,Female,,,,,,,,,,,,,,,,,,,,,,,,,,,,,,,
25,0,,html-keyboard-response,25,152919,0.0-4.0-3.0,9cdz8r0q26a,2022-09-19 17:58:06.627,62bb42e2f21cfdb280cc975f,2,21,66,34,83,27,Female,,,"<p style=""font-size:50px"">Too slow!</p>",,,,,,,,,,,,,,,,,,,,,,,,,,,,
26,0,,html-keyboard-response,26,153421,0.0-4.0-4.0,9cdz8r0q26a,2022-09-19 17:58:06.627,62bb42e2f21cfdb280cc975f,2,21,66,34,83,27,Female,,,,,1.0,learning,0.0,A,,black,,stars,,,,A,black,stars,,1.0,1.0,NA,,,,,,,,,
27,0,,html-keyboard-response,27,154924,0.0-4.1-0.1,9cdz8r0q26a,2022-09-19 17:58:06.627,62bb42e2f21cfdb280cc975f,2,21,66,34,83,27,Female,,,"<img src=""static/images/cards/stack_of_red_stars.svg"" width=""175px"" height=""250px""></img>",,,,,,,,,,,,,,,,,,,,,,,,,,,,
28,0,,html-keyboard-response,28,156191,0.0-4.1-1.1,9cdz8r0q26a,2022-09-19 17:58:06.627,62bb42e2f21cfdb280cc975f,2,21,66,34,83,27,Female,765.0,,"
  <table>
  <tr height=300>
    <td width=300 height=300><img src=""static/images/cards/back_of_red_stars.svg"" width=""175px"" height=""250px""></img></td>
    <td width=300 height=300><img src=""static/images/cards/back_of_red_stars.svg"" width=""175px"" height=""250px""></img></td>
  </tr>
  <tr height=200>
    <td width=300></td>
    <td width=300><img src=""static/images/keys/m.svg"" width=""35%"" height=""75%""></img></td>
  </tr>
</table>
  ",77.0,,,,,,,,,,,,,,,,,,,,,,,,,1.0,,
29,0,,html-keyboard-response,29,157693,0.0-4.1-2.1,9cdz8r0q26a,2022-09-19 17:58:06.627,62bb42e2f21cfdb280cc975f,2,21,66,34,83,27,Female,,,"
  <table>
  <tr height=300>
    <td width=300 height=300><img src=""static/images/cards/back_of_red_stars.svg"" width=""175px"" height=""250px""></img></td>
    <td width=300 height=300><img src=""static/images/cards/10_of_red_stars.svg"" width=""175px"" height=""250px""></img></td>
  </tr>
  <tr height=200>
    <td width=300></td>
    <td width=300><img src=""static/images/keys/m.svg"" width=""35%"" height=""75%""></img></td>
  </tr>
</table>
  ",,,,,,,,,,,,,,,,,,,,,,,,,,,,
30,0,,html-keyboard-response,30,159197,0.0-4.1-3.1,9cdz8r0q26a,2022-09-19 17:58:06.627,62bb42e2f21cfdb280cc975f,2,21,66,34,83,27,Female,,,"<p style=""font-size:50px"">You win!
+10 points this round!</p>",,,,,,,,,,,,,,,,,,,,,,,,,,,,
31,0,,html-keyboard-response,31,159698,0.0-4.1-4.1,9cdz8r0q26a,2022-09-19 17:58:06.627,62bb42e2f21cfdb280cc975f,2,21,66,34,83,27,Female,,,,,1.0,learning,1.0,B,,red,,stars,,,,B,red,stars,,0.0,1.0,0,right,765.0,10.0,1.0,1.0,,,,
32,0,,html-keyboard-response,32,161201,0.0-4.2-0.2,9cdz8r0q26a,2022-09-19 17:58:06.627,62bb42e2f21cfdb280cc975f,2,21,66,34,83,27,Female,,,"<img src=""static/images/cards/stack_of_black_moons.svg"" width=""175px"" height=""250px""></img>",,,,,,,,,,,,,,,,,,,,,,,,,,,,
33,0,,html-keyboard-response,33,162551,0.0-4.2-1.2,9cdz8r0q26a,2022-09-19 17:58:06.627,62bb42e2f21cfdb280cc975f,2,21,66,34,83,27,Female,848.0,,"
  <table>
  <tr height=300>
    <td width=300 height=300><img src=""static/images/cards/back_of_black_moons.svg"" width=""175px"" height=""250px""></img></td>
    <td width=300 height=300><img src=""static/images/cards/back_of_black_moons.svg"" width=""175px"" height=""250px""></img></td>
  </tr>
  <tr height=200>
    <td width=300><img src=""static/images/keys/z.svg"" width=""35%"" height=""75%""></img></td>
    <td width=300><img src=""static/images/keys/m.svg"" width=""35%"" height=""75%""></img></td>
  </tr>
</table>
  ",90.0,,,,,,,,,,,,,,,,,,,,,,,,,1.0,,
34,0,,html-keyboard-response,34,164055,0.0-4.2-2.2,9cdz8r0q26a,2022-09-19 17:58:06.627,62bb42e2f21cfdb280cc975f,2,21,66,34,83,27,Female,,,"
  <table>
  <tr height=300>
    <td width=300 height=300><img src=""static/images/cards/9_of_black_moons.svg"" width=""175px"" height=""250px""></img></td>
    <td width=300 height=300><img src=""static/images/cards/back_of_black_moons.svg"" width=""175px"" height=""250px""></img></td>
  </tr>
  <tr height=200>
    <td width=300><img src=""static/images/keys/z.svg"" width=""35%"" height=""75%""></img></td>
    <td width=300><img src=""static/images/keys/m.svg"" width=""35%"" height=""75%""></img></td>
  </tr>
</table>
  ",,,,,,,,,,,,,,,,,,,,,,,,,,,,
35,0,,html-keyboard-response,35,165557,0.0-4.2-3.2,9cdz8r0q26a,2022-09-19 17:58:06.627,62bb42e2f21cfdb280cc975f,2,21,66,34,83,27,Female,,,"<p style=""font-size:50px"">You win!
+10 points this round!</p>",,,,,,,,,,,,,,,,,,,,,,,,,,,,
36,0,,html-keyboard-response,36,166059,0.0-4.2-4.2,9cdz8r0q26a,2022-09-19 17:58:06.627,62bb42e2f21cfdb280cc975f,2,21,66,34,83,27,Female,,,,,1.0,learning,2.0,C,,black,,moons,,,,C,black,moons,,1.0,0.0,NA,left,848.0,9.0,1.0,1.0,,,,
37,0,,html-keyboard-response,37,167562,0.0-4.3-0.3,9cdz8r0q26a,2022-09-19 17:58:06.627,62bb42e2f21cfdb280cc975f,2,21,66,34,83,27,Female,,,"<img src=""static/images/cards/stack_of_red_moons.svg"" width=""175px"" height=""250px""></img>",,,,,,,,,,,,,,,,,,,,,,,,,,,,
38,0,,html-keyboard-response,38,168591,0.0-4.3-1.3,9cdz8r0q26a,2022-09-19 17:58:06.627,62bb42e2f21cfdb280cc975f,2,21,66,34,83,27,Female,526.0,,"
  <table>
  <tr height=300>
    <td width=300 height=300><img src=""static/images/cards/back_of_red_moons.svg"" width=""175px"" height=""250px""></img></td>
    <td width=300 height=300><img src=""static/images/cards/back_of_red_moons.svg"" width=""175px"" height=""250px""></img></td>
  </tr>
  <tr height=200>
    <td width=300></td>
    <td width=300><img src=""static/images/keys/m.svg"" width=""35%"" height=""75%""></img></td>
  </tr>
</table>
  ",77.0,,,,,,,,,,,,,,,,,,,,,,,,,1.0,,
39,0,,html-keyboard-response,39,170093,0.0-4.3-2.3,9cdz8r0q26a,2022-09-19 17:58:06.627,62bb42e2f21cfdb280cc975f,2,21,66,34,83,27,Female,,,"
  <table>
  <tr height=300>
    <td width=300 height=300><img src=""static/images/cards/back_of_red_moons.svg"" width=""175px"" height=""250px""></img></td>
    <td width=300 height=300><img src=""static/images/cards/9_of_red_moons.svg"" width=""175px"" height=""250px""></img></td>
  </tr>
  <tr height=200>
    <td width=300></td>
    <td width=300><img src=""static/images/keys/m.svg"" width=""35%"" height=""75%""></img></td>
  </tr>
</table>
  ",,,,,,,,,,,,,,,,,,,,,,,,,,,,
40,0,,html-keyboard-response,40,171595,0.0-4.3-3.3,9cdz8r0q26a,2022-09-19 17:58:06.627,62bb42e2f21cfdb280cc975f,2,21,66,34,83,27,Female,,,"<p style=""font-size:50px"">You Lose!
No points this round.</p>",,,,,,,,,,,,,,,,,,,,,,,,,,,,
41,0,,html-keyboard-response,41,172097,0.0-4.3-4.3,9cdz8r0q26a,2022-09-19 17:58:06.627,62bb42e2f21cfdb280cc975f,2,21,66,34,83,27,Female,,,,,1.0,learning,3.0,D,,red,,moons,,,,D,red,moons,,0.0,0.0,0,right,526.0,9.0,1.0,0.0,,,,
42,0,,html-keyboard-response,42,173600,0.0-4.4-0.4,9cdz8r0q26a,2022-09-19 17:58:06.627,62bb42e2f21cfdb280cc975f,2,21,66,34,83,27,Female,,,"<img src=""static/images/cards/stack_of_red_bolts.svg"" width=""175px"" height=""250px""></img>",,,,,,,,,,,,,,,,,,,,,,,,,,,,
43,0,,html-keyboard-response,43,174863,0.0-4.4-1.4,9cdz8r0q26a,2022-09-19 17:58:06.627,62bb42e2f21cfdb280cc975f,2,21,66,34,83,27,Female,760.0,,"
  <table>
  <tr height=300>
    <td width=300 height=300><img src=""static/images/cards/back_of_red_bolts.svg"" width=""175px"" height=""250px""></img></td>
    <td width=300 height=300><img src=""static/images/cards/back_of_red_bolts.svg"" width=""175px"" height=""250px""></img></td>
  </tr>
  <tr height=200>
    <td width=300><img src=""static/images/keys/z.svg"" width=""35%"" height=""75%""></img></td>
    <td width=300><img src=""static/images/keys/m.svg"" width=""35%"" height=""75%""></img></td>
  </tr>
</table>
  ",90.0,,,,,,,,,,,,,,,,,,,,,,,,,1.0,,
44,0,,html-keyboard-response,44,176366,0.0-4.4-2.4,9cdz8r0q26a,2022-09-19 17:58:06.627,62bb42e2f21cfdb280cc975f,2,21,66,34,83,27,Female,,,"
  <table>
  <tr height=300>
    <td width=300 height=300><img src=""static/images/cards/2_of_red_bolts.svg"" width=""175px"" height=""250px""></img></td>
    <td width=300 height=300><img src=""static/images/cards/back_of_red_bolts.svg"" width=""175px"" height=""250px""></img></td>
  </tr>
  <tr height=200>
    <td width=300><img src=""static/images/keys/z.svg"" width=""35%"" height=""75%""></img></td>
    <td width=300><img src=""static/images/keys/m.svg"" width=""35%"" height=""75%""></img></td>
  </tr>
</table>
  ",,,,,,,,,,,,,,,,,,,,,,,,,,,,
45,0,,html-keyboard-response,45,177869,0.0-4.4-3.4,9cdz8r0q26a,2022-09-19 17:58:06.627,62bb42e2f21cfdb280cc975f,2,21,66,34,83,27,Female,,,"<p style=""font-size:50px"">You win!
+10 points this round!</p>",,,,,,,,,,,,,,,,,,,,,,,,,,,,
46,0,,html-keyboard-response,46,178370,0.0-4.4-4.4,9cdz8r0q26a,2022-09-19 17:58:06.627,62bb42e2f21cfdb280cc975f,2,21,66,34,83,27,Female,,,,,1.0,learning,4.0,Xc,,red,,bolts,,,,Xc,red,bolts,,1.0,0.0,NA,left,760.0,2.0,0.0,1.0,,,,
47,0,,html-keyboard-response,47,179871,0.0-4.5-0.5,9cdz8r0q26a,2022-09-19 17:58:06.627,62bb42e2f21cfdb280cc975f,2,21,66,34,83,27,Female,,,"<img src=""static/images/cards/stack_of_black_bolts.svg"" width=""175px"" height=""250px""></img>",,,,,,,,,,,,,,,,,,,,,,,,,,,,
48,0,,html-keyboard-response,48,180927,0.0-4.5-1.5,9cdz8r0q26a,2022-09-19 17:58:06.627,62bb42e2f21cfdb280cc975f,2,21,66,34,83,27,Female,553.0,,"
  <table>
  <tr height=300>
    <td width=300 height=300><img src=""static/images/cards/back_of_black_bolts.svg"" width=""175px"" height=""250px""></img></td>
    <td width=300 height=300><img src=""static/images/cards/back_of_black_bolts.svg"" width=""175px"" height=""250px""></img></td>
  </tr>
  <tr height=200>
    <td width=300></td>
    <td width=300><img src=""static/images/keys/m.svg"" width=""35%"" height=""75%""></img></td>
  </tr>
</table>
  ",77.0,,,,,,,,,,,,,,,,,,,,,,,,,1.0,,
49,0,,html-keyboard-response,49,182429,0.0-4.5-2.5,9cdz8r0q26a,2022-09-19 17:58:06.627,62bb42e2f21cfdb280cc975f,2,21,66,34,83,27,Female,,,"
  <table>
  <tr height=300>
    <td width=300 height=300><img src=""static/images/cards/back_of_black_bolts.svg"" width=""175px"" height=""250px""></img></td>
    <td width=300 height=300><img src=""static/images/cards/1_of_black_bolts.svg"" width=""175px"" height=""250px""></img></td>
  </tr>
  <tr height=200>
    <td width=300></td>
    <td width=300><img src=""static/images/keys/m.svg"" width=""35%"" height=""75%""></img></td>
  </tr>
</table>
  ",,,,,,,,,,,,,,,,,,,,,,,,,,,,
50,0,,html-keyboard-response,50,183931,0.0-4.5-3.5,9cdz8r0q26a,2022-09-19 17:58:06.627,62bb42e2f21cfdb280cc975f,2,21,66,34,83,27,Female,,,"<p style=""font-size:50px"">You win!
+10 points this round!</p>",,,,,,,,,,,,,,,,,,,,,,,,,,,,
51,0,,html-keyboard-response,51,184433,0.0-4.5-4.5,9cdz8r0q26a,2022-09-19 17:58:06.627,62bb42e2f21cfdb280cc975f,2,21,66,34,83,27,Female,,,,,1.0,learning,5.0,Xnc,,black,,bolts,,,,Xnc,black,bolts,,0.0,0.0,0,right,553.0,1.0,0.0,1.0,,,,
52,0,,html-keyboard-response,52,185935,0.0-4.6-0.6,9cdz8r0q26a,2022-09-19 17:58:06.627,62bb42e2f21cfdb280cc975f,2,21,66,34,83,27,Female,,,"<img src=""static/images/cards/stack_of_black_stars.svg"" width=""175px"" height=""250px""></img>",,,,,,,,,,,,,,,,,,,,,,,,,,,,
53,0,,html-keyboard-response,53,187666,0.0-4.6-1.6,9cdz8r0q26a,2022-09-19 17:58:06.627,62bb42e2f21cfdb280cc975f,2,21,66,34,83,27,Female,1228.0,,"
  <table>
  <tr height=300>
    <td width=300 height=300><img src=""static/images/cards/back_of_black_stars.svg"" width=""175px"" height=""250px""></img></td>
    <td width=300 height=300><img src=""static/images/cards/back_of_black_stars.svg"" width=""175px"" height=""250px""></img></td>
  </tr>
  <tr height=200>
    <td width=300><img src=""static/images/keys/z.svg"" width=""35%"" height=""75%""></img></td>
    <td width=300><img src=""static/images/keys/m.svg"" width=""35%"" height=""75%""></img></td>
  </tr>
</table>
  ",77.0,,,,,,,,,,,,,,,,,,,,,,,,,1.0,,
54,0,,html-keyboard-response,54,189169,0.0-4.6-2.6,9cdz8r0q26a,2022-09-19 17:58:06.627,62bb42e2f21cfdb280cc975f,2,21,66,34,83,27,Female,,,"
  <table>
  <tr height=300>
    <td width=300 height=300><img src=""static/images/cards/back_of_black_stars.svg"" width=""175px"" height=""250px""></img></td>
    <td width=300 height=300><img src=""static/images/cards/2_of_black_stars.svg"" width=""175px"" height=""250px""></img></td>
  </tr>
  <tr height=200>
    <td width=300><img src=""static/images/keys/z.svg"" width=""35%"" height=""75%""></img></td>
    <td width=300><img src=""static/images/keys/m.svg"" width=""35%"" height=""75%""></img></td>
  </tr>
</table>
  ",,,,,,,,,,,,,,,,,,,,,,,,,,,,
55,0,,html-keyboard-response,55,190671,0.0-4.6-3.6,9cdz8r0q26a,2022-09-19 17:58:06.627,62bb42e2f21cfdb280cc975f,2,21,66,34,83,27,Female,,,"<p style=""font-size:50px"">You Lose!
No points this round.</p>",,,,,,,,,,,,,,,,,,,,,,,,,,,,
56,0,,html-keyboard-response,56,191173,0.0-4.6-4.6,9cdz8r0q26a,2022-09-19 17:58:06.627,62bb42e2f21cfdb280cc975f,2,21,66,34,83,27,Female,,,,,1.0,learning,6.0,A,,black,,stars,,,,A,black,stars,,1.0,1.0,NA,right,1228.0,2.0,0.0,0.0,,,,
57,0,,html-keyboard-response,57,192675,0.0-4.7-0.7,9cdz8r0q26a,2022-09-19 17:58:06.627,62bb42e2f21cfdb280cc975f,2,21,66,34,83,27,Female,,,"<img src=""static/images/cards/stack_of_red_stars.svg"" width=""175px"" height=""250px""></img>",,,,,,,,,,,,,,,,,,,,,,,,,,,,
58,0,,html-keyboard-response,58,193687,0.0-4.7-1.7,9cdz8r0q26a,2022-09-19 17:58:06.627,62bb42e2f21cfdb280cc975f,2,21,66,34,83,27,Female,510.0,,"
  <table>
  <tr height=300>
    <td width=300 height=300><img src=""static/images/cards/back_of_red_stars.svg"" width=""175px"" height=""250px""></img></td>
    <td width=300 height=300><img src=""static/images/cards/back_of_red_stars.svg"" width=""175px"" height=""250px""></img></td>
  </tr>
  <tr height=200>
    <td width=300></td>
    <td width=300><img src=""static/images/keys/m.svg"" width=""35%"" height=""75%""></img></td>
  </tr>
</table>
  ",77.0,,,,,,,,,,,,,,,,,,,,,,,,,1.0,,
59,0,,html-keyboard-response,59,195189,0.0-4.7-2.7,9cdz8r0q26a,2022-09-19 17:58:06.627,62bb42e2f21cfdb280cc975f,2,21,66,34,83,27,Female,,,"
  <table>
  <tr height=300>
    <td width=300 height=300><img src=""static/images/cards/back_of_red_stars.svg"" width=""175px"" height=""250px""></img></td>
    <td width=300 height=300><img src=""static/images/cards/3_of_red_stars.svg"" width=""175px"" height=""250px""></img></td>
  </tr>
  <tr height=200>
    <td width=300></td>
    <td width=300><img src=""static/images/keys/m.svg"" width=""35%"" height=""75%""></img></td>
  </tr>
</table>
  ",,,,,,,,,,,,,,,,,,,,,,,,,,,,
60,0,,html-keyboard-response,60,196692,0.0-4.7-3.7,9cdz8r0q26a,2022-09-19 17:58:06.627,62bb42e2f21cfdb280cc975f,2,21,66,34,83,27,Female,,,"<p style=""font-size:50px"">You Lose!
No points this round.</p>",,,,,,,,,,,,,,,,,,,,,,,,,,,,
61,0,,html-keyboard-response,61,197193,0.0-4.7-4.7,9cdz8r0q26a,2022-09-19 17:58:06.627,62bb42e2f21cfdb280cc975f,2,21,66,34,83,27,Female,,,,,1.0,learning,7.0,B,,red,,stars,,,,B,red,stars,,0.0,1.0,0,right,510.0,3.0,0.0,0.0,,,,
62,0,,html-keyboard-response,62,198695,0.0-4.8-0.8,9cdz8r0q26a,2022-09-19 17:58:06.627,62bb42e2f21cfdb280cc975f,2,21,66,34,83,27,Female,,,"<img src=""static/images/cards/stack_of_black_moons.svg"" width=""175px"" height=""250px""></img>",,,,,,,,,,,,,,,,,,,,,,,,,,,,
63,0,,html-keyboard-response,63,199575,0.0-4.8-1.8,9cdz8r0q26a,2022-09-19 17:58:06.627,62bb42e2f21cfdb280cc975f,2,21,66,34,83,27,Female,377.0,,"
  <table>
  <tr height=300>
    <td width=300 height=300><img src=""static/images/cards/back_of_black_moons.svg"" width=""175px"" height=""250px""></img></td>
    <td width=300 height=300><img src=""static/images/cards/back_of_black_moons.svg"" width=""175px"" height=""250px""></img></td>
  </tr>
  <tr height=200>
    <td width=300><img src=""static/images/keys/z.svg"" width=""35%"" height=""75%""></img></td>
    <td width=300><img src=""static/images/keys/m.svg"" width=""35%"" height=""75%""></img></td>
  </tr>
</table>
  ",90.0,,,,,,,,,,,,,,,,,,,,,,,,,1.0,,
64,0,,html-keyboard-response,64,201078,0.0-4.8-2.8,9cdz8r0q26a,2022-09-19 17:58:06.627,62bb42e2f21cfdb280cc975f,2,21,66,34,83,27,Female,,,"
  <table>
  <tr height=300>
    <td width=300 height=300><img src=""static/images/cards/2_of_black_moons.svg"" width=""175px"" height=""250px""></img></td>
    <td width=300 height=300><img src=""static/images/cards/back_of_black_moons.svg"" width=""175px"" height=""250px""></img></td>
  </tr>
  <tr height=200>
    <td width=300><img src=""static/images/keys/z.svg"" width=""35%"" height=""75%""></img></td>
    <td width=300><img src=""static/images/keys/m.svg"" width=""35%"" height=""75%""></img></td>
  </tr>
</table>
  ",,,,,,,,,,,,,,,,,,,,,,,,,,,,
65,0,,html-keyboard-response,65,202581,0.0-4.8-3.8,9cdz8r0q26a,2022-09-19 17:58:06.627,62bb42e2f21cfdb280cc975f,2,21,66,34,83,27,Female,,,"<p style=""font-size:50px"">You win!
+10 points this round!</p>",,,,,,,,,,,,,,,,,,,,,,,,,,,,
66,0,,html-keyboard-response,66,203083,0.0-4.8-4.8,9cdz8r0q26a,2022-09-19 17:58:06.627,62bb42e2f21cfdb280cc975f,2,21,66,34,83,27,Female,,,,,1.0,learning,8.0,C,,black,,moons,,,,C,black,moons,,1.0,0.0,NA,left,377.0,2.0,0.0,1.0,,,,
67,0,,html-keyboard-response,67,204585,0.0-4.9-0.9,9cdz8r0q26a,2022-09-19 17:58:06.627,62bb42e2f21cfdb280cc975f,2,21,66,34,83,27,Female,,,"<img src=""static/images/cards/stack_of_red_moons.svg"" width=""175px"" height=""250px""></img>",,,,,,,,,,,,,,,,,,,,,,,,,,,,
68,0,,html-keyboard-response,68,205486,0.0-4.9-1.9,9cdz8r0q26a,2022-09-19 17:58:06.627,62bb42e2f21cfdb280cc975f,2,21,66,34,83,27,Female,398.0,,"
  <table>
  <tr height=300>
    <td width=300 height=300><img src=""static/images/cards/back_of_red_moons.svg"" width=""175px"" height=""250px""></img></td>
    <td width=300 height=300><img src=""static/images/cards/back_of_red_moons.svg"" width=""175px"" height=""250px""></img></td>
  </tr>
  <tr height=200>
    <td width=300></td>
    <td width=300><img src=""static/images/keys/m.svg"" width=""35%"" height=""75%""></img></td>
  </tr>
</table>
  ",77.0,,,,,,,,,,,,,,,,,,,,,,,,,1.0,,
69,0,,html-keyboard-response,69,206989,0.0-4.9-2.9,9cdz8r0q26a,2022-09-19 17:58:06.627,62bb42e2f21cfdb280cc975f,2,21,66,34,83,27,Female,,,"
  <table>
  <tr height=300>
    <td width=300 height=300><img src=""static/images/cards/back_of_red_moons.svg"" width=""175px"" height=""250px""></img></td>
    <td width=300 height=300><img src=""static/images/cards/3_of_red_moons.svg"" width=""175px"" height=""250px""></img></td>
  </tr>
  <tr height=200>
    <td width=300></td>
    <td width=300><img src=""static/images/keys/m.svg"" width=""35%"" height=""75%""></img></td>
  </tr>
</table>
  ",,,,,,,,,,,,,,,,,,,,,,,,,,,,
70,0,,html-keyboard-response,70,208491,0.0-4.9-3.9,9cdz8r0q26a,2022-09-19 17:58:06.627,62bb42e2f21cfdb280cc975f,2,21,66,34,83,27,Female,,,"<p style=""font-size:50px"">You win!
+10 points this round!</p>",,,,,,,,,,,,,,,,,,,,,,,,,,,,
71,0,,html-keyboard-response,71,208992,0.0-4.9-4.9,9cdz8r0q26a,2022-09-19 17:58:06.627,62bb42e2f21cfdb280cc975f,2,21,66,34,83,27,Female,,,,,1.0,learning,9.0,D,,red,,moons,,,,D,red,moons,,0.0,0.0,0,right,398.0,3.0,0.0,1.0,,,,
72,0,,html-keyboard-response,72,210495,0.0-4.10-0.10,9cdz8r0q26a,2022-09-19 17:58:06.627,62bb42e2f21cfdb280cc975f,2,21,66,34,83,27,Female,,,"<img src=""static/images/cards/stack_of_red_bolts.svg"" width=""175px"" height=""250px""></img>",,,,,,,,,,,,,,,,,,,,,,,,,,,,
73,0,,html-keyboard-response,73,211743,0.0-4.10-1.10,9cdz8r0q26a,2022-09-19 17:58:06.627,62bb42e2f21cfdb280cc975f,2,21,66,34,83,27,Female,745.0,,"
  <table>
  <tr height=300>
    <td width=300 height=300><img src=""static/images/cards/back_of_red_bolts.svg"" width=""175px"" height=""250px""></img></td>
    <td width=300 height=300><img src=""static/images/cards/back_of_red_bolts.svg"" width=""175px"" height=""250px""></img></td>
  </tr>
  <tr height=200>
    <td width=300><img src=""static/images/keys/z.svg"" width=""35%"" height=""75%""></img></td>
    <td width=300><img src=""static/images/keys/m.svg"" width=""35%"" height=""75%""></img></td>
  </tr>
</table>
  ",90.0,,,,,,,,,,,,,,,,,,,,,,,,,1.0,,
74,0,,html-keyboard-response,74,213245,0.0-4.10-2.10,9cdz8r0q26a,2022-09-19 17:58:06.627,62bb42e2f21cfdb280cc975f,2,21,66,34,83,27,Female,,,"
  <table>
  <tr height=300>
    <td width=300 height=300><img src=""static/images/cards/3_of_red_bolts.svg"" width=""175px"" height=""250px""></img></td>
    <td width=300 height=300><img src=""static/images/cards/back_of_red_bolts.svg"" width=""175px"" height=""250px""></img></td>
  </tr>
  <tr height=200>
    <td width=300><img src=""static/images/keys/z.svg"" width=""35%"" height=""75%""></img></td>
    <td width=300><img src=""static/images/keys/m.svg"" width=""35%"" height=""75%""></img></td>
  </tr>
</table>
  ",,,,,,,,,,,,,,,,,,,,,,,,,,,,
75,0,,html-keyboard-response,75,214748,0.0-4.10-3.10,9cdz8r0q26a,2022-09-19 17:58:06.627,62bb42e2f21cfdb280cc975f,2,21,66,34,83,27,Female,,,"<p style=""font-size:50px"">You win!
+10 points this round!</p>",,,,,,,,,,,,,,,,,,,,,,,,,,,,
76,0,,html-keyboard-response,76,215250,0.0-4.10-4.10,9cdz8r0q26a,2022-09-19 17:58:06.627,62bb42e2f21cfdb280cc975f,2,21,66,34,83,27,Female,,,,,1.0,learning,10.0,Xc,,red,,bolts,,,,Xc,red,bolts,,1.0,0.0,NA,left,745.0,3.0,0.0,1.0,,,,
77,0,,html-keyboard-response,77,216753,0.0-4.11-0.11,9cdz8r0q26a,2022-09-19 17:58:06.627,62bb42e2f21cfdb280cc975f,2,21,66,34,83,27,Female,,,"<img src=""static/images/cards/stack_of_black_bolts.svg"" width=""175px"" height=""250px""></img>",,,,,,,,,,,,,,,,,,,,,,,,,,,,
78,0,,html-keyboard-response,78,217897,0.0-4.11-1.11,9cdz8r0q26a,2022-09-19 17:58:06.627,62bb42e2f21cfdb280cc975f,2,21,66,34,83,27,Female,641.0,,"
  <table>
  <tr height=300>
    <td width=300 height=300><img src=""static/images/cards/back_of_black_bolts.svg"" width=""175px"" height=""250px""></img></td>
    <td width=300 height=300><img src=""static/images/cards/back_of_black_bolts.svg"" width=""175px"" height=""250px""></img></td>
  </tr>
  <tr height=200>
    <td width=300><img src=""static/images/keys/z.svg"" width=""35%"" height=""75%""></img></td>
    <td width=300></td>
  </tr>
</table>
  ",90.0,,,,,,,,,,,,,,,,,,,,,,,,,1.0,,
79,0,,html-keyboard-response,79,219400,0.0-4.11-2.11,9cdz8r0q26a,2022-09-19 17:58:06.627,62bb42e2f21cfdb280cc975f,2,21,66,34,83,27,Female,,,"
  <table>
  <tr height=300>
    <td width=300 height=300><img src=""static/images/cards/10_of_black_bolts.svg"" width=""175px"" height=""250px""></img></td>
    <td width=300 height=300><img src=""static/images/cards/back_of_black_bolts.svg"" width=""175px"" height=""250px""></img></td>
  </tr>
  <tr height=200>
    <td width=300><img src=""static/images/keys/z.svg"" width=""35%"" height=""75%""></img></td>
    <td width=300></td>
  </tr>
</table>
  ",,,,,,,,,,,,,,,,,,,,,,,,,,,,
80,0,,html-keyboard-response,80,220903,0.0-4.11-3.11,9cdz8r0q26a,2022-09-19 17:58:06.627,62bb42e2f21cfdb280cc975f,2,21,66,34,83,27,Female,,,"<p style=""font-size:50px"">You win!
+10 points this round!</p>",,,,,,,,,,,,,,,,,,,,,,,,,,,,
81,0,,html-keyboard-response,81,221405,0.0-4.11-4.11,9cdz8r0q26a,2022-09-19 17:58:06.627,62bb42e2f21cfdb280cc975f,2,21,66,34,83,27,Female,,,,,1.0,learning,11.0,Xnc,,black,,bolts,,,,Xnc,black,bolts,,0.0,0.0,1,left,641.0,10.0,1.0,1.0,,,,
82,0,,html-keyboard-response,82,222907,0.0-4.12-0.12,9cdz8r0q26a,2022-09-19 17:58:06.627,62bb42e2f21cfdb280cc975f,2,21,66,34,83,27,Female,,,"<img src=""static/images/cards/stack_of_black_stars.svg"" width=""175px"" height=""250px""></img>",,,,,,,,,,,,,,,,,,,,,,,,,,,,
83,0,,html-keyboard-response,83,224054,0.0-4.12-1.12,9cdz8r0q26a,2022-09-19 17:58:06.627,62bb42e2f21cfdb280cc975f,2,21,66,34,83,27,Female,644.0,,"
  <table>
  <tr height=300>
    <td width=300 height=300><img src=""static/images/cards/back_of_black_stars.svg"" width=""175px"" height=""250px""></img></td>
    <td width=300 height=300><img src=""static/images/cards/back_of_black_stars.svg"" width=""175px"" height=""250px""></img></td>
  </tr>
  <tr height=200>
    <td width=300><img src=""static/images/keys/z.svg"" width=""35%"" height=""75%""></img></td>
    <td width=300><img src=""static/images/keys/m.svg"" width=""35%"" height=""75%""></img></td>
  </tr>
</table>
  ",77.0,,,,,,,,,,,,,,,,,,,,,,,,,1.0,,
84,0,,html-keyboard-response,84,225557,0.0-4.12-2.12,9cdz8r0q26a,2022-09-19 17:58:06.627,62bb42e2f21cfdb280cc975f,2,21,66,34,83,27,Female,,,"
  <table>
  <tr height=300>
    <td width=300 height=300><img src=""static/images/cards/back_of_black_stars.svg"" width=""175px"" height=""250px""></img></td>
    <td width=300 height=300><img src=""static/images/cards/8_of_black_stars.svg"" width=""175px"" height=""250px""></img></td>
  </tr>
  <tr height=200>
    <td width=300><img src=""static/images/keys/z.svg"" width=""35%"" height=""75%""></img></td>
    <td width=300><img src=""static/images/keys/m.svg"" width=""35%"" height=""75%""></img></td>
  </tr>
</table>
  ",,,,,,,,,,,,,,,,,,,,,,,,,,,,
85,0,,html-keyboard-response,85,227060,0.0-4.12-3.12,9cdz8r0q26a,2022-09-19 17:58:06.627,62bb42e2f21cfdb280cc975f,2,21,66,34,83,27,Female,,,"<p style=""font-size:50px"">You win!
+10 points this round!</p>",,,,,,,,,,,,,,,,,,,,,,,,,,,,
86,0,,html-keyboard-response,86,227561,0.0-4.12-4.12,9cdz8r0q26a,2022-09-19 17:58:06.627,62bb42e2f21cfdb280cc975f,2,21,66,34,83,27,Female,,,,,1.0,learning,12.0,A,,black,,stars,,,,A,black,stars,,1.0,1.0,NA,right,644.0,8.0,1.0,1.0,,,,
87,0,,html-keyboard-response,87,229064,0.0-4.13-0.13,9cdz8r0q26a,2022-09-19 17:58:06.627,62bb42e2f21cfdb280cc975f,2,21,66,34,83,27,Female,,,"<img src=""static/images/cards/stack_of_red_stars.svg"" width=""175px"" height=""250px""></img>",,,,,,,,,,,,,,,,,,,,,,,,,,,,
88,0,,html-keyboard-response,88,230078,0.0-4.13-1.13,9cdz8r0q26a,2022-09-19 17:58:06.627,62bb42e2f21cfdb280cc975f,2,21,66,34,83,27,Female,512.0,,"
  <table>
  <tr height=300>
    <td width=300 height=300><img src=""static/images/cards/back_of_red_stars.svg"" width=""175px"" height=""250px""></img></td>
    <td width=300 height=300><img src=""static/images/cards/back_of_red_stars.svg"" width=""175px"" height=""250px""></img></td>
  </tr>
  <tr height=200>
    <td width=300><img src=""static/images/keys/z.svg"" width=""35%"" height=""75%""></img></td>
    <td width=300></td>
  </tr>
</table>
  ",90.0,,,,,,,,,,,,,,,,,,,,,,,,,1.0,,
89,0,,html-keyboard-response,89,231581,0.0-4.13-2.13,9cdz8r0q26a,2022-09-19 17:58:06.627,62bb42e2f21cfdb280cc975f,2,21,66,34,83,27,Female,,,"
  <table>
  <tr height=300>
    <td width=300 height=300><img src=""static/images/cards/2_of_red_stars.svg"" width=""175px"" height=""250px""></img></td>
    <td width=300 height=300><img src=""static/images/cards/back_of_red_stars.svg"" width=""175px"" height=""250px""></img></td>
  </tr>
  <tr height=200>
    <td width=300><img src=""static/images/keys/z.svg"" width=""35%"" height=""75%""></img></td>
    <td width=300></td>
  </tr>
</table>
  ",,,,,,,,,,,,,,,,,,,,,,,,,,,,
90,0,,html-keyboard-response,90,233084,0.0-4.13-3.13,9cdz8r0q26a,2022-09-19 17:58:06.627,62bb42e2f21cfdb280cc975f,2,21,66,34,83,27,Female,,,"<p style=""font-size:50px"">You Lose!
No points this round.</p>",,,,,,,,,,,,,,,,,,,,,,,,,,,,
91,0,,html-keyboard-response,91,233586,0.0-4.13-4.13,9cdz8r0q26a,2022-09-19 17:58:06.627,62bb42e2f21cfdb280cc975f,2,21,66,34,83,27,Female,,,,,1.0,learning,13.0,B,,red,,stars,,,,B,red,stars,,0.0,1.0,1,left,512.0,2.0,0.0,0.0,,,,
92,0,,html-keyboard-response,92,235088,0.0-4.14-0.14,9cdz8r0q26a,2022-09-19 17:58:06.627,62bb42e2f21cfdb280cc975f,2,21,66,34,83,27,Female,,,"<img src=""static/images/cards/stack_of_black_moons.svg"" width=""175px"" height=""250px""></img>",,,,,,,,,,,,,,,,,,,,,,,,,,,,
93,0,,html-keyboard-response,93,235606,0.0-4.14-1.14,9cdz8r0q26a,2022-09-19 17:58:06.627,62bb42e2f21cfdb280cc975f,2,21,66,34,83,27,Female,15.0,,"
  <table>
  <tr height=300>
    <td width=300 height=300><img src=""static/images/cards/back_of_black_moons.svg"" width=""175px"" height=""250px""></img></td>
    <td width=300 height=300><img src=""static/images/cards/back_of_black_moons.svg"" width=""175px"" height=""250px""></img></td>
  </tr>
  <tr height=200>
    <td width=300><img src=""static/images/keys/z.svg"" width=""35%"" height=""75%""></img></td>
    <td width=300><img src=""static/images/keys/m.svg"" width=""35%"" height=""75%""></img></td>
  </tr>
</table>
  ",77.0,,,,,,,,,,,,,,,,,,,,,,,,,1.0,,
94,0,,html-keyboard-response,94,237109,0.0-4.14-2.14,9cdz8r0q26a,2022-09-19 17:58:06.627,62bb42e2f21cfdb280cc975f,2,21,66,34,83,27,Female,,,"
  <table>
  <tr height=300>
    <td width=300 height=300><img src=""static/images/cards/back_of_black_moons.svg"" width=""175px"" height=""250px""></img></td>
    <td width=300 height=300><img src=""static/images/cards/2_of_black_moons.svg"" width=""175px"" height=""250px""></img></td>
  </tr>
  <tr height=200>
    <td width=300><img src=""static/images/keys/z.svg"" width=""35%"" height=""75%""></img></td>
    <td width=300><img src=""static/images/keys/m.svg"" width=""35%"" height=""75%""></img></td>
  </tr>
</table>
  ",,,,,,,,,,,,,,,,,,,,,,,,,,,,
95,0,,html-keyboard-response,95,238611,0.0-4.14-3.14,9cdz8r0q26a,2022-09-19 17:58:06.627,62bb42e2f21cfdb280cc975f,2,21,66,34,83,27,Female,,,"<p style=""font-size:50px"">You win!
+10 points this round!</p>",,,,,,,,,,,,,,,,,,,,,,,,,,,,
96,0,,html-keyboard-response,96,239113,0.0-4.14-4.14,9cdz8r0q26a,2022-09-19 17:58:06.627,62bb42e2f21cfdb280cc975f,2,21,66,34,83,27,Female,,,,,1.0,learning,14.0,C,,black,,moons,,,,C,black,moons,,1.0,0.0,NA,right,15.0,2.0,0.0,1.0,,,,
97,0,,html-keyboard-response,97,240615,0.0-4.15-0.15,9cdz8r0q26a,2022-09-19 17:58:06.627,62bb42e2f21cfdb280cc975f,2,21,66,34,83,27,Female,,,"<img src=""static/images/cards/stack_of_red_moons.svg"" width=""175px"" height=""250px""></img>",,,,,,,,,,,,,,,,,,,,,,,,,,,,
98,0,,html-keyboard-response,98,241518,0.0-4.15-1.15,9cdz8r0q26a,2022-09-19 17:58:06.627,62bb42e2f21cfdb280cc975f,2,21,66,34,83,27,Female,401.0,,"
  <table>
  <tr height=300>
    <td width=300 height=300><img src=""static/images/cards/back_of_red_moons.svg"" width=""175px"" height=""250px""></img></td>
    <td width=300 height=300><img src=""static/images/cards/back_of_red_moons.svg"" width=""175px"" height=""250px""></img></td>
  </tr>
  <tr height=200>
    <td width=300><img src=""static/images/keys/z.svg"" width=""35%"" height=""75%""></img></td>
    <td width=300></td>
  </tr>
</table>
  ",90.0,,,,,,,,,,,,,,,,,,,,,,,,,1.0,,
99,0,,html-keyboard-response,99,243020,0.0-4.15-2.15,9cdz8r0q26a,2022-09-19 17:58:06.627,62bb42e2f21cfdb280cc975f,2,21,66,34,83,27,Female,,,"
  <table>
  <tr height=300>
    <td width=300 height=300><img src=""static/images/cards/1_of_red_moons.svg"" width=""175px"" height=""250px""></img></td>
    <td width=300 height=300><img src=""static/images/cards/back_of_red_moons.svg"" width=""175px"" height=""250px""></img></td>
  </tr>
  <tr height=200>
    <td width=300><img src=""static/images/keys/z.svg"" width=""35%"" height=""75%""></img></td>
    <td width=300></td>
  </tr>
</table>
  ",,,,,,,,,,,,,,,,,,,,,,,,,,,,
100,0,,html-keyboard-response,100,244523,0.0-4.15-3.15,9cdz8r0q26a,2022-09-19 17:58:06.627,62bb42e2f21cfdb280cc975f,2,21,66,34,83,27,Female,,,"<p style=""font-size:50px"">You Lose!
No points this round.</p>",,,,,,,,,,,,,,,,,,,,,,,,,,,,
101,0,,html-keyboard-response,101,245025,0.0-4.15-4.15,9cdz8r0q26a,2022-09-19 17:58:06.627,62bb42e2f21cfdb280cc975f,2,21,66,34,83,27,Female,,,,,1.0,learning,15.0,D,,red,,moons,,,,D,red,moons,,0.0,0.0,1,left,401.0,1.0,0.0,0.0,,,,
102,0,,html-keyboard-response,102,246527,0.0-4.16-0.16,9cdz8r0q26a,2022-09-19 17:58:06.627,62bb42e2f21cfdb280cc975f,2,21,66,34,83,27,Female,,,"<img src=""static/images/cards/stack_of_red_bolts.svg"" width=""175px"" height=""250px""></img>",,,,,,,,,,,,,,,,,,,,,,,,,,,,
103,0,,html-keyboard-response,103,247749,0.0-4.16-1.16,9cdz8r0q26a,2022-09-19 17:58:06.627,62bb42e2f21cfdb280cc975f,2,21,66,34,83,27,Female,719.0,,"
  <table>
  <tr height=300>
    <td width=300 height=300><img src=""static/images/cards/back_of_red_bolts.svg"" width=""175px"" height=""250px""></img></td>
    <td width=300 height=300><img src=""static/images/cards/back_of_red_bolts.svg"" width=""175px"" height=""250px""></img></td>
  </tr>
  <tr height=200>
    <td width=300><img src=""static/images/keys/z.svg"" width=""35%"" height=""75%""></img></td>
    <td width=300><img src=""static/images/keys/m.svg"" width=""35%"" height=""75%""></img></td>
  </tr>
</table>
  ",77.0,,,,,,,,,,,,,,,,,,,,,,,,,1.0,,
104,0,,html-keyboard-response,104,249252,0.0-4.16-2.16,9cdz8r0q26a,2022-09-19 17:58:06.627,62bb42e2f21cfdb280cc975f,2,21,66,34,83,27,Female,,,"
  <table>
  <tr height=300>
    <td width=300 height=300><img src=""static/images/cards/back_of_red_bolts.svg"" width=""175px"" height=""250px""></img></td>
    <td width=300 height=300><img src=""static/images/cards/8_of_red_bolts.svg"" width=""175px"" height=""250px""></img></td>
  </tr>
  <tr height=200>
    <td width=300><img src=""static/images/keys/z.svg"" width=""35%"" height=""75%""></img></td>
    <td width=300><img src=""static/images/keys/m.svg"" width=""35%"" height=""75%""></img></td>
  </tr>
</table>
  ",,,,,,,,,,,,,,,,,,,,,,,,,,,,
105,0,,html-keyboard-response,105,250755,0.0-4.16-3.16,9cdz8r0q26a,2022-09-19 17:58:06.627,62bb42e2f21cfdb280cc975f,2,21,66,34,83,27,Female,,,"<p style=""font-size:50px"">You win!
+10 points this round!</p>",,,,,,,,,,,,,,,,,,,,,,,,,,,,
106,0,,html-keyboard-response,106,251257,0.0-4.16-4.16,9cdz8r0q26a,2022-09-19 17:58:06.627,62bb42e2f21cfdb280cc975f,2,21,66,34,83,27,Female,,,,,1.0,learning,16.0,Xc,,red,,bolts,,,,Xc,red,bolts,,1.0,0.0,NA,right,719.0,8.0,1.0,1.0,,,,
107,0,,html-keyboard-response,107,252759,0.0-4.17-0.17,9cdz8r0q26a,2022-09-19 17:58:06.627,62bb42e2f21cfdb280cc975f,2,21,66,34,83,27,Female,,,"<img src=""static/images/cards/stack_of_black_bolts.svg"" width=""175px"" height=""250px""></img>",,,,,,,,,,,,,,,,,,,,,,,,,,,,
108,0,,html-keyboard-response,108,253784,0.0-4.17-1.17,9cdz8r0q26a,2022-09-19 17:58:06.627,62bb42e2f21cfdb280cc975f,2,21,66,34,83,27,Female,522.0000000001,,"
  <table>
  <tr height=300>
    <td width=300 height=300><img src=""static/images/cards/back_of_black_bolts.svg"" width=""175px"" height=""250px""></img></td>
    <td width=300 height=300><img src=""static/images/cards/back_of_black_bolts.svg"" width=""175px"" height=""250px""></img></td>
  </tr>
  <tr height=200>
    <td width=300></td>
    <td width=300><img src=""static/images/keys/m.svg"" width=""35%"" height=""75%""></img></td>
  </tr>
</table>
  ",77.0,,,,,,,,,,,,,,,,,,,,,,,,,1.0,,
109,0,,html-keyboard-response,109,255287,0.0-4.17-2.17,9cdz8r0q26a,2022-09-19 17:58:06.627,62bb42e2f21cfdb280cc975f,2,21,66,34,83,27,Female,,,"
  <table>
  <tr height=300>
    <td width=300 height=300><img src=""static/images/cards/back_of_black_bolts.svg"" width=""175px"" height=""250px""></img></td>
    <td width=300 height=300><img src=""static/images/cards/7_of_black_bolts.svg"" width=""175px"" height=""250px""></img></td>
  </tr>
  <tr height=200>
    <td width=300></td>
    <td width=300><img src=""static/images/keys/m.svg"" width=""35%"" height=""75%""></img></td>
  </tr>
</table>
  ",,,,,,,,,,,,,,,,,,,,,,,,,,,,
110,0,,html-keyboard-response,110,256789,0.0-4.17-3.17,9cdz8r0q26a,2022-09-19 17:58:06.627,62bb42e2f21cfdb280cc975f,2,21,66,34,83,27,Female,,,"<p style=""font-size:50px"">You win!
+10 points this round!</p>",,,,,,,,,,,,,,,,,,,,,,,,,,,,
111,0,,html-keyboard-response,111,257291,0.0-4.17-4.17,9cdz8r0q26a,2022-09-19 17:58:06.627,62bb42e2f21cfdb280cc975f,2,21,66,34,83,27,Female,,,,,1.0,learning,17.0,Xnc,,black,,bolts,,,,Xnc,black,bolts,,0.0,0.0,0,right,522.0000000001,7.0,1.0,1.0,,,,
112,0,,html-keyboard-response,112,258792,0.0-4.18-0.18,9cdz8r0q26a,2022-09-19 17:58:06.627,62bb42e2f21cfdb280cc975f,2,21,66,34,83,27,Female,,,"<img src=""static/images/cards/stack_of_black_stars.svg"" width=""175px"" height=""250px""></img>",,,,,,,,,,,,,,,,,,,,,,,,,,,,
113,0,,html-keyboard-response,113,260022,0.0-4.18-1.18,9cdz8r0q26a,2022-09-19 17:58:06.627,62bb42e2f21cfdb280cc975f,2,21,66,34,83,27,Female,727.0000000001,,"
  <table>
  <tr height=300>
    <td width=300 height=300><img src=""static/images/cards/back_of_black_stars.svg"" width=""175px"" height=""250px""></img></td>
    <td width=300 height=300><img src=""static/images/cards/back_of_black_stars.svg"" width=""175px"" height=""250px""></img></td>
  </tr>
  <tr height=200>
    <td width=300><img src=""static/images/keys/z.svg"" width=""35%"" height=""75%""></img></td>
    <td width=300><img src=""static/images/keys/m.svg"" width=""35%"" height=""75%""></img></td>
  </tr>
</table>
  ",90.0,,,,,,,,,,,,,,,,,,,,,,,,,1.0,,
114,0,,html-keyboard-response,114,261524,0.0-4.18-2.18,9cdz8r0q26a,2022-09-19 17:58:06.627,62bb42e2f21cfdb280cc975f,2,21,66,34,83,27,Female,,,"
  <table>
  <tr height=300>
    <td width=300 height=300><img src=""static/images/cards/6_of_black_stars.svg"" width=""175px"" height=""250px""></img></td>
    <td width=300 height=300><img src=""static/images/cards/back_of_black_stars.svg"" width=""175px"" height=""250px""></img></td>
  </tr>
  <tr height=200>
    <td width=300><img src=""static/images/keys/z.svg"" width=""35%"" height=""75%""></img></td>
    <td width=300><img src=""static/images/keys/m.svg"" width=""35%"" height=""75%""></img></td>
  </tr>
</table>
  ",,,,,,,,,,,,,,,,,,,,,,,,,,,,
115,0,,html-keyboard-response,115,263027,0.0-4.18-3.18,9cdz8r0q26a,2022-09-19 17:58:06.627,62bb42e2f21cfdb280cc975f,2,21,66,34,83,27,Female,,,"<p style=""font-size:50px"">You win!
+10 points this round!</p>",,,,,,,,,,,,,,,,,,,,,,,,,,,,
116,0,,html-keyboard-response,116,263529,0.0-4.18-4.18,9cdz8r0q26a,2022-09-19 17:58:06.627,62bb42e2f21cfdb280cc975f,2,21,66,34,83,27,Female,,,,,1.0,learning,18.0,A,,black,,stars,,,,A,black,stars,,1.0,1.0,NA,left,727.0000000001,6.0,1.0,1.0,,,,
117,0,,html-keyboard-response,117,265031,0.0-4.19-0.19,9cdz8r0q26a,2022-09-19 17:58:06.627,62bb42e2f21cfdb280cc975f,2,21,66,34,83,27,Female,,,"<img src=""static/images/cards/stack_of_red_stars.svg"" width=""175px"" height=""250px""></img>",,,,,,,,,,,,,,,,,,,,,,,,,,,,
118,0,,html-keyboard-response,118,265885,0.0-4.19-1.19,9cdz8r0q26a,2022-09-19 17:58:06.627,62bb42e2f21cfdb280cc975f,2,21,66,34,83,27,Female,353.0,,"
  <table>
  <tr height=300>
    <td width=300 height=300><img src=""static/images/cards/back_of_red_stars.svg"" width=""175px"" height=""250px""></img></td>
    <td width=300 height=300><img src=""static/images/cards/back_of_red_stars.svg"" width=""175px"" height=""250px""></img></td>
  </tr>
  <tr height=200>
    <td width=300></td>
    <td width=300><img src=""static/images/keys/m.svg"" width=""35%"" height=""75%""></img></td>
  </tr>
</table>
  ",77.0,,,,,,,,,,,,,,,,,,,,,,,,,1.0,,
119,0,,html-keyboard-response,119,267388,0.0-4.19-2.19,9cdz8r0q26a,2022-09-19 17:58:06.627,62bb42e2f21cfdb280cc975f,2,21,66,34,83,27,Female,,,"
  <table>
  <tr height=300>
    <td width=300 height=300><img src=""static/images/cards/back_of_red_stars.svg"" width=""175px"" height=""250px""></img></td>
    <td width=300 height=300><img src=""static/images/cards/6_of_red_stars.svg"" width=""175px"" height=""250px""></img></td>
  </tr>
  <tr height=200>
    <td width=300></td>
    <td width=300><img src=""static/images/keys/m.svg"" width=""35%"" height=""75%""></img></td>
  </tr>
</table>
  ",,,,,,,,,,,,,,,,,,,,,,,,,,,,
120,0,,html-keyboard-response,120,268891,0.0-4.19-3.19,9cdz8r0q26a,2022-09-19 17:58:06.627,62bb42e2f21cfdb280cc975f,2,21,66,34,83,27,Female,,,"<p style=""font-size:50px"">You win!
+10 points this round!</p>",,,,,,,,,,,,,,,,,,,,,,,,,,,,
121,0,,html-keyboard-response,121,269393,0.0-4.19-4.19,9cdz8r0q26a,2022-09-19 17:58:06.627,62bb42e2f21cfdb280cc975f,2,21,66,34,83,27,Female,,,,,1.0,learning,19.0,B,,red,,stars,,,,B,red,stars,,0.0,1.0,0,right,353.0,6.0,1.0,1.0,,,,
122,0,,html-keyboard-response,122,270895,0.0-4.20-0.20,9cdz8r0q26a,2022-09-19 17:58:06.627,62bb42e2f21cfdb280cc975f,2,21,66,34,83,27,Female,,,"<img src=""static/images/cards/stack_of_black_moons.svg"" width=""175px"" height=""250px""></img>",,,,,,,,,,,,,,,,,,,,,,,,,,,,
123,0,,html-keyboard-response,123,271888,0.0-4.20-1.20,9cdz8r0q26a,2022-09-19 17:58:06.627,62bb42e2f21cfdb280cc975f,2,21,66,34,83,27,Female,490.0,,"
  <table>
  <tr height=300>
    <td width=300 height=300><img src=""static/images/cards/back_of_black_moons.svg"" width=""175px"" height=""250px""></img></td>
    <td width=300 height=300><img src=""static/images/cards/back_of_black_moons.svg"" width=""175px"" height=""250px""></img></td>
  </tr>
  <tr height=200>
    <td width=300><img src=""static/images/keys/z.svg"" width=""35%"" height=""75%""></img></td>
    <td width=300><img src=""static/images/keys/m.svg"" width=""35%"" height=""75%""></img></td>
  </tr>
</table>
  ",77.0,,,,,,,,,,,,,,,,,,,,,,,,,1.0,,
124,0,,html-keyboard-response,124,273390,0.0-4.20-2.20,9cdz8r0q26a,2022-09-19 17:58:06.627,62bb42e2f21cfdb280cc975f,2,21,66,34,83,27,Female,,,"
  <table>
  <tr height=300>
    <td width=300 height=300><img src=""static/images/cards/back_of_black_moons.svg"" width=""175px"" height=""250px""></img></td>
    <td width=300 height=300><img src=""static/images/cards/6_of_black_moons.svg"" width=""175px"" height=""250px""></img></td>
  </tr>
  <tr height=200>
    <td width=300><img src=""static/images/keys/z.svg"" width=""35%"" height=""75%""></img></td>
    <td width=300><img src=""static/images/keys/m.svg"" width=""35%"" height=""75%""></img></td>
  </tr>
</table>
  ",,,,,,,,,,,,,,,,,,,,,,,,,,,,
125,0,,html-keyboard-response,125,274893,0.0-4.20-3.20,9cdz8r0q26a,2022-09-19 17:58:06.627,62bb42e2f21cfdb280cc975f,2,21,66,34,83,27,Female,,,"<p style=""font-size:50px"">You win!
+10 points this round!</p>",,,,,,,,,,,,,,,,,,,,,,,,,,,,
126,0,,html-keyboard-response,126,275394,0.0-4.20-4.20,9cdz8r0q26a,2022-09-19 17:58:06.627,62bb42e2f21cfdb280cc975f,2,21,66,34,83,27,Female,,,,,1.0,learning,20.0,C,,black,,moons,,,,C,black,moons,,1.0,0.0,NA,right,490.0,6.0,1.0,1.0,,,,
127,0,,html-keyboard-response,127,276896,0.0-4.21-0.21,9cdz8r0q26a,2022-09-19 17:58:06.627,62bb42e2f21cfdb280cc975f,2,21,66,34,83,27,Female,,,"<img src=""static/images/cards/stack_of_red_moons.svg"" width=""175px"" height=""250px""></img>",,,,,,,,,,,,,,,,,,,,,,,,,,,,
128,0,,html-keyboard-response,128,277805,0.0-4.21-1.21,9cdz8r0q26a,2022-09-19 17:58:06.627,62bb42e2f21cfdb280cc975f,2,21,66,34,83,27,Female,406.0,,"
  <table>
  <tr height=300>
    <td width=300 height=300><img src=""static/images/cards/back_of_red_moons.svg"" width=""175px"" height=""250px""></img></td>
    <td width=300 height=300><img src=""static/images/cards/back_of_red_moons.svg"" width=""175px"" height=""250px""></img></td>
  </tr>
  <tr height=200>
    <td width=300></td>
    <td width=300><img src=""static/images/keys/m.svg"" width=""35%"" height=""75%""></img></td>
  </tr>
</table>
  ",77.0,,,,,,,,,,,,,,,,,,,,,,,,,1.0,,
129,0,,html-keyboard-response,129,279308,0.0-4.21-2.21,9cdz8r0q26a,2022-09-19 17:58:06.627,62bb42e2f21cfdb280cc975f,2,21,66,34,83,27,Female,,,"
  <table>
  <tr height=300>
    <td width=300 height=300><img src=""static/images/cards/back_of_red_moons.svg"" width=""175px"" height=""250px""></img></td>
    <td width=300 height=300><img src=""static/images/cards/10_of_red_moons.svg"" width=""175px"" height=""250px""></img></td>
  </tr>
  <tr height=200>
    <td width=300></td>
    <td width=300><img src=""static/images/keys/m.svg"" width=""35%"" height=""75%""></img></td>
  </tr>
</table>
  ",,,,,,,,,,,,,,,,,,,,,,,,,,,,
130,0,,html-keyboard-response,130,280810,0.0-4.21-3.21,9cdz8r0q26a,2022-09-19 17:58:06.627,62bb42e2f21cfdb280cc975f,2,21,66,34,83,27,Female,,,"<p style=""font-size:50px"">You win!
+10 points this round!</p>",,,,,,,,,,,,,,,,,,,,,,,,,,,,
131,0,,html-keyboard-response,131,281312,0.0-4.21-4.21,9cdz8r0q26a,2022-09-19 17:58:06.627,62bb42e2f21cfdb280cc975f,2,21,66,34,83,27,Female,,,,,1.0,learning,21.0,D,,red,,moons,,,,D,red,moons,,0.0,0.0,0,right,406.0,10.0,1.0,1.0,,,,
132,0,,html-keyboard-response,132,282815,0.0-4.22-0.22,9cdz8r0q26a,2022-09-19 17:58:06.627,62bb42e2f21cfdb280cc975f,2,21,66,34,83,27,Female,,,"<img src=""static/images/cards/stack_of_red_bolts.svg"" width=""175px"" height=""250px""></img>",,,,,,,,,,,,,,,,,,,,,,,,,,,,
133,0,,html-keyboard-response,133,284245,0.0-4.22-1.22,9cdz8r0q26a,2022-09-19 17:58:06.627,62bb42e2f21cfdb280cc975f,2,21,66,34,83,27,Female,927.0,,"
  <table>
  <tr height=300>
    <td width=300 height=300><img src=""static/images/cards/back_of_red_bolts.svg"" width=""175px"" height=""250px""></img></td>
    <td width=300 height=300><img src=""static/images/cards/back_of_red_bolts.svg"" width=""175px"" height=""250px""></img></td>
  </tr>
  <tr height=200>
    <td width=300><img src=""static/images/keys/z.svg"" width=""35%"" height=""75%""></img></td>
    <td width=300><img src=""static/images/keys/m.svg"" width=""35%"" height=""75%""></img></td>
  </tr>
</table>
  ",90.0,,,,,,,,,,,,,,,,,,,,,,,,,1.0,,
134,0,,html-keyboard-response,134,285748,0.0-4.22-2.22,9cdz8r0q26a,2022-09-19 17:58:06.627,62bb42e2f21cfdb280cc975f,2,21,66,34,83,27,Female,,,"
  <table>
  <tr height=300>
    <td width=300 height=300><img src=""static/images/cards/8_of_red_bolts.svg"" width=""175px"" height=""250px""></img></td>
    <td width=300 height=300><img src=""static/images/cards/back_of_red_bolts.svg"" width=""175px"" height=""250px""></img></td>
  </tr>
  <tr height=200>
    <td width=300><img src=""static/images/keys/z.svg"" width=""35%"" height=""75%""></img></td>
    <td width=300><img src=""static/images/keys/m.svg"" width=""35%"" height=""75%""></img></td>
  </tr>
</table>
  ",,,,,,,,,,,,,,,,,,,,,,,,,,,,
135,0,,html-keyboard-response,135,287251,0.0-4.22-3.22,9cdz8r0q26a,2022-09-19 17:58:06.627,62bb42e2f21cfdb280cc975f,2,21,66,34,83,27,Female,,,"<p style=""font-size:50px"">You win!
+10 points this round!</p>",,,,,,,,,,,,,,,,,,,,,,,,,,,,
136,0,,html-keyboard-response,136,287752,0.0-4.22-4.22,9cdz8r0q26a,2022-09-19 17:58:06.627,62bb42e2f21cfdb280cc975f,2,21,66,34,83,27,Female,,,,,1.0,learning,22.0,Xc,,red,,bolts,,,,Xc,red,bolts,,1.0,0.0,NA,left,927.0,8.0,1.0,1.0,,,,
137,0,,html-keyboard-response,137,289254,0.0-4.23-0.23,9cdz8r0q26a,2022-09-19 17:58:06.627,62bb42e2f21cfdb280cc975f,2,21,66,34,83,27,Female,,,"<img src=""static/images/cards/stack_of_black_bolts.svg"" width=""175px"" height=""250px""></img>",,,,,,,,,,,,,,,,,,,,,,,,,,,,
138,0,,html-keyboard-response,138,290261,0.0-4.23-1.23,9cdz8r0q26a,2022-09-19 17:58:06.627,62bb42e2f21cfdb280cc975f,2,21,66,34,83,27,Female,504.0,,"
  <table>
  <tr height=300>
    <td width=300 height=300><img src=""static/images/cards/back_of_black_bolts.svg"" width=""175px"" height=""250px""></img></td>
    <td width=300 height=300><img src=""static/images/cards/back_of_black_bolts.svg"" width=""175px"" height=""250px""></img></td>
  </tr>
  <tr height=200>
    <td width=300></td>
    <td width=300><img src=""static/images/keys/m.svg"" width=""35%"" height=""75%""></img></td>
  </tr>
</table>
  ",77.0,,,,,,,,,,,,,,,,,,,,,,,,,1.0,,
139,0,,html-keyboard-response,139,291764,0.0-4.23-2.23,9cdz8r0q26a,2022-09-19 17:58:06.627,62bb42e2f21cfdb280cc975f,2,21,66,34,83,27,Female,,,"
  <table>
  <tr height=300>
    <td width=300 height=300><img src=""static/images/cards/back_of_black_bolts.svg"" width=""175px"" height=""250px""></img></td>
    <td width=300 height=300><img src=""static/images/cards/1_of_black_bolts.svg"" width=""175px"" height=""250px""></img></td>
  </tr>
  <tr height=200>
    <td width=300></td>
    <td width=300><img src=""static/images/keys/m.svg"" width=""35%"" height=""75%""></img></td>
  </tr>
</table>
  ",,,,,,,,,,,,,,,,,,,,,,,,,,,,
140,0,,html-keyboard-response,140,293266,0.0-4.23-3.23,9cdz8r0q26a,2022-09-19 17:58:06.627,62bb42e2f21cfdb280cc975f,2,21,66,34,83,27,Female,,,"<p style=""font-size:50px"">You win!
+10 points this round!</p>",,,,,,,,,,,,,,,,,,,,,,,,,,,,
141,0,,html-keyboard-response,141,293768,0.0-4.23-4.23,9cdz8r0q26a,2022-09-19 17:58:06.627,62bb42e2f21cfdb280cc975f,2,21,66,34,83,27,Female,,,,,1.0,learning,23.0,Xnc,,black,,bolts,,,,Xnc,black,bolts,,0.0,0.0,0,right,504.0,1.0,0.0,1.0,,,,
142,0,,call-function,142,293775,0.0-5.0,9cdz8r0q26a,2022-09-19 17:58:06.627,62bb42e2f21cfdb280cc975f,2,21,66,34,83,27,Female,,,,,,,,,,,,,,,,,,,,,,,,,,,,,,,
143,0,,image-keyboard-response,143,298388,0.0-6.0-0.0,9cdz8r0q26a,2022-09-19 17:58:06.627,62bb42e2f21cfdb280cc975f,2,21,66,34,83,27,Female,4613.0,,static/images/instructions_CB_2/Slide20.png,39.0,,,,,,,,,,,,,,,,,,,,,,,,,,,
144,0,,image-keyboard-response,144,308886,0.0-6.1-0.1,9cdz8r0q26a,2022-09-19 17:58:06.627,62bb42e2f21cfdb280cc975f,2,21,66,34,83,27,Female,10497.0,,static/images/instructions_CB_2/Slide21.png,39.0,,,,,,,,,,,,,,,,,,,,,,,,,,,
145,0,,image-keyboard-response,145,342315,0.0-6.2-0.2,9cdz8r0q26a,2022-09-19 17:58:06.627,62bb42e2f21cfdb280cc975f,2,21,66,34,83,27,Female,33428.0,,static/images/instructions_CB_2/Slide22.png,39.0,,,,,,,,,,,,,,,,,,,,,,,,,,,
146,0,,image-keyboard-response,146,342510,0.0-6.3-0.3,9cdz8r0q26a,2022-09-19 17:58:06.627,62bb42e2f21cfdb280cc975f,2,21,66,34,83,27,Female,194.0,,static/images/instructions_CB_2/Slide23.png,39.0,,,,,,,,,,,,,,,,,,,,,,,,,,,
147,0,,image-keyboard-response,147,343251,0.0-6.4-0.4,9cdz8r0q26a,2022-09-19 17:58:06.627,62bb42e2f21cfdb280cc975f,2,21,66,34,83,27,Female,740.0,,static/images/instructions_CB_2/Slide24.png,37.0,,,,,,,,,,,,,,,,,,,,,,,,,,,
148,0,,image-keyboard-response,148,358261,0.0-6.5-0.5,9cdz8r0q26a,2022-09-19 17:58:06.627,62bb42e2f21cfdb280cc975f,2,21,66,34,83,27,Female,15008.9999999999,,static/images/instructions_CB_2/Slide23.png,39.0,,,,,,,,,,,,,,,,,,,,,,,,,,,
149,0,,image-keyboard-response,149,360848,0.0-6.6-0.6,9cdz8r0q26a,2022-09-19 17:58:06.627,62bb42e2f21cfdb280cc975f,2,21,66,34,83,27,Female,2585.0,,static/images/instructions_CB_2/Slide24.png,39.0,,,,,,,,,,,,,,,,,,,,,,,,,,,
150,0,,html-keyboard-response,150,363510,0.0-7.0-0.0,9cdz8r0q26a,2022-09-19 17:58:06.627,62bb42e2f21cfdb280cc975f,2,21,66,34,83,27,Female,2659.0,,"
  <table>
  <tr height=300>
    <td width=300 height=300><img src=""static/images/cards/stack_of_black_moons.svg"" width=""175px"" height=""250px""></img></td>
    <td width=300 height=300><img src=""static/images/cards/stack_of_red_stars.svg"" width=""175px"" height=""250px""></img></td>
  </tr>
  <tr height=200>
    <td width=300><img src=""static/images/keys/w.svg"" width=""35%"" height=""75%""></img></td>
    <td width=300><img src=""static/images/keys/o.svg"" width=""35%"" height=""75%""></img></td>
  </tr>
</table>
  ",87.0,,,,,,,,,,,,,,,,,,,,,,,,,1.0,,
151,0,,html-keyboard-response,151,365790,0.0-7.0-1.0,9cdz8r0q26a,2022-09-19 17:58:06.627,62bb42e2f21cfdb280cc975f,2,21,66,34,83,27,Female,1777.0,,"
  <table>
  <tr height=300>
    <td width=300 height=300><img src=""static/images/cards/back_of_black_moons.svg"" width=""175px"" height=""250px""></img></td>
    <td width=300 height=300><img src=""static/images/cards/back_of_black_moons.svg"" width=""175px"" height=""250px""></img></td>
  </tr>
  <tr height=200>
    <td width=300><img src=""static/images/keys/z.svg"" width=""35%"" height=""75%""></img></td>
    <td width=300><img src=""static/images/keys/m.svg"" width=""35%"" height=""75%""></img></td>
  </tr>
</table>
  ",90.0,,,,,,,,,,,,,,,,,,,,,,,,,1.0,,
152,0,,html-keyboard-response,152,367293,0.0-7.0-2.0,9cdz8r0q26a,2022-09-19 17:58:06.627,62bb42e2f21cfdb280cc975f,2,21,66,34,83,27,Female,,,"
  <table>
  <tr height=300>
    <td width=300 height=300><img src=""static/images/cards/1_of_black_moons.svg"" width=""175px"" height=""250px""></img></td>
    <td width=300 height=300><img src=""static/images/cards/back_of_black_moons.svg"" width=""175px"" height=""250px""></img></td>
  </tr>
  <tr height=200>
    <td width=300><img src=""static/images/keys/z.svg"" width=""35%"" height=""75%""></img></td>
    <td width=300><img src=""static/images/keys/m.svg"" width=""35%"" height=""75%""></img></td>
  </tr>
</table>
  ",,,,,,,,,,,,,,,,,,,,,,,,,,,,
153,0,,html-keyboard-response,153,368796,0.0-7.0-3.0,9cdz8r0q26a,2022-09-19 17:58:06.627,62bb42e2f21cfdb280cc975f,2,21,66,34,83,27,Female,,,"<p style=""font-size:50px"">You Lose!
No points this round.</p>",,,,,,,,,,,,,,,,,,,,,,,,,,,,
154,0,,html-keyboard-response,154,369297,0.0-7.0-4.0,9cdz8r0q26a,2022-09-19 17:58:06.627,62bb42e2f21cfdb280cc975f,2,21,66,34,83,27,Female,,,,,1.0,choice,0.0,B,C,black,red,moons,stars,C,B,C,black,moons,2659.0,1.0,0.0,NA,left,1777.0,1.0,0.0,0.0,,,,
155,0,,html-keyboard-response,155,372294,0.0-7.1-0.1,9cdz8r0q26a,2022-09-19 17:58:06.627,62bb42e2f21cfdb280cc975f,2,21,66,34,83,27,Female,2995.0000000001,,"
  <table>
  <tr height=300>
    <td width=300 height=300><img src=""static/images/cards/stack_of_red_moons.svg"" width=""175px"" height=""250px""></img></td>
    <td width=300 height=300><img src=""static/images/cards/stack_of_black_stars.svg"" width=""175px"" height=""250px""></img></td>
  </tr>
  <tr height=200>
    <td width=300><img src=""static/images/keys/w.svg"" width=""35%"" height=""75%""></img></td>
    <td width=300><img src=""static/images/keys/o.svg"" width=""35%"" height=""75%""></img></td>
  </tr>
</table>
  ",79.0,,,,,,,,,,,,,,,,,,,,,,,,,2.0,,
156,0,,html-keyboard-response,156,375517,0.0-7.1-1.1,9cdz8r0q26a,2022-09-19 17:58:06.627,62bb42e2f21cfdb280cc975f,2,21,66,34,83,27,Female,2720.0,,"
  <table>
  <tr height=300>
    <td width=300 height=300><img src=""static/images/cards/back_of_black_stars.svg"" width=""175px"" height=""250px""></img></td>
    <td width=300 height=300><img src=""static/images/cards/back_of_black_stars.svg"" width=""175px"" height=""250px""></img></td>
  </tr>
  <tr height=200>
    <td width=300><img src=""static/images/keys/z.svg"" width=""35%"" height=""75%""></img></td>
    <td width=300><img src=""static/images/keys/m.svg"" width=""35%"" height=""75%""></img></td>
  </tr>
</table>
  ",90.0,,,,,,,,,,,,,,,,,,,,,,,,,1.0,,
157,0,,html-keyboard-response,157,377021,0.0-7.1-2.1,9cdz8r0q26a,2022-09-19 17:58:06.627,62bb42e2f21cfdb280cc975f,2,21,66,34,83,27,Female,,,"
  <table>
  <tr height=300>
    <td width=300 height=300><img src=""static/images/cards/6_of_black_stars.svg"" width=""175px"" height=""250px""></img></td>
    <td width=300 height=300><img src=""static/images/cards/back_of_black_stars.svg"" width=""175px"" height=""250px""></img></td>
  </tr>
  <tr height=200>
    <td width=300><img src=""static/images/keys/z.svg"" width=""35%"" height=""75%""></img></td>
    <td width=300><img src=""static/images/keys/m.svg"" width=""35%"" height=""75%""></img></td>
  </tr>
</table>
  ",,,,,,,,,,,,,,,,,,,,,,,,,,,,
158,0,,html-keyboard-response,158,378524,0.0-7.1-3.1,9cdz8r0q26a,2022-09-19 17:58:06.627,62bb42e2f21cfdb280cc975f,2,21,66,34,83,27,Female,,,"<p style=""font-size:50px"">You win!
+10 points this round!</p>",,,,,,,,,,,,,,,,,,,,,,,,,,,,
159,0,,html-keyboard-response,159,379025,0.0-7.1-4.1,9cdz8r0q26a,2022-09-19 17:58:06.627,62bb42e2f21cfdb280cc975f,2,21,66,34,83,27,Female,,,,,1.0,choice,1.0,A,D,red,black,moons,stars,D,A,A,black,stars,2995.0000000001,1.0,1.0,NA,left,2720.0,6.0,1.0,1.0,,,,
160,0,,html-keyboard-response,160,381373,0.0-7.2-0.2,9cdz8r0q26a,2022-09-19 17:58:06.627,62bb42e2f21cfdb280cc975f,2,21,66,34,83,27,Female,2346.0,,"
  <table>
  <tr height=300>
    <td width=300 height=300><img src=""static/images/cards/stack_of_red_moons.svg"" width=""175px"" height=""250px""></img></td>
    <td width=300 height=300><img src=""static/images/cards/stack_of_red_stars.svg"" width=""175px"" height=""250px""></img></td>
  </tr>
  <tr height=200>
    <td width=300><img src=""static/images/keys/w.svg"" width=""35%"" height=""75%""></img></td>
    <td width=300><img src=""static/images/keys/o.svg"" width=""35%"" height=""75%""></img></td>
  </tr>
</table>
  ",79.0,,,,,,,,,,,,,,,,,,,,,,,,,1.0,,
161,0,,html-keyboard-response,161,383325,0.0-7.2-1.2,9cdz8r0q26a,2022-09-19 17:58:06.627,62bb42e2f21cfdb280cc975f,2,21,66,34,83,27,Female,1447.9999999999,,"
  <table>
  <tr height=300>
    <td width=300 height=300><img src=""static/images/cards/back_of_red_stars.svg"" width=""175px"" height=""250px""></img></td>
    <td width=300 height=300><img src=""static/images/cards/back_of_red_stars.svg"" width=""175px"" height=""250px""></img></td>
  </tr>
  <tr height=200>
    <td width=300><img src=""static/images/keys/z.svg"" width=""35%"" height=""75%""></img></td>
    <td width=300></td>
  </tr>
</table>
  ",90.0,,,,,,,,,,,,,,,,,,,,,,,,,1.0,,
162,0,,html-keyboard-response,162,384829,0.0-7.2-2.2,9cdz8r0q26a,2022-09-19 17:58:06.627,62bb42e2f21cfdb280cc975f,2,21,66,34,83,27,Female,,,"
  <table>
  <tr height=300>
    <td width=300 height=300><img src=""static/images/cards/4_of_red_stars.svg"" width=""175px"" height=""250px""></img></td>
    <td width=300 height=300><img src=""static/images/cards/back_of_red_stars.svg"" width=""175px"" height=""250px""></img></td>
  </tr>
  <tr height=200>
    <td width=300><img src=""static/images/keys/z.svg"" width=""35%"" height=""75%""></img></td>
    <td width=300></td>
  </tr>
</table>
  ",,,,,,,,,,,,,,,,,,,,,,,,,,,,
163,0,,html-keyboard-response,163,386330,0.0-7.2-3.2,9cdz8r0q26a,2022-09-19 17:58:06.627,62bb42e2f21cfdb280cc975f,2,21,66,34,83,27,Female,,,"<p style=""font-size:50px"">You Lose!
No points this round.</p>",,,,,,,,,,,,,,,,,,,,,,,,,,,,
164,0,,html-keyboard-response,164,386832,0.0-7.2-4.2,9cdz8r0q26a,2022-09-19 17:58:06.627,62bb42e2f21cfdb280cc975f,2,21,66,34,83,27,Female,,,,,1.0,choice,2.0,B,D,red,red,moons,stars,D,B,B,red,stars,2346.0,0.0,1.0,1,left,1447.9999999999,4.0,0.0,0.0,,,,
165,0,,html-keyboard-response,165,389853,0.0-7.3-0.3,9cdz8r0q26a,2022-09-19 17:58:06.627,62bb42e2f21cfdb280cc975f,2,21,66,34,83,27,Female,3019.0000000001,,"
  <table>
  <tr height=300>
    <td width=300 height=300><img src=""static/images/cards/stack_of_red_moons.svg"" width=""175px"" height=""250px""></img></td>
    <td width=300 height=300><img src=""static/images/cards/stack_of_red_stars.svg"" width=""175px"" height=""250px""></img></td>
  </tr>
  <tr height=200>
    <td width=300><img src=""static/images/keys/w.svg"" width=""35%"" height=""75%""></img></td>
    <td width=300><img src=""static/images/keys/o.svg"" width=""35%"" height=""75%""></img></td>
  </tr>
</table>
  ",79.0,,,,,,,,,,,,,,,,,,,,,,,,,1.0,,
166,0,,html-keyboard-response,166,392077,0.0-7.3-1.3,9cdz8r0q26a,2022-09-19 17:58:06.627,62bb42e2f21cfdb280cc975f,2,21,66,34,83,27,Female,1721.0,,"
  <table>
  <tr height=300>
    <td width=300 height=300><img src=""static/images/cards/back_of_red_stars.svg"" width=""175px"" height=""250px""></img></td>
    <td width=300 height=300><img src=""static/images/cards/back_of_red_stars.svg"" width=""175px"" height=""250px""></img></td>
  </tr>
  <tr height=200>
    <td width=300><img src=""static/images/keys/z.svg"" width=""35%"" height=""75%""></img></td>
    <td width=300></td>
  </tr>
</table>
  ",90.0,,,,,,,,,,,,,,,,,,,,,,,,,2.0,,
167,0,,html-keyboard-response,167,393579,0.0-7.3-2.3,9cdz8r0q26a,2022-09-19 17:58:06.627,62bb42e2f21cfdb280cc975f,2,21,66,34,83,27,Female,,,"
  <table>
  <tr height=300>
    <td width=300 height=300><img src=""static/images/cards/9_of_red_stars.svg"" width=""175px"" height=""250px""></img></td>
    <td width=300 height=300><img src=""static/images/cards/back_of_red_stars.svg"" width=""175px"" height=""250px""></img></td>
  </tr>
  <tr height=200>
    <td width=300><img src=""static/images/keys/z.svg"" width=""35%"" height=""75%""></img></td>
    <td width=300></td>
  </tr>
</table>
  ",,,,,,,,,,,,,,,,,,,,,,,,,,,,
168,0,,html-keyboard-response,168,395082,0.0-7.3-3.3,9cdz8r0q26a,2022-09-19 17:58:06.627,62bb42e2f21cfdb280cc975f,2,21,66,34,83,27,Female,,,"<p style=""font-size:50px"">You win!
+10 points this round!</p>",,,,,,,,,,,,,,,,,,,,,,,,,,,,
169,0,,html-keyboard-response,169,395584,0.0-7.3-4.3,9cdz8r0q26a,2022-09-19 17:58:06.627,62bb42e2f21cfdb280cc975f,2,21,66,34,83,27,Female,,,,,1.0,choice,3.0,B,D,red,red,moons,stars,D,B,B,red,stars,3019.0000000001,0.0,1.0,1,left,1721.0,9.0,1.0,1.0,,,,
170,0,,html-keyboard-response,170,396405,0.0-7.4-0.4,9cdz8r0q26a,2022-09-19 17:58:06.627,62bb42e2f21cfdb280cc975f,2,21,66,34,83,27,Female,820.0,,"
  <table>
  <tr height=300>
    <td width=300 height=300><img src=""static/images/cards/stack_of_red_stars.svg"" width=""175px"" height=""250px""></img></td>
    <td width=300 height=300><img src=""static/images/cards/stack_of_black_stars.svg"" width=""175px"" height=""250px""></img></td>
  </tr>
  <tr height=200>
    <td width=300><img src=""static/images/keys/w.svg"" width=""35%"" height=""75%""></img></td>
    <td width=300><img src=""static/images/keys/o.svg"" width=""35%"" height=""75%""></img></td>
  </tr>
</table>
  ",79.0,,,,,,,,,,,,,,,,,,,,,,,,,1.0,,
171,0,,html-keyboard-response,171,399909,0.0-7.4-1.4,9cdz8r0q26a,2022-09-19 17:58:06.627,62bb42e2f21cfdb280cc975f,2,21,66,34,83,27,Female,,,"
  <table>
  <tr height=300>
    <td width=300 height=300><img src=""static/images/cards/back_of_black_stars.svg"" width=""175px"" height=""250px""></img></td>
    <td width=300 height=300><img src=""static/images/cards/back_of_black_stars.svg"" width=""175px"" height=""250px""></img></td>
  </tr>
  <tr height=200>
    <td width=300><img src=""static/images/keys/z.svg"" width=""35%"" height=""75%""></img></td>
    <td width=300><img src=""static/images/keys/m.svg"" width=""35%"" height=""75%""></img></td>
  </tr>
</table>
  ",,,,,,,,,,,,,,,,,,,,,,,,,,,,
172,0,,html-keyboard-response,172,399909,0.0-7.4-2.4,9cdz8r0q26a,2022-09-19 17:58:06.627,62bb42e2f21cfdb280cc975f,2,21,66,34,83,27,Female,,,,,,,,,,,,,,,,,,,,,,,,,,,,,,,
173,0,,html-keyboard-response,173,401412,0.0-7.4-3.4,9cdz8r0q26a,2022-09-19 17:58:06.627,62bb42e2f21cfdb280cc975f,2,21,66,34,83,27,Female,,,"<p style=""font-size:50px"">Too slow!</p>",,,,,,,,,,,,,,,,,,,,,,,,,,,,
174,0,,html-keyboard-response,174,401914,0.0-7.4-4.4,9cdz8r0q26a,2022-09-19 17:58:06.627,62bb42e2f21cfdb280cc975f,2,21,66,34,83,27,Female,,,,,1.0,choice,4.0,A,B,red,black,stars,stars,B,A,A,black,stars,820.0,1.0,1.0,NA,,,9.0,1.0,1.0,,,,
175,0,,html-keyboard-response,175,402813,0.0-7.5-0.5,9cdz8r0q26a,2022-09-19 17:58:06.627,62bb42e2f21cfdb280cc975f,2,21,66,34,83,27,Female,897.0,,"
  <table>
  <tr height=300>
    <td width=300 height=300><img src=""static/images/cards/stack_of_red_moons.svg"" width=""175px"" height=""250px""></img></td>
    <td width=300 height=300><img src=""static/images/cards/stack_of_black_moons.svg"" width=""175px"" height=""250px""></img></td>
  </tr>
  <tr height=200>
    <td width=300><img src=""static/images/keys/w.svg"" width=""35%"" height=""75%""></img></td>
    <td width=300><img src=""static/images/keys/o.svg"" width=""35%"" height=""75%""></img></td>
  </tr>
</table>
  ",79.0,,,,,,,,,,,,,,,,,,,,,,,,,1.0,,
176,0,,html-keyboard-response,176,404397,0.0-7.5-1.5,9cdz8r0q26a,2022-09-19 17:58:06.627,62bb42e2f21cfdb280cc975f,2,21,66,34,83,27,Female,1079.9999999999,,"
  <table>
  <tr height=300>
    <td width=300 height=300><img src=""static/images/cards/back_of_black_moons.svg"" width=""175px"" height=""250px""></img></td>
    <td width=300 height=300><img src=""static/images/cards/back_of_black_moons.svg"" width=""175px"" height=""250px""></img></td>
  </tr>
  <tr height=200>
    <td width=300><img src=""static/images/keys/z.svg"" width=""35%"" height=""75%""></img></td>
    <td width=300><img src=""static/images/keys/m.svg"" width=""35%"" height=""75%""></img></td>
  </tr>
</table>
  ",77.0,,,,,,,,,,,,,,,,,,,,,,,,,1.0,,
177,0,,html-keyboard-response,177,405900,0.0-7.5-2.5,9cdz8r0q26a,2022-09-19 17:58:06.627,62bb42e2f21cfdb280cc975f,2,21,66,34,83,27,Female,,,"
  <table>
  <tr height=300>
    <td width=300 height=300><img src=""static/images/cards/back_of_black_moons.svg"" width=""175px"" height=""250px""></img></td>
    <td width=300 height=300><img src=""static/images/cards/4_of_black_moons.svg"" width=""175px"" height=""250px""></img></td>
  </tr>
  <tr height=200>
    <td width=300><img src=""static/images/keys/z.svg"" width=""35%"" height=""75%""></img></td>
    <td width=300><img src=""static/images/keys/m.svg"" width=""35%"" height=""75%""></img></td>
  </tr>
</table>
  ",,,,,,,,,,,,,,,,,,,,,,,,,,,,
178,0,,html-keyboard-response,178,407402,0.0-7.5-3.5,9cdz8r0q26a,2022-09-19 17:58:06.627,62bb42e2f21cfdb280cc975f,2,21,66,34,83,27,Female,,,"<p style=""font-size:50px"">You Lose!
No points this round.</p>",,,,,,,,,,,,,,,,,,,,,,,,,,,,
179,0,,html-keyboard-response,179,407904,0.0-7.5-4.5,9cdz8r0q26a,2022-09-19 17:58:06.627,62bb42e2f21cfdb280cc975f,2,21,66,34,83,27,Female,,,,,1.0,choice,5.0,C,D,red,black,moons,moons,D,C,C,black,moons,897.0,1.0,0.0,NA,right,1079.9999999999,4.0,0.0,0.0,,,,
180,0,,html-keyboard-response,180,409940,0.0-7.6-0.6,9cdz8r0q26a,2022-09-19 17:58:06.627,62bb42e2f21cfdb280cc975f,2,21,66,34,83,27,Female,2034.9999999999,,"
  <table>
  <tr height=300>
    <td width=300 height=300><img src=""static/images/cards/stack_of_red_bolts.svg"" width=""175px"" height=""250px""></img></td>
    <td width=300 height=300><img src=""static/images/cards/stack_of_black_moons.svg"" width=""175px"" height=""250px""></img></td>
  </tr>
  <tr height=200>
    <td width=300><img src=""static/images/keys/w.svg"" width=""35%"" height=""75%""></img></td>
    <td width=300><img src=""static/images/keys/o.svg"" width=""35%"" height=""75%""></img></td>
  </tr>
</table>
  ",87.0,,,,,,,,,,,,,,,,,,,,,,,,,2.0,,
181,0,,html-keyboard-response,181,411637,0.0-7.6-1.6,9cdz8r0q26a,2022-09-19 17:58:06.627,62bb42e2f21cfdb280cc975f,2,21,66,34,83,27,Female,1193.0,,"
  <table>
  <tr height=300>
    <td width=300 height=300><img src=""static/images/cards/back_of_red_bolts.svg"" width=""175px"" height=""250px""></img></td>
    <td width=300 height=300><img src=""static/images/cards/back_of_red_bolts.svg"" width=""175px"" height=""250px""></img></td>
  </tr>
  <tr height=200>
    <td width=300><img src=""static/images/keys/z.svg"" width=""35%"" height=""75%""></img></td>
    <td width=300><img src=""static/images/keys/m.svg"" width=""35%"" height=""75%""></img></td>
  </tr>
</table>
  ",90.0,,,,,,,,,,,,,,,,,,,,,,,,,1.0,,
182,0,,html-keyboard-response,182,413140,0.0-7.6-2.6,9cdz8r0q26a,2022-09-19 17:58:06.627,62bb42e2f21cfdb280cc975f,2,21,66,34,83,27,Female,,,"
  <table>
  <tr height=300>
    <td width=300 height=300><img src=""static/images/cards/8_of_red_bolts.svg"" width=""175px"" height=""250px""></img></td>
    <td width=300 height=300><img src=""static/images/cards/back_of_red_bolts.svg"" width=""175px"" height=""250px""></img></td>
  </tr>
  <tr height=200>
    <td width=300><img src=""static/images/keys/z.svg"" width=""35%"" height=""75%""></img></td>
    <td width=300><img src=""static/images/keys/m.svg"" width=""35%"" height=""75%""></img></td>
  </tr>
</table>
  ",,,,,,,,,,,,,,,,,,,,,,,,,,,,
183,0,,html-keyboard-response,183,414642,0.0-7.6-3.6,9cdz8r0q26a,2022-09-19 17:58:06.627,62bb42e2f21cfdb280cc975f,2,21,66,34,83,27,Female,,,"<p style=""font-size:50px"">You win!
+10 points this round!</p>",,,,,,,,,,,,,,,,,,,,,,,,,,,,
184,0,,html-keyboard-response,184,415144,0.0-7.6-4.6,9cdz8r0q26a,2022-09-19 17:58:06.627,62bb42e2f21cfdb280cc975f,2,21,66,34,83,27,Female,,,,,1.0,choice,6.0,C,Xc,red,black,bolts,moons,Xc,C,Xc,red,bolts,2034.9999999999,1.0,0.0,NA,left,1193.0,8.0,1.0,1.0,,,,
185,0,,html-keyboard-response,185,416045,0.0-7.7-0.7,9cdz8r0q26a,2022-09-19 17:58:06.627,62bb42e2f21cfdb280cc975f,2,21,66,34,83,27,Female,898.0,,"
  <table>
  <tr height=300>
    <td width=300 height=300><img src=""static/images/cards/stack_of_red_stars.svg"" width=""175px"" height=""250px""></img></td>
    <td width=300 height=300><img src=""static/images/cards/stack_of_black_stars.svg"" width=""175px"" height=""250px""></img></td>
  </tr>
  <tr height=200>
    <td width=300><img src=""static/images/keys/w.svg"" width=""35%"" height=""75%""></img></td>
    <td width=300><img src=""static/images/keys/o.svg"" width=""35%"" height=""75%""></img></td>
  </tr>
</table>
  ",79.0,,,,,,,,,,,,,,,,,,,,,,,,,1.0,,
186,0,,html-keyboard-response,186,417565,0.0-7.7-1.7,9cdz8r0q26a,2022-09-19 17:58:06.627,62bb42e2f21cfdb280cc975f,2,21,66,34,83,27,Female,1017.0,,"
  <table>
  <tr height=300>
    <td width=300 height=300><img src=""static/images/cards/back_of_black_stars.svg"" width=""175px"" height=""250px""></img></td>
    <td width=300 height=300><img src=""static/images/cards/back_of_black_stars.svg"" width=""175px"" height=""250px""></img></td>
  </tr>
  <tr height=200>
    <td width=300><img src=""static/images/keys/z.svg"" width=""35%"" height=""75%""></img></td>
    <td width=300><img src=""static/images/keys/m.svg"" width=""35%"" height=""75%""></img></td>
  </tr>
</table>
  ",77.0,,,,,,,,,,,,,,,,,,,,,,,,,1.0,,
187,0,,html-keyboard-response,187,419068,0.0-7.7-2.7,9cdz8r0q26a,2022-09-19 17:58:06.627,62bb42e2f21cfdb280cc975f,2,21,66,34,83,27,Female,,,"
  <table>
  <tr height=300>
    <td width=300 height=300><img src=""static/images/cards/back_of_black_stars.svg"" width=""175px"" height=""250px""></img></td>
    <td width=300 height=300><img src=""static/images/cards/4_of_black_stars.svg"" width=""175px"" height=""250px""></img></td>
  </tr>
  <tr height=200>
    <td width=300><img src=""static/images/keys/z.svg"" width=""35%"" height=""75%""></img></td>
    <td width=300><img src=""static/images/keys/m.svg"" width=""35%"" height=""75%""></img></td>
  </tr>
</table>
  ",,,,,,,,,,,,,,,,,,,,,,,,,,,,
188,0,,html-keyboard-response,188,420570,0.0-7.7-3.7,9cdz8r0q26a,2022-09-19 17:58:06.627,62bb42e2f21cfdb280cc975f,2,21,66,34,83,27,Female,,,"<p style=""font-size:50px"">You Lose!
No points this round.</p>",,,,,,,,,,,,,,,,,,,,,,,,,,,,
189,0,,html-keyboard-response,189,421072,0.0-7.7-4.7,9cdz8r0q26a,2022-09-19 17:58:06.627,62bb42e2f21cfdb280cc975f,2,21,66,34,83,27,Female,,,,,1.0,choice,7.0,A,B,red,black,stars,stars,B,A,A,black,stars,898.0,1.0,1.0,NA,right,1017.0,4.0,0.0,0.0,,,,
190,0,,html-keyboard-response,190,422060,0.0-7.8-0.8,9cdz8r0q26a,2022-09-19 17:58:06.627,62bb42e2f21cfdb280cc975f,2,21,66,34,83,27,Female,986.0,,"
  <table>
  <tr height=300>
    <td width=300 height=300><img src=""static/images/cards/stack_of_red_moons.svg"" width=""175px"" height=""250px""></img></td>
    <td width=300 height=300><img src=""static/images/cards/stack_of_black_moons.svg"" width=""175px"" height=""250px""></img></td>
  </tr>
  <tr height=200>
    <td width=300><img src=""static/images/keys/w.svg"" width=""35%"" height=""75%""></img></td>
    <td width=300><img src=""static/images/keys/o.svg"" width=""35%"" height=""75%""></img></td>
  </tr>
</table>
  ",87.0,,,,,,,,,,,,,,,,,,,,,,,,,1.0,,
191,0,,html-keyboard-response,191,423604,0.0-7.8-1.8,9cdz8r0q26a,2022-09-19 17:58:06.627,62bb42e2f21cfdb280cc975f,2,21,66,34,83,27,Female,1041.0,,"
  <table>
  <tr height=300>
    <td width=300 height=300><img src=""static/images/cards/back_of_red_moons.svg"" width=""175px"" height=""250px""></img></td>
    <td width=300 height=300><img src=""static/images/cards/back_of_red_moons.svg"" width=""175px"" height=""250px""></img></td>
  </tr>
  <tr height=200>
    <td width=300></td>
    <td width=300><img src=""static/images/keys/m.svg"" width=""35%"" height=""75%""></img></td>
  </tr>
</table>
  ",77.0,,,,,,,,,,,,,,,,,,,,,,,,,1.0,,
192,0,,html-keyboard-response,192,425107,0.0-7.8-2.8,9cdz8r0q26a,2022-09-19 17:58:06.627,62bb42e2f21cfdb280cc975f,2,21,66,34,83,27,Female,,,"
  <table>
  <tr height=300>
    <td width=300 height=300><img src=""static/images/cards/back_of_red_moons.svg"" width=""175px"" height=""250px""></img></td>
    <td width=300 height=300><img src=""static/images/cards/3_of_red_moons.svg"" width=""175px"" height=""250px""></img></td>
  </tr>
  <tr height=200>
    <td width=300></td>
    <td width=300><img src=""static/images/keys/m.svg"" width=""35%"" height=""75%""></img></td>
  </tr>
</table>
  ",,,,,,,,,,,,,,,,,,,,,,,,,,,,
193,0,,html-keyboard-response,193,426610,0.0-7.8-3.8,9cdz8r0q26a,2022-09-19 17:58:06.627,62bb42e2f21cfdb280cc975f,2,21,66,34,83,27,Female,,,"<p style=""font-size:50px"">You win!
+10 points this round!</p>",,,,,,,,,,,,,,,,,,,,,,,,,,,,
194,0,,html-keyboard-response,194,427112,0.0-7.8-4.8,9cdz8r0q26a,2022-09-19 17:58:06.627,62bb42e2f21cfdb280cc975f,2,21,66,34,83,27,Female,,,,,1.0,choice,8.0,C,D,red,black,moons,moons,D,C,D,red,moons,986.0,0.0,0.0,0,right,1041.0,3.0,0.0,1.0,,,,
195,0,,html-keyboard-response,195,428100,0.0-7.9-0.9,9cdz8r0q26a,2022-09-19 17:58:06.627,62bb42e2f21cfdb280cc975f,2,21,66,34,83,27,Female,987.0,,"
  <table>
  <tr height=300>
    <td width=300 height=300><img src=""static/images/cards/stack_of_black_stars.svg"" width=""175px"" height=""250px""></img></td>
    <td width=300 height=300><img src=""static/images/cards/stack_of_red_stars.svg"" width=""175px"" height=""250px""></img></td>
  </tr>
  <tr height=200>
    <td width=300><img src=""static/images/keys/w.svg"" width=""35%"" height=""75%""></img></td>
    <td width=300><img src=""static/images/keys/o.svg"" width=""35%"" height=""75%""></img></td>
  </tr>
</table>
  ",79.0,,,,,,,,,,,,,,,,,,,,,,,,,1.0,,
196,0,,html-keyboard-response,196,429540,0.0-7.9-1.9,9cdz8r0q26a,2022-09-19 17:58:06.627,62bb42e2f21cfdb280cc975f,2,21,66,34,83,27,Female,937.0,,"
  <table>
  <tr height=300>
    <td width=300 height=300><img src=""static/images/cards/back_of_red_stars.svg"" width=""175px"" height=""250px""></img></td>
    <td width=300 height=300><img src=""static/images/cards/back_of_red_stars.svg"" width=""175px"" height=""250px""></img></td>
  </tr>
  <tr height=200>
    <td width=300><img src=""static/images/keys/z.svg"" width=""35%"" height=""75%""></img></td>
    <td width=300></td>
  </tr>
</table>
  ",90.0,,,,,,,,,,,,,,,,,,,,,,,,,2.0,,
197,0,,html-keyboard-response,197,431043,0.0-7.9-2.9,9cdz8r0q26a,2022-09-19 17:58:06.627,62bb42e2f21cfdb280cc975f,2,21,66,34,83,27,Female,,,"
  <table>
  <tr height=300>
    <td width=300 height=300><img src=""static/images/cards/8_of_red_stars.svg"" width=""175px"" height=""250px""></img></td>
    <td width=300 height=300><img src=""static/images/cards/back_of_red_stars.svg"" width=""175px"" height=""250px""></img></td>
  </tr>
  <tr height=200>
    <td width=300><img src=""static/images/keys/z.svg"" width=""35%"" height=""75%""></img></td>
    <td width=300></td>
  </tr>
</table>
  ",,,,,,,,,,,,,,,,,,,,,,,,,,,,
198,0,,html-keyboard-response,198,432546,0.0-7.9-3.9,9cdz8r0q26a,2022-09-19 17:58:06.627,62bb42e2f21cfdb280cc975f,2,21,66,34,83,27,Female,,,"<p style=""font-size:50px"">You win!
+10 points this round!</p>",,,,,,,,,,,,,,,,,,,,,,,,,,,,
199,0,,html-keyboard-response,199,433048,0.0-7.9-4.9,9cdz8r0q26a,2022-09-19 17:58:06.627,62bb42e2f21cfdb280cc975f,2,21,66,34,83,27,Female,,,,,1.0,choice,9.0,A,B,black,red,stars,stars,A,B,B,red,stars,987.0,0.0,1.0,1,left,937.0,8.0,1.0,1.0,,,,
200,0,,html-keyboard-response,200,435092,0.0-7.10-0.10,9cdz8r0q26a,2022-09-19 17:58:06.627,62bb42e2f21cfdb280cc975f,2,21,66,34,83,27,Female,2042.9999999999,,"
  <table>
  <tr height=300>
    <td width=300 height=300><img src=""static/images/cards/stack_of_black_moons.svg"" width=""175px"" height=""250px""></img></td>
    <td width=300 height=300><img src=""static/images/cards/stack_of_black_stars.svg"" width=""175px"" height=""250px""></img></td>
  </tr>
  <tr height=200>
    <td width=300><img src=""static/images/keys/w.svg"" width=""35%"" height=""75%""></img></td>
    <td width=300><img src=""static/images/keys/o.svg"" width=""35%"" height=""75%""></img></td>
  </tr>
</table>
  ",79.0,,,,,,,,,,,,,,,,,,,,,,,,,1.0,,
201,0,,html-keyboard-response,201,437172,0.0-7.10-1.10,9cdz8r0q26a,2022-09-19 17:58:06.627,62bb42e2f21cfdb280cc975f,2,21,66,34,83,27,Female,1577.0,,"
  <table>
  <tr height=300>
    <td width=300 height=300><img src=""static/images/cards/back_of_black_stars.svg"" width=""175px"" height=""250px""></img></td>
    <td width=300 height=300><img src=""static/images/cards/back_of_black_stars.svg"" width=""175px"" height=""250px""></img></td>
  </tr>
  <tr height=200>
    <td width=300><img src=""static/images/keys/z.svg"" width=""35%"" height=""75%""></img></td>
    <td width=300><img src=""static/images/keys/m.svg"" width=""35%"" height=""75%""></img></td>
  </tr>
</table>
  ",77.0,,,,,,,,,,,,,,,,,,,,,,,,,1.0,,
202,0,,html-keyboard-response,202,438674,0.0-7.10-2.10,9cdz8r0q26a,2022-09-19 17:58:06.627,62bb42e2f21cfdb280cc975f,2,21,66,34,83,27,Female,,,"
  <table>
  <tr height=300>
    <td width=300 height=300><img src=""static/images/cards/back_of_black_stars.svg"" width=""175px"" height=""250px""></img></td>
    <td width=300 height=300><img src=""static/images/cards/9_of_black_stars.svg"" width=""175px"" height=""250px""></img></td>
  </tr>
  <tr height=200>
    <td width=300><img src=""static/images/keys/z.svg"" width=""35%"" height=""75%""></img></td>
    <td width=300><img src=""static/images/keys/m.svg"" width=""35%"" height=""75%""></img></td>
  </tr>
</table>
  ",,,,,,,,,,,,,,,,,,,,,,,,,,,,
203,0,,html-keyboard-response,203,440177,0.0-7.10-3.10,9cdz8r0q26a,2022-09-19 17:58:06.627,62bb42e2f21cfdb280cc975f,2,21,66,34,83,27,Female,,,"<p style=""font-size:50px"">You win!
+10 points this round!</p>",,,,,,,,,,,,,,,,,,,,,,,,,,,,
204,0,,html-keyboard-response,204,440679,0.0-7.10-4.10,9cdz8r0q26a,2022-09-19 17:58:06.627,62bb42e2f21cfdb280cc975f,2,21,66,34,83,27,Female,,,,,1.0,choice,10.0,A,C,black,black,moons,stars,C,A,A,black,stars,2042.9999999999,1.0,1.0,NA,right,1577.0,9.0,1.0,1.0,,,,
205,0,,html-keyboard-response,205,442492,0.0-7.11-0.11,9cdz8r0q26a,2022-09-19 17:58:06.627,62bb42e2f21cfdb280cc975f,2,21,66,34,83,27,Female,1811.0,,"
  <table>
  <tr height=300>
    <td width=300 height=300><img src=""static/images/cards/stack_of_black_moons.svg"" width=""175px"" height=""250px""></img></td>
    <td width=300 height=300><img src=""static/images/cards/stack_of_red_stars.svg"" width=""175px"" height=""250px""></img></td>
  </tr>
  <tr height=200>
    <td width=300><img src=""static/images/keys/w.svg"" width=""35%"" height=""75%""></img></td>
    <td width=300><img src=""static/images/keys/o.svg"" width=""35%"" height=""75%""></img></td>
  </tr>
</table>
  ",87.0,,,,,,,,,,,,,,,,,,,,,,,,,1.0,,
206,0,,html-keyboard-response,206,443900,0.0-7.11-1.11,9cdz8r0q26a,2022-09-19 17:58:06.627,62bb42e2f21cfdb280cc975f,2,21,66,34,83,27,Female,904.0000000001,,"
  <table>
  <tr height=300>
    <td width=300 height=300><img src=""static/images/cards/back_of_black_moons.svg"" width=""175px"" height=""250px""></img></td>
    <td width=300 height=300><img src=""static/images/cards/back_of_black_moons.svg"" width=""175px"" height=""250px""></img></td>
  </tr>
  <tr height=200>
    <td width=300><img src=""static/images/keys/z.svg"" width=""35%"" height=""75%""></img></td>
    <td width=300><img src=""static/images/keys/m.svg"" width=""35%"" height=""75%""></img></td>
  </tr>
</table>
  ",77.0,,,,,,,,,,,,,,,,,,,,,,,,,1.0,,
207,0,,html-keyboard-response,207,445403,0.0-7.11-2.11,9cdz8r0q26a,2022-09-19 17:58:06.627,62bb42e2f21cfdb280cc975f,2,21,66,34,83,27,Female,,,"
  <table>
  <tr height=300>
    <td width=300 height=300><img src=""static/images/cards/back_of_black_moons.svg"" width=""175px"" height=""250px""></img></td>
    <td width=300 height=300><img src=""static/images/cards/6_of_black_moons.svg"" width=""175px"" height=""250px""></img></td>
  </tr>
  <tr height=200>
    <td width=300><img src=""static/images/keys/z.svg"" width=""35%"" height=""75%""></img></td>
    <td width=300><img src=""static/images/keys/m.svg"" width=""35%"" height=""75%""></img></td>
  </tr>
</table>
  ",,,,,,,,,,,,,,,,,,,,,,,,,,,,
208,0,,html-keyboard-response,208,446906,0.0-7.11-3.11,9cdz8r0q26a,2022-09-19 17:58:06.627,62bb42e2f21cfdb280cc975f,2,21,66,34,83,27,Female,,,"<p style=""font-size:50px"">You Lose!
No points this round.</p>",,,,,,,,,,,,,,,,,,,,,,,,,,,,
209,0,,html-keyboard-response,209,447408,0.0-7.11-4.11,9cdz8r0q26a,2022-09-19 17:58:06.627,62bb42e2f21cfdb280cc975f,2,21,66,34,83,27,Female,,,,,1.0,choice,11.0,B,C,black,red,moons,stars,C,B,C,black,moons,1811.0,1.0,0.0,NA,right,904.0000000001,6.0,1.0,0.0,,,,
210,0,,html-keyboard-response,210,449852,0.0-7.12-0.12,9cdz8r0q26a,2022-09-19 17:58:06.627,62bb42e2f21cfdb280cc975f,2,21,66,34,83,27,Female,2442.0000000001,,"
  <table>
  <tr height=300>
    <td width=300 height=300><img src=""static/images/cards/stack_of_black_stars.svg"" width=""175px"" height=""250px""></img></td>
    <td width=300 height=300><img src=""static/images/cards/stack_of_black_moons.svg"" width=""175px"" height=""250px""></img></td>
  </tr>
  <tr height=200>
    <td width=300><img src=""static/images/keys/w.svg"" width=""35%"" height=""75%""></img></td>
    <td width=300><img src=""static/images/keys/o.svg"" width=""35%"" height=""75%""></img></td>
  </tr>
</table>
  ",79.0,,,,,,,,,,,,,,,,,,,,,,,,,1.0,,
211,0,,html-keyboard-response,211,451196,0.0-7.12-1.12,9cdz8r0q26a,2022-09-19 17:58:06.627,62bb42e2f21cfdb280cc975f,2,21,66,34,83,27,Female,841.0,,"
  <table>
  <tr height=300>
    <td width=300 height=300><img src=""static/images/cards/back_of_black_moons.svg"" width=""175px"" height=""250px""></img></td>
    <td width=300 height=300><img src=""static/images/cards/back_of_black_moons.svg"" width=""175px"" height=""250px""></img></td>
  </tr>
  <tr height=200>
    <td width=300><img src=""static/images/keys/z.svg"" width=""35%"" height=""75%""></img></td>
    <td width=300><img src=""static/images/keys/m.svg"" width=""35%"" height=""75%""></img></td>
  </tr>
</table>
  ",77.0,,,,,,,,,,,,,,,,,,,,,,,,,1.0,,
212,0,,html-keyboard-response,212,452699,0.0-7.12-2.12,9cdz8r0q26a,2022-09-19 17:58:06.627,62bb42e2f21cfdb280cc975f,2,21,66,34,83,27,Female,,,"
  <table>
  <tr height=300>
    <td width=300 height=300><img src=""static/images/cards/back_of_black_moons.svg"" width=""175px"" height=""250px""></img></td>
    <td width=300 height=300><img src=""static/images/cards/3_of_black_moons.svg"" width=""175px"" height=""250px""></img></td>
  </tr>
  <tr height=200>
    <td width=300><img src=""static/images/keys/z.svg"" width=""35%"" height=""75%""></img></td>
    <td width=300><img src=""static/images/keys/m.svg"" width=""35%"" height=""75%""></img></td>
  </tr>
</table>
  ",,,,,,,,,,,,,,,,,,,,,,,,,,,,
213,0,,html-keyboard-response,213,454201,0.0-7.12-3.12,9cdz8r0q26a,2022-09-19 17:58:06.627,62bb42e2f21cfdb280cc975f,2,21,66,34,83,27,Female,,,"<p style=""font-size:50px"">You win!
+10 points this round!</p>",,,,,,,,,,,,,,,,,,,,,,,,,,,,
214,0,,html-keyboard-response,214,454703,0.0-7.12-4.12,9cdz8r0q26a,2022-09-19 17:58:06.627,62bb42e2f21cfdb280cc975f,2,21,66,34,83,27,Female,,,,,1.0,choice,12.0,A,C,black,black,stars,moons,A,C,C,black,moons,2442.0000000001,1.0,0.0,NA,right,841.0,3.0,0.0,1.0,,,,
215,0,,html-keyboard-response,215,457020,0.0-7.13-0.13,9cdz8r0q26a,2022-09-19 17:58:06.627,62bb42e2f21cfdb280cc975f,2,21,66,34,83,27,Female,2315.0,,"
  <table>
  <tr height=300>
    <td width=300 height=300><img src=""static/images/cards/stack_of_red_stars.svg"" width=""175px"" height=""250px""></img></td>
    <td width=300 height=300><img src=""static/images/cards/stack_of_black_bolts.svg"" width=""175px"" height=""250px""></img></td>
  </tr>
  <tr height=200>
    <td width=300><img src=""static/images/keys/w.svg"" width=""35%"" height=""75%""></img></td>
    <td width=300><img src=""static/images/keys/o.svg"" width=""35%"" height=""75%""></img></td>
  </tr>
</table>
  ",79.0,,,,,,,,,,,,,,,,,,,,,,,,,1.0,,
216,0,,html-keyboard-response,216,458356,0.0-7.13-1.13,9cdz8r0q26a,2022-09-19 17:58:06.627,62bb42e2f21cfdb280cc975f,2,21,66,34,83,27,Female,833.0,,"
  <table>
  <tr height=300>
    <td width=300 height=300><img src=""static/images/cards/back_of_black_bolts.svg"" width=""175px"" height=""250px""></img></td>
    <td width=300 height=300><img src=""static/images/cards/back_of_black_bolts.svg"" width=""175px"" height=""250px""></img></td>
  </tr>
  <tr height=200>
    <td width=300><img src=""static/images/keys/z.svg"" width=""35%"" height=""75%""></img></td>
    <td width=300></td>
  </tr>
</table>
  ",90.0,,,,,,,,,,,,,,,,,,,,,,,,,1.0,,
217,0,,html-keyboard-response,217,459859,0.0-7.13-2.13,9cdz8r0q26a,2022-09-19 17:58:06.627,62bb42e2f21cfdb280cc975f,2,21,66,34,83,27,Female,,,"
  <table>
  <tr height=300>
    <td width=300 height=300><img src=""static/images/cards/4_of_black_bolts.svg"" width=""175px"" height=""250px""></img></td>
    <td width=300 height=300><img src=""static/images/cards/back_of_black_bolts.svg"" width=""175px"" height=""250px""></img></td>
  </tr>
  <tr height=200>
    <td width=300><img src=""static/images/keys/z.svg"" width=""35%"" height=""75%""></img></td>
    <td width=300></td>
  </tr>
</table>
  ",,,,,,,,,,,,,,,,,,,,,,,,,,,,
218,0,,html-keyboard-response,218,461360,0.0-7.13-3.13,9cdz8r0q26a,2022-09-19 17:58:06.627,62bb42e2f21cfdb280cc975f,2,21,66,34,83,27,Female,,,"<p style=""font-size:50px"">You win!
+10 points this round!</p>",,,,,,,,,,,,,,,,,,,,,,,,,,,,
219,0,,html-keyboard-response,219,461862,0.0-7.13-4.13,9cdz8r0q26a,2022-09-19 17:58:06.627,62bb42e2f21cfdb280cc975f,2,21,66,34,83,27,Female,,,,,1.0,choice,13.0,B,Xnc,red,black,stars,bolts,B,Xnc,Xnc,black,bolts,2315.0,0.0,0.0,1,left,833.0,4.0,0.0,1.0,,,,
220,0,,html-keyboard-response,220,463212,0.0-7.14-0.14,9cdz8r0q26a,2022-09-19 17:58:06.627,62bb42e2f21cfdb280cc975f,2,21,66,34,83,27,Female,1347.9999999999,,"
  <table>
  <tr height=300>
    <td width=300 height=300><img src=""static/images/cards/stack_of_red_moons.svg"" width=""175px"" height=""250px""></img></td>
    <td width=300 height=300><img src=""static/images/cards/stack_of_black_moons.svg"" width=""175px"" height=""250px""></img></td>
  </tr>
  <tr height=200>
    <td width=300><img src=""static/images/keys/w.svg"" width=""35%"" height=""75%""></img></td>
    <td width=300><img src=""static/images/keys/o.svg"" width=""35%"" height=""75%""></img></td>
  </tr>
</table>
  ",79.0,,,,,,,,,,,,,,,,,,,,,,,,,1.0,,
221,0,,html-keyboard-response,221,464644,0.0-7.14-1.14,9cdz8r0q26a,2022-09-19 17:58:06.627,62bb42e2f21cfdb280cc975f,2,21,66,34,83,27,Female,928.9999999999,,"
  <table>
  <tr height=300>
    <td width=300 height=300><img src=""static/images/cards/back_of_black_moons.svg"" width=""175px"" height=""250px""></img></td>
    <td width=300 height=300><img src=""static/images/cards/back_of_black_moons.svg"" width=""175px"" height=""250px""></img></td>
  </tr>
  <tr height=200>
    <td width=300><img src=""static/images/keys/z.svg"" width=""35%"" height=""75%""></img></td>
    <td width=300><img src=""static/images/keys/m.svg"" width=""35%"" height=""75%""></img></td>
  </tr>
</table>
  ",77.0,,,,,,,,,,,,,,,,,,,,,,,,,1.0,,
222,0,,html-keyboard-response,222,466146,0.0-7.14-2.14,9cdz8r0q26a,2022-09-19 17:58:06.627,62bb42e2f21cfdb280cc975f,2,21,66,34,83,27,Female,,,"
  <table>
  <tr height=300>
    <td width=300 height=300><img src=""static/images/cards/back_of_black_moons.svg"" width=""175px"" height=""250px""></img></td>
    <td width=300 height=300><img src=""static/images/cards/8_of_black_moons.svg"" width=""175px"" height=""250px""></img></td>
  </tr>
  <tr height=200>
    <td width=300><img src=""static/images/keys/z.svg"" width=""35%"" height=""75%""></img></td>
    <td width=300><img src=""static/images/keys/m.svg"" width=""35%"" height=""75%""></img></td>
  </tr>
</table>
  ",,,,,,,,,,,,,,,,,,,,,,,,,,,,
223,0,,html-keyboard-response,223,467648,0.0-7.14-3.14,9cdz8r0q26a,2022-09-19 17:58:06.627,62bb42e2f21cfdb280cc975f,2,21,66,34,83,27,Female,,,"<p style=""font-size:50px"">You Lose!
No points this round.</p>",,,,,,,,,,,,,,,,,,,,,,,,,,,,
224,0,,html-keyboard-response,224,468150,0.0-7.14-4.14,9cdz8r0q26a,2022-09-19 17:58:06.627,62bb42e2f21cfdb280cc975f,2,21,66,34,83,27,Female,,,,,1.0,choice,14.0,C,D,red,black,moons,moons,D,C,C,black,moons,1347.9999999999,1.0,0.0,NA,right,928.9999999999,8.0,1.0,0.0,,,,
225,0,,html-keyboard-response,225,469676,0.0-7.15-0.15,9cdz8r0q26a,2022-09-19 17:58:06.627,62bb42e2f21cfdb280cc975f,2,21,66,34,83,27,Female,1523.0,,"
  <table>
  <tr height=300>
    <td width=300 height=300><img src=""static/images/cards/stack_of_black_stars.svg"" width=""175px"" height=""250px""></img></td>
    <td width=300 height=300><img src=""static/images/cards/stack_of_black_bolts.svg"" width=""175px"" height=""250px""></img></td>
  </tr>
  <tr height=200>
    <td width=300><img src=""static/images/keys/w.svg"" width=""35%"" height=""75%""></img></td>
    <td width=300><img src=""static/images/keys/o.svg"" width=""35%"" height=""75%""></img></td>
  </tr>
</table>
  ",87.0,,,,,,,,,,,,,,,,,,,,,,,,,1.0,,
226,0,,html-keyboard-response,226,471420,0.0-7.15-1.15,9cdz8r0q26a,2022-09-19 17:58:06.627,62bb42e2f21cfdb280cc975f,2,21,66,34,83,27,Female,1240.9999999999,,"
  <table>
  <tr height=300>
    <td width=300 height=300><img src=""static/images/cards/back_of_black_stars.svg"" width=""175px"" height=""250px""></img></td>
    <td width=300 height=300><img src=""static/images/cards/back_of_black_stars.svg"" width=""175px"" height=""250px""></img></td>
  </tr>
  <tr height=200>
    <td width=300><img src=""static/images/keys/z.svg"" width=""35%"" height=""75%""></img></td>
    <td width=300><img src=""static/images/keys/m.svg"" width=""35%"" height=""75%""></img></td>
  </tr>
</table>
  ",90.0,,,,,,,,,,,,,,,,,,,,,,,,,1.0,,
227,0,,html-keyboard-response,227,472923,0.0-7.15-2.15,9cdz8r0q26a,2022-09-19 17:58:06.627,62bb42e2f21cfdb280cc975f,2,21,66,34,83,27,Female,,,"
  <table>
  <tr height=300>
    <td width=300 height=300><img src=""static/images/cards/8_of_black_stars.svg"" width=""175px"" height=""250px""></img></td>
    <td width=300 height=300><img src=""static/images/cards/back_of_black_stars.svg"" width=""175px"" height=""250px""></img></td>
  </tr>
  <tr height=200>
    <td width=300><img src=""static/images/keys/z.svg"" width=""35%"" height=""75%""></img></td>
    <td width=300><img src=""static/images/keys/m.svg"" width=""35%"" height=""75%""></img></td>
  </tr>
</table>
  ",,,,,,,,,,,,,,,,,,,,,,,,,,,,
228,0,,html-keyboard-response,228,474424,0.0-7.15-3.15,9cdz8r0q26a,2022-09-19 17:58:06.627,62bb42e2f21cfdb280cc975f,2,21,66,34,83,27,Female,,,"<p style=""font-size:50px"">You win!
+10 points this round!</p>",,,,,,,,,,,,,,,,,,,,,,,,,,,,
229,0,,html-keyboard-response,229,474925,0.0-7.15-4.15,9cdz8r0q26a,2022-09-19 17:58:06.627,62bb42e2f21cfdb280cc975f,2,21,66,34,83,27,Female,,,,,1.0,choice,15.0,A,Xnc,black,black,stars,bolts,A,Xnc,A,black,stars,1523.0,1.0,1.0,NA,left,1240.9999999999,8.0,1.0,1.0,,,,
230,0,,html-keyboard-response,230,476379,0.0-7.16-0.16,9cdz8r0q26a,2022-09-19 17:58:06.627,62bb42e2f21cfdb280cc975f,2,21,66,34,83,27,Female,1452.0,,"
  <table>
  <tr height=300>
    <td width=300 height=300><img src=""static/images/cards/stack_of_red_moons.svg"" width=""175px"" height=""250px""></img></td>
    <td width=300 height=300><img src=""static/images/cards/stack_of_black_moons.svg"" width=""175px"" height=""250px""></img></td>
  </tr>
  <tr height=200>
    <td width=300><img src=""static/images/keys/w.svg"" width=""35%"" height=""75%""></img></td>
    <td width=300><img src=""static/images/keys/o.svg"" width=""35%"" height=""75%""></img></td>
  </tr>
</table>
  ",87.0,,,,,,,,,,,,,,,,,,,,,,,,,1.0,,
231,0,,html-keyboard-response,231,477811,0.0-7.16-1.16,9cdz8r0q26a,2022-09-19 17:58:06.627,62bb42e2f21cfdb280cc975f,2,21,66,34,83,27,Female,928.0,,"
  <table>
  <tr height=300>
    <td width=300 height=300><img src=""static/images/cards/back_of_red_moons.svg"" width=""175px"" height=""250px""></img></td>
    <td width=300 height=300><img src=""static/images/cards/back_of_red_moons.svg"" width=""175px"" height=""250px""></img></td>
  </tr>
  <tr height=200>
    <td width=300></td>
    <td width=300><img src=""static/images/keys/m.svg"" width=""35%"" height=""75%""></img></td>
  </tr>
</table>
  ",77.0,,,,,,,,,,,,,,,,,,,,,,,,,1.0,,
232,0,,html-keyboard-response,232,479314,0.0-7.16-2.16,9cdz8r0q26a,2022-09-19 17:58:06.627,62bb42e2f21cfdb280cc975f,2,21,66,34,83,27,Female,,,"
  <table>
  <tr height=300>
    <td width=300 height=300><img src=""static/images/cards/back_of_red_moons.svg"" width=""175px"" height=""250px""></img></td>
    <td width=300 height=300><img src=""static/images/cards/10_of_red_moons.svg"" width=""175px"" height=""250px""></img></td>
  </tr>
  <tr height=200>
    <td width=300></td>
    <td width=300><img src=""static/images/keys/m.svg"" width=""35%"" height=""75%""></img></td>
  </tr>
</table>
  ",,,,,,,,,,,,,,,,,,,,,,,,,,,,
233,0,,html-keyboard-response,233,480817,0.0-7.16-3.16,9cdz8r0q26a,2022-09-19 17:58:06.627,62bb42e2f21cfdb280cc975f,2,21,66,34,83,27,Female,,,"<p style=""font-size:50px"">You Lose!
No points this round.</p>",,,,,,,,,,,,,,,,,,,,,,,,,,,,
234,0,,html-keyboard-response,234,481318,0.0-7.16-4.16,9cdz8r0q26a,2022-09-19 17:58:06.627,62bb42e2f21cfdb280cc975f,2,21,66,34,83,27,Female,,,,,1.0,choice,16.0,C,D,red,black,moons,moons,D,C,D,red,moons,1452.0,0.0,0.0,0,right,928.0,10.0,1.0,0.0,,,,
235,0,,html-keyboard-response,235,482659,0.0-7.17-0.17,9cdz8r0q26a,2022-09-19 17:58:06.627,62bb42e2f21cfdb280cc975f,2,21,66,34,83,27,Female,1339.0,,"
  <table>
  <tr height=300>
    <td width=300 height=300><img src=""static/images/cards/stack_of_black_moons.svg"" width=""175px"" height=""250px""></img></td>
    <td width=300 height=300><img src=""static/images/cards/stack_of_black_stars.svg"" width=""175px"" height=""250px""></img></td>
  </tr>
  <tr height=200>
    <td width=300><img src=""static/images/keys/w.svg"" width=""35%"" height=""75%""></img></td>
    <td width=300><img src=""static/images/keys/o.svg"" width=""35%"" height=""75%""></img></td>
  </tr>
</table>
  ",79.0,,,,,,,,,,,,,,,,,,,,,,,,,1.0,,
236,0,,html-keyboard-response,236,484299,0.0-7.17-1.17,9cdz8r0q26a,2022-09-19 17:58:06.627,62bb42e2f21cfdb280cc975f,2,21,66,34,83,27,Female,1137.0,,"
  <table>
  <tr height=300>
    <td width=300 height=300><img src=""static/images/cards/back_of_black_stars.svg"" width=""175px"" height=""250px""></img></td>
