,index,success,trial_type,trial_index,time_elapsed,internal_node_id,subject,date,prol_id,ctbl,sense_of_control_A,sense_of_control_B,sense_of_control_C,sense_of_control_D,age,gender,rt,url,stimulus,key_press,npress,is_data_trial,phase,trial,deck1,deck2,col1,col2,sym1,sym2,deck_l,deck_r,chosen_deck,chosen_col,chosen_sym,deck_rt,choose_choice,mutual_info,hidden_key,chosen_card,card_rt,player_num,win_card,outcome,mock_rating,response,responses
0,0,1.0,fullscreen,0,12662,0.0-0.0,xgrcjir2m9,2022-09-19 13:42:32.744,5f653cb18aad310a9ee7c32d,2,61,6,60,10,30,female,,,,,,,,,,,,,,,,,,,,,,,,,,,,,,,
1,0,,external-html,1,26842,0.0-1.0,xgrcjir2m9,2022-09-19 13:42:32.744,5f653cb18aad310a9ee7c32d,2,61,6,60,10,30,female,7809.6,static/js/sub/consent.html,,,,,,,,,,,,,,,,,,,,,,,,,,,,,
2,0,,call-function,2,26853,0.0-2.0,xgrcjir2m9,2022-09-19 13:42:32.744,5f653cb18aad310a9ee7c32d,2,61,6,60,10,30,female,,,,,,,,,,,,,,,,,,,,,,,,,,,,,,,
3,0,,image-keyboard-response,3,30789,0.0-3.0-0.0,xgrcjir2m9,2022-09-19 13:42:32.744,5f653cb18aad310a9ee7c32d,2,61,6,60,10,30,female,3924.0,,static/images/instructions_CB_2/Slide1.png,39.0,,,,,,,,,,,,,,,,,,,,,,,,,,,
4,0,,image-keyboard-response,4,39032,0.0-3.1-0.1,xgrcjir2m9,2022-09-19 13:42:32.744,5f653cb18aad310a9ee7c32d,2,61,6,60,10,30,female,8231.5,,static/images/instructions_CB_2/Slide2.png,39.0,,,,,,,,,,,,,,,,,,,,,,,,,,,
5,0,,image-keyboard-response,5,60300,0.0-3.2-0.2,xgrcjir2m9,2022-09-19 13:42:32.744,5f653cb18aad310a9ee7c32d,2,61,6,60,10,30,female,21260.7000000001,,static/images/instructions_CB_2/Slide3.png,39.0,,,,,,,,,,,,,,,,,,,,,,,,,,,
6,0,,image-keyboard-response,6,64834,0.0-3.3-0.3,xgrcjir2m9,2022-09-19 13:42:32.744,5f653cb18aad310a9ee7c32d,2,61,6,60,10,30,female,4528.4,,static/images/instructions_CB_2/Slide4.png,39.0,,,,,,,,,,,,,,,,,,,,,,,,,,,
7,0,,image-keyboard-response,7,73396,0.0-3.4-0.4,xgrcjir2m9,2022-09-19 13:42:32.744,5f653cb18aad310a9ee7c32d,2,61,6,60,10,30,female,8553.6,,static/images/instructions_CB_2/Slide5.png,39.0,,,,,,,,,,,,,,,,,,,,,,,,,,,
8,0,,image-keyboard-response,8,75321,0.0-3.5-0.5,xgrcjir2m9,2022-09-19 13:42:32.744,5f653cb18aad310a9ee7c32d,2,61,6,60,10,30,female,1918.1,,static/images/instructions_CB_2/Slide6.png,39.0,,,,,,,,,,,,,,,,,,,,,,,,,,,
9,0,,image-keyboard-response,9,80261,0.0-3.6-0.6,xgrcjir2m9,2022-09-19 13:42:32.744,5f653cb18aad310a9ee7c32d,2,61,6,60,10,30,female,4933.9,,static/images/instructions_CB_2/Slide7.png,39.0,,,,,,,,,,,,,,,,,,,,,,,,,,,
10,0,,image-keyboard-response,10,99725,0.0-3.7-0.7,xgrcjir2m9,2022-09-19 13:42:32.744,5f653cb18aad310a9ee7c32d,2,61,6,60,10,30,female,19459.6,,static/images/instructions_CB_2/Slide8.png,39.0,,,,,,,,,,,,,,,,,,,,,,,,,,,
11,0,,image-keyboard-response,11,106697,0.0-3.8-0.8,xgrcjir2m9,2022-09-19 13:42:32.744,5f653cb18aad310a9ee7c32d,2,61,6,60,10,30,female,6960.0,,static/images/instructions_CB_2/Slide9.png,39.0,,,,,,,,,,,,,,,,,,,,,,,,,,,
12,0,,image-keyboard-response,12,116262,0.0-3.9-0.9,xgrcjir2m9,2022-09-19 13:42:32.744,5f653cb18aad310a9ee7c32d,2,61,6,60,10,30,female,9559.5,,static/images/instructions_CB_2/Slide10.png,39.0,,,,,,,,,,,,,,,,,,,,,,,,,,,
13,0,,image-keyboard-response,13,118365,0.0-3.10-0.10,xgrcjir2m9,2022-09-19 13:42:32.744,5f653cb18aad310a9ee7c32d,2,61,6,60,10,30,female,2100.4,,static/images/instructions_CB_2/Slide11.png,39.0,,,,,,,,,,,,,,,,,,,,,,,,,,,
14,0,,image-keyboard-response,14,134124,0.0-3.11-0.11,xgrcjir2m9,2022-09-19 13:42:32.744,5f653cb18aad310a9ee7c32d,2,61,6,60,10,30,female,15755.4,,static/images/instructions_CB_2/Slide12.png,39.0,,,,,,,,,,,,,,,,,,,,,,,,,,,
15,0,,image-keyboard-response,15,155353,0.0-3.12-0.12,xgrcjir2m9,2022-09-19 13:42:32.744,5f653cb18aad310a9ee7c32d,2,61,6,60,10,30,female,21224.7000000001,,static/images/instructions_CB_2/Slide13.png,39.0,,,,,,,,,,,,,,,,,,,,,,,,,,,
16,0,,image-keyboard-response,16,161661,0.0-3.13-0.13,xgrcjir2m9,2022-09-19 13:42:32.744,5f653cb18aad310a9ee7c32d,2,61,6,60,10,30,female,6303.6000000001,,static/images/instructions_CB_2/Slide14.png,39.0,,,,,,,,,,,,,,,,,,,,,,,,,,,
17,0,,image-keyboard-response,17,196348,0.0-3.14-0.14,xgrcjir2m9,2022-09-19 13:42:32.744,5f653cb18aad310a9ee7c32d,2,61,6,60,10,30,female,34685.2,,static/images/instructions_CB_2/Slide15.png,39.0,,,,,,,,,,,,,,,,,,,,,,,,,,,
18,0,,image-keyboard-response,18,203999,0.0-3.15-0.15,xgrcjir2m9,2022-09-19 13:42:32.744,5f653cb18aad310a9ee7c32d,2,61,6,60,10,30,female,7646.6,,static/images/instructions_CB_2/Slide16.png,37.0,,,,,,,,,,,,,,,,,,,,,,,,,,,
19,0,,image-keyboard-response,19,204653,0.0-3.16-0.16,xgrcjir2m9,2022-09-19 13:42:32.744,5f653cb18aad310a9ee7c32d,2,61,6,60,10,30,female,647.0,,static/images/instructions_CB_2/Slide15.png,37.0,,,,,,,,,,,,,,,,,,,,,,,,,,,
20,0,,image-keyboard-response,20,205626,0.0-3.17-0.17,xgrcjir2m9,2022-09-19 13:42:32.744,5f653cb18aad310a9ee7c32d,2,61,6,60,10,30,female,967.3,,static/images/instructions_CB_2/Slide14.png,37.0,,,,,,,,,,,,,,,,,,,,,,,,,,,
21,0,,image-keyboard-response,21,208135,0.0-3.18-0.18,xgrcjir2m9,2022-09-19 13:42:32.744,5f653cb18aad310a9ee7c32d,2,61,6,60,10,30,female,2502.1,,static/images/instructions_CB_2/Slide13.png,37.0,,,,,,,,,,,,,,,,,,,,,,,,,,,
22,0,,image-keyboard-response,22,208539,0.0-3.19-0.19,xgrcjir2m9,2022-09-19 13:42:32.744,5f653cb18aad310a9ee7c32d,2,61,6,60,10,30,female,397.7,,static/images/instructions_CB_2/Slide12.png,39.0,,,,,,,,,,,,,,,,,,,,,,,,,,,
23,0,,image-keyboard-response,23,209474,0.0-3.20-0.20,xgrcjir2m9,2022-09-19 13:42:32.744,5f653cb18aad310a9ee7c32d,2,61,6,60,10,30,female,926.1,,static/images/instructions_CB_2/Slide13.png,39.0,,,,,,,,,,,,,,,,,,,,,,,,,,,
24,0,,image-keyboard-response,24,210093,0.0-3.21-0.21,xgrcjir2m9,2022-09-19 13:42:32.744,5f653cb18aad310a9ee7c32d,2,61,6,60,10,30,female,611.6,,static/images/instructions_CB_2/Slide14.png,39.0,,,,,,,,,,,,,,,,,,,,,,,,,,,
25,0,,image-keyboard-response,25,210779,0.0-3.22-0.22,xgrcjir2m9,2022-09-19 13:42:32.744,5f653cb18aad310a9ee7c32d,2,61,6,60,10,30,female,677.9,,static/images/instructions_CB_2/Slide15.png,39.0,,,,,,,,,,,,,,,,,,,,,,,,,,,
26,0,,image-keyboard-response,26,218163,0.0-3.23-0.23,xgrcjir2m9,2022-09-19 13:42:32.744,5f653cb18aad310a9ee7c32d,2,61,6,60,10,30,female,7375.4,,static/images/instructions_CB_2/Slide16.png,39.0,,,,,,,,,,,,,,,,,,,,,,,,,,,
27,0,,image-keyboard-response,27,224133,0.0-3.24-0.24,xgrcjir2m9,2022-09-19 13:42:32.744,5f653cb18aad310a9ee7c32d,2,61,6,60,10,30,female,5965.7,,static/images/instructions_CB_2/Slide17.png,39.0,,,,,,,,,,,,,,,,,,,,,,,,,,,
28,0,,image-keyboard-response,28,243933,0.0-3.25-0.25,xgrcjir2m9,2022-09-19 13:42:32.744,5f653cb18aad310a9ee7c32d,2,61,6,60,10,30,female,19794.8,,static/images/instructions_CB_2/Slide18.png,39.0,,,,,,,,,,,,,,,,,,,,,,,,,,,
29,0,,image-keyboard-response,29,252665,0.0-3.26-0.26,xgrcjir2m9,2022-09-19 13:42:32.744,5f653cb18aad310a9ee7c32d,2,61,6,60,10,30,female,8727.7,,static/images/instructions_CB_2/Slide19.png,39.0,,,,,,,,,,,,,,,,,,,,,,,,,,,
30,0,,html-keyboard-response,30,254188,0.0-4.0-0.0,xgrcjir2m9,2022-09-19 13:42:32.744,5f653cb18aad310a9ee7c32d,2,61,6,60,10,30,female,,,"<img src=""static/images/cards/stack_of_black_stars.svg"" width=""175px"" height=""250px""></img>",,,,,,,,,,,,,,,,,,,,,,,,,,,,
31,0,,html-keyboard-response,31,257398,0.0-4.0-1.0,xgrcjir2m9,2022-09-19 13:42:32.744,5f653cb18aad310a9ee7c32d,2,61,6,60,10,30,female,2549.2,,"
  <table>
  <tr height=300>
    <td width=300 height=300><img src=""static/images/cards/back_of_black_stars.svg"" width=""175px"" height=""250px""></img></td>
    <td width=300 height=300><img src=""static/images/cards/back_of_black_stars.svg"" width=""175px"" height=""250px""></img></td>
  </tr>
  <tr height=200>
    <td width=300><img src=""static/images/keys/z.svg"" width=""35%"" height=""75%""></img></td>
    <td width=300><img src=""static/images/keys/m.svg"" width=""35%"" height=""75%""></img></td>
  </tr>
</table>
  ",77.0,1.0,,,,,,,,,,,,,,,,,,,,,,,,,,
32,0,,html-keyboard-response,32,258916,0.0-4.0-2.0,xgrcjir2m9,2022-09-19 13:42:32.744,5f653cb18aad310a9ee7c32d,2,61,6,60,10,30,female,,,"
  <table>
  <tr height=300>
    <td width=300 height=300><img src=""static/images/cards/back_of_black_stars.svg"" width=""175px"" height=""250px""></img></td>
    <td width=300 height=300><img src=""static/images/cards/1_of_black_stars.svg"" width=""175px"" height=""250px""></img></td>
  </tr>
  <tr height=200>
    <td width=300><img src=""static/images/keys/z.svg"" width=""35%"" height=""75%""></img></td>
    <td width=300><img src=""static/images/keys/m.svg"" width=""35%"" height=""75%""></img></td>
  </tr>
</table>
  ",,,,,,,,,,,,,,,,,,,,,,,,,,,,
33,0,,html-keyboard-response,33,260436,0.0-4.0-3.0,xgrcjir2m9,2022-09-19 13:42:32.744,5f653cb18aad310a9ee7c32d,2,61,6,60,10,30,female,,,"<p style=""font-size:50px"">You Lose!
No points this round.</p>",,,,,,,,,,,,,,,,,,,,,,,,,,,,
34,0,,html-keyboard-response,34,260975,0.0-4.0-4.0,xgrcjir2m9,2022-09-19 13:42:32.744,5f653cb18aad310a9ee7c32d,2,61,6,60,10,30,female,,,,,,1.0,learning,0.0,A,,black,,stars,,,,A,black,stars,,1.0,1.0,NA,right,2549.2,1.0,0.0,0.0,,,
35,0,,html-keyboard-response,35,262493,0.0-4.1-0.1,xgrcjir2m9,2022-09-19 13:42:32.744,5f653cb18aad310a9ee7c32d,2,61,6,60,10,30,female,,,"<img src=""static/images/cards/stack_of_red_stars.svg"" width=""175px"" height=""250px""></img>",,,,,,,,,,,,,,,,,,,,,,,,,,,,
36,0,,html-keyboard-response,36,263838,0.0-4.1-1.1,xgrcjir2m9,2022-09-19 13:42:32.744,5f653cb18aad310a9ee7c32d,2,61,6,60,10,30,female,808.2999999999,,"
  <table>
  <tr height=300>
    <td width=300 height=300><img src=""static/images/cards/back_of_red_stars.svg"" width=""175px"" height=""250px""></img></td>
    <td width=300 height=300><img src=""static/images/cards/back_of_red_stars.svg"" width=""175px"" height=""250px""></img></td>
  </tr>
  <tr height=200>
    <td width=300><img src=""static/images/keys/z.svg"" width=""35%"" height=""75%""></img></td>
    <td width=300></td>
  </tr>
</table>
  ",90.0,1.0,,,,,,,,,,,,,,,,,,,,,,,,,,
37,0,,html-keyboard-response,37,265360,0.0-4.1-2.1,xgrcjir2m9,2022-09-19 13:42:32.744,5f653cb18aad310a9ee7c32d,2,61,6,60,10,30,female,,,"
  <table>
  <tr height=300>
    <td width=300 height=300><img src=""static/images/cards/10_of_red_stars.svg"" width=""175px"" height=""250px""></img></td>
    <td width=300 height=300><img src=""static/images/cards/back_of_red_stars.svg"" width=""175px"" height=""250px""></img></td>
  </tr>
  <tr height=200>
    <td width=300><img src=""static/images/keys/z.svg"" width=""35%"" height=""75%""></img></td>
    <td width=300></td>
  </tr>
</table>
  ",,,,,,,,,,,,,,,,,,,,,,,,,,,,
38,0,,html-keyboard-response,38,266871,0.0-4.1-3.1,xgrcjir2m9,2022-09-19 13:42:32.744,5f653cb18aad310a9ee7c32d,2,61,6,60,10,30,female,,,"<p style=""font-size:50px"">You win!
+10 points this round!</p>",,,,,,,,,,,,,,,,,,,,,,,,,,,,
39,0,,html-keyboard-response,39,267395,0.0-4.1-4.1,xgrcjir2m9,2022-09-19 13:42:32.744,5f653cb18aad310a9ee7c32d,2,61,6,60,10,30,female,,,,,,1.0,learning,1.0,B,,red,,stars,,,,B,red,stars,,0.0,1.0,1,left,808.2999999999,10.0,1.0,1.0,,,
40,0,,html-keyboard-response,40,268905,0.0-4.2-0.2,xgrcjir2m9,2022-09-19 13:42:32.744,5f653cb18aad310a9ee7c32d,2,61,6,60,10,30,female,,,"<img src=""static/images/cards/stack_of_black_moons.svg"" width=""175px"" height=""250px""></img>",,,,,,,,,,,,,,,,,,,,,,,,,,,,
41,0,,html-keyboard-response,41,270013,0.0-4.2-1.2,xgrcjir2m9,2022-09-19 13:42:32.744,5f653cb18aad310a9ee7c32d,2,61,6,60,10,30,female,587.7,,"
  <table>
  <tr height=300>
    <td width=300 height=300><img src=""static/images/cards/back_of_black_moons.svg"" width=""175px"" height=""250px""></img></td>
    <td width=300 height=300><img src=""static/images/cards/back_of_black_moons.svg"" width=""175px"" height=""250px""></img></td>
  </tr>
  <tr height=200>
    <td width=300><img src=""static/images/keys/z.svg"" width=""35%"" height=""75%""></img></td>
    <td width=300><img src=""static/images/keys/m.svg"" width=""35%"" height=""75%""></img></td>
  </tr>
</table>
  ",90.0,1.0,,,,,,,,,,,,,,,,,,,,,,,,,,
42,0,,html-keyboard-response,42,271535,0.0-4.2-2.2,xgrcjir2m9,2022-09-19 13:42:32.744,5f653cb18aad310a9ee7c32d,2,61,6,60,10,30,female,,,"
  <table>
  <tr height=300>
    <td width=300 height=300><img src=""static/images/cards/4_of_black_moons.svg"" width=""175px"" height=""250px""></img></td>
    <td width=300 height=300><img src=""static/images/cards/back_of_black_moons.svg"" width=""175px"" height=""250px""></img></td>
  </tr>
  <tr height=200>
    <td width=300><img src=""static/images/keys/z.svg"" width=""35%"" height=""75%""></img></td>
    <td width=300><img src=""static/images/keys/m.svg"" width=""35%"" height=""75%""></img></td>
  </tr>
</table>
  ",,,,,,,,,,,,,,,,,,,,,,,,,,,,
43,0,,html-keyboard-response,43,273056,0.0-4.2-3.2,xgrcjir2m9,2022-09-19 13:42:32.744,5f653cb18aad310a9ee7c32d,2,61,6,60,10,30,female,,,"<p style=""font-size:50px"">You Lose!
No points this round.</p>",,,,,,,,,,,,,,,,,,,,,,,,,,,,
44,0,,html-keyboard-response,44,273569,0.0-4.2-4.2,xgrcjir2m9,2022-09-19 13:42:32.744,5f653cb18aad310a9ee7c32d,2,61,6,60,10,30,female,,,,,,1.0,learning,2.0,C,,black,,moons,,,,C,black,moons,,1.0,0.0,NA,left,587.7,4.0,0.0,0.0,,,
45,0,,html-keyboard-response,45,275078,0.0-4.3-0.3,xgrcjir2m9,2022-09-19 13:42:32.744,5f653cb18aad310a9ee7c32d,2,61,6,60,10,30,female,,,"<img src=""static/images/cards/stack_of_red_moons.svg"" width=""175px"" height=""250px""></img>",,,,,,,,,,,,,,,,,,,,,,,,,,,,
46,0,,html-keyboard-response,46,276341,0.0-4.3-1.3,xgrcjir2m9,2022-09-19 13:42:32.744,5f653cb18aad310a9ee7c32d,2,61,6,60,10,30,female,756.5,,"
  <table>
  <tr height=300>
    <td width=300 height=300><img src=""static/images/cards/back_of_red_moons.svg"" width=""175px"" height=""250px""></img></td>
    <td width=300 height=300><img src=""static/images/cards/back_of_red_moons.svg"" width=""175px"" height=""250px""></img></td>
  </tr>
  <tr height=200>
    <td width=300><img src=""static/images/keys/z.svg"" width=""35%"" height=""75%""></img></td>
    <td width=300></td>
  </tr>
</table>
  ",90.0,1.0,,,,,,,,,,,,,,,,,,,,,,,,,,
47,0,,html-keyboard-response,47,277852,0.0-4.3-2.3,xgrcjir2m9,2022-09-19 13:42:32.744,5f653cb18aad310a9ee7c32d,2,61,6,60,10,30,female,,,"
  <table>
  <tr height=300>
    <td width=300 height=300><img src=""static/images/cards/6_of_red_moons.svg"" width=""175px"" height=""250px""></img></td>
    <td width=300 height=300><img src=""static/images/cards/back_of_red_moons.svg"" width=""175px"" height=""250px""></img></td>
  </tr>
  <tr height=200>
    <td width=300><img src=""static/images/keys/z.svg"" width=""35%"" height=""75%""></img></td>
    <td width=300></td>
  </tr>
</table>
  ",,,,,,,,,,,,,,,,,,,,,,,,,,,,
48,0,,html-keyboard-response,48,279380,0.0-4.3-3.3,xgrcjir2m9,2022-09-19 13:42:32.744,5f653cb18aad310a9ee7c32d,2,61,6,60,10,30,female,,,"<p style=""font-size:50px"">You win!
+10 points this round!</p>",,,,,,,,,,,,,,,,,,,,,,,,,,,,
49,0,,html-keyboard-response,49,279892,0.0-4.3-4.3,xgrcjir2m9,2022-09-19 13:42:32.744,5f653cb18aad310a9ee7c32d,2,61,6,60,10,30,female,,,,,,1.0,learning,3.0,D,,red,,moons,,,,D,red,moons,,0.0,0.0,1,left,756.5,6.0,1.0,1.0,,,
50,0,,html-keyboard-response,50,281405,0.0-4.4-0.4,xgrcjir2m9,2022-09-19 13:42:32.744,5f653cb18aad310a9ee7c32d,2,61,6,60,10,30,female,,,"<img src=""static/images/cards/stack_of_red_bolts.svg"" width=""175px"" height=""250px""></img>",,,,,,,,,,,,,,,,,,,,,,,,,,,,
51,0,,html-keyboard-response,51,282732,0.0-4.4-1.4,xgrcjir2m9,2022-09-19 13:42:32.744,5f653cb18aad310a9ee7c32d,2,61,6,60,10,30,female,792.2,,"
  <table>
  <tr height=300>
    <td width=300 height=300><img src=""static/images/cards/back_of_red_bolts.svg"" width=""175px"" height=""250px""></img></td>
    <td width=300 height=300><img src=""static/images/cards/back_of_red_bolts.svg"" width=""175px"" height=""250px""></img></td>
  </tr>
  <tr height=200>
    <td width=300><img src=""static/images/keys/z.svg"" width=""35%"" height=""75%""></img></td>
    <td width=300><img src=""static/images/keys/m.svg"" width=""35%"" height=""75%""></img></td>
  </tr>
</table>
  ",77.0,1.0,,,,,,,,,,,,,,,,,,,,,,,,,,
52,0,,html-keyboard-response,52,284247,0.0-4.4-2.4,xgrcjir2m9,2022-09-19 13:42:32.744,5f653cb18aad310a9ee7c32d,2,61,6,60,10,30,female,,,"
  <table>
  <tr height=300>
    <td width=300 height=300><img src=""static/images/cards/back_of_red_bolts.svg"" width=""175px"" height=""250px""></img></td>
    <td width=300 height=300><img src=""static/images/cards/1_of_red_bolts.svg"" width=""175px"" height=""250px""></img></td>
  </tr>
  <tr height=200>
    <td width=300><img src=""static/images/keys/z.svg"" width=""35%"" height=""75%""></img></td>
    <td width=300><img src=""static/images/keys/m.svg"" width=""35%"" height=""75%""></img></td>
  </tr>
</table>
  ",,,,,,,,,,,,,,,,,,,,,,,,,,,,
53,0,,html-keyboard-response,53,285763,0.0-4.4-3.4,xgrcjir2m9,2022-09-19 13:42:32.744,5f653cb18aad310a9ee7c32d,2,61,6,60,10,30,female,,,"<p style=""font-size:50px"">You win!
+10 points this round!</p>",,,,,,,,,,,,,,,,,,,,,,,,,,,,
54,0,,html-keyboard-response,54,286276,0.0-4.4-4.4,xgrcjir2m9,2022-09-19 13:42:32.744,5f653cb18aad310a9ee7c32d,2,61,6,60,10,30,female,,,,,,1.0,learning,4.0,Xc,,red,,bolts,,,,Xc,red,bolts,,1.0,0.0,NA,right,792.2,1.0,0.0,1.0,,,
55,0,,html-keyboard-response,55,287790,0.0-4.5-0.5,xgrcjir2m9,2022-09-19 13:42:32.744,5f653cb18aad310a9ee7c32d,2,61,6,60,10,30,female,,,"<img src=""static/images/cards/stack_of_black_bolts.svg"" width=""175px"" height=""250px""></img>",,,,,,,,,,,,,,,,,,,,,,,,,,,,
56,0,,html-keyboard-response,56,288761,0.0-4.5-1.5,xgrcjir2m9,2022-09-19 13:42:32.744,5f653cb18aad310a9ee7c32d,2,61,6,60,10,30,female,452.6,,"
  <table>
  <tr height=300>
    <td width=300 height=300><img src=""static/images/cards/back_of_black_bolts.svg"" width=""175px"" height=""250px""></img></td>
    <td width=300 height=300><img src=""static/images/cards/back_of_black_bolts.svg"" width=""175px"" height=""250px""></img></td>
  </tr>
  <tr height=200>
    <td width=300></td>
    <td width=300><img src=""static/images/keys/m.svg"" width=""35%"" height=""75%""></img></td>
  </tr>
</table>
  ",77.0,1.0,,,,,,,,,,,,,,,,,,,,,,,,,,
57,0,,html-keyboard-response,57,290271,0.0-4.5-2.5,xgrcjir2m9,2022-09-19 13:42:32.744,5f653cb18aad310a9ee7c32d,2,61,6,60,10,30,female,,,"
  <table>
  <tr height=300>
    <td width=300 height=300><img src=""static/images/cards/back_of_black_bolts.svg"" width=""175px"" height=""250px""></img></td>
    <td width=300 height=300><img src=""static/images/cards/4_of_black_bolts.svg"" width=""175px"" height=""250px""></img></td>
  </tr>
  <tr height=200>
    <td width=300></td>
    <td width=300><img src=""static/images/keys/m.svg"" width=""35%"" height=""75%""></img></td>
  </tr>
</table>
  ",,,,,,,,,,,,,,,,,,,,,,,,,,,,
58,0,,html-keyboard-response,58,291788,0.0-4.5-3.5,xgrcjir2m9,2022-09-19 13:42:32.744,5f653cb18aad310a9ee7c32d,2,61,6,60,10,30,female,,,"<p style=""font-size:50px"">You win!
+10 points this round!</p>",,,,,,,,,,,,,,,,,,,,,,,,,,,,
59,0,,html-keyboard-response,59,292303,0.0-4.5-4.5,xgrcjir2m9,2022-09-19 13:42:32.744,5f653cb18aad310a9ee7c32d,2,61,6,60,10,30,female,,,,,,1.0,learning,5.0,Xnc,,black,,bolts,,,,Xnc,black,bolts,,0.0,0.0,0,right,452.6,4.0,0.0,1.0,,,
60,0,,html-keyboard-response,60,293819,0.0-4.6-0.6,xgrcjir2m9,2022-09-19 13:42:32.744,5f653cb18aad310a9ee7c32d,2,61,6,60,10,30,female,,,"<img src=""static/images/cards/stack_of_black_stars.svg"" width=""175px"" height=""250px""></img>",,,,,,,,,,,,,,,,,,,,,,,,,,,,
61,0,,html-keyboard-response,61,295094,0.0-4.6-1.6,xgrcjir2m9,2022-09-19 13:42:32.744,5f653cb18aad310a9ee7c32d,2,61,6,60,10,30,female,751.8,,"
  <table>
  <tr height=300>
    <td width=300 height=300><img src=""static/images/cards/back_of_black_stars.svg"" width=""175px"" height=""250px""></img></td>
    <td width=300 height=300><img src=""static/images/cards/back_of_black_stars.svg"" width=""175px"" height=""250px""></img></td>
  </tr>
  <tr height=200>
    <td width=300><img src=""static/images/keys/z.svg"" width=""35%"" height=""75%""></img></td>
    <td width=300><img src=""static/images/keys/m.svg"" width=""35%"" height=""75%""></img></td>
  </tr>
</table>
  ",90.0,1.0,,,,,,,,,,,,,,,,,,,,,,,,,,
62,0,,html-keyboard-response,62,296613,0.0-4.6-2.6,xgrcjir2m9,2022-09-19 13:42:32.744,5f653cb18aad310a9ee7c32d,2,61,6,60,10,30,female,,,"
  <table>
  <tr height=300>
    <td width=300 height=300><img src=""static/images/cards/7_of_black_stars.svg"" width=""175px"" height=""250px""></img></td>
    <td width=300 height=300><img src=""static/images/cards/back_of_black_stars.svg"" width=""175px"" height=""250px""></img></td>
  </tr>
  <tr height=200>
    <td width=300><img src=""static/images/keys/z.svg"" width=""35%"" height=""75%""></img></td>
    <td width=300><img src=""static/images/keys/m.svg"" width=""35%"" height=""75%""></img></td>
  </tr>
</table>
  ",,,,,,,,,,,,,,,,,,,,,,,,,,,,
63,0,,html-keyboard-response,63,298132,0.0-4.6-3.6,xgrcjir2m9,2022-09-19 13:42:32.744,5f653cb18aad310a9ee7c32d,2,61,6,60,10,30,female,,,"<p style=""font-size:50px"">You win!
+10 points this round!</p>",,,,,,,,,,,,,,,,,,,,,,,,,,,,
64,0,,html-keyboard-response,64,298645,0.0-4.6-4.6,xgrcjir2m9,2022-09-19 13:42:32.744,5f653cb18aad310a9ee7c32d,2,61,6,60,10,30,female,,,,,,1.0,learning,6.0,A,,black,,stars,,,,A,black,stars,,1.0,1.0,NA,left,751.8,7.0,1.0,1.0,,,
65,0,,html-keyboard-response,65,300161,0.0-4.7-0.7,xgrcjir2m9,2022-09-19 13:42:32.744,5f653cb18aad310a9ee7c32d,2,61,6,60,10,30,female,,,"<img src=""static/images/cards/stack_of_red_stars.svg"" width=""175px"" height=""250px""></img>",,,,,,,,,,,,,,,,,,,,,,,,,,,,
66,0,,html-keyboard-response,66,301156,0.0-4.7-1.7,xgrcjir2m9,2022-09-19 13:42:32.744,5f653cb18aad310a9ee7c32d,2,61,6,60,10,30,female,479.8,,"
  <table>
  <tr height=300>
    <td width=300 height=300><img src=""static/images/cards/back_of_red_stars.svg"" width=""175px"" height=""250px""></img></td>
    <td width=300 height=300><img src=""static/images/cards/back_of_red_stars.svg"" width=""175px"" height=""250px""></img></td>
  </tr>
  <tr height=200>
    <td width=300></td>
    <td width=300><img src=""static/images/keys/m.svg"" width=""35%"" height=""75%""></img></td>
  </tr>
</table>
  ",77.0,1.0,,,,,,,,,,,,,,,,,,,,,,,,,,
67,0,,html-keyboard-response,67,302662,0.0-4.7-2.7,xgrcjir2m9,2022-09-19 13:42:32.744,5f653cb18aad310a9ee7c32d,2,61,6,60,10,30,female,,,"
  <table>
  <tr height=300>
    <td width=300 height=300><img src=""static/images/cards/back_of_red_stars.svg"" width=""175px"" height=""250px""></img></td>
    <td width=300 height=300><img src=""static/images/cards/2_of_red_stars.svg"" width=""175px"" height=""250px""></img></td>
  </tr>
  <tr height=200>
    <td width=300></td>
    <td width=300><img src=""static/images/keys/m.svg"" width=""35%"" height=""75%""></img></td>
  </tr>
</table>
  ",,,,,,,,,,,,,,,,,,,,,,,,,,,,
68,0,,html-keyboard-response,68,304171,0.0-4.7-3.7,xgrcjir2m9,2022-09-19 13:42:32.744,5f653cb18aad310a9ee7c32d,2,61,6,60,10,30,female,,,"<p style=""font-size:50px"">You Lose!
No points this round.</p>",,,,,,,,,,,,,,,,,,,,,,,,,,,,
69,0,,html-keyboard-response,69,304687,0.0-4.7-4.7,xgrcjir2m9,2022-09-19 13:42:32.744,5f653cb18aad310a9ee7c32d,2,61,6,60,10,30,female,,,,,,1.0,learning,7.0,B,,red,,stars,,,,B,red,stars,,0.0,1.0,0,right,479.8,2.0,0.0,0.0,,,
70,0,,html-keyboard-response,70,306211,0.0-4.8-0.8,xgrcjir2m9,2022-09-19 13:42:32.744,5f653cb18aad310a9ee7c32d,2,61,6,60,10,30,female,,,"<img src=""static/images/cards/stack_of_black_moons.svg"" width=""175px"" height=""250px""></img>",,,,,,,,,,,,,,,,,,,,,,,,,,,,
71,0,,html-keyboard-response,71,307286,0.0-4.8-1.8,xgrcjir2m9,2022-09-19 13:42:32.744,5f653cb18aad310a9ee7c32d,2,61,6,60,10,30,female,538.1,,"
  <table>
  <tr height=300>
    <td width=300 height=300><img src=""static/images/cards/back_of_black_moons.svg"" width=""175px"" height=""250px""></img></td>
    <td width=300 height=300><img src=""static/images/cards/back_of_black_moons.svg"" width=""175px"" height=""250px""></img></td>
  </tr>
  <tr height=200>
    <td width=300><img src=""static/images/keys/z.svg"" width=""35%"" height=""75%""></img></td>
    <td width=300><img src=""static/images/keys/m.svg"" width=""35%"" height=""75%""></img></td>
  </tr>
</table>
  ",90.0,1.0,,,,,,,,,,,,,,,,,,,,,,,,,,
72,0,,html-keyboard-response,72,308797,0.0-4.8-2.8,xgrcjir2m9,2022-09-19 13:42:32.744,5f653cb18aad310a9ee7c32d,2,61,6,60,10,30,female,,,"
  <table>
  <tr height=300>
    <td width=300 height=300><img src=""static/images/cards/9_of_black_moons.svg"" width=""175px"" height=""250px""></img></td>
    <td width=300 height=300><img src=""static/images/cards/back_of_black_moons.svg"" width=""175px"" height=""250px""></img></td>
  </tr>
  <tr height=200>
    <td width=300><img src=""static/images/keys/z.svg"" width=""35%"" height=""75%""></img></td>
    <td width=300><img src=""static/images/keys/m.svg"" width=""35%"" height=""75%""></img></td>
  </tr>
</table>
  ",,,,,,,,,,,,,,,,,,,,,,,,,,,,
73,0,,html-keyboard-response,73,310314,0.0-4.8-3.8,xgrcjir2m9,2022-09-19 13:42:32.744,5f653cb18aad310a9ee7c32d,2,61,6,60,10,30,female,,,"<p style=""font-size:50px"">You Lose!
No points this round.</p>",,,,,,,,,,,,,,,,,,,,,,,,,,,,
74,0,,html-keyboard-response,74,310829,0.0-4.8-4.8,xgrcjir2m9,2022-09-19 13:42:32.744,5f653cb18aad310a9ee7c32d,2,61,6,60,10,30,female,,,,,,1.0,learning,8.0,C,,black,,moons,,,,C,black,moons,,1.0,0.0,NA,left,538.1,9.0,1.0,0.0,,,
75,0,,html-keyboard-response,75,312345,0.0-4.9-0.9,xgrcjir2m9,2022-09-19 13:42:32.744,5f653cb18aad310a9ee7c32d,2,61,6,60,10,30,female,,,"<img src=""static/images/cards/stack_of_red_moons.svg"" width=""175px"" height=""250px""></img>",,,,,,,,,,,,,,,,,,,,,,,,,,,,
76,0,,html-keyboard-response,76,313331,0.0-4.9-1.9,xgrcjir2m9,2022-09-19 13:42:32.744,5f653cb18aad310a9ee7c32d,2,61,6,60,10,30,female,477.8,,"
  <table>
  <tr height=300>
    <td width=300 height=300><img src=""static/images/cards/back_of_red_moons.svg"" width=""175px"" height=""250px""></img></td>
    <td width=300 height=300><img src=""static/images/cards/back_of_red_moons.svg"" width=""175px"" height=""250px""></img></td>
  </tr>
  <tr height=200>
    <td width=300><img src=""static/images/keys/z.svg"" width=""35%"" height=""75%""></img></td>
    <td width=300></td>
  </tr>
</table>
  ",90.0,1.0,,,,,,,,,,,,,,,,,,,,,,,,,,
77,0,,html-keyboard-response,77,314842,0.0-4.9-2.9,xgrcjir2m9,2022-09-19 13:42:32.744,5f653cb18aad310a9ee7c32d,2,61,6,60,10,30,female,,,"
  <table>
  <tr height=300>
    <td width=300 height=300><img src=""static/images/cards/1_of_red_moons.svg"" width=""175px"" height=""250px""></img></td>
    <td width=300 height=300><img src=""static/images/cards/back_of_red_moons.svg"" width=""175px"" height=""250px""></img></td>
  </tr>
  <tr height=200>
    <td width=300><img src=""static/images/keys/z.svg"" width=""35%"" height=""75%""></img></td>
    <td width=300></td>
  </tr>
</table>
  ",,,,,,,,,,,,,,,,,,,,,,,,,,,,
78,0,,html-keyboard-response,78,316372,0.0-4.9-3.9,xgrcjir2m9,2022-09-19 13:42:32.744,5f653cb18aad310a9ee7c32d,2,61,6,60,10,30,female,,,"<p style=""font-size:50px"">You win!
+10 points this round!</p>",,,,,,,,,,,,,,,,,,,,,,,,,,,,
79,0,,html-keyboard-response,79,316895,0.0-4.9-4.9,xgrcjir2m9,2022-09-19 13:42:32.744,5f653cb18aad310a9ee7c32d,2,61,6,60,10,30,female,,,,,,1.0,learning,9.0,D,,red,,moons,,,,D,red,moons,,0.0,0.0,1,left,477.8,1.0,0.0,1.0,,,
80,0,,html-keyboard-response,80,318414,0.0-4.10-0.10,xgrcjir2m9,2022-09-19 13:42:32.744,5f653cb18aad310a9ee7c32d,2,61,6,60,10,30,female,,,"<img src=""static/images/cards/stack_of_red_bolts.svg"" width=""175px"" height=""250px""></img>",,,,,,,,,,,,,,,,,,,,,,,,,,,,
81,0,,html-keyboard-response,81,319219,0.0-4.10-1.10,xgrcjir2m9,2022-09-19 13:42:32.744,5f653cb18aad310a9ee7c32d,2,61,6,60,10,30,female,299.9,,"
  <table>
  <tr height=300>
    <td width=300 height=300><img src=""static/images/cards/back_of_red_bolts.svg"" width=""175px"" height=""250px""></img></td>
    <td width=300 height=300><img src=""static/images/cards/back_of_red_bolts.svg"" width=""175px"" height=""250px""></img></td>
  </tr>
  <tr height=200>
    <td width=300><img src=""static/images/keys/z.svg"" width=""35%"" height=""75%""></img></td>
    <td width=300><img src=""static/images/keys/m.svg"" width=""35%"" height=""75%""></img></td>
  </tr>
</table>
  ",77.0,1.0,,,,,,,,,,,,,,,,,,,,,,,,,,
82,0,,html-keyboard-response,82,320737,0.0-4.10-2.10,xgrcjir2m9,2022-09-19 13:42:32.744,5f653cb18aad310a9ee7c32d,2,61,6,60,10,30,female,,,"
  <table>
  <tr height=300>
    <td width=300 height=300><img src=""static/images/cards/back_of_red_bolts.svg"" width=""175px"" height=""250px""></img></td>
    <td width=300 height=300><img src=""static/images/cards/7_of_red_bolts.svg"" width=""175px"" height=""250px""></img></td>
  </tr>
  <tr height=200>
    <td width=300><img src=""static/images/keys/z.svg"" width=""35%"" height=""75%""></img></td>
    <td width=300><img src=""static/images/keys/m.svg"" width=""35%"" height=""75%""></img></td>
  </tr>
</table>
  ",,,,,,,,,,,,,,,,,,,,,,,,,,,,
83,0,,html-keyboard-response,83,322262,0.0-4.10-3.10,xgrcjir2m9,2022-09-19 13:42:32.744,5f653cb18aad310a9ee7c32d,2,61,6,60,10,30,female,,,"<p style=""font-size:50px"">You win!
+10 points this round!</p>",,,,,,,,,,,,,,,,,,,,,,,,,,,,
84,0,,html-keyboard-response,84,322799,0.0-4.10-4.10,xgrcjir2m9,2022-09-19 13:42:32.744,5f653cb18aad310a9ee7c32d,2,61,6,60,10,30,female,,,,,,1.0,learning,10.0,Xc,,red,,bolts,,,,Xc,red,bolts,,1.0,0.0,NA,right,299.9,7.0,1.0,1.0,,,
85,0,,html-keyboard-response,85,324306,0.0-4.11-0.11,xgrcjir2m9,2022-09-19 13:42:32.744,5f653cb18aad310a9ee7c32d,2,61,6,60,10,30,female,,,"<img src=""static/images/cards/stack_of_black_bolts.svg"" width=""175px"" height=""250px""></img>",,,,,,,,,,,,,,,,,,,,,,,,,,,,
86,0,,html-keyboard-response,86,325338,0.0-4.11-1.11,xgrcjir2m9,2022-09-19 13:42:32.744,5f653cb18aad310a9ee7c32d,2,61,6,60,10,30,female,515.7999999999,,"
  <table>
  <tr height=300>
    <td width=300 height=300><img src=""static/images/cards/back_of_black_bolts.svg"" width=""175px"" height=""250px""></img></td>
    <td width=300 height=300><img src=""static/images/cards/back_of_black_bolts.svg"" width=""175px"" height=""250px""></img></td>
  </tr>
  <tr height=200>
    <td width=300></td>
    <td width=300><img src=""static/images/keys/m.svg"" width=""35%"" height=""75%""></img></td>
  </tr>
</table>
  ",77.0,1.0,,,,,,,,,,,,,,,,,,,,,,,,,,
87,0,,html-keyboard-response,87,326851,0.0-4.11-2.11,xgrcjir2m9,2022-09-19 13:42:32.744,5f653cb18aad310a9ee7c32d,2,61,6,60,10,30,female,,,"
  <table>
  <tr height=300>
    <td width=300 height=300><img src=""static/images/cards/back_of_black_bolts.svg"" width=""175px"" height=""250px""></img></td>
    <td width=300 height=300><img src=""static/images/cards/8_of_black_bolts.svg"" width=""175px"" height=""250px""></img></td>
  </tr>
  <tr height=200>
    <td width=300></td>
    <td width=300><img src=""static/images/keys/m.svg"" width=""35%"" height=""75%""></img></td>
  </tr>
</table>
  ",,,,,,,,,,,,,,,,,,,,,,,,,,,,
88,0,,html-keyboard-response,88,328367,0.0-4.11-3.11,xgrcjir2m9,2022-09-19 13:42:32.744,5f653cb18aad310a9ee7c32d,2,61,6,60,10,30,female,,,"<p style=""font-size:50px"">You win!
+10 points this round!</p>",,,,,,,,,,,,,,,,,,,,,,,,,,,,
89,0,,html-keyboard-response,89,328883,0.0-4.11-4.11,xgrcjir2m9,2022-09-19 13:42:32.744,5f653cb18aad310a9ee7c32d,2,61,6,60,10,30,female,,,,,,1.0,learning,11.0,Xnc,,black,,bolts,,,,Xnc,black,bolts,,0.0,0.0,0,right,515.7999999999,8.0,1.0,1.0,,,
90,0,,html-keyboard-response,90,330397,0.0-4.12-0.12,xgrcjir2m9,2022-09-19 13:42:32.744,5f653cb18aad310a9ee7c32d,2,61,6,60,10,30,female,,,"<img src=""static/images/cards/stack_of_black_stars.svg"" width=""175px"" height=""250px""></img>",,,,,,,,,,,,,,,,,,,,,,,,,,,,
91,0,,html-keyboard-response,91,331868,0.0-4.12-1.12,xgrcjir2m9,2022-09-19 13:42:32.744,5f653cb18aad310a9ee7c32d,2,61,6,60,10,30,female,962.0,,"
  <table>
  <tr height=300>
    <td width=300 height=300><img src=""static/images/cards/back_of_black_stars.svg"" width=""175px"" height=""250px""></img></td>
    <td width=300 height=300><img src=""static/images/cards/back_of_black_stars.svg"" width=""175px"" height=""250px""></img></td>
  </tr>
  <tr height=200>
    <td width=300><img src=""static/images/keys/z.svg"" width=""35%"" height=""75%""></img></td>
    <td width=300><img src=""static/images/keys/m.svg"" width=""35%"" height=""75%""></img></td>
  </tr>
</table>
  ",77.0,1.0,,,,,,,,,,,,,,,,,,,,,,,,,,
92,0,,html-keyboard-response,92,333376,0.0-4.12-2.12,xgrcjir2m9,2022-09-19 13:42:32.744,5f653cb18aad310a9ee7c32d,2,61,6,60,10,30,female,,,"
  <table>
  <tr height=300>
    <td width=300 height=300><img src=""static/images/cards/back_of_black_stars.svg"" width=""175px"" height=""250px""></img></td>
    <td width=300 height=300><img src=""static/images/cards/4_of_black_stars.svg"" width=""175px"" height=""250px""></img></td>
  </tr>
  <tr height=200>
    <td width=300><img src=""static/images/keys/z.svg"" width=""35%"" height=""75%""></img></td>
    <td width=300><img src=""static/images/keys/m.svg"" width=""35%"" height=""75%""></img></td>
  </tr>
</table>
  ",,,,,,,,,,,,,,,,,,,,,,,,,,,,
93,0,,html-keyboard-response,93,334886,0.0-4.12-3.12,xgrcjir2m9,2022-09-19 13:42:32.744,5f653cb18aad310a9ee7c32d,2,61,6,60,10,30,female,,,"<p style=""font-size:50px"">You Lose!
No points this round.</p>",,,,,,,,,,,,,,,,,,,,,,,,,,,,
94,0,,html-keyboard-response,94,335404,0.0-4.12-4.12,xgrcjir2m9,2022-09-19 13:42:32.744,5f653cb18aad310a9ee7c32d,2,61,6,60,10,30,female,,,,,,1.0,learning,12.0,A,,black,,stars,,,,A,black,stars,,1.0,1.0,NA,right,962.0,4.0,0.0,0.0,,,
95,0,,html-keyboard-response,95,336912,0.0-4.13-0.13,xgrcjir2m9,2022-09-19 13:42:32.744,5f653cb18aad310a9ee7c32d,2,61,6,60,10,30,female,,,"<img src=""static/images/cards/stack_of_red_stars.svg"" width=""175px"" height=""250px""></img>",,,,,,,,,,,,,,,,,,,,,,,,,,,,
96,0,,html-keyboard-response,96,337972,0.0-4.13-1.13,xgrcjir2m9,2022-09-19 13:42:32.744,5f653cb18aad310a9ee7c32d,2,61,6,60,10,30,female,551.9,,"
  <table>
  <tr height=300>
    <td width=300 height=300><img src=""static/images/cards/back_of_red_stars.svg"" width=""175px"" height=""250px""></img></td>
    <td width=300 height=300><img src=""static/images/cards/back_of_red_stars.svg"" width=""175px"" height=""250px""></img></td>
  </tr>
  <tr height=200>
    <td width=300><img src=""static/images/keys/z.svg"" width=""35%"" height=""75%""></img></td>
    <td width=300></td>
  </tr>
</table>
  ",90.0,1.0,,,,,,,,,,,,,,,,,,,,,,,,,,
97,0,,html-keyboard-response,97,339484,0.0-4.13-2.13,xgrcjir2m9,2022-09-19 13:42:32.744,5f653cb18aad310a9ee7c32d,2,61,6,60,10,30,female,,,"
  <table>
  <tr height=300>
    <td width=300 height=300><img src=""static/images/cards/8_of_red_stars.svg"" width=""175px"" height=""250px""></img></td>
    <td width=300 height=300><img src=""static/images/cards/back_of_red_stars.svg"" width=""175px"" height=""250px""></img></td>
  </tr>
  <tr height=200>
    <td width=300><img src=""static/images/keys/z.svg"" width=""35%"" height=""75%""></img></td>
    <td width=300></td>
  </tr>
</table>
  ",,,,,,,,,,,,,,,,,,,,,,,,,,,,
98,0,,html-keyboard-response,98,341001,0.0-4.13-3.13,xgrcjir2m9,2022-09-19 13:42:32.744,5f653cb18aad310a9ee7c32d,2,61,6,60,10,30,female,,,"<p style=""font-size:50px"">You win!
+10 points this round!</p>",,,,,,,,,,,,,,,,,,,,,,,,,,,,
99,0,,html-keyboard-response,99,341514,0.0-4.13-4.13,xgrcjir2m9,2022-09-19 13:42:32.744,5f653cb18aad310a9ee7c32d,2,61,6,60,10,30,female,,,,,,1.0,learning,13.0,B,,red,,stars,,,,B,red,stars,,0.0,1.0,1,left,551.9,8.0,1.0,1.0,,,
100,0,,html-keyboard-response,100,343030,0.0-4.14-0.14,xgrcjir2m9,2022-09-19 13:42:32.744,5f653cb18aad310a9ee7c32d,2,61,6,60,10,30,female,,,"<img src=""static/images/cards/stack_of_black_moons.svg"" width=""175px"" height=""250px""></img>",,,,,,,,,,,,,,,,,,,,,,,,,,,,
101,0,,html-keyboard-response,101,344296,0.0-4.14-1.14,xgrcjir2m9,2022-09-19 13:42:32.744,5f653cb18aad310a9ee7c32d,2,61,6,60,10,30,female,758.2,,"
  <table>
  <tr height=300>
    <td width=300 height=300><img src=""static/images/cards/back_of_black_moons.svg"" width=""175px"" height=""250px""></img></td>
    <td width=300 height=300><img src=""static/images/cards/back_of_black_moons.svg"" width=""175px"" height=""250px""></img></td>
  </tr>
  <tr height=200>
    <td width=300><img src=""static/images/keys/z.svg"" width=""35%"" height=""75%""></img></td>
    <td width=300><img src=""static/images/keys/m.svg"" width=""35%"" height=""75%""></img></td>
  </tr>
</table>
  ",77.0,1.0,,,,,,,,,,,,,,,,,,,,,,,,,,
102,0,,html-keyboard-response,102,345803,0.0-4.14-2.14,xgrcjir2m9,2022-09-19 13:42:32.744,5f653cb18aad310a9ee7c32d,2,61,6,60,10,30,female,,,"
  <table>
  <tr height=300>
    <td width=300 height=300><img src=""static/images/cards/back_of_black_moons.svg"" width=""175px"" height=""250px""></img></td>
    <td width=300 height=300><img src=""static/images/cards/7_of_black_moons.svg"" width=""175px"" height=""250px""></img></td>
  </tr>
  <tr height=200>
    <td width=300><img src=""static/images/keys/z.svg"" width=""35%"" height=""75%""></img></td>
    <td width=300><img src=""static/images/keys/m.svg"" width=""35%"" height=""75%""></img></td>
  </tr>
</table>
  ",,,,,,,,,,,,,,,,,,,,,,,,,,,,
103,0,,html-keyboard-response,103,347333,0.0-4.14-3.14,xgrcjir2m9,2022-09-19 13:42:32.744,5f653cb18aad310a9ee7c32d,2,61,6,60,10,30,female,,,"<p style=""font-size:50px"">You win!
+10 points this round!</p>",,,,,,,,,,,,,,,,,,,,,,,,,,,,
104,0,,html-keyboard-response,104,347859,0.0-4.14-4.14,xgrcjir2m9,2022-09-19 13:42:32.744,5f653cb18aad310a9ee7c32d,2,61,6,60,10,30,female,,,,,,1.0,learning,14.0,C,,black,,moons,,,,C,black,moons,,1.0,0.0,NA,right,758.2,7.0,1.0,1.0,,,
105,0,,html-keyboard-response,105,349368,0.0-4.15-0.15,xgrcjir2m9,2022-09-19 13:42:32.744,5f653cb18aad310a9ee7c32d,2,61,6,60,10,30,female,,,"<img src=""static/images/cards/stack_of_red_moons.svg"" width=""175px"" height=""250px""></img>",,,,,,,,,,,,,,,,,,,,,,,,,,,,
106,0,,html-keyboard-response,106,350639,0.0-4.15-1.15,xgrcjir2m9,2022-09-19 13:42:32.744,5f653cb18aad310a9ee7c32d,2,61,6,60,10,30,female,761.1000000001,,"
  <table>
  <tr height=300>
    <td width=300 height=300><img src=""static/images/cards/back_of_red_moons.svg"" width=""175px"" height=""250px""></img></td>
    <td width=300 height=300><img src=""static/images/cards/back_of_red_moons.svg"" width=""175px"" height=""250px""></img></td>
  </tr>
  <tr height=200>
    <td width=300><img src=""static/images/keys/z.svg"" width=""35%"" height=""75%""></img></td>
    <td width=300></td>
  </tr>
</table>
  ",90.0,1.0,,,,,,,,,,,,,,,,,,,,,,,,,,
107,0,,html-keyboard-response,107,352144,0.0-4.15-2.15,xgrcjir2m9,2022-09-19 13:42:32.744,5f653cb18aad310a9ee7c32d,2,61,6,60,10,30,female,,,"
  <table>
  <tr height=300>
    <td width=300 height=300><img src=""static/images/cards/1_of_red_moons.svg"" width=""175px"" height=""250px""></img></td>
    <td width=300 height=300><img src=""static/images/cards/back_of_red_moons.svg"" width=""175px"" height=""250px""></img></td>
  </tr>
  <tr height=200>
    <td width=300><img src=""static/images/keys/z.svg"" width=""35%"" height=""75%""></img></td>
    <td width=300></td>
  </tr>
</table>
  ",,,,,,,,,,,,,,,,,,,,,,,,,,,,
108,0,,html-keyboard-response,108,353664,0.0-4.15-3.15,xgrcjir2m9,2022-09-19 13:42:32.744,5f653cb18aad310a9ee7c32d,2,61,6,60,10,30,female,,,"<p style=""font-size:50px"">You win!
+10 points this round!</p>",,,,,,,,,,,,,,,,,,,,,,,,,,,,
109,0,,html-keyboard-response,109,354187,0.0-4.15-4.15,xgrcjir2m9,2022-09-19 13:42:32.744,5f653cb18aad310a9ee7c32d,2,61,6,60,10,30,female,,,,,,1.0,learning,15.0,D,,red,,moons,,,,D,red,moons,,0.0,0.0,1,left,761.1000000001,1.0,0.0,1.0,,,
110,0,,html-keyboard-response,110,356290,0.0-4.16-0.16,xgrcjir2m9,2022-09-19 13:42:32.744,5f653cb18aad310a9ee7c32d,2,61,6,60,10,30,female,,,"<img src=""static/images/cards/stack_of_red_bolts.svg"" width=""175px"" height=""250px""></img>",,,,,,,,,,,,,,,,,,,,,,,,,,,,
111,0,,html-keyboard-response,111,357295,0.0-4.16-1.16,xgrcjir2m9,2022-09-19 13:42:32.744,5f653cb18aad310a9ee7c32d,2,61,6,60,10,30,female,490.3,,"
  <table>
  <tr height=300>
    <td width=300 height=300><img src=""static/images/cards/back_of_red_bolts.svg"" width=""175px"" height=""250px""></img></td>
    <td width=300 height=300><img src=""static/images/cards/back_of_red_bolts.svg"" width=""175px"" height=""250px""></img></td>
  </tr>
  <tr height=200>
    <td width=300><img src=""static/images/keys/z.svg"" width=""35%"" height=""75%""></img></td>
    <td width=300><img src=""static/images/keys/m.svg"" width=""35%"" height=""75%""></img></td>
  </tr>
</table>
  ",77.0,1.0,,,,,,,,,,,,,,,,,,,,,,,,,,
112,0,,html-keyboard-response,112,358811,0.0-4.16-2.16,xgrcjir2m9,2022-09-19 13:42:32.744,5f653cb18aad310a9ee7c32d,2,61,6,60,10,30,female,,,"
  <table>
  <tr height=300>
    <td width=300 height=300><img src=""static/images/cards/back_of_red_bolts.svg"" width=""175px"" height=""250px""></img></td>
    <td width=300 height=300><img src=""static/images/cards/9_of_red_bolts.svg"" width=""175px"" height=""250px""></img></td>
  </tr>
  <tr height=200>
    <td width=300><img src=""static/images/keys/z.svg"" width=""35%"" height=""75%""></img></td>
    <td width=300><img src=""static/images/keys/m.svg"" width=""35%"" height=""75%""></img></td>
  </tr>
</table>
  ",,,,,,,,,,,,,,,,,,,,,,,,,,,,
113,0,,html-keyboard-response,113,360334,0.0-4.16-3.16,xgrcjir2m9,2022-09-19 13:42:32.744,5f653cb18aad310a9ee7c32d,2,61,6,60,10,30,female,,,"<p style=""font-size:50px"">You win!
+10 points this round!</p>",,,,,,,,,,,,,,,,,,,,,,,,,,,,
114,0,,html-keyboard-response,114,360860,0.0-4.16-4.16,xgrcjir2m9,2022-09-19 13:42:32.744,5f653cb18aad310a9ee7c32d,2,61,6,60,10,30,female,,,,,,1.0,learning,16.0,Xc,,red,,bolts,,,,Xc,red,bolts,,1.0,0.0,NA,right,490.3,9.0,1.0,1.0,,,
115,0,,html-keyboard-response,115,362365,0.0-4.17-0.17,xgrcjir2m9,2022-09-19 13:42:32.744,5f653cb18aad310a9ee7c32d,2,61,6,60,10,30,female,,,"<img src=""static/images/cards/stack_of_black_bolts.svg"" width=""175px"" height=""250px""></img>",,,,,,,,,,,,,,,,,,,,,,,,,,,,
116,0,,html-keyboard-response,116,363658,0.0-4.17-1.17,xgrcjir2m9,2022-09-19 13:42:32.744,5f653cb18aad310a9ee7c32d,2,61,6,60,10,30,female,780.8,,"
  <table>
  <tr height=300>
    <td width=300 height=300><img src=""static/images/cards/back_of_black_bolts.svg"" width=""175px"" height=""250px""></img></td>
    <td width=300 height=300><img src=""static/images/cards/back_of_black_bolts.svg"" width=""175px"" height=""250px""></img></td>
  </tr>
  <tr height=200>
    <td width=300><img src=""static/images/keys/z.svg"" width=""35%"" height=""75%""></img></td>
    <td width=300></td>
  </tr>
</table>
  ",90.0,1.0,,,,,,,,,,,,,,,,,,,,,,,,,,
117,0,,html-keyboard-response,117,365202,0.0-4.17-2.17,xgrcjir2m9,2022-09-19 13:42:32.744,5f653cb18aad310a9ee7c32d,2,61,6,60,10,30,female,,,"
  <table>
  <tr height=300>
    <td width=300 height=300><img src=""static/images/cards/8_of_black_bolts.svg"" width=""175px"" height=""250px""></img></td>
    <td width=300 height=300><img src=""static/images/cards/back_of_black_bolts.svg"" width=""175px"" height=""250px""></img></td>
  </tr>
  <tr height=200>
    <td width=300><img src=""static/images/keys/z.svg"" width=""35%"" height=""75%""></img></td>
    <td width=300></td>
  </tr>
</table>
  ",,,,,,,,,,,,,,,,,,,,,,,,,,,,
118,0,,html-keyboard-response,118,366751,0.0-4.17-3.17,xgrcjir2m9,2022-09-19 13:42:32.744,5f653cb18aad310a9ee7c32d,2,61,6,60,10,30,female,,,"<p style=""font-size:50px"">You win!
+10 points this round!</p>",,,,,,,,,,,,,,,,,,,,,,,,,,,,
119,0,,html-keyboard-response,119,367299,0.0-4.17-4.17,xgrcjir2m9,2022-09-19 13:42:32.744,5f653cb18aad310a9ee7c32d,2,61,6,60,10,30,female,,,,,,1.0,learning,17.0,Xnc,,black,,bolts,,,,Xnc,black,bolts,,0.0,0.0,1,left,780.8,8.0,1.0,1.0,,,
120,0,,html-keyboard-response,120,368810,0.0-4.18-0.18,xgrcjir2m9,2022-09-19 13:42:32.744,5f653cb18aad310a9ee7c32d,2,61,6,60,10,30,female,,,"<img src=""static/images/cards/stack_of_black_stars.svg"" width=""175px"" height=""250px""></img>",,,,,,,,,,,,,,,,,,,,,,,,,,,,
121,0,,html-keyboard-response,121,369902,0.0-4.18-1.18,xgrcjir2m9,2022-09-19 13:42:32.744,5f653cb18aad310a9ee7c32d,2,61,6,60,10,30,female,577.0,,"
  <table>
  <tr height=300>
    <td width=300 height=300><img src=""static/images/cards/back_of_black_stars.svg"" width=""175px"" height=""250px""></img></td>
    <td width=300 height=300><img src=""static/images/cards/back_of_black_stars.svg"" width=""175px"" height=""250px""></img></td>
  </tr>
  <tr height=200>
    <td width=300><img src=""static/images/keys/z.svg"" width=""35%"" height=""75%""></img></td>
    <td width=300><img src=""static/images/keys/m.svg"" width=""35%"" height=""75%""></img></td>
  </tr>
</table>
  ",77.0,1.0,,,,,,,,,,,,,,,,,,,,,,,,,,
122,0,,html-keyboard-response,122,371413,0.0-4.18-2.18,xgrcjir2m9,2022-09-19 13:42:32.744,5f653cb18aad310a9ee7c32d,2,61,6,60,10,30,female,,,"
  <table>
  <tr height=300>
    <td width=300 height=300><img src=""static/images/cards/back_of_black_stars.svg"" width=""175px"" height=""250px""></img></td>
    <td width=300 height=300><img src=""static/images/cards/10_of_black_stars.svg"" width=""175px"" height=""250px""></img></td>
  </tr>
  <tr height=200>
    <td width=300><img src=""static/images/keys/z.svg"" width=""35%"" height=""75%""></img></td>
    <td width=300><img src=""static/images/keys/m.svg"" width=""35%"" height=""75%""></img></td>
  </tr>
</table>
  ",,,,,,,,,,,,,,,,,,,,,,,,,,,,
123,0,,html-keyboard-response,123,372930,0.0-4.18-3.18,xgrcjir2m9,2022-09-19 13:42:32.744,5f653cb18aad310a9ee7c32d,2,61,6,60,10,30,female,,,"<p style=""font-size:50px"">You win!
+10 points this round!</p>",,,,,,,,,,,,,,,,,,,,,,,,,,,,
124,0,,html-keyboard-response,124,373455,0.0-4.18-4.18,xgrcjir2m9,2022-09-19 13:42:32.744,5f653cb18aad310a9ee7c32d,2,61,6,60,10,30,female,,,,,,1.0,learning,18.0,A,,black,,stars,,,,A,black,stars,,1.0,1.0,NA,right,577.0,10.0,1.0,1.0,,,
125,0,,html-keyboard-response,125,374965,0.0-4.19-0.19,xgrcjir2m9,2022-09-19 13:42:32.744,5f653cb18aad310a9ee7c32d,2,61,6,60,10,30,female,,,"<img src=""static/images/cards/stack_of_red_stars.svg"" width=""175px"" height=""250px""></img>",,,,,,,,,,,,,,,,,,,,,,,,,,,,
126,0,,html-keyboard-response,126,378499,0.0-4.19-1.19,xgrcjir2m9,2022-09-19 13:42:32.744,5f653cb18aad310a9ee7c32d,2,61,6,60,10,30,female,,,"
  <table>
  <tr height=300>
    <td width=300 height=300><img src=""static/images/cards/back_of_red_stars.svg"" width=""175px"" height=""250px""></img></td>
    <td width=300 height=300><img src=""static/images/cards/back_of_red_stars.svg"" width=""175px"" height=""250px""></img></td>
  </tr>
  <tr height=200>
    <td width=300><img src=""static/images/keys/z.svg"" width=""35%"" height=""75%""></img></td>
    <td width=300></td>
  </tr>
</table>
  ",,,,,,,,,,,,,,,,,,,,,,,,,,,,
127,0,,html-keyboard-response,127,378507,0.0-4.19-2.19,xgrcjir2m9,2022-09-19 13:42:32.744,5f653cb18aad310a9ee7c32d,2,61,6,60,10,30,female,,,,,,,,,,,,,,,,,,,,,,,,,,,,,,,
128,0,,html-keyboard-response,128,380103,0.0-4.19-3.19,xgrcjir2m9,2022-09-19 13:42:32.744,5f653cb18aad310a9ee7c32d,2,61,6,60,10,30,female,,,"<p style=""font-size:50px"">Too slow!</p>",,,,,,,,,,,,,,,,,,,,,,,,,,,,
129,0,,html-keyboard-response,129,380639,0.0-4.19-4.19,xgrcjir2m9,2022-09-19 13:42:32.744,5f653cb18aad310a9ee7c32d,2,61,6,60,10,30,female,,,,,,1.0,learning,19.0,B,,red,,stars,,,,B,red,stars,,0.0,1.0,1,,,10.0,1.0,1.0,,,
130,0,,html-keyboard-response,130,382144,0.0-4.20-0.20,xgrcjir2m9,2022-09-19 13:42:32.744,5f653cb18aad310a9ee7c32d,2,61,6,60,10,30,female,,,"<img src=""static/images/cards/stack_of_black_moons.svg"" width=""175px"" height=""250px""></img>",,,,,,,,,,,,,,,,,,,,,,,,,,,,
131,0,,html-keyboard-response,131,384645,0.0-4.20-1.20,xgrcjir2m9,2022-09-19 13:42:32.744,5f653cb18aad310a9ee7c32d,2,61,6,60,10,30,female,1987.6,,"
  <table>
  <tr height=300>
    <td width=300 height=300><img src=""static/images/cards/back_of_black_moons.svg"" width=""175px"" height=""250px""></img></td>
    <td width=300 height=300><img src=""static/images/cards/back_of_black_moons.svg"" width=""175px"" height=""250px""></img></td>
  </tr>
  <tr height=200>
    <td width=300><img src=""static/images/keys/z.svg"" width=""35%"" height=""75%""></img></td>
    <td width=300><img src=""static/images/keys/m.svg"" width=""35%"" height=""75%""></img></td>
  </tr>
</table>
  ",77.0,1.0,,,,,,,,,,,,,,,,,,,,,,,,,,
132,0,,html-keyboard-response,132,386164,0.0-4.20-2.20,xgrcjir2m9,2022-09-19 13:42:32.744,5f653cb18aad310a9ee7c32d,2,61,6,60,10,30,female,,,"
  <table>
  <tr height=300>
    <td width=300 height=300><img src=""static/images/cards/back_of_black_moons.svg"" width=""175px"" height=""250px""></img></td>
    <td width=300 height=300><img src=""static/images/cards/4_of_black_moons.svg"" width=""175px"" height=""250px""></img></td>
  </tr>
  <tr height=200>
    <td width=300><img src=""static/images/keys/z.svg"" width=""35%"" height=""75%""></img></td>
    <td width=300><img src=""static/images/keys/m.svg"" width=""35%"" height=""75%""></img></td>
  </tr>
</table>
  ",,,,,,,,,,,,,,,,,,,,,,,,,,,,
133,0,,html-keyboard-response,133,387682,0.0-4.20-3.20,xgrcjir2m9,2022-09-19 13:42:32.744,5f653cb18aad310a9ee7c32d,2,61,6,60,10,30,female,,,"<p style=""font-size:50px"">You win!
+10 points this round!</p>",,,,,,,,,,,,,,,,,,,,,,,,,,,,
134,0,,html-keyboard-response,134,388195,0.0-4.20-4.20,xgrcjir2m9,2022-09-19 13:42:32.744,5f653cb18aad310a9ee7c32d,2,61,6,60,10,30,female,,,,,,1.0,learning,20.0,C,,black,,moons,,,,C,black,moons,,1.0,0.0,NA,right,1987.6,4.0,0.0,1.0,,,
135,0,,html-keyboard-response,135,389719,0.0-4.21-0.21,xgrcjir2m9,2022-09-19 13:42:32.744,5f653cb18aad310a9ee7c32d,2,61,6,60,10,30,female,,,"<img src=""static/images/cards/stack_of_red_moons.svg"" width=""175px"" height=""250px""></img>",,,,,,,,,,,,,,,,,,,,,,,,,,,,
136,0,,html-keyboard-response,136,390711,0.0-4.21-1.21,xgrcjir2m9,2022-09-19 13:42:32.744,5f653cb18aad310a9ee7c32d,2,61,6,60,10,30,female,477.7000000001,,"
  <table>
  <tr height=300>
    <td width=300 height=300><img src=""static/images/cards/back_of_red_moons.svg"" width=""175px"" height=""250px""></img></td>
    <td width=300 height=300><img src=""static/images/cards/back_of_red_moons.svg"" width=""175px"" height=""250px""></img></td>
  </tr>
  <tr height=200>
    <td width=300></td>
    <td width=300><img src=""static/images/keys/m.svg"" width=""35%"" height=""75%""></img></td>
  </tr>
</table>
  ",77.0,1.0,,,,,,,,,,,,,,,,,,,,,,,,,,
137,0,,html-keyboard-response,137,392220,0.0-4.21-2.21,xgrcjir2m9,2022-09-19 13:42:32.744,5f653cb18aad310a9ee7c32d,2,61,6,60,10,30,female,,,"
  <table>
  <tr height=300>
    <td width=300 height=300><img src=""static/images/cards/back_of_red_moons.svg"" width=""175px"" height=""250px""></img></td>
    <td width=300 height=300><img src=""static/images/cards/7_of_red_moons.svg"" width=""175px"" height=""250px""></img></td>
  </tr>
  <tr height=200>
    <td width=300></td>
    <td width=300><img src=""static/images/keys/m.svg"" width=""35%"" height=""75%""></img></td>
  </tr>
</table>
  ",,,,,,,,,,,,,,,,,,,,,,,,,,,,
138,0,,html-keyboard-response,138,393738,0.0-4.21-3.21,xgrcjir2m9,2022-09-19 13:42:32.744,5f653cb18aad310a9ee7c32d,2,61,6,60,10,30,female,,,"<p style=""font-size:50px"">You win!
+10 points this round!</p>",,,,,,,,,,,,,,,,,,,,,,,,,,,,
139,0,,html-keyboard-response,139,394284,0.0-4.21-4.21,xgrcjir2m9,2022-09-19 13:42:32.744,5f653cb18aad310a9ee7c32d,2,61,6,60,10,30,female,,,,,,1.0,learning,21.0,D,,red,,moons,,,,D,red,moons,,0.0,0.0,0,right,477.7000000001,7.0,1.0,1.0,,,
140,0,,html-keyboard-response,140,395801,0.0-4.22-0.22,xgrcjir2m9,2022-09-19 13:42:32.744,5f653cb18aad310a9ee7c32d,2,61,6,60,10,30,female,,,"<img src=""static/images/cards/stack_of_red_bolts.svg"" width=""175px"" height=""250px""></img>",,,,,,,,,,,,,,,,,,,,,,,,,,,,
141,0,,html-keyboard-response,141,397372,0.0-4.22-1.22,xgrcjir2m9,2022-09-19 13:42:32.744,5f653cb18aad310a9ee7c32d,2,61,6,60,10,30,female,1064.2999999999,,"
  <table>
  <tr height=300>
    <td width=300 height=300><img src=""static/images/cards/back_of_red_bolts.svg"" width=""175px"" height=""250px""></img></td>
    <td width=300 height=300><img src=""static/images/cards/back_of_red_bolts.svg"" width=""175px"" height=""250px""></img></td>
  </tr>
  <tr height=200>
    <td width=300><img src=""static/images/keys/z.svg"" width=""35%"" height=""75%""></img></td>
    <td width=300><img src=""static/images/keys/m.svg"" width=""35%"" height=""75%""></img></td>
  </tr>
</table>
  ",77.0,1.0,,,,,,,,,,,,,,,,,,,,,,,,,,
142,0,,html-keyboard-response,142,398887,0.0-4.22-2.22,xgrcjir2m9,2022-09-19 13:42:32.744,5f653cb18aad310a9ee7c32d,2,61,6,60,10,30,female,,,"
  <table>
  <tr height=300>
    <td width=300 height=300><img src=""static/images/cards/back_of_red_bolts.svg"" width=""175px"" height=""250px""></img></td>
    <td width=300 height=300><img src=""static/images/cards/2_of_red_bolts.svg"" width=""175px"" height=""250px""></img></td>
  </tr>
  <tr height=200>
    <td width=300><img src=""static/images/keys/z.svg"" width=""35%"" height=""75%""></img></td>
    <td width=300><img src=""static/images/keys/m.svg"" width=""35%"" height=""75%""></img></td>
  </tr>
</table>
  ",,,,,,,,,,,,,,,,,,,,,,,,,,,,
143,0,,html-keyboard-response,143,400404,0.0-4.22-3.22,xgrcjir2m9,2022-09-19 13:42:32.744,5f653cb18aad310a9ee7c32d,2,61,6,60,10,30,female,,,"<p style=""font-size:50px"">You win!
+10 points this round!</p>",,,,,,,,,,,,,,,,,,,,,,,,,,,,
144,0,,html-keyboard-response,144,400934,0.0-4.22-4.22,xgrcjir2m9,2022-09-19 13:42:32.744,5f653cb18aad310a9ee7c32d,2,61,6,60,10,30,female,,,,,,1.0,learning,22.0,Xc,,red,,bolts,,,,Xc,red,bolts,,1.0,0.0,NA,right,1064.2999999999,2.0,0.0,1.0,,,
145,0,,html-keyboard-response,145,402437,0.0-4.23-0.23,xgrcjir2m9,2022-09-19 13:42:32.744,5f653cb18aad310a9ee7c32d,2,61,6,60,10,30,female,,,"<img src=""static/images/cards/stack_of_black_bolts.svg"" width=""175px"" height=""250px""></img>",,,,,,,,,,,,,,,,,,,,,,,,,,,,
146,0,,html-keyboard-response,146,403408,0.0-4.23-1.23,xgrcjir2m9,2022-09-19 13:42:32.744,5f653cb18aad310a9ee7c32d,2,61,6,60,10,30,female,460.2000000001,,"
  <table>
  <tr height=300>
    <td width=300 height=300><img src=""static/images/cards/back_of_black_bolts.svg"" width=""175px"" height=""250px""></img></td>
    <td width=300 height=300><img src=""static/images/cards/back_of_black_bolts.svg"" width=""175px"" height=""250px""></img></td>
  </tr>
  <tr height=200>
    <td width=300></td>
    <td width=300><img src=""static/images/keys/m.svg"" width=""35%"" height=""75%""></img></td>
  </tr>
</table>
  ",77.0,1.0,,,,,,,,,,,,,,,,,,,,,,,,,,
147,0,,html-keyboard-response,147,404925,0.0-4.23-2.23,xgrcjir2m9,2022-09-19 13:42:32.744,5f653cb18aad310a9ee7c32d,2,61,6,60,10,30,female,,,"
  <table>
  <tr height=300>
    <td width=300 height=300><img src=""static/images/cards/back_of_black_bolts.svg"" width=""175px"" height=""250px""></img></td>
    <td width=300 height=300><img src=""static/images/cards/1_of_black_bolts.svg"" width=""175px"" height=""250px""></img></td>
  </tr>
  <tr height=200>
    <td width=300></td>
    <td width=300><img src=""static/images/keys/m.svg"" width=""35%"" height=""75%""></img></td>
  </tr>
</table>
  ",,,,,,,,,,,,,,,,,,,,,,,,,,,,
148,0,,html-keyboard-response,148,406433,0.0-4.23-3.23,xgrcjir2m9,2022-09-19 13:42:32.744,5f653cb18aad310a9ee7c32d,2,61,6,60,10,30,female,,,"<p style=""font-size:50px"">You win!
+10 points this round!</p>",,,,,,,,,,,,,,,,,,,,,,,,,,,,
149,0,,html-keyboard-response,149,406956,0.0-4.23-4.23,xgrcjir2m9,2022-09-19 13:42:32.744,5f653cb18aad310a9ee7c32d,2,61,6,60,10,30,female,,,,,,1.0,learning,23.0,Xnc,,black,,bolts,,,,Xnc,black,bolts,,0.0,0.0,0,right,460.2000000001,1.0,0.0,1.0,,,
150,0,,call-function,150,406983,0.0-5.0,xgrcjir2m9,2022-09-19 13:42:32.744,5f653cb18aad310a9ee7c32d,2,61,6,60,10,30,female,,,,,,,,,,,,,,,,,,,,,,,,,,,,,,,
151,0,,image-keyboard-response,151,421194,0.0-6.0-0.0,xgrcjir2m9,2022-09-19 13:42:32.744,5f653cb18aad310a9ee7c32d,2,61,6,60,10,30,female,14209.5,,static/images/instructions_CB_2/Slide20.png,39.0,,,,,,,,,,,,,,,,,,,,,,,,,,,
152,0,,image-keyboard-response,152,444165,0.0-6.1-0.1,xgrcjir2m9,2022-09-19 13:42:32.744,5f653cb18aad310a9ee7c32d,2,61,6,60,10,30,female,22966.7,,static/images/instructions_CB_2/Slide21.png,39.0,,,,,,,,,,,,,,,,,,,,,,,,,,,
153,0,,image-keyboard-response,153,451348,0.0-6.2-0.2,xgrcjir2m9,2022-09-19 13:42:32.744,5f653cb18aad310a9ee7c32d,2,61,6,60,10,30,female,7179.4000000001,,static/images/instructions_CB_2/Slide22.png,39.0,,,,,,,,,,,,,,,,,,,,,,,,,,,
154,0,,image-keyboard-response,154,461749,0.0-6.3-0.3,xgrcjir2m9,2022-09-19 13:42:32.744,5f653cb18aad310a9ee7c32d,2,61,6,60,10,30,female,10398.7,,static/images/instructions_CB_2/Slide23.png,39.0,,,,,,,,,,,,,,,,,,,,,,,,,,,
155,0,,image-keyboard-response,155,464608,0.0-6.4-0.4,xgrcjir2m9,2022-09-19 13:42:32.744,5f653cb18aad310a9ee7c32d,2,61,6,60,10,30,female,2854.7,,static/images/instructions_CB_2/Slide24.png,39.0,,,,,,,,,,,,,,,,,,,,,,,,,,,
156,0,,html-keyboard-response,156,467452,0.0-7.0-0.0,xgrcjir2m9,2022-09-19 13:42:32.744,5f653cb18aad310a9ee7c32d,2,61,6,60,10,30,female,2839.2,,"
  <table>
  <tr height=300>
    <td width=300 height=300><img src=""static/images/cards/stack_of_red_stars.svg"" width=""175px"" height=""250px""></img></td>
    <td width=300 height=300><img src=""static/images/cards/stack_of_black_stars.svg"" width=""175px"" height=""250px""></img></td>
  </tr>
  <tr height=200>
    <td width=300><img src=""static/images/keys/w.svg"" width=""35%"" height=""75%""></img></td>
    <td width=300><img src=""static/images/keys/o.svg"" width=""35%"" height=""75%""></img></td>
  </tr>
</table>
  ",79.0,1.0,,,,,,,,,,,,,,,,,,,,,,,,,,
157,0,,html-keyboard-response,157,468778,0.0-7.0-1.0,xgrcjir2m9,2022-09-19 13:42:32.744,5f653cb18aad310a9ee7c32d,2,61,6,60,10,30,female,811.0,,"
  <table>
  <tr height=300>
    <td width=300 height=300><img src=""static/images/cards/back_of_black_stars.svg"" width=""175px"" height=""250px""></img></td>
    <td width=300 height=300><img src=""static/images/cards/back_of_black_stars.svg"" width=""175px"" height=""250px""></img></td>
  </tr>
  <tr height=200>
    <td width=300><img src=""static/images/keys/z.svg"" width=""35%"" height=""75%""></img></td>
    <td width=300><img src=""static/images/keys/m.svg"" width=""35%"" height=""75%""></img></td>
  </tr>
</table>
  ",77.0,1.0,,,,,,,,,,,,,,,,,,,,,,,,,,
158,0,,html-keyboard-response,158,470311,0.0-7.0-2.0,xgrcjir2m9,2022-09-19 13:42:32.744,5f653cb18aad310a9ee7c32d,2,61,6,60,10,30,female,,,"
  <table>
  <tr height=300>
    <td width=300 height=300><img src=""static/images/cards/back_of_black_stars.svg"" width=""175px"" height=""250px""></img></td>
    <td width=300 height=300><img src=""static/images/cards/3_of_black_stars.svg"" width=""175px"" height=""250px""></img></td>
  </tr>
  <tr height=200>
    <td width=300><img src=""static/images/keys/z.svg"" width=""35%"" height=""75%""></img></td>
    <td width=300><img src=""static/images/keys/m.svg"" width=""35%"" height=""75%""></img></td>
  </tr>
</table>
  ",,,,,,,,,,,,,,,,,,,,,,,,,,,,
159,0,,html-keyboard-response,159,471902,0.0-7.0-3.0,xgrcjir2m9,2022-09-19 13:42:32.744,5f653cb18aad310a9ee7c32d,2,61,6,60,10,30,female,,,"<p style=""font-size:50px"">You Lose!
No points this round.</p>",,,,,,,,,,,,,,,,,,,,,,,,,,,,
160,0,,html-keyboard-response,160,472478,0.0-7.0-4.0,xgrcjir2m9,2022-09-19 13:42:32.744,5f653cb18aad310a9ee7c32d,2,61,6,60,10,30,female,,,,,,1.0,choice,0.0,A,B,red,black,stars,stars,B,A,A,black,stars,2839.2,1.0,1.0,NA,right,811.0,3.0,0.0,0.0,,,
161,0,,html-keyboard-response,161,474685,0.0-7.1-0.1,xgrcjir2m9,2022-09-19 13:42:32.744,5f653cb18aad310a9ee7c32d,2,61,6,60,10,30,female,2203.7000000002,,"
  <table>
  <tr height=300>
    <td width=300 height=300><img src=""static/images/cards/stack_of_black_moons.svg"" width=""175px"" height=""250px""></img></td>
    <td width=300 height=300><img src=""static/images/cards/stack_of_black_bolts.svg"" width=""175px"" height=""250px""></img></td>
  </tr>
  <tr height=200>
    <td width=300><img src=""static/images/keys/w.svg"" width=""35%"" height=""75%""></img></td>
    <td width=300><img src=""static/images/keys/o.svg"" width=""35%"" height=""75%""></img></td>
  </tr>
</table>
  ",79.0,2.0,,,,,,,,,,,,,,,,,,,,,,,,,,
162,0,,html-keyboard-response,162,476289,0.0-7.1-1.1,xgrcjir2m9,2022-09-19 13:42:32.744,5f653cb18aad310a9ee7c32d,2,61,6,60,10,30,female,1084.0,,"
  <table>
  <tr height=300>
    <td width=300 height=300><img src=""static/images/cards/back_of_black_bolts.svg"" width=""175px"" height=""250px""></img></td>
    <td width=300 height=300><img src=""static/images/cards/back_of_black_bolts.svg"" width=""175px"" height=""250px""></img></td>
  </tr>
  <tr height=200>
    <td width=300></td>
    <td width=300><img src=""static/images/keys/m.svg"" width=""35%"" height=""75%""></img></td>
  </tr>
</table>
  ",77.0,1.0,,,,,,,,,,,,,,,,,,,,,,,,,,
163,0,,html-keyboard-response,163,477806,0.0-7.1-2.1,xgrcjir2m9,2022-09-19 13:42:32.744,5f653cb18aad310a9ee7c32d,2,61,6,60,10,30,female,,,"
  <table>
  <tr height=300>
    <td width=300 height=300><img src=""static/images/cards/back_of_black_bolts.svg"" width=""175px"" height=""250px""></img></td>
    <td width=300 height=300><img src=""static/images/cards/2_of_black_bolts.svg"" width=""175px"" height=""250px""></img></td>
  </tr>
  <tr height=200>
    <td width=300></td>
    <td width=300><img src=""static/images/keys/m.svg"" width=""35%"" height=""75%""></img></td>
  </tr>
</table>
  ",,,,,,,,,,,,,,,,,,,,,,,,,,,,
164,0,,html-keyboard-response,164,479361,0.0-7.1-3.1,xgrcjir2m9,2022-09-19 13:42:32.744,5f653cb18aad310a9ee7c32d,2,61,6,60,10,30,female,,,"<p style=""font-size:50px"">You win!
+10 points this round!</p>",,,,,,,,,,,,,,,,,,,,,,,,,,,,
165,0,,html-keyboard-response,165,479899,0.0-7.1-4.1,xgrcjir2m9,2022-09-19 13:42:32.744,5f653cb18aad310a9ee7c32d,2,61,6,60,10,30,female,,,,,,1.0,choice,1.0,C,Xnc,black,black,moons,bolts,C,Xnc,Xnc,black,bolts,2203.7000000002,0.0,0.0,0,right,1084.0,2.0,0.0,1.0,,,
166,0,,html-keyboard-response,166,482102,0.0-7.2-0.2,xgrcjir2m9,2022-09-19 13:42:32.744,5f653cb18aad310a9ee7c32d,2,61,6,60,10,30,female,2197.8,,"
  <table>
  <tr height=300>
    <td width=300 height=300><img src=""static/images/cards/stack_of_black_stars.svg"" width=""175px"" height=""250px""></img></td>
    <td width=300 height=300><img src=""static/images/cards/stack_of_black_moons.svg"" width=""175px"" height=""250px""></img></td>
  </tr>
  <tr height=200>
    <td width=300><img src=""static/images/keys/w.svg"" width=""35%"" height=""75%""></img></td>
    <td width=300><img src=""static/images/keys/o.svg"" width=""35%"" height=""75%""></img></td>
  </tr>
</table>
  ",79.0,1.0,,,,,,,,,,,,,,,,,,,,,,,,,,
167,0,,html-keyboard-response,167,483959,0.0-7.2-1.2,xgrcjir2m9,2022-09-19 13:42:32.744,5f653cb18aad310a9ee7c32d,2,61,6,60,10,30,female,1347.9000000001,,"
  <table>
  <tr height=300>
    <td width=300 height=300><img src=""static/images/cards/back_of_black_moons.svg"" width=""175px"" height=""250px""></img></td>
    <td width=300 height=300><img src=""static/images/cards/back_of_black_moons.svg"" width=""175px"" height=""250px""></img></td>
  </tr>
  <tr height=200>
    <td width=300><img src=""static/images/keys/z.svg"" width=""35%"" height=""75%""></img></td>
    <td width=300><img src=""static/images/keys/m.svg"" width=""35%"" height=""75%""></img></td>
  </tr>
</table>
  ",77.0,1.0,,,,,,,,,,,,,,,,,,,,,,,,,,
168,0,,html-keyboard-response,168,485472,0.0-7.2-2.2,xgrcjir2m9,2022-09-19 13:42:32.744,5f653cb18aad310a9ee7c32d,2,61,6,60,10,30,female,,,"
  <table>
  <tr height=300>
    <td width=300 height=300><img src=""static/images/cards/back_of_black_moons.svg"" width=""175px"" height=""250px""></img></td>
    <td width=300 height=300><img src=""static/images/cards/4_of_black_moons.svg"" width=""175px"" height=""250px""></img></td>
  </tr>
  <tr height=200>
    <td width=300><img src=""static/images/keys/z.svg"" width=""35%"" height=""75%""></img></td>
    <td width=300><img src=""static/images/keys/m.svg"" width=""35%"" height=""75%""></img></td>
  </tr>
</table>
  ",,,,,,,,,,,,,,,,,,,,,,,,,,,,
169,0,,html-keyboard-response,169,487104,0.0-7.2-3.2,xgrcjir2m9,2022-09-19 13:42:32.744,5f653cb18aad310a9ee7c32d,2,61,6,60,10,30,female,,,"<p style=""font-size:50px"">You win!
+10 points this round!</p>",,,,,,,,,,,,,,,,,,,,,,,,,,,,
170,0,,html-keyboard-response,170,487656,0.0-7.2-4.2,xgrcjir2m9,2022-09-19 13:42:32.744,5f653cb18aad310a9ee7c32d,2,61,6,60,10,30,female,,,,,,1.0,choice,2.0,A,C,black,black,stars,moons,A,C,C,black,moons,2197.8,1.0,0.0,NA,right,1347.9000000001,4.0,0.0,1.0,,,
171,0,,html-keyboard-response,171,488969,0.0-7.3-0.3,xgrcjir2m9,2022-09-19 13:42:32.744,5f653cb18aad310a9ee7c32d,2,61,6,60,10,30,female,1291.2,,"
  <table>
  <tr height=300>
    <td width=300 height=300><img src=""static/images/cards/stack_of_black_moons.svg"" width=""175px"" height=""250px""></img></td>
    <td width=300 height=300><img src=""static/images/cards/stack_of_red_stars.svg"" width=""175px"" height=""250px""></img></td>
  </tr>
  <tr height=200>
    <td width=300><img src=""static/images/keys/w.svg"" width=""35%"" height=""75%""></img></td>
    <td width=300><img src=""static/images/keys/o.svg"" width=""35%"" height=""75%""></img></td>
  </tr>
</table>
  ",79.0,1.0,,,,,,,,,,,,,,,,,,,,,,,,,,
172,0,,html-keyboard-response,172,490283,0.0-7.3-1.3,xgrcjir2m9,2022-09-19 13:42:32.744,5f653cb18aad310a9ee7c32d,2,61,6,60,10,30,female,786.5,,"
  <table>
  <tr height=300>
    <td width=300 height=300><img src=""static/images/cards/back_of_red_stars.svg"" width=""175px"" height=""250px""></img></td>
    <td width=300 height=300><img src=""static/images/cards/back_of_red_stars.svg"" width=""175px"" height=""250px""></img></td>
  </tr>
  <tr height=200>
    <td width=300></td>
    <td width=300><img src=""static/images/keys/m.svg"" width=""35%"" height=""75%""></img></td>
  </tr>
</table>
  ",77.0,1.0,,,,,,,,,,,,,,,,,,,,,,,,,,
173,0,,html-keyboard-response,173,491831,0.0-7.3-2.3,xgrcjir2m9,2022-09-19 13:42:32.744,5f653cb18aad310a9ee7c32d,2,61,6,60,10,30,female,,,"
  <table>
  <tr height=300>
    <td width=300 height=300><img src=""static/images/cards/back_of_red_stars.svg"" width=""175px"" height=""250px""></img></td>
    <td width=300 height=300><img src=""static/images/cards/1_of_red_stars.svg"" width=""175px"" height=""250px""></img></td>
  </tr>
  <tr height=200>
    <td width=300></td>
    <td width=300><img src=""static/images/keys/m.svg"" width=""35%"" height=""75%""></img></td>
  </tr>
</table>
  ",,,,,,,,,,,,,,,,,,,,,,,,,,,,
174,0,,html-keyboard-response,174,493408,0.0-7.3-3.3,xgrcjir2m9,2022-09-19 13:42:32.744,5f653cb18aad310a9ee7c32d,2,61,6,60,10,30,female,,,"<p style=""font-size:50px"">You Lose!
No points this round.</p>",,,,,,,,,,,,,,,,,,,,,,,,,,,,
175,0,,html-keyboard-response,175,493981,0.0-7.3-4.3,xgrcjir2m9,2022-09-19 13:42:32.744,5f653cb18aad310a9ee7c32d,2,61,6,60,10,30,female,,,,,,1.0,choice,3.0,B,C,black,red,moons,stars,C,B,B,red,stars,1291.2,0.0,1.0,0,right,786.5,1.0,0.0,0.0,,,
176,0,,html-keyboard-response,176,495371,0.0-7.4-0.4,xgrcjir2m9,2022-09-19 13:42:32.744,5f653cb18aad310a9ee7c32d,2,61,6,60,10,30,female,1387.2000000002,,"
  <table>
  <tr height=300>
    <td width=300 height=300><img src=""static/images/cards/stack_of_black_stars.svg"" width=""175px"" height=""250px""></img></td>
    <td width=300 height=300><img src=""static/images/cards/stack_of_red_moons.svg"" width=""175px"" height=""250px""></img></td>
  </tr>
  <tr height=200>
    <td width=300><img src=""static/images/keys/w.svg"" width=""35%"" height=""75%""></img></td>
    <td width=300><img src=""static/images/keys/o.svg"" width=""35%"" height=""75%""></img></td>
  </tr>
</table>
  ",87.0,1.0,,,,,,,,,,,,,,,,,,,,,,,,,,
177,0,,html-keyboard-response,177,497578,0.0-7.4-1.4,xgrcjir2m9,2022-09-19 13:42:32.744,5f653cb18aad310a9ee7c32d,2,61,6,60,10,30,female,1631.0,,"
  <table>
  <tr height=300>
    <td width=300 height=300><img src=""static/images/cards/back_of_black_stars.svg"" width=""175px"" height=""250px""></img></td>
    <td width=300 height=300><img src=""static/images/cards/back_of_black_stars.svg"" width=""175px"" height=""250px""></img></td>
  </tr>
  <tr height=200>
    <td width=300><img src=""static/images/keys/z.svg"" width=""35%"" height=""75%""></img></td>
    <td width=300><img src=""static/images/keys/m.svg"" width=""35%"" height=""75%""></img></td>
  </tr>
</table>
  ",77.0,1.0,,,,,,,,,,,,,,,,,,,,,,,,,,
178,0,,html-keyboard-response,178,499115,0.0-7.4-2.4,xgrcjir2m9,2022-09-19 13:42:32.744,5f653cb18aad310a9ee7c32d,2,61,6,60,10,30,female,,,"
  <table>
  <tr height=300>
    <td width=300 height=300><img src=""static/images/cards/back_of_black_stars.svg"" width=""175px"" height=""250px""></img></td>
    <td width=300 height=300><img src=""static/images/cards/8_of_black_stars.svg"" width=""175px"" height=""250px""></img></td>
  </tr>
  <tr height=200>
    <td width=300><img src=""static/images/keys/z.svg"" width=""35%"" height=""75%""></img></td>
    <td width=300><img src=""static/images/keys/m.svg"" width=""35%"" height=""75%""></img></td>
  </tr>
</table>
  ",,,,,,,,,,,,,,,,,,,,,,,,,,,,
179,0,,html-keyboard-response,179,500740,0.0-7.4-3.4,xgrcjir2m9,2022-09-19 13:42:32.744,5f653cb18aad310a9ee7c32d,2,61,6,60,10,30,female,,,"<p style=""font-size:50px"">You win!
+10 points this round!</p>",,,,,,,,,,,,,,,,,,,,,,,,,,,,
180,0,,html-keyboard-response,180,501273,0.0-7.4-4.4,xgrcjir2m9,2022-09-19 13:42:32.744,5f653cb18aad310a9ee7c32d,2,61,6,60,10,30,female,,,,,,1.0,choice,4.0,A,D,black,red,stars,moons,A,D,A,black,stars,1387.2000000002,1.0,1.0,NA,right,1631.0,8.0,1.0,1.0,,,
181,0,,html-keyboard-response,181,502462,0.0-7.5-0.5,xgrcjir2m9,2022-09-19 13:42:32.744,5f653cb18aad310a9ee7c32d,2,61,6,60,10,30,female,1103.8,,"
  <table>
  <tr height=300>
    <td width=300 height=300><img src=""static/images/cards/stack_of_black_moons.svg"" width=""175px"" height=""250px""></img></td>
    <td width=300 height=300><img src=""static/images/cards/stack_of_red_moons.svg"" width=""175px"" height=""250px""></img></td>
  </tr>
  <tr height=200>
    <td width=300><img src=""static/images/keys/w.svg"" width=""35%"" height=""75%""></img></td>
    <td width=300><img src=""static/images/keys/o.svg"" width=""35%"" height=""75%""></img></td>
  </tr>
</table>
  ",87.0,1.0,,,,,,,,,,,,,,,,,,,,,,,,,,
182,0,,html-keyboard-response,182,504483,0.0-7.5-1.5,xgrcjir2m9,2022-09-19 13:42:32.744,5f653cb18aad310a9ee7c32d,2,61,6,60,10,30,female,1451.2,,"
  <table>
  <tr height=300>
    <td width=300 height=300><img src=""static/images/cards/back_of_black_moons.svg"" width=""175px"" height=""250px""></img></td>
    <td width=300 height=300><img src=""static/images/cards/back_of_black_moons.svg"" width=""175px"" height=""250px""></img></td>
  </tr>
  <tr height=200>
    <td width=300><img src=""static/images/keys/z.svg"" width=""35%"" height=""75%""></img></td>
    <td width=300><img src=""static/images/keys/m.svg"" width=""35%"" height=""75%""></img></td>
  </tr>
</table>
  ",90.0,1.0,,,,,,,,,,,,,,,,,,,,,,,,,,
183,0,,html-keyboard-response,183,506009,0.0-7.5-2.5,xgrcjir2m9,2022-09-19 13:42:32.744,5f653cb18aad310a9ee7c32d,2,61,6,60,10,30,female,,,"
  <table>
  <tr height=300>
    <td width=300 height=300><img src=""static/images/cards/10_of_black_moons.svg"" width=""175px"" height=""250px""></img></td>
    <td width=300 height=300><img src=""static/images/cards/back_of_black_moons.svg"" width=""175px"" height=""250px""></img></td>
  </tr>
  <tr height=200>
    <td width=300><img src=""static/images/keys/z.svg"" width=""35%"" height=""75%""></img></td>
    <td width=300><img src=""static/images/keys/m.svg"" width=""35%"" height=""75%""></img></td>
  </tr>
</table>
  ",,,,,,,,,,,,,,,,,,,,,,,,,,,,
184,0,,html-keyboard-response,184,507604,0.0-7.5-3.5,xgrcjir2m9,2022-09-19 13:42:32.744,5f653cb18aad310a9ee7c32d,2,61,6,60,10,30,female,,,"<p style=""font-size:50px"">You Lose!
No points this round.</p>",,,,,,,,,,,,,,,,,,,,,,,,,,,,
185,0,,html-keyboard-response,185,508177,0.0-7.5-4.5,xgrcjir2m9,2022-09-19 13:42:32.744,5f653cb18aad310a9ee7c32d,2,61,6,60,10,30,female,,,,,,1.0,choice,5.0,C,D,black,red,moons,moons,C,D,C,black,moons,1103.8,1.0,0.0,NA,left,1451.2,10.0,1.0,0.0,,,
186,0,,html-keyboard-response,186,509321,0.0-7.6-0.6,xgrcjir2m9,2022-09-19 13:42:32.744,5f653cb18aad310a9ee7c32d,2,61,6,60,10,30,female,1140.2,,"
  <table>
  <tr height=300>
    <td width=300 height=300><img src=""static/images/cards/stack_of_black_stars.svg"" width=""175px"" height=""250px""></img></td>
    <td width=300 height=300><img src=""static/images/cards/stack_of_red_stars.svg"" width=""175px"" height=""250px""></img></td>
  </tr>
  <tr height=200>
    <td width=300><img src=""static/images/keys/w.svg"" width=""35%"" height=""75%""></img></td>
    <td width=300><img src=""static/images/keys/o.svg"" width=""35%"" height=""75%""></img></td>
  </tr>
</table>
  ",87.0,1.0,,,,,,,,,,,,,,,,,,,,,,,,,,
187,0,,html-keyboard-response,187,511554,0.0-7.6-1.6,xgrcjir2m9,2022-09-19 13:42:32.744,5f653cb18aad310a9ee7c32d,2,61,6,60,10,30,female,1692.0999999999,,"
  <table>
  <tr height=300>
    <td width=300 height=300><img src=""static/images/cards/back_of_black_stars.svg"" width=""175px"" height=""250px""></img></td>
    <td width=300 height=300><img src=""static/images/cards/back_of_black_stars.svg"" width=""175px"" height=""250px""></img></td>
  </tr>
  <tr height=200>
    <td width=300><img src=""static/images/keys/z.svg"" width=""35%"" height=""75%""></img></td>
    <td width=300><img src=""static/images/keys/m.svg"" width=""35%"" height=""75%""></img></td>
  </tr>
</table>
  ",77.0,1.0,,,,,,,,,,,,,,,,,,,,,,,,,,
188,0,,html-keyboard-response,188,513125,0.0-7.6-2.6,xgrcjir2m9,2022-09-19 13:42:32.744,5f653cb18aad310a9ee7c32d,2,61,6,60,10,30,female,,,"
  <table>
  <tr height=300>
    <td width=300 height=300><img src=""static/images/cards/back_of_black_stars.svg"" width=""175px"" height=""250px""></img></td>
    <td width=300 height=300><img src=""static/images/cards/3_of_black_stars.svg"" width=""175px"" height=""250px""></img></td>
  </tr>
  <tr height=200>
    <td width=300><img src=""static/images/keys/z.svg"" width=""35%"" height=""75%""></img></td>
    <td width=300><img src=""static/images/keys/m.svg"" width=""35%"" height=""75%""></img></td>
  </tr>
</table>
  ",,,,,,,,,,,,,,,,,,,,,,,,,,,,
189,0,,html-keyboard-response,189,514658,0.0-7.6-3.6,xgrcjir2m9,2022-09-19 13:42:32.744,5f653cb18aad310a9ee7c32d,2,61,6,60,10,30,female,,,"<p style=""font-size:50px"">You Lose!
No points this round.</p>",,,,,,,,,,,,,,,,,,,,,,,,,,,,
190,0,,html-keyboard-response,190,515234,0.0-7.6-4.6,xgrcjir2m9,2022-09-19 13:42:32.744,5f653cb18aad310a9ee7c32d,2,61,6,60,10,30,female,,,,,,1.0,choice,6.0,A,B,black,red,stars,stars,A,B,A,black,stars,1140.2,1.0,1.0,NA,right,1692.0999999999,3.0,0.0,0.0,,,
191,0,,html-keyboard-response,191,516682,0.0-7.7-0.7,xgrcjir2m9,2022-09-19 13:42:32.744,5f653cb18aad310a9ee7c32d,2,61,6,60,10,30,female,1444.0,,"
  <table>
  <tr height=300>
    <td width=300 height=300><img src=""static/images/cards/stack_of_red_moons.svg"" width=""175px"" height=""250px""></img></td>
    <td width=300 height=300><img src=""static/images/cards/stack_of_black_moons.svg"" width=""175px"" height=""250px""></img></td>
  </tr>
  <tr height=200>
    <td width=300><img src=""static/images/keys/w.svg"" width=""35%"" height=""75%""></img></td>
    <td width=300><img src=""static/images/keys/o.svg"" width=""35%"" height=""75%""></img></td>
  </tr>
</table>
  ",87.0,1.0,,,,,,,,,,,,,,,,,,,,,,,,,,
192,0,,html-keyboard-response,192,518008,0.0-7.7-1.7,xgrcjir2m9,2022-09-19 13:42:32.744,5f653cb18aad310a9ee7c32d,2,61,6,60,10,30,female,763.3999999999,,"
  <table>
  <tr height=300>
    <td width=300 height=300><img src=""static/images/cards/back_of_red_moons.svg"" width=""175px"" height=""250px""></img></td>
    <td width=300 height=300><img src=""static/images/cards/back_of_red_moons.svg"" width=""175px"" height=""250px""></img></td>
  </tr>
  <tr height=200>
    <td width=300><img src=""static/images/keys/z.svg"" width=""35%"" height=""75%""></img></td>
    <td width=300></td>
  </tr>
</table>
  ",90.0,1.0,,,,,,,,,,,,,,,,,,,,,,,,,,
193,0,,html-keyboard-response,193,519552,0.0-7.7-2.7,xgrcjir2m9,2022-09-19 13:42:32.744,5f653cb18aad310a9ee7c32d,2,61,6,60,10,30,female,,,"
  <table>
  <tr height=300>
    <td width=300 height=300><img src=""static/images/cards/9_of_red_moons.svg"" width=""175px"" height=""250px""></img></td>
    <td width=300 height=300><img src=""static/images/cards/back_of_red_moons.svg"" width=""175px"" height=""250px""></img></td>
  </tr>
  <tr height=200>
    <td width=300><img src=""static/images/keys/z.svg"" width=""35%"" height=""75%""></img></td>
    <td width=300></td>
  </tr>
</table>
  ",,,,,,,,,,,,,,,,,,,,,,,,,,,,
194,0,,html-keyboard-response,194,521122,0.0-7.7-3.7,xgrcjir2m9,2022-09-19 13:42:32.744,5f653cb18aad310a9ee7c32d,2,61,6,60,10,30,female,,,"<p style=""font-size:50px"">You win!
+10 points this round!</p>",,,,,,,,,,,,,,,,,,,,,,,,,,,,
195,0,,html-keyboard-response,195,521792,0.0-7.7-4.7,xgrcjir2m9,2022-09-19 13:42:32.744,5f653cb18aad310a9ee7c32d,2,61,6,60,10,30,female,,,,,,1.0,choice,7.0,C,D,red,black,moons,moons,D,C,D,red,moons,1444.0,0.0,0.0,1,left,763.3999999999,9.0,1.0,1.0,,,
196,0,,html-keyboard-response,196,522574,0.0-7.8-0.8,xgrcjir2m9,2022-09-19 13:42:32.744,5f653cb18aad310a9ee7c32d,2,61,6,60,10,30,female,777.7999999998,,"
  <table>
  <tr height=300>
    <td width=300 height=300><img src=""static/images/cards/stack_of_red_stars.svg"" width=""175px"" height=""250px""></img></td>
    <td width=300 height=300><img src=""static/images/cards/stack_of_black_moons.svg"" width=""175px"" height=""250px""></img></td>
  </tr>
  <tr height=200>
    <td width=300><img src=""static/images/keys/w.svg"" width=""35%"" height=""75%""></img></td>
    <td width=300><img src=""static/images/keys/o.svg"" width=""35%"" height=""75%""></img></td>
  </tr>
</table>
  ",87.0,1.0,,,,,,,,,,,,,,,,,,,,,,,,,,
197,0,,html-keyboard-response,197,523648,0.0-7.8-1.8,xgrcjir2m9,2022-09-19 13:42:32.744,5f653cb18aad310a9ee7c32d,2,61,6,60,10,30,female,520.6000000001,,"
  <table>
  <tr height=300>
    <td width=300 height=300><img src=""static/images/cards/back_of_red_stars.svg"" width=""175px"" height=""250px""></img></td>
    <td width=300 height=300><img src=""static/images/cards/back_of_red_stars.svg"" width=""175px"" height=""250px""></img></td>
  </tr>
  <tr height=200>
    <td width=300><img src=""static/images/keys/z.svg"" width=""35%"" height=""75%""></img></td>
    <td width=300></td>
  </tr>
</table>
  ",90.0,1.0,,,,,,,,,,,,,,,,,,,,,,,,,,
198,0,,html-keyboard-response,198,525195,0.0-7.8-2.8,xgrcjir2m9,2022-09-19 13:42:32.744,5f653cb18aad310a9ee7c32d,2,61,6,60,10,30,female,,,"
  <table>
  <tr height=300>
    <td width=300 height=300><img src=""static/images/cards/1_of_red_stars.svg"" width=""175px"" height=""250px""></img></td>
    <td width=300 height=300><img src=""static/images/cards/back_of_red_stars.svg"" width=""175px"" height=""250px""></img></td>
  </tr>
  <tr height=200>
    <td width=300><img src=""static/images/keys/z.svg"" width=""35%"" height=""75%""></img></td>
    <td width=300></td>
  </tr>
</table>
  ",,,,,,,,,,,,,,,,,,,,,,,,,,,,
199,0,,html-keyboard-response,199,526823,0.0-7.8-3.8,xgrcjir2m9,2022-09-19 13:42:32.744,5f653cb18aad310a9ee7c32d,2,61,6,60,10,30,female,,,"<p style=""font-size:50px"">You Lose!
No points this round.</p>",,,,,,,,,,,,,,,,,,,,,,,,,,,,
200,0,,html-keyboard-response,200,527404,0.0-7.8-4.8,xgrcjir2m9,2022-09-19 13:42:32.744,5f653cb18aad310a9ee7c32d,2,61,6,60,10,30,female,,,,,,1.0,choice,8.0,B,C,red,black,stars,moons,B,C,B,red,stars,777.7999999998,0.0,1.0,1,left,520.6000000001,1.0,0.0,0.0,,,
201,0,,html-keyboard-response,201,528594,0.0-7.9-0.9,xgrcjir2m9,2022-09-19 13:42:32.744,5f653cb18aad310a9ee7c32d,2,61,6,60,10,30,female,1186.0,,"
  <table>
  <tr height=300>
    <td width=300 height=300><img src=""static/images/cards/stack_of_red_stars.svg"" width=""175px"" height=""250px""></img></td>
    <td width=300 height=300><img src=""static/images/cards/stack_of_black_stars.svg"" width=""175px"" height=""250px""></img></td>
  </tr>
  <tr height=200>
    <td width=300><img src=""static/images/keys/w.svg"" width=""35%"" height=""75%""></img></td>
    <td width=300><img src=""static/images/keys/o.svg"" width=""35%"" height=""75%""></img></td>
  </tr>
</table>
  ",87.0,1.0,,,,,,,,,,,,,,,,,,,,,,,,,,
202,0,,html-keyboard-response,202,530322,0.0-7.9-1.9,xgrcjir2m9,2022-09-19 13:42:32.744,5f653cb18aad310a9ee7c32d,2,61,6,60,10,30,female,1206.3,,"
  <table>
  <tr height=300>
    <td width=300 height=300><img src=""static/images/cards/back_of_red_stars.svg"" width=""175px"" height=""250px""></img></td>
    <td width=300 height=300><img src=""static/images/cards/back_of_red_stars.svg"" width=""175px"" height=""250px""></img></td>
  </tr>
  <tr height=200>
    <td width=300><img src=""static/images/keys/z.svg"" width=""35%"" height=""75%""></img></td>
    <td width=300></td>
  </tr>
</table>
  ",90.0,1.0,,,,,,,,,,,,,,,,,,,,,,,,,,
203,0,,html-keyboard-response,203,531843,0.0-7.9-2.9,xgrcjir2m9,2022-09-19 13:42:32.744,5f653cb18aad310a9ee7c32d,2,61,6,60,10,30,female,,,"
  <table>
  <tr height=300>
    <td width=300 height=300><img src=""static/images/cards/2_of_red_stars.svg"" width=""175px"" height=""250px""></img></td>
    <td width=300 height=300><img src=""static/images/cards/back_of_red_stars.svg"" width=""175px"" height=""250px""></img></td>
  </tr>
  <tr height=200>
    <td width=300><img src=""static/images/keys/z.svg"" width=""35%"" height=""75%""></img></td>
    <td width=300></td>
  </tr>
</table>
  ",,,,,,,,,,,,,,,,,,,,,,,,,,,,
204,0,,html-keyboard-response,204,533408,0.0-7.9-3.9,xgrcjir2m9,2022-09-19 13:42:32.744,5f653cb18aad310a9ee7c32d,2,61,6,60,10,30,female,,,"<p style=""font-size:50px"">You Lose!
No points this round.</p>",,,,,,,,,,,,,,,,,,,,,,,,,,,,
205,0,,html-keyboard-response,205,533971,0.0-7.9-4.9,xgrcjir2m9,2022-09-19 13:42:32.744,5f653cb18aad310a9ee7c32d,2,61,6,60,10,30,female,,,,,,1.0,choice,9.0,A,B,red,black,stars,stars,B,A,B,red,stars,1186.0,0.0,1.0,1,left,1206.3,2.0,0.0,0.0,,,
206,0,,html-keyboard-response,206,534565,0.0-7.10-0.10,xgrcjir2m9,2022-09-19 13:42:32.744,5f653cb18aad310a9ee7c32d,2,61,6,60,10,30,female,590.8999999999,,"
  <table>
  <tr height=300>
    <td width=300 height=300><img src=""static/images/cards/stack_of_red_stars.svg"" width=""175px"" height=""250px""></img></td>
    <td width=300 height=300><img src=""static/images/cards/stack_of_red_moons.svg"" width=""175px"" height=""250px""></img></td>
  </tr>
  <tr height=200>
    <td width=300><img src=""static/images/keys/w.svg"" width=""35%"" height=""75%""></img></td>
    <td width=300><img src=""static/images/keys/o.svg"" width=""35%"" height=""75%""></img></td>
  </tr>
</table>
  ",79.0,1.0,,,,,,,,,,,,,,,,,,,,,,,,,,
207,0,,html-keyboard-response,207,536513,0.0-7.10-1.10,xgrcjir2m9,2022-09-19 13:42:32.744,5f653cb18aad310a9ee7c32d,2,61,6,60,10,30,female,1424.8,,"
  <table>
  <tr height=300>
    <td width=300 height=300><img src=""static/images/cards/back_of_red_moons.svg"" width=""175px"" height=""250px""></img></td>
    <td width=300 height=300><img src=""static/images/cards/back_of_red_moons.svg"" width=""175px"" height=""250px""></img></td>
  </tr>
  <tr height=200>
    <td width=300></td>
    <td width=300><img src=""static/images/keys/m.svg"" width=""35%"" height=""75%""></img></td>
  </tr>
</table>
  ",77.0,1.0,,,,,,,,,,,,,,,,,,,,,,,,,,
208,0,,html-keyboard-response,208,538066,0.0-7.10-2.10,xgrcjir2m9,2022-09-19 13:42:32.744,5f653cb18aad310a9ee7c32d,2,61,6,60,10,30,female,,,"
  <table>
  <tr height=300>
    <td width=300 height=300><img src=""static/images/cards/back_of_red_moons.svg"" width=""175px"" height=""250px""></img></td>
    <td width=300 height=300><img src=""static/images/cards/6_of_red_moons.svg"" width=""175px"" height=""250px""></img></td>
  </tr>
  <tr height=200>
    <td width=300></td>
    <td width=300><img src=""static/images/keys/m.svg"" width=""35%"" height=""75%""></img></td>
  </tr>
</table>
  ",,,,,,,,,,,,,,,,,,,,,,,,,,,,
209,0,,html-keyboard-response,209,539740,0.0-7.10-3.10,xgrcjir2m9,2022-09-19 13:42:32.744,5f653cb18aad310a9ee7c32d,2,61,6,60,10,30,female,,,"<p style=""font-size:50px"">You Lose!
No points this round.</p>",,,,,,,,,,,,,,,,,,,,,,,,,,,,
210,0,,html-keyboard-response,210,540329,0.0-7.10-4.10,xgrcjir2m9,2022-09-19 13:42:32.744,5f653cb18aad310a9ee7c32d,2,61,6,60,10,30,female,,,,,,1.0,choice,10.0,B,D,red,red,stars,moons,B,D,D,red,moons,590.8999999999,0.0,0.0,0,right,1424.8,6.0,1.0,0.0,,,
211,0,,html-keyboard-response,211,541278,0.0-7.11-0.11,xgrcjir2m9,2022-09-19 13:42:32.744,5f653cb18aad310a9ee7c32d,2,61,6,60,10,30,female,945.4000000001,,"
  <table>
  <tr height=300>
    <td width=300 height=300><img src=""static/images/cards/stack_of_black_moons.svg"" width=""175px"" height=""250px""></img></td>
    <td width=300 height=300><img src=""static/images/cards/stack_of_red_moons.svg"" width=""175px"" height=""250px""></img></td>
  </tr>
  <tr height=200>
    <td width=300><img src=""static/images/keys/w.svg"" width=""35%"" height=""75%""></img></td>
    <td width=300><img src=""static/images/keys/o.svg"" width=""35%"" height=""75%""></img></td>
  </tr>
</table>
  ",87.0,1.0,,,,,,,,,,,,,,,,,,,,,,,,,,
212,0,,html-keyboard-response,212,544850,0.0-7.11-1.11,xgrcjir2m9,2022-09-19 13:42:32.744,5f653cb18aad310a9ee7c32d,2,61,6,60,10,30,female,,,"
  <table>
  <tr height=300>
    <td width=300 height=300><img src=""static/images/cards/back_of_black_moons.svg"" width=""175px"" height=""250px""></img></td>
    <td width=300 height=300><img src=""static/images/cards/back_of_black_moons.svg"" width=""175px"" height=""250px""></img></td>
  </tr>
  <tr height=200>
    <td width=300><img src=""static/images/keys/z.svg"" width=""35%"" height=""75%""></img></td>
    <td width=300><img src=""static/images/keys/m.svg"" width=""35%"" height=""75%""></img></td>
  </tr>
</table>
  ",,,,,,,,,,,,,,,,,,,,,,,,,,,,
213,0,,html-keyboard-response,213,544855,0.0-7.11-2.11,xgrcjir2m9,2022-09-19 13:42:32.744,5f653cb18aad310a9ee7c32d,2,61,6,60,10,30,female,,,,,,,,,,,,,,,,,,,,,,,,,,,,,,,
214,0,,html-keyboard-response,214,546384,0.0-7.11-3.11,xgrcjir2m9,2022-09-19 13:42:32.744,5f653cb18aad310a9ee7c32d,2,61,6,60,10,30,female,,,"<p style=""font-size:50px"">Too slow!</p>",,,,,,,,,,,,,,,,,,,,,,,,,,,,
215,0,,html-keyboard-response,215,546901,0.0-7.11-4.11,xgrcjir2m9,2022-09-19 13:42:32.744,5f653cb18aad310a9ee7c32d,2,61,6,60,10,30,female,,,,,,1.0,choice,11.0,C,D,black,red,moons,moons,C,D,C,black,moons,945.4000000001,1.0,0.0,NA,,,6.0,1.0,0.0,,,
216,0,,html-keyboard-response,216,548500,0.0-7.12-0.12,xgrcjir2m9,2022-09-19 13:42:32.744,5f653cb18aad310a9ee7c32d,2,61,6,60,10,30,female,1594.0999999999,,"
  <table>
  <tr height=300>
    <td width=300 height=300><img src=""static/images/cards/stack_of_red_moons.svg"" width=""175px"" height=""250px""></img></td>
    <td width=300 height=300><img src=""static/images/cards/stack_of_black_stars.svg"" width=""175px"" height=""250px""></img></td>
  </tr>
  <tr height=200>
    <td width=300><img src=""static/images/keys/w.svg"" width=""35%"" height=""75%""></img></td>
    <td width=300><img src=""static/images/keys/o.svg"" width=""35%"" height=""75%""></img></td>
  </tr>
</table>
  ",87.0,1.0,,,,,,,,,,,,,,,,,,,,,,,,,,
217,0,,html-keyboard-response,217,550140,0.0-7.12-1.12,xgrcjir2m9,2022-09-19 13:42:32.744,5f653cb18aad310a9ee7c32d,2,61,6,60,10,30,female,1133.8999999999,,"
  <table>
  <tr height=300>
    <td width=300 height=300><img src=""static/images/cards/back_of_red_moons.svg"" width=""175px"" height=""250px""></img></td>
    <td width=300 height=300><img src=""static/images/cards/back_of_red_moons.svg"" width=""175px"" height=""250px""></img></td>
  </tr>
  <tr height=200>
    <td width=300></td>
    <td width=300><img src=""static/images/keys/m.svg"" width=""35%"" height=""75%""></img></td>
  </tr>
</table>
  ",77.0,1.0,,,,,,,,,,,,,,,,,,,,,,,,,,
218,0,,html-keyboard-response,218,551686,0.0-7.12-2.12,xgrcjir2m9,2022-09-19 13:42:32.744,5f653cb18aad310a9ee7c32d,2,61,6,60,10,30,female,,,"
  <table>
  <tr height=300>
    <td width=300 height=300><img src=""static/images/cards/back_of_red_moons.svg"" width=""175px"" height=""250px""></img></td>
    <td width=300 height=300><img src=""static/images/cards/1_of_red_moons.svg"" width=""175px"" height=""250px""></img></td>
  </tr>
  <tr height=200>
    <td width=300></td>
    <td width=300><img src=""static/images/keys/m.svg"" width=""35%"" height=""75%""></img></td>
  </tr>
</table>
  ",,,,,,,,,,,,,,,,,,,,,,,,,,,,
219,0,,html-keyboard-response,219,553240,0.0-7.12-3.12,xgrcjir2m9,2022-09-19 13:42:32.744,5f653cb18aad310a9ee7c32d,2,61,6,60,10,30,female,,,"<p style=""font-size:50px"">You Lose!
No points this round.</p>",,,,,,,,,,,,,,,,,,,,,,,,,,,,
220,0,,html-keyboard-response,220,553781,0.0-7.12-4.12,xgrcjir2m9,2022-09-19 13:42:32.744,5f653cb18aad310a9ee7c32d,2,61,6,60,10,30,female,,,,,,1.0,choice,12.0,A,D,red,black,moons,stars,D,A,D,red,moons,1594.0999999999,0.0,0.0,0,right,1133.8999999999,1.0,0.0,0.0,,,
221,0,,html-keyboard-response,221,554543,0.0-7.13-0.13,xgrcjir2m9,2022-09-19 13:42:32.744,5f653cb18aad310a9ee7c32d,2,61,6,60,10,30,female,756.4000000001,,"
  <table>
  <tr height=300>
    <td width=300 height=300><img src=""static/images/cards/stack_of_black_stars.svg"" width=""175px"" height=""250px""></img></td>
    <td width=300 height=300><img src=""static/images/cards/stack_of_red_stars.svg"" width=""175px"" height=""250px""></img></td>
  </tr>
  <tr height=200>
    <td width=300><img src=""static/images/keys/w.svg"" width=""35%"" height=""75%""></img></td>
    <td width=300><img src=""static/images/keys/o.svg"" width=""35%"" height=""75%""></img></td>
  </tr>
</table>
  ",87.0,1.0,,,,,,,,,,,,,,,,,,,,,,,,,,
222,0,,html-keyboard-response,222,556093,0.0-7.13-1.13,xgrcjir2m9,2022-09-19 13:42:32.744,5f653cb18aad310a9ee7c32d,2,61,6,60,10,30,female,1001.5,,"
  <table>
  <tr height=300>
    <td width=300 height=300><img src=""static/images/cards/back_of_black_stars.svg"" width=""175px"" height=""250px""></img></td>
    <td width=300 height=300><img src=""static/images/cards/back_of_black_stars.svg"" width=""175px"" height=""250px""></img></td>
  </tr>
  <tr height=200>
    <td width=300><img src=""static/images/keys/z.svg"" width=""35%"" height=""75%""></img></td>
    <td width=300><img src=""static/images/keys/m.svg"" width=""35%"" height=""75%""></img></td>
  </tr>
</table>
  ",90.0,1.0,,,,,,,,,,,,,,,,,,,,,,,,,,
223,0,,html-keyboard-response,223,557602,0.0-7.13-2.13,xgrcjir2m9,2022-09-19 13:42:32.744,5f653cb18aad310a9ee7c32d,2,61,6,60,10,30,female,,,"
  <table>
  <tr height=300>
    <td width=300 height=300><img src=""static/images/cards/2_of_black_stars.svg"" width=""175px"" height=""250px""></img></td>
    <td width=300 height=300><img src=""static/images/cards/back_of_black_stars.svg"" width=""175px"" height=""250px""></img></td>
  </tr>
  <tr height=200>
    <td width=300><img src=""static/images/keys/z.svg"" width=""35%"" height=""75%""></img></td>
    <td width=300><img src=""static/images/keys/m.svg"" width=""35%"" height=""75%""></img></td>
  </tr>
</table>
  ",,,,,,,,,,,,,,,,,,,,,,,,,,,,
224,0,,html-keyboard-response,224,559137,0.0-7.13-3.13,xgrcjir2m9,2022-09-19 13:42:32.744,5f653cb18aad310a9ee7c32d,2,61,6,60,10,30,female,,,"<p style=""font-size:50px"">You Lose!
No points this round.</p>",,,,,,,,,,,,,,,,,,,,,,,,,,,,
225,0,,html-keyboard-response,225,559676,0.0-7.13-4.13,xgrcjir2m9,2022-09-19 13:42:32.744,5f653cb18aad310a9ee7c32d,2,61,6,60,10,30,female,,,,,,1.0,choice,13.0,A,B,black,red,stars,stars,A,B,A,black,stars,756.4000000001,1.0,1.0,NA,left,1001.5,2.0,0.0,0.0,,,
226,0,,html-keyboard-response,226,560085,0.0-7.14-0.14,xgrcjir2m9,2022-09-19 13:42:32.744,5f653cb18aad310a9ee7c32d,2,61,6,60,10,30,female,404.8,,"
  <table>
  <tr height=300>
    <td width=300 height=300><img src=""static/images/cards/stack_of_black_moons.svg"" width=""175px"" height=""250px""></img></td>
    <td width=300 height=300><img src=""static/images/cards/stack_of_black_stars.svg"" width=""175px"" height=""250px""></img></td>
  </tr>
  <tr height=200>
    <td width=300><img src=""static/images/keys/w.svg"" width=""35%"" height=""75%""></img></td>
    <td width=300><img src=""static/images/keys/o.svg"" width=""35%"" height=""75%""></img></td>
  </tr>
</table>
  ",79.0,1.0,,,,,,,,,,,,,,,,,,,,,,,,,,
227,0,,html-keyboard-response,227,561399,0.0-7.14-1.14,xgrcjir2m9,2022-09-19 13:42:32.744,5f653cb18aad310a9ee7c32d,2,61,6,60,10,30,female,722.4000000001,,"
  <table>
  <tr height=300>
    <td width=300 height=300><img src=""static/images/cards/back_of_black_stars.svg"" width=""175px"" height=""250px""></img></td>
    <td width=300 height=300><img src=""static/images/cards/back_of_black_stars.svg"" width=""175px"" height=""250px""></img></td>
  </tr>
  <tr height=200>
    <td width=300><img src=""static/images/keys/z.svg"" width=""35%"" height=""75%""></img></td>
    <td width=300><img src=""static/images/keys/m.svg"" width=""35%"" height=""75%""></img></td>
  </tr>
</table>
  ",77.0,1.0,,,,,,,,,,,,,,,,,,,,,,,,,,
228,0,,html-keyboard-response,228,562938,0.0-7.14-2.14,xgrcjir2m9,2022-09-19 13:42:32.744,5f653cb18aad310a9ee7c32d,2,61,6,60,10,30,female,,,"
  <table>
  <tr height=300>
    <td width=300 height=300><img src=""static/images/cards/back_of_black_stars.svg"" width=""175px"" height=""250px""></img></td>
    <td width=300 height=300><img src=""static/images/cards/9_of_black_stars.svg"" width=""175px"" height=""250px""></img></td>
  </tr>
  <tr height=200>
    <td width=300><img src=""static/images/keys/z.svg"" width=""35%"" height=""75%""></img></td>
    <td width=300><img src=""static/images/keys/m.svg"" width=""35%"" height=""75%""></img></td>
  </tr>
</table>
  ",,,,,,,,,,,,,,,,,,,,,,,,,,,,
229,0,,html-keyboard-response,229,564456,0.0-7.14-3.14,xgrcjir2m9,2022-09-19 13:42:32.744,5f653cb18aad310a9ee7c32d,2,61,6,60,10,30,female,,,"<p style=""font-size:50px"">You win!
+10 points this round!</p>",,,,,,,,,,,,,,,,,,,,,,,,,,,,
230,0,,html-keyboard-response,230,564972,0.0-7.14-4.14,xgrcjir2m9,2022-09-19 13:42:32.744,5f653cb18aad310a9ee7c32d,2,61,6,60,10,30,female,,,,,,1.0,choice,14.0,A,C,black,black,moons,stars,C,A,A,black,stars,404.8,1.0,1.0,NA,right,722.4000000001,9.0,1.0,1.0,,,
231,0,,html-keyboard-response,231,566147,0.0-7.15-0.15,xgrcjir2m9,2022-09-19 13:42:32.744,5f653cb18aad310a9ee7c32d,2,61,6,60,10,30,female,1169.0999999999,,"
  <table>
  <tr height=300>
    <td width=300 height=300><img src=""static/images/cards/stack_of_black_moons.svg"" width=""175px"" height=""250px""></img></td>
    <td width=300 height=300><img src=""static/images/cards/stack_of_red_stars.svg"" width=""175px"" height=""250px""></img></td>
  </tr>
  <tr height=200>
    <td width=300><img src=""static/images/keys/w.svg"" width=""35%"" height=""75%""></img></td>
    <td width=300><img src=""static/images/keys/o.svg"" width=""35%"" height=""75%""></img></td>
  </tr>
</table>
  ",79.0,1.0,,,,,,,,,,,,,,,,,,,,,,,,,,
232,0,,html-keyboard-response,232,567387,0.0-7.15-1.15,xgrcjir2m9,2022-09-19 13:42:32.744,5f653cb18aad310a9ee7c32d,2,61,6,60,10,30,female,729.8999999999,,"
  <table>
  <tr height=300>
    <td width=300 height=300><img src=""static/images/cards/back_of_red_stars.svg"" width=""175px"" height=""250px""></img></td>
    <td width=300 height=300><img src=""static/images/cards/back_of_red_stars.svg"" width=""175px"" height=""250px""></img></td>
  </tr>
  <tr height=200>
    <td width=300></td>
    <td width=300><img src=""static/images/keys/m.svg"" width=""35%"" height=""75%""></img></td>
  </tr>
</table>
  ",77.0,1.0,,,,,,,,,,,,,,,,,,,,,,,,,,
233,0,,html-keyboard-response,233,568896,0.0-7.15-2.15,xgrcjir2m9,2022-09-19 13:42:32.744,5f653cb18aad310a9ee7c32d,2,61,6,60,10,30,female,,,"
  <table>
  <tr height=300>
    <td width=300 height=300><img src=""static/images/cards/back_of_red_stars.svg"" width=""175px"" height=""250px""></img></td>
    <td width=300 height=300><img src=""static/images/cards/9_of_red_stars.svg"" width=""175px"" height=""250px""></img></td>
  </tr>
  <tr height=200>
    <td width=300></td>
    <td width=300><img src=""static/images/keys/m.svg"" width=""35%"" height=""75%""></img></td>
  </tr>
</table>
  ",,,,,,,,,,,,,,,,,,,,,,,,,,,,
234,0,,html-keyboard-response,234,570454,0.0-7.15-3.15,xgrcjir2m9,2022-09-19 13:42:32.744,5f653cb18aad310a9ee7c32d,2,61,6,60,10,30,female,,,"<p style=""font-size:50px"">You win!
+10 points this round!</p>",,,,,,,,,,,,,,,,,,,,,,,,,,,,
235,0,,html-keyboard-response,235,571043,0.0-7.15-4.15,xgrcjir2m9,2022-09-19 13:42:32.744,5f653cb18aad310a9ee7c32d,2,61,6,60,10,30,female,,,,,,1.0,choice,15.0,B,C,black,red,moons,stars,C,B,B,red,stars,1169.0999999999,0.0,1.0,0,right,729.8999999999,9.0,1.0,1.0,,,
236,0,,html-keyboard-response,236,572647,0.0-7.16-0.16,xgrcjir2m9,2022-09-19 13:42:32.744,5f653cb18aad310a9ee7c32d,2,61,6,60,10,30,female,1577.4000000001,,"
  <table>
  <tr height=300>
    <td width=300 height=300><img src=""static/images/cards/stack_of_red_moons.svg"" width=""175px"" height=""250px""></img></td>
    <td width=300 height=300><img src=""static/images/cards/stack_of_black_moons.svg"" width=""175px"" height=""250px""></img></td>
  </tr>
  <tr height=200>
    <td width=300><img src=""static/images/keys/w.svg"" width=""35%"" height=""75%""></img></td>
    <td width=300><img src=""static/images/keys/o.svg"" width=""35%"" height=""75%""></img></td>
  </tr>
</table>
  ",79.0,1.0,,,,,,,,,,,,,,,,,,,,,,,,,,
237,0,,html-keyboard-response,237,573856,0.0-7.16-1.16,xgrcjir2m9,2022-09-19 13:42:32.744,5f653cb18aad310a9ee7c32d,2,61,6,60,10,30,female,700.7,,"
  <table>
  <tr height=300>
    <td width=300 height=300><img src=""static/images/cards/back_of_black_moons.svg"" width=""175px"" height=""250px""></img></td>
    <td width=300 height=300><img src=""static/images/cards/back_of_black_moons.svg"" width=""175px"" height=""250px""></img></td>
  </tr>
  <tr height=200>
    <td width=300><img src=""static/images/keys/z.svg"" width=""35%"" height=""75%""></img></td>
    <td width=300><img src=""static/images/keys/m.svg"" width=""35%"" height=""75%""></img></td>
  </tr>
</table>
  ",77.0,1.0,,,,,,,,,,,,,,,,,,,,,,,,,,
238,0,,html-keyboard-response,238,575397,0.0-7.16-2.16,xgrcjir2m9,2022-09-19 13:42:32.744,5f653cb18aad310a9ee7c32d,2,61,6,60,10,30,female,,,"
  <table>
  <tr height=300>
    <td width=300 height=300><img src=""static/images/cards/back_of_black_moons.svg"" width=""175px"" height=""250px""></img></td>
    <td width=300 height=300><img src=""static/images/cards/3_of_black_moons.svg"" width=""175px"" height=""250px""></img></td>
  </tr>
  <tr height=200>
    <td width=300><img src=""static/images/keys/z.svg"" width=""35%"" height=""75%""></img></td>
    <td width=300><img src=""static/images/keys/m.svg"" width=""35%"" height=""75%""></img></td>
  </tr>
</table>
  ",,,,,,,,,,,,,,,,,,,,,,,,,,,,
239,0,,html-keyboard-response,239,576921,0.0-7.16-3.16,xgrcjir2m9,2022-09-19 13:42:32.744,5f653cb18aad310a9ee7c32d,2,61,6,60,10,30,female,,,"<p style=""font-size:50px"">You win!
+10 points this round!</p>",,,,,,,,,,,,,,,,,,,,,,,,,,,,
240,0,,html-keyboard-response,240,577435,0.0-7.16-4.16,xgrcjir2m9,2022-09-19 13:42:32.744,5f653cb18aad310a9ee7c32d,2,61,6,60,10,30,female,,,,,,1.0,choice,16.0,C,D,red,black,moons,moons,D,C,C,black,moons,1577.4000000001,1.0,0.0,NA,right,700.7,3.0,0.0,1.0,,,
241,0,,html-keyboard-response,241,578330,0.0-7.17-0.17,xgrcjir2m9,2022-09-19 13:42:32.744,5f653cb18aad310a9ee7c32d,2,61,6,60,10,30,female,892.0,,"
  <table>
  <tr height=300>
