,index,success,trial_type,trial_index,time_elapsed,internal_node_id,subject,date,prol_id,ctbl,sense_of_control_A,sense_of_control_B,sense_of_control_C,sense_of_control_D,age,gender,rt,url,stimulus,key_press,npress,is_data_trial,phase,trial,deck1,deck2,col1,col2,sym1,sym2,deck_l,deck_r,chosen_deck,chosen_col,chosen_sym,deck_rt,choose_choice,mutual_info,hidden_key,chosen_card,card_rt,player_num,win_card,outcome,mock_rating,response,responses
0,0,1.0,fullscreen,0,83754,0.0-0.0,l3qb1i9xs7m,2022-09-16 18:29:11.574,629e10d748005830b9eee9a0,0,72,24,61,1,27,Male,,,,,,,,,,,,,,,,,,,,,,,,,,,,,,,
1,0,,external-html,1,91374,0.0-1.0,l3qb1i9xs7m,2022-09-16 18:29:11.574,629e10d748005830b9eee9a0,0,72,24,61,1,27,Male,7165.1000000238,static/js/sub/consent.html,,,,,,,,,,,,,,,,,,,,,,,,,,,,,
2,0,,call-function,2,91376,0.0-2.0,l3qb1i9xs7m,2022-09-16 18:29:11.574,629e10d748005830b9eee9a0,0,72,24,61,1,27,Male,,,,,,,,,,,,,,,,,,,,,,,,,,,,,,,
3,0,,image-keyboard-response,3,103065,0.0-3.0-0.0,l3qb1i9xs7m,2022-09-16 18:29:11.574,629e10d748005830b9eee9a0,0,72,24,61,1,27,Male,11685.8999999762,,static/images/instructions_CB_0/Slide1.png,39.0,,,,,,,,,,,,,,,,,,,,,,,,,,,
4,0,,image-keyboard-response,4,139560,0.0-3.1-0.1,l3qb1i9xs7m,2022-09-16 18:29:11.574,629e10d748005830b9eee9a0,0,72,24,61,1,27,Male,36494.1999999881,,static/images/instructions_CB_0/Slide2.png,39.0,,,,,,,,,,,,,,,,,,,,,,,,,,,
5,0,,image-keyboard-response,5,145386,0.0-3.2-0.2,l3qb1i9xs7m,2022-09-16 18:29:11.574,629e10d748005830b9eee9a0,0,72,24,61,1,27,Male,5825.1000000238,,static/images/instructions_CB_0/Slide3.png,39.0,,,,,,,,,,,,,,,,,,,,,,,,,,,
6,0,,image-keyboard-response,6,155645,0.0-3.3-0.3,l3qb1i9xs7m,2022-09-16 18:29:11.574,629e10d748005830b9eee9a0,0,72,24,61,1,27,Male,10257.6000000238,,static/images/instructions_CB_0/Slide4.png,39.0,,,,,,,,,,,,,,,,,,,,,,,,,,,
7,0,,image-keyboard-response,7,179921,0.0-3.4-0.4,l3qb1i9xs7m,2022-09-16 18:29:11.574,629e10d748005830b9eee9a0,0,72,24,61,1,27,Male,24275.1000000238,,static/images/instructions_CB_0/Slide5.png,39.0,,,,,,,,,,,,,,,,,,,,,,,,,,,
8,0,,image-keyboard-response,8,184655,0.0-3.5-0.5,l3qb1i9xs7m,2022-09-16 18:29:11.574,629e10d748005830b9eee9a0,0,72,24,61,1,27,Male,4732.4000000358,,static/images/instructions_CB_0/Slide6.png,39.0,,,,,,,,,,,,,,,,,,,,,,,,,,,
9,0,,image-keyboard-response,9,192298,0.0-3.6-0.6,l3qb1i9xs7m,2022-09-16 18:29:11.574,629e10d748005830b9eee9a0,0,72,24,61,1,27,Male,7642.3999999762,,static/images/instructions_CB_0/Slide7.png,39.0,,,,,,,,,,,,,,,,,,,,,,,,,,,
10,0,,image-keyboard-response,10,204199,0.0-3.7-0.7,l3qb1i9xs7m,2022-09-16 18:29:11.574,629e10d748005830b9eee9a0,0,72,24,61,1,27,Male,11900.4000000358,,static/images/instructions_CB_0/Slide8.png,39.0,,,,,,,,,,,,,,,,,,,,,,,,,,,
11,0,,image-keyboard-response,11,214386,0.0-3.8-0.8,l3qb1i9xs7m,2022-09-16 18:29:11.574,629e10d748005830b9eee9a0,0,72,24,61,1,27,Male,10186.3999999762,,static/images/instructions_CB_0/Slide9.png,39.0,,,,,,,,,,,,,,,,,,,,,,,,,,,
12,0,,image-keyboard-response,12,258283,0.0-3.9-0.9,l3qb1i9xs7m,2022-09-16 18:29:11.574,629e10d748005830b9eee9a0,0,72,24,61,1,27,Male,43895.6000000238,,static/images/instructions_CB_0/Slide10.png,39.0,,,,,,,,,,,,,,,,,,,,,,,,,,,
13,0,,image-keyboard-response,13,260578,0.0-3.10-0.10,l3qb1i9xs7m,2022-09-16 18:29:11.574,629e10d748005830b9eee9a0,0,72,24,61,1,27,Male,2294.8000000119,,static/images/instructions_CB_0/Slide11.png,39.0,,,,,,,,,,,,,,,,,,,,,,,,,,,
14,0,,image-keyboard-response,14,282420,0.0-3.11-0.11,l3qb1i9xs7m,2022-09-16 18:29:11.574,629e10d748005830b9eee9a0,0,72,24,61,1,27,Male,21840.5,,static/images/instructions_CB_0/Slide12.png,39.0,,,,,,,,,,,,,,,,,,,,,,,,,,,
15,0,,image-keyboard-response,15,295181,0.0-3.12-0.12,l3qb1i9xs7m,2022-09-16 18:29:11.574,629e10d748005830b9eee9a0,0,72,24,61,1,27,Male,12761.1000000238,,static/images/instructions_CB_0/Slide13.png,39.0,,,,,,,,,,,,,,,,,,,,,,,,,,,
16,0,,image-keyboard-response,16,300989,0.0-3.13-0.13,l3qb1i9xs7m,2022-09-16 18:29:11.574,629e10d748005830b9eee9a0,0,72,24,61,1,27,Male,5807.3000000119,,static/images/instructions_CB_0/Slide14.png,39.0,,,,,,,,,,,,,,,,,,,,,,,,,,,
17,0,,image-keyboard-response,17,312766,0.0-3.14-0.14,l3qb1i9xs7m,2022-09-16 18:29:11.574,629e10d748005830b9eee9a0,0,72,24,61,1,27,Male,11776.4000000358,,static/images/instructions_CB_0/Slide15.png,39.0,,,,,,,,,,,,,,,,,,,,,,,,,,,
18,0,,image-keyboard-response,18,320548,0.0-3.15-0.15,l3qb1i9xs7m,2022-09-16 18:29:11.574,629e10d748005830b9eee9a0,0,72,24,61,1,27,Male,7781.1999999881,,static/images/instructions_CB_0/Slide16.png,39.0,,,,,,,,,,,,,,,,,,,,,,,,,,,
19,0,,image-keyboard-response,19,336752,0.0-3.16-0.16,l3qb1i9xs7m,2022-09-16 18:29:11.574,629e10d748005830b9eee9a0,0,72,24,61,1,27,Male,16202.2999999523,,static/images/instructions_CB_0/Slide17.png,39.0,,,,,,,,,,,,,,,,,,,,,,,,,,,
20,0,,image-keyboard-response,20,367186,0.0-3.17-0.17,l3qb1i9xs7m,2022-09-16 18:29:11.574,629e10d748005830b9eee9a0,0,72,24,61,1,27,Male,30433.8999999762,,static/images/instructions_CB_0/Slide18.png,39.0,,,,,,,,,,,,,,,,,,,,,,,,,,,
21,0,,image-keyboard-response,21,374582,0.0-3.18-0.18,l3qb1i9xs7m,2022-09-16 18:29:11.574,629e10d748005830b9eee9a0,0,72,24,61,1,27,Male,7395.3000000119,,static/images/instructions_CB_0/Slide19.png,39.0,,,,,,,,,,,,,,,,,,,,,,,,,,,
22,0,,html-keyboard-response,22,376086,0.0-4.0-0.0,l3qb1i9xs7m,2022-09-16 18:29:11.574,629e10d748005830b9eee9a0,0,72,24,61,1,27,Male,,,"<img src=""static/images/cards/stack_of_red_stars.svg"" width=""175px"" height=""250px""></img>",,,,,,,,,,,,,,,,,,,,,,,,,,,,
23,0,,html-keyboard-response,23,377140,0.0-4.0-1.0,l3qb1i9xs7m,2022-09-16 18:29:11.574,629e10d748005830b9eee9a0,0,72,24,61,1,27,Male,544.9000000358,,"
  <table>
  <tr height=300>
    <td width=300 height=300><img src=""static/images/cards/back_of_red_stars.svg"" width=""175px"" height=""250px""></img></td>
    <td width=300 height=300><img src=""static/images/cards/back_of_red_stars.svg"" width=""175px"" height=""250px""></img></td>
  </tr>
  <tr height=200>
    <td width=300><img src=""static/images/keys/z.svg"" width=""35%"" height=""75%""></img></td>
    <td width=300><img src=""static/images/keys/m.svg"" width=""35%"" height=""75%""></img></td>
  </tr>
</table>
  ",90.0,1.0,,,,,,,,,,,,,,,,,,,,,,,,,,
24,0,,html-keyboard-response,24,378647,0.0-4.0-2.0,l3qb1i9xs7m,2022-09-16 18:29:11.574,629e10d748005830b9eee9a0,0,72,24,61,1,27,Male,,,"
  <table>
  <tr height=300>
    <td width=300 height=300><img src=""static/images/cards/1_of_red_stars.svg"" width=""175px"" height=""250px""></img></td>
    <td width=300 height=300><img src=""static/images/cards/back_of_red_stars.svg"" width=""175px"" height=""250px""></img></td>
  </tr>
  <tr height=200>
    <td width=300><img src=""static/images/keys/z.svg"" width=""35%"" height=""75%""></img></td>
    <td width=300><img src=""static/images/keys/m.svg"" width=""35%"" height=""75%""></img></td>
  </tr>
</table>
  ",,,,,,,,,,,,,,,,,,,,,,,,,,,,
25,0,,html-keyboard-response,25,380158,0.0-4.0-3.0,l3qb1i9xs7m,2022-09-16 18:29:11.574,629e10d748005830b9eee9a0,0,72,24,61,1,27,Male,,,"<p style=""font-size:50px"">You Lose!
No points this round.</p>",,,,,,,,,,,,,,,,,,,,,,,,,,,,
26,0,,html-keyboard-response,26,380666,0.0-4.0-4.0,l3qb1i9xs7m,2022-09-16 18:29:11.574,629e10d748005830b9eee9a0,0,72,24,61,1,27,Male,,,,,,1.0,learning,0.0,A,,red,,stars,,,,A,red,stars,,1.0,1.0,NA,left,544.9000000358,1.0,0.0,0.0,,,
27,0,,html-keyboard-response,27,382169,0.0-4.1-0.1,l3qb1i9xs7m,2022-09-16 18:29:11.574,629e10d748005830b9eee9a0,0,72,24,61,1,27,Male,,,"<img src=""static/images/cards/stack_of_black_stars.svg"" width=""175px"" height=""250px""></img>",,,,,,,,,,,,,,,,,,,,,,,,,,,,
28,0,,html-keyboard-response,28,384075,0.0-4.1-1.1,l3qb1i9xs7m,2022-09-16 18:29:11.574,629e10d748005830b9eee9a0,0,72,24,61,1,27,Male,1400.5,,"
  <table>
  <tr height=300>
    <td width=300 height=300><img src=""static/images/cards/back_of_black_stars.svg"" width=""175px"" height=""250px""></img></td>
    <td width=300 height=300><img src=""static/images/cards/back_of_black_stars.svg"" width=""175px"" height=""250px""></img></td>
  </tr>
  <tr height=200>
    <td width=300></td>
    <td width=300><img src=""static/images/keys/m.svg"" width=""35%"" height=""75%""></img></td>
  </tr>
</table>
  ",77.0,1.0,,,,,,,,,,,,,,,,,,,,,,,,,,
29,0,,html-keyboard-response,29,385578,0.0-4.1-2.1,l3qb1i9xs7m,2022-09-16 18:29:11.574,629e10d748005830b9eee9a0,0,72,24,61,1,27,Male,,,"
  <table>
  <tr height=300>
    <td width=300 height=300><img src=""static/images/cards/back_of_black_stars.svg"" width=""175px"" height=""250px""></img></td>
    <td width=300 height=300><img src=""static/images/cards/2_of_black_stars.svg"" width=""175px"" height=""250px""></img></td>
  </tr>
  <tr height=200>
    <td width=300></td>
    <td width=300><img src=""static/images/keys/m.svg"" width=""35%"" height=""75%""></img></td>
  </tr>
</table>
  ",,,,,,,,,,,,,,,,,,,,,,,,,,,,
30,0,,html-keyboard-response,30,387084,0.0-4.1-3.1,l3qb1i9xs7m,2022-09-16 18:29:11.574,629e10d748005830b9eee9a0,0,72,24,61,1,27,Male,,,"<p style=""font-size:50px"">You Lose!
No points this round.</p>",,,,,,,,,,,,,,,,,,,,,,,,,,,,
31,0,,html-keyboard-response,31,387594,0.0-4.1-4.1,l3qb1i9xs7m,2022-09-16 18:29:11.574,629e10d748005830b9eee9a0,0,72,24,61,1,27,Male,,,,,,1.0,learning,1.0,B,,black,,stars,,,,B,black,stars,,0.0,1.0,0,right,1400.5,2.0,0.0,0.0,,,
32,0,,html-keyboard-response,32,389097,0.0-4.2-0.2,l3qb1i9xs7m,2022-09-16 18:29:11.574,629e10d748005830b9eee9a0,0,72,24,61,1,27,Male,,,"<img src=""static/images/cards/stack_of_red_moons.svg"" width=""175px"" height=""250px""></img>",,,,,,,,,,,,,,,,,,,,,,,,,,,,
33,0,,html-keyboard-response,33,390467,0.0-4.2-1.2,l3qb1i9xs7m,2022-09-16 18:29:11.574,629e10d748005830b9eee9a0,0,72,24,61,1,27,Male,865.6000000238,,"
  <table>
  <tr height=300>
    <td width=300 height=300><img src=""static/images/cards/back_of_red_moons.svg"" width=""175px"" height=""250px""></img></td>
    <td width=300 height=300><img src=""static/images/cards/back_of_red_moons.svg"" width=""175px"" height=""250px""></img></td>
  </tr>
  <tr height=200>
    <td width=300><img src=""static/images/keys/z.svg"" width=""35%"" height=""75%""></img></td>
    <td width=300><img src=""static/images/keys/m.svg"" width=""35%"" height=""75%""></img></td>
  </tr>
</table>
  ",90.0,2.0,,,,,,,,,,,,,,,,,,,,,,,,,,
34,0,,html-keyboard-response,34,391974,0.0-4.2-2.2,l3qb1i9xs7m,2022-09-16 18:29:11.574,629e10d748005830b9eee9a0,0,72,24,61,1,27,Male,,,"
  <table>
  <tr height=300>
    <td width=300 height=300><img src=""static/images/cards/4_of_red_moons.svg"" width=""175px"" height=""250px""></img></td>
    <td width=300 height=300><img src=""static/images/cards/back_of_red_moons.svg"" width=""175px"" height=""250px""></img></td>
  </tr>
  <tr height=200>
    <td width=300><img src=""static/images/keys/z.svg"" width=""35%"" height=""75%""></img></td>
    <td width=300><img src=""static/images/keys/m.svg"" width=""35%"" height=""75%""></img></td>
  </tr>
</table>
  ",,,,,,,,,,,,,,,,,,,,,,,,,,,,
35,0,,html-keyboard-response,35,393484,0.0-4.2-3.2,l3qb1i9xs7m,2022-09-16 18:29:11.574,629e10d748005830b9eee9a0,0,72,24,61,1,27,Male,,,"<p style=""font-size:50px"">You Lose!
No points this round.</p>",,,,,,,,,,,,,,,,,,,,,,,,,,,,
36,0,,html-keyboard-response,36,393995,0.0-4.2-4.2,l3qb1i9xs7m,2022-09-16 18:29:11.574,629e10d748005830b9eee9a0,0,72,24,61,1,27,Male,,,,,,1.0,learning,2.0,C,,red,,moons,,,,C,red,moons,,1.0,0.0,NA,left,865.6000000238,4.0,0.0,0.0,,,
37,0,,html-keyboard-response,37,395497,0.0-4.3-0.3,l3qb1i9xs7m,2022-09-16 18:29:11.574,629e10d748005830b9eee9a0,0,72,24,61,1,27,Male,,,"<img src=""static/images/cards/stack_of_black_moons.svg"" width=""175px"" height=""250px""></img>",,,,,,,,,,,,,,,,,,,,,,,,,,,,
38,0,,html-keyboard-response,38,396843,0.0-4.3-1.3,l3qb1i9xs7m,2022-09-16 18:29:11.574,629e10d748005830b9eee9a0,0,72,24,61,1,27,Male,840.8000000119,,"
  <table>
  <tr height=300>
    <td width=300 height=300><img src=""static/images/cards/back_of_black_moons.svg"" width=""175px"" height=""250px""></img></td>
    <td width=300 height=300><img src=""static/images/cards/back_of_black_moons.svg"" width=""175px"" height=""250px""></img></td>
  </tr>
  <tr height=200>
    <td width=300></td>
    <td width=300><img src=""static/images/keys/m.svg"" width=""35%"" height=""75%""></img></td>
  </tr>
</table>
  ",77.0,1.0,,,,,,,,,,,,,,,,,,,,,,,,,,
39,0,,html-keyboard-response,39,398349,0.0-4.3-2.3,l3qb1i9xs7m,2022-09-16 18:29:11.574,629e10d748005830b9eee9a0,0,72,24,61,1,27,Male,,,"
  <table>
  <tr height=300>
    <td width=300 height=300><img src=""static/images/cards/back_of_black_moons.svg"" width=""175px"" height=""250px""></img></td>
    <td width=300 height=300><img src=""static/images/cards/8_of_black_moons.svg"" width=""175px"" height=""250px""></img></td>
  </tr>
  <tr height=200>
    <td width=300></td>
    <td width=300><img src=""static/images/keys/m.svg"" width=""35%"" height=""75%""></img></td>
  </tr>
</table>
  ",,,,,,,,,,,,,,,,,,,,,,,,,,,,
40,0,,html-keyboard-response,40,399859,0.0-4.3-3.3,l3qb1i9xs7m,2022-09-16 18:29:11.574,629e10d748005830b9eee9a0,0,72,24,61,1,27,Male,,,"<p style=""font-size:50px"">You Lose!
No points this round.</p>",,,,,,,,,,,,,,,,,,,,,,,,,,,,
41,0,,html-keyboard-response,41,400370,0.0-4.3-4.3,l3qb1i9xs7m,2022-09-16 18:29:11.574,629e10d748005830b9eee9a0,0,72,24,61,1,27,Male,,,,,,1.0,learning,3.0,D,,black,,moons,,,,D,black,moons,,0.0,0.0,0,right,840.8000000119,8.0,1.0,0.0,,,
42,0,,html-keyboard-response,42,401873,0.0-4.4-0.4,l3qb1i9xs7m,2022-09-16 18:29:11.574,629e10d748005830b9eee9a0,0,72,24,61,1,27,Male,,,"<img src=""static/images/cards/stack_of_red_bolts.svg"" width=""175px"" height=""250px""></img>",,,,,,,,,,,,,,,,,,,,,,,,,,,,
43,0,,html-keyboard-response,43,402872,0.0-4.4-1.4,l3qb1i9xs7m,2022-09-16 18:29:11.574,629e10d748005830b9eee9a0,0,72,24,61,1,27,Male,496.5999999642,,"
  <table>
  <tr height=300>
    <td width=300 height=300><img src=""static/images/cards/back_of_red_bolts.svg"" width=""175px"" height=""250px""></img></td>
    <td width=300 height=300><img src=""static/images/cards/back_of_red_bolts.svg"" width=""175px"" height=""250px""></img></td>
  </tr>
  <tr height=200>
    <td width=300><img src=""static/images/keys/z.svg"" width=""35%"" height=""75%""></img></td>
    <td width=300><img src=""static/images/keys/m.svg"" width=""35%"" height=""75%""></img></td>
  </tr>
</table>
  ",90.0,1.0,,,,,,,,,,,,,,,,,,,,,,,,,,
44,0,,html-keyboard-response,44,404379,0.0-4.4-2.4,l3qb1i9xs7m,2022-09-16 18:29:11.574,629e10d748005830b9eee9a0,0,72,24,61,1,27,Male,,,"
  <table>
  <tr height=300>
    <td width=300 height=300><img src=""static/images/cards/9_of_red_bolts.svg"" width=""175px"" height=""250px""></img></td>
    <td width=300 height=300><img src=""static/images/cards/back_of_red_bolts.svg"" width=""175px"" height=""250px""></img></td>
  </tr>
  <tr height=200>
    <td width=300><img src=""static/images/keys/z.svg"" width=""35%"" height=""75%""></img></td>
    <td width=300><img src=""static/images/keys/m.svg"" width=""35%"" height=""75%""></img></td>
  </tr>
</table>
  ",,,,,,,,,,,,,,,,,,,,,,,,,,,,
45,0,,html-keyboard-response,45,405885,0.0-4.4-3.4,l3qb1i9xs7m,2022-09-16 18:29:11.574,629e10d748005830b9eee9a0,0,72,24,61,1,27,Male,,,"<p style=""font-size:50px"">You win!
+10 points this round!</p>",,,,,,,,,,,,,,,,,,,,,,,,,,,,
46,0,,html-keyboard-response,46,406396,0.0-4.4-4.4,l3qb1i9xs7m,2022-09-16 18:29:11.574,629e10d748005830b9eee9a0,0,72,24,61,1,27,Male,,,,,,1.0,learning,4.0,Xc,,red,,bolts,,,,Xc,red,bolts,,1.0,0.0,NA,left,496.5999999642,9.0,1.0,1.0,,,
47,0,,html-keyboard-response,47,407899,0.0-4.5-0.5,l3qb1i9xs7m,2022-09-16 18:29:11.574,629e10d748005830b9eee9a0,0,72,24,61,1,27,Male,,,"<img src=""static/images/cards/stack_of_black_bolts.svg"" width=""175px"" height=""250px""></img>",,,,,,,,,,,,,,,,,,,,,,,,,,,,
48,0,,html-keyboard-response,48,408823,0.0-4.5-1.5,l3qb1i9xs7m,2022-09-16 18:29:11.574,629e10d748005830b9eee9a0,0,72,24,61,1,27,Male,420.1000000238,,"
  <table>
  <tr height=300>
    <td width=300 height=300><img src=""static/images/cards/back_of_black_bolts.svg"" width=""175px"" height=""250px""></img></td>
    <td width=300 height=300><img src=""static/images/cards/back_of_black_bolts.svg"" width=""175px"" height=""250px""></img></td>
  </tr>
  <tr height=200>
    <td width=300><img src=""static/images/keys/z.svg"" width=""35%"" height=""75%""></img></td>
    <td width=300></td>
  </tr>
</table>
  ",90.0,1.0,,,,,,,,,,,,,,,,,,,,,,,,,,
49,0,,html-keyboard-response,49,410327,0.0-4.5-2.5,l3qb1i9xs7m,2022-09-16 18:29:11.574,629e10d748005830b9eee9a0,0,72,24,61,1,27,Male,,,"
  <table>
  <tr height=300>
    <td width=300 height=300><img src=""static/images/cards/2_of_black_bolts.svg"" width=""175px"" height=""250px""></img></td>
    <td width=300 height=300><img src=""static/images/cards/back_of_black_bolts.svg"" width=""175px"" height=""250px""></img></td>
  </tr>
  <tr height=200>
    <td width=300><img src=""static/images/keys/z.svg"" width=""35%"" height=""75%""></img></td>
    <td width=300></td>
  </tr>
</table>
  ",,,,,,,,,,,,,,,,,,,,,,,,,,,,
50,0,,html-keyboard-response,50,411833,0.0-4.5-3.5,l3qb1i9xs7m,2022-09-16 18:29:11.574,629e10d748005830b9eee9a0,0,72,24,61,1,27,Male,,,"<p style=""font-size:50px"">You win!
+10 points this round!</p>",,,,,,,,,,,,,,,,,,,,,,,,,,,,
51,0,,html-keyboard-response,51,412342,0.0-4.5-4.5,l3qb1i9xs7m,2022-09-16 18:29:11.574,629e10d748005830b9eee9a0,0,72,24,61,1,27,Male,,,,,,1.0,learning,5.0,Xnc,,black,,bolts,,,,Xnc,black,bolts,,0.0,0.0,1,left,420.1000000238,2.0,0.0,1.0,,,
52,0,,html-keyboard-response,52,413846,0.0-4.6-0.6,l3qb1i9xs7m,2022-09-16 18:29:11.574,629e10d748005830b9eee9a0,0,72,24,61,1,27,Male,,,"<img src=""static/images/cards/stack_of_red_stars.svg"" width=""175px"" height=""250px""></img>",,,,,,,,,,,,,,,,,,,,,,,,,,,,
53,0,,html-keyboard-response,53,414683,0.0-4.6-1.6,l3qb1i9xs7m,2022-09-16 18:29:11.574,629e10d748005830b9eee9a0,0,72,24,61,1,27,Male,330.1999999881,,"
  <table>
  <tr height=300>
    <td width=300 height=300><img src=""static/images/cards/back_of_red_stars.svg"" width=""175px"" height=""250px""></img></td>
    <td width=300 height=300><img src=""static/images/cards/back_of_red_stars.svg"" width=""175px"" height=""250px""></img></td>
  </tr>
  <tr height=200>
    <td width=300><img src=""static/images/keys/z.svg"" width=""35%"" height=""75%""></img></td>
    <td width=300><img src=""static/images/keys/m.svg"" width=""35%"" height=""75%""></img></td>
  </tr>
</table>
  ",77.0,1.0,,,,,,,,,,,,,,,,,,,,,,,,,,
54,0,,html-keyboard-response,54,416185,0.0-4.6-2.6,l3qb1i9xs7m,2022-09-16 18:29:11.574,629e10d748005830b9eee9a0,0,72,24,61,1,27,Male,,,"
  <table>
  <tr height=300>
    <td width=300 height=300><img src=""static/images/cards/back_of_red_stars.svg"" width=""175px"" height=""250px""></img></td>
    <td width=300 height=300><img src=""static/images/cards/4_of_red_stars.svg"" width=""175px"" height=""250px""></img></td>
  </tr>
  <tr height=200>
    <td width=300><img src=""static/images/keys/z.svg"" width=""35%"" height=""75%""></img></td>
    <td width=300><img src=""static/images/keys/m.svg"" width=""35%"" height=""75%""></img></td>
  </tr>
</table>
  ",,,,,,,,,,,,,,,,,,,,,,,,,,,,
55,0,,html-keyboard-response,55,417689,0.0-4.6-3.6,l3qb1i9xs7m,2022-09-16 18:29:11.574,629e10d748005830b9eee9a0,0,72,24,61,1,27,Male,,,"<p style=""font-size:50px"">You Lose!
No points this round.</p>",,,,,,,,,,,,,,,,,,,,,,,,,,,,
56,0,,html-keyboard-response,56,418198,0.0-4.6-4.6,l3qb1i9xs7m,2022-09-16 18:29:11.574,629e10d748005830b9eee9a0,0,72,24,61,1,27,Male,,,,,,1.0,learning,6.0,A,,red,,stars,,,,A,red,stars,,1.0,1.0,NA,right,330.1999999881,4.0,0.0,0.0,,,
57,0,,html-keyboard-response,57,419702,0.0-4.7-0.7,l3qb1i9xs7m,2022-09-16 18:29:11.574,629e10d748005830b9eee9a0,0,72,24,61,1,27,Male,,,"<img src=""static/images/cards/stack_of_black_stars.svg"" width=""175px"" height=""250px""></img>",,,,,,,,,,,,,,,,,,,,,,,,,,,,
58,0,,html-keyboard-response,58,420613,0.0-4.7-1.7,l3qb1i9xs7m,2022-09-16 18:29:11.574,629e10d748005830b9eee9a0,0,72,24,61,1,27,Male,407.1999999881,,"
  <table>
  <tr height=300>
    <td width=300 height=300><img src=""static/images/cards/back_of_black_stars.svg"" width=""175px"" height=""250px""></img></td>
    <td width=300 height=300><img src=""static/images/cards/back_of_black_stars.svg"" width=""175px"" height=""250px""></img></td>
  </tr>
  <tr height=200>
    <td width=300></td>
    <td width=300><img src=""static/images/keys/m.svg"" width=""35%"" height=""75%""></img></td>
  </tr>
</table>
  ",77.0,1.0,,,,,,,,,,,,,,,,,,,,,,,,,,
59,0,,html-keyboard-response,59,422120,0.0-4.7-2.7,l3qb1i9xs7m,2022-09-16 18:29:11.574,629e10d748005830b9eee9a0,0,72,24,61,1,27,Male,,,"
  <table>
  <tr height=300>
    <td width=300 height=300><img src=""static/images/cards/back_of_black_stars.svg"" width=""175px"" height=""250px""></img></td>
    <td width=300 height=300><img src=""static/images/cards/1_of_black_stars.svg"" width=""175px"" height=""250px""></img></td>
  </tr>
  <tr height=200>
    <td width=300></td>
    <td width=300><img src=""static/images/keys/m.svg"" width=""35%"" height=""75%""></img></td>
  </tr>
</table>
  ",,,,,,,,,,,,,,,,,,,,,,,,,,,,
60,0,,html-keyboard-response,60,423631,0.0-4.7-3.7,l3qb1i9xs7m,2022-09-16 18:29:11.574,629e10d748005830b9eee9a0,0,72,24,61,1,27,Male,,,"<p style=""font-size:50px"">You Lose!
No points this round.</p>",,,,,,,,,,,,,,,,,,,,,,,,,,,,
61,0,,html-keyboard-response,61,424141,0.0-4.7-4.7,l3qb1i9xs7m,2022-09-16 18:29:11.574,629e10d748005830b9eee9a0,0,72,24,61,1,27,Male,,,,,,1.0,learning,7.0,B,,black,,stars,,,,B,black,stars,,0.0,1.0,0,right,407.1999999881,1.0,0.0,0.0,,,
62,0,,html-keyboard-response,62,425646,0.0-4.8-0.8,l3qb1i9xs7m,2022-09-16 18:29:11.574,629e10d748005830b9eee9a0,0,72,24,61,1,27,Male,,,"<img src=""static/images/cards/stack_of_red_moons.svg"" width=""175px"" height=""250px""></img>",,,,,,,,,,,,,,,,,,,,,,,,,,,,
63,0,,html-keyboard-response,63,426415,0.0-4.8-1.8,l3qb1i9xs7m,2022-09-16 18:29:11.574,629e10d748005830b9eee9a0,0,72,24,61,1,27,Male,261.8999999762,,"
  <table>
  <tr height=300>
    <td width=300 height=300><img src=""static/images/cards/back_of_red_moons.svg"" width=""175px"" height=""250px""></img></td>
    <td width=300 height=300><img src=""static/images/cards/back_of_red_moons.svg"" width=""175px"" height=""250px""></img></td>
  </tr>
  <tr height=200>
    <td width=300><img src=""static/images/keys/z.svg"" width=""35%"" height=""75%""></img></td>
    <td width=300><img src=""static/images/keys/m.svg"" width=""35%"" height=""75%""></img></td>
  </tr>
</table>
  ",90.0,1.0,,,,,,,,,,,,,,,,,,,,,,,,,,
64,0,,html-keyboard-response,64,427921,0.0-4.8-2.8,l3qb1i9xs7m,2022-09-16 18:29:11.574,629e10d748005830b9eee9a0,0,72,24,61,1,27,Male,,,"
  <table>
  <tr height=300>
    <td width=300 height=300><img src=""static/images/cards/10_of_red_moons.svg"" width=""175px"" height=""250px""></img></td>
    <td width=300 height=300><img src=""static/images/cards/back_of_red_moons.svg"" width=""175px"" height=""250px""></img></td>
  </tr>
  <tr height=200>
    <td width=300><img src=""static/images/keys/z.svg"" width=""35%"" height=""75%""></img></td>
    <td width=300><img src=""static/images/keys/m.svg"" width=""35%"" height=""75%""></img></td>
  </tr>
</table>
  ",,,,,,,,,,,,,,,,,,,,,,,,,,,,
65,0,,html-keyboard-response,65,429427,0.0-4.8-3.8,l3qb1i9xs7m,2022-09-16 18:29:11.574,629e10d748005830b9eee9a0,0,72,24,61,1,27,Male,,,"<p style=""font-size:50px"">You Lose!
No points this round.</p>",,,,,,,,,,,,,,,,,,,,,,,,,,,,
66,0,,html-keyboard-response,66,429938,0.0-4.8-4.8,l3qb1i9xs7m,2022-09-16 18:29:11.574,629e10d748005830b9eee9a0,0,72,24,61,1,27,Male,,,,,,1.0,learning,8.0,C,,red,,moons,,,,C,red,moons,,1.0,0.0,NA,left,261.8999999762,10.0,1.0,0.0,,,
67,0,,html-keyboard-response,67,431441,0.0-4.9-0.9,l3qb1i9xs7m,2022-09-16 18:29:11.574,629e10d748005830b9eee9a0,0,72,24,61,1,27,Male,,,"<img src=""static/images/cards/stack_of_black_moons.svg"" width=""175px"" height=""250px""></img>",,,,,,,,,,,,,,,,,,,,,,,,,,,,
68,0,,html-keyboard-response,68,432385,0.0-4.9-1.9,l3qb1i9xs7m,2022-09-16 18:29:11.574,629e10d748005830b9eee9a0,0,72,24,61,1,27,Male,443.1999999881,,"
  <table>
  <tr height=300>
    <td width=300 height=300><img src=""static/images/cards/back_of_black_moons.svg"" width=""175px"" height=""250px""></img></td>
    <td width=300 height=300><img src=""static/images/cards/back_of_black_moons.svg"" width=""175px"" height=""250px""></img></td>
  </tr>
  <tr height=200>
    <td width=300><img src=""static/images/keys/z.svg"" width=""35%"" height=""75%""></img></td>
    <td width=300></td>
  </tr>
</table>
  ",90.0,1.0,,,,,,,,,,,,,,,,,,,,,,,,,,
69,0,,html-keyboard-response,69,433894,0.0-4.9-2.9,l3qb1i9xs7m,2022-09-16 18:29:11.574,629e10d748005830b9eee9a0,0,72,24,61,1,27,Male,,,"
  <table>
  <tr height=300>
    <td width=300 height=300><img src=""static/images/cards/4_of_black_moons.svg"" width=""175px"" height=""250px""></img></td>
    <td width=300 height=300><img src=""static/images/cards/back_of_black_moons.svg"" width=""175px"" height=""250px""></img></td>
  </tr>
  <tr height=200>
    <td width=300><img src=""static/images/keys/z.svg"" width=""35%"" height=""75%""></img></td>
    <td width=300></td>
  </tr>
</table>
  ",,,,,,,,,,,,,,,,,,,,,,,,,,,,
70,0,,html-keyboard-response,70,435400,0.0-4.9-3.9,l3qb1i9xs7m,2022-09-16 18:29:11.574,629e10d748005830b9eee9a0,0,72,24,61,1,27,Male,,,"<p style=""font-size:50px"">You Lose!
No points this round.</p>",,,,,,,,,,,,,,,,,,,,,,,,,,,,
71,0,,html-keyboard-response,71,435911,0.0-4.9-4.9,l3qb1i9xs7m,2022-09-16 18:29:11.574,629e10d748005830b9eee9a0,0,72,24,61,1,27,Male,,,,,,1.0,learning,9.0,D,,black,,moons,,,,D,black,moons,,0.0,0.0,1,left,443.1999999881,4.0,0.0,0.0,,,
72,0,,html-keyboard-response,72,437417,0.0-4.10-0.10,l3qb1i9xs7m,2022-09-16 18:29:11.574,629e10d748005830b9eee9a0,0,72,24,61,1,27,Male,,,"<img src=""static/images/cards/stack_of_red_bolts.svg"" width=""175px"" height=""250px""></img>",,,,,,,,,,,,,,,,,,,,,,,,,,,,
73,0,,html-keyboard-response,73,438397,0.0-4.10-1.10,l3qb1i9xs7m,2022-09-16 18:29:11.574,629e10d748005830b9eee9a0,0,72,24,61,1,27,Male,479.0,,"
  <table>
  <tr height=300>
    <td width=300 height=300><img src=""static/images/cards/back_of_red_bolts.svg"" width=""175px"" height=""250px""></img></td>
    <td width=300 height=300><img src=""static/images/cards/back_of_red_bolts.svg"" width=""175px"" height=""250px""></img></td>
  </tr>
  <tr height=200>
    <td width=300><img src=""static/images/keys/z.svg"" width=""35%"" height=""75%""></img></td>
    <td width=300><img src=""static/images/keys/m.svg"" width=""35%"" height=""75%""></img></td>
  </tr>
</table>
  ",90.0,1.0,,,,,,,,,,,,,,,,,,,,,,,,,,
74,0,,html-keyboard-response,74,439902,0.0-4.10-2.10,l3qb1i9xs7m,2022-09-16 18:29:11.574,629e10d748005830b9eee9a0,0,72,24,61,1,27,Male,,,"
  <table>
  <tr height=300>
    <td width=300 height=300><img src=""static/images/cards/2_of_red_bolts.svg"" width=""175px"" height=""250px""></img></td>
    <td width=300 height=300><img src=""static/images/cards/back_of_red_bolts.svg"" width=""175px"" height=""250px""></img></td>
  </tr>
  <tr height=200>
    <td width=300><img src=""static/images/keys/z.svg"" width=""35%"" height=""75%""></img></td>
    <td width=300><img src=""static/images/keys/m.svg"" width=""35%"" height=""75%""></img></td>
  </tr>
</table>
  ",,,,,,,,,,,,,,,,,,,,,,,,,,,,
75,0,,html-keyboard-response,75,441410,0.0-4.10-3.10,l3qb1i9xs7m,2022-09-16 18:29:11.574,629e10d748005830b9eee9a0,0,72,24,61,1,27,Male,,,"<p style=""font-size:50px"">You win!
+10 points this round!</p>",,,,,,,,,,,,,,,,,,,,,,,,,,,,
76,0,,html-keyboard-response,76,441919,0.0-4.10-4.10,l3qb1i9xs7m,2022-09-16 18:29:11.574,629e10d748005830b9eee9a0,0,72,24,61,1,27,Male,,,,,,1.0,learning,10.0,Xc,,red,,bolts,,,,Xc,red,bolts,,1.0,0.0,NA,left,479.0,2.0,0.0,1.0,,,
77,0,,html-keyboard-response,77,443421,0.0-4.11-0.11,l3qb1i9xs7m,2022-09-16 18:29:11.574,629e10d748005830b9eee9a0,0,72,24,61,1,27,Male,,,"<img src=""static/images/cards/stack_of_black_bolts.svg"" width=""175px"" height=""250px""></img>",,,,,,,,,,,,,,,,,,,,,,,,,,,,
78,0,,html-keyboard-response,78,444295,0.0-4.11-1.11,l3qb1i9xs7m,2022-09-16 18:29:11.574,629e10d748005830b9eee9a0,0,72,24,61,1,27,Male,367.0,,"
  <table>
  <tr height=300>
    <td width=300 height=300><img src=""static/images/cards/back_of_black_bolts.svg"" width=""175px"" height=""250px""></img></td>
    <td width=300 height=300><img src=""static/images/cards/back_of_black_bolts.svg"" width=""175px"" height=""250px""></img></td>
  </tr>
  <tr height=200>
    <td width=300><img src=""static/images/keys/z.svg"" width=""35%"" height=""75%""></img></td>
    <td width=300></td>
  </tr>
</table>
  ",90.0,1.0,,,,,,,,,,,,,,,,,,,,,,,,,,
79,0,,html-keyboard-response,79,445801,0.0-4.11-2.11,l3qb1i9xs7m,2022-09-16 18:29:11.574,629e10d748005830b9eee9a0,0,72,24,61,1,27,Male,,,"
  <table>
  <tr height=300>
    <td width=300 height=300><img src=""static/images/cards/10_of_black_bolts.svg"" width=""175px"" height=""250px""></img></td>
    <td width=300 height=300><img src=""static/images/cards/back_of_black_bolts.svg"" width=""175px"" height=""250px""></img></td>
  </tr>
  <tr height=200>
    <td width=300><img src=""static/images/keys/z.svg"" width=""35%"" height=""75%""></img></td>
    <td width=300></td>
  </tr>
</table>
  ",,,,,,,,,,,,,,,,,,,,,,,,,,,,
80,0,,html-keyboard-response,80,447310,0.0-4.11-3.11,l3qb1i9xs7m,2022-09-16 18:29:11.574,629e10d748005830b9eee9a0,0,72,24,61,1,27,Male,,,"<p style=""font-size:50px"">You win!
+10 points this round!</p>",,,,,,,,,,,,,,,,,,,,,,,,,,,,
81,0,,html-keyboard-response,81,447821,0.0-4.11-4.11,l3qb1i9xs7m,2022-09-16 18:29:11.574,629e10d748005830b9eee9a0,0,72,24,61,1,27,Male,,,,,,1.0,learning,11.0,Xnc,,black,,bolts,,,,Xnc,black,bolts,,0.0,0.0,1,left,367.0,10.0,1.0,1.0,,,
82,0,,html-keyboard-response,82,449326,0.0-4.12-0.12,l3qb1i9xs7m,2022-09-16 18:29:11.574,629e10d748005830b9eee9a0,0,72,24,61,1,27,Male,,,"<img src=""static/images/cards/stack_of_red_stars.svg"" width=""175px"" height=""250px""></img>",,,,,,,,,,,,,,,,,,,,,,,,,,,,
83,0,,html-keyboard-response,83,450192,0.0-4.12-1.12,l3qb1i9xs7m,2022-09-16 18:29:11.574,629e10d748005830b9eee9a0,0,72,24,61,1,27,Male,360.1000000238,,"
  <table>
  <tr height=300>
    <td width=300 height=300><img src=""static/images/cards/back_of_red_stars.svg"" width=""175px"" height=""250px""></img></td>
    <td width=300 height=300><img src=""static/images/cards/back_of_red_stars.svg"" width=""175px"" height=""250px""></img></td>
  </tr>
  <tr height=200>
    <td width=300><img src=""static/images/keys/z.svg"" width=""35%"" height=""75%""></img></td>
    <td width=300><img src=""static/images/keys/m.svg"" width=""35%"" height=""75%""></img></td>
  </tr>
</table>
  ",90.0,1.0,,,,,,,,,,,,,,,,,,,,,,,,,,
84,0,,html-keyboard-response,84,451695,0.0-4.12-2.12,l3qb1i9xs7m,2022-09-16 18:29:11.574,629e10d748005830b9eee9a0,0,72,24,61,1,27,Male,,,"
  <table>
  <tr height=300>
    <td width=300 height=300><img src=""static/images/cards/10_of_red_stars.svg"" width=""175px"" height=""250px""></img></td>
    <td width=300 height=300><img src=""static/images/cards/back_of_red_stars.svg"" width=""175px"" height=""250px""></img></td>
  </tr>
  <tr height=200>
    <td width=300><img src=""static/images/keys/z.svg"" width=""35%"" height=""75%""></img></td>
    <td width=300><img src=""static/images/keys/m.svg"" width=""35%"" height=""75%""></img></td>
  </tr>
</table>
  ",,,,,,,,,,,,,,,,,,,,,,,,,,,,
85,0,,html-keyboard-response,85,453206,0.0-4.12-3.12,l3qb1i9xs7m,2022-09-16 18:29:11.574,629e10d748005830b9eee9a0,0,72,24,61,1,27,Male,,,"<p style=""font-size:50px"">You win!
+10 points this round!</p>",,,,,,,,,,,,,,,,,,,,,,,,,,,,
86,0,,html-keyboard-response,86,453717,0.0-4.12-4.12,l3qb1i9xs7m,2022-09-16 18:29:11.574,629e10d748005830b9eee9a0,0,72,24,61,1,27,Male,,,,,,1.0,learning,12.0,A,,red,,stars,,,,A,red,stars,,1.0,1.0,NA,left,360.1000000238,10.0,1.0,1.0,,,
87,0,,html-keyboard-response,87,455223,0.0-4.13-0.13,l3qb1i9xs7m,2022-09-16 18:29:11.574,629e10d748005830b9eee9a0,0,72,24,61,1,27,Male,,,"<img src=""static/images/cards/stack_of_black_stars.svg"" width=""175px"" height=""250px""></img>",,,,,,,,,,,,,,,,,,,,,,,,,,,,
88,0,,html-keyboard-response,88,456623,0.0-4.13-1.13,l3qb1i9xs7m,2022-09-16 18:29:11.574,629e10d748005830b9eee9a0,0,72,24,61,1,27,Male,893.6999999881,,"
  <table>
  <tr height=300>
    <td width=300 height=300><img src=""static/images/cards/back_of_black_stars.svg"" width=""175px"" height=""250px""></img></td>
    <td width=300 height=300><img src=""static/images/cards/back_of_black_stars.svg"" width=""175px"" height=""250px""></img></td>
  </tr>
  <tr height=200>
    <td width=300></td>
    <td width=300><img src=""static/images/keys/m.svg"" width=""35%"" height=""75%""></img></td>
  </tr>
</table>
  ",77.0,1.0,,,,,,,,,,,,,,,,,,,,,,,,,,
89,0,,html-keyboard-response,89,458127,0.0-4.13-2.13,l3qb1i9xs7m,2022-09-16 18:29:11.574,629e10d748005830b9eee9a0,0,72,24,61,1,27,Male,,,"
  <table>
  <tr height=300>
    <td width=300 height=300><img src=""static/images/cards/back_of_black_stars.svg"" width=""175px"" height=""250px""></img></td>
    <td width=300 height=300><img src=""static/images/cards/7_of_black_stars.svg"" width=""175px"" height=""250px""></img></td>
  </tr>
  <tr height=200>
    <td width=300></td>
    <td width=300><img src=""static/images/keys/m.svg"" width=""35%"" height=""75%""></img></td>
  </tr>
</table>
  ",,,,,,,,,,,,,,,,,,,,,,,,,,,,
90,0,,html-keyboard-response,90,459632,0.0-4.13-3.13,l3qb1i9xs7m,2022-09-16 18:29:11.574,629e10d748005830b9eee9a0,0,72,24,61,1,27,Male,,,"<p style=""font-size:50px"">You win!
+10 points this round!</p>",,,,,,,,,,,,,,,,,,,,,,,,,,,,
91,0,,html-keyboard-response,91,460137,0.0-4.13-4.13,l3qb1i9xs7m,2022-09-16 18:29:11.574,629e10d748005830b9eee9a0,0,72,24,61,1,27,Male,,,,,,1.0,learning,13.0,B,,black,,stars,,,,B,black,stars,,0.0,1.0,0,right,893.6999999881,7.0,1.0,1.0,,,
92,0,,html-keyboard-response,92,461641,0.0-4.14-0.14,l3qb1i9xs7m,2022-09-16 18:29:11.574,629e10d748005830b9eee9a0,0,72,24,61,1,27,Male,,,"<img src=""static/images/cards/stack_of_red_moons.svg"" width=""175px"" height=""250px""></img>",,,,,,,,,,,,,,,,,,,,,,,,,,,,
93,0,,html-keyboard-response,93,463888,0.0-4.14-1.14,l3qb1i9xs7m,2022-09-16 18:29:11.574,629e10d748005830b9eee9a0,0,72,24,61,1,27,Male,1745.0,,"
  <table>
  <tr height=300>
    <td width=300 height=300><img src=""static/images/cards/back_of_red_moons.svg"" width=""175px"" height=""250px""></img></td>
    <td width=300 height=300><img src=""static/images/cards/back_of_red_moons.svg"" width=""175px"" height=""250px""></img></td>
  </tr>
  <tr height=200>
    <td width=300><img src=""static/images/keys/z.svg"" width=""35%"" height=""75%""></img></td>
    <td width=300><img src=""static/images/keys/m.svg"" width=""35%"" height=""75%""></img></td>
  </tr>
</table>
  ",90.0,1.0,,,,,,,,,,,,,,,,,,,,,,,,,,
94,0,,html-keyboard-response,94,465393,0.0-4.14-2.14,l3qb1i9xs7m,2022-09-16 18:29:11.574,629e10d748005830b9eee9a0,0,72,24,61,1,27,Male,,,"
  <table>
  <tr height=300>
    <td width=300 height=300><img src=""static/images/cards/8_of_red_moons.svg"" width=""175px"" height=""250px""></img></td>
    <td width=300 height=300><img src=""static/images/cards/back_of_red_moons.svg"" width=""175px"" height=""250px""></img></td>
  </tr>
  <tr height=200>
    <td width=300><img src=""static/images/keys/z.svg"" width=""35%"" height=""75%""></img></td>
    <td width=300><img src=""static/images/keys/m.svg"" width=""35%"" height=""75%""></img></td>
  </tr>
</table>
  ",,,,,,,,,,,,,,,,,,,,,,,,,,,,
95,0,,html-keyboard-response,95,466899,0.0-4.14-3.14,l3qb1i9xs7m,2022-09-16 18:29:11.574,629e10d748005830b9eee9a0,0,72,24,61,1,27,Male,,,"<p style=""font-size:50px"">You Lose!
No points this round.</p>",,,,,,,,,,,,,,,,,,,,,,,,,,,,
96,0,,html-keyboard-response,96,467406,0.0-4.14-4.14,l3qb1i9xs7m,2022-09-16 18:29:11.574,629e10d748005830b9eee9a0,0,72,24,61,1,27,Male,,,,,,1.0,learning,14.0,C,,red,,moons,,,,C,red,moons,,1.0,0.0,NA,left,1745.0,8.0,1.0,0.0,,,
97,0,,html-keyboard-response,97,468907,0.0-4.15-0.15,l3qb1i9xs7m,2022-09-16 18:29:11.574,629e10d748005830b9eee9a0,0,72,24,61,1,27,Male,,,"<img src=""static/images/cards/stack_of_black_moons.svg"" width=""175px"" height=""250px""></img>",,,,,,,,,,,,,,,,,,,,,,,,,,,,
98,0,,html-keyboard-response,98,469913,0.0-4.15-1.15,l3qb1i9xs7m,2022-09-16 18:29:11.574,629e10d748005830b9eee9a0,0,72,24,61,1,27,Male,504.0,,"
  <table>
  <tr height=300>
    <td width=300 height=300><img src=""static/images/cards/back_of_black_moons.svg"" width=""175px"" height=""250px""></img></td>
    <td width=300 height=300><img src=""static/images/cards/back_of_black_moons.svg"" width=""175px"" height=""250px""></img></td>
  </tr>
  <tr height=200>
    <td width=300></td>
    <td width=300><img src=""static/images/keys/m.svg"" width=""35%"" height=""75%""></img></td>
  </tr>
</table>
  ",77.0,1.0,,,,,,,,,,,,,,,,,,,,,,,,,,
99,0,,html-keyboard-response,99,471417,0.0-4.15-2.15,l3qb1i9xs7m,2022-09-16 18:29:11.574,629e10d748005830b9eee9a0,0,72,24,61,1,27,Male,,,"
  <table>
  <tr height=300>
    <td width=300 height=300><img src=""static/images/cards/back_of_black_moons.svg"" width=""175px"" height=""250px""></img></td>
    <td width=300 height=300><img src=""static/images/cards/2_of_black_moons.svg"" width=""175px"" height=""250px""></img></td>
  </tr>
  <tr height=200>
    <td width=300></td>
    <td width=300><img src=""static/images/keys/m.svg"" width=""35%"" height=""75%""></img></td>
  </tr>
</table>
  ",,,,,,,,,,,,,,,,,,,,,,,,,,,,
100,0,,html-keyboard-response,100,472926,0.0-4.15-3.15,l3qb1i9xs7m,2022-09-16 18:29:11.574,629e10d748005830b9eee9a0,0,72,24,61,1,27,Male,,,"<p style=""font-size:50px"">You Lose!
No points this round.</p>",,,,,,,,,,,,,,,,,,,,,,,,,,,,
101,0,,html-keyboard-response,101,473437,0.0-4.15-4.15,l3qb1i9xs7m,2022-09-16 18:29:11.574,629e10d748005830b9eee9a0,0,72,24,61,1,27,Male,,,,,,1.0,learning,15.0,D,,black,,moons,,,,D,black,moons,,0.0,0.0,0,right,504.0,2.0,0.0,0.0,,,
102,0,,html-keyboard-response,102,474943,0.0-4.16-0.16,l3qb1i9xs7m,2022-09-16 18:29:11.574,629e10d748005830b9eee9a0,0,72,24,61,1,27,Male,,,"<img src=""static/images/cards/stack_of_red_bolts.svg"" width=""175px"" height=""250px""></img>",,,,,,,,,,,,,,,,,,,,,,,,,,,,
103,0,,html-keyboard-response,103,476589,0.0-4.16-1.16,l3qb1i9xs7m,2022-09-16 18:29:11.574,629e10d748005830b9eee9a0,0,72,24,61,1,27,Male,1139.1999999881,,"
  <table>
  <tr height=300>
    <td width=300 height=300><img src=""static/images/cards/back_of_red_bolts.svg"" width=""175px"" height=""250px""></img></td>
    <td width=300 height=300><img src=""static/images/cards/back_of_red_bolts.svg"" width=""175px"" height=""250px""></img></td>
  </tr>
  <tr height=200>
    <td width=300><img src=""static/images/keys/z.svg"" width=""35%"" height=""75%""></img></td>
    <td width=300><img src=""static/images/keys/m.svg"" width=""35%"" height=""75%""></img></td>
  </tr>
</table>
  ",77.0,1.0,,,,,,,,,,,,,,,,,,,,,,,,,,
104,0,,html-keyboard-response,104,478095,0.0-4.16-2.16,l3qb1i9xs7m,2022-09-16 18:29:11.574,629e10d748005830b9eee9a0,0,72,24,61,1,27,Male,,,"
  <table>
  <tr height=300>
    <td width=300 height=300><img src=""static/images/cards/back_of_red_bolts.svg"" width=""175px"" height=""250px""></img></td>
    <td width=300 height=300><img src=""static/images/cards/9_of_red_bolts.svg"" width=""175px"" height=""250px""></img></td>
  </tr>
  <tr height=200>
    <td width=300><img src=""static/images/keys/z.svg"" width=""35%"" height=""75%""></img></td>
    <td width=300><img src=""static/images/keys/m.svg"" width=""35%"" height=""75%""></img></td>
  </tr>
</table>
  ",,,,,,,,,,,,,,,,,,,,,,,,,,,,
105,0,,html-keyboard-response,105,479603,0.0-4.16-3.16,l3qb1i9xs7m,2022-09-16 18:29:11.574,629e10d748005830b9eee9a0,0,72,24,61,1,27,Male,,,"<p style=""font-size:50px"">You win!
+10 points this round!</p>",,,,,,,,,,,,,,,,,,,,,,,,,,,,
106,0,,html-keyboard-response,106,480110,0.0-4.16-4.16,l3qb1i9xs7m,2022-09-16 18:29:11.574,629e10d748005830b9eee9a0,0,72,24,61,1,27,Male,,,,,,1.0,learning,16.0,Xc,,red,,bolts,,,,Xc,red,bolts,,1.0,0.0,NA,right,1139.1999999881,9.0,1.0,1.0,,,
107,0,,html-keyboard-response,107,481614,0.0-4.17-0.17,l3qb1i9xs7m,2022-09-16 18:29:11.574,629e10d748005830b9eee9a0,0,72,24,61,1,27,Male,,,"<img src=""static/images/cards/stack_of_black_bolts.svg"" width=""175px"" height=""250px""></img>",,,,,,,,,,,,,,,,,,,,,,,,,,,,
108,0,,html-keyboard-response,108,483391,0.0-4.17-1.17,l3qb1i9xs7m,2022-09-16 18:29:11.574,629e10d748005830b9eee9a0,0,72,24,61,1,27,Male,1276.1999999881,,"
  <table>
  <tr height=300>
    <td width=300 height=300><img src=""static/images/cards/back_of_black_bolts.svg"" width=""175px"" height=""250px""></img></td>
    <td width=300 height=300><img src=""static/images/cards/back_of_black_bolts.svg"" width=""175px"" height=""250px""></img></td>
  </tr>
  <tr height=200>
    <td width=300><img src=""static/images/keys/z.svg"" width=""35%"" height=""75%""></img></td>
    <td width=300></td>
  </tr>
</table>
  ",90.0,1.0,,,,,,,,,,,,,,,,,,,,,,,,,,
109,0,,html-keyboard-response,109,484892,0.0-4.17-2.17,l3qb1i9xs7m,2022-09-16 18:29:11.574,629e10d748005830b9eee9a0,0,72,24,61,1,27,Male,,,"
  <table>
  <tr height=300>
    <td width=300 height=300><img src=""static/images/cards/6_of_black_bolts.svg"" width=""175px"" height=""250px""></img></td>
    <td width=300 height=300><img src=""static/images/cards/back_of_black_bolts.svg"" width=""175px"" height=""250px""></img></td>
  </tr>
  <tr height=200>
    <td width=300><img src=""static/images/keys/z.svg"" width=""35%"" height=""75%""></img></td>
    <td width=300></td>
  </tr>
</table>
  ",,,,,,,,,,,,,,,,,,,,,,,,,,,,
110,0,,html-keyboard-response,110,486395,0.0-4.17-3.17,l3qb1i9xs7m,2022-09-16 18:29:11.574,629e10d748005830b9eee9a0,0,72,24,61,1,27,Male,,,"<p style=""font-size:50px"">You win!
+10 points this round!</p>",,,,,,,,,,,,,,,,,,,,,,,,,,,,
111,0,,html-keyboard-response,111,486904,0.0-4.17-4.17,l3qb1i9xs7m,2022-09-16 18:29:11.574,629e10d748005830b9eee9a0,0,72,24,61,1,27,Male,,,,,,1.0,learning,17.0,Xnc,,black,,bolts,,,,Xnc,black,bolts,,0.0,0.0,1,left,1276.1999999881,6.0,1.0,1.0,,,
112,0,,html-keyboard-response,112,488408,0.0-4.18-0.18,l3qb1i9xs7m,2022-09-16 18:29:11.574,629e10d748005830b9eee9a0,0,72,24,61,1,27,Male,,,"<img src=""static/images/cards/stack_of_red_stars.svg"" width=""175px"" height=""250px""></img>",,,,,,,,,,,,,,,,,,,,,,,,,,,,
113,0,,html-keyboard-response,113,489864,0.0-4.18-1.18,l3qb1i9xs7m,2022-09-16 18:29:11.574,629e10d748005830b9eee9a0,0,72,24,61,1,27,Male,951.5999999642,,"
  <table>
  <tr height=300>
    <td width=300 height=300><img src=""static/images/cards/back_of_red_stars.svg"" width=""175px"" height=""250px""></img></td>
    <td width=300 height=300><img src=""static/images/cards/back_of_red_stars.svg"" width=""175px"" height=""250px""></img></td>
  </tr>
  <tr height=200>
    <td width=300><img src=""static/images/keys/z.svg"" width=""35%"" height=""75%""></img></td>
    <td width=300><img src=""static/images/keys/m.svg"" width=""35%"" height=""75%""></img></td>
  </tr>
</table>
  ",77.0,1.0,,,,,,,,,,,,,,,,,,,,,,,,,,
114,0,,html-keyboard-response,114,491366,0.0-4.18-2.18,l3qb1i9xs7m,2022-09-16 18:29:11.574,629e10d748005830b9eee9a0,0,72,24,61,1,27,Male,,,"
  <table>
  <tr height=300>
    <td width=300 height=300><img src=""static/images/cards/back_of_red_stars.svg"" width=""175px"" height=""250px""></img></td>
    <td width=300 height=300><img src=""static/images/cards/7_of_red_stars.svg"" width=""175px"" height=""250px""></img></td>
  </tr>
  <tr height=200>
    <td width=300><img src=""static/images/keys/z.svg"" width=""35%"" height=""75%""></img></td>
    <td width=300><img src=""static/images/keys/m.svg"" width=""35%"" height=""75%""></img></td>
  </tr>
</table>
  ",,,,,,,,,,,,,,,,,,,,,,,,,,,,
115,0,,html-keyboard-response,115,492873,0.0-4.18-3.18,l3qb1i9xs7m,2022-09-16 18:29:11.574,629e10d748005830b9eee9a0,0,72,24,61,1,27,Male,,,"<p style=""font-size:50px"">You win!
+10 points this round!</p>",,,,,,,,,,,,,,,,,,,,,,,,,,,,
116,0,,html-keyboard-response,116,493383,0.0-4.18-4.18,l3qb1i9xs7m,2022-09-16 18:29:11.574,629e10d748005830b9eee9a0,0,72,24,61,1,27,Male,,,,,,1.0,learning,18.0,A,,red,,stars,,,,A,red,stars,,1.0,1.0,NA,right,951.5999999642,7.0,1.0,1.0,,,
117,0,,html-keyboard-response,117,494889,0.0-4.19-0.19,l3qb1i9xs7m,2022-09-16 18:29:11.574,629e10d748005830b9eee9a0,0,72,24,61,1,27,Male,,,"<img src=""static/images/cards/stack_of_black_stars.svg"" width=""175px"" height=""250px""></img>",,,,,,,,,,,,,,,,,,,,,,,,,,,,
118,0,,html-keyboard-response,118,496726,0.0-4.19-1.19,l3qb1i9xs7m,2022-09-16 18:29:11.574,629e10d748005830b9eee9a0,0,72,24,61,1,27,Male,1333.6999999881,,"
  <table>
  <tr height=300>
    <td width=300 height=300><img src=""static/images/cards/back_of_black_stars.svg"" width=""175px"" height=""250px""></img></td>
    <td width=300 height=300><img src=""static/images/cards/back_of_black_stars.svg"" width=""175px"" height=""250px""></img></td>
  </tr>
  <tr height=200>
    <td width=300><img src=""static/images/keys/z.svg"" width=""35%"" height=""75%""></img></td>
    <td width=300></td>
  </tr>
</table>
  ",90.0,1.0,,,,,,,,,,,,,,,,,,,,,,,,,,
119,0,,html-keyboard-response,119,498228,0.0-4.19-2.19,l3qb1i9xs7m,2022-09-16 18:29:11.574,629e10d748005830b9eee9a0,0,72,24,61,1,27,Male,,,"
  <table>
  <tr height=300>
    <td width=300 height=300><img src=""static/images/cards/9_of_black_stars.svg"" width=""175px"" height=""250px""></img></td>
    <td width=300 height=300><img src=""static/images/cards/back_of_black_stars.svg"" width=""175px"" height=""250px""></img></td>
  </tr>
  <tr height=200>
    <td width=300><img src=""static/images/keys/z.svg"" width=""35%"" height=""75%""></img></td>
    <td width=300></td>
  </tr>
</table>
  ",,,,,,,,,,,,,,,,,,,,,,,,,,,,
120,0,,html-keyboard-response,120,499737,0.0-4.19-3.19,l3qb1i9xs7m,2022-09-16 18:29:11.574,629e10d748005830b9eee9a0,0,72,24,61,1,27,Male,,,"<p style=""font-size:50px"">You win!
+10 points this round!</p>",,,,,,,,,,,,,,,,,,,,,,,,,,,,
121,0,,html-keyboard-response,121,500246,0.0-4.19-4.19,l3qb1i9xs7m,2022-09-16 18:29:11.574,629e10d748005830b9eee9a0,0,72,24,61,1,27,Male,,,,,,1.0,learning,19.0,B,,black,,stars,,,,B,black,stars,,0.0,1.0,1,left,1333.6999999881,9.0,1.0,1.0,,,
122,0,,html-keyboard-response,122,501752,0.0-4.20-0.20,l3qb1i9xs7m,2022-09-16 18:29:11.574,629e10d748005830b9eee9a0,0,72,24,61,1,27,Male,,,"<img src=""static/images/cards/stack_of_red_moons.svg"" width=""175px"" height=""250px""></img>",,,,,,,,,,,,,,,,,,,,,,,,,,,,
123,0,,html-keyboard-response,123,502610,0.0-4.20-1.20,l3qb1i9xs7m,2022-09-16 18:29:11.574,629e10d748005830b9eee9a0,0,72,24,61,1,27,Male,352.4000000358,,"
  <table>
  <tr height=300>
    <td width=300 height=300><img src=""static/images/cards/back_of_red_moons.svg"" width=""175px"" height=""250px""></img></td>
    <td width=300 height=300><img src=""static/images/cards/back_of_red_moons.svg"" width=""175px"" height=""250px""></img></td>
  </tr>
  <tr height=200>
    <td width=300><img src=""static/images/keys/z.svg"" width=""35%"" height=""75%""></img></td>
    <td width=300><img src=""static/images/keys/m.svg"" width=""35%"" height=""75%""></img></td>
  </tr>
</table>
  ",77.0,1.0,,,,,,,,,,,,,,,,,,,,,,,,,,
124,0,,html-keyboard-response,124,504113,0.0-4.20-2.20,l3qb1i9xs7m,2022-09-16 18:29:11.574,629e10d748005830b9eee9a0,0,72,24,61,1,27,Male,,,"
  <table>
  <tr height=300>
    <td width=300 height=300><img src=""static/images/cards/back_of_red_moons.svg"" width=""175px"" height=""250px""></img></td>
    <td width=300 height=300><img src=""static/images/cards/4_of_red_moons.svg"" width=""175px"" height=""250px""></img></td>
  </tr>
  <tr height=200>
    <td width=300><img src=""static/images/keys/z.svg"" width=""35%"" height=""75%""></img></td>
    <td width=300><img src=""static/images/keys/m.svg"" width=""35%"" height=""75%""></img></td>
  </tr>
</table>
  ",,,,,,,,,,,,,,,,,,,,,,,,,,,,
125,0,,html-keyboard-response,125,505617,0.0-4.20-3.20,l3qb1i9xs7m,2022-09-16 18:29:11.574,629e10d748005830b9eee9a0,0,72,24,61,1,27,Male,,,"<p style=""font-size:50px"">You Lose!
No points this round.</p>",,,,,,,,,,,,,,,,,,,,,,,,,,,,
126,0,,html-keyboard-response,126,506128,0.0-4.20-4.20,l3qb1i9xs7m,2022-09-16 18:29:11.574,629e10d748005830b9eee9a0,0,72,24,61,1,27,Male,,,,,,1.0,learning,20.0,C,,red,,moons,,,,C,red,moons,,1.0,0.0,NA,right,352.4000000358,4.0,0.0,0.0,,,
127,0,,html-keyboard-response,127,507634,0.0-4.21-0.21,l3qb1i9xs7m,2022-09-16 18:29:11.574,629e10d748005830b9eee9a0,0,72,24,61,1,27,Male,,,"<img src=""static/images/cards/stack_of_black_moons.svg"" width=""175px"" height=""250px""></img>",,,,,,,,,,,,,,,,,,,,,,,,,,,,
128,0,,html-keyboard-response,128,508940,0.0-4.21-1.21,l3qb1i9xs7m,2022-09-16 18:29:11.574,629e10d748005830b9eee9a0,0,72,24,61,1,27,Male,803.8000000119,,"
  <table>
  <tr height=300>
    <td width=300 height=300><img src=""static/images/cards/back_of_black_moons.svg"" width=""175px"" height=""250px""></img></td>
    <td width=300 height=300><img src=""static/images/cards/back_of_black_moons.svg"" width=""175px"" height=""250px""></img></td>
  </tr>
  <tr height=200>
    <td width=300><img src=""static/images/keys/z.svg"" width=""35%"" height=""75%""></img></td>
    <td width=300></td>
  </tr>
</table>
  ",90.0,1.0,,,,,,,,,,,,,,,,,,,,,,,,,,
129,0,,html-keyboard-response,129,510447,0.0-4.21-2.21,l3qb1i9xs7m,2022-09-16 18:29:11.574,629e10d748005830b9eee9a0,0,72,24,61,1,27,Male,,,"
  <table>
  <tr height=300>
    <td width=300 height=300><img src=""static/images/cards/8_of_black_moons.svg"" width=""175px"" height=""250px""></img></td>
    <td width=300 height=300><img src=""static/images/cards/back_of_black_moons.svg"" width=""175px"" height=""250px""></img></td>
  </tr>
  <tr height=200>
    <td width=300><img src=""static/images/keys/z.svg"" width=""35%"" height=""75%""></img></td>
    <td width=300></td>
  </tr>
</table>
  ",,,,,,,,,,,,,,,,,,,,,,,,,,,,
130,0,,html-keyboard-response,130,511957,0.0-4.21-3.21,l3qb1i9xs7m,2022-09-16 18:29:11.574,629e10d748005830b9eee9a0,0,72,24,61,1,27,Male,,,"<p style=""font-size:50px"">You Lose!
No points this round.</p>",,,,,,,,,,,,,,,,,,,,,,,,,,,,
131,0,,html-keyboard-response,131,512467,0.0-4.21-4.21,l3qb1i9xs7m,2022-09-16 18:29:11.574,629e10d748005830b9eee9a0,0,72,24,61,1,27,Male,,,,,,1.0,learning,21.0,D,,black,,moons,,,,D,black,moons,,0.0,0.0,1,left,803.8000000119,8.0,1.0,0.0,,,
132,0,,html-keyboard-response,132,513973,0.0-4.22-0.22,l3qb1i9xs7m,2022-09-16 18:29:11.574,629e10d748005830b9eee9a0,0,72,24,61,1,27,Male,,,"<img src=""static/images/cards/stack_of_red_bolts.svg"" width=""175px"" height=""250px""></img>",,,,,,,,,,,,,,,,,,,,,,,,,,,,
133,0,,html-keyboard-response,133,514816,0.0-4.22-1.22,l3qb1i9xs7m,2022-09-16 18:29:11.574,629e10d748005830b9eee9a0,0,72,24,61,1,27,Male,338.0,,"
  <table>
  <tr height=300>
    <td width=300 height=300><img src=""static/images/cards/back_of_red_bolts.svg"" width=""175px"" height=""250px""></img></td>
    <td width=300 height=300><img src=""static/images/cards/back_of_red_bolts.svg"" width=""175px"" height=""250px""></img></td>
  </tr>
  <tr height=200>
    <td width=300><img src=""static/images/keys/z.svg"" width=""35%"" height=""75%""></img></td>
    <td width=300><img src=""static/images/keys/m.svg"" width=""35%"" height=""75%""></img></td>
  </tr>
</table>
  ",77.0,1.0,,,,,,,,,,,,,,,,,,,,,,,,,,
134,0,,html-keyboard-response,134,516319,0.0-4.22-2.22,l3qb1i9xs7m,2022-09-16 18:29:11.574,629e10d748005830b9eee9a0,0,72,24,61,1,27,Male,,,"
  <table>
  <tr height=300>
    <td width=300 height=300><img src=""static/images/cards/back_of_red_bolts.svg"" width=""175px"" height=""250px""></img></td>
    <td width=300 height=300><img src=""static/images/cards/2_of_red_bolts.svg"" width=""175px"" height=""250px""></img></td>
  </tr>
  <tr height=200>
    <td width=300><img src=""static/images/keys/z.svg"" width=""35%"" height=""75%""></img></td>
    <td width=300><img src=""static/images/keys/m.svg"" width=""35%"" height=""75%""></img></td>
  </tr>
</table>
  ",,,,,,,,,,,,,,,,,,,,,,,,,,,,
135,0,,html-keyboard-response,135,517825,0.0-4.22-3.22,l3qb1i9xs7m,2022-09-16 18:29:11.574,629e10d748005830b9eee9a0,0,72,24,61,1,27,Male,,,"<p style=""font-size:50px"">You win!
+10 points this round!</p>",,,,,,,,,,,,,,,,,,,,,,,,,,,,
136,0,,html-keyboard-response,136,518334,0.0-4.22-4.22,l3qb1i9xs7m,2022-09-16 18:29:11.574,629e10d748005830b9eee9a0,0,72,24,61,1,27,Male,,,,,,1.0,learning,22.0,Xc,,red,,bolts,,,,Xc,red,bolts,,1.0,0.0,NA,right,338.0,2.0,0.0,1.0,,,
137,0,,html-keyboard-response,137,519840,0.0-4.23-0.23,l3qb1i9xs7m,2022-09-16 18:29:11.574,629e10d748005830b9eee9a0,0,72,24,61,1,27,Male,,,"<img src=""static/images/cards/stack_of_black_bolts.svg"" width=""175px"" height=""250px""></img>",,,,,,,,,,,,,,,,,,,,,,,,,,,,
138,0,,html-keyboard-response,138,520821,0.0-4.23-1.23,l3qb1i9xs7m,2022-09-16 18:29:11.574,629e10d748005830b9eee9a0,0,72,24,61,1,27,Male,477.9000000358,,"
  <table>
  <tr height=300>
    <td width=300 height=300><img src=""static/images/cards/back_of_black_bolts.svg"" width=""175px"" height=""250px""></img></td>
    <td width=300 height=300><img src=""static/images/cards/back_of_black_bolts.svg"" width=""175px"" height=""250px""></img></td>
  </tr>
  <tr height=200>
    <td width=300></td>
    <td width=300><img src=""static/images/keys/m.svg"" width=""35%"" height=""75%""></img></td>
  </tr>
</table>
  ",77.0,1.0,,,,,,,,,,,,,,,,,,,,,,,,,,
139,0,,html-keyboard-response,139,522328,0.0-4.23-2.23,l3qb1i9xs7m,2022-09-16 18:29:11.574,629e10d748005830b9eee9a0,0,72,24,61,1,27,Male,,,"
  <table>
  <tr height=300>
    <td width=300 height=300><img src=""static/images/cards/back_of_black_bolts.svg"" width=""175px"" height=""250px""></img></td>
    <td width=300 height=300><img src=""static/images/cards/3_of_black_bolts.svg"" width=""175px"" height=""250px""></img></td>
  </tr>
  <tr height=200>
    <td width=300></td>
    <td width=300><img src=""static/images/keys/m.svg"" width=""35%"" height=""75%""></img></td>
  </tr>
</table>
  ",,,,,,,,,,,,,,,,,,,,,,,,,,,,
140,0,,html-keyboard-response,140,523836,0.0-4.23-3.23,l3qb1i9xs7m,2022-09-16 18:29:11.574,629e10d748005830b9eee9a0,0,72,24,61,1,27,Male,,,"<p style=""font-size:50px"">You win!
+10 points this round!</p>",,,,,,,,,,,,,,,,,,,,,,,,,,,,
141,0,,html-keyboard-response,141,524347,0.0-4.23-4.23,l3qb1i9xs7m,2022-09-16 18:29:11.574,629e10d748005830b9eee9a0,0,72,24,61,1,27,Male,,,,,,1.0,learning,23.0,Xnc,,black,,bolts,,,,Xnc,black,bolts,,0.0,0.0,0,right,477.9000000358,3.0,0.0,1.0,,,
142,0,,call-function,142,524357,0.0-5.0,l3qb1i9xs7m,2022-09-16 18:29:11.574,629e10d748005830b9eee9a0,0,72,24,61,1,27,Male,,,,,,,,,,,,,,,,,,,,,,,,,,,,,,,
143,0,,image-keyboard-response,143,555400,0.0-6.0-0.0,l3qb1i9xs7m,2022-09-16 18:29:11.574,629e10d748005830b9eee9a0,0,72,24,61,1,27,Male,31042.8000000119,,static/images/instructions_CB_0/Slide20.png,39.0,,,,,,,,,,,,,,,,,,,,,,,,,,,
144,0,,image-keyboard-response,144,575111,0.0-6.1-0.1,l3qb1i9xs7m,2022-09-16 18:29:11.574,629e10d748005830b9eee9a0,0,72,24,61,1,27,Male,19709.5,,static/images/instructions_CB_0/Slide21.png,39.0,,,,,,,,,,,,,,,,,,,,,,,,,,,
145,0,,image-keyboard-response,145,584682,0.0-6.2-0.2,l3qb1i9xs7m,2022-09-16 18:29:11.574,629e10d748005830b9eee9a0,0,72,24,61,1,27,Male,9569.7999999523,,static/images/instructions_CB_0/Slide22.png,39.0,,,,,,,,,,,,,,,,,,,,,,,,,,,
146,0,,image-keyboard-response,146,589189,0.0-6.3-0.3,l3qb1i9xs7m,2022-09-16 18:29:11.574,629e10d748005830b9eee9a0,0,72,24,61,1,27,Male,4507.1999999881,,static/images/instructions_CB_0/Slide23.png,39.0,,,,,,,,,,,,,,,,,,,,,,,,,,,
147,0,,image-keyboard-response,147,593390,0.0-6.4-0.4,l3qb1i9xs7m,2022-09-16 18:29:11.574,629e10d748005830b9eee9a0,0,72,24,61,1,27,Male,4199.5999999642,,static/images/instructions_CB_0/Slide24.png,39.0,,,,,,,,,,,,,,,,,,,,,,,,,,,
148,0,,html-keyboard-response,148,594628,0.0-7.0-0.0,l3qb1i9xs7m,2022-09-16 18:29:11.574,629e10d748005830b9eee9a0,0,72,24,61,1,27,Male,1237.0,,"
  <table>
  <tr height=300>
    <td width=300 height=300><img src=""static/images/cards/stack_of_black_moons.svg"" width=""175px"" height=""250px""></img></td>
    <td width=300 height=300><img src=""static/images/cards/stack_of_red_stars.svg"" width=""175px"" height=""250px""></img></td>
  </tr>
  <tr height=200>
    <td width=300><img src=""static/images/keys/w.svg"" width=""35%"" height=""75%""></img></td>
    <td width=300><img src=""static/images/keys/o.svg"" width=""35%"" height=""75%""></img></td>
  </tr>
</table>
  ",79.0,1.0,,,,,,,,,,,,,,,,,,,,,,,,,,
149,0,,html-keyboard-response,149,596091,0.0-7.0-1.0,l3qb1i9xs7m,2022-09-16 18:29:11.574,629e10d748005830b9eee9a0,0,72,24,61,1,27,Male,961.5,,"
  <table>
  <tr height=300>
    <td width=300 height=300><img src=""static/images/cards/back_of_red_stars.svg"" width=""175px"" height=""250px""></img></td>
    <td width=300 height=300><img src=""static/images/cards/back_of_red_stars.svg"" width=""175px"" height=""250px""></img></td>
  </tr>
  <tr height=200>
    <td width=300><img src=""static/images/keys/z.svg"" width=""35%"" height=""75%""></img></td>
    <td width=300><img src=""static/images/keys/m.svg"" width=""35%"" height=""75%""></img></td>
  </tr>
</table>
  ",77.0,1.0,,,,,,,,,,,,,,,,,,,,,,,,,,
150,0,,html-keyboard-response,150,597598,0.0-7.0-2.0,l3qb1i9xs7m,2022-09-16 18:29:11.574,629e10d748005830b9eee9a0,0,72,24,61,1,27,Male,,,"
  <table>
  <tr height=300>
    <td width=300 height=300><img src=""static/images/cards/back_of_red_stars.svg"" width=""175px"" height=""250px""></img></td>
    <td width=300 height=300><img src=""static/images/cards/1_of_red_stars.svg"" width=""175px"" height=""250px""></img></td>
  </tr>
  <tr height=200>
    <td width=300><img src=""static/images/keys/z.svg"" width=""35%"" height=""75%""></img></td>
    <td width=300><img src=""static/images/keys/m.svg"" width=""35%"" height=""75%""></img></td>
  </tr>
</table>
  ",,,,,,,,,,,,,,,,,,,,,,,,,,,,
151,0,,html-keyboard-response,151,599109,0.0-7.0-3.0,l3qb1i9xs7m,2022-09-16 18:29:11.574,629e10d748005830b9eee9a0,0,72,24,61,1,27,Male,,,"<p style=""font-size:50px"">You Lose!
No points this round.</p>",,,,,,,,,,,,,,,,,,,,,,,,,,,,
152,0,,html-keyboard-response,152,599620,0.0-7.0-4.0,l3qb1i9xs7m,2022-09-16 18:29:11.574,629e10d748005830b9eee9a0,0,72,24,61,1,27,Male,,,,,,1.0,choice,0.0,A,D,black,red,moons,stars,D,A,A,red,stars,1237.0,1.0,1.0,NA,right,961.5,1.0,0.0,0.0,,,
153,0,,html-keyboard-response,153,601653,0.0-7.1-0.1,l3qb1i9xs7m,2022-09-16 18:29:11.574,629e10d748005830b9eee9a0,0,72,24,61,1,27,Male,2031.5,,"
  <table>
  <tr height=300>
    <td width=300 height=300><img src=""static/images/cards/stack_of_black_stars.svg"" width=""175px"" height=""250px""></img></td>
    <td width=300 height=300><img src=""static/images/cards/stack_of_black_moons.svg"" width=""175px"" height=""250px""></img></td>
  </tr>
  <tr height=200>
    <td width=300><img src=""static/images/keys/w.svg"" width=""35%"" height=""75%""></img></td>
    <td width=300><img src=""static/images/keys/o.svg"" width=""35%"" height=""75%""></img></td>
  </tr>
</table>
  ",87.0,2.0,,,,,,,,,,,,,,,,,,,,,,,,,,
154,0,,html-keyboard-response,154,603251,0.0-7.1-1.1,l3qb1i9xs7m,2022-09-16 18:29:11.574,629e10d748005830b9eee9a0,0,72,24,61,1,27,Male,1096.6000000238,,"
  <table>
  <tr height=300>
    <td width=300 height=300><img src=""static/images/cards/back_of_black_stars.svg"" width=""175px"" height=""250px""></img></td>
    <td width=300 height=300><img src=""static/images/cards/back_of_black_stars.svg"" width=""175px"" height=""250px""></img></td>
  </tr>
  <tr height=200>
    <td width=300></td>
    <td width=300><img src=""static/images/keys/m.svg"" width=""35%"" height=""75%""></img></td>
  </tr>
</table>
  ",77.0,1.0,,,,,,,,,,,,,,,,,,,,,,,,,,
155,0,,html-keyboard-response,155,604753,0.0-7.1-2.1,l3qb1i9xs7m,2022-09-16 18:29:11.574,629e10d748005830b9eee9a0,0,72,24,61,1,27,Male,,,"
  <table>
  <tr height=300>
    <td width=300 height=300><img src=""static/images/cards/back_of_black_stars.svg"" width=""175px"" height=""250px""></img></td>
    <td width=300 height=300><img src=""static/images/cards/9_of_black_stars.svg"" width=""175px"" height=""250px""></img></td>
  </tr>
  <tr height=200>
    <td width=300></td>
    <td width=300><img src=""static/images/keys/m.svg"" width=""35%"" height=""75%""></img></td>
  </tr>
</table>
  ",,,,,,,,,,,,,,,,,,,,,,,,,,,,
156,0,,html-keyboard-response,156,606260,0.0-7.1-3.1,l3qb1i9xs7m,2022-09-16 18:29:11.574,629e10d748005830b9eee9a0,0,72,24,61,1,27,Male,,,"<p style=""font-size:50px"">You win!
+10 points this round!</p>",,,,,,,,,,,,,,,,,,,,,,,,,,,,
157,0,,html-keyboard-response,157,606771,0.0-7.1-4.1,l3qb1i9xs7m,2022-09-16 18:29:11.574,629e10d748005830b9eee9a0,0,72,24,61,1,27,Male,,,,,,1.0,choice,1.0,B,D,black,black,stars,moons,B,D,B,black,stars,2031.5,0.0,1.0,0,right,1096.6000000238,9.0,1.0,1.0,,,
158,0,,html-keyboard-response,158,607798,0.0-7.2-0.2,l3qb1i9xs7m,2022-09-16 18:29:11.574,629e10d748005830b9eee9a0,0,72,24,61,1,27,Male,1026.1999999881,,"
  <table>
  <tr height=300>
    <td width=300 height=300><img src=""static/images/cards/stack_of_red_moons.svg"" width=""175px"" height=""250px""></img></td>
    <td width=300 height=300><img src=""static/images/cards/stack_of_black_stars.svg"" width=""175px"" height=""250px""></img></td>
  </tr>
  <tr height=200>
    <td width=300><img src=""static/images/keys/w.svg"" width=""35%"" height=""75%""></img></td>
    <td width=300><img src=""static/images/keys/o.svg"" width=""35%"" height=""75%""></img></td>
  </tr>
</table>
  ",79.0,1.0,,,,,,,,,,,,,,,,,,,,,,,,,,
159,0,,html-keyboard-response,159,609155,0.0-7.2-1.2,l3qb1i9xs7m,2022-09-16 18:29:11.574,629e10d748005830b9eee9a0,0,72,24,61,1,27,Male,850.6000000238,,"
  <table>
  <tr height=300>
    <td width=300 height=300><img src=""static/images/cards/back_of_black_stars.svg"" width=""175px"" height=""250px""></img></td>
    <td width=300 height=300><img src=""static/images/cards/back_of_black_stars.svg"" width=""175px"" height=""250px""></img></td>
  </tr>
  <tr height=200>
    <td width=300><img src=""static/images/keys/z.svg"" width=""35%"" height=""75%""></img></td>
    <td width=300></td>
  </tr>
</table>
  ",90.0,1.0,,,,,,,,,,,,,,,,,,,,,,,,,,
160,0,,html-keyboard-response,160,610657,0.0-7.2-2.2,l3qb1i9xs7m,2022-09-16 18:29:11.574,629e10d748005830b9eee9a0,0,72,24,61,1,27,Male,,,"
  <table>
  <tr height=300>
    <td width=300 height=300><img src=""static/images/cards/2_of_black_stars.svg"" width=""175px"" height=""250px""></img></td>
    <td width=300 height=300><img src=""static/images/cards/back_of_black_stars.svg"" width=""175px"" height=""250px""></img></td>
  </tr>
  <tr height=200>
    <td width=300><img src=""static/images/keys/z.svg"" width=""35%"" height=""75%""></img></td>
    <td width=300></td>
  </tr>
</table>
  ",,,,,,,,,,,,,,,,,,,,,,,,,,,,
161,0,,html-keyboard-response,161,612161,0.0-7.2-3.2,l3qb1i9xs7m,2022-09-16 18:29:11.574,629e10d748005830b9eee9a0,0,72,24,61,1,27,Male,,,"<p style=""font-size:50px"">You Lose!
No points this round.</p>",,,,,,,,,,,,,,,,,,,,,,,,,,,,
162,0,,html-keyboard-response,162,612670,0.0-7.2-4.2,l3qb1i9xs7m,2022-09-16 18:29:11.574,629e10d748005830b9eee9a0,0,72,24,61,1,27,Male,,,,,,1.0,choice,2.0,B,C,red,black,moons,stars,C,B,B,black,stars,1026.1999999881,0.0,1.0,1,left,850.6000000238,2.0,0.0,0.0,,,
163,0,,html-keyboard-response,163,613071,0.0-7.3-0.3,l3qb1i9xs7m,2022-09-16 18:29:11.574,629e10d748005830b9eee9a0,0,72,24,61,1,27,Male,399.8000000119,,"
  <table>
  <tr height=300>
    <td width=300 height=300><img src=""static/images/cards/stack_of_red_moons.svg"" width=""175px"" height=""250px""></img></td>
    <td width=300 height=300><img src=""static/images/cards/stack_of_red_stars.svg"" width=""175px"" height=""250px""></img></td>
  </tr>
  <tr height=200>
    <td width=300><img src=""static/images/keys/w.svg"" width=""35%"" height=""75%""></img></td>
    <td width=300><img src=""static/images/keys/o.svg"" width=""35%"" height=""75%""></img></td>
  </tr>
</table>
  ",79.0,1.0,,,,,,,,,,,,,,,,,,,,,,,,,,
164,0,,html-keyboard-response,164,614069,0.0-7.3-1.3,l3qb1i9xs7m,2022-09-16 18:29:11.574,629e10d748005830b9eee9a0,0,72,24,61,1,27,Male,492.0,,"
  <table>
  <tr height=300>
    <td width=300 height=300><img src=""static/images/cards/back_of_red_stars.svg"" width=""175px"" height=""250px""></img></td>
    <td width=300 height=300><img src=""static/images/cards/back_of_red_stars.svg"" width=""175px"" height=""250px""></img></td>
  </tr>
  <tr height=200>
    <td width=300><img src=""static/images/keys/z.svg"" width=""35%"" height=""75%""></img></td>
    <td width=300><img src=""static/images/keys/m.svg"" width=""35%"" height=""75%""></img></td>
  </tr>
</table>
  ",90.0,1.0,,,,,,,,,,,,,,,,,,,,,,,,,,
165,0,,html-keyboard-response,165,615575,0.0-7.3-2.3,l3qb1i9xs7m,2022-09-16 18:29:11.574,629e10d748005830b9eee9a0,0,72,24,61,1,27,Male,,,"
  <table>
  <tr height=300>
    <td width=300 height=300><img src=""static/images/cards/3_of_red_stars.svg"" width=""175px"" height=""250px""></img></td>
    <td width=300 height=300><img src=""static/images/cards/back_of_red_stars.svg"" width=""175px"" height=""250px""></img></td>
  </tr>
  <tr height=200>
    <td width=300><img src=""static/images/keys/z.svg"" width=""35%"" height=""75%""></img></td>
    <td width=300><img src=""static/images/keys/m.svg"" width=""35%"" height=""75%""></img></td>
  </tr>
</table>
  ",,,,,,,,,,,,,,,,,,,,,,,,,,,,
166,0,,html-keyboard-response,166,617086,0.0-7.3-3.3,l3qb1i9xs7m,2022-09-16 18:29:11.574,629e10d748005830b9eee9a0,0,72,24,61,1,27,Male,,,"<p style=""font-size:50px"">You Lose!
No points this round.</p>",,,,,,,,,,,,,,,,,,,,,,,,,,,,
167,0,,html-keyboard-response,167,617596,0.0-7.3-4.3,l3qb1i9xs7m,2022-09-16 18:29:11.574,629e10d748005830b9eee9a0,0,72,24,61,1,27,Male,,,,,,1.0,choice,3.0,A,C,red,red,moons,stars,C,A,A,red,stars,399.8000000119,1.0,1.0,NA,left,492.0,3.0,0.0,0.0,,,
168,0,,html-keyboard-response,168,617960,0.0-7.4-0.4,l3qb1i9xs7m,2022-09-16 18:29:11.574,629e10d748005830b9eee9a0,0,72,24,61,1,27,Male,362.1999999881,,"
  <table>
  <tr height=300>
    <td width=300 height=300><img src=""static/images/cards/stack_of_red_moons.svg"" width=""175px"" height=""250px""></img></td>
    <td width=300 height=300><img src=""static/images/cards/stack_of_black_bolts.svg"" width=""175px"" height=""250px""></img></td>
  </tr>
  <tr height=200>
    <td width=300><img src=""static/images/keys/w.svg"" width=""35%"" height=""75%""></img></td>
    <td width=300><img src=""static/images/keys/o.svg"" width=""35%"" height=""75%""></img></td>
  </tr>
</table>
  ",87.0,1.0,,,,,,,,,,,,,,,,,,,,,,,,,,
169,0,,html-keyboard-response,169,618759,0.0-7.4-1.4,l3qb1i9xs7m,2022-09-16 18:29:11.574,629e10d748005830b9eee9a0,0,72,24,61,1,27,Male,296.8000000119,,"
  <table>
  <tr height=300>
    <td width=300 height=300><img src=""static/images/cards/back_of_red_moons.svg"" width=""175px"" height=""250px""></img></td>
    <td width=300 height=300><img src=""static/images/cards/back_of_red_moons.svg"" width=""175px"" height=""250px""></img></td>
  </tr>
  <tr height=200>
    <td width=300><img src=""static/images/keys/z.svg"" width=""35%"" height=""75%""></img></td>
    <td width=300><img src=""static/images/keys/m.svg"" width=""35%"" height=""75%""></img></td>
  </tr>
</table>
  ",77.0,1.0,,,,,,,,,,,,,,,,,,,,,,,,,,
170,0,,html-keyboard-response,170,620266,0.0-7.4-2.4,l3qb1i9xs7m,2022-09-16 18:29:11.574,629e10d748005830b9eee9a0,0,72,24,61,1,27,Male,,,"
  <table>
  <tr height=300>
    <td width=300 height=300><img src=""static/images/cards/back_of_red_moons.svg"" width=""175px"" height=""250px""></img></td>
    <td width=300 height=300><img src=""static/images/cards/3_of_red_moons.svg"" width=""175px"" height=""250px""></img></td>
  </tr>
  <tr height=200>
    <td width=300><img src=""static/images/keys/z.svg"" width=""35%"" height=""75%""></img></td>
    <td width=300><img src=""static/images/keys/m.svg"" width=""35%"" height=""75%""></img></td>
  </tr>
</table>
  ",,,,,,,,,,,,,,,,,,,,,,,,,,,,
171,0,,html-keyboard-response,171,621771,0.0-7.4-3.4,l3qb1i9xs7m,2022-09-16 18:29:11.574,629e10d748005830b9eee9a0,0,72,24,61,1,27,Male,,,"<p style=""font-size:50px"">You win!
+10 points this round!</p>",,,,,,,,,,,,,,,,,,,,,,,,,,,,
172,0,,html-keyboard-response,172,622281,0.0-7.4-4.4,l3qb1i9xs7m,2022-09-16 18:29:11.574,629e10d748005830b9eee9a0,0,72,24,61,1,27,Male,,,,,,1.0,choice,4.0,C,Xnc,red,black,moons,bolts,C,Xnc,C,red,moons,362.1999999881,1.0,0.0,NA,right,296.8000000119,3.0,0.0,1.0,,,
173,0,,html-keyboard-response,173,622678,0.0-7.5-0.5,l3qb1i9xs7m,2022-09-16 18:29:11.574,629e10d748005830b9eee9a0,0,72,24,61,1,27,Male,395.1000000238,,"
  <table>
  <tr height=300>
    <td width=300 height=300><img src=""static/images/cards/stack_of_red_stars.svg"" width=""175px"" height=""250px""></img></td>
    <td width=300 height=300><img src=""static/images/cards/stack_of_black_stars.svg"" width=""175px"" height=""250px""></img></td>
  </tr>
  <tr height=200>
    <td width=300><img src=""static/images/keys/w.svg"" width=""35%"" height=""75%""></img></td>
    <td width=300><img src=""static/images/keys/o.svg"" width=""35%"" height=""75%""></img></td>
  </tr>
</table>
  ",87.0,1.0,,,,,,,,,,,,,,,,,,,,,,,,,,
174,0,,html-keyboard-response,174,623486,0.0-7.5-1.5,l3qb1i9xs7m,2022-09-16 18:29:11.574,629e10d748005830b9eee9a0,0,72,24,61,1,27,Male,301.4000000358,,"
  <table>
  <tr height=300>
    <td width=300 height=300><img src=""static/images/cards/back_of_red_stars.svg"" width=""175px"" height=""250px""></img></td>
    <td width=300 height=300><img src=""static/images/cards/back_of_red_stars.svg"" width=""175px"" height=""250px""></img></td>
  </tr>
  <tr height=200>
    <td width=300><img src=""static/images/keys/z.svg"" width=""35%"" height=""75%""></img></td>
    <td width=300><img src=""static/images/keys/m.svg"" width=""35%"" height=""75%""></img></td>
  </tr>
</table>
  ",90.0,1.0,,,,,,,,,,,,,,,,,,,,,,,,,,
175,0,,html-keyboard-response,175,624992,0.0-7.5-2.5,l3qb1i9xs7m,2022-09-16 18:29:11.574,629e10d748005830b9eee9a0,0,72,24,61,1,27,Male,,,"
  <table>
  <tr height=300>
    <td width=300 height=300><img src=""static/images/cards/3_of_red_stars.svg"" width=""175px"" height=""250px""></img></td>
    <td width=300 height=300><img src=""static/images/cards/back_of_red_stars.svg"" width=""175px"" height=""250px""></img></td>
  </tr>
  <tr height=200>
    <td width=300><img src=""static/images/keys/z.svg"" width=""35%"" height=""75%""></img></td>
    <td width=300><img src=""static/images/keys/m.svg"" width=""35%"" height=""75%""></img></td>
  </tr>
</table>
  ",,,,,,,,,,,,,,,,,,,,,,,,,,,,
176,0,,html-keyboard-response,176,626498,0.0-7.5-3.5,l3qb1i9xs7m,2022-09-16 18:29:11.574,629e10d748005830b9eee9a0,0,72,24,61,1,27,Male,,,"<p style=""font-size:50px"">You Lose!
No points this round.</p>",,,,,,,,,,,,,,,,,,,,,,,,,,,,
177,0,,html-keyboard-response,177,627004,0.0-7.5-4.5,l3qb1i9xs7m,2022-09-16 18:29:11.574,629e10d748005830b9eee9a0,0,72,24,61,1,27,Male,,,,,,1.0,choice,5.0,A,B,red,black,stars,stars,A,B,A,red,stars,395.1000000238,1.0,1.0,NA,left,301.4000000358,3.0,0.0,0.0,,,
178,0,,html-keyboard-response,178,627336,0.0-7.6-0.6,l3qb1i9xs7m,2022-09-16 18:29:11.574,629e10d748005830b9eee9a0,0,72,24,61,1,27,Male,330.5,,"
  <table>
  <tr height=300>
    <td width=300 height=300><img src=""static/images/cards/stack_of_red_moons.svg"" width=""175px"" height=""250px""></img></td>
    <td width=300 height=300><img src=""static/images/cards/stack_of_red_stars.svg"" width=""175px"" height=""250px""></img></td>
  </tr>
  <tr height=200>
    <td width=300><img src=""static/images/keys/w.svg"" width=""35%"" height=""75%""></img></td>
    <td width=300><img src=""static/images/keys/o.svg"" width=""35%"" height=""75%""></img></td>
  </tr>
</table>
  ",87.0,1.0,,,,,,,,,,,,,,,,,,,,,,,,,,
179,0,,html-keyboard-response,179,628109,0.0-7.6-1.6,l3qb1i9xs7m,2022-09-16 18:29:11.574,629e10d748005830b9eee9a0,0,72,24,61,1,27,Male,272.0,,"
  <table>
  <tr height=300>
    <td width=300 height=300><img src=""static/images/cards/back_of_red_moons.svg"" width=""175px"" height=""250px""></img></td>
    <td width=300 height=300><img src=""static/images/cards/back_of_red_moons.svg"" width=""175px"" height=""250px""></img></td>
  </tr>
  <tr height=200>
    <td width=300><img src=""static/images/keys/z.svg"" width=""35%"" height=""75%""></img></td>
    <td width=300><img src=""static/images/keys/m.svg"" width=""35%"" height=""75%""></img></td>
  </tr>
</table>
  ",90.0,1.0,,,,,,,,,,,,,,,,,,,,,,,,,,
180,0,,html-keyboard-response,180,629616,0.0-7.6-2.6,l3qb1i9xs7m,2022-09-16 18:29:11.574,629e10d748005830b9eee9a0,0,72,24,61,1,27,Male,,,"
  <table>
  <tr height=300>
    <td width=300 height=300><img src=""static/images/cards/8_of_red_moons.svg"" width=""175px"" height=""250px""></img></td>
    <td width=300 height=300><img src=""static/images/cards/back_of_red_moons.svg"" width=""175px"" height=""250px""></img></td>
  </tr>
  <tr height=200>
    <td width=300><img src=""static/images/keys/z.svg"" width=""35%"" height=""75%""></img></td>
    <td width=300><img src=""static/images/keys/m.svg"" width=""35%"" height=""75%""></img></td>
  </tr>
</table>
  ",,,,,,,,,,,,,,,,,,,,,,,,,,,,
181,0,,html-keyboard-response,181,631120,0.0-7.6-3.6,l3qb1i9xs7m,2022-09-16 18:29:11.574,629e10d748005830b9eee9a0,0,72,24,61,1,27,Male,,,"<p style=""font-size:50px"">You win!
+10 points this round!</p>",,,,,,,,,,,,,,,,,,,,,,,,,,,,
182,0,,html-keyboard-response,182,631628,0.0-7.6-4.6,l3qb1i9xs7m,2022-09-16 18:29:11.574,629e10d748005830b9eee9a0,0,72,24,61,1,27,Male,,,,,,1.0,choice,6.0,A,C,red,red,moons,stars,C,A,C,red,moons,330.5,1.0,0.0,NA,left,272.0,8.0,1.0,1.0,,,
183,0,,html-keyboard-response,183,632072,0.0-7.7-0.7,l3qb1i9xs7m,2022-09-16 18:29:11.574,629e10d748005830b9eee9a0,0,72,24,61,1,27,Male,443.0999999642,,"
  <table>
  <tr height=300>
    <td width=300 height=300><img src=""static/images/cards/stack_of_red_stars.svg"" width=""175px"" height=""250px""></img></td>
    <td width=300 height=300><img src=""static/images/cards/stack_of_black_moons.svg"" width=""175px"" height=""250px""></img></td>
  </tr>
  <tr height=200>
    <td width=300><img src=""static/images/keys/w.svg"" width=""35%"" height=""75%""></img></td>
    <td width=300><img src=""static/images/keys/o.svg"" width=""35%"" height=""75%""></img></td>
  </tr>
</table>
  ",79.0,1.0,,,,,,,,,,,,,,,,,,,,,,,,,,
184,0,,html-keyboard-response,184,632834,0.0-7.7-1.7,l3qb1i9xs7m,2022-09-16 18:29:11.574,629e10d748005830b9eee9a0,0,72,24,61,1,27,Male,255.6999999881,,"
  <table>
  <tr height=300>
    <td width=300 height=300><img src=""static/images/cards/back_of_black_moons.svg"" width=""175px"" height=""250px""></img></td>
    <td width=300 height=300><img src=""static/images/cards/back_of_black_moons.svg"" width=""175px"" height=""250px""></img></td>
  </tr>
  <tr height=200>
    <td width=300><img src=""static/images/keys/z.svg"" width=""35%"" height=""75%""></img></td>
    <td width=300></td>
  </tr>
</table>
  ",90.0,1.0,,,,,,,,,,,,,,,,,,,,,,,,,,
185,0,,html-keyboard-response,185,634340,0.0-7.7-2.7,l3qb1i9xs7m,2022-09-16 18:29:11.574,629e10d748005830b9eee9a0,0,72,24,61,1,27,Male,,,"
  <table>
  <tr height=300>
    <td width=300 height=300><img src=""static/images/cards/2_of_black_moons.svg"" width=""175px"" height=""250px""></img></td>
    <td width=300 height=300><img src=""static/images/cards/back_of_black_moons.svg"" width=""175px"" height=""250px""></img></td>
  </tr>
  <tr height=200>
    <td width=300><img src=""static/images/keys/z.svg"" width=""35%"" height=""75%""></img></td>
    <td width=300></td>
  </tr>
</table>
  ",,,,,,,,,,,,,,,,,,,,,,,,,,,,
186,0,,html-keyboard-response,186,635851,0.0-7.7-3.7,l3qb1i9xs7m,2022-09-16 18:29:11.574,629e10d748005830b9eee9a0,0,72,24,61,1,27,Male,,,"<p style=""font-size:50px"">You Lose!
No points this round.</p>",,,,,,,,,,,,,,,,,,,,,,,,,,,,
187,0,,html-keyboard-response,187,636362,0.0-7.7-4.7,l3qb1i9xs7m,2022-09-16 18:29:11.574,629e10d748005830b9eee9a0,0,72,24,61,1,27,Male,,,,,,1.0,choice,7.0,A,D,red,black,stars,moons,A,D,D,black,moons,443.0999999642,0.0,0.0,1,left,255.6999999881,2.0,0.0,0.0,,,
188,0,,html-keyboard-response,188,636745,0.0-7.8-0.8,l3qb1i9xs7m,2022-09-16 18:29:11.574,629e10d748005830b9eee9a0,0,72,24,61,1,27,Male,382.1000000238,,"
  <table>
  <tr height=300>
    <td width=300 height=300><img src=""static/images/cards/stack_of_red_moons.svg"" width=""175px"" height=""250px""></img></td>
    <td width=300 height=300><img src=""static/images/cards/stack_of_red_bolts.svg"" width=""175px"" height=""250px""></img></td>
  </tr>
  <tr height=200>
    <td width=300><img src=""static/images/keys/w.svg"" width=""35%"" height=""75%""></img></td>
    <td width=300><img src=""static/images/keys/o.svg"" width=""35%"" height=""75%""></img></td>
  </tr>
</table>
  ",79.0,1.0,,,,,,,,,,,,,,,,,,,,,,,,,,
189,0,,html-keyboard-response,189,637784,0.0-7.8-1.8,l3qb1i9xs7m,2022-09-16 18:29:11.574,629e10d748005830b9eee9a0,0,72,24,61,1,27,Male,532.1999999881,,"
  <table>
  <tr height=300>
    <td width=300 height=300><img src=""static/images/cards/back_of_red_bolts.svg"" width=""175px"" height=""250px""></img></td>
    <td width=300 height=300><img src=""static/images/cards/back_of_red_bolts.svg"" width=""175px"" height=""250px""></img></td>
  </tr>
  <tr height=200>
    <td width=300><img src=""static/images/keys/z.svg"" width=""35%"" height=""75%""></img></td>
    <td width=300><img src=""static/images/keys/m.svg"" width=""35%"" height=""75%""></img></td>
  </tr>
</table>
  ",90.0,1.0,,,,,,,,,,,,,,,,,,,,,,,,,,
190,0,,html-keyboard-response,190,639290,0.0-7.8-2.8,l3qb1i9xs7m,2022-09-16 18:29:11.574,629e10d748005830b9eee9a0,0,72,24,61,1,27,Male,,,"
  <table>
  <tr height=300>
    <td width=300 height=300><img src=""static/images/cards/7_of_red_bolts.svg"" width=""175px"" height=""250px""></img></td>
    <td width=300 height=300><img src=""static/images/cards/back_of_red_bolts.svg"" width=""175px"" height=""250px""></img></td>
  </tr>
  <tr height=200>
    <td width=300><img src=""static/images/keys/z.svg"" width=""35%"" height=""75%""></img></td>
    <td width=300><img src=""static/images/keys/m.svg"" width=""35%"" height=""75%""></img></td>
  </tr>
</table>
  ",,,,,,,,,,,,,,,,,,,,,,,,,,,,
191,0,,html-keyboard-response,191,640801,0.0-7.8-3.8,l3qb1i9xs7m,2022-09-16 18:29:11.574,629e10d748005830b9eee9a0,0,72,24,61,1,27,Male,,,"<p style=""font-size:50px"">You win!
+10 points this round!</p>",,,,,,,,,,,,,,,,,,,,,,,,,,,,
192,0,,html-keyboard-response,192,641308,0.0-7.8-4.8,l3qb1i9xs7m,2022-09-16 18:29:11.574,629e10d748005830b9eee9a0,0,72,24,61,1,27,Male,,,,,,1.0,choice,8.0,C,Xc,red,red,moons,bolts,C,Xc,Xc,red,bolts,382.1000000238,1.0,0.0,NA,left,532.1999999881,7.0,1.0,1.0,,,
193,0,,html-keyboard-response,193,642046,0.0-7.9-0.9,l3qb1i9xs7m,2022-09-16 18:29:11.574,629e10d748005830b9eee9a0,0,72,24,61,1,27,Male,735.8999999762,,"
  <table>
  <tr height=300>
    <td width=300 height=300><img src=""static/images/cards/stack_of_black_moons.svg"" width=""175px"" height=""250px""></img></td>
    <td width=300 height=300><img src=""static/images/cards/stack_of_black_stars.svg"" width=""175px"" height=""250px""></img></td>
  </tr>
  <tr height=200>
    <td width=300><img src=""static/images/keys/w.svg"" width=""35%"" height=""75%""></img></td>
    <td width=300><img src=""static/images/keys/o.svg"" width=""35%"" height=""75%""></img></td>
  </tr>
</table>
  ",79.0,1.0,,,,,,,,,,,,,,,,,,,,,,,,,,
194,0,,html-keyboard-response,194,643565,0.0-7.9-1.9,l3qb1i9xs7m,2022-09-16 18:29:11.574,629e10d748005830b9eee9a0,0,72,24,61,1,27,Male,1013.3000000119,,"
  <table>
  <tr height=300>
    <td width=300 height=300><img src=""static/images/cards/back_of_black_stars.svg"" width=""175px"" height=""250px""></img></td>
    <td width=300 height=300><img src=""static/images/cards/back_of_black_stars.svg"" width=""175px"" height=""250px""></img></td>
  </tr>
  <tr height=200>
    <td width=300></td>
    <td width=300><img src=""static/images/keys/m.svg"" width=""35%"" height=""75%""></img></td>
  </tr>
</table>
  ",77.0,1.0,,,,,,,,,,,,,,,,,,,,,,,,,,
195,0,,html-keyboard-response,195,645071,0.0-7.9-2.9,l3qb1i9xs7m,2022-09-16 18:29:11.574,629e10d748005830b9eee9a0,0,72,24,61,1,27,Male,,,"
  <table>
  <tr height=300>
    <td width=300 height=300><img src=""static/images/cards/back_of_black_stars.svg"" width=""175px"" height=""250px""></img></td>
    <td width=300 height=300><img src=""static/images/cards/10_of_black_stars.svg"" width=""175px"" height=""250px""></img></td>
  </tr>
  <tr height=200>
    <td width=300></td>
    <td width=300><img src=""static/images/keys/m.svg"" width=""35%"" height=""75%""></img></td>
  </tr>
</table>
  ",,,,,,,,,,,,,,,,,,,,,,,,,,,,
196,0,,html-keyboard-response,196,646582,0.0-7.9-3.9,l3qb1i9xs7m,2022-09-16 18:29:11.574,629e10d748005830b9eee9a0,0,72,24,61,1,27,Male,,,"<p style=""font-size:50px"">You win!
+10 points this round!</p>",,,,,,,,,,,,,,,,,,,,,,,,,,,,
197,0,,html-keyboard-response,197,647092,0.0-7.9-4.9,l3qb1i9xs7m,2022-09-16 18:29:11.574,629e10d748005830b9eee9a0,0,72,24,61,1,27,Male,,,,,,1.0,choice,9.0,B,D,black,black,moons,stars,D,B,B,black,stars,735.8999999762,0.0,1.0,0,right,1013.3000000119,10.0,1.0,1.0,,,
198,0,,html-keyboard-response,198,647339,0.0-7.10-0.10,l3qb1i9xs7m,2022-09-16 18:29:11.574,629e10d748005830b9eee9a0,0,72,24,61,1,27,Male,245.7999999523,,"
  <table>
  <tr height=300>
    <td width=300 height=300><img src=""static/images/cards/stack_of_red_moons.svg"" width=""175px"" height=""250px""></img></td>
    <td width=300 height=300><img src=""static/images/cards/stack_of_black_moons.svg"" width=""175px"" height=""250px""></img></td>
  </tr>
  <tr height=200>
    <td width=300><img src=""static/images/keys/w.svg"" width=""35%"" height=""75%""></img></td>
    <td width=300><img src=""static/images/keys/o.svg"" width=""35%"" height=""75%""></img></td>
  </tr>
</table>
  ",87.0,1.0,,,,,,,,,,,,,,,,,,,,,,,,,,
199,0,,html-keyboard-response,199,648339,0.0-7.10-1.10,l3qb1i9xs7m,2022-09-16 18:29:11.574,629e10d748005830b9eee9a0,0,72,24,61,1,27,Male,497.2000000477,,"
  <table>
  <tr height=300>
    <td width=300 height=300><img src=""static/images/cards/back_of_red_moons.svg"" width=""175px"" height=""250px""></img></td>
    <td width=300 height=300><img src=""static/images/cards/back_of_red_moons.svg"" width=""175px"" height=""250px""></img></td>
  </tr>
  <tr height=200>
    <td width=300><img src=""static/images/keys/z.svg"" width=""35%"" height=""75%""></img></td>
    <td width=300><img src=""static/images/keys/m.svg"" width=""35%"" height=""75%""></img></td>
  </tr>
</table>
  ",90.0,1.0,,,,,,,,,,,,,,,,,,,,,,,,,,
200,0,,html-keyboard-response,200,649840,0.0-7.10-2.10,l3qb1i9xs7m,2022-09-16 18:29:11.574,629e10d748005830b9eee9a0,0,72,24,61,1,27,Male,,,"
  <table>
  <tr height=300>
    <td width=300 height=300><img src=""static/images/cards/1_of_red_moons.svg"" width=""175px"" height=""250px""></img></td>
    <td width=300 height=300><img src=""static/images/cards/back_of_red_moons.svg"" width=""175px"" height=""250px""></img></td>
  </tr>
  <tr height=200>
    <td width=300><img src=""static/images/keys/z.svg"" width=""35%"" height=""75%""></img></td>
    <td width=300><img src=""static/images/keys/m.svg"" width=""35%"" height=""75%""></img></td>
  </tr>
</table>
  ",,,,,,,,,,,,,,,,,,,,,,,,,,,,
201,0,,html-keyboard-response,201,651345,0.0-7.10-3.10,l3qb1i9xs7m,2022-09-16 18:29:11.574,629e10d748005830b9eee9a0,0,72,24,61,1,27,Male,,,"<p style=""font-size:50px"">You Lose!
No points this round.</p>",,,,,,,,,,,,,,,,,,,,,,,,,,,,
202,0,,html-keyboard-response,202,651852,0.0-7.10-4.10,l3qb1i9xs7m,2022-09-16 18:29:11.574,629e10d748005830b9eee9a0,0,72,24,61,1,27,Male,,,,,,1.0,choice,10.0,C,D,red,black,moons,moons,C,D,C,red,moons,245.7999999523,1.0,0.0,NA,left,497.2000000477,1.0,0.0,0.0,,,
203,0,,html-keyboard-response,203,652928,0.0-7.11-0.11,l3qb1i9xs7m,2022-09-16 18:29:11.574,629e10d748005830b9eee9a0,0,72,24,61,1,27,Male,1074.6999999881,,"
  <table>
  <tr height=300>
    <td width=300 height=300><img src=""static/images/cards/stack_of_red_moons.svg"" width=""175px"" height=""250px""></img></td>
    <td width=300 height=300><img src=""static/images/cards/stack_of_black_stars.svg"" width=""175px"" height=""250px""></img></td>
  </tr>
  <tr height=200>
    <td width=300><img src=""static/images/keys/w.svg"" width=""35%"" height=""75%""></img></td>
    <td width=300><img src=""static/images/keys/o.svg"" width=""35%"" height=""75%""></img></td>
  </tr>
</table>
  ",79.0,1.0,,,,,,,,,,,,,,,,,,,,,,,,,,
204,0,,html-keyboard-response,204,653872,0.0-7.11-1.11,l3qb1i9xs7m,2022-09-16 18:29:11.574,629e10d748005830b9eee9a0,0,72,24,61,1,27,Male,437.4000000358,,"
  <table>
  <tr height=300>
    <td width=300 height=300><img src=""static/images/cards/back_of_black_stars.svg"" width=""175px"" height=""250px""></img></td>
    <td width=300 height=300><img src=""static/images/cards/back_of_black_stars.svg"" width=""175px"" height=""250px""></img></td>
  </tr>
  <tr height=200>
    <td width=300><img src=""static/images/keys/z.svg"" width=""35%"" height=""75%""></img></td>
    <td width=300></td>
  </tr>
</table>
  ",90.0,1.0,,,,,,,,,,,,,,,,,,,,,,,,,,
205,0,,html-keyboard-response,205,655378,0.0-7.11-2.11,l3qb1i9xs7m,2022-09-16 18:29:11.574,629e10d748005830b9eee9a0,0,72,24,61,1,27,Male,,,"
  <table>
  <tr height=300>
    <td width=300 height=300><img src=""static/images/cards/1_of_black_stars.svg"" width=""175px"" height=""250px""></img></td>
    <td width=300 height=300><img src=""static/images/cards/back_of_black_stars.svg"" width=""175px"" height=""250px""></img></td>
  </tr>
  <tr height=200>
    <td width=300><img src=""static/images/keys/z.svg"" width=""35%"" height=""75%""></img></td>
    <td width=300></td>
  </tr>
</table>
  ",,,,,,,,,,,,,,,,,,,,,,,,,,,,
206,0,,html-keyboard-response,206,656882,0.0-7.11-3.11,l3qb1i9xs7m,2022-09-16 18:29:11.574,629e10d748005830b9eee9a0,0,72,24,61,1,27,Male,,,"<p style=""font-size:50px"">You Lose!
No points this round.</p>",,,,,,,,,,,,,,,,,,,,,,,,,,,,
207,0,,html-keyboard-response,207,657392,0.0-7.11-4.11,l3qb1i9xs7m,2022-09-16 18:29:11.574,629e10d748005830b9eee9a0,0,72,24,61,1,27,Male,,,,,,1.0,choice,11.0,B,C,red,black,moons,stars,C,B,B,black,stars,1074.6999999881,0.0,1.0,1,left,437.4000000358,1.0,0.0,0.0,,,
208,0,,html-keyboard-response,208,657748,0.0-7.12-0.12,l3qb1i9xs7m,2022-09-16 18:29:11.574,629e10d748005830b9eee9a0,0,72,24,61,1,27,Male,354.1999999881,,"
  <table>
  <tr height=300>
    <td width=300 height=300><img src=""static/images/cards/stack_of_black_stars.svg"" width=""175px"" height=""250px""></img></td>
    <td width=300 height=300><img src=""static/images/cards/stack_of_red_stars.svg"" width=""175px"" height=""250px""></img></td>
  </tr>
  <tr height=200>
    <td width=300><img src=""static/images/keys/w.svg"" width=""35%"" height=""75%""></img></td>
    <td width=300><img src=""static/images/keys/o.svg"" width=""35%"" height=""75%""></img></td>
  </tr>
</table>
  ",87.0,1.0,,,,,,,,,,,,,,,,,,,,,,,,,,
209,0,,html-keyboard-response,209,659141,0.0-7.12-1.12,l3qb1i9xs7m,2022-09-16 18:29:11.574,629e10d748005830b9eee9a0,0,72,24,61,1,27,Male,887.9000000358,,"
  <table>
  <tr height=300>
    <td width=300 height=300><img src=""static/images/cards/back_of_black_stars.svg"" width=""175px"" height=""250px""></img></td>
    <td width=300 height=300><img src=""static/images/cards/back_of_black_stars.svg"" width=""175px"" height=""250px""></img></td>
  </tr>
  <tr height=200>
    <td width=300></td>
    <td width=300><img src=""static/images/keys/m.svg"" width=""35%"" height=""75%""></img></td>
  </tr>
</table>
  ",77.0,2.0,,,,,,,,,,,,,,,,,,,,,,,,,,
210,0,,html-keyboard-response,210,660648,0.0-7.12-2.12,l3qb1i9xs7m,2022-09-16 18:29:11.574,629e10d748005830b9eee9a0,0,72,24,61,1,27,Male,,,"
  <table>
  <tr height=300>
    <td width=300 height=300><img src=""static/images/cards/back_of_black_stars.svg"" width=""175px"" height=""250px""></img></td>
    <td width=300 height=300><img src=""static/images/cards/10_of_black_stars.svg"" width=""175px"" height=""250px""></img></td>
  </tr>
  <tr height=200>
    <td width=300></td>
    <td width=300><img src=""static/images/keys/m.svg"" width=""35%"" height=""75%""></img></td>
  </tr>
</table>
  ",,,,,,,,,,,,,,,,,,,,,,,,,,,,
211,0,,html-keyboard-response,211,662158,0.0-7.12-3.12,l3qb1i9xs7m,2022-09-16 18:29:11.574,629e10d748005830b9eee9a0,0,72,24,61,1,27,Male,,,"<p style=""font-size:50px"">You win!
+10 points this round!</p>",,,,,,,,,,,,,,,,,,,,,,,,,,,,
212,0,,html-keyboard-response,212,662669,0.0-7.12-4.12,l3qb1i9xs7m,2022-09-16 18:29:11.574,629e10d748005830b9eee9a0,0,72,24,61,1,27,Male,,,,,,1.0,choice,12.0,A,B,black,red,stars,stars,B,A,B,black,stars,354.1999999881,0.0,1.0,0,right,887.9000000358,10.0,1.0,1.0,,,
213,0,,html-keyboard-response,213,663068,0.0-7.13-0.13,l3qb1i9xs7m,2022-09-16 18:29:11.574,629e10d748005830b9eee9a0,0,72,24,61,1,27,Male,397.7000000477,,"
  <table>
  <tr height=300>
    <td width=300 height=300><img src=""static/images/cards/stack_of_red_stars.svg"" width=""175px"" height=""250px""></img></td>
    <td width=300 height=300><img src=""static/images/cards/stack_of_black_moons.svg"" width=""175px"" height=""250px""></img></td>
  </tr>
  <tr height=200>
    <td width=300><img src=""static/images/keys/w.svg"" width=""35%"" height=""75%""></img></td>
    <td width=300><img src=""static/images/keys/o.svg"" width=""35%"" height=""75%""></img></td>
  </tr>
</table>
  ",79.0,1.0,,,,,,,,,,,,,,,,,,,,,,,,,,
214,0,,html-keyboard-response,214,664467,0.0-7.13-1.13,l3qb1i9xs7m,2022-09-16 18:29:11.574,629e10d748005830b9eee9a0,0,72,24,61,1,27,Male,892.8999999762,,"
  <table>
  <tr height=300>
    <td width=300 height=300><img src=""static/images/cards/back_of_black_moons.svg"" width=""175px"" height=""250px""></img></td>
    <td width=300 height=300><img src=""static/images/cards/back_of_black_moons.svg"" width=""175px"" height=""250px""></img></td>
  </tr>
  <tr height=200>
    <td width=300></td>
    <td width=300><img src=""static/images/keys/m.svg"" width=""35%"" height=""75%""></img></td>
  </tr>
</table>
  ",77.0,1.0,,,,,,,,,,,,,,,,,,,,,,,,,,
215,0,,html-keyboard-response,215,665968,0.0-7.13-2.13,l3qb1i9xs7m,2022-09-16 18:29:11.574,629e10d748005830b9eee9a0,0,72,24,61,1,27,Male,,,"
  <table>
  <tr height=300>
    <td width=300 height=300><img src=""static/images/cards/back_of_black_moons.svg"" width=""175px"" height=""250px""></img></td>
    <td width=300 height=300><img src=""static/images/cards/9_of_black_moons.svg"" width=""175px"" height=""250px""></img></td>
  </tr>
  <tr height=200>
    <td width=300></td>
    <td width=300><img src=""static/images/keys/m.svg"" width=""35%"" height=""75%""></img></td>
  </tr>
</table>
  ",,,,,,,,,,,,,,,,,,,,,,,,,,,,
216,0,,html-keyboard-response,216,667475,0.0-7.13-3.13,l3qb1i9xs7m,2022-09-16 18:29:11.574,629e10d748005830b9eee9a0,0,72,24,61,1,27,Male,,,"<p style=""font-size:50px"">You Lose!
No points this round.</p>",,,,,,,,,,,,,,,,,,,,,,,,,,,,
217,0,,html-keyboard-response,217,667982,0.0-7.13-4.13,l3qb1i9xs7m,2022-09-16 18:29:11.574,629e10d748005830b9eee9a0,0,72,24,61,1,27,Male,,,,,,1.0,choice,13.0,A,D,red,black,stars,moons,A,D,D,black,moons,397.7000000477,0.0,0.0,0,right,892.8999999762,9.0,1.0,0.0,,,
218,0,,html-keyboard-response,218,668990,0.0-7.14-0.14,l3qb1i9xs7m,2022-09-16 18:29:11.574,629e10d748005830b9eee9a0,0,72,24,61,1,27,Male,1007.2999999523,,"
  <table>
  <tr height=300>
    <td width=300 height=300><img src=""static/images/cards/stack_of_black_stars.svg"" width=""175px"" height=""250px""></img></td>
    <td width=300 height=300><img src=""static/images/cards/stack_of_black_moons.svg"" width=""175px"" height=""250px""></img></td>
  </tr>
  <tr height=200>
    <td width=300><img src=""static/images/keys/w.svg"" width=""35%"" height=""75%""></img></td>
    <td width=300><img src=""static/images/keys/o.svg"" width=""35%"" height=""75%""></img></td>
  </tr>
</table>
  ",87.0,1.0,,,,,,,,,,,,,,,,,,,,,,,,,,
219,0,,html-keyboard-response,219,670281,0.0-7.14-1.14,l3qb1i9xs7m,2022-09-16 18:29:11.574,629e10d748005830b9eee9a0,0,72,24,61,1,27,Male,788.6999999881,,"
  <table>
  <tr height=300>
    <td width=300 height=300><img src=""static/images/cards/back_of_black_stars.svg"" width=""175px"" height=""250px""></img></td>
    <td width=300 height=300><img src=""static/images/cards/back_of_black_stars.svg"" width=""175px"" height=""250px""></img></td>
  </tr>
  <tr height=200>
    <td width=300></td>
    <td width=300><img src=""static/images/keys/m.svg"" width=""35%"" height=""75%""></img></td>
  </tr>
</table>
  ",77.0,1.0,,,,,,,,,,,,,,,,,,,,,,,,,,
220,0,,html-keyboard-response,220,671784,0.0-7.14-2.14,l3qb1i9xs7m,2022-09-16 18:29:11.574,629e10d748005830b9eee9a0,0,72,24,61,1,27,Male,,,"
  <table>
  <tr height=300>
    <td width=300 height=300><img src=""static/images/cards/back_of_black_stars.svg"" width=""175px"" height=""250px""></img></td>
    <td width=300 height=300><img src=""static/images/cards/7_of_black_stars.svg"" width=""175px"" height=""250px""></img></td>
  </tr>
  <tr height=200>
    <td width=300></td>
    <td width=300><img src=""static/images/keys/m.svg"" width=""35%"" height=""75%""></img></td>
  </tr>
</table>
  ",,,,,,,,,,,,,,,,,,,,,,,,,,,,
221,0,,html-keyboard-response,221,673294,0.0-7.14-3.14,l3qb1i9xs7m,2022-09-16 18:29:11.574,629e10d748005830b9eee9a0,0,72,24,61,1,27,Male,,,"<p style=""font-size:50px"">You win!
+10 points this round!</p>",,,,,,,,,,,,,,,,,,,,,,,,,,,,
222,0,,html-keyboard-response,222,673805,0.0-7.14-4.14,l3qb1i9xs7m,2022-09-16 18:29:11.574,629e10d748005830b9eee9a0,0,72,24,61,1,27,Male,,,,,,1.0,choice,14.0,B,D,black,black,stars,moons,B,D,B,black,stars,1007.2999999523,0.0,1.0,0,right,788.6999999881,7.0,1.0,1.0,,,
223,0,,html-keyboard-response,223,674224,0.0-7.15-0.15,l3qb1i9xs7m,2022-09-16 18:29:11.574,629e10d748005830b9eee9a0,0,72,24,61,1,27,Male,418.3000000119,,"
  <table>
  <tr height=300>
    <td width=300 height=300><img src=""static/images/cards/stack_of_red_stars.svg"" width=""175px"" height=""250px""></img></td>
    <td width=300 height=300><img src=""static/images/cards/stack_of_black_moons.svg"" width=""175px"" height=""250px""></img></td>
  </tr>
  <tr height=200>
    <td width=300><img src=""static/images/keys/w.svg"" width=""35%"" height=""75%""></img></td>
    <td width=300><img src=""static/images/keys/o.svg"" width=""35%"" height=""75%""></img></td>
  </tr>
</table>
  ",87.0,1.0,,,,,,,,,,,,,,,,,,,,,,,,,,
224,0,,html-keyboard-response,224,675296,0.0-7.15-1.15,l3qb1i9xs7m,2022-09-16 18:29:11.574,629e10d748005830b9eee9a0,0,72,24,61,1,27,Male,569.6999999881,,"
  <table>
  <tr height=300>
    <td width=300 height=300><img src=""static/images/cards/back_of_red_stars.svg"" width=""175px"" height=""250px""></img></td>
    <td width=300 height=300><img src=""static/images/cards/back_of_red_stars.svg"" width=""175px"" height=""250px""></img></td>
  </tr>
  <tr height=200>
    <td width=300><img src=""static/images/keys/z.svg"" width=""35%"" height=""75%""></img></td>
    <td width=300><img src=""static/images/keys/m.svg"" width=""35%"" height=""75%""></img></td>
  </tr>
</table>
  ",77.0,1.0,,,,,,,,,,,,,,,,,,,,,,,,,,
225,0,,html-keyboard-response,225,676802,0.0-7.15-2.15,l3qb1i9xs7m,2022-09-16 18:29:11.574,629e10d748005830b9eee9a0,0,72,24,61,1,27,Male,,,"
  <table>
  <tr height=300>
    <td width=300 height=300><img src=""static/images/cards/back_of_red_stars.svg"" width=""175px"" height=""250px""></img></td>
    <td width=300 height=300><img src=""static/images/cards/6_of_red_stars.svg"" width=""175px"" height=""250px""></img></td>
  </tr>
  <tr height=200>
    <td width=300><img src=""static/images/keys/z.svg"" width=""35%"" height=""75%""></img></td>
    <td width=300><img src=""static/images/keys/m.svg"" width=""35%"" height=""75%""></img></td>
  </tr>
</table>
  ",,,,,,,,,,,,,,,,,,,,,,,,,,,,
226,0,,html-keyboard-response,226,678312,0.0-7.15-3.15,l3qb1i9xs7m,2022-09-16 18:29:11.574,629e10d748005830b9eee9a0,0,72,24,61,1,27,Male,,,"<p style=""font-size:50px"">You win!
+10 points this round!</p>",,,,,,,,,,,,,,,,,,,,,,,,,,,,
227,0,,html-keyboard-response,227,678819,0.0-7.15-4.15,l3qb1i9xs7m,2022-09-16 18:29:11.574,629e10d748005830b9eee9a0,0,72,24,61,1,27,Male,,,,,,1.0,choice,15.0,A,D,red,black,stars,moons,A,D,A,red,stars,418.3000000119,1.0,1.0,NA,right,569.6999999881,6.0,1.0,1.0,,,
228,0,,html-keyboard-response,228,679189,0.0-7.16-0.16,l3qb1i9xs7m,2022-09-16 18:29:11.574,629e10d748005830b9eee9a0,0,72,24,61,1,27,Male,368.8000000119,,"
  <table>
  <tr height=300>
    <td width=300 height=300><img src=""static/images/cards/stack_of_black_moons.svg"" width=""175px"" height=""250px""></img></td>
    <td width=300 height=300><img src=""static/images/cards/stack_of_black_stars.svg"" width=""175px"" height=""250px""></img></td>
  </tr>
  <tr height=200>
    <td width=300><img src=""static/images/keys/w.svg"" width=""35%"" height=""75%""></img></td>
    <td width=300><img src=""static/images/keys/o.svg"" width=""35%"" height=""75%""></img></td>
  </tr>
</table>
  ",79.0,1.0,,,,,,,,,,,,,,,,,,,,,,,,,,
229,0,,html-keyboard-response,229,679982,0.0-7.16-1.16,l3qb1i9xs7m,2022-09-16 18:29:11.574,629e10d748005830b9eee9a0,0,72,24,61,1,27,Male,286.9000000358,,"
  <table>
  <tr height=300>
    <td width=300 height=300><img src=""static/images/cards/back_of_black_stars.svg"" width=""175px"" height=""250px""></img></td>
    <td width=300 height=300><img src=""static/images/cards/back_of_black_stars.svg"" width=""175px"" height=""250px""></img></td>
  </tr>
  <tr height=200>
    <td width=300><img src=""static/images/keys/z.svg"" width=""35%"" height=""75%""></img></td>
    <td width=300></td>
  </tr>
</table>
  ",90.0,1.0,,,,,,,,,,,,,,,,,,,,,,,,,,
230,0,,html-keyboard-response,230,681484,0.0-7.16-2.16,l3qb1i9xs7m,2022-09-16 18:29:11.574,629e10d748005830b9eee9a0,0,72,24,61,1,27,Male,,,"
  <table>
  <tr height=300>
    <td width=300 height=300><img src=""static/images/cards/10_of_black_stars.svg"" width=""175px"" height=""250px""></img></td>
    <td width=300 height=300><img src=""static/images/cards/back_of_black_stars.svg"" width=""175px"" height=""250px""></img></td>
  </tr>
  <tr height=200>
    <td width=300><img src=""static/images/keys/z.svg"" width=""35%"" height=""75%""></img></td>
    <td width=300></td>
  </tr>
</table>
  ",,,,,,,,,,,,,,,,,,,,,,,,,,,,
231,0,,html-keyboard-response,231,682992,0.0-7.16-3.16,l3qb1i9xs7m,2022-09-16 18:29:11.574,629e10d748005830b9eee9a0,0,72,24,61,1,27,Male,,,"<p style=""font-size:50px"">You win!
+10 points this round!</p>",,,,,,,,,,,,,,,,,,,,,,,,,,,,
232,0,,html-keyboard-response,232,683502,0.0-7.16-4.16,l3qb1i9xs7m,2022-09-16 18:29:11.574,629e10d748005830b9eee9a0,0,72,24,61,1,27,Male,,,,,,1.0,choice,16.0,B,D,black,black,moons,stars,D,B,B,black,stars,368.8000000119,0.0,1.0,1,left,286.9000000358,10.0,1.0,1.0,,,
233,0,,html-keyboard-response,233,684078,0.0-7.17-0.17,l3qb1i9xs7m,2022-09-16 18:29:11.574,629e10d748005830b9eee9a0,0,72,24,61,1,27,Male,574.8000000119,,"
  <table>
  <tr height=300>
    <td width=300 height=300><img src=""static/images/cards/stack_of_black_stars.svg"" width=""175px"" height=""250px""></img></td>
    <td width=300 height=300><img src=""static/images/cards/stack_of_red_moons.svg"" width=""175px"" height=""250px""></img></td>
  </tr>
  <tr height=200>
    <td width=300><img src=""static/images/keys/w.svg"" width=""35%"" height=""75%""></img></td>
    <td width=300><img src=""static/images/keys/o.svg"" width=""35%"" height=""75%""></img></td>
  </tr>
</table>
