,index,success,trial_type,trial_index,time_elapsed,internal_node_id,subject,date,prol_id,ctbl,sense_of_control_A,sense_of_control_B,sense_of_control_C,sense_of_control_D,age,gender,rt,url,stimulus,key_press,npress,is_data_trial,phase,trial,deck1,deck2,col1,col2,sym1,sym2,deck_l,deck_r,chosen_deck,chosen_col,chosen_sym,deck_rt,choose_choice,mutual_info,hidden_key,chosen_card,card_rt,player_num,win_card,outcome,mock_rating,response,responses
0,0,1.0,fullscreen,0,51339,0.0-0.0,5epmzqjn7o8,2022-09-19 15:45:37.798,62ff91a60dded72baabb414c,0,44,68,65,88,26,Male,,,,,,,,,,,,,,,,,,,,,,,,,,,,,,,
1,0,,external-html,1,57634,0.0-1.0,5epmzqjn7o8,2022-09-19 15:45:37.798,62ff91a60dded72baabb414c,0,44,68,65,88,26,Male,5943.7000000002,static/js/sub/consent.html,,,,,,,,,,,,,,,,,,,,,,,,,,,,,
2,0,,call-function,2,57635,0.0-2.0,5epmzqjn7o8,2022-09-19 15:45:37.798,62ff91a60dded72baabb414c,0,44,68,65,88,26,Male,,,,,,,,,,,,,,,,,,,,,,,,,,,,,,,
3,0,,image-keyboard-response,3,150740,0.0-3.0-0.0,5epmzqjn7o8,2022-09-19 15:45:37.798,62ff91a60dded72baabb414c,0,44,68,65,88,26,Male,93103.8999999994,,static/images/instructions_CB_0/Slide1.png,39.0,,,,,,,,,,,,,,,,,,,,,,,,,,,
4,0,,image-keyboard-response,4,170835,0.0-3.1-0.1,5epmzqjn7o8,2022-09-19 15:45:37.798,62ff91a60dded72baabb414c,0,44,68,65,88,26,Male,20093.8000000007,,static/images/instructions_CB_0/Slide2.png,39.0,,,,,,,,,,,,,,,,,,,,,,,,,,,
5,0,,image-keyboard-response,5,178889,0.0-3.2-0.2,5epmzqjn7o8,2022-09-19 15:45:37.798,62ff91a60dded72baabb414c,0,44,68,65,88,26,Male,8053.5,,static/images/instructions_CB_0/Slide3.png,39.0,,,,,,,,,,,,,,,,,,,,,,,,,,,
6,0,,image-keyboard-response,6,195605,0.0-3.3-0.3,5epmzqjn7o8,2022-09-19 15:45:37.798,62ff91a60dded72baabb414c,0,44,68,65,88,26,Male,16714.7000000002,,static/images/instructions_CB_0/Slide4.png,39.0,,,,,,,,,,,,,,,,,,,,,,,,,,,
7,0,,image-keyboard-response,7,224229,0.0-3.4-0.4,5epmzqjn7o8,2022-09-19 15:45:37.798,62ff91a60dded72baabb414c,0,44,68,65,88,26,Male,28632.6999999993,,static/images/instructions_CB_0/Slide5.png,39.0,,,,,,,,,,,,,,,,,,,,,,,,,,,
8,0,,image-keyboard-response,8,229494,0.0-3.5-0.5,5epmzqjn7o8,2022-09-19 15:45:37.798,62ff91a60dded72baabb414c,0,44,68,65,88,26,Male,5263.5,,static/images/instructions_CB_0/Slide6.png,39.0,,,,,,,,,,,,,,,,,,,,,,,,,,,
9,0,,image-keyboard-response,9,236492,0.0-3.6-0.6,5epmzqjn7o8,2022-09-19 15:45:37.798,62ff91a60dded72baabb414c,0,44,68,65,88,26,Male,6997.2999999998,,static/images/instructions_CB_0/Slide7.png,39.0,,,,,,,,,,,,,,,,,,,,,,,,,,,
10,0,,image-keyboard-response,10,260374,0.0-3.7-0.7,5epmzqjn7o8,2022-09-19 15:45:37.798,62ff91a60dded72baabb414c,0,44,68,65,88,26,Male,23881.5999999996,,static/images/instructions_CB_0/Slide8.png,39.0,,,,,,,,,,,,,,,,,,,,,,,,,,,
11,0,,image-keyboard-response,11,271113,0.0-3.8-0.8,5epmzqjn7o8,2022-09-19 15:45:37.798,62ff91a60dded72baabb414c,0,44,68,65,88,26,Male,10738.0,,static/images/instructions_CB_0/Slide9.png,39.0,,,,,,,,,,,,,,,,,,,,,,,,,,,
12,0,,image-keyboard-response,12,303692,0.0-3.9-0.9,5epmzqjn7o8,2022-09-19 15:45:37.798,62ff91a60dded72baabb414c,0,44,68,65,88,26,Male,32583.9000000004,,static/images/instructions_CB_0/Slide10.png,39.0,,,,,,,,,,,,,,,,,,,,,,,,,,,
13,0,,image-keyboard-response,13,320599,0.0-3.10-0.10,5epmzqjn7o8,2022-09-19 15:45:37.798,62ff91a60dded72baabb414c,0,44,68,65,88,26,Male,16906.3999999994,,static/images/instructions_CB_0/Slide11.png,39.0,,,,,,,,,,,,,,,,,,,,,,,,,,,
14,0,,image-keyboard-response,14,337646,0.0-3.11-0.11,5epmzqjn7o8,2022-09-19 15:45:37.798,62ff91a60dded72baabb414c,0,44,68,65,88,26,Male,17045.6000000006,,static/images/instructions_CB_0/Slide12.png,39.0,,,,,,,,,,,,,,,,,,,,,,,,,,,
15,0,,image-keyboard-response,15,398232,0.0-3.12-0.12,5epmzqjn7o8,2022-09-19 15:45:37.798,62ff91a60dded72baabb414c,0,44,68,65,88,26,Male,60582.9000000004,,static/images/instructions_CB_0/Slide13.png,39.0,,,,,,,,,,,,,,,,,,,,,,,,,,,
16,0,,image-keyboard-response,16,440211,0.0-3.13-0.13,5epmzqjn7o8,2022-09-19 15:45:37.798,62ff91a60dded72baabb414c,0,44,68,65,88,26,Male,41978.2999999998,,static/images/instructions_CB_0/Slide14.png,39.0,,,,,,,,,,,,,,,,,,,,,,,,,,,
17,0,,image-keyboard-response,17,457381,0.0-3.14-0.14,5epmzqjn7o8,2022-09-19 15:45:37.798,62ff91a60dded72baabb414c,0,44,68,65,88,26,Male,17168.6999999993,,static/images/instructions_CB_0/Slide15.png,39.0,,,,,,,,,,,,,,,,,,,,,,,,,,,
18,0,,image-keyboard-response,18,466817,0.0-3.15-0.15,5epmzqjn7o8,2022-09-19 15:45:37.798,62ff91a60dded72baabb414c,0,44,68,65,88,26,Male,9425.3999999994,,static/images/instructions_CB_0/Slide16.png,39.0,,,,,,,,,,,,,,,,,,,,,,,,,,,
19,0,,image-keyboard-response,19,481702,0.0-3.16-0.16,5epmzqjn7o8,2022-09-19 15:45:37.798,62ff91a60dded72baabb414c,0,44,68,65,88,26,Male,14884.8999999994,,static/images/instructions_CB_0/Slide17.png,39.0,,,,,,,,,,,,,,,,,,,,,,,,,,,
20,0,,image-keyboard-response,20,495336,0.0-3.17-0.17,5epmzqjn7o8,2022-09-19 15:45:37.798,62ff91a60dded72baabb414c,0,44,68,65,88,26,Male,13633.1000000006,,static/images/instructions_CB_0/Slide18.png,39.0,,,,,,,,,,,,,,,,,,,,,,,,,,,
21,0,,image-keyboard-response,21,508458,0.0-3.18-0.18,5epmzqjn7o8,2022-09-19 15:45:37.798,62ff91a60dded72baabb414c,0,44,68,65,88,26,Male,13121.7000000002,,static/images/instructions_CB_0/Slide19.png,39.0,,,,,,,,,,,,,,,,,,,,,,,,,,,
22,0,,html-keyboard-response,22,509967,0.0-4.0-0.0,5epmzqjn7o8,2022-09-19 15:45:37.798,62ff91a60dded72baabb414c,0,44,68,65,88,26,Male,,,"<img src=""static/images/cards/stack_of_red_stars.svg"" width=""175px"" height=""250px""></img>",,,,,,,,,,,,,,,,,,,,,,,,,,,,
23,0,,html-keyboard-response,23,513162,0.0-4.0-1.0,5epmzqjn7o8,2022-09-19 15:45:37.798,62ff91a60dded72baabb414c,0,44,68,65,88,26,Male,2680.0,,"
  <table>
  <tr height=300>
    <td width=300 height=300><img src=""static/images/cards/back_of_red_stars.svg"" width=""175px"" height=""250px""></img></td>
    <td width=300 height=300><img src=""static/images/cards/back_of_red_stars.svg"" width=""175px"" height=""250px""></img></td>
  </tr>
  <tr height=200>
    <td width=300><img src=""static/images/keys/z.svg"" width=""35%"" height=""75%""></img></td>
    <td width=300><img src=""static/images/keys/m.svg"" width=""35%"" height=""75%""></img></td>
  </tr>
</table>
  ",77.0,1.0,,,,,,,,,,,,,,,,,,,,,,,,,,
24,0,,html-keyboard-response,24,514671,0.0-4.0-2.0,5epmzqjn7o8,2022-09-19 15:45:37.798,62ff91a60dded72baabb414c,0,44,68,65,88,26,Male,,,"
  <table>
  <tr height=300>
    <td width=300 height=300><img src=""static/images/cards/back_of_red_stars.svg"" width=""175px"" height=""250px""></img></td>
    <td width=300 height=300><img src=""static/images/cards/4_of_red_stars.svg"" width=""175px"" height=""250px""></img></td>
  </tr>
  <tr height=200>
    <td width=300><img src=""static/images/keys/z.svg"" width=""35%"" height=""75%""></img></td>
    <td width=300><img src=""static/images/keys/m.svg"" width=""35%"" height=""75%""></img></td>
  </tr>
</table>
  ",,,,,,,,,,,,,,,,,,,,,,,,,,,,
25,0,,html-keyboard-response,25,516182,0.0-4.0-3.0,5epmzqjn7o8,2022-09-19 15:45:37.798,62ff91a60dded72baabb414c,0,44,68,65,88,26,Male,,,"<p style=""font-size:50px"">You Lose!
No points this round.</p>",,,,,,,,,,,,,,,,,,,,,,,,,,,,
26,0,,html-keyboard-response,26,516702,0.0-4.0-4.0,5epmzqjn7o8,2022-09-19 15:45:37.798,62ff91a60dded72baabb414c,0,44,68,65,88,26,Male,,,,,,1.0,learning,0.0,A,,red,,stars,,,,A,red,stars,,1.0,1.0,NA,right,2680.0,4.0,0.0,0.0,,,
27,0,,html-keyboard-response,27,518209,0.0-4.1-0.1,5epmzqjn7o8,2022-09-19 15:45:37.798,62ff91a60dded72baabb414c,0,44,68,65,88,26,Male,,,"<img src=""static/images/cards/stack_of_black_stars.svg"" width=""175px"" height=""250px""></img>",,,,,,,,,,,,,,,,,,,,,,,,,,,,
28,0,,html-keyboard-response,28,520617,0.0-4.1-1.1,5epmzqjn7o8,2022-09-19 15:45:37.798,62ff91a60dded72baabb414c,0,44,68,65,88,26,Male,1906.6000000006,,"
  <table>
  <tr height=300>
    <td width=300 height=300><img src=""static/images/cards/back_of_black_stars.svg"" width=""175px"" height=""250px""></img></td>
    <td width=300 height=300><img src=""static/images/cards/back_of_black_stars.svg"" width=""175px"" height=""250px""></img></td>
  </tr>
  <tr height=200>
    <td width=300><img src=""static/images/keys/z.svg"" width=""35%"" height=""75%""></img></td>
    <td width=300></td>
  </tr>
</table>
  ",90.0,1.0,,,,,,,,,,,,,,,,,,,,,,,,,,
29,0,,html-keyboard-response,29,522128,0.0-4.1-2.1,5epmzqjn7o8,2022-09-19 15:45:37.798,62ff91a60dded72baabb414c,0,44,68,65,88,26,Male,,,"
  <table>
  <tr height=300>
    <td width=300 height=300><img src=""static/images/cards/4_of_black_stars.svg"" width=""175px"" height=""250px""></img></td>
    <td width=300 height=300><img src=""static/images/cards/back_of_black_stars.svg"" width=""175px"" height=""250px""></img></td>
  </tr>
  <tr height=200>
    <td width=300><img src=""static/images/keys/z.svg"" width=""35%"" height=""75%""></img></td>
    <td width=300></td>
  </tr>
</table>
  ",,,,,,,,,,,,,,,,,,,,,,,,,,,,
30,0,,html-keyboard-response,30,523639,0.0-4.1-3.1,5epmzqjn7o8,2022-09-19 15:45:37.798,62ff91a60dded72baabb414c,0,44,68,65,88,26,Male,,,"<p style=""font-size:50px"">You Lose!
No points this round.</p>",,,,,,,,,,,,,,,,,,,,,,,,,,,,
31,0,,html-keyboard-response,31,524159,0.0-4.1-4.1,5epmzqjn7o8,2022-09-19 15:45:37.798,62ff91a60dded72baabb414c,0,44,68,65,88,26,Male,,,,,,1.0,learning,1.0,B,,black,,stars,,,,B,black,stars,,0.0,1.0,1,left,1906.6000000006,4.0,0.0,0.0,,,
32,0,,html-keyboard-response,32,525666,0.0-4.2-0.2,5epmzqjn7o8,2022-09-19 15:45:37.798,62ff91a60dded72baabb414c,0,44,68,65,88,26,Male,,,"<img src=""static/images/cards/stack_of_red_moons.svg"" width=""175px"" height=""250px""></img>",,,,,,,,,,,,,,,,,,,,,,,,,,,,
33,0,,html-keyboard-response,33,527507,0.0-4.2-1.2,5epmzqjn7o8,2022-09-19 15:45:37.798,62ff91a60dded72baabb414c,0,44,68,65,88,26,Male,1327.7999999998,,"
  <table>
  <tr height=300>
    <td width=300 height=300><img src=""static/images/cards/back_of_red_moons.svg"" width=""175px"" height=""250px""></img></td>
    <td width=300 height=300><img src=""static/images/cards/back_of_red_moons.svg"" width=""175px"" height=""250px""></img></td>
  </tr>
  <tr height=200>
    <td width=300><img src=""static/images/keys/z.svg"" width=""35%"" height=""75%""></img></td>
    <td width=300><img src=""static/images/keys/m.svg"" width=""35%"" height=""75%""></img></td>
  </tr>
</table>
  ",77.0,1.0,,,,,,,,,,,,,,,,,,,,,,,,,,
34,0,,html-keyboard-response,34,529017,0.0-4.2-2.2,5epmzqjn7o8,2022-09-19 15:45:37.798,62ff91a60dded72baabb414c,0,44,68,65,88,26,Male,,,"
  <table>
  <tr height=300>
    <td width=300 height=300><img src=""static/images/cards/back_of_red_moons.svg"" width=""175px"" height=""250px""></img></td>
    <td width=300 height=300><img src=""static/images/cards/1_of_red_moons.svg"" width=""175px"" height=""250px""></img></td>
  </tr>
  <tr height=200>
    <td width=300><img src=""static/images/keys/z.svg"" width=""35%"" height=""75%""></img></td>
    <td width=300><img src=""static/images/keys/m.svg"" width=""35%"" height=""75%""></img></td>
  </tr>
</table>
  ",,,,,,,,,,,,,,,,,,,,,,,,,,,,
35,0,,html-keyboard-response,35,530541,0.0-4.2-3.2,5epmzqjn7o8,2022-09-19 15:45:37.798,62ff91a60dded72baabb414c,0,44,68,65,88,26,Male,,,"<p style=""font-size:50px"">You win!
+10 points this round!</p>",,,,,,,,,,,,,,,,,,,,,,,,,,,,
36,0,,html-keyboard-response,36,531056,0.0-4.2-4.2,5epmzqjn7o8,2022-09-19 15:45:37.798,62ff91a60dded72baabb414c,0,44,68,65,88,26,Male,,,,,,1.0,learning,2.0,C,,red,,moons,,,,C,red,moons,,1.0,0.0,NA,right,1327.7999999998,1.0,0.0,1.0,,,
37,0,,html-keyboard-response,37,532569,0.0-4.3-0.3,5epmzqjn7o8,2022-09-19 15:45:37.798,62ff91a60dded72baabb414c,0,44,68,65,88,26,Male,,,"<img src=""static/images/cards/stack_of_black_moons.svg"" width=""175px"" height=""250px""></img>",,,,,,,,,,,,,,,,,,,,,,,,,,,,
38,0,,html-keyboard-response,38,534116,0.0-4.3-1.3,5epmzqjn7o8,2022-09-19 15:45:37.798,62ff91a60dded72baabb414c,0,44,68,65,88,26,Male,1045.9000000004,,"
  <table>
  <tr height=300>
    <td width=300 height=300><img src=""static/images/cards/back_of_black_moons.svg"" width=""175px"" height=""250px""></img></td>
    <td width=300 height=300><img src=""static/images/cards/back_of_black_moons.svg"" width=""175px"" height=""250px""></img></td>
  </tr>
  <tr height=200>
    <td width=300><img src=""static/images/keys/z.svg"" width=""35%"" height=""75%""></img></td>
    <td width=300></td>
  </tr>
</table>
  ",90.0,1.0,,,,,,,,,,,,,,,,,,,,,,,,,,
39,0,,html-keyboard-response,39,535631,0.0-4.3-2.3,5epmzqjn7o8,2022-09-19 15:45:37.798,62ff91a60dded72baabb414c,0,44,68,65,88,26,Male,,,"
  <table>
  <tr height=300>
    <td width=300 height=300><img src=""static/images/cards/1_of_black_moons.svg"" width=""175px"" height=""250px""></img></td>
    <td width=300 height=300><img src=""static/images/cards/back_of_black_moons.svg"" width=""175px"" height=""250px""></img></td>
  </tr>
  <tr height=200>
    <td width=300><img src=""static/images/keys/z.svg"" width=""35%"" height=""75%""></img></td>
    <td width=300></td>
  </tr>
</table>
  ",,,,,,,,,,,,,,,,,,,,,,,,,,,,
40,0,,html-keyboard-response,40,537145,0.0-4.3-3.3,5epmzqjn7o8,2022-09-19 15:45:37.798,62ff91a60dded72baabb414c,0,44,68,65,88,26,Male,,,"<p style=""font-size:50px"">You Lose!
No points this round.</p>",,,,,,,,,,,,,,,,,,,,,,,,,,,,
41,0,,html-keyboard-response,41,537658,0.0-4.3-4.3,5epmzqjn7o8,2022-09-19 15:45:37.798,62ff91a60dded72baabb414c,0,44,68,65,88,26,Male,,,,,,1.0,learning,3.0,D,,black,,moons,,,,D,black,moons,,0.0,0.0,1,left,1045.9000000004,1.0,0.0,0.0,,,
42,0,,html-keyboard-response,42,539160,0.0-4.4-0.4,5epmzqjn7o8,2022-09-19 15:45:37.798,62ff91a60dded72baabb414c,0,44,68,65,88,26,Male,,,"<img src=""static/images/cards/stack_of_red_bolts.svg"" width=""175px"" height=""250px""></img>",,,,,,,,,,,,,,,,,,,,,,,,,,,,
43,0,,html-keyboard-response,43,540469,0.0-4.4-1.4,5epmzqjn7o8,2022-09-19 15:45:37.798,62ff91a60dded72baabb414c,0,44,68,65,88,26,Male,795.0999999996,,"
  <table>
  <tr height=300>
    <td width=300 height=300><img src=""static/images/cards/back_of_red_bolts.svg"" width=""175px"" height=""250px""></img></td>
    <td width=300 height=300><img src=""static/images/cards/back_of_red_bolts.svg"" width=""175px"" height=""250px""></img></td>
  </tr>
  <tr height=200>
    <td width=300><img src=""static/images/keys/z.svg"" width=""35%"" height=""75%""></img></td>
    <td width=300><img src=""static/images/keys/m.svg"" width=""35%"" height=""75%""></img></td>
  </tr>
</table>
  ",77.0,1.0,,,,,,,,,,,,,,,,,,,,,,,,,,
44,0,,html-keyboard-response,44,541981,0.0-4.4-2.4,5epmzqjn7o8,2022-09-19 15:45:37.798,62ff91a60dded72baabb414c,0,44,68,65,88,26,Male,,,"
  <table>
  <tr height=300>
    <td width=300 height=300><img src=""static/images/cards/back_of_red_bolts.svg"" width=""175px"" height=""250px""></img></td>
    <td width=300 height=300><img src=""static/images/cards/3_of_red_bolts.svg"" width=""175px"" height=""250px""></img></td>
  </tr>
  <tr height=200>
    <td width=300><img src=""static/images/keys/z.svg"" width=""35%"" height=""75%""></img></td>
    <td width=300><img src=""static/images/keys/m.svg"" width=""35%"" height=""75%""></img></td>
  </tr>
</table>
  ",,,,,,,,,,,,,,,,,,,,,,,,,,,,
45,0,,html-keyboard-response,45,543488,0.0-4.4-3.4,5epmzqjn7o8,2022-09-19 15:45:37.798,62ff91a60dded72baabb414c,0,44,68,65,88,26,Male,,,"<p style=""font-size:50px"">You win!
+10 points this round!</p>",,,,,,,,,,,,,,,,,,,,,,,,,,,,
46,0,,html-keyboard-response,46,544008,0.0-4.4-4.4,5epmzqjn7o8,2022-09-19 15:45:37.798,62ff91a60dded72baabb414c,0,44,68,65,88,26,Male,,,,,,1.0,learning,4.0,Xc,,red,,bolts,,,,Xc,red,bolts,,1.0,0.0,NA,right,795.0999999996,3.0,0.0,1.0,,,
47,0,,html-keyboard-response,47,545520,0.0-4.5-0.5,5epmzqjn7o8,2022-09-19 15:45:37.798,62ff91a60dded72baabb414c,0,44,68,65,88,26,Male,,,"<img src=""static/images/cards/stack_of_black_bolts.svg"" width=""175px"" height=""250px""></img>",,,,,,,,,,,,,,,,,,,,,,,,,,,,
48,0,,html-keyboard-response,48,546781,0.0-4.5-1.5,5epmzqjn7o8,2022-09-19 15:45:37.798,62ff91a60dded72baabb414c,0,44,68,65,88,26,Male,746.5999999996,,"
  <table>
  <tr height=300>
    <td width=300 height=300><img src=""static/images/cards/back_of_black_bolts.svg"" width=""175px"" height=""250px""></img></td>
    <td width=300 height=300><img src=""static/images/cards/back_of_black_bolts.svg"" width=""175px"" height=""250px""></img></td>
  </tr>
  <tr height=200>
    <td width=300></td>
    <td width=300><img src=""static/images/keys/m.svg"" width=""35%"" height=""75%""></img></td>
  </tr>
</table>
  ",77.0,1.0,,,,,,,,,,,,,,,,,,,,,,,,,,
49,0,,html-keyboard-response,49,548284,0.0-4.5-2.5,5epmzqjn7o8,2022-09-19 15:45:37.798,62ff91a60dded72baabb414c,0,44,68,65,88,26,Male,,,"
  <table>
  <tr height=300>
    <td width=300 height=300><img src=""static/images/cards/back_of_black_bolts.svg"" width=""175px"" height=""250px""></img></td>
    <td width=300 height=300><img src=""static/images/cards/2_of_black_bolts.svg"" width=""175px"" height=""250px""></img></td>
  </tr>
  <tr height=200>
    <td width=300></td>
    <td width=300><img src=""static/images/keys/m.svg"" width=""35%"" height=""75%""></img></td>
  </tr>
</table>
  ",,,,,,,,,,,,,,,,,,,,,,,,,,,,
50,0,,html-keyboard-response,50,549810,0.0-4.5-3.5,5epmzqjn7o8,2022-09-19 15:45:37.798,62ff91a60dded72baabb414c,0,44,68,65,88,26,Male,,,"<p style=""font-size:50px"">You win!
+10 points this round!</p>",,,,,,,,,,,,,,,,,,,,,,,,,,,,
51,0,,html-keyboard-response,51,550319,0.0-4.5-4.5,5epmzqjn7o8,2022-09-19 15:45:37.798,62ff91a60dded72baabb414c,0,44,68,65,88,26,Male,,,,,,1.0,learning,5.0,Xnc,,black,,bolts,,,,Xnc,black,bolts,,0.0,0.0,0,right,746.5999999996,2.0,0.0,1.0,,,
52,0,,html-keyboard-response,52,551823,0.0-4.6-0.6,5epmzqjn7o8,2022-09-19 15:45:37.798,62ff91a60dded72baabb414c,0,44,68,65,88,26,Male,,,"<img src=""static/images/cards/stack_of_red_stars.svg"" width=""175px"" height=""250px""></img>",,,,,,,,,,,,,,,,,,,,,,,,,,,,
53,0,,html-keyboard-response,53,553762,0.0-4.6-1.6,5epmzqjn7o8,2022-09-19 15:45:37.798,62ff91a60dded72baabb414c,0,44,68,65,88,26,Male,1429.0999999996,,"
  <table>
  <tr height=300>
    <td width=300 height=300><img src=""static/images/cards/back_of_red_stars.svg"" width=""175px"" height=""250px""></img></td>
    <td width=300 height=300><img src=""static/images/cards/back_of_red_stars.svg"" width=""175px"" height=""250px""></img></td>
  </tr>
  <tr height=200>
    <td width=300><img src=""static/images/keys/z.svg"" width=""35%"" height=""75%""></img></td>
    <td width=300><img src=""static/images/keys/m.svg"" width=""35%"" height=""75%""></img></td>
  </tr>
</table>
  ",90.0,1.0,,,,,,,,,,,,,,,,,,,,,,,,,,
54,0,,html-keyboard-response,54,555277,0.0-4.6-2.6,5epmzqjn7o8,2022-09-19 15:45:37.798,62ff91a60dded72baabb414c,0,44,68,65,88,26,Male,,,"
  <table>
  <tr height=300>
    <td width=300 height=300><img src=""static/images/cards/7_of_red_stars.svg"" width=""175px"" height=""250px""></img></td>
    <td width=300 height=300><img src=""static/images/cards/back_of_red_stars.svg"" width=""175px"" height=""250px""></img></td>
  </tr>
  <tr height=200>
    <td width=300><img src=""static/images/keys/z.svg"" width=""35%"" height=""75%""></img></td>
    <td width=300><img src=""static/images/keys/m.svg"" width=""35%"" height=""75%""></img></td>
  </tr>
</table>
  ",,,,,,,,,,,,,,,,,,,,,,,,,,,,
55,0,,html-keyboard-response,55,556792,0.0-4.6-3.6,5epmzqjn7o8,2022-09-19 15:45:37.798,62ff91a60dded72baabb414c,0,44,68,65,88,26,Male,,,"<p style=""font-size:50px"">You win!
+10 points this round!</p>",,,,,,,,,,,,,,,,,,,,,,,,,,,,
56,0,,html-keyboard-response,56,557312,0.0-4.6-4.6,5epmzqjn7o8,2022-09-19 15:45:37.798,62ff91a60dded72baabb414c,0,44,68,65,88,26,Male,,,,,,1.0,learning,6.0,A,,red,,stars,,,,A,red,stars,,1.0,1.0,NA,left,1429.0999999996,7.0,1.0,1.0,,,
57,0,,html-keyboard-response,57,558822,0.0-4.7-0.7,5epmzqjn7o8,2022-09-19 15:45:37.798,62ff91a60dded72baabb414c,0,44,68,65,88,26,Male,,,"<img src=""static/images/cards/stack_of_black_stars.svg"" width=""175px"" height=""250px""></img>",,,,,,,,,,,,,,,,,,,,,,,,,,,,
58,0,,html-keyboard-response,58,560503,0.0-4.7-1.7,5epmzqjn7o8,2022-09-19 15:45:37.798,62ff91a60dded72baabb414c,0,44,68,65,88,26,Male,1174.8999999994,,"
  <table>
  <tr height=300>
    <td width=300 height=300><img src=""static/images/cards/back_of_black_stars.svg"" width=""175px"" height=""250px""></img></td>
    <td width=300 height=300><img src=""static/images/cards/back_of_black_stars.svg"" width=""175px"" height=""250px""></img></td>
  </tr>
  <tr height=200>
    <td width=300><img src=""static/images/keys/z.svg"" width=""35%"" height=""75%""></img></td>
    <td width=300></td>
  </tr>
</table>
  ",90.0,1.0,,,,,,,,,,,,,,,,,,,,,,,,,,
59,0,,html-keyboard-response,59,562013,0.0-4.7-2.7,5epmzqjn7o8,2022-09-19 15:45:37.798,62ff91a60dded72baabb414c,0,44,68,65,88,26,Male,,,"
  <table>
  <tr height=300>
    <td width=300 height=300><img src=""static/images/cards/2_of_black_stars.svg"" width=""175px"" height=""250px""></img></td>
    <td width=300 height=300><img src=""static/images/cards/back_of_black_stars.svg"" width=""175px"" height=""250px""></img></td>
  </tr>
  <tr height=200>
    <td width=300><img src=""static/images/keys/z.svg"" width=""35%"" height=""75%""></img></td>
    <td width=300></td>
  </tr>
</table>
  ",,,,,,,,,,,,,,,,,,,,,,,,,,,,
60,0,,html-keyboard-response,60,563535,0.0-4.7-3.7,5epmzqjn7o8,2022-09-19 15:45:37.798,62ff91a60dded72baabb414c,0,44,68,65,88,26,Male,,,"<p style=""font-size:50px"">You Lose!
No points this round.</p>",,,,,,,,,,,,,,,,,,,,,,,,,,,,
61,0,,html-keyboard-response,61,564040,0.0-4.7-4.7,5epmzqjn7o8,2022-09-19 15:45:37.798,62ff91a60dded72baabb414c,0,44,68,65,88,26,Male,,,,,,1.0,learning,7.0,B,,black,,stars,,,,B,black,stars,,0.0,1.0,1,left,1174.8999999994,2.0,0.0,0.0,,,
62,0,,html-keyboard-response,62,565543,0.0-4.8-0.8,5epmzqjn7o8,2022-09-19 15:45:37.798,62ff91a60dded72baabb414c,0,44,68,65,88,26,Male,,,"<img src=""static/images/cards/stack_of_red_moons.svg"" width=""175px"" height=""250px""></img>",,,,,,,,,,,,,,,,,,,,,,,,,,,,
63,0,,html-keyboard-response,63,566180,0.0-4.8-1.8,5epmzqjn7o8,2022-09-19 15:45:37.798,62ff91a60dded72baabb414c,0,44,68,65,88,26,Male,128.8000000007,,"
  <table>
  <tr height=300>
    <td width=300 height=300><img src=""static/images/cards/back_of_red_moons.svg"" width=""175px"" height=""250px""></img></td>
    <td width=300 height=300><img src=""static/images/cards/back_of_red_moons.svg"" width=""175px"" height=""250px""></img></td>
  </tr>
  <tr height=200>
    <td width=300><img src=""static/images/keys/z.svg"" width=""35%"" height=""75%""></img></td>
    <td width=300><img src=""static/images/keys/m.svg"" width=""35%"" height=""75%""></img></td>
  </tr>
</table>
  ",77.0,1.0,,,,,,,,,,,,,,,,,,,,,,,,,,
64,0,,html-keyboard-response,64,567692,0.0-4.8-2.8,5epmzqjn7o8,2022-09-19 15:45:37.798,62ff91a60dded72baabb414c,0,44,68,65,88,26,Male,,,"
  <table>
  <tr height=300>
    <td width=300 height=300><img src=""static/images/cards/back_of_red_moons.svg"" width=""175px"" height=""250px""></img></td>
    <td width=300 height=300><img src=""static/images/cards/3_of_red_moons.svg"" width=""175px"" height=""250px""></img></td>
  </tr>
  <tr height=200>
    <td width=300><img src=""static/images/keys/z.svg"" width=""35%"" height=""75%""></img></td>
    <td width=300><img src=""static/images/keys/m.svg"" width=""35%"" height=""75%""></img></td>
  </tr>
</table>
  ",,,,,,,,,,,,,,,,,,,,,,,,,,,,
65,0,,html-keyboard-response,65,569198,0.0-4.8-3.8,5epmzqjn7o8,2022-09-19 15:45:37.798,62ff91a60dded72baabb414c,0,44,68,65,88,26,Male,,,"<p style=""font-size:50px"">You Lose!
No points this round.</p>",,,,,,,,,,,,,,,,,,,,,,,,,,,,
66,0,,html-keyboard-response,66,569709,0.0-4.8-4.8,5epmzqjn7o8,2022-09-19 15:45:37.798,62ff91a60dded72baabb414c,0,44,68,65,88,26,Male,,,,,,1.0,learning,8.0,C,,red,,moons,,,,C,red,moons,,1.0,0.0,NA,right,128.8000000007,3.0,0.0,0.0,,,
67,0,,html-keyboard-response,67,571216,0.0-4.9-0.9,5epmzqjn7o8,2022-09-19 15:45:37.798,62ff91a60dded72baabb414c,0,44,68,65,88,26,Male,,,"<img src=""static/images/cards/stack_of_black_moons.svg"" width=""175px"" height=""250px""></img>",,,,,,,,,,,,,,,,,,,,,,,,,,,,
68,0,,html-keyboard-response,68,573485,0.0-4.9-1.9,5epmzqjn7o8,2022-09-19 15:45:37.798,62ff91a60dded72baabb414c,0,44,68,65,88,26,Male,1758.1999999993,,"
  <table>
  <tr height=300>
    <td width=300 height=300><img src=""static/images/cards/back_of_black_moons.svg"" width=""175px"" height=""250px""></img></td>
    <td width=300 height=300><img src=""static/images/cards/back_of_black_moons.svg"" width=""175px"" height=""250px""></img></td>
  </tr>
  <tr height=200>
    <td width=300><img src=""static/images/keys/z.svg"" width=""35%"" height=""75%""></img></td>
    <td width=300></td>
  </tr>
</table>
  ",90.0,1.0,,,,,,,,,,,,,,,,,,,,,,,,,,
69,0,,html-keyboard-response,69,574992,0.0-4.9-2.9,5epmzqjn7o8,2022-09-19 15:45:37.798,62ff91a60dded72baabb414c,0,44,68,65,88,26,Male,,,"
  <table>
  <tr height=300>
    <td width=300 height=300><img src=""static/images/cards/3_of_black_moons.svg"" width=""175px"" height=""250px""></img></td>
    <td width=300 height=300><img src=""static/images/cards/back_of_black_moons.svg"" width=""175px"" height=""250px""></img></td>
  </tr>
  <tr height=200>
    <td width=300><img src=""static/images/keys/z.svg"" width=""35%"" height=""75%""></img></td>
    <td width=300></td>
  </tr>
</table>
  ",,,,,,,,,,,,,,,,,,,,,,,,,,,,
70,0,,html-keyboard-response,70,576508,0.0-4.9-3.9,5epmzqjn7o8,2022-09-19 15:45:37.798,62ff91a60dded72baabb414c,0,44,68,65,88,26,Male,,,"<p style=""font-size:50px"">You win!
+10 points this round!</p>",,,,,,,,,,,,,,,,,,,,,,,,,,,,
71,0,,html-keyboard-response,71,577028,0.0-4.9-4.9,5epmzqjn7o8,2022-09-19 15:45:37.798,62ff91a60dded72baabb414c,0,44,68,65,88,26,Male,,,,,,1.0,learning,9.0,D,,black,,moons,,,,D,black,moons,,0.0,0.0,1,left,1758.1999999993,3.0,0.0,1.0,,,
72,0,,html-keyboard-response,72,578533,0.0-4.10-0.10,5epmzqjn7o8,2022-09-19 15:45:37.798,62ff91a60dded72baabb414c,0,44,68,65,88,26,Male,,,"<img src=""static/images/cards/stack_of_red_bolts.svg"" width=""175px"" height=""250px""></img>",,,,,,,,,,,,,,,,,,,,,,,,,,,,
73,0,,html-keyboard-response,73,579839,0.0-4.10-1.10,5epmzqjn7o8,2022-09-19 15:45:37.798,62ff91a60dded72baabb414c,0,44,68,65,88,26,Male,793.2999999998,,"
  <table>
  <tr height=300>
    <td width=300 height=300><img src=""static/images/cards/back_of_red_bolts.svg"" width=""175px"" height=""250px""></img></td>
    <td width=300 height=300><img src=""static/images/cards/back_of_red_bolts.svg"" width=""175px"" height=""250px""></img></td>
  </tr>
  <tr height=200>
    <td width=300><img src=""static/images/keys/z.svg"" width=""35%"" height=""75%""></img></td>
    <td width=300><img src=""static/images/keys/m.svg"" width=""35%"" height=""75%""></img></td>
  </tr>
</table>
  ",77.0,1.0,,,,,,,,,,,,,,,,,,,,,,,,,,
74,0,,html-keyboard-response,74,581350,0.0-4.10-2.10,5epmzqjn7o8,2022-09-19 15:45:37.798,62ff91a60dded72baabb414c,0,44,68,65,88,26,Male,,,"
  <table>
  <tr height=300>
    <td width=300 height=300><img src=""static/images/cards/back_of_red_bolts.svg"" width=""175px"" height=""250px""></img></td>
    <td width=300 height=300><img src=""static/images/cards/10_of_red_bolts.svg"" width=""175px"" height=""250px""></img></td>
  </tr>
  <tr height=200>
    <td width=300><img src=""static/images/keys/z.svg"" width=""35%"" height=""75%""></img></td>
    <td width=300><img src=""static/images/keys/m.svg"" width=""35%"" height=""75%""></img></td>
  </tr>
</table>
  ",,,,,,,,,,,,,,,,,,,,,,,,,,,,
75,0,,html-keyboard-response,75,582867,0.0-4.10-3.10,5epmzqjn7o8,2022-09-19 15:45:37.798,62ff91a60dded72baabb414c,0,44,68,65,88,26,Male,,,"<p style=""font-size:50px"">You win!
+10 points this round!</p>",,,,,,,,,,,,,,,,,,,,,,,,,,,,
76,0,,html-keyboard-response,76,583388,0.0-4.10-4.10,5epmzqjn7o8,2022-09-19 15:45:37.798,62ff91a60dded72baabb414c,0,44,68,65,88,26,Male,,,,,,1.0,learning,10.0,Xc,,red,,bolts,,,,Xc,red,bolts,,1.0,0.0,NA,right,793.2999999998,10.0,1.0,1.0,,,
77,0,,html-keyboard-response,77,584900,0.0-4.11-0.11,5epmzqjn7o8,2022-09-19 15:45:37.798,62ff91a60dded72baabb414c,0,44,68,65,88,26,Male,,,"<img src=""static/images/cards/stack_of_black_bolts.svg"" width=""175px"" height=""250px""></img>",,,,,,,,,,,,,,,,,,,,,,,,,,,,
78,0,,html-keyboard-response,78,585696,0.0-4.11-1.11,5epmzqjn7o8,2022-09-19 15:45:37.798,62ff91a60dded72baabb414c,0,44,68,65,88,26,Male,293.0999999996,,"
  <table>
  <tr height=300>
    <td width=300 height=300><img src=""static/images/cards/back_of_black_bolts.svg"" width=""175px"" height=""250px""></img></td>
    <td width=300 height=300><img src=""static/images/cards/back_of_black_bolts.svg"" width=""175px"" height=""250px""></img></td>
  </tr>
  <tr height=200>
    <td width=300></td>
    <td width=300><img src=""static/images/keys/m.svg"" width=""35%"" height=""75%""></img></td>
  </tr>
</table>
  ",77.0,1.0,,,,,,,,,,,,,,,,,,,,,,,,,,
79,0,,html-keyboard-response,79,587209,0.0-4.11-2.11,5epmzqjn7o8,2022-09-19 15:45:37.798,62ff91a60dded72baabb414c,0,44,68,65,88,26,Male,,,"
  <table>
  <tr height=300>
    <td width=300 height=300><img src=""static/images/cards/back_of_black_bolts.svg"" width=""175px"" height=""250px""></img></td>
    <td width=300 height=300><img src=""static/images/cards/8_of_black_bolts.svg"" width=""175px"" height=""250px""></img></td>
  </tr>
  <tr height=200>
    <td width=300></td>
    <td width=300><img src=""static/images/keys/m.svg"" width=""35%"" height=""75%""></img></td>
  </tr>
</table>
  ",,,,,,,,,,,,,,,,,,,,,,,,,,,,
80,0,,html-keyboard-response,80,588728,0.0-4.11-3.11,5epmzqjn7o8,2022-09-19 15:45:37.798,62ff91a60dded72baabb414c,0,44,68,65,88,26,Male,,,"<p style=""font-size:50px"">You win!
+10 points this round!</p>",,,,,,,,,,,,,,,,,,,,,,,,,,,,
81,0,,html-keyboard-response,81,589233,0.0-4.11-4.11,5epmzqjn7o8,2022-09-19 15:45:37.798,62ff91a60dded72baabb414c,0,44,68,65,88,26,Male,,,,,,1.0,learning,11.0,Xnc,,black,,bolts,,,,Xnc,black,bolts,,0.0,0.0,0,right,293.0999999996,8.0,1.0,1.0,,,
82,0,,html-keyboard-response,82,590738,0.0-4.12-0.12,5epmzqjn7o8,2022-09-19 15:45:37.798,62ff91a60dded72baabb414c,0,44,68,65,88,26,Male,,,"<img src=""static/images/cards/stack_of_red_stars.svg"" width=""175px"" height=""250px""></img>",,,,,,,,,,,,,,,,,,,,,,,,,,,,
83,0,,html-keyboard-response,83,592087,0.0-4.12-1.12,5epmzqjn7o8,2022-09-19 15:45:37.798,62ff91a60dded72baabb414c,0,44,68,65,88,26,Male,842.0,,"
  <table>
  <tr height=300>
    <td width=300 height=300><img src=""static/images/cards/back_of_red_stars.svg"" width=""175px"" height=""250px""></img></td>
    <td width=300 height=300><img src=""static/images/cards/back_of_red_stars.svg"" width=""175px"" height=""250px""></img></td>
  </tr>
  <tr height=200>
    <td width=300><img src=""static/images/keys/z.svg"" width=""35%"" height=""75%""></img></td>
    <td width=300><img src=""static/images/keys/m.svg"" width=""35%"" height=""75%""></img></td>
  </tr>
</table>
  ",90.0,1.0,,,,,,,,,,,,,,,,,,,,,,,,,,
84,0,,html-keyboard-response,84,593593,0.0-4.12-2.12,5epmzqjn7o8,2022-09-19 15:45:37.798,62ff91a60dded72baabb414c,0,44,68,65,88,26,Male,,,"
  <table>
  <tr height=300>
    <td width=300 height=300><img src=""static/images/cards/1_of_red_stars.svg"" width=""175px"" height=""250px""></img></td>
    <td width=300 height=300><img src=""static/images/cards/back_of_red_stars.svg"" width=""175px"" height=""250px""></img></td>
  </tr>
  <tr height=200>
    <td width=300><img src=""static/images/keys/z.svg"" width=""35%"" height=""75%""></img></td>
    <td width=300><img src=""static/images/keys/m.svg"" width=""35%"" height=""75%""></img></td>
  </tr>
</table>
  ",,,,,,,,,,,,,,,,,,,,,,,,,,,,
85,0,,html-keyboard-response,85,595117,0.0-4.12-3.12,5epmzqjn7o8,2022-09-19 15:45:37.798,62ff91a60dded72baabb414c,0,44,68,65,88,26,Male,,,"<p style=""font-size:50px"">You Lose!
No points this round.</p>",,,,,,,,,,,,,,,,,,,,,,,,,,,,
86,0,,html-keyboard-response,86,595629,0.0-4.12-4.12,5epmzqjn7o8,2022-09-19 15:45:37.798,62ff91a60dded72baabb414c,0,44,68,65,88,26,Male,,,,,,1.0,learning,12.0,A,,red,,stars,,,,A,red,stars,,1.0,1.0,NA,left,842.0,1.0,0.0,0.0,,,
87,0,,html-keyboard-response,87,597138,0.0-4.13-0.13,5epmzqjn7o8,2022-09-19 15:45:37.798,62ff91a60dded72baabb414c,0,44,68,65,88,26,Male,,,"<img src=""static/images/cards/stack_of_black_stars.svg"" width=""175px"" height=""250px""></img>",,,,,,,,,,,,,,,,,,,,,,,,,,,,
88,0,,html-keyboard-response,88,598259,0.0-4.13-1.13,5epmzqjn7o8,2022-09-19 15:45:37.798,62ff91a60dded72baabb414c,0,44,68,65,88,26,Male,615.2999999989,,"
  <table>
  <tr height=300>
    <td width=300 height=300><img src=""static/images/cards/back_of_black_stars.svg"" width=""175px"" height=""250px""></img></td>
    <td width=300 height=300><img src=""static/images/cards/back_of_black_stars.svg"" width=""175px"" height=""250px""></img></td>
  </tr>
  <tr height=200>
    <td width=300><img src=""static/images/keys/z.svg"" width=""35%"" height=""75%""></img></td>
    <td width=300></td>
  </tr>
</table>
  ",90.0,1.0,,,,,,,,,,,,,,,,,,,,,,,,,,
89,0,,html-keyboard-response,89,599774,0.0-4.13-2.13,5epmzqjn7o8,2022-09-19 15:45:37.798,62ff91a60dded72baabb414c,0,44,68,65,88,26,Male,,,"
  <table>
  <tr height=300>
    <td width=300 height=300><img src=""static/images/cards/6_of_black_stars.svg"" width=""175px"" height=""250px""></img></td>
    <td width=300 height=300><img src=""static/images/cards/back_of_black_stars.svg"" width=""175px"" height=""250px""></img></td>
  </tr>
  <tr height=200>
    <td width=300><img src=""static/images/keys/z.svg"" width=""35%"" height=""75%""></img></td>
    <td width=300></td>
  </tr>
</table>
  ",,,,,,,,,,,,,,,,,,,,,,,,,,,,
90,0,,html-keyboard-response,90,601289,0.0-4.13-3.13,5epmzqjn7o8,2022-09-19 15:45:37.798,62ff91a60dded72baabb414c,0,44,68,65,88,26,Male,,,"<p style=""font-size:50px"">You win!
+10 points this round!</p>",,,,,,,,,,,,,,,,,,,,,,,,,,,,
91,0,,html-keyboard-response,91,601796,0.0-4.13-4.13,5epmzqjn7o8,2022-09-19 15:45:37.798,62ff91a60dded72baabb414c,0,44,68,65,88,26,Male,,,,,,1.0,learning,13.0,B,,black,,stars,,,,B,black,stars,,0.0,1.0,1,left,615.2999999989,6.0,1.0,1.0,,,
92,0,,html-keyboard-response,92,603311,0.0-4.14-0.14,5epmzqjn7o8,2022-09-19 15:45:37.798,62ff91a60dded72baabb414c,0,44,68,65,88,26,Male,,,"<img src=""static/images/cards/stack_of_red_moons.svg"" width=""175px"" height=""250px""></img>",,,,,,,,,,,,,,,,,,,,,,,,,,,,
93,0,,html-keyboard-response,93,604301,0.0-4.14-1.14,5epmzqjn7o8,2022-09-19 15:45:37.798,62ff91a60dded72baabb414c,0,44,68,65,88,26,Male,481.0,,"
  <table>
  <tr height=300>
    <td width=300 height=300><img src=""static/images/cards/back_of_red_moons.svg"" width=""175px"" height=""250px""></img></td>
    <td width=300 height=300><img src=""static/images/cards/back_of_red_moons.svg"" width=""175px"" height=""250px""></img></td>
  </tr>
  <tr height=200>
    <td width=300><img src=""static/images/keys/z.svg"" width=""35%"" height=""75%""></img></td>
    <td width=300><img src=""static/images/keys/m.svg"" width=""35%"" height=""75%""></img></td>
  </tr>
</table>
  ",77.0,1.0,,,,,,,,,,,,,,,,,,,,,,,,,,
94,0,,html-keyboard-response,94,605811,0.0-4.14-2.14,5epmzqjn7o8,2022-09-19 15:45:37.798,62ff91a60dded72baabb414c,0,44,68,65,88,26,Male,,,"
  <table>
  <tr height=300>
    <td width=300 height=300><img src=""static/images/cards/back_of_red_moons.svg"" width=""175px"" height=""250px""></img></td>
    <td width=300 height=300><img src=""static/images/cards/8_of_red_moons.svg"" width=""175px"" height=""250px""></img></td>
  </tr>
  <tr height=200>
    <td width=300><img src=""static/images/keys/z.svg"" width=""35%"" height=""75%""></img></td>
    <td width=300><img src=""static/images/keys/m.svg"" width=""35%"" height=""75%""></img></td>
  </tr>
</table>
  ",,,,,,,,,,,,,,,,,,,,,,,,,,,,
95,0,,html-keyboard-response,95,607335,0.0-4.14-3.14,5epmzqjn7o8,2022-09-19 15:45:37.798,62ff91a60dded72baabb414c,0,44,68,65,88,26,Male,,,"<p style=""font-size:50px"">You Lose!
No points this round.</p>",,,,,,,,,,,,,,,,,,,,,,,,,,,,
96,0,,html-keyboard-response,96,607848,0.0-4.14-4.14,5epmzqjn7o8,2022-09-19 15:45:37.798,62ff91a60dded72baabb414c,0,44,68,65,88,26,Male,,,,,,1.0,learning,14.0,C,,red,,moons,,,,C,red,moons,,1.0,0.0,NA,right,481.0,8.0,1.0,0.0,,,
97,0,,html-keyboard-response,97,609359,0.0-4.15-0.15,5epmzqjn7o8,2022-09-19 15:45:37.798,62ff91a60dded72baabb414c,0,44,68,65,88,26,Male,,,"<img src=""static/images/cards/stack_of_black_moons.svg"" width=""175px"" height=""250px""></img>",,,,,,,,,,,,,,,,,,,,,,,,,,,,
98,0,,html-keyboard-response,98,610564,0.0-4.15-1.15,5epmzqjn7o8,2022-09-19 15:45:37.798,62ff91a60dded72baabb414c,0,44,68,65,88,26,Male,689.0,,"
  <table>
  <tr height=300>
    <td width=300 height=300><img src=""static/images/cards/back_of_black_moons.svg"" width=""175px"" height=""250px""></img></td>
    <td width=300 height=300><img src=""static/images/cards/back_of_black_moons.svg"" width=""175px"" height=""250px""></img></td>
  </tr>
  <tr height=200>
    <td width=300></td>
    <td width=300><img src=""static/images/keys/m.svg"" width=""35%"" height=""75%""></img></td>
  </tr>
</table>
  ",77.0,1.0,,,,,,,,,,,,,,,,,,,,,,,,,,
99,0,,html-keyboard-response,99,612076,0.0-4.15-2.15,5epmzqjn7o8,2022-09-19 15:45:37.798,62ff91a60dded72baabb414c,0,44,68,65,88,26,Male,,,"
  <table>
  <tr height=300>
    <td width=300 height=300><img src=""static/images/cards/back_of_black_moons.svg"" width=""175px"" height=""250px""></img></td>
    <td width=300 height=300><img src=""static/images/cards/10_of_black_moons.svg"" width=""175px"" height=""250px""></img></td>
  </tr>
  <tr height=200>
    <td width=300></td>
    <td width=300><img src=""static/images/keys/m.svg"" width=""35%"" height=""75%""></img></td>
  </tr>
</table>
  ",,,,,,,,,,,,,,,,,,,,,,,,,,,,
100,0,,html-keyboard-response,100,613588,0.0-4.15-3.15,5epmzqjn7o8,2022-09-19 15:45:37.798,62ff91a60dded72baabb414c,0,44,68,65,88,26,Male,,,"<p style=""font-size:50px"">You Lose!
No points this round.</p>",,,,,,,,,,,,,,,,,,,,,,,,,,,,
101,0,,html-keyboard-response,101,614093,0.0-4.15-4.15,5epmzqjn7o8,2022-09-19 15:45:37.798,62ff91a60dded72baabb414c,0,44,68,65,88,26,Male,,,,,,1.0,learning,15.0,D,,black,,moons,,,,D,black,moons,,0.0,0.0,0,right,689.0,10.0,1.0,0.0,,,
102,0,,html-keyboard-response,102,615603,0.0-4.16-0.16,5epmzqjn7o8,2022-09-19 15:45:37.798,62ff91a60dded72baabb414c,0,44,68,65,88,26,Male,,,"<img src=""static/images/cards/stack_of_red_bolts.svg"" width=""175px"" height=""250px""></img>",,,,,,,,,,,,,,,,,,,,,,,,,,,,
103,0,,html-keyboard-response,103,616916,0.0-4.16-1.16,5epmzqjn7o8,2022-09-19 15:45:37.798,62ff91a60dded72baabb414c,0,44,68,65,88,26,Male,796.3999999985,,"
  <table>
  <tr height=300>
    <td width=300 height=300><img src=""static/images/cards/back_of_red_bolts.svg"" width=""175px"" height=""250px""></img></td>
    <td width=300 height=300><img src=""static/images/cards/back_of_red_bolts.svg"" width=""175px"" height=""250px""></img></td>
  </tr>
  <tr height=200>
    <td width=300><img src=""static/images/keys/z.svg"" width=""35%"" height=""75%""></img></td>
    <td width=300><img src=""static/images/keys/m.svg"" width=""35%"" height=""75%""></img></td>
  </tr>
</table>
  ",77.0,1.0,,,,,,,,,,,,,,,,,,,,,,,,,,
104,0,,html-keyboard-response,104,618418,0.0-4.16-2.16,5epmzqjn7o8,2022-09-19 15:45:37.798,62ff91a60dded72baabb414c,0,44,68,65,88,26,Male,,,"
  <table>
  <tr height=300>
    <td width=300 height=300><img src=""static/images/cards/back_of_red_bolts.svg"" width=""175px"" height=""250px""></img></td>
    <td width=300 height=300><img src=""static/images/cards/6_of_red_bolts.svg"" width=""175px"" height=""250px""></img></td>
  </tr>
  <tr height=200>
    <td width=300><img src=""static/images/keys/z.svg"" width=""35%"" height=""75%""></img></td>
    <td width=300><img src=""static/images/keys/m.svg"" width=""35%"" height=""75%""></img></td>
  </tr>
</table>
  ",,,,,,,,,,,,,,,,,,,,,,,,,,,,
105,0,,html-keyboard-response,105,619932,0.0-4.16-3.16,5epmzqjn7o8,2022-09-19 15:45:37.798,62ff91a60dded72baabb414c,0,44,68,65,88,26,Male,,,"<p style=""font-size:50px"">You win!
+10 points this round!</p>",,,,,,,,,,,,,,,,,,,,,,,,,,,,
106,0,,html-keyboard-response,106,620439,0.0-4.16-4.16,5epmzqjn7o8,2022-09-19 15:45:37.798,62ff91a60dded72baabb414c,0,44,68,65,88,26,Male,,,,,,1.0,learning,16.0,Xc,,red,,bolts,,,,Xc,red,bolts,,1.0,0.0,NA,right,796.3999999985,6.0,1.0,1.0,,,
107,0,,html-keyboard-response,107,621942,0.0-4.17-0.17,5epmzqjn7o8,2022-09-19 15:45:37.798,62ff91a60dded72baabb414c,0,44,68,65,88,26,Male,,,"<img src=""static/images/cards/stack_of_black_bolts.svg"" width=""175px"" height=""250px""></img>",,,,,,,,,,,,,,,,,,,,,,,,,,,,
108,0,,html-keyboard-response,108,622975,0.0-4.17-1.17,5epmzqjn7o8,2022-09-19 15:45:37.798,62ff91a60dded72baabb414c,0,44,68,65,88,26,Male,524.3999999985,,"
  <table>
  <tr height=300>
    <td width=300 height=300><img src=""static/images/cards/back_of_black_bolts.svg"" width=""175px"" height=""250px""></img></td>
    <td width=300 height=300><img src=""static/images/cards/back_of_black_bolts.svg"" width=""175px"" height=""250px""></img></td>
  </tr>
  <tr height=200>
    <td width=300><img src=""static/images/keys/z.svg"" width=""35%"" height=""75%""></img></td>
    <td width=300></td>
  </tr>
</table>
  ",90.0,1.0,,,,,,,,,,,,,,,,,,,,,,,,,,
109,0,,html-keyboard-response,109,624478,0.0-4.17-2.17,5epmzqjn7o8,2022-09-19 15:45:37.798,62ff91a60dded72baabb414c,0,44,68,65,88,26,Male,,,"
  <table>
  <tr height=300>
    <td width=300 height=300><img src=""static/images/cards/9_of_black_bolts.svg"" width=""175px"" height=""250px""></img></td>
    <td width=300 height=300><img src=""static/images/cards/back_of_black_bolts.svg"" width=""175px"" height=""250px""></img></td>
  </tr>
  <tr height=200>
    <td width=300><img src=""static/images/keys/z.svg"" width=""35%"" height=""75%""></img></td>
    <td width=300></td>
  </tr>
</table>
  ",,,,,,,,,,,,,,,,,,,,,,,,,,,,
110,0,,html-keyboard-response,110,626007,0.0-4.17-3.17,5epmzqjn7o8,2022-09-19 15:45:37.798,62ff91a60dded72baabb414c,0,44,68,65,88,26,Male,,,"<p style=""font-size:50px"">You win!
+10 points this round!</p>",,,,,,,,,,,,,,,,,,,,,,,,,,,,
111,0,,html-keyboard-response,111,626519,0.0-4.17-4.17,5epmzqjn7o8,2022-09-19 15:45:37.798,62ff91a60dded72baabb414c,0,44,68,65,88,26,Male,,,,,,1.0,learning,17.0,Xnc,,black,,bolts,,,,Xnc,black,bolts,,0.0,0.0,1,left,524.3999999985,9.0,1.0,1.0,,,
112,0,,html-keyboard-response,112,628031,0.0-4.18-0.18,5epmzqjn7o8,2022-09-19 15:45:37.798,62ff91a60dded72baabb414c,0,44,68,65,88,26,Male,,,"<img src=""static/images/cards/stack_of_red_stars.svg"" width=""175px"" height=""250px""></img>",,,,,,,,,,,,,,,,,,,,,,,,,,,,
113,0,,html-keyboard-response,113,629651,0.0-4.18-1.18,5epmzqjn7o8,2022-09-19 15:45:37.798,62ff91a60dded72baabb414c,0,44,68,65,88,26,Male,1114.8999999985,,"
  <table>
  <tr height=300>
    <td width=300 height=300><img src=""static/images/cards/back_of_red_stars.svg"" width=""175px"" height=""250px""></img></td>
    <td width=300 height=300><img src=""static/images/cards/back_of_red_stars.svg"" width=""175px"" height=""250px""></img></td>
  </tr>
  <tr height=200>
    <td width=300><img src=""static/images/keys/z.svg"" width=""35%"" height=""75%""></img></td>
    <td width=300><img src=""static/images/keys/m.svg"" width=""35%"" height=""75%""></img></td>
  </tr>
</table>
  ",77.0,1.0,,,,,,,,,,,,,,,,,,,,,,,,,,
114,0,,html-keyboard-response,114,631157,0.0-4.18-2.18,5epmzqjn7o8,2022-09-19 15:45:37.798,62ff91a60dded72baabb414c,0,44,68,65,88,26,Male,,,"
  <table>
  <tr height=300>
    <td width=300 height=300><img src=""static/images/cards/back_of_red_stars.svg"" width=""175px"" height=""250px""></img></td>
    <td width=300 height=300><img src=""static/images/cards/9_of_red_stars.svg"" width=""175px"" height=""250px""></img></td>
  </tr>
  <tr height=200>
    <td width=300><img src=""static/images/keys/z.svg"" width=""35%"" height=""75%""></img></td>
    <td width=300><img src=""static/images/keys/m.svg"" width=""35%"" height=""75%""></img></td>
  </tr>
</table>
  ",,,,,,,,,,,,,,,,,,,,,,,,,,,,
115,0,,html-keyboard-response,115,632667,0.0-4.18-3.18,5epmzqjn7o8,2022-09-19 15:45:37.798,62ff91a60dded72baabb414c,0,44,68,65,88,26,Male,,,"<p style=""font-size:50px"">You win!
+10 points this round!</p>",,,,,,,,,,,,,,,,,,,,,,,,,,,,
116,0,,html-keyboard-response,116,633174,0.0-4.18-4.18,5epmzqjn7o8,2022-09-19 15:45:37.798,62ff91a60dded72baabb414c,0,44,68,65,88,26,Male,,,,,,1.0,learning,18.0,A,,red,,stars,,,,A,red,stars,,1.0,1.0,NA,right,1114.8999999985,9.0,1.0,1.0,,,
117,0,,html-keyboard-response,117,634687,0.0-4.19-0.19,5epmzqjn7o8,2022-09-19 15:45:37.798,62ff91a60dded72baabb414c,0,44,68,65,88,26,Male,,,"<img src=""static/images/cards/stack_of_black_stars.svg"" width=""175px"" height=""250px""></img>",,,,,,,,,,,,,,,,,,,,,,,,,,,,
118,0,,html-keyboard-response,118,635830,0.0-4.19-1.19,5epmzqjn7o8,2022-09-19 15:45:37.798,62ff91a60dded72baabb414c,0,44,68,65,88,26,Male,636.5,,"
  <table>
  <tr height=300>
    <td width=300 height=300><img src=""static/images/cards/back_of_black_stars.svg"" width=""175px"" height=""250px""></img></td>
    <td width=300 height=300><img src=""static/images/cards/back_of_black_stars.svg"" width=""175px"" height=""250px""></img></td>
  </tr>
  <tr height=200>
    <td width=300><img src=""static/images/keys/z.svg"" width=""35%"" height=""75%""></img></td>
    <td width=300></td>
  </tr>
</table>
  ",90.0,1.0,,,,,,,,,,,,,,,,,,,,,,,,,,
119,0,,html-keyboard-response,119,637340,0.0-4.19-2.19,5epmzqjn7o8,2022-09-19 15:45:37.798,62ff91a60dded72baabb414c,0,44,68,65,88,26,Male,,,"
  <table>
  <tr height=300>
    <td width=300 height=300><img src=""static/images/cards/8_of_black_stars.svg"" width=""175px"" height=""250px""></img></td>
    <td width=300 height=300><img src=""static/images/cards/back_of_black_stars.svg"" width=""175px"" height=""250px""></img></td>
  </tr>
  <tr height=200>
    <td width=300><img src=""static/images/keys/z.svg"" width=""35%"" height=""75%""></img></td>
    <td width=300></td>
  </tr>
</table>
  ",,,,,,,,,,,,,,,,,,,,,,,,,,,,
120,0,,html-keyboard-response,120,638861,0.0-4.19-3.19,5epmzqjn7o8,2022-09-19 15:45:37.798,62ff91a60dded72baabb414c,0,44,68,65,88,26,Male,,,"<p style=""font-size:50px"">You win!
+10 points this round!</p>",,,,,,,,,,,,,,,,,,,,,,,,,,,,
121,0,,html-keyboard-response,121,639368,0.0-4.19-4.19,5epmzqjn7o8,2022-09-19 15:45:37.798,62ff91a60dded72baabb414c,0,44,68,65,88,26,Male,,,,,,1.0,learning,19.0,B,,black,,stars,,,,B,black,stars,,0.0,1.0,1,left,636.5,8.0,1.0,1.0,,,
122,0,,html-keyboard-response,122,640883,0.0-4.20-0.20,5epmzqjn7o8,2022-09-19 15:45:37.798,62ff91a60dded72baabb414c,0,44,68,65,88,26,Male,,,"<img src=""static/images/cards/stack_of_red_moons.svg"" width=""175px"" height=""250px""></img>",,,,,,,,,,,,,,,,,,,,,,,,,,,,
123,0,,html-keyboard-response,123,642318,0.0-4.20-1.20,5epmzqjn7o8,2022-09-19 15:45:37.798,62ff91a60dded72baabb414c,0,44,68,65,88,26,Male,923.1999999993,,"
  <table>
  <tr height=300>
    <td width=300 height=300><img src=""static/images/cards/back_of_red_moons.svg"" width=""175px"" height=""250px""></img></td>
    <td width=300 height=300><img src=""static/images/cards/back_of_red_moons.svg"" width=""175px"" height=""250px""></img></td>
  </tr>
  <tr height=200>
    <td width=300><img src=""static/images/keys/z.svg"" width=""35%"" height=""75%""></img></td>
    <td width=300><img src=""static/images/keys/m.svg"" width=""35%"" height=""75%""></img></td>
  </tr>
</table>
  ",77.0,1.0,,,,,,,,,,,,,,,,,,,,,,,,,,
124,0,,html-keyboard-response,124,643832,0.0-4.20-2.20,5epmzqjn7o8,2022-09-19 15:45:37.798,62ff91a60dded72baabb414c,0,44,68,65,88,26,Male,,,"
  <table>
  <tr height=300>
    <td width=300 height=300><img src=""static/images/cards/back_of_red_moons.svg"" width=""175px"" height=""250px""></img></td>
    <td width=300 height=300><img src=""static/images/cards/10_of_red_moons.svg"" width=""175px"" height=""250px""></img></td>
  </tr>
  <tr height=200>
    <td width=300><img src=""static/images/keys/z.svg"" width=""35%"" height=""75%""></img></td>
    <td width=300><img src=""static/images/keys/m.svg"" width=""35%"" height=""75%""></img></td>
  </tr>
</table>
  ",,,,,,,,,,,,,,,,,,,,,,,,,,,,
125,0,,html-keyboard-response,125,645358,0.0-4.20-3.20,5epmzqjn7o8,2022-09-19 15:45:37.798,62ff91a60dded72baabb414c,0,44,68,65,88,26,Male,,,"<p style=""font-size:50px"">You win!
+10 points this round!</p>",,,,,,,,,,,,,,,,,,,,,,,,,,,,
126,0,,html-keyboard-response,126,645877,0.0-4.20-4.20,5epmzqjn7o8,2022-09-19 15:45:37.798,62ff91a60dded72baabb414c,0,44,68,65,88,26,Male,,,,,,1.0,learning,20.0,C,,red,,moons,,,,C,red,moons,,1.0,0.0,NA,right,923.1999999993,10.0,1.0,1.0,,,
127,0,,html-keyboard-response,127,647383,0.0-4.21-0.21,5epmzqjn7o8,2022-09-19 15:45:37.798,62ff91a60dded72baabb414c,0,44,68,65,88,26,Male,,,"<img src=""static/images/cards/stack_of_black_moons.svg"" width=""175px"" height=""250px""></img>",,,,,,,,,,,,,,,,,,,,,,,,,,,,
128,0,,html-keyboard-response,128,648537,0.0-4.21-1.21,5epmzqjn7o8,2022-09-19 15:45:37.798,62ff91a60dded72baabb414c,0,44,68,65,88,26,Male,647.2000000011,,"
  <table>
  <tr height=300>
    <td width=300 height=300><img src=""static/images/cards/back_of_black_moons.svg"" width=""175px"" height=""250px""></img></td>
    <td width=300 height=300><img src=""static/images/cards/back_of_black_moons.svg"" width=""175px"" height=""250px""></img></td>
  </tr>
  <tr height=200>
    <td width=300></td>
    <td width=300><img src=""static/images/keys/m.svg"" width=""35%"" height=""75%""></img></td>
  </tr>
</table>
  ",77.0,1.0,,,,,,,,,,,,,,,,,,,,,,,,,,
129,0,,html-keyboard-response,129,650045,0.0-4.21-2.21,5epmzqjn7o8,2022-09-19 15:45:37.798,62ff91a60dded72baabb414c,0,44,68,65,88,26,Male,,,"
  <table>
  <tr height=300>
    <td width=300 height=300><img src=""static/images/cards/back_of_black_moons.svg"" width=""175px"" height=""250px""></img></td>
    <td width=300 height=300><img src=""static/images/cards/10_of_black_moons.svg"" width=""175px"" height=""250px""></img></td>
  </tr>
  <tr height=200>
    <td width=300></td>
    <td width=300><img src=""static/images/keys/m.svg"" width=""35%"" height=""75%""></img></td>
  </tr>
</table>
  ",,,,,,,,,,,,,,,,,,,,,,,,,,,,
130,0,,html-keyboard-response,130,651565,0.0-4.21-3.21,5epmzqjn7o8,2022-09-19 15:45:37.798,62ff91a60dded72baabb414c,0,44,68,65,88,26,Male,,,"<p style=""font-size:50px"">You win!
+10 points this round!</p>",,,,,,,,,,,,,,,,,,,,,,,,,,,,
131,0,,html-keyboard-response,131,652076,0.0-4.21-4.21,5epmzqjn7o8,2022-09-19 15:45:37.798,62ff91a60dded72baabb414c,0,44,68,65,88,26,Male,,,,,,1.0,learning,21.0,D,,black,,moons,,,,D,black,moons,,0.0,0.0,0,right,647.2000000011,10.0,1.0,1.0,,,
132,0,,html-keyboard-response,132,653582,0.0-4.22-0.22,5epmzqjn7o8,2022-09-19 15:45:37.798,62ff91a60dded72baabb414c,0,44,68,65,88,26,Male,,,"<img src=""static/images/cards/stack_of_red_bolts.svg"" width=""175px"" height=""250px""></img>",,,,,,,,,,,,,,,,,,,,,,,,,,,,
133,0,,html-keyboard-response,133,654965,0.0-4.22-1.22,5epmzqjn7o8,2022-09-19 15:45:37.798,62ff91a60dded72baabb414c,0,44,68,65,88,26,Male,880.4000000004,,"
  <table>
  <tr height=300>
    <td width=300 height=300><img src=""static/images/cards/back_of_red_bolts.svg"" width=""175px"" height=""250px""></img></td>
    <td width=300 height=300><img src=""static/images/cards/back_of_red_bolts.svg"" width=""175px"" height=""250px""></img></td>
  </tr>
  <tr height=200>
    <td width=300><img src=""static/images/keys/z.svg"" width=""35%"" height=""75%""></img></td>
    <td width=300><img src=""static/images/keys/m.svg"" width=""35%"" height=""75%""></img></td>
  </tr>
</table>
  ",77.0,1.0,,,,,,,,,,,,,,,,,,,,,,,,,,
134,0,,html-keyboard-response,134,656476,0.0-4.22-2.22,5epmzqjn7o8,2022-09-19 15:45:37.798,62ff91a60dded72baabb414c,0,44,68,65,88,26,Male,,,"
  <table>
  <tr height=300>
    <td width=300 height=300><img src=""static/images/cards/back_of_red_bolts.svg"" width=""175px"" height=""250px""></img></td>
    <td width=300 height=300><img src=""static/images/cards/4_of_red_bolts.svg"" width=""175px"" height=""250px""></img></td>
  </tr>
  <tr height=200>
    <td width=300><img src=""static/images/keys/z.svg"" width=""35%"" height=""75%""></img></td>
    <td width=300><img src=""static/images/keys/m.svg"" width=""35%"" height=""75%""></img></td>
  </tr>
</table>
  ",,,,,,,,,,,,,,,,,,,,,,,,,,,,
135,0,,html-keyboard-response,135,657992,0.0-4.22-3.22,5epmzqjn7o8,2022-09-19 15:45:37.798,62ff91a60dded72baabb414c,0,44,68,65,88,26,Male,,,"<p style=""font-size:50px"">You win!
+10 points this round!</p>",,,,,,,,,,,,,,,,,,,,,,,,,,,,
136,0,,html-keyboard-response,136,658503,0.0-4.22-4.22,5epmzqjn7o8,2022-09-19 15:45:37.798,62ff91a60dded72baabb414c,0,44,68,65,88,26,Male,,,,,,1.0,learning,22.0,Xc,,red,,bolts,,,,Xc,red,bolts,,1.0,0.0,NA,right,880.4000000004,4.0,0.0,1.0,,,
137,0,,html-keyboard-response,137,660009,0.0-4.23-0.23,5epmzqjn7o8,2022-09-19 15:45:37.798,62ff91a60dded72baabb414c,0,44,68,65,88,26,Male,,,"<img src=""static/images/cards/stack_of_black_bolts.svg"" width=""175px"" height=""250px""></img>",,,,,,,,,,,,,,,,,,,,,,,,,,,,
138,0,,html-keyboard-response,138,661273,0.0-4.23-1.23,5epmzqjn7o8,2022-09-19 15:45:37.798,62ff91a60dded72baabb414c,0,44,68,65,88,26,Male,761.0999999996,,"
  <table>
  <tr height=300>
    <td width=300 height=300><img src=""static/images/cards/back_of_black_bolts.svg"" width=""175px"" height=""250px""></img></td>
    <td width=300 height=300><img src=""static/images/cards/back_of_black_bolts.svg"" width=""175px"" height=""250px""></img></td>
  </tr>
  <tr height=200>
    <td width=300></td>
    <td width=300><img src=""static/images/keys/m.svg"" width=""35%"" height=""75%""></img></td>
  </tr>
</table>
  ",77.0,3.0,,,,,,,,,,,,,,,,,,,,,,,,,,
139,0,,html-keyboard-response,139,662788,0.0-4.23-2.23,5epmzqjn7o8,2022-09-19 15:45:37.798,62ff91a60dded72baabb414c,0,44,68,65,88,26,Male,,,"
  <table>
  <tr height=300>
    <td width=300 height=300><img src=""static/images/cards/back_of_black_bolts.svg"" width=""175px"" height=""250px""></img></td>
    <td width=300 height=300><img src=""static/images/cards/4_of_black_bolts.svg"" width=""175px"" height=""250px""></img></td>
  </tr>
  <tr height=200>
    <td width=300></td>
    <td width=300><img src=""static/images/keys/m.svg"" width=""35%"" height=""75%""></img></td>
  </tr>
</table>
  ",,,,,,,,,,,,,,,,,,,,,,,,,,,,
140,0,,html-keyboard-response,140,664299,0.0-4.23-3.23,5epmzqjn7o8,2022-09-19 15:45:37.798,62ff91a60dded72baabb414c,0,44,68,65,88,26,Male,,,"<p style=""font-size:50px"">You win!
+10 points this round!</p>",,,,,,,,,,,,,,,,,,,,,,,,,,,,
141,0,,html-keyboard-response,141,664811,0.0-4.23-4.23,5epmzqjn7o8,2022-09-19 15:45:37.798,62ff91a60dded72baabb414c,0,44,68,65,88,26,Male,,,,,,1.0,learning,23.0,Xnc,,black,,bolts,,,,Xnc,black,bolts,,0.0,0.0,0,right,761.0999999996,4.0,0.0,1.0,,,
142,0,,call-function,142,664815,0.0-5.0,5epmzqjn7o8,2022-09-19 15:45:37.798,62ff91a60dded72baabb414c,0,44,68,65,88,26,Male,,,,,,,,,,,,,,,,,,,,,,,,,,,,,,,
143,0,,image-keyboard-response,143,729225,0.0-6.0-0.0,5epmzqjn7o8,2022-09-19 15:45:37.798,62ff91a60dded72baabb414c,0,44,68,65,88,26,Male,64415.0999999996,,static/images/instructions_CB_0/Slide20.png,39.0,,,,,,,,,,,,,,,,,,,,,,,,,,,
144,0,,image-keyboard-response,144,757787,0.0-6.1-0.1,5epmzqjn7o8,2022-09-19 15:45:37.798,62ff91a60dded72baabb414c,0,44,68,65,88,26,Male,28561.8000000007,,static/images/instructions_CB_0/Slide21.png,39.0,,,,,,,,,,,,,,,,,,,,,,,,,,,
145,0,,image-keyboard-response,145,772271,0.0-6.2-0.2,5epmzqjn7o8,2022-09-19 15:45:37.798,62ff91a60dded72baabb414c,0,44,68,65,88,26,Male,14482.5999999996,,static/images/instructions_CB_0/Slide22.png,39.0,,,,,,,,,,,,,,,,,,,,,,,,,,,
146,0,,image-keyboard-response,146,778797,0.0-6.3-0.3,5epmzqjn7o8,2022-09-19 15:45:37.798,62ff91a60dded72baabb414c,0,44,68,65,88,26,Male,6525.8999999985,,static/images/instructions_CB_0/Slide23.png,39.0,,,,,,,,,,,,,,,,,,,,,,,,,,,
147,0,,image-keyboard-response,147,787778,0.0-6.4-0.4,5epmzqjn7o8,2022-09-19 15:45:37.798,62ff91a60dded72baabb414c,0,44,68,65,88,26,Male,8980.2999999989,,static/images/instructions_CB_0/Slide24.png,39.0,,,,,,,,,,,,,,,,,,,,,,,,,,,
148,0,,html-keyboard-response,148,792800,0.0-7.0-0.0,5epmzqjn7o8,2022-09-19 15:45:37.798,62ff91a60dded72baabb414c,0,44,68,65,88,26,Male,,,"
  <table>
  <tr height=300>
    <td width=300 height=300><img src=""static/images/cards/stack_of_black_stars.svg"" width=""175px"" height=""250px""></img></td>
    <td width=300 height=300><img src=""static/images/cards/stack_of_black_moons.svg"" width=""175px"" height=""250px""></img></td>
  </tr>
  <tr height=200>
    <td width=300><img src=""static/images/keys/w.svg"" width=""35%"" height=""75%""></img></td>
    <td width=300><img src=""static/images/keys/o.svg"" width=""35%"" height=""75%""></img></td>
  </tr>
</table>
  ",,,,,,,,,,,,,,,,,,,,,,,,,,,,
149,0,,html-keyboard-response,149,793309,0.0-7.0-1.0,5epmzqjn7o8,2022-09-19 15:45:37.798,62ff91a60dded72baabb414c,0,44,68,65,88,26,Male,,,,,,,,,,,,,,,,,,,,,,,,,,,,,,,
150,0,,html-keyboard-response,150,793310,0.0-7.0-2.0,5epmzqjn7o8,2022-09-19 15:45:37.798,62ff91a60dded72baabb414c,0,44,68,65,88,26,Male,,,,,,,,,,,,,,,,,,,,,,,,,,,,,,,
151,0,,html-keyboard-response,151,794824,0.0-7.0-3.0,5epmzqjn7o8,2022-09-19 15:45:37.798,62ff91a60dded72baabb414c,0,44,68,65,88,26,Male,,,"<p style=""font-size:50px"">Too slow!</p>",,,,,,,,,,,,,,,,,,,,,,,,,,,,
152,0,,html-keyboard-response,152,795330,0.0-7.0-4.0,5epmzqjn7o8,2022-09-19 15:45:37.798,62ff91a60dded72baabb414c,0,44,68,65,88,26,Male,,,,,,1.0,choice,0.0,B,D,black,black,stars,moons,B,D,,,,,0.0,0.0,0,,,4.0,0.0,1.0,,,
153,0,,html-keyboard-response,153,798617,0.0-7.1-0.1,5epmzqjn7o8,2022-09-19 15:45:37.798,62ff91a60dded72baabb414c,0,44,68,65,88,26,Male,3285.4000000004,,"
  <table>
  <tr height=300>
    <td width=300 height=300><img src=""static/images/cards/stack_of_red_moons.svg"" width=""175px"" height=""250px""></img></td>
    <td width=300 height=300><img src=""static/images/cards/stack_of_red_stars.svg"" width=""175px"" height=""250px""></img></td>
  </tr>
  <tr height=200>
    <td width=300><img src=""static/images/keys/w.svg"" width=""35%"" height=""75%""></img></td>
    <td width=300><img src=""static/images/keys/o.svg"" width=""35%"" height=""75%""></img></td>
  </tr>
</table>
  ",79.0,3.0,,,,,,,,,,,,,,,,,,,,,,,,,,
154,0,,html-keyboard-response,154,800480,0.0-7.1-1.1,5epmzqjn7o8,2022-09-19 15:45:37.798,62ff91a60dded72baabb414c,0,44,68,65,88,26,Male,1361.1999999993,,"
  <table>
  <tr height=300>
    <td width=300 height=300><img src=""static/images/cards/back_of_red_stars.svg"" width=""175px"" height=""250px""></img></td>
    <td width=300 height=300><img src=""static/images/cards/back_of_red_stars.svg"" width=""175px"" height=""250px""></img></td>
  </tr>
  <tr height=200>
    <td width=300><img src=""static/images/keys/z.svg"" width=""35%"" height=""75%""></img></td>
    <td width=300><img src=""static/images/keys/m.svg"" width=""35%"" height=""75%""></img></td>
  </tr>
</table>
  ",77.0,1.0,,,,,,,,,,,,,,,,,,,,,,,,,,
155,0,,html-keyboard-response,155,801985,0.0-7.1-2.1,5epmzqjn7o8,2022-09-19 15:45:37.798,62ff91a60dded72baabb414c,0,44,68,65,88,26,Male,,,"
  <table>
  <tr height=300>
    <td width=300 height=300><img src=""static/images/cards/back_of_red_stars.svg"" width=""175px"" height=""250px""></img></td>
    <td width=300 height=300><img src=""static/images/cards/10_of_red_stars.svg"" width=""175px"" height=""250px""></img></td>
  </tr>
  <tr height=200>
    <td width=300><img src=""static/images/keys/z.svg"" width=""35%"" height=""75%""></img></td>
    <td width=300><img src=""static/images/keys/m.svg"" width=""35%"" height=""75%""></img></td>
  </tr>
</table>
  ",,,,,,,,,,,,,,,,,,,,,,,,,,,,
156,0,,html-keyboard-response,156,803505,0.0-7.1-3.1,5epmzqjn7o8,2022-09-19 15:45:37.798,62ff91a60dded72baabb414c,0,44,68,65,88,26,Male,,,"<p style=""font-size:50px"">You win!
+10 points this round!</p>",,,,,,,,,,,,,,,,,,,,,,,,,,,,
157,0,,html-keyboard-response,157,804025,0.0-7.1-4.1,5epmzqjn7o8,2022-09-19 15:45:37.798,62ff91a60dded72baabb414c,0,44,68,65,88,26,Male,,,,,,1.0,choice,1.0,A,C,red,red,moons,stars,C,A,A,red,stars,3285.4000000004,1.0,1.0,NA,right,1361.1999999993,10.0,1.0,1.0,,,
158,0,,html-keyboard-response,158,804796,0.0-7.2-0.2,5epmzqjn7o8,2022-09-19 15:45:37.798,62ff91a60dded72baabb414c,0,44,68,65,88,26,Male,769.4000000004,,"
  <table>
  <tr height=300>
    <td width=300 height=300><img src=""static/images/cards/stack_of_red_stars.svg"" width=""175px"" height=""250px""></img></td>
    <td width=300 height=300><img src=""static/images/cards/stack_of_black_stars.svg"" width=""175px"" height=""250px""></img></td>
  </tr>
  <tr height=200>
    <td width=300><img src=""static/images/keys/w.svg"" width=""35%"" height=""75%""></img></td>
    <td width=300><img src=""static/images/keys/o.svg"" width=""35%"" height=""75%""></img></td>
  </tr>
</table>
  ",87.0,1.0,,,,,,,,,,,,,,,,,,,,,,,,,,
159,0,,html-keyboard-response,159,807791,0.0-7.2-1.2,5epmzqjn7o8,2022-09-19 15:45:37.798,62ff91a60dded72baabb414c,0,44,68,65,88,26,Male,2485.3000000007,,"
  <table>
  <tr height=300>
    <td width=300 height=300><img src=""static/images/cards/back_of_red_stars.svg"" width=""175px"" height=""250px""></img></td>
    <td width=300 height=300><img src=""static/images/cards/back_of_red_stars.svg"" width=""175px"" height=""250px""></img></td>
  </tr>
  <tr height=200>
    <td width=300><img src=""static/images/keys/z.svg"" width=""35%"" height=""75%""></img></td>
    <td width=300><img src=""static/images/keys/m.svg"" width=""35%"" height=""75%""></img></td>
  </tr>
</table>
  ",90.0,1.0,,,,,,,,,,,,,,,,,,,,,,,,,,
160,0,,html-keyboard-response,160,809293,0.0-7.2-2.2,5epmzqjn7o8,2022-09-19 15:45:37.798,62ff91a60dded72baabb414c,0,44,68,65,88,26,Male,,,"
  <table>
  <tr height=300>
    <td width=300 height=300><img src=""static/images/cards/10_of_red_stars.svg"" width=""175px"" height=""250px""></img></td>
    <td width=300 height=300><img src=""static/images/cards/back_of_red_stars.svg"" width=""175px"" height=""250px""></img></td>
  </tr>
  <tr height=200>
    <td width=300><img src=""static/images/keys/z.svg"" width=""35%"" height=""75%""></img></td>
    <td width=300><img src=""static/images/keys/m.svg"" width=""35%"" height=""75%""></img></td>
  </tr>
</table>
  ",,,,,,,,,,,,,,,,,,,,,,,,,,,,
161,0,,html-keyboard-response,161,810804,0.0-7.2-3.2,5epmzqjn7o8,2022-09-19 15:45:37.798,62ff91a60dded72baabb414c,0,44,68,65,88,26,Male,,,"<p style=""font-size:50px"">You win!
+10 points this round!</p>",,,,,,,,,,,,,,,,,,,,,,,,,,,,
162,0,,html-keyboard-response,162,811311,0.0-7.2-4.2,5epmzqjn7o8,2022-09-19 15:45:37.798,62ff91a60dded72baabb414c,0,44,68,65,88,26,Male,,,,,,1.0,choice,2.0,A,B,red,black,stars,stars,A,B,A,red,stars,769.4000000004,1.0,1.0,NA,left,2485.3000000007,10.0,1.0,1.0,,,
163,0,,html-keyboard-response,163,812622,0.0-7.3-0.3,5epmzqjn7o8,2022-09-19 15:45:37.798,62ff91a60dded72baabb414c,0,44,68,65,88,26,Male,1310.0,,"
  <table>
  <tr height=300>
    <td width=300 height=300><img src=""static/images/cards/stack_of_black_moons.svg"" width=""175px"" height=""250px""></img></td>
    <td width=300 height=300><img src=""static/images/cards/stack_of_red_moons.svg"" width=""175px"" height=""250px""></img></td>
  </tr>
  <tr height=200>
    <td width=300><img src=""static/images/keys/w.svg"" width=""35%"" height=""75%""></img></td>
    <td width=300><img src=""static/images/keys/o.svg"" width=""35%"" height=""75%""></img></td>
  </tr>
</table>
  ",87.0,1.0,,,,,,,,,,,,,,,,,,,,,,,,,,
164,0,,html-keyboard-response,164,815807,0.0-7.3-1.3,5epmzqjn7o8,2022-09-19 15:45:37.798,62ff91a60dded72baabb414c,0,44,68,65,88,26,Male,2683.7999999989,,"
  <table>
  <tr height=300>
    <td width=300 height=300><img src=""static/images/cards/back_of_black_moons.svg"" width=""175px"" height=""250px""></img></td>
    <td width=300 height=300><img src=""static/images/cards/back_of_black_moons.svg"" width=""175px"" height=""250px""></img></td>
  </tr>
  <tr height=200>
    <td width=300></td>
    <td width=300><img src=""static/images/keys/m.svg"" width=""35%"" height=""75%""></img></td>
  </tr>
</table>
  ",77.0,1.0,,,,,,,,,,,,,,,,,,,,,,,,,,
165,0,,html-keyboard-response,165,817322,0.0-7.3-2.3,5epmzqjn7o8,2022-09-19 15:45:37.798,62ff91a60dded72baabb414c,0,44,68,65,88,26,Male,,,"
  <table>
  <tr height=300>
    <td width=300 height=300><img src=""static/images/cards/back_of_black_moons.svg"" width=""175px"" height=""250px""></img></td>
    <td width=300 height=300><img src=""static/images/cards/7_of_black_moons.svg"" width=""175px"" height=""250px""></img></td>
  </tr>
  <tr height=200>
    <td width=300></td>
    <td width=300><img src=""static/images/keys/m.svg"" width=""35%"" height=""75%""></img></td>
  </tr>
</table>
  ",,,,,,,,,,,,,,,,,,,,,,,,,,,,
166,0,,html-keyboard-response,166,818824,0.0-7.3-3.3,5epmzqjn7o8,2022-09-19 15:45:37.798,62ff91a60dded72baabb414c,0,44,68,65,88,26,Male,,,"<p style=""font-size:50px"">You Lose!
No points this round.</p>",,,,,,,,,,,,,,,,,,,,,,,,,,,,
167,0,,html-keyboard-response,167,819336,0.0-7.3-4.3,5epmzqjn7o8,2022-09-19 15:45:37.798,62ff91a60dded72baabb414c,0,44,68,65,88,26,Male,,,,,,1.0,choice,3.0,C,D,black,red,moons,moons,D,C,D,black,moons,1310.0,0.0,0.0,0,right,2683.7999999989,7.0,1.0,0.0,,,
168,0,,html-keyboard-response,168,820102,0.0-7.4-0.4,5epmzqjn7o8,2022-09-19 15:45:37.798,62ff91a60dded72baabb414c,0,44,68,65,88,26,Male,765.0999999996,,"
  <table>
  <tr height=300>
    <td width=300 height=300><img src=""static/images/cards/stack_of_red_moons.svg"" width=""175px"" height=""250px""></img></td>
    <td width=300 height=300><img src=""static/images/cards/stack_of_black_stars.svg"" width=""175px"" height=""250px""></img></td>
  </tr>
  <tr height=200>
    <td width=300><img src=""static/images/keys/w.svg"" width=""35%"" height=""75%""></img></td>
    <td width=300><img src=""static/images/keys/o.svg"" width=""35%"" height=""75%""></img></td>
  </tr>
</table>
  ",87.0,1.0,,,,,,,,,,,,,,,,,,,,,,,,,,
169,0,,html-keyboard-response,169,822451,0.0-7.4-1.4,5epmzqjn7o8,2022-09-19 15:45:37.798,62ff91a60dded72baabb414c,0,44,68,65,88,26,Male,1836.8000000007,,"
  <table>
  <tr height=300>
    <td width=300 height=300><img src=""static/images/cards/back_of_red_moons.svg"" width=""175px"" height=""250px""></img></td>
    <td width=300 height=300><img src=""static/images/cards/back_of_red_moons.svg"" width=""175px"" height=""250px""></img></td>
  </tr>
  <tr height=200>
    <td width=300><img src=""static/images/keys/z.svg"" width=""35%"" height=""75%""></img></td>
    <td width=300><img src=""static/images/keys/m.svg"" width=""35%"" height=""75%""></img></td>
  </tr>
</table>
  ",77.0,2.0,,,,,,,,,,,,,,,,,,,,,,,,,,
170,0,,html-keyboard-response,170,823957,0.0-7.4-2.4,5epmzqjn7o8,2022-09-19 15:45:37.798,62ff91a60dded72baabb414c,0,44,68,65,88,26,Male,,,"
  <table>
  <tr height=300>
    <td width=300 height=300><img src=""static/images/cards/back_of_red_moons.svg"" width=""175px"" height=""250px""></img></td>
    <td width=300 height=300><img src=""static/images/cards/4_of_red_moons.svg"" width=""175px"" height=""250px""></img></td>
  </tr>
  <tr height=200>
    <td width=300><img src=""static/images/keys/z.svg"" width=""35%"" height=""75%""></img></td>
    <td width=300><img src=""static/images/keys/m.svg"" width=""35%"" height=""75%""></img></td>
  </tr>
</table>
  ",,,,,,,,,,,,,,,,,,,,,,,,,,,,
171,0,,html-keyboard-response,171,825480,0.0-7.4-3.4,5epmzqjn7o8,2022-09-19 15:45:37.798,62ff91a60dded72baabb414c,0,44,68,65,88,26,Male,,,"<p style=""font-size:50px"">You win!
+10 points this round!</p>",,,,,,,,,,,,,,,,,,,,,,,,,,,,
172,0,,html-keyboard-response,172,825996,0.0-7.4-4.4,5epmzqjn7o8,2022-09-19 15:45:37.798,62ff91a60dded72baabb414c,0,44,68,65,88,26,Male,,,,,,1.0,choice,4.0,B,C,red,black,moons,stars,C,B,C,red,moons,765.0999999996,1.0,0.0,NA,right,1836.8000000007,4.0,0.0,1.0,,,
173,0,,html-keyboard-response,173,827648,0.0-7.5-0.5,5epmzqjn7o8,2022-09-19 15:45:37.798,62ff91a60dded72baabb414c,0,44,68,65,88,26,Male,1650.5999999996,,"
  <table>
  <tr height=300>
    <td width=300 height=300><img src=""static/images/cards/stack_of_red_stars.svg"" width=""175px"" height=""250px""></img></td>
    <td width=300 height=300><img src=""static/images/cards/stack_of_red_moons.svg"" width=""175px"" height=""250px""></img></td>
  </tr>
  <tr height=200>
    <td width=300><img src=""static/images/keys/w.svg"" width=""35%"" height=""75%""></img></td>
    <td width=300><img src=""static/images/keys/o.svg"" width=""35%"" height=""75%""></img></td>
  </tr>
</table>
  ",87.0,1.0,,,,,,,,,,,,,,,,,,,,,,,,,,
174,0,,html-keyboard-response,174,828966,0.0-7.5-1.5,5epmzqjn7o8,2022-09-19 15:45:37.798,62ff91a60dded72baabb414c,0,44,68,65,88,26,Male,815.4000000004,,"
  <table>
  <tr height=300>
    <td width=300 height=300><img src=""static/images/cards/back_of_red_stars.svg"" width=""175px"" height=""250px""></img></td>
    <td width=300 height=300><img src=""static/images/cards/back_of_red_stars.svg"" width=""175px"" height=""250px""></img></td>
  </tr>
  <tr height=200>
    <td width=300><img src=""static/images/keys/z.svg"" width=""35%"" height=""75%""></img></td>
    <td width=300><img src=""static/images/keys/m.svg"" width=""35%"" height=""75%""></img></td>
  </tr>
</table>
  ",90.0,1.0,,,,,,,,,,,,,,,,,,,,,,,,,,
175,0,,html-keyboard-response,175,830468,0.0-7.5-2.5,5epmzqjn7o8,2022-09-19 15:45:37.798,62ff91a60dded72baabb414c,0,44,68,65,88,26,Male,,,"
  <table>
  <tr height=300>
    <td width=300 height=300><img src=""static/images/cards/9_of_red_stars.svg"" width=""175px"" height=""250px""></img></td>
    <td width=300 height=300><img src=""static/images/cards/back_of_red_stars.svg"" width=""175px"" height=""250px""></img></td>
  </tr>
  <tr height=200>
    <td width=300><img src=""static/images/keys/z.svg"" width=""35%"" height=""75%""></img></td>
    <td width=300><img src=""static/images/keys/m.svg"" width=""35%"" height=""75%""></img></td>
  </tr>
</table>
  ",,,,,,,,,,,,,,,,,,,,,,,,,,,,
176,0,,html-keyboard-response,176,831977,0.0-7.5-3.5,5epmzqjn7o8,2022-09-19 15:45:37.798,62ff91a60dded72baabb414c,0,44,68,65,88,26,Male,,,"<p style=""font-size:50px"">You win!
+10 points this round!</p>",,,,,,,,,,,,,,,,,,,,,,,,,,,,
177,0,,html-keyboard-response,177,832490,0.0-7.5-4.5,5epmzqjn7o8,2022-09-19 15:45:37.798,62ff91a60dded72baabb414c,0,44,68,65,88,26,Male,,,,,,1.0,choice,5.0,A,C,red,red,stars,moons,A,C,A,red,stars,1650.5999999996,1.0,1.0,NA,left,815.4000000004,9.0,1.0,1.0,,,
178,0,,html-keyboard-response,178,836073,0.0-7.6-0.6,5epmzqjn7o8,2022-09-19 15:45:37.798,62ff91a60dded72baabb414c,0,44,68,65,88,26,Male,3581.5999999996,,"
  <table>
  <tr height=300>
    <td width=300 height=300><img src=""static/images/cards/stack_of_black_moons.svg"" width=""175px"" height=""250px""></img></td>
    <td width=300 height=300><img src=""static/images/cards/stack_of_black_stars.svg"" width=""175px"" height=""250px""></img></td>
  </tr>
  <tr height=200>
    <td width=300><img src=""static/images/keys/w.svg"" width=""35%"" height=""75%""></img></td>
    <td width=300><img src=""static/images/keys/o.svg"" width=""35%"" height=""75%""></img></td>
  </tr>
</table>
  ",87.0,1.0,,,,,,,,,,,,,,,,,,,,,,,,,,
179,0,,html-keyboard-response,179,837586,0.0-7.6-1.6,5epmzqjn7o8,2022-09-19 15:45:37.798,62ff91a60dded72baabb414c,0,44,68,65,88,26,Male,1010.0999999996,,"
  <table>
  <tr height=300>
    <td width=300 height=300><img src=""static/images/cards/back_of_black_moons.svg"" width=""175px"" height=""250px""></img></td>
    <td width=300 height=300><img src=""static/images/cards/back_of_black_moons.svg"" width=""175px"" height=""250px""></img></td>
  </tr>
  <tr height=200>
    <td width=300><img src=""static/images/keys/z.svg"" width=""35%"" height=""75%""></img></td>
    <td width=300></td>
  </tr>
</table>
  ",90.0,1.0,,,,,,,,,,,,,,,,,,,,,,,,,,
180,0,,html-keyboard-response,180,839100,0.0-7.6-2.6,5epmzqjn7o8,2022-09-19 15:45:37.798,62ff91a60dded72baabb414c,0,44,68,65,88,26,Male,,,"
  <table>
  <tr height=300>
    <td width=300 height=300><img src=""static/images/cards/10_of_black_moons.svg"" width=""175px"" height=""250px""></img></td>
    <td width=300 height=300><img src=""static/images/cards/back_of_black_moons.svg"" width=""175px"" height=""250px""></img></td>
  </tr>
  <tr height=200>
    <td width=300><img src=""static/images/keys/z.svg"" width=""35%"" height=""75%""></img></td>
    <td width=300></td>
  </tr>
</table>
  ",,,,,,,,,,,,,,,,,,,,,,,,,,,,
181,0,,html-keyboard-response,181,840604,0.0-7.6-3.6,5epmzqjn7o8,2022-09-19 15:45:37.798,62ff91a60dded72baabb414c,0,44,68,65,88,26,Male,,,"<p style=""font-size:50px"">You Lose!
No points this round.</p>",,,,,,,,,,,,,,,,,,,,,,,,,,,,
182,0,,html-keyboard-response,182,841124,0.0-7.6-4.6,5epmzqjn7o8,2022-09-19 15:45:37.798,62ff91a60dded72baabb414c,0,44,68,65,88,26,Male,,,,,,1.0,choice,6.0,B,D,black,black,moons,stars,D,B,D,black,moons,3581.5999999996,0.0,0.0,1,left,1010.0999999996,10.0,1.0,0.0,,,
183,0,,html-keyboard-response,183,841951,0.0-7.7-0.7,5epmzqjn7o8,2022-09-19 15:45:37.798,62ff91a60dded72baabb414c,0,44,68,65,88,26,Male,826.0999999996,,"
  <table>
  <tr height=300>
    <td width=300 height=300><img src=""static/images/cards/stack_of_red_stars.svg"" width=""175px"" height=""250px""></img></td>
    <td width=300 height=300><img src=""static/images/cards/stack_of_black_stars.svg"" width=""175px"" height=""250px""></img></td>
  </tr>
  <tr height=200>
    <td width=300><img src=""static/images/keys/w.svg"" width=""35%"" height=""75%""></img></td>
    <td width=300><img src=""static/images/keys/o.svg"" width=""35%"" height=""75%""></img></td>
  </tr>
</table>
  ",79.0,1.0,,,,,,,,,,,,,,,,,,,,,,,,,,
184,0,,html-keyboard-response,184,843306,0.0-7.7-1.7,5epmzqjn7o8,2022-09-19 15:45:37.798,62ff91a60dded72baabb414c,0,44,68,65,88,26,Male,839.5,,"
  <table>
  <tr height=300>
    <td width=300 height=300><img src=""static/images/cards/back_of_black_stars.svg"" width=""175px"" height=""250px""></img></td>
    <td width=300 height=300><img src=""static/images/cards/back_of_black_stars.svg"" width=""175px"" height=""250px""></img></td>
  </tr>
  <tr height=200>
    <td width=300></td>
    <td width=300><img src=""static/images/keys/m.svg"" width=""35%"" height=""75%""></img></td>
  </tr>
</table>
  ",77.0,1.0,,,,,,,,,,,,,,,,,,,,,,,,,,
185,0,,html-keyboard-response,185,844808,0.0-7.7-2.7,5epmzqjn7o8,2022-09-19 15:45:37.798,62ff91a60dded72baabb414c,0,44,68,65,88,26,Male,,,"
  <table>
  <tr height=300>
    <td width=300 height=300><img src=""static/images/cards/back_of_black_stars.svg"" width=""175px"" height=""250px""></img></td>
    <td width=300 height=300><img src=""static/images/cards/1_of_black_stars.svg"" width=""175px"" height=""250px""></img></td>
  </tr>
  <tr height=200>
    <td width=300></td>
    <td width=300><img src=""static/images/keys/m.svg"" width=""35%"" height=""75%""></img></td>
  </tr>
</table>
  ",,,,,,,,,,,,,,,,,,,,,,,,,,,,
186,0,,html-keyboard-response,186,846321,0.0-7.7-3.7,5epmzqjn7o8,2022-09-19 15:45:37.798,62ff91a60dded72baabb414c,0,44,68,65,88,26,Male,,,"<p style=""font-size:50px"">You Lose!
No points this round.</p>",,,,,,,,,,,,,,,,,,,,,,,,,,,,
187,0,,html-keyboard-response,187,846830,0.0-7.7-4.7,5epmzqjn7o8,2022-09-19 15:45:37.798,62ff91a60dded72baabb414c,0,44,68,65,88,26,Male,,,,,,1.0,choice,7.0,A,B,red,black,stars,stars,A,B,B,black,stars,826.0999999996,0.0,1.0,0,right,839.5,1.0,0.0,0.0,,,
188,0,,html-keyboard-response,188,851121,0.0-7.8-0.8,5epmzqjn7o8,2022-09-19 15:45:37.798,62ff91a60dded72baabb414c,0,44,68,65,88,26,Male,4289.8000000007,,"
  <table>
  <tr height=300>
    <td width=300 height=300><img src=""static/images/cards/stack_of_black_stars.svg"" width=""175px"" height=""250px""></img></td>
    <td width=300 height=300><img src=""static/images/cards/stack_of_red_moons.svg"" width=""175px"" height=""250px""></img></td>
  </tr>
  <tr height=200>
    <td width=300><img src=""static/images/keys/w.svg"" width=""35%"" height=""75%""></img></td>
    <td width=300><img src=""static/images/keys/o.svg"" width=""35%"" height=""75%""></img></td>
  </tr>
</table>
  ",79.0,1.0,,,,,,,,,,,,,,,,,,,,,,,,,,
189,0,,html-keyboard-response,189,852520,0.0-7.8-1.8,5epmzqjn7o8,2022-09-19 15:45:37.798,62ff91a60dded72baabb414c,0,44,68,65,88,26,Male,886.3000000007,,"
  <table>
  <tr height=300>
    <td width=300 height=300><img src=""static/images/cards/back_of_red_moons.svg"" width=""175px"" height=""250px""></img></td>
    <td width=300 height=300><img src=""static/images/cards/back_of_red_moons.svg"" width=""175px"" height=""250px""></img></td>
  </tr>
  <tr height=200>
    <td width=300><img src=""static/images/keys/z.svg"" width=""35%"" height=""75%""></img></td>
    <td width=300><img src=""static/images/keys/m.svg"" width=""35%"" height=""75%""></img></td>
  </tr>
</table>
  ",90.0,1.0,,,,,,,,,,,,,,,,,,,,,,,,,,
190,0,,html-keyboard-response,190,854029,0.0-7.8-2.8,5epmzqjn7o8,2022-09-19 15:45:37.798,62ff91a60dded72baabb414c,0,44,68,65,88,26,Male,,,"
  <table>
  <tr height=300>
    <td width=300 height=300><img src=""static/images/cards/3_of_red_moons.svg"" width=""175px"" height=""250px""></img></td>
    <td width=300 height=300><img src=""static/images/cards/back_of_red_moons.svg"" width=""175px"" height=""250px""></img></td>
  </tr>
  <tr height=200>
    <td width=300><img src=""static/images/keys/z.svg"" width=""35%"" height=""75%""></img></td>
    <td width=300><img src=""static/images/keys/m.svg"" width=""35%"" height=""75%""></img></td>
  </tr>
</table>
  ",,,,,,,,,,,,,,,,,,,,,,,,,,,,
191,0,,html-keyboard-response,191,855534,0.0-7.8-3.8,5epmzqjn7o8,2022-09-19 15:45:37.798,62ff91a60dded72baabb414c,0,44,68,65,88,26,Male,,,"<p style=""font-size:50px"">You win!
+10 points this round!</p>",,,,,,,,,,,,,,,,,,,,,,,,,,,,
192,0,,html-keyboard-response,192,856040,0.0-7.8-4.8,5epmzqjn7o8,2022-09-19 15:45:37.798,62ff91a60dded72baabb414c,0,44,68,65,88,26,Male,,,,,,1.0,choice,8.0,B,C,black,red,stars,moons,B,C,C,red,moons,4289.8000000007,1.0,0.0,NA,left,886.3000000007,3.0,0.0,1.0,,,
193,0,,html-keyboard-response,193,856935,0.0-7.9-0.9,5epmzqjn7o8,2022-09-19 15:45:37.798,62ff91a60dded72baabb414c,0,44,68,65,88,26,Male,894.0,,"
  <table>
  <tr height=300>
    <td width=300 height=300><img src=""static/images/cards/stack_of_red_stars.svg"" width=""175px"" height=""250px""></img></td>
    <td width=300 height=300><img src=""static/images/cards/stack_of_red_moons.svg"" width=""175px"" height=""250px""></img></td>
  </tr>
  <tr height=200>
    <td width=300><img src=""static/images/keys/w.svg"" width=""35%"" height=""75%""></img></td>
    <td width=300><img src=""static/images/keys/o.svg"" width=""35%"" height=""75%""></img></td>
  </tr>
</table>
  ",79.0,1.0,,,,,,,,,,,,,,,,,,,,,,,,,,
194,0,,html-keyboard-response,194,858278,0.0-7.9-1.9,5epmzqjn7o8,2022-09-19 15:45:37.798,62ff91a60dded72baabb414c,0,44,68,65,88,26,Male,834.0,,"
  <table>
  <tr height=300>
    <td width=300 height=300><img src=""static/images/cards/back_of_red_moons.svg"" width=""175px"" height=""250px""></img></td>
    <td width=300 height=300><img src=""static/images/cards/back_of_red_moons.svg"" width=""175px"" height=""250px""></img></td>
  </tr>
  <tr height=200>
    <td width=300><img src=""static/images/keys/z.svg"" width=""35%"" height=""75%""></img></td>
    <td width=300><img src=""static/images/keys/m.svg"" width=""35%"" height=""75%""></img></td>
  </tr>
</table>
  ",77.0,1.0,,,,,,,,,,,,,,,,,,,,,,,,,,
195,0,,html-keyboard-response,195,859795,0.0-7.9-2.9,5epmzqjn7o8,2022-09-19 15:45:37.798,62ff91a60dded72baabb414c,0,44,68,65,88,26,Male,,,"
  <table>
  <tr height=300>
    <td width=300 height=300><img src=""static/images/cards/back_of_red_moons.svg"" width=""175px"" height=""250px""></img></td>
    <td width=300 height=300><img src=""static/images/cards/4_of_red_moons.svg"" width=""175px"" height=""250px""></img></td>
  </tr>
  <tr height=200>
    <td width=300><img src=""static/images/keys/z.svg"" width=""35%"" height=""75%""></img></td>
    <td width=300><img src=""static/images/keys/m.svg"" width=""35%"" height=""75%""></img></td>
  </tr>
</table>
  ",,,,,,,,,,,,,,,,,,,,,,,,,,,,
196,0,,html-keyboard-response,196,861300,0.0-7.9-3.9,5epmzqjn7o8,2022-09-19 15:45:37.798,62ff91a60dded72baabb414c,0,44,68,65,88,26,Male,,,"<p style=""font-size:50px"">You Lose!
No points this round.</p>",,,,,,,,,,,,,,,,,,,,,,,,,,,,
197,0,,html-keyboard-response,197,861820,0.0-7.9-4.9,5epmzqjn7o8,2022-09-19 15:45:37.798,62ff91a60dded72baabb414c,0,44,68,65,88,26,Male,,,,,,1.0,choice,9.0,A,C,red,red,stars,moons,A,C,C,red,moons,894.0,1.0,0.0,NA,right,834.0,4.0,0.0,0.0,,,
198,0,,html-keyboard-response,198,863292,0.0-7.10-0.10,5epmzqjn7o8,2022-09-19 15:45:37.798,62ff91a60dded72baabb414c,0,44,68,65,88,26,Male,1470.0999999996,,"
  <table>
  <tr height=300>
    <td width=300 height=300><img src=""static/images/cards/stack_of_red_stars.svg"" width=""175px"" height=""250px""></img></td>
    <td width=300 height=300><img src=""static/images/cards/stack_of_red_moons.svg"" width=""175px"" height=""250px""></img></td>
  </tr>
  <tr height=200>
    <td width=300><img src=""static/images/keys/w.svg"" width=""35%"" height=""75%""></img></td>
    <td width=300><img src=""static/images/keys/o.svg"" width=""35%"" height=""75%""></img></td>
  </tr>
</table>
  ",87.0,1.0,,,,,,,,,,,,,,,,,,,,,,,,,,
199,0,,html-keyboard-response,199,864925,0.0-7.10-1.10,5epmzqjn7o8,2022-09-19 15:45:37.798,62ff91a60dded72baabb414c,0,44,68,65,88,26,Male,1129.0,,"
  <table>
  <tr height=300>
    <td width=300 height=300><img src=""static/images/cards/back_of_red_stars.svg"" width=""175px"" height=""250px""></img></td>
    <td width=300 height=300><img src=""static/images/cards/back_of_red_stars.svg"" width=""175px"" height=""250px""></img></td>
  </tr>
  <tr height=200>
    <td width=300><img src=""static/images/keys/z.svg"" width=""35%"" height=""75%""></img></td>
    <td width=300><img src=""static/images/keys/m.svg"" width=""35%"" height=""75%""></img></td>
  </tr>
</table>
  ",90.0,1.0,,,,,,,,,,,,,,,,,,,,,,,,,,
200,0,,html-keyboard-response,200,866436,0.0-7.10-2.10,5epmzqjn7o8,2022-09-19 15:45:37.798,62ff91a60dded72baabb414c,0,44,68,65,88,26,Male,,,"
  <table>
  <tr height=300>
    <td width=300 height=300><img src=""static/images/cards/2_of_red_stars.svg"" width=""175px"" height=""250px""></img></td>
    <td width=300 height=300><img src=""static/images/cards/back_of_red_stars.svg"" width=""175px"" height=""250px""></img></td>
  </tr>
  <tr height=200>
    <td width=300><img src=""static/images/keys/z.svg"" width=""35%"" height=""75%""></img></td>
    <td width=300><img src=""static/images/keys/m.svg"" width=""35%"" height=""75%""></img></td>
  </tr>
</table>
  ",,,,,,,,,,,,,,,,,,,,,,,,,,,,
201,0,,html-keyboard-response,201,867958,0.0-7.10-3.10,5epmzqjn7o8,2022-09-19 15:45:37.798,62ff91a60dded72baabb414c,0,44,68,65,88,26,Male,,,"<p style=""font-size:50px"">You Lose!
No points this round.</p>",,,,,,,,,,,,,,,,,,,,,,,,,,,,
202,0,,html-keyboard-response,202,868477,0.0-7.10-4.10,5epmzqjn7o8,2022-09-19 15:45:37.798,62ff91a60dded72baabb414c,0,44,68,65,88,26,Male,,,,,,1.0,choice,10.0,A,C,red,red,stars,moons,A,C,A,red,stars,1470.0999999996,1.0,1.0,NA,left,1129.0,2.0,0.0,0.0,,,
203,0,,html-keyboard-response,203,869998,0.0-7.11-0.11,5epmzqjn7o8,2022-09-19 15:45:37.798,62ff91a60dded72baabb414c,0,44,68,65,88,26,Male,1519.5,,"
  <table>
  <tr height=300>
    <td width=300 height=300><img src=""static/images/cards/stack_of_red_stars.svg"" width=""175px"" height=""250px""></img></td>
    <td width=300 height=300><img src=""static/images/cards/stack_of_red_bolts.svg"" width=""175px"" height=""250px""></img></td>
  </tr>
  <tr height=200>
    <td width=300><img src=""static/images/keys/w.svg"" width=""35%"" height=""75%""></img></td>
    <td width=300><img src=""static/images/keys/o.svg"" width=""35%"" height=""75%""></img></td>
  </tr>
</table>
  ",79.0,1.0,,,,,,,,,,,,,,,,,,,,,,,,,,
204,0,,html-keyboard-response,204,871444,0.0-7.11-1.11,5epmzqjn7o8,2022-09-19 15:45:37.798,62ff91a60dded72baabb414c,0,44,68,65,88,26,Male,942.8000000007,,"
  <table>
  <tr height=300>
    <td width=300 height=300><img src=""static/images/cards/back_of_red_bolts.svg"" width=""175px"" height=""250px""></img></td>
    <td width=300 height=300><img src=""static/images/cards/back_of_red_bolts.svg"" width=""175px"" height=""250px""></img></td>
  </tr>
  <tr height=200>
    <td width=300><img src=""static/images/keys/z.svg"" width=""35%"" height=""75%""></img></td>
    <td width=300><img src=""static/images/keys/m.svg"" width=""35%"" height=""75%""></img></td>
  </tr>
</table>
  ",77.0,1.0,,,,,,,,,,,,,,,,,,,,,,,,,,
205,0,,html-keyboard-response,205,872955,0.0-7.11-2.11,5epmzqjn7o8,2022-09-19 15:45:37.798,62ff91a60dded72baabb414c,0,44,68,65,88,26,Male,,,"
  <table>
  <tr height=300>
    <td width=300 height=300><img src=""static/images/cards/back_of_red_bolts.svg"" width=""175px"" height=""250px""></img></td>
    <td width=300 height=300><img src=""static/images/cards/3_of_red_bolts.svg"" width=""175px"" height=""250px""></img></td>
  </tr>
  <tr height=200>
    <td width=300><img src=""static/images/keys/z.svg"" width=""35%"" height=""75%""></img></td>
    <td width=300><img src=""static/images/keys/m.svg"" width=""35%"" height=""75%""></img></td>
  </tr>
</table>
  ",,,,,,,,,,,,,,,,,,,,,,,,,,,,
206,0,,html-keyboard-response,206,874472,0.0-7.11-3.11,5epmzqjn7o8,2022-09-19 15:45:37.798,62ff91a60dded72baabb414c,0,44,68,65,88,26,Male,,,"<p style=""font-size:50px"">You win!
+10 points this round!</p>",,,,,,,,,,,,,,,,,,,,,,,,,,,,
207,0,,html-keyboard-response,207,874979,0.0-7.11-4.11,5epmzqjn7o8,2022-09-19 15:45:37.798,62ff91a60dded72baabb414c,0,44,68,65,88,26,Male,,,,,,1.0,choice,11.0,A,Xc,red,red,stars,bolts,A,Xc,Xc,red,bolts,1519.5,1.0,0.0,NA,right,942.8000000007,3.0,0.0,1.0,,,
208,0,,html-keyboard-response,208,876884,0.0-7.12-0.12,5epmzqjn7o8,2022-09-19 15:45:37.798,62ff91a60dded72baabb414c,0,44,68,65,88,26,Male,1904.0,,"
  <table>
  <tr height=300>
    <td width=300 height=300><img src=""static/images/cards/stack_of_black_moons.svg"" width=""175px"" height=""250px""></img></td>
    <td width=300 height=300><img src=""static/images/cards/stack_of_red_stars.svg"" width=""175px"" height=""250px""></img></td>
  </tr>
  <tr height=200>
    <td width=300><img src=""static/images/keys/w.svg"" width=""35%"" height=""75%""></img></td>
    <td width=300><img src=""static/images/keys/o.svg"" width=""35%"" height=""75%""></img></td>
  </tr>
</table>
  ",87.0,1.0,,,,,,,,,,,,,,,,,,,,,,,,,,
209,0,,html-keyboard-response,209,878588,0.0-7.12-1.12,5epmzqjn7o8,2022-09-19 15:45:37.798,62ff91a60dded72baabb414c,0,44,68,65,88,26,Male,1199.4000000004,,"
  <table>
  <tr height=300>
    <td width=300 height=300><img src=""static/images/cards/back_of_black_moons.svg"" width=""175px"" height=""250px""></img></td>
    <td width=300 height=300><img src=""static/images/cards/back_of_black_moons.svg"" width=""175px"" height=""250px""></img></td>
  </tr>
  <tr height=200>
    <td width=300></td>
    <td width=300><img src=""static/images/keys/m.svg"" width=""35%"" height=""75%""></img></td>
  </tr>
</table>
  ",77.0,2.0,,,,,,,,,,,,,,,,,,,,,,,,,,
210,0,,html-keyboard-response,210,880099,0.0-7.12-2.12,5epmzqjn7o8,2022-09-19 15:45:37.798,62ff91a60dded72baabb414c,0,44,68,65,88,26,Male,,,"
  <table>
  <tr height=300>
    <td width=300 height=300><img src=""static/images/cards/back_of_black_moons.svg"" width=""175px"" height=""250px""></img></td>
    <td width=300 height=300><img src=""static/images/cards/4_of_black_moons.svg"" width=""175px"" height=""250px""></img></td>
  </tr>
  <tr height=200>
    <td width=300></td>
    <td width=300><img src=""static/images/keys/m.svg"" width=""35%"" height=""75%""></img></td>
  </tr>
</table>
  ",,,,,,,,,,,,,,,,,,,,,,,,,,,,
211,0,,html-keyboard-response,211,881615,0.0-7.12-3.12,5epmzqjn7o8,2022-09-19 15:45:37.798,62ff91a60dded72baabb414c,0,44,68,65,88,26,Male,,,"<p style=""font-size:50px"">You win!
+10 points this round!</p>",,,,,,,,,,,,,,,,,,,,,,,,,,,,
212,0,,html-keyboard-response,212,882123,0.0-7.12-4.12,5epmzqjn7o8,2022-09-19 15:45:37.798,62ff91a60dded72baabb414c,0,44,68,65,88,26,Male,,,,,,1.0,choice,12.0,A,D,black,red,moons,stars,D,A,D,black,moons,1904.0,0.0,0.0,0,right,1199.4000000004,4.0,0.0,1.0,,,
213,0,,html-keyboard-response,213,885504,0.0-7.13-0.13,5epmzqjn7o8,2022-09-19 15:45:37.798,62ff91a60dded72baabb414c,0,44,68,65,88,26,Male,3380.5,,"
  <table>
  <tr height=300>
    <td width=300 height=300><img src=""static/images/cards/stack_of_black_bolts.svg"" width=""175px"" height=""250px""></img></td>
    <td width=300 height=300><img src=""static/images/cards/stack_of_red_stars.svg"" width=""175px"" height=""250px""></img></td>
  </tr>
  <tr height=200>
    <td width=300><img src=""static/images/keys/w.svg"" width=""35%"" height=""75%""></img></td>
    <td width=300><img src=""static/images/keys/o.svg"" width=""35%"" height=""75%""></img></td>
  </tr>
</table>
  ",79.0,1.0,,,,,,,,,,,,,,,,,,,,,,,,,,
214,0,,html-keyboard-response,214,886807,0.0-7.13-1.13,5epmzqjn7o8,2022-09-19 15:45:37.798,62ff91a60dded72baabb414c,0,44,68,65,88,26,Male,801.0999999996,,"
  <table>
  <tr height=300>
    <td width=300 height=300><img src=""static/images/cards/back_of_red_stars.svg"" width=""175px"" height=""250px""></img></td>
    <td width=300 height=300><img src=""static/images/cards/back_of_red_stars.svg"" width=""175px"" height=""250px""></img></td>
  </tr>
  <tr height=200>
    <td width=300><img src=""static/images/keys/z.svg"" width=""35%"" height=""75%""></img></td>
    <td width=300><img src=""static/images/keys/m.svg"" width=""35%"" height=""75%""></img></td>
  </tr>
</table>
  ",77.0,1.0,,,,,,,,,,,,,,,,,,,,,,,,,,
215,0,,html-keyboard-response,215,888324,0.0-7.13-2.13,5epmzqjn7o8,2022-09-19 15:45:37.798,62ff91a60dded72baabb414c,0,44,68,65,88,26,Male,,,"
  <table>
  <tr height=300>
    <td width=300 height=300><img src=""static/images/cards/back_of_red_stars.svg"" width=""175px"" height=""250px""></img></td>
    <td width=300 height=300><img src=""static/images/cards/10_of_red_stars.svg"" width=""175px"" height=""250px""></img></td>
  </tr>
  <tr height=200>
    <td width=300><img src=""static/images/keys/z.svg"" width=""35%"" height=""75%""></img></td>
    <td width=300><img src=""static/images/keys/m.svg"" width=""35%"" height=""75%""></img></td>
  </tr>
</table>
  ",,,,,,,,,,,,,,,,,,,,,,,,,,,,
216,0,,html-keyboard-response,216,889827,0.0-7.13-3.13,5epmzqjn7o8,2022-09-19 15:45:37.798,62ff91a60dded72baabb414c,0,44,68,65,88,26,Male,,,"<p style=""font-size:50px"">You win!
+10 points this round!</p>",,,,,,,,,,,,,,,,,,,,,,,,,,,,
217,0,,html-keyboard-response,217,890334,0.0-7.13-4.13,5epmzqjn7o8,2022-09-19 15:45:37.798,62ff91a60dded72baabb414c,0,44,68,65,88,26,Male,,,,,,1.0,choice,13.0,A,Xnc,black,red,bolts,stars,Xnc,A,A,red,stars,3380.5,1.0,1.0,NA,right,801.0999999996,10.0,1.0,1.0,,,
218,0,,html-keyboard-response,218,892645,0.0-7.14-0.14,5epmzqjn7o8,2022-09-19 15:45:37.798,62ff91a60dded72baabb414c,0,44,68,65,88,26,Male,2310.3000000007,,"
  <table>
  <tr height=300>
    <td width=300 height=300><img src=""static/images/cards/stack_of_black_moons.svg"" width=""175px"" height=""250px""></img></td>
    <td width=300 height=300><img src=""static/images/cards/stack_of_black_stars.svg"" width=""175px"" height=""250px""></img></td>
  </tr>
  <tr height=200>
    <td width=300><img src=""static/images/keys/w.svg"" width=""35%"" height=""75%""></img></td>
    <td width=300><img src=""static/images/keys/o.svg"" width=""35%"" height=""75%""></img></td>
  </tr>
</table>
  ",87.0,1.0,,,,,,,,,,,,,,,,,,,,,,,,,,
219,0,,html-keyboard-response,219,894247,0.0-7.14-1.14,5epmzqjn7o8,2022-09-19 15:45:37.798,62ff91a60dded72baabb414c,0,44,68,65,88,26,Male,1098.6000000015,,"
  <table>
  <tr height=300>
    <td width=300 height=300><img src=""static/images/cards/back_of_black_moons.svg"" width=""175px"" height=""250px""></img></td>
    <td width=300 height=300><img src=""static/images/cards/back_of_black_moons.svg"" width=""175px"" height=""250px""></img></td>
  </tr>
  <tr height=200>
    <td width=300><img src=""static/images/keys/z.svg"" width=""35%"" height=""75%""></img></td>
    <td width=300></td>
  </tr>
</table>
  ",90.0,1.0,,,,,,,,,,,,,,,,,,,,,,,,,,
220,0,,html-keyboard-response,220,895751,0.0-7.14-2.14,5epmzqjn7o8,2022-09-19 15:45:37.798,62ff91a60dded72baabb414c,0,44,68,65,88,26,Male,,,"
  <table>
  <tr height=300>
    <td width=300 height=300><img src=""static/images/cards/10_of_black_moons.svg"" width=""175px"" height=""250px""></img></td>
    <td width=300 height=300><img src=""static/images/cards/back_of_black_moons.svg"" width=""175px"" height=""250px""></img></td>
  </tr>
  <tr height=200>
    <td width=300><img src=""static/images/keys/z.svg"" width=""35%"" height=""75%""></img></td>
    <td width=300></td>
  </tr>
</table>
  ",,,,,,,,,,,,,,,,,,,,,,,,,,,,
221,0,,html-keyboard-response,221,897266,0.0-7.14-3.14,5epmzqjn7o8,2022-09-19 15:45:37.798,62ff91a60dded72baabb414c,0,44,68,65,88,26,Male,,,"<p style=""font-size:50px"">You win!
+10 points this round!</p>",,,,,,,,,,,,,,,,,,,,,,,,,,,,
222,0,,html-keyboard-response,222,897776,0.0-7.14-4.14,5epmzqjn7o8,2022-09-19 15:45:37.798,62ff91a60dded72baabb414c,0,44,68,65,88,26,Male,,,,,,1.0,choice,14.0,B,D,black,black,moons,stars,D,B,D,black,moons,2310.3000000007,0.0,0.0,1,left,1098.6000000015,10.0,1.0,1.0,,,
223,0,,html-keyboard-response,223,900537,0.0-7.15-0.15,5epmzqjn7o8,2022-09-19 15:45:37.798,62ff91a60dded72baabb414c,0,44,68,65,88,26,Male,2760.2999999989,,"
  <table>
  <tr height=300>
    <td width=300 height=300><img src=""static/images/cards/stack_of_red_moons.svg"" width=""175px"" height=""250px""></img></td>
    <td width=300 height=300><img src=""static/images/cards/stack_of_red_stars.svg"" width=""175px"" height=""250px""></img></td>
  </tr>
  <tr height=200>
    <td width=300><img src=""static/images/keys/w.svg"" width=""35%"" height=""75%""></img></td>
    <td width=300><img src=""static/images/keys/o.svg"" width=""35%"" height=""75%""></img></td>
  </tr>
</table>
  ",79.0,1.0,,,,,,,,,,,,,,,,,,,,,,,,,,
224,0,,html-keyboard-response,224,902234,0.0-7.15-1.15,5epmzqjn7o8,2022-09-19 15:45:37.798,62ff91a60dded72baabb414c,0,44,68,65,88,26,Male,1188.8000000007,,"
  <table>
  <tr height=300>
    <td width=300 height=300><img src=""static/images/cards/back_of_red_stars.svg"" width=""175px"" height=""250px""></img></td>
    <td width=300 height=300><img src=""static/images/cards/back_of_red_stars.svg"" width=""175px"" height=""250px""></img></td>
  </tr>
  <tr height=200>
    <td width=300><img src=""static/images/keys/z.svg"" width=""35%"" height=""75%""></img></td>
    <td width=300><img src=""static/images/keys/m.svg"" width=""35%"" height=""75%""></img></td>
  </tr>
</table>
  ",77.0,1.0,,,,,,,,,,,,,,,,,,,,,,,,,,
225,0,,html-keyboard-response,225,903740,0.0-7.15-2.15,5epmzqjn7o8,2022-09-19 15:45:37.798,62ff91a60dded72baabb414c,0,44,68,65,88,26,Male,,,"
  <table>
  <tr height=300>
    <td width=300 height=300><img src=""static/images/cards/back_of_red_stars.svg"" width=""175px"" height=""250px""></img></td>
    <td width=300 height=300><img src=""static/images/cards/1_of_red_stars.svg"" width=""175px"" height=""250px""></img></td>
  </tr>
  <tr height=200>
    <td width=300><img src=""static/images/keys/z.svg"" width=""35%"" height=""75%""></img></td>
    <td width=300><img src=""static/images/keys/m.svg"" width=""35%"" height=""75%""></img></td>
  </tr>
</table>
  ",,,,,,,,,,,,,,,,,,,,,,,,,,,,
226,0,,html-keyboard-response,226,905242,0.0-7.15-3.15,5epmzqjn7o8,2022-09-19 15:45:37.798,62ff91a60dded72baabb414c,0,44,68,65,88,26,Male,,,"<p style=""font-size:50px"">You Lose!
No points this round.</p>",,,,,,,,,,,,,,,,,,,,,,,,,,,,
227,0,,html-keyboard-response,227,905746,0.0-7.15-4.15,5epmzqjn7o8,2022-09-19 15:45:37.798,62ff91a60dded72baabb414c,0,44,68,65,88,26,Male,,,,,,1.0,choice,15.0,A,C,red,red,moons,stars,C,A,A,red,stars,2760.2999999989,1.0,1.0,NA,right,1188.8000000007,1.0,0.0,0.0,,,
228,0,,html-keyboard-response,228,907036,0.0-7.16-0.16,5epmzqjn7o8,2022-09-19 15:45:37.798,62ff91a60dded72baabb414c,0,44,68,65,88,26,Male,1288.0,,"
  <table>
  <tr height=300>
    <td width=300 height=300><img src=""static/images/cards/stack_of_red_stars.svg"" width=""175px"" height=""250px""></img></td>
    <td width=300 height=300><img src=""static/images/cards/stack_of_black_moons.svg"" width=""175px"" height=""250px""></img></td>
  </tr>
  <tr height=200>
    <td width=300><img src=""static/images/keys/w.svg"" width=""35%"" height=""75%""></img></td>
    <td width=300><img src=""static/images/keys/o.svg"" width=""35%"" height=""75%""></img></td>
  </tr>
</table>
  ",79.0,1.0,,,,,,,,,,,,,,,,,,,,,,,,,,
229,0,,html-keyboard-response,229,908219,0.0-7.16-1.16,5epmzqjn7o8,2022-09-19 15:45:37.798,62ff91a60dded72baabb414c,0,44,68,65,88,26,Male,671.2000000011,,"
  <table>
  <tr height=300>
    <td width=300 height=300><img src=""static/images/cards/back_of_black_moons.svg"" width=""175px"" height=""250px""></img></td>
    <td width=300 height=300><img src=""static/images/cards/back_of_black_moons.svg"" width=""175px"" height=""250px""></img></td>
  </tr>
  <tr height=200>
    <td width=300><img src=""static/images/keys/z.svg"" width=""35%"" height=""75%""></img></td>
    <td width=300></td>
  </tr>
</table>
  ",90.0,1.0,,,,,,,,,,,,,,,,,,,,,,,,,,
230,0,,html-keyboard-response,230,909724,0.0-7.16-2.16,5epmzqjn7o8,2022-09-19 15:45:37.798,62ff91a60dded72baabb414c,0,44,68,65,88,26,Male,,,"
  <table>
  <tr height=300>
    <td width=300 height=300><img src=""static/images/cards/2_of_black_moons.svg"" width=""175px"" height=""250px""></img></td>
    <td width=300 height=300><img src=""static/images/cards/back_of_black_moons.svg"" width=""175px"" height=""250px""></img></td>
  </tr>
  <tr height=200>
    <td width=300><img src=""static/images/keys/z.svg"" width=""35%"" height=""75%""></img></td>
    <td width=300></td>
  </tr>
</table>
  ",,,,,,,,,,,,,,,,,,,,,,,,,,,,
231,0,,html-keyboard-response,231,911234,0.0-7.16-3.16,5epmzqjn7o8,2022-09-19 15:45:37.798,62ff91a60dded72baabb414c,0,44,68,65,88,26,Male,,,"<p style=""font-size:50px"">You Lose!
No points this round.</p>",,,,,,,,,,,,,,,,,,,,,,,,,,,,
232,0,,html-keyboard-response,232,911750,0.0-7.16-4.16,5epmzqjn7o8,2022-09-19 15:45:37.798,62ff91a60dded72baabb414c,0,44,68,65,88,26,Male,,,,,,1.0,choice,16.0,A,D,red,black,stars,moons,A,D,D,black,moons,1288.0,0.0,0.0,1,left,671.2000000011,2.0,0.0,0.0,,,
233,0,,html-keyboard-response,233,915440,0.0-7.17-0.17,5epmzqjn7o8,2022-09-19 15:45:37.798,62ff91a60dded72baabb414c,0,44,68,65,88,26,Male,3688.4000000004,,"
  <table>
  <tr height=300>
    <td width=300 height=300><img src=""static/images/cards/stack_of_red_moons.svg"" width=""175px"" height=""250px""></img></td>
    <td width=300 height=300><img src=""static/images/cards/stack_of_black_stars.svg"" width=""175px"" height=""250px""></img></td>
  </tr>
  <tr height=200>
    <td width=300><img src=""static/images/keys/w.svg"" width=""35%"" height=""75%""></img></td>
    <td width=300><img src=""static/images/keys/o.svg"" width=""35%"" height=""75%""></img></td>
  </tr>
</table>
  ",79.0,1.0,,,,,,,,,,,,,,,,,,,,,,,,,,
234,0,,html-keyboard-response,234,916466,0.0-7.17-1.17,5epmzqjn7o8,2022-09-19 15:45:37.798,62ff91a60dded72baabb414c,0,44,68,65,88,26,Male,520.4000000004,,"
  <table>
  <tr height=300>
    <td width=300 height=300><img src=""static/images/cards/back_of_black_stars.svg"" width=""175px"" height=""250px""></img></td>
    <td width=300 height=300><img src=""static/images/cards/back_of_black_stars.svg"" width=""175px"" height=""250px""></img></td>
  </tr>
  <tr height=200>
