,index,success,trial_type,trial_index,time_elapsed,internal_node_id,subject,date,prol_id,ctbl,sense_of_control_A,sense_of_control_B,sense_of_control_C,sense_of_control_D,age,gender,rt,url,stimulus,key_press,npress,is_data_trial,phase,trial,deck1,deck2,col1,col2,sym1,sym2,deck_l,deck_r,chosen_deck,chosen_col,chosen_sym,deck_rt,choose_choice,mutual_info,hidden_key,chosen_card,card_rt,player_num,win_card,outcome,mock_rating,response,responses
0,0,1.0,fullscreen,0,3264,0.0-0.0,3x077usqcvn,2022-09-19 13:29:19.771,5c4c57609446be00017e6746,0,59,61,30,26,43,male,,,,,,,,,,,,,,,,,,,,,,,,,,,,,,,
1,0,,external-html,1,22435,0.0-1.0,3x077usqcvn,2022-09-19 13:29:19.771,5c4c57609446be00017e6746,0,59,61,30,26,43,male,19052.0,static/js/sub/consent.html,,,,,,,,,,,,,,,,,,,,,,,,,,,,,
2,0,,call-function,2,22439,0.0-2.0,3x077usqcvn,2022-09-19 13:29:19.771,5c4c57609446be00017e6746,0,59,61,30,26,43,male,,,,,,,,,,,,,,,,,,,,,,,,,,,,,,,
3,0,,image-keyboard-response,3,29627,0.0-3.0-0.0,3x077usqcvn,2022-09-19 13:29:19.771,5c4c57609446be00017e6746,0,59,61,30,26,43,male,7188.0,,static/images/instructions_CB_0/Slide1.png,39.0,,,,,,,,,,,,,,,,,,,,,,,,,,,
4,0,,image-keyboard-response,4,53426,0.0-3.1-0.1,3x077usqcvn,2022-09-19 13:29:19.771,5c4c57609446be00017e6746,0,59,61,30,26,43,male,23797.0,,static/images/instructions_CB_0/Slide2.png,39.0,,,,,,,,,,,,,,,,,,,,,,,,,,,
5,0,,image-keyboard-response,5,59529,0.0-3.2-0.2,3x077usqcvn,2022-09-19 13:29:19.771,5c4c57609446be00017e6746,0,59,61,30,26,43,male,6103.0,,static/images/instructions_CB_0/Slide3.png,39.0,,,,,,,,,,,,,,,,,,,,,,,,,,,
6,0,,image-keyboard-response,6,66971,0.0-3.3-0.3,3x077usqcvn,2022-09-19 13:29:19.771,5c4c57609446be00017e6746,0,59,61,30,26,43,male,7440.0,,static/images/instructions_CB_0/Slide4.png,39.0,,,,,,,,,,,,,,,,,,,,,,,,,,,
7,0,,image-keyboard-response,7,75171,0.0-3.4-0.4,3x077usqcvn,2022-09-19 13:29:19.771,5c4c57609446be00017e6746,0,59,61,30,26,43,male,8198.0,,static/images/instructions_CB_0/Slide5.png,39.0,,,,,,,,,,,,,,,,,,,,,,,,,,,
8,0,,image-keyboard-response,8,77715,0.0-3.5-0.5,3x077usqcvn,2022-09-19 13:29:19.771,5c4c57609446be00017e6746,0,59,61,30,26,43,male,2542.0,,static/images/instructions_CB_0/Slide6.png,39.0,,,,,,,,,,,,,,,,,,,,,,,,,,,
9,0,,image-keyboard-response,9,81689,0.0-3.6-0.6,3x077usqcvn,2022-09-19 13:29:19.771,5c4c57609446be00017e6746,0,59,61,30,26,43,male,3973.0,,static/images/instructions_CB_0/Slide7.png,39.0,,,,,,,,,,,,,,,,,,,,,,,,,,,
10,0,,image-keyboard-response,10,109076,0.0-3.7-0.7,3x077usqcvn,2022-09-19 13:29:19.771,5c4c57609446be00017e6746,0,59,61,30,26,43,male,27386.0,,static/images/instructions_CB_0/Slide8.png,39.0,,,,,,,,,,,,,,,,,,,,,,,,,,,
11,0,,image-keyboard-response,11,115535,0.0-3.8-0.8,3x077usqcvn,2022-09-19 13:29:19.771,5c4c57609446be00017e6746,0,59,61,30,26,43,male,6457.0,,static/images/instructions_CB_0/Slide9.png,39.0,,,,,,,,,,,,,,,,,,,,,,,,,,,
12,0,,image-keyboard-response,12,127609,0.0-3.9-0.9,3x077usqcvn,2022-09-19 13:29:19.771,5c4c57609446be00017e6746,0,59,61,30,26,43,male,12074.0,,static/images/instructions_CB_0/Slide10.png,39.0,,,,,,,,,,,,,,,,,,,,,,,,,,,
13,0,,image-keyboard-response,13,174602,0.0-3.10-0.10,3x077usqcvn,2022-09-19 13:29:19.771,5c4c57609446be00017e6746,0,59,61,30,26,43,male,46991.0,,static/images/instructions_CB_0/Slide11.png,39.0,,,,,,,,,,,,,,,,,,,,,,,,,,,
14,0,,image-keyboard-response,14,182520,0.0-3.11-0.11,3x077usqcvn,2022-09-19 13:29:19.771,5c4c57609446be00017e6746,0,59,61,30,26,43,male,7918.0,,static/images/instructions_CB_0/Slide12.png,39.0,,,,,,,,,,,,,,,,,,,,,,,,,,,
15,0,,image-keyboard-response,15,275508,0.0-3.12-0.12,3x077usqcvn,2022-09-19 13:29:19.771,5c4c57609446be00017e6746,0,59,61,30,26,43,male,92987.0,,static/images/instructions_CB_0/Slide13.png,39.0,,,,,,,,,,,,,,,,,,,,,,,,,,,
16,0,,image-keyboard-response,16,309340,0.0-3.13-0.13,3x077usqcvn,2022-09-19 13:29:19.771,5c4c57609446be00017e6746,0,59,61,30,26,43,male,33831.0,,static/images/instructions_CB_0/Slide14.png,39.0,,,,,,,,,,,,,,,,,,,,,,,,,,,
17,0,,image-keyboard-response,17,349192,0.0-3.14-0.14,3x077usqcvn,2022-09-19 13:29:19.771,5c4c57609446be00017e6746,0,59,61,30,26,43,male,39852.0,,static/images/instructions_CB_0/Slide15.png,39.0,,,,,,,,,,,,,,,,,,,,,,,,,,,
18,0,,image-keyboard-response,18,363075,0.0-3.15-0.15,3x077usqcvn,2022-09-19 13:29:19.771,5c4c57609446be00017e6746,0,59,61,30,26,43,male,13883.0,,static/images/instructions_CB_0/Slide16.png,39.0,,,,,,,,,,,,,,,,,,,,,,,,,,,
19,0,,image-keyboard-response,19,373860,0.0-3.16-0.16,3x077usqcvn,2022-09-19 13:29:19.771,5c4c57609446be00017e6746,0,59,61,30,26,43,male,10783.0,,static/images/instructions_CB_0/Slide17.png,39.0,,,,,,,,,,,,,,,,,,,,,,,,,,,
20,0,,image-keyboard-response,20,392195,0.0-3.17-0.17,3x077usqcvn,2022-09-19 13:29:19.771,5c4c57609446be00017e6746,0,59,61,30,26,43,male,18334.0,,static/images/instructions_CB_0/Slide18.png,39.0,,,,,,,,,,,,,,,,,,,,,,,,,,,
21,0,,image-keyboard-response,21,400250,0.0-3.18-0.18,3x077usqcvn,2022-09-19 13:29:19.771,5c4c57609446be00017e6746,0,59,61,30,26,43,male,8055.0,,static/images/instructions_CB_0/Slide19.png,39.0,,,,,,,,,,,,,,,,,,,,,,,,,,,
22,0,,html-keyboard-response,22,401757,0.0-4.0-0.0,3x077usqcvn,2022-09-19 13:29:19.771,5c4c57609446be00017e6746,0,59,61,30,26,43,male,,,"<img src=""static/images/cards/stack_of_red_stars.svg"" width=""175px"" height=""250px""></img>",,,,,,,,,,,,,,,,,,,,,,,,,,,,
23,0,,html-keyboard-response,23,404263,0.0-4.0-1.0,3x077usqcvn,2022-09-19 13:29:19.771,5c4c57609446be00017e6746,0,59,61,30,26,43,male,1999.0,,"
  <table>
  <tr height=300>
    <td width=300 height=300><img src=""static/images/cards/back_of_red_stars.svg"" width=""175px"" height=""250px""></img></td>
    <td width=300 height=300><img src=""static/images/cards/back_of_red_stars.svg"" width=""175px"" height=""250px""></img></td>
  </tr>
  <tr height=200>
    <td width=300><img src=""static/images/keys/z.svg"" width=""35%"" height=""75%""></img></td>
    <td width=300><img src=""static/images/keys/m.svg"" width=""35%"" height=""75%""></img></td>
  </tr>
</table>
  ",90.0,1.0,,,,,,,,,,,,,,,,,,,,,,,,,,
24,0,,html-keyboard-response,24,405769,0.0-4.0-2.0,3x077usqcvn,2022-09-19 13:29:19.771,5c4c57609446be00017e6746,0,59,61,30,26,43,male,,,"
  <table>
  <tr height=300>
    <td width=300 height=300><img src=""static/images/cards/7_of_red_stars.svg"" width=""175px"" height=""250px""></img></td>
    <td width=300 height=300><img src=""static/images/cards/back_of_red_stars.svg"" width=""175px"" height=""250px""></img></td>
  </tr>
  <tr height=200>
    <td width=300><img src=""static/images/keys/z.svg"" width=""35%"" height=""75%""></img></td>
    <td width=300><img src=""static/images/keys/m.svg"" width=""35%"" height=""75%""></img></td>
  </tr>
</table>
  ",,,,,,,,,,,,,,,,,,,,,,,,,,,,
25,0,,html-keyboard-response,25,407295,0.0-4.0-3.0,3x077usqcvn,2022-09-19 13:29:19.771,5c4c57609446be00017e6746,0,59,61,30,26,43,male,,,"<p style=""font-size:50px"">You win!
+10 points this round!</p>",,,,,,,,,,,,,,,,,,,,,,,,,,,,
26,0,,html-keyboard-response,26,407817,0.0-4.0-4.0,3x077usqcvn,2022-09-19 13:29:19.771,5c4c57609446be00017e6746,0,59,61,30,26,43,male,,,,,,1.0,learning,0.0,A,,red,,stars,,,,A,red,stars,,1.0,1.0,NA,left,1999.0,7.0,1.0,1.0,,,
27,0,,html-keyboard-response,27,409327,0.0-4.1-0.1,3x077usqcvn,2022-09-19 13:29:19.771,5c4c57609446be00017e6746,0,59,61,30,26,43,male,,,"<img src=""static/images/cards/stack_of_black_stars.svg"" width=""175px"" height=""250px""></img>",,,,,,,,,,,,,,,,,,,,,,,,,,,,
28,0,,html-keyboard-response,28,411121,0.0-4.1-1.1,3x077usqcvn,2022-09-19 13:29:19.771,5c4c57609446be00017e6746,0,59,61,30,26,43,male,1289.0,,"
  <table>
  <tr height=300>
    <td width=300 height=300><img src=""static/images/cards/back_of_black_stars.svg"" width=""175px"" height=""250px""></img></td>
    <td width=300 height=300><img src=""static/images/cards/back_of_black_stars.svg"" width=""175px"" height=""250px""></img></td>
  </tr>
  <tr height=200>
    <td width=300><img src=""static/images/keys/z.svg"" width=""35%"" height=""75%""></img></td>
    <td width=300></td>
  </tr>
</table>
  ",90.0,1.0,,,,,,,,,,,,,,,,,,,,,,,,,,
29,0,,html-keyboard-response,29,412630,0.0-4.1-2.1,3x077usqcvn,2022-09-19 13:29:19.771,5c4c57609446be00017e6746,0,59,61,30,26,43,male,,,"
  <table>
  <tr height=300>
    <td width=300 height=300><img src=""static/images/cards/4_of_black_stars.svg"" width=""175px"" height=""250px""></img></td>
    <td width=300 height=300><img src=""static/images/cards/back_of_black_stars.svg"" width=""175px"" height=""250px""></img></td>
  </tr>
  <tr height=200>
    <td width=300><img src=""static/images/keys/z.svg"" width=""35%"" height=""75%""></img></td>
    <td width=300></td>
  </tr>
</table>
  ",,,,,,,,,,,,,,,,,,,,,,,,,,,,
30,0,,html-keyboard-response,30,414141,0.0-4.1-3.1,3x077usqcvn,2022-09-19 13:29:19.771,5c4c57609446be00017e6746,0,59,61,30,26,43,male,,,"<p style=""font-size:50px"">You Lose!
No points this round.</p>",,,,,,,,,,,,,,,,,,,,,,,,,,,,
31,0,,html-keyboard-response,31,414664,0.0-4.1-4.1,3x077usqcvn,2022-09-19 13:29:19.771,5c4c57609446be00017e6746,0,59,61,30,26,43,male,,,,,,1.0,learning,1.0,B,,black,,stars,,,,B,black,stars,,0.0,1.0,1,left,1289.0,4.0,0.0,0.0,,,
32,0,,html-keyboard-response,32,416174,0.0-4.2-0.2,3x077usqcvn,2022-09-19 13:29:19.771,5c4c57609446be00017e6746,0,59,61,30,26,43,male,,,"<img src=""static/images/cards/stack_of_red_moons.svg"" width=""175px"" height=""250px""></img>",,,,,,,,,,,,,,,,,,,,,,,,,,,,
33,0,,html-keyboard-response,33,418784,0.0-4.2-1.2,3x077usqcvn,2022-09-19 13:29:19.771,5c4c57609446be00017e6746,0,59,61,30,26,43,male,2107.0,,"
  <table>
  <tr height=300>
    <td width=300 height=300><img src=""static/images/cards/back_of_red_moons.svg"" width=""175px"" height=""250px""></img></td>
    <td width=300 height=300><img src=""static/images/cards/back_of_red_moons.svg"" width=""175px"" height=""250px""></img></td>
  </tr>
  <tr height=200>
    <td width=300><img src=""static/images/keys/z.svg"" width=""35%"" height=""75%""></img></td>
    <td width=300><img src=""static/images/keys/m.svg"" width=""35%"" height=""75%""></img></td>
  </tr>
</table>
  ",90.0,1.0,,,,,,,,,,,,,,,,,,,,,,,,,,
34,0,,html-keyboard-response,34,420301,0.0-4.2-2.2,3x077usqcvn,2022-09-19 13:29:19.771,5c4c57609446be00017e6746,0,59,61,30,26,43,male,,,"
  <table>
  <tr height=300>
    <td width=300 height=300><img src=""static/images/cards/2_of_red_moons.svg"" width=""175px"" height=""250px""></img></td>
    <td width=300 height=300><img src=""static/images/cards/back_of_red_moons.svg"" width=""175px"" height=""250px""></img></td>
  </tr>
  <tr height=200>
    <td width=300><img src=""static/images/keys/z.svg"" width=""35%"" height=""75%""></img></td>
    <td width=300><img src=""static/images/keys/m.svg"" width=""35%"" height=""75%""></img></td>
  </tr>
</table>
  ",,,,,,,,,,,,,,,,,,,,,,,,,,,,
35,0,,html-keyboard-response,35,421812,0.0-4.2-3.2,3x077usqcvn,2022-09-19 13:29:19.771,5c4c57609446be00017e6746,0,59,61,30,26,43,male,,,"<p style=""font-size:50px"">You Lose!
No points this round.</p>",,,,,,,,,,,,,,,,,,,,,,,,,,,,
36,0,,html-keyboard-response,36,422335,0.0-4.2-4.2,3x077usqcvn,2022-09-19 13:29:19.771,5c4c57609446be00017e6746,0,59,61,30,26,43,male,,,,,,1.0,learning,2.0,C,,red,,moons,,,,C,red,moons,,1.0,0.0,NA,left,2107.0,2.0,0.0,0.0,,,
37,0,,html-keyboard-response,37,423855,0.0-4.3-0.3,3x077usqcvn,2022-09-19 13:29:19.771,5c4c57609446be00017e6746,0,59,61,30,26,43,male,,,"<img src=""static/images/cards/stack_of_black_moons.svg"" width=""175px"" height=""250px""></img>",,,,,,,,,,,,,,,,,,,,,,,,,,,,
38,0,,html-keyboard-response,38,425625,0.0-4.3-1.3,3x077usqcvn,2022-09-19 13:29:19.771,5c4c57609446be00017e6746,0,59,61,30,26,43,male,1266.0,,"
  <table>
  <tr height=300>
    <td width=300 height=300><img src=""static/images/cards/back_of_black_moons.svg"" width=""175px"" height=""250px""></img></td>
    <td width=300 height=300><img src=""static/images/cards/back_of_black_moons.svg"" width=""175px"" height=""250px""></img></td>
  </tr>
  <tr height=200>
    <td width=300></td>
    <td width=300><img src=""static/images/keys/m.svg"" width=""35%"" height=""75%""></img></td>
  </tr>
</table>
  ",77.0,1.0,,,,,,,,,,,,,,,,,,,,,,,,,,
39,0,,html-keyboard-response,39,427135,0.0-4.3-2.3,3x077usqcvn,2022-09-19 13:29:19.771,5c4c57609446be00017e6746,0,59,61,30,26,43,male,,,"
  <table>
  <tr height=300>
    <td width=300 height=300><img src=""static/images/cards/back_of_black_moons.svg"" width=""175px"" height=""250px""></img></td>
    <td width=300 height=300><img src=""static/images/cards/7_of_black_moons.svg"" width=""175px"" height=""250px""></img></td>
  </tr>
  <tr height=200>
    <td width=300></td>
    <td width=300><img src=""static/images/keys/m.svg"" width=""35%"" height=""75%""></img></td>
  </tr>
</table>
  ",,,,,,,,,,,,,,,,,,,,,,,,,,,,
40,0,,html-keyboard-response,40,428645,0.0-4.3-3.3,3x077usqcvn,2022-09-19 13:29:19.771,5c4c57609446be00017e6746,0,59,61,30,26,43,male,,,"<p style=""font-size:50px"">You Lose!
No points this round.</p>",,,,,,,,,,,,,,,,,,,,,,,,,,,,
41,0,,html-keyboard-response,41,429168,0.0-4.3-4.3,3x077usqcvn,2022-09-19 13:29:19.771,5c4c57609446be00017e6746,0,59,61,30,26,43,male,,,,,,1.0,learning,3.0,D,,black,,moons,,,,D,black,moons,,0.0,0.0,0,right,1266.0,7.0,1.0,0.0,,,
42,0,,html-keyboard-response,42,430688,0.0-4.4-0.4,3x077usqcvn,2022-09-19 13:29:19.771,5c4c57609446be00017e6746,0,59,61,30,26,43,male,,,"<img src=""static/images/cards/stack_of_red_bolts.svg"" width=""175px"" height=""250px""></img>",,,,,,,,,,,,,,,,,,,,,,,,,,,,
43,0,,html-keyboard-response,43,432052,0.0-4.4-1.4,3x077usqcvn,2022-09-19 13:29:19.771,5c4c57609446be00017e6746,0,59,61,30,26,43,male,861.0,,"
  <table>
  <tr height=300>
    <td width=300 height=300><img src=""static/images/cards/back_of_red_bolts.svg"" width=""175px"" height=""250px""></img></td>
    <td width=300 height=300><img src=""static/images/cards/back_of_red_bolts.svg"" width=""175px"" height=""250px""></img></td>
  </tr>
  <tr height=200>
    <td width=300><img src=""static/images/keys/z.svg"" width=""35%"" height=""75%""></img></td>
    <td width=300><img src=""static/images/keys/m.svg"" width=""35%"" height=""75%""></img></td>
  </tr>
</table>
  ",90.0,1.0,,,,,,,,,,,,,,,,,,,,,,,,,,
44,0,,html-keyboard-response,44,433568,0.0-4.4-2.4,3x077usqcvn,2022-09-19 13:29:19.771,5c4c57609446be00017e6746,0,59,61,30,26,43,male,,,"
  <table>
  <tr height=300>
    <td width=300 height=300><img src=""static/images/cards/1_of_red_bolts.svg"" width=""175px"" height=""250px""></img></td>
    <td width=300 height=300><img src=""static/images/cards/back_of_red_bolts.svg"" width=""175px"" height=""250px""></img></td>
  </tr>
  <tr height=200>
    <td width=300><img src=""static/images/keys/z.svg"" width=""35%"" height=""75%""></img></td>
    <td width=300><img src=""static/images/keys/m.svg"" width=""35%"" height=""75%""></img></td>
  </tr>
</table>
  ",,,,,,,,,,,,,,,,,,,,,,,,,,,,
45,0,,html-keyboard-response,45,435078,0.0-4.4-3.4,3x077usqcvn,2022-09-19 13:29:19.771,5c4c57609446be00017e6746,0,59,61,30,26,43,male,,,"<p style=""font-size:50px"">You win!
+10 points this round!</p>",,,,,,,,,,,,,,,,,,,,,,,,,,,,
46,0,,html-keyboard-response,46,435600,0.0-4.4-4.4,3x077usqcvn,2022-09-19 13:29:19.771,5c4c57609446be00017e6746,0,59,61,30,26,43,male,,,,,,1.0,learning,4.0,Xc,,red,,bolts,,,,Xc,red,bolts,,1.0,0.0,NA,left,861.0,1.0,0.0,1.0,,,
47,0,,html-keyboard-response,47,437111,0.0-4.5-0.5,3x077usqcvn,2022-09-19 13:29:19.771,5c4c57609446be00017e6746,0,59,61,30,26,43,male,,,"<img src=""static/images/cards/stack_of_black_bolts.svg"" width=""175px"" height=""250px""></img>",,,,,,,,,,,,,,,,,,,,,,,,,,,,
48,0,,html-keyboard-response,48,438673,0.0-4.5-1.5,3x077usqcvn,2022-09-19 13:29:19.771,5c4c57609446be00017e6746,0,59,61,30,26,43,male,1042.0,,"
  <table>
  <tr height=300>
    <td width=300 height=300><img src=""static/images/cards/back_of_black_bolts.svg"" width=""175px"" height=""250px""></img></td>
    <td width=300 height=300><img src=""static/images/cards/back_of_black_bolts.svg"" width=""175px"" height=""250px""></img></td>
  </tr>
  <tr height=200>
    <td width=300></td>
    <td width=300><img src=""static/images/keys/m.svg"" width=""35%"" height=""75%""></img></td>
  </tr>
</table>
  ",77.0,1.0,,,,,,,,,,,,,,,,,,,,,,,,,,
49,0,,html-keyboard-response,49,440186,0.0-4.5-2.5,3x077usqcvn,2022-09-19 13:29:19.771,5c4c57609446be00017e6746,0,59,61,30,26,43,male,,,"
  <table>
  <tr height=300>
    <td width=300 height=300><img src=""static/images/cards/back_of_black_bolts.svg"" width=""175px"" height=""250px""></img></td>
    <td width=300 height=300><img src=""static/images/cards/1_of_black_bolts.svg"" width=""175px"" height=""250px""></img></td>
  </tr>
  <tr height=200>
    <td width=300></td>
    <td width=300><img src=""static/images/keys/m.svg"" width=""35%"" height=""75%""></img></td>
  </tr>
</table>
  ",,,,,,,,,,,,,,,,,,,,,,,,,,,,
50,0,,html-keyboard-response,50,441696,0.0-4.5-3.5,3x077usqcvn,2022-09-19 13:29:19.771,5c4c57609446be00017e6746,0,59,61,30,26,43,male,,,"<p style=""font-size:50px"">You win!
+10 points this round!</p>",,,,,,,,,,,,,,,,,,,,,,,,,,,,
51,0,,html-keyboard-response,51,442220,0.0-4.5-4.5,3x077usqcvn,2022-09-19 13:29:19.771,5c4c57609446be00017e6746,0,59,61,30,26,43,male,,,,,,1.0,learning,5.0,Xnc,,black,,bolts,,,,Xnc,black,bolts,,0.0,0.0,0,right,1042.0,1.0,0.0,1.0,,,
52,0,,html-keyboard-response,52,443739,0.0-4.6-0.6,3x077usqcvn,2022-09-19 13:29:19.771,5c4c57609446be00017e6746,0,59,61,30,26,43,male,,,"<img src=""static/images/cards/stack_of_red_stars.svg"" width=""175px"" height=""250px""></img>",,,,,,,,,,,,,,,,,,,,,,,,,,,,
53,0,,html-keyboard-response,53,446289,0.0-4.6-1.6,3x077usqcvn,2022-09-19 13:29:19.771,5c4c57609446be00017e6746,0,59,61,30,26,43,male,2046.0,,"
  <table>
  <tr height=300>
    <td width=300 height=300><img src=""static/images/cards/back_of_red_stars.svg"" width=""175px"" height=""250px""></img></td>
    <td width=300 height=300><img src=""static/images/cards/back_of_red_stars.svg"" width=""175px"" height=""250px""></img></td>
  </tr>
  <tr height=200>
    <td width=300><img src=""static/images/keys/z.svg"" width=""35%"" height=""75%""></img></td>
    <td width=300><img src=""static/images/keys/m.svg"" width=""35%"" height=""75%""></img></td>
  </tr>
</table>
  ",90.0,1.0,,,,,,,,,,,,,,,,,,,,,,,,,,
54,0,,html-keyboard-response,54,447805,0.0-4.6-2.6,3x077usqcvn,2022-09-19 13:29:19.771,5c4c57609446be00017e6746,0,59,61,30,26,43,male,,,"
  <table>
  <tr height=300>
    <td width=300 height=300><img src=""static/images/cards/4_of_red_stars.svg"" width=""175px"" height=""250px""></img></td>
    <td width=300 height=300><img src=""static/images/cards/back_of_red_stars.svg"" width=""175px"" height=""250px""></img></td>
  </tr>
  <tr height=200>
    <td width=300><img src=""static/images/keys/z.svg"" width=""35%"" height=""75%""></img></td>
    <td width=300><img src=""static/images/keys/m.svg"" width=""35%"" height=""75%""></img></td>
  </tr>
</table>
  ",,,,,,,,,,,,,,,,,,,,,,,,,,,,
55,0,,html-keyboard-response,55,449314,0.0-4.6-3.6,3x077usqcvn,2022-09-19 13:29:19.771,5c4c57609446be00017e6746,0,59,61,30,26,43,male,,,"<p style=""font-size:50px"">You Lose!
No points this round.</p>",,,,,,,,,,,,,,,,,,,,,,,,,,,,
56,0,,html-keyboard-response,56,449837,0.0-4.6-4.6,3x077usqcvn,2022-09-19 13:29:19.771,5c4c57609446be00017e6746,0,59,61,30,26,43,male,,,,,,1.0,learning,6.0,A,,red,,stars,,,,A,red,stars,,1.0,1.0,NA,left,2046.0,4.0,0.0,0.0,,,
57,0,,html-keyboard-response,57,451343,0.0-4.7-0.7,3x077usqcvn,2022-09-19 13:29:19.771,5c4c57609446be00017e6746,0,59,61,30,26,43,male,,,"<img src=""static/images/cards/stack_of_black_stars.svg"" width=""175px"" height=""250px""></img>",,,,,,,,,,,,,,,,,,,,,,,,,,,,
58,0,,html-keyboard-response,58,453032,0.0-4.7-1.7,3x077usqcvn,2022-09-19 13:29:19.771,5c4c57609446be00017e6746,0,59,61,30,26,43,male,1186.0,,"
  <table>
  <tr height=300>
    <td width=300 height=300><img src=""static/images/cards/back_of_black_stars.svg"" width=""175px"" height=""250px""></img></td>
    <td width=300 height=300><img src=""static/images/cards/back_of_black_stars.svg"" width=""175px"" height=""250px""></img></td>
  </tr>
  <tr height=200>
    <td width=300></td>
    <td width=300><img src=""static/images/keys/m.svg"" width=""35%"" height=""75%""></img></td>
  </tr>
</table>
  ",77.0,1.0,,,,,,,,,,,,,,,,,,,,,,,,,,
59,0,,html-keyboard-response,59,454540,0.0-4.7-2.7,3x077usqcvn,2022-09-19 13:29:19.771,5c4c57609446be00017e6746,0,59,61,30,26,43,male,,,"
  <table>
  <tr height=300>
    <td width=300 height=300><img src=""static/images/cards/back_of_black_stars.svg"" width=""175px"" height=""250px""></img></td>
    <td width=300 height=300><img src=""static/images/cards/4_of_black_stars.svg"" width=""175px"" height=""250px""></img></td>
  </tr>
  <tr height=200>
    <td width=300></td>
    <td width=300><img src=""static/images/keys/m.svg"" width=""35%"" height=""75%""></img></td>
  </tr>
</table>
  ",,,,,,,,,,,,,,,,,,,,,,,,,,,,
60,0,,html-keyboard-response,60,456050,0.0-4.7-3.7,3x077usqcvn,2022-09-19 13:29:19.771,5c4c57609446be00017e6746,0,59,61,30,26,43,male,,,"<p style=""font-size:50px"">You Lose!
No points this round.</p>",,,,,,,,,,,,,,,,,,,,,,,,,,,,
61,0,,html-keyboard-response,61,456573,0.0-4.7-4.7,3x077usqcvn,2022-09-19 13:29:19.771,5c4c57609446be00017e6746,0,59,61,30,26,43,male,,,,,,1.0,learning,7.0,B,,black,,stars,,,,B,black,stars,,0.0,1.0,0,right,1186.0,4.0,0.0,0.0,,,
62,0,,html-keyboard-response,62,458083,0.0-4.8-0.8,3x077usqcvn,2022-09-19 13:29:19.771,5c4c57609446be00017e6746,0,59,61,30,26,43,male,,,"<img src=""static/images/cards/stack_of_red_moons.svg"" width=""175px"" height=""250px""></img>",,,,,,,,,,,,,,,,,,,,,,,,,,,,
63,0,,html-keyboard-response,63,459998,0.0-4.8-1.8,3x077usqcvn,2022-09-19 13:29:19.771,5c4c57609446be00017e6746,0,59,61,30,26,43,male,1400.0,,"
  <table>
  <tr height=300>
    <td width=300 height=300><img src=""static/images/cards/back_of_red_moons.svg"" width=""175px"" height=""250px""></img></td>
    <td width=300 height=300><img src=""static/images/cards/back_of_red_moons.svg"" width=""175px"" height=""250px""></img></td>
  </tr>
  <tr height=200>
    <td width=300><img src=""static/images/keys/z.svg"" width=""35%"" height=""75%""></img></td>
    <td width=300><img src=""static/images/keys/m.svg"" width=""35%"" height=""75%""></img></td>
  </tr>
</table>
  ",77.0,1.0,,,,,,,,,,,,,,,,,,,,,,,,,,
64,0,,html-keyboard-response,64,461514,0.0-4.8-2.8,3x077usqcvn,2022-09-19 13:29:19.771,5c4c57609446be00017e6746,0,59,61,30,26,43,male,,,"
  <table>
  <tr height=300>
    <td width=300 height=300><img src=""static/images/cards/back_of_red_moons.svg"" width=""175px"" height=""250px""></img></td>
    <td width=300 height=300><img src=""static/images/cards/1_of_red_moons.svg"" width=""175px"" height=""250px""></img></td>
  </tr>
  <tr height=200>
    <td width=300><img src=""static/images/keys/z.svg"" width=""35%"" height=""75%""></img></td>
    <td width=300><img src=""static/images/keys/m.svg"" width=""35%"" height=""75%""></img></td>
  </tr>
</table>
  ",,,,,,,,,,,,,,,,,,,,,,,,,,,,
65,0,,html-keyboard-response,65,463023,0.0-4.8-3.8,3x077usqcvn,2022-09-19 13:29:19.771,5c4c57609446be00017e6746,0,59,61,30,26,43,male,,,"<p style=""font-size:50px"">You win!
+10 points this round!</p>",,,,,,,,,,,,,,,,,,,,,,,,,,,,
66,0,,html-keyboard-response,66,463546,0.0-4.8-4.8,3x077usqcvn,2022-09-19 13:29:19.771,5c4c57609446be00017e6746,0,59,61,30,26,43,male,,,,,,1.0,learning,8.0,C,,red,,moons,,,,C,red,moons,,1.0,0.0,NA,right,1400.0,1.0,0.0,1.0,,,
67,0,,html-keyboard-response,67,465066,0.0-4.9-0.9,3x077usqcvn,2022-09-19 13:29:19.771,5c4c57609446be00017e6746,0,59,61,30,26,43,male,,,"<img src=""static/images/cards/stack_of_black_moons.svg"" width=""175px"" height=""250px""></img>",,,,,,,,,,,,,,,,,,,,,,,,,,,,
68,0,,html-keyboard-response,68,466949,0.0-4.9-1.9,3x077usqcvn,2022-09-19 13:29:19.771,5c4c57609446be00017e6746,0,59,61,30,26,43,male,1371.0,,"
  <table>
  <tr height=300>
    <td width=300 height=300><img src=""static/images/cards/back_of_black_moons.svg"" width=""175px"" height=""250px""></img></td>
    <td width=300 height=300><img src=""static/images/cards/back_of_black_moons.svg"" width=""175px"" height=""250px""></img></td>
  </tr>
  <tr height=200>
    <td width=300><img src=""static/images/keys/z.svg"" width=""35%"" height=""75%""></img></td>
    <td width=300></td>
  </tr>
</table>
  ",90.0,1.0,,,,,,,,,,,,,,,,,,,,,,,,,,
69,0,,html-keyboard-response,69,468467,0.0-4.9-2.9,3x077usqcvn,2022-09-19 13:29:19.771,5c4c57609446be00017e6746,0,59,61,30,26,43,male,,,"
  <table>
  <tr height=300>
    <td width=300 height=300><img src=""static/images/cards/4_of_black_moons.svg"" width=""175px"" height=""250px""></img></td>
    <td width=300 height=300><img src=""static/images/cards/back_of_black_moons.svg"" width=""175px"" height=""250px""></img></td>
  </tr>
  <tr height=200>
    <td width=300><img src=""static/images/keys/z.svg"" width=""35%"" height=""75%""></img></td>
    <td width=300></td>
  </tr>
</table>
  ",,,,,,,,,,,,,,,,,,,,,,,,,,,,
70,0,,html-keyboard-response,70,469978,0.0-4.9-3.9,3x077usqcvn,2022-09-19 13:29:19.771,5c4c57609446be00017e6746,0,59,61,30,26,43,male,,,"<p style=""font-size:50px"">You Lose!
No points this round.</p>",,,,,,,,,,,,,,,,,,,,,,,,,,,,
71,0,,html-keyboard-response,71,470501,0.0-4.9-4.9,3x077usqcvn,2022-09-19 13:29:19.771,5c4c57609446be00017e6746,0,59,61,30,26,43,male,,,,,,1.0,learning,9.0,D,,black,,moons,,,,D,black,moons,,0.0,0.0,1,left,1371.0,4.0,0.0,0.0,,,
72,0,,html-keyboard-response,72,472020,0.0-4.10-0.10,3x077usqcvn,2022-09-19 13:29:19.771,5c4c57609446be00017e6746,0,59,61,30,26,43,male,,,"<img src=""static/images/cards/stack_of_red_bolts.svg"" width=""175px"" height=""250px""></img>",,,,,,,,,,,,,,,,,,,,,,,,,,,,
73,0,,html-keyboard-response,73,473419,0.0-4.10-1.10,3x077usqcvn,2022-09-19 13:29:19.771,5c4c57609446be00017e6746,0,59,61,30,26,43,male,894.0,,"
  <table>
  <tr height=300>
    <td width=300 height=300><img src=""static/images/cards/back_of_red_bolts.svg"" width=""175px"" height=""250px""></img></td>
    <td width=300 height=300><img src=""static/images/cards/back_of_red_bolts.svg"" width=""175px"" height=""250px""></img></td>
  </tr>
  <tr height=200>
    <td width=300><img src=""static/images/keys/z.svg"" width=""35%"" height=""75%""></img></td>
    <td width=300><img src=""static/images/keys/m.svg"" width=""35%"" height=""75%""></img></td>
  </tr>
</table>
  ",90.0,1.0,,,,,,,,,,,,,,,,,,,,,,,,,,
74,0,,html-keyboard-response,74,474929,0.0-4.10-2.10,3x077usqcvn,2022-09-19 13:29:19.771,5c4c57609446be00017e6746,0,59,61,30,26,43,male,,,"
  <table>
  <tr height=300>
    <td width=300 height=300><img src=""static/images/cards/4_of_red_bolts.svg"" width=""175px"" height=""250px""></img></td>
    <td width=300 height=300><img src=""static/images/cards/back_of_red_bolts.svg"" width=""175px"" height=""250px""></img></td>
  </tr>
  <tr height=200>
    <td width=300><img src=""static/images/keys/z.svg"" width=""35%"" height=""75%""></img></td>
    <td width=300><img src=""static/images/keys/m.svg"" width=""35%"" height=""75%""></img></td>
  </tr>
</table>
  ",,,,,,,,,,,,,,,,,,,,,,,,,,,,
75,0,,html-keyboard-response,75,476447,0.0-4.10-3.10,3x077usqcvn,2022-09-19 13:29:19.771,5c4c57609446be00017e6746,0,59,61,30,26,43,male,,,"<p style=""font-size:50px"">You win!
+10 points this round!</p>",,,,,,,,,,,,,,,,,,,,,,,,,,,,
76,0,,html-keyboard-response,76,476974,0.0-4.10-4.10,3x077usqcvn,2022-09-19 13:29:19.771,5c4c57609446be00017e6746,0,59,61,30,26,43,male,,,,,,1.0,learning,10.0,Xc,,red,,bolts,,,,Xc,red,bolts,,1.0,0.0,NA,left,894.0,4.0,0.0,1.0,,,
77,0,,html-keyboard-response,77,478481,0.0-4.11-0.11,3x077usqcvn,2022-09-19 13:29:19.771,5c4c57609446be00017e6746,0,59,61,30,26,43,male,,,"<img src=""static/images/cards/stack_of_black_bolts.svg"" width=""175px"" height=""250px""></img>",,,,,,,,,,,,,,,,,,,,,,,,,,,,
78,0,,html-keyboard-response,78,479882,0.0-4.11-1.11,3x077usqcvn,2022-09-19 13:29:19.771,5c4c57609446be00017e6746,0,59,61,30,26,43,male,897.0,,"
  <table>
  <tr height=300>
    <td width=300 height=300><img src=""static/images/cards/back_of_black_bolts.svg"" width=""175px"" height=""250px""></img></td>
    <td width=300 height=300><img src=""static/images/cards/back_of_black_bolts.svg"" width=""175px"" height=""250px""></img></td>
  </tr>
  <tr height=200>
    <td width=300><img src=""static/images/keys/z.svg"" width=""35%"" height=""75%""></img></td>
    <td width=300></td>
  </tr>
</table>
  ",90.0,1.0,,,,,,,,,,,,,,,,,,,,,,,,,,
79,0,,html-keyboard-response,79,481389,0.0-4.11-2.11,3x077usqcvn,2022-09-19 13:29:19.771,5c4c57609446be00017e6746,0,59,61,30,26,43,male,,,"
  <table>
  <tr height=300>
    <td width=300 height=300><img src=""static/images/cards/10_of_black_bolts.svg"" width=""175px"" height=""250px""></img></td>
    <td width=300 height=300><img src=""static/images/cards/back_of_black_bolts.svg"" width=""175px"" height=""250px""></img></td>
  </tr>
  <tr height=200>
    <td width=300><img src=""static/images/keys/z.svg"" width=""35%"" height=""75%""></img></td>
    <td width=300></td>
  </tr>
</table>
  ",,,,,,,,,,,,,,,,,,,,,,,,,,,,
80,0,,html-keyboard-response,80,482899,0.0-4.11-3.11,3x077usqcvn,2022-09-19 13:29:19.771,5c4c57609446be00017e6746,0,59,61,30,26,43,male,,,"<p style=""font-size:50px"">You win!
+10 points this round!</p>",,,,,,,,,,,,,,,,,,,,,,,,,,,,
81,0,,html-keyboard-response,81,483422,0.0-4.11-4.11,3x077usqcvn,2022-09-19 13:29:19.771,5c4c57609446be00017e6746,0,59,61,30,26,43,male,,,,,,1.0,learning,11.0,Xnc,,black,,bolts,,,,Xnc,black,bolts,,0.0,0.0,1,left,897.0,10.0,1.0,1.0,,,
82,0,,html-keyboard-response,82,484932,0.0-4.12-0.12,3x077usqcvn,2022-09-19 13:29:19.771,5c4c57609446be00017e6746,0,59,61,30,26,43,male,,,"<img src=""static/images/cards/stack_of_red_stars.svg"" width=""175px"" height=""250px""></img>",,,,,,,,,,,,,,,,,,,,,,,,,,,,
83,0,,html-keyboard-response,83,487245,0.0-4.12-1.12,3x077usqcvn,2022-09-19 13:29:19.771,5c4c57609446be00017e6746,0,59,61,30,26,43,male,1809.0,,"
  <table>
  <tr height=300>
    <td width=300 height=300><img src=""static/images/cards/back_of_red_stars.svg"" width=""175px"" height=""250px""></img></td>
    <td width=300 height=300><img src=""static/images/cards/back_of_red_stars.svg"" width=""175px"" height=""250px""></img></td>
  </tr>
  <tr height=200>
    <td width=300><img src=""static/images/keys/z.svg"" width=""35%"" height=""75%""></img></td>
    <td width=300><img src=""static/images/keys/m.svg"" width=""35%"" height=""75%""></img></td>
  </tr>
</table>
  ",77.0,1.0,,,,,,,,,,,,,,,,,,,,,,,,,,
84,0,,html-keyboard-response,84,488755,0.0-4.12-2.12,3x077usqcvn,2022-09-19 13:29:19.771,5c4c57609446be00017e6746,0,59,61,30,26,43,male,,,"
  <table>
  <tr height=300>
    <td width=300 height=300><img src=""static/images/cards/back_of_red_stars.svg"" width=""175px"" height=""250px""></img></td>
    <td width=300 height=300><img src=""static/images/cards/2_of_red_stars.svg"" width=""175px"" height=""250px""></img></td>
  </tr>
  <tr height=200>
    <td width=300><img src=""static/images/keys/z.svg"" width=""35%"" height=""75%""></img></td>
    <td width=300><img src=""static/images/keys/m.svg"" width=""35%"" height=""75%""></img></td>
  </tr>
</table>
  ",,,,,,,,,,,,,,,,,,,,,,,,,,,,
85,0,,html-keyboard-response,85,490266,0.0-4.12-3.12,3x077usqcvn,2022-09-19 13:29:19.771,5c4c57609446be00017e6746,0,59,61,30,26,43,male,,,"<p style=""font-size:50px"">You Lose!
No points this round.</p>",,,,,,,,,,,,,,,,,,,,,,,,,,,,
86,0,,html-keyboard-response,86,490790,0.0-4.12-4.12,3x077usqcvn,2022-09-19 13:29:19.771,5c4c57609446be00017e6746,0,59,61,30,26,43,male,,,,,,1.0,learning,12.0,A,,red,,stars,,,,A,red,stars,,1.0,1.0,NA,right,1809.0,2.0,0.0,0.0,,,
87,0,,html-keyboard-response,87,492297,0.0-4.13-0.13,3x077usqcvn,2022-09-19 13:29:19.771,5c4c57609446be00017e6746,0,59,61,30,26,43,male,,,"<img src=""static/images/cards/stack_of_black_stars.svg"" width=""175px"" height=""250px""></img>",,,,,,,,,,,,,,,,,,,,,,,,,,,,
88,0,,html-keyboard-response,88,494074,0.0-4.13-1.13,3x077usqcvn,2022-09-19 13:29:19.771,5c4c57609446be00017e6746,0,59,61,30,26,43,male,1272.0,,"
  <table>
  <tr height=300>
    <td width=300 height=300><img src=""static/images/cards/back_of_black_stars.svg"" width=""175px"" height=""250px""></img></td>
    <td width=300 height=300><img src=""static/images/cards/back_of_black_stars.svg"" width=""175px"" height=""250px""></img></td>
  </tr>
  <tr height=200>
    <td width=300></td>
    <td width=300><img src=""static/images/keys/m.svg"" width=""35%"" height=""75%""></img></td>
  </tr>
</table>
  ",77.0,1.0,,,,,,,,,,,,,,,,,,,,,,,,,,
89,0,,html-keyboard-response,89,495580,0.0-4.13-2.13,3x077usqcvn,2022-09-19 13:29:19.771,5c4c57609446be00017e6746,0,59,61,30,26,43,male,,,"
  <table>
  <tr height=300>
    <td width=300 height=300><img src=""static/images/cards/back_of_black_stars.svg"" width=""175px"" height=""250px""></img></td>
    <td width=300 height=300><img src=""static/images/cards/6_of_black_stars.svg"" width=""175px"" height=""250px""></img></td>
  </tr>
  <tr height=200>
    <td width=300></td>
    <td width=300><img src=""static/images/keys/m.svg"" width=""35%"" height=""75%""></img></td>
  </tr>
</table>
  ",,,,,,,,,,,,,,,,,,,,,,,,,,,,
90,0,,html-keyboard-response,90,497090,0.0-4.13-3.13,3x077usqcvn,2022-09-19 13:29:19.771,5c4c57609446be00017e6746,0,59,61,30,26,43,male,,,"<p style=""font-size:50px"">You win!
+10 points this round!</p>",,,,,,,,,,,,,,,,,,,,,,,,,,,,
91,0,,html-keyboard-response,91,497612,0.0-4.13-4.13,3x077usqcvn,2022-09-19 13:29:19.771,5c4c57609446be00017e6746,0,59,61,30,26,43,male,,,,,,1.0,learning,13.0,B,,black,,stars,,,,B,black,stars,,0.0,1.0,0,right,1272.0,6.0,1.0,1.0,,,
92,0,,html-keyboard-response,92,499122,0.0-4.14-0.14,3x077usqcvn,2022-09-19 13:29:19.771,5c4c57609446be00017e6746,0,59,61,30,26,43,male,,,"<img src=""static/images/cards/stack_of_red_moons.svg"" width=""175px"" height=""250px""></img>",,,,,,,,,,,,,,,,,,,,,,,,,,,,
93,0,,html-keyboard-response,93,501235,0.0-4.14-1.14,3x077usqcvn,2022-09-19 13:29:19.771,5c4c57609446be00017e6746,0,59,61,30,26,43,male,1609.0,,"
  <table>
  <tr height=300>
    <td width=300 height=300><img src=""static/images/cards/back_of_red_moons.svg"" width=""175px"" height=""250px""></img></td>
    <td width=300 height=300><img src=""static/images/cards/back_of_red_moons.svg"" width=""175px"" height=""250px""></img></td>
  </tr>
  <tr height=200>
    <td width=300><img src=""static/images/keys/z.svg"" width=""35%"" height=""75%""></img></td>
    <td width=300><img src=""static/images/keys/m.svg"" width=""35%"" height=""75%""></img></td>
  </tr>
</table>
  ",90.0,1.0,,,,,,,,,,,,,,,,,,,,,,,,,,
94,0,,html-keyboard-response,94,502745,0.0-4.14-2.14,3x077usqcvn,2022-09-19 13:29:19.771,5c4c57609446be00017e6746,0,59,61,30,26,43,male,,,"
  <table>
  <tr height=300>
    <td width=300 height=300><img src=""static/images/cards/9_of_red_moons.svg"" width=""175px"" height=""250px""></img></td>
    <td width=300 height=300><img src=""static/images/cards/back_of_red_moons.svg"" width=""175px"" height=""250px""></img></td>
  </tr>
  <tr height=200>
    <td width=300><img src=""static/images/keys/z.svg"" width=""35%"" height=""75%""></img></td>
    <td width=300><img src=""static/images/keys/m.svg"" width=""35%"" height=""75%""></img></td>
  </tr>
</table>
  ",,,,,,,,,,,,,,,,,,,,,,,,,,,,
95,0,,html-keyboard-response,95,504261,0.0-4.14-3.14,3x077usqcvn,2022-09-19 13:29:19.771,5c4c57609446be00017e6746,0,59,61,30,26,43,male,,,"<p style=""font-size:50px"">You Lose!
No points this round.</p>",,,,,,,,,,,,,,,,,,,,,,,,,,,,
96,0,,html-keyboard-response,96,504796,0.0-4.14-4.14,3x077usqcvn,2022-09-19 13:29:19.771,5c4c57609446be00017e6746,0,59,61,30,26,43,male,,,,,,1.0,learning,14.0,C,,red,,moons,,,,C,red,moons,,1.0,0.0,NA,left,1609.0,9.0,1.0,0.0,,,
97,0,,html-keyboard-response,97,506308,0.0-4.15-0.15,3x077usqcvn,2022-09-19 13:29:19.771,5c4c57609446be00017e6746,0,59,61,30,26,43,male,,,"<img src=""static/images/cards/stack_of_black_moons.svg"" width=""175px"" height=""250px""></img>",,,,,,,,,,,,,,,,,,,,,,,,,,,,
98,0,,html-keyboard-response,98,508001,0.0-4.15-1.15,3x077usqcvn,2022-09-19 13:29:19.771,5c4c57609446be00017e6746,0,59,61,30,26,43,male,1175.0,,"
  <table>
  <tr height=300>
    <td width=300 height=300><img src=""static/images/cards/back_of_black_moons.svg"" width=""175px"" height=""250px""></img></td>
    <td width=300 height=300><img src=""static/images/cards/back_of_black_moons.svg"" width=""175px"" height=""250px""></img></td>
  </tr>
  <tr height=200>
    <td width=300><img src=""static/images/keys/z.svg"" width=""35%"" height=""75%""></img></td>
    <td width=300></td>
  </tr>
</table>
  ",90.0,1.0,,,,,,,,,,,,,,,,,,,,,,,,,,
99,0,,html-keyboard-response,99,509512,0.0-4.15-2.15,3x077usqcvn,2022-09-19 13:29:19.771,5c4c57609446be00017e6746,0,59,61,30,26,43,male,,,"
  <table>
  <tr height=300>
    <td width=300 height=300><img src=""static/images/cards/6_of_black_moons.svg"" width=""175px"" height=""250px""></img></td>
    <td width=300 height=300><img src=""static/images/cards/back_of_black_moons.svg"" width=""175px"" height=""250px""></img></td>
  </tr>
  <tr height=200>
    <td width=300><img src=""static/images/keys/z.svg"" width=""35%"" height=""75%""></img></td>
    <td width=300></td>
  </tr>
</table>
  ",,,,,,,,,,,,,,,,,,,,,,,,,,,,
100,0,,html-keyboard-response,100,511021,0.0-4.15-3.15,3x077usqcvn,2022-09-19 13:29:19.771,5c4c57609446be00017e6746,0,59,61,30,26,43,male,,,"<p style=""font-size:50px"">You Lose!
No points this round.</p>",,,,,,,,,,,,,,,,,,,,,,,,,,,,
101,0,,html-keyboard-response,101,511545,0.0-4.15-4.15,3x077usqcvn,2022-09-19 13:29:19.771,5c4c57609446be00017e6746,0,59,61,30,26,43,male,,,,,,1.0,learning,15.0,D,,black,,moons,,,,D,black,moons,,0.0,0.0,1,left,1175.0,6.0,1.0,0.0,,,
102,0,,html-keyboard-response,102,513063,0.0-4.16-0.16,3x077usqcvn,2022-09-19 13:29:19.771,5c4c57609446be00017e6746,0,59,61,30,26,43,male,,,"<img src=""static/images/cards/stack_of_red_bolts.svg"" width=""175px"" height=""250px""></img>",,,,,,,,,,,,,,,,,,,,,,,,,,,,
103,0,,html-keyboard-response,103,514476,0.0-4.16-1.16,3x077usqcvn,2022-09-19 13:29:19.771,5c4c57609446be00017e6746,0,59,61,30,26,43,male,899.0,,"
  <table>
  <tr height=300>
    <td width=300 height=300><img src=""static/images/cards/back_of_red_bolts.svg"" width=""175px"" height=""250px""></img></td>
    <td width=300 height=300><img src=""static/images/cards/back_of_red_bolts.svg"" width=""175px"" height=""250px""></img></td>
  </tr>
  <tr height=200>
    <td width=300><img src=""static/images/keys/z.svg"" width=""35%"" height=""75%""></img></td>
    <td width=300><img src=""static/images/keys/m.svg"" width=""35%"" height=""75%""></img></td>
  </tr>
</table>
  ",90.0,1.0,,,,,,,,,,,,,,,,,,,,,,,,,,
104,0,,html-keyboard-response,104,515991,0.0-4.16-2.16,3x077usqcvn,2022-09-19 13:29:19.771,5c4c57609446be00017e6746,0,59,61,30,26,43,male,,,"
  <table>
  <tr height=300>
    <td width=300 height=300><img src=""static/images/cards/8_of_red_bolts.svg"" width=""175px"" height=""250px""></img></td>
    <td width=300 height=300><img src=""static/images/cards/back_of_red_bolts.svg"" width=""175px"" height=""250px""></img></td>
  </tr>
  <tr height=200>
    <td width=300><img src=""static/images/keys/z.svg"" width=""35%"" height=""75%""></img></td>
    <td width=300><img src=""static/images/keys/m.svg"" width=""35%"" height=""75%""></img></td>
  </tr>
</table>
  ",,,,,,,,,,,,,,,,,,,,,,,,,,,,
105,0,,html-keyboard-response,105,517502,0.0-4.16-3.16,3x077usqcvn,2022-09-19 13:29:19.771,5c4c57609446be00017e6746,0,59,61,30,26,43,male,,,"<p style=""font-size:50px"">You win!
+10 points this round!</p>",,,,,,,,,,,,,,,,,,,,,,,,,,,,
106,0,,html-keyboard-response,106,518025,0.0-4.16-4.16,3x077usqcvn,2022-09-19 13:29:19.771,5c4c57609446be00017e6746,0,59,61,30,26,43,male,,,,,,1.0,learning,16.0,Xc,,red,,bolts,,,,Xc,red,bolts,,1.0,0.0,NA,left,899.0,8.0,1.0,1.0,,,
107,0,,html-keyboard-response,107,519542,0.0-4.17-0.17,3x077usqcvn,2022-09-19 13:29:19.771,5c4c57609446be00017e6746,0,59,61,30,26,43,male,,,"<img src=""static/images/cards/stack_of_black_bolts.svg"" width=""175px"" height=""250px""></img>",,,,,,,,,,,,,,,,,,,,,,,,,,,,
108,0,,html-keyboard-response,108,521051,0.0-4.17-1.17,3x077usqcvn,2022-09-19 13:29:19.771,5c4c57609446be00017e6746,0,59,61,30,26,43,male,1005.0,,"
  <table>
  <tr height=300>
    <td width=300 height=300><img src=""static/images/cards/back_of_black_bolts.svg"" width=""175px"" height=""250px""></img></td>
    <td width=300 height=300><img src=""static/images/cards/back_of_black_bolts.svg"" width=""175px"" height=""250px""></img></td>
  </tr>
  <tr height=200>
    <td width=300></td>
    <td width=300><img src=""static/images/keys/m.svg"" width=""35%"" height=""75%""></img></td>
  </tr>
</table>
  ",77.0,1.0,,,,,,,,,,,,,,,,,,,,,,,,,,
109,0,,html-keyboard-response,109,522571,0.0-4.17-2.17,3x077usqcvn,2022-09-19 13:29:19.771,5c4c57609446be00017e6746,0,59,61,30,26,43,male,,,"
  <table>
  <tr height=300>
    <td width=300 height=300><img src=""static/images/cards/back_of_black_bolts.svg"" width=""175px"" height=""250px""></img></td>
    <td width=300 height=300><img src=""static/images/cards/1_of_black_bolts.svg"" width=""175px"" height=""250px""></img></td>
  </tr>
  <tr height=200>
    <td width=300></td>
    <td width=300><img src=""static/images/keys/m.svg"" width=""35%"" height=""75%""></img></td>
  </tr>
</table>
  ",,,,,,,,,,,,,,,,,,,,,,,,,,,,
110,0,,html-keyboard-response,110,524081,0.0-4.17-3.17,3x077usqcvn,2022-09-19 13:29:19.771,5c4c57609446be00017e6746,0,59,61,30,26,43,male,,,"<p style=""font-size:50px"">You win!
+10 points this round!</p>",,,,,,,,,,,,,,,,,,,,,,,,,,,,
111,0,,html-keyboard-response,111,524605,0.0-4.17-4.17,3x077usqcvn,2022-09-19 13:29:19.771,5c4c57609446be00017e6746,0,59,61,30,26,43,male,,,,,,1.0,learning,17.0,Xnc,,black,,bolts,,,,Xnc,black,bolts,,0.0,0.0,0,right,1005.0,1.0,0.0,1.0,,,
112,0,,html-keyboard-response,112,526125,0.0-4.18-0.18,3x077usqcvn,2022-09-19 13:29:19.771,5c4c57609446be00017e6746,0,59,61,30,26,43,male,,,"<img src=""static/images/cards/stack_of_red_stars.svg"" width=""175px"" height=""250px""></img>",,,,,,,,,,,,,,,,,,,,,,,,,,,,
113,0,,html-keyboard-response,113,527838,0.0-4.18-1.18,3x077usqcvn,2022-09-19 13:29:19.771,5c4c57609446be00017e6746,0,59,61,30,26,43,male,1198.0,,"
  <table>
  <tr height=300>
    <td width=300 height=300><img src=""static/images/cards/back_of_red_stars.svg"" width=""175px"" height=""250px""></img></td>
    <td width=300 height=300><img src=""static/images/cards/back_of_red_stars.svg"" width=""175px"" height=""250px""></img></td>
  </tr>
  <tr height=200>
    <td width=300><img src=""static/images/keys/z.svg"" width=""35%"" height=""75%""></img></td>
    <td width=300><img src=""static/images/keys/m.svg"" width=""35%"" height=""75%""></img></td>
  </tr>
</table>
  ",77.0,1.0,,,,,,,,,,,,,,,,,,,,,,,,,,
114,0,,html-keyboard-response,114,529346,0.0-4.18-2.18,3x077usqcvn,2022-09-19 13:29:19.771,5c4c57609446be00017e6746,0,59,61,30,26,43,male,,,"
  <table>
  <tr height=300>
    <td width=300 height=300><img src=""static/images/cards/back_of_red_stars.svg"" width=""175px"" height=""250px""></img></td>
    <td width=300 height=300><img src=""static/images/cards/10_of_red_stars.svg"" width=""175px"" height=""250px""></img></td>
  </tr>
  <tr height=200>
    <td width=300><img src=""static/images/keys/z.svg"" width=""35%"" height=""75%""></img></td>
    <td width=300><img src=""static/images/keys/m.svg"" width=""35%"" height=""75%""></img></td>
  </tr>
</table>
  ",,,,,,,,,,,,,,,,,,,,,,,,,,,,
115,0,,html-keyboard-response,115,530855,0.0-4.18-3.18,3x077usqcvn,2022-09-19 13:29:19.771,5c4c57609446be00017e6746,0,59,61,30,26,43,male,,,"<p style=""font-size:50px"">You win!
+10 points this round!</p>",,,,,,,,,,,,,,,,,,,,,,,,,,,,
116,0,,html-keyboard-response,116,531382,0.0-4.18-4.18,3x077usqcvn,2022-09-19 13:29:19.771,5c4c57609446be00017e6746,0,59,61,30,26,43,male,,,,,,1.0,learning,18.0,A,,red,,stars,,,,A,red,stars,,1.0,1.0,NA,right,1198.0,10.0,1.0,1.0,,,
117,0,,html-keyboard-response,117,532886,0.0-4.19-0.19,3x077usqcvn,2022-09-19 13:29:19.771,5c4c57609446be00017e6746,0,59,61,30,26,43,male,,,"<img src=""static/images/cards/stack_of_black_stars.svg"" width=""175px"" height=""250px""></img>",,,,,,,,,,,,,,,,,,,,,,,,,,,,
118,0,,html-keyboard-response,118,534554,0.0-4.19-1.19,3x077usqcvn,2022-09-19 13:29:19.771,5c4c57609446be00017e6746,0,59,61,30,26,43,male,1155.0,,"
  <table>
  <tr height=300>
    <td width=300 height=300><img src=""static/images/cards/back_of_black_stars.svg"" width=""175px"" height=""250px""></img></td>
    <td width=300 height=300><img src=""static/images/cards/back_of_black_stars.svg"" width=""175px"" height=""250px""></img></td>
  </tr>
  <tr height=200>
    <td width=300><img src=""static/images/keys/z.svg"" width=""35%"" height=""75%""></img></td>
    <td width=300></td>
  </tr>
</table>
  ",90.0,1.0,,,,,,,,,,,,,,,,,,,,,,,,,,
119,0,,html-keyboard-response,119,536064,0.0-4.19-2.19,3x077usqcvn,2022-09-19 13:29:19.771,5c4c57609446be00017e6746,0,59,61,30,26,43,male,,,"
  <table>
  <tr height=300>
    <td width=300 height=300><img src=""static/images/cards/6_of_black_stars.svg"" width=""175px"" height=""250px""></img></td>
    <td width=300 height=300><img src=""static/images/cards/back_of_black_stars.svg"" width=""175px"" height=""250px""></img></td>
  </tr>
  <tr height=200>
    <td width=300><img src=""static/images/keys/z.svg"" width=""35%"" height=""75%""></img></td>
    <td width=300></td>
  </tr>
</table>
  ",,,,,,,,,,,,,,,,,,,,,,,,,,,,
120,0,,html-keyboard-response,120,537575,0.0-4.19-3.19,3x077usqcvn,2022-09-19 13:29:19.771,5c4c57609446be00017e6746,0,59,61,30,26,43,male,,,"<p style=""font-size:50px"">You win!
+10 points this round!</p>",,,,,,,,,,,,,,,,,,,,,,,,,,,,
121,0,,html-keyboard-response,121,538097,0.0-4.19-4.19,3x077usqcvn,2022-09-19 13:29:19.771,5c4c57609446be00017e6746,0,59,61,30,26,43,male,,,,,,1.0,learning,19.0,B,,black,,stars,,,,B,black,stars,,0.0,1.0,1,left,1155.0,6.0,1.0,1.0,,,
122,0,,html-keyboard-response,122,539607,0.0-4.20-0.20,3x077usqcvn,2022-09-19 13:29:19.771,5c4c57609446be00017e6746,0,59,61,30,26,43,male,,,"<img src=""static/images/cards/stack_of_red_moons.svg"" width=""175px"" height=""250px""></img>",,,,,,,,,,,,,,,,,,,,,,,,,,,,
123,0,,html-keyboard-response,123,541796,0.0-4.20-1.20,3x077usqcvn,2022-09-19 13:29:19.771,5c4c57609446be00017e6746,0,59,61,30,26,43,male,1685.0,,"
  <table>
  <tr height=300>
    <td width=300 height=300><img src=""static/images/cards/back_of_red_moons.svg"" width=""175px"" height=""250px""></img></td>
    <td width=300 height=300><img src=""static/images/cards/back_of_red_moons.svg"" width=""175px"" height=""250px""></img></td>
  </tr>
  <tr height=200>
    <td width=300><img src=""static/images/keys/z.svg"" width=""35%"" height=""75%""></img></td>
    <td width=300><img src=""static/images/keys/m.svg"" width=""35%"" height=""75%""></img></td>
  </tr>
</table>
  ",90.0,1.0,,,,,,,,,,,,,,,,,,,,,,,,,,
124,0,,html-keyboard-response,124,543310,0.0-4.20-2.20,3x077usqcvn,2022-09-19 13:29:19.771,5c4c57609446be00017e6746,0,59,61,30,26,43,male,,,"
  <table>
  <tr height=300>
    <td width=300 height=300><img src=""static/images/cards/10_of_red_moons.svg"" width=""175px"" height=""250px""></img></td>
    <td width=300 height=300><img src=""static/images/cards/back_of_red_moons.svg"" width=""175px"" height=""250px""></img></td>
  </tr>
  <tr height=200>
    <td width=300><img src=""static/images/keys/z.svg"" width=""35%"" height=""75%""></img></td>
    <td width=300><img src=""static/images/keys/m.svg"" width=""35%"" height=""75%""></img></td>
  </tr>
</table>
  ",,,,,,,,,,,,,,,,,,,,,,,,,,,,
125,0,,html-keyboard-response,125,544820,0.0-4.20-3.20,3x077usqcvn,2022-09-19 13:29:19.771,5c4c57609446be00017e6746,0,59,61,30,26,43,male,,,"<p style=""font-size:50px"">You win!
+10 points this round!</p>",,,,,,,,,,,,,,,,,,,,,,,,,,,,
126,0,,html-keyboard-response,126,545343,0.0-4.20-4.20,3x077usqcvn,2022-09-19 13:29:19.771,5c4c57609446be00017e6746,0,59,61,30,26,43,male,,,,,,1.0,learning,20.0,C,,red,,moons,,,,C,red,moons,,1.0,0.0,NA,left,1685.0,10.0,1.0,1.0,,,
127,0,,html-keyboard-response,127,546853,0.0-4.21-0.21,3x077usqcvn,2022-09-19 13:29:19.771,5c4c57609446be00017e6746,0,59,61,30,26,43,male,,,"<img src=""static/images/cards/stack_of_black_moons.svg"" width=""175px"" height=""250px""></img>",,,,,,,,,,,,,,,,,,,,,,,,,,,,
128,0,,html-keyboard-response,128,549315,0.0-4.21-1.21,3x077usqcvn,2022-09-19 13:29:19.771,5c4c57609446be00017e6746,0,59,61,30,26,43,male,1957.0,,"
  <table>
  <tr height=300>
    <td width=300 height=300><img src=""static/images/cards/back_of_black_moons.svg"" width=""175px"" height=""250px""></img></td>
    <td width=300 height=300><img src=""static/images/cards/back_of_black_moons.svg"" width=""175px"" height=""250px""></img></td>
  </tr>
  <tr height=200>
    <td width=300><img src=""static/images/keys/z.svg"" width=""35%"" height=""75%""></img></td>
    <td width=300></td>
  </tr>
</table>
  ",90.0,1.0,,,,,,,,,,,,,,,,,,,,,,,,,,
129,0,,html-keyboard-response,129,550820,0.0-4.21-2.21,3x077usqcvn,2022-09-19 13:29:19.771,5c4c57609446be00017e6746,0,59,61,30,26,43,male,,,"
  <table>
  <tr height=300>
    <td width=300 height=300><img src=""static/images/cards/1_of_black_moons.svg"" width=""175px"" height=""250px""></img></td>
    <td width=300 height=300><img src=""static/images/cards/back_of_black_moons.svg"" width=""175px"" height=""250px""></img></td>
  </tr>
  <tr height=200>
    <td width=300><img src=""static/images/keys/z.svg"" width=""35%"" height=""75%""></img></td>
    <td width=300></td>
  </tr>
</table>
  ",,,,,,,,,,,,,,,,,,,,,,,,,,,,
130,0,,html-keyboard-response,130,552339,0.0-4.21-3.21,3x077usqcvn,2022-09-19 13:29:19.771,5c4c57609446be00017e6746,0,59,61,30,26,43,male,,,"<p style=""font-size:50px"">You Lose!
No points this round.</p>",,,,,,,,,,,,,,,,,,,,,,,,,,,,
131,0,,html-keyboard-response,131,552865,0.0-4.21-4.21,3x077usqcvn,2022-09-19 13:29:19.771,5c4c57609446be00017e6746,0,59,61,30,26,43,male,,,,,,1.0,learning,21.0,D,,black,,moons,,,,D,black,moons,,0.0,0.0,1,left,1957.0,1.0,0.0,0.0,,,
132,0,,html-keyboard-response,132,554372,0.0-4.22-0.22,3x077usqcvn,2022-09-19 13:29:19.771,5c4c57609446be00017e6746,0,59,61,30,26,43,male,,,"<img src=""static/images/cards/stack_of_red_bolts.svg"" width=""175px"" height=""250px""></img>",,,,,,,,,,,,,,,,,,,,,,,,,,,,
133,0,,html-keyboard-response,133,555879,0.0-4.22-1.22,3x077usqcvn,2022-09-19 13:29:19.771,5c4c57609446be00017e6746,0,59,61,30,26,43,male,995.0,,"
  <table>
  <tr height=300>
    <td width=300 height=300><img src=""static/images/cards/back_of_red_bolts.svg"" width=""175px"" height=""250px""></img></td>
    <td width=300 height=300><img src=""static/images/cards/back_of_red_bolts.svg"" width=""175px"" height=""250px""></img></td>
  </tr>
  <tr height=200>
    <td width=300><img src=""static/images/keys/z.svg"" width=""35%"" height=""75%""></img></td>
    <td width=300><img src=""static/images/keys/m.svg"" width=""35%"" height=""75%""></img></td>
  </tr>
</table>
  ",90.0,1.0,,,,,,,,,,,,,,,,,,,,,,,,,,
134,0,,html-keyboard-response,134,557381,0.0-4.22-2.22,3x077usqcvn,2022-09-19 13:29:19.771,5c4c57609446be00017e6746,0,59,61,30,26,43,male,,,"
  <table>
  <tr height=300>
    <td width=300 height=300><img src=""static/images/cards/7_of_red_bolts.svg"" width=""175px"" height=""250px""></img></td>
    <td width=300 height=300><img src=""static/images/cards/back_of_red_bolts.svg"" width=""175px"" height=""250px""></img></td>
  </tr>
  <tr height=200>
    <td width=300><img src=""static/images/keys/z.svg"" width=""35%"" height=""75%""></img></td>
    <td width=300><img src=""static/images/keys/m.svg"" width=""35%"" height=""75%""></img></td>
  </tr>
</table>
  ",,,,,,,,,,,,,,,,,,,,,,,,,,,,
135,0,,html-keyboard-response,135,558899,0.0-4.22-3.22,3x077usqcvn,2022-09-19 13:29:19.771,5c4c57609446be00017e6746,0,59,61,30,26,43,male,,,"<p style=""font-size:50px"">You win!
+10 points this round!</p>",,,,,,,,,,,,,,,,,,,,,,,,,,,,
136,0,,html-keyboard-response,136,559412,0.0-4.22-4.22,3x077usqcvn,2022-09-19 13:29:19.771,5c4c57609446be00017e6746,0,59,61,30,26,43,male,,,,,,1.0,learning,22.0,Xc,,red,,bolts,,,,Xc,red,bolts,,1.0,0.0,NA,left,995.0,7.0,1.0,1.0,,,
137,0,,html-keyboard-response,137,560928,0.0-4.23-0.23,3x077usqcvn,2022-09-19 13:29:19.771,5c4c57609446be00017e6746,0,59,61,30,26,43,male,,,"<img src=""static/images/cards/stack_of_black_bolts.svg"" width=""175px"" height=""250px""></img>",,,,,,,,,,,,,,,,,,,,,,,,,,,,
138,0,,html-keyboard-response,138,562345,0.0-4.23-1.23,3x077usqcvn,2022-09-19 13:29:19.771,5c4c57609446be00017e6746,0,59,61,30,26,43,male,912.0,,"
  <table>
  <tr height=300>
    <td width=300 height=300><img src=""static/images/cards/back_of_black_bolts.svg"" width=""175px"" height=""250px""></img></td>
    <td width=300 height=300><img src=""static/images/cards/back_of_black_bolts.svg"" width=""175px"" height=""250px""></img></td>
  </tr>
  <tr height=200>
    <td width=300></td>
    <td width=300><img src=""static/images/keys/m.svg"" width=""35%"" height=""75%""></img></td>
  </tr>
</table>
  ",77.0,1.0,,,,,,,,,,,,,,,,,,,,,,,,,,
139,0,,html-keyboard-response,139,563857,0.0-4.23-2.23,3x077usqcvn,2022-09-19 13:29:19.771,5c4c57609446be00017e6746,0,59,61,30,26,43,male,,,"
  <table>
  <tr height=300>
    <td width=300 height=300><img src=""static/images/cards/back_of_black_bolts.svg"" width=""175px"" height=""250px""></img></td>
    <td width=300 height=300><img src=""static/images/cards/10_of_black_bolts.svg"" width=""175px"" height=""250px""></img></td>
  </tr>
  <tr height=200>
    <td width=300></td>
    <td width=300><img src=""static/images/keys/m.svg"" width=""35%"" height=""75%""></img></td>
  </tr>
</table>
  ",,,,,,,,,,,,,,,,,,,,,,,,,,,,
140,0,,html-keyboard-response,140,565377,0.0-4.23-3.23,3x077usqcvn,2022-09-19 13:29:19.771,5c4c57609446be00017e6746,0,59,61,30,26,43,male,,,"<p style=""font-size:50px"">You win!
+10 points this round!</p>",,,,,,,,,,,,,,,,,,,,,,,,,,,,
141,0,,html-keyboard-response,141,565900,0.0-4.23-4.23,3x077usqcvn,2022-09-19 13:29:19.771,5c4c57609446be00017e6746,0,59,61,30,26,43,male,,,,,,1.0,learning,23.0,Xnc,,black,,bolts,,,,Xnc,black,bolts,,0.0,0.0,0,right,912.0,10.0,1.0,1.0,,,
142,0,,call-function,142,565903,0.0-5.0,3x077usqcvn,2022-09-19 13:29:19.771,5c4c57609446be00017e6746,0,59,61,30,26,43,male,,,,,,,,,,,,,,,,,,,,,,,,,,,,,,,
143,0,,image-keyboard-response,143,569826,0.0-6.0-0.0,3x077usqcvn,2022-09-19 13:29:19.771,5c4c57609446be00017e6746,0,59,61,30,26,43,male,3922.0,,static/images/instructions_CB_0/Slide20.png,39.0,,,,,,,,,,,,,,,,,,,,,,,,,,,
144,0,,image-keyboard-response,144,618970,0.0-6.1-0.1,3x077usqcvn,2022-09-19 13:29:19.771,5c4c57609446be00017e6746,0,59,61,30,26,43,male,49144.0,,static/images/instructions_CB_0/Slide21.png,39.0,,,,,,,,,,,,,,,,,,,,,,,,,,,
145,0,,image-keyboard-response,145,638273,0.0-6.2-0.2,3x077usqcvn,2022-09-19 13:29:19.771,5c4c57609446be00017e6746,0,59,61,30,26,43,male,19302.0,,static/images/instructions_CB_0/Slide22.png,37.0,,,,,,,,,,,,,,,,,,,,,,,,,,,
146,0,,image-keyboard-response,146,643234,0.0-6.3-0.3,3x077usqcvn,2022-09-19 13:29:19.771,5c4c57609446be00017e6746,0,59,61,30,26,43,male,4962.0,,static/images/instructions_CB_0/Slide21.png,39.0,,,,,,,,,,,,,,,,,,,,,,,,,,,
147,0,,image-keyboard-response,147,657679,0.0-6.4-0.4,3x077usqcvn,2022-09-19 13:29:19.771,5c4c57609446be00017e6746,0,59,61,30,26,43,male,14444.0,,static/images/instructions_CB_0/Slide22.png,37.0,,,,,,,,,,,,,,,,,,,,,,,,,,,
148,0,,image-keyboard-response,148,659819,0.0-6.5-0.5,3x077usqcvn,2022-09-19 13:29:19.771,5c4c57609446be00017e6746,0,59,61,30,26,43,male,2140.0,,static/images/instructions_CB_0/Slide21.png,39.0,,,,,,,,,,,,,,,,,,,,,,,,,,,
149,0,,image-keyboard-response,149,660864,0.0-6.6-0.6,3x077usqcvn,2022-09-19 13:29:19.771,5c4c57609446be00017e6746,0,59,61,30,26,43,male,1045.0,,static/images/instructions_CB_0/Slide22.png,39.0,,,,,,,,,,,,,,,,,,,,,,,,,,,
150,0,,image-keyboard-response,150,677617,0.0-6.7-0.7,3x077usqcvn,2022-09-19 13:29:19.771,5c4c57609446be00017e6746,0,59,61,30,26,43,male,16753.0,,static/images/instructions_CB_0/Slide23.png,39.0,,,,,,,,,,,,,,,,,,,,,,,,,,,
151,0,,image-keyboard-response,151,682415,0.0-6.8-0.8,3x077usqcvn,2022-09-19 13:29:19.771,5c4c57609446be00017e6746,0,59,61,30,26,43,male,4796.0,,static/images/instructions_CB_0/Slide24.png,39.0,,,,,,,,,,,,,,,,,,,,,,,,,,,
152,0,,html-keyboard-response,152,687140,0.0-7.0-0.0,3x077usqcvn,2022-09-19 13:29:19.771,5c4c57609446be00017e6746,0,59,61,30,26,43,male,4724.0,,"
  <table>
  <tr height=300>
    <td width=300 height=300><img src=""static/images/cards/stack_of_red_moons.svg"" width=""175px"" height=""250px""></img></td>
    <td width=300 height=300><img src=""static/images/cards/stack_of_red_stars.svg"" width=""175px"" height=""250px""></img></td>
  </tr>
  <tr height=200>
    <td width=300><img src=""static/images/keys/w.svg"" width=""35%"" height=""75%""></img></td>
    <td width=300><img src=""static/images/keys/o.svg"" width=""35%"" height=""75%""></img></td>
  </tr>
</table>
  ",79.0,1.0,,,,,,,,,,,,,,,,,,,,,,,,,,
153,0,,html-keyboard-response,153,689046,0.0-7.0-1.0,3x077usqcvn,2022-09-19 13:29:19.771,5c4c57609446be00017e6746,0,59,61,30,26,43,male,1402.0,,"
  <table>
  <tr height=300>
    <td width=300 height=300><img src=""static/images/cards/back_of_red_stars.svg"" width=""175px"" height=""250px""></img></td>
    <td width=300 height=300><img src=""static/images/cards/back_of_red_stars.svg"" width=""175px"" height=""250px""></img></td>
  </tr>
  <tr height=200>
    <td width=300><img src=""static/images/keys/z.svg"" width=""35%"" height=""75%""></img></td>
    <td width=300><img src=""static/images/keys/m.svg"" width=""35%"" height=""75%""></img></td>
  </tr>
</table>
  ",90.0,1.0,,,,,,,,,,,,,,,,,,,,,,,,,,
154,0,,html-keyboard-response,154,690564,0.0-7.0-2.0,3x077usqcvn,2022-09-19 13:29:19.771,5c4c57609446be00017e6746,0,59,61,30,26,43,male,,,"
  <table>
  <tr height=300>
    <td width=300 height=300><img src=""static/images/cards/2_of_red_stars.svg"" width=""175px"" height=""250px""></img></td>
    <td width=300 height=300><img src=""static/images/cards/back_of_red_stars.svg"" width=""175px"" height=""250px""></img></td>
  </tr>
  <tr height=200>
    <td width=300><img src=""static/images/keys/z.svg"" width=""35%"" height=""75%""></img></td>
    <td width=300><img src=""static/images/keys/m.svg"" width=""35%"" height=""75%""></img></td>
  </tr>
</table>
  ",,,,,,,,,,,,,,,,,,,,,,,,,,,,
155,0,,html-keyboard-response,155,692074,0.0-7.0-3.0,3x077usqcvn,2022-09-19 13:29:19.771,5c4c57609446be00017e6746,0,59,61,30,26,43,male,,,"<p style=""font-size:50px"">You Lose!
No points this round.</p>",,,,,,,,,,,,,,,,,,,,,,,,,,,,
156,0,,html-keyboard-response,156,692598,0.0-7.0-4.0,3x077usqcvn,2022-09-19 13:29:19.771,5c4c57609446be00017e6746,0,59,61,30,26,43,male,,,,,,1.0,choice,0.0,A,C,red,red,moons,stars,C,A,A,red,stars,4724.0,1.0,1.0,NA,left,1402.0,2.0,0.0,0.0,,,
157,0,,html-keyboard-response,157,696211,0.0-7.1-0.1,3x077usqcvn,2022-09-19 13:29:19.771,5c4c57609446be00017e6746,0,59,61,30,26,43,male,3612.0,,"
  <table>
  <tr height=300>
    <td width=300 height=300><img src=""static/images/cards/stack_of_black_moons.svg"" width=""175px"" height=""250px""></img></td>
    <td width=300 height=300><img src=""static/images/cards/stack_of_red_stars.svg"" width=""175px"" height=""250px""></img></td>
  </tr>
  <tr height=200>
    <td width=300><img src=""static/images/keys/w.svg"" width=""35%"" height=""75%""></img></td>
    <td width=300><img src=""static/images/keys/o.svg"" width=""35%"" height=""75%""></img></td>
  </tr>
</table>
  ",79.0,1.0,,,,,,,,,,,,,,,,,,,,,,,,,,
158,0,,html-keyboard-response,158,698574,0.0-7.1-1.1,3x077usqcvn,2022-09-19 13:29:19.771,5c4c57609446be00017e6746,0,59,61,30,26,43,male,1845.0,,"
  <table>
  <tr height=300>
    <td width=300 height=300><img src=""static/images/cards/back_of_red_stars.svg"" width=""175px"" height=""250px""></img></td>
    <td width=300 height=300><img src=""static/images/cards/back_of_red_stars.svg"" width=""175px"" height=""250px""></img></td>
  </tr>
  <tr height=200>
    <td width=300><img src=""static/images/keys/z.svg"" width=""35%"" height=""75%""></img></td>
    <td width=300><img src=""static/images/keys/m.svg"" width=""35%"" height=""75%""></img></td>
  </tr>
</table>
  ",90.0,1.0,,,,,,,,,,,,,,,,,,,,,,,,,,
159,0,,html-keyboard-response,159,700089,0.0-7.1-2.1,3x077usqcvn,2022-09-19 13:29:19.771,5c4c57609446be00017e6746,0,59,61,30,26,43,male,,,"
  <table>
  <tr height=300>
    <td width=300 height=300><img src=""static/images/cards/9_of_red_stars.svg"" width=""175px"" height=""250px""></img></td>
    <td width=300 height=300><img src=""static/images/cards/back_of_red_stars.svg"" width=""175px"" height=""250px""></img></td>
  </tr>
  <tr height=200>
    <td width=300><img src=""static/images/keys/z.svg"" width=""35%"" height=""75%""></img></td>
    <td width=300><img src=""static/images/keys/m.svg"" width=""35%"" height=""75%""></img></td>
  </tr>
</table>
  ",,,,,,,,,,,,,,,,,,,,,,,,,,,,
160,0,,html-keyboard-response,160,701599,0.0-7.1-3.1,3x077usqcvn,2022-09-19 13:29:19.771,5c4c57609446be00017e6746,0,59,61,30,26,43,male,,,"<p style=""font-size:50px"">You win!
+10 points this round!</p>",,,,,,,,,,,,,,,,,,,,,,,,,,,,
161,0,,html-keyboard-response,161,702122,0.0-7.1-4.1,3x077usqcvn,2022-09-19 13:29:19.771,5c4c57609446be00017e6746,0,59,61,30,26,43,male,,,,,,1.0,choice,1.0,A,D,black,red,moons,stars,D,A,A,red,stars,3612.0,1.0,1.0,NA,left,1845.0,9.0,1.0,1.0,,,
162,0,,html-keyboard-response,162,706060,0.0-7.2-0.2,3x077usqcvn,2022-09-19 13:29:19.771,5c4c57609446be00017e6746,0,59,61,30,26,43,male,3936.0,,"
  <table>
  <tr height=300>
    <td width=300 height=300><img src=""static/images/cards/stack_of_red_moons.svg"" width=""175px"" height=""250px""></img></td>
    <td width=300 height=300><img src=""static/images/cards/stack_of_black_stars.svg"" width=""175px"" height=""250px""></img></td>
  </tr>
  <tr height=200>
    <td width=300><img src=""static/images/keys/w.svg"" width=""35%"" height=""75%""></img></td>
    <td width=300><img src=""static/images/keys/o.svg"" width=""35%"" height=""75%""></img></td>
  </tr>
</table>
  ",79.0,1.0,,,,,,,,,,,,,,,,,,,,,,,,,,
163,0,,html-keyboard-response,163,707885,0.0-7.2-1.2,3x077usqcvn,2022-09-19 13:29:19.771,5c4c57609446be00017e6746,0,59,61,30,26,43,male,1323.0,,"
  <table>
  <tr height=300>
    <td width=300 height=300><img src=""static/images/cards/back_of_black_stars.svg"" width=""175px"" height=""250px""></img></td>
    <td width=300 height=300><img src=""static/images/cards/back_of_black_stars.svg"" width=""175px"" height=""250px""></img></td>
  </tr>
  <tr height=200>
    <td width=300></td>
    <td width=300><img src=""static/images/keys/m.svg"" width=""35%"" height=""75%""></img></td>
  </tr>
</table>
  ",77.0,1.0,,,,,,,,,,,,,,,,,,,,,,,,,,
164,0,,html-keyboard-response,164,709400,0.0-7.2-2.2,3x077usqcvn,2022-09-19 13:29:19.771,5c4c57609446be00017e6746,0,59,61,30,26,43,male,,,"
  <table>
  <tr height=300>
    <td width=300 height=300><img src=""static/images/cards/back_of_black_stars.svg"" width=""175px"" height=""250px""></img></td>
    <td width=300 height=300><img src=""static/images/cards/3_of_black_stars.svg"" width=""175px"" height=""250px""></img></td>
  </tr>
  <tr height=200>
    <td width=300></td>
    <td width=300><img src=""static/images/keys/m.svg"" width=""35%"" height=""75%""></img></td>
  </tr>
</table>
  ",,,,,,,,,,,,,,,,,,,,,,,,,,,,
165,0,,html-keyboard-response,165,710906,0.0-7.2-3.2,3x077usqcvn,2022-09-19 13:29:19.771,5c4c57609446be00017e6746,0,59,61,30,26,43,male,,,"<p style=""font-size:50px"">You Lose!
No points this round.</p>",,,,,,,,,,,,,,,,,,,,,,,,,,,,
166,0,,html-keyboard-response,166,711428,0.0-7.2-4.2,3x077usqcvn,2022-09-19 13:29:19.771,5c4c57609446be00017e6746,0,59,61,30,26,43,male,,,,,,1.0,choice,2.0,B,C,red,black,moons,stars,C,B,B,black,stars,3936.0,0.0,1.0,0,right,1323.0,3.0,0.0,0.0,,,
167,0,,html-keyboard-response,167,714613,0.0-7.3-0.3,3x077usqcvn,2022-09-19 13:29:19.771,5c4c57609446be00017e6746,0,59,61,30,26,43,male,3183.0,,"
  <table>
  <tr height=300>
    <td width=300 height=300><img src=""static/images/cards/stack_of_black_stars.svg"" width=""175px"" height=""250px""></img></td>
    <td width=300 height=300><img src=""static/images/cards/stack_of_red_stars.svg"" width=""175px"" height=""250px""></img></td>
  </tr>
  <tr height=200>
    <td width=300><img src=""static/images/keys/w.svg"" width=""35%"" height=""75%""></img></td>
    <td width=300><img src=""static/images/keys/o.svg"" width=""35%"" height=""75%""></img></td>
  </tr>
</table>
  ",79.0,1.0,,,,,,,,,,,,,,,,,,,,,,,,,,
168,0,,html-keyboard-response,168,717983,0.0-7.3-1.3,3x077usqcvn,2022-09-19 13:29:19.771,5c4c57609446be00017e6746,0,59,61,30,26,43,male,2854.0,,"
  <table>
  <tr height=300>
    <td width=300 height=300><img src=""static/images/cards/back_of_red_stars.svg"" width=""175px"" height=""250px""></img></td>
    <td width=300 height=300><img src=""static/images/cards/back_of_red_stars.svg"" width=""175px"" height=""250px""></img></td>
  </tr>
  <tr height=200>
    <td width=300><img src=""static/images/keys/z.svg"" width=""35%"" height=""75%""></img></td>
    <td width=300><img src=""static/images/keys/m.svg"" width=""35%"" height=""75%""></img></td>
  </tr>
</table>
  ",77.0,1.0,,,,,,,,,,,,,,,,,,,,,,,,,,
169,0,,html-keyboard-response,169,719491,0.0-7.3-2.3,3x077usqcvn,2022-09-19 13:29:19.771,5c4c57609446be00017e6746,0,59,61,30,26,43,male,,,"
  <table>
  <tr height=300>
    <td width=300 height=300><img src=""static/images/cards/back_of_red_stars.svg"" width=""175px"" height=""250px""></img></td>
    <td width=300 height=300><img src=""static/images/cards/3_of_red_stars.svg"" width=""175px"" height=""250px""></img></td>
  </tr>
  <tr height=200>
    <td width=300><img src=""static/images/keys/z.svg"" width=""35%"" height=""75%""></img></td>
    <td width=300><img src=""static/images/keys/m.svg"" width=""35%"" height=""75%""></img></td>
  </tr>
</table>
  ",,,,,,,,,,,,,,,,,,,,,,,,,,,,
170,0,,html-keyboard-response,170,721001,0.0-7.3-3.3,3x077usqcvn,2022-09-19 13:29:19.771,5c4c57609446be00017e6746,0,59,61,30,26,43,male,,,"<p style=""font-size:50px"">You Lose!
No points this round.</p>",,,,,,,,,,,,,,,,,,,,,,,,,,,,
171,0,,html-keyboard-response,171,721525,0.0-7.3-4.3,3x077usqcvn,2022-09-19 13:29:19.771,5c4c57609446be00017e6746,0,59,61,30,26,43,male,,,,,,1.0,choice,3.0,A,B,black,red,stars,stars,B,A,A,red,stars,3183.0,1.0,1.0,NA,right,2854.0,3.0,0.0,0.0,,,
172,0,,html-keyboard-response,172,725734,0.0-7.4-0.4,3x077usqcvn,2022-09-19 13:29:19.771,5c4c57609446be00017e6746,0,59,61,30,26,43,male,4208.0,,"
  <table>
  <tr height=300>
    <td width=300 height=300><img src=""static/images/cards/stack_of_black_moons.svg"" width=""175px"" height=""250px""></img></td>
    <td width=300 height=300><img src=""static/images/cards/stack_of_red_moons.svg"" width=""175px"" height=""250px""></img></td>
  </tr>
  <tr height=200>
    <td width=300><img src=""static/images/keys/w.svg"" width=""35%"" height=""75%""></img></td>
    <td width=300><img src=""static/images/keys/o.svg"" width=""35%"" height=""75%""></img></td>
  </tr>
</table>
  ",87.0,1.0,,,,,,,,,,,,,,,,,,,,,,,,,,
173,0,,html-keyboard-response,173,727378,0.0-7.4-1.4,3x077usqcvn,2022-09-19 13:29:19.771,5c4c57609446be00017e6746,0,59,61,30,26,43,male,1131.0,,"
  <table>
  <tr height=300>
    <td width=300 height=300><img src=""static/images/cards/back_of_black_moons.svg"" width=""175px"" height=""250px""></img></td>
    <td width=300 height=300><img src=""static/images/cards/back_of_black_moons.svg"" width=""175px"" height=""250px""></img></td>
  </tr>
  <tr height=200>
    <td width=300></td>
    <td width=300><img src=""static/images/keys/m.svg"" width=""35%"" height=""75%""></img></td>
  </tr>
</table>
  ",77.0,1.0,,,,,,,,,,,,,,,,,,,,,,,,,,
174,0,,html-keyboard-response,174,728884,0.0-7.4-2.4,3x077usqcvn,2022-09-19 13:29:19.771,5c4c57609446be00017e6746,0,59,61,30,26,43,male,,,"
  <table>
  <tr height=300>
    <td width=300 height=300><img src=""static/images/cards/back_of_black_moons.svg"" width=""175px"" height=""250px""></img></td>
    <td width=300 height=300><img src=""static/images/cards/3_of_black_moons.svg"" width=""175px"" height=""250px""></img></td>
  </tr>
  <tr height=200>
    <td width=300></td>
    <td width=300><img src=""static/images/keys/m.svg"" width=""35%"" height=""75%""></img></td>
  </tr>
</table>
  ",,,,,,,,,,,,,,,,,,,,,,,,,,,,
175,0,,html-keyboard-response,175,730393,0.0-7.4-3.4,3x077usqcvn,2022-09-19 13:29:19.771,5c4c57609446be00017e6746,0,59,61,30,26,43,male,,,"<p style=""font-size:50px"">You Lose!
No points this round.</p>",,,,,,,,,,,,,,,,,,,,,,,,,,,,
176,0,,html-keyboard-response,176,730915,0.0-7.4-4.4,3x077usqcvn,2022-09-19 13:29:19.771,5c4c57609446be00017e6746,0,59,61,30,26,43,male,,,,,,1.0,choice,4.0,C,D,black,red,moons,moons,D,C,D,black,moons,4208.0,0.0,0.0,0,right,1131.0,3.0,0.0,0.0,,,
177,0,,html-keyboard-response,177,733792,0.0-7.5-0.5,3x077usqcvn,2022-09-19 13:29:19.771,5c4c57609446be00017e6746,0,59,61,30,26,43,male,2876.0,,"
  <table>
  <tr height=300>
    <td width=300 height=300><img src=""static/images/cards/stack_of_black_moons.svg"" width=""175px"" height=""250px""></img></td>
    <td width=300 height=300><img src=""static/images/cards/stack_of_red_moons.svg"" width=""175px"" height=""250px""></img></td>
  </tr>
  <tr height=200>
    <td width=300><img src=""static/images/keys/w.svg"" width=""35%"" height=""75%""></img></td>
    <td width=300><img src=""static/images/keys/o.svg"" width=""35%"" height=""75%""></img></td>
  </tr>
</table>
  ",87.0,1.0,,,,,,,,,,,,,,,,,,,,,,,,,,
178,0,,html-keyboard-response,178,735587,0.0-7.5-1.5,3x077usqcvn,2022-09-19 13:29:19.771,5c4c57609446be00017e6746,0,59,61,30,26,43,male,1277.0,,"
  <table>
  <tr height=300>
    <td width=300 height=300><img src=""static/images/cards/back_of_black_moons.svg"" width=""175px"" height=""250px""></img></td>
    <td width=300 height=300><img src=""static/images/cards/back_of_black_moons.svg"" width=""175px"" height=""250px""></img></td>
  </tr>
  <tr height=200>
    <td width=300><img src=""static/images/keys/z.svg"" width=""35%"" height=""75%""></img></td>
    <td width=300></td>
  </tr>
</table>
  ",90.0,1.0,,,,,,,,,,,,,,,,,,,,,,,,,,
179,0,,html-keyboard-response,179,737096,0.0-7.5-2.5,3x077usqcvn,2022-09-19 13:29:19.771,5c4c57609446be00017e6746,0,59,61,30,26,43,male,,,"
  <table>
  <tr height=300>
    <td width=300 height=300><img src=""static/images/cards/3_of_black_moons.svg"" width=""175px"" height=""250px""></img></td>
    <td width=300 height=300><img src=""static/images/cards/back_of_black_moons.svg"" width=""175px"" height=""250px""></img></td>
  </tr>
  <tr height=200>
    <td width=300><img src=""static/images/keys/z.svg"" width=""35%"" height=""75%""></img></td>
    <td width=300></td>
  </tr>
</table>
  ",,,,,,,,,,,,,,,,,,,,,,,,,,,,
180,0,,html-keyboard-response,180,738604,0.0-7.5-3.5,3x077usqcvn,2022-09-19 13:29:19.771,5c4c57609446be00017e6746,0,59,61,30,26,43,male,,,"<p style=""font-size:50px"">You win!
+10 points this round!</p>",,,,,,,,,,,,,,,,,,,,,,,,,,,,
181,0,,html-keyboard-response,181,739128,0.0-7.5-4.5,3x077usqcvn,2022-09-19 13:29:19.771,5c4c57609446be00017e6746,0,59,61,30,26,43,male,,,,,,1.0,choice,5.0,C,D,black,red,moons,moons,D,C,D,black,moons,2876.0,0.0,0.0,1,left,1277.0,3.0,0.0,1.0,,,
182,0,,html-keyboard-response,182,740796,0.0-7.6-0.6,3x077usqcvn,2022-09-19 13:29:19.771,5c4c57609446be00017e6746,0,59,61,30,26,43,male,1667.0,,"
  <table>
  <tr height=300>
    <td width=300 height=300><img src=""static/images/cards/stack_of_red_stars.svg"" width=""175px"" height=""250px""></img></td>
    <td width=300 height=300><img src=""static/images/cards/stack_of_black_moons.svg"" width=""175px"" height=""250px""></img></td>
  </tr>
  <tr height=200>
    <td width=300><img src=""static/images/keys/w.svg"" width=""35%"" height=""75%""></img></td>
    <td width=300><img src=""static/images/keys/o.svg"" width=""35%"" height=""75%""></img></td>
  </tr>
</table>
  ",87.0,1.0,,,,,,,,,,,,,,,,,,,,,,,,,,
183,0,,html-keyboard-response,183,742662,0.0-7.6-1.6,3x077usqcvn,2022-09-19 13:29:19.771,5c4c57609446be00017e6746,0,59,61,30,26,43,male,1361.0,,"
  <table>
  <tr height=300>
    <td width=300 height=300><img src=""static/images/cards/back_of_red_stars.svg"" width=""175px"" height=""250px""></img></td>
    <td width=300 height=300><img src=""static/images/cards/back_of_red_stars.svg"" width=""175px"" height=""250px""></img></td>
  </tr>
  <tr height=200>
    <td width=300><img src=""static/images/keys/z.svg"" width=""35%"" height=""75%""></img></td>
    <td width=300><img src=""static/images/keys/m.svg"" width=""35%"" height=""75%""></img></td>
  </tr>
</table>
  ",90.0,1.0,,,,,,,,,,,,,,,,,,,,,,,,,,
184,0,,html-keyboard-response,184,744169,0.0-7.6-2.6,3x077usqcvn,2022-09-19 13:29:19.771,5c4c57609446be00017e6746,0,59,61,30,26,43,male,,,"
  <table>
  <tr height=300>
    <td width=300 height=300><img src=""static/images/cards/1_of_red_stars.svg"" width=""175px"" height=""250px""></img></td>
    <td width=300 height=300><img src=""static/images/cards/back_of_red_stars.svg"" width=""175px"" height=""250px""></img></td>
  </tr>
  <tr height=200>
    <td width=300><img src=""static/images/keys/z.svg"" width=""35%"" height=""75%""></img></td>
    <td width=300><img src=""static/images/keys/m.svg"" width=""35%"" height=""75%""></img></td>
  </tr>
</table>
  ",,,,,,,,,,,,,,,,,,,,,,,,,,,,
185,0,,html-keyboard-response,185,745680,0.0-7.6-3.6,3x077usqcvn,2022-09-19 13:29:19.771,5c4c57609446be00017e6746,0,59,61,30,26,43,male,,,"<p style=""font-size:50px"">You Lose!
No points this round.</p>",,,,,,,,,,,,,,,,,,,,,,,,,,,,
186,0,,html-keyboard-response,186,746201,0.0-7.6-4.6,3x077usqcvn,2022-09-19 13:29:19.771,5c4c57609446be00017e6746,0,59,61,30,26,43,male,,,,,,1.0,choice,6.0,A,D,red,black,stars,moons,A,D,A,red,stars,1667.0,1.0,1.0,NA,left,1361.0,1.0,0.0,0.0,,,
187,0,,html-keyboard-response,187,747615,0.0-7.7-0.7,3x077usqcvn,2022-09-19 13:29:19.771,5c4c57609446be00017e6746,0,59,61,30,26,43,male,1413.0,,"
  <table>
  <tr height=300>
    <td width=300 height=300><img src=""static/images/cards/stack_of_red_stars.svg"" width=""175px"" height=""250px""></img></td>
    <td width=300 height=300><img src=""static/images/cards/stack_of_red_moons.svg"" width=""175px"" height=""250px""></img></td>
  </tr>
  <tr height=200>
    <td width=300><img src=""static/images/keys/w.svg"" width=""35%"" height=""75%""></img></td>
    <td width=300><img src=""static/images/keys/o.svg"" width=""35%"" height=""75%""></img></td>
  </tr>
</table>
  ",87.0,1.0,,,,,,,,,,,,,,,,,,,,,,,,,,
188,0,,html-keyboard-response,188,749309,0.0-7.7-1.7,3x077usqcvn,2022-09-19 13:29:19.771,5c4c57609446be00017e6746,0,59,61,30,26,43,male,1183.0,,"
  <table>
  <tr height=300>
    <td width=300 height=300><img src=""static/images/cards/back_of_red_stars.svg"" width=""175px"" height=""250px""></img></td>
    <td width=300 height=300><img src=""static/images/cards/back_of_red_stars.svg"" width=""175px"" height=""250px""></img></td>
  </tr>
  <tr height=200>
    <td width=300><img src=""static/images/keys/z.svg"" width=""35%"" height=""75%""></img></td>
    <td width=300><img src=""static/images/keys/m.svg"" width=""35%"" height=""75%""></img></td>
  </tr>
</table>
  ",90.0,1.0,,,,,,,,,,,,,,,,,,,,,,,,,,
189,0,,html-keyboard-response,189,750819,0.0-7.7-2.7,3x077usqcvn,2022-09-19 13:29:19.771,5c4c57609446be00017e6746,0,59,61,30,26,43,male,,,"
  <table>
  <tr height=300>
    <td width=300 height=300><img src=""static/images/cards/2_of_red_stars.svg"" width=""175px"" height=""250px""></img></td>
    <td width=300 height=300><img src=""static/images/cards/back_of_red_stars.svg"" width=""175px"" height=""250px""></img></td>
  </tr>
  <tr height=200>
    <td width=300><img src=""static/images/keys/z.svg"" width=""35%"" height=""75%""></img></td>
    <td width=300><img src=""static/images/keys/m.svg"" width=""35%"" height=""75%""></img></td>
  </tr>
</table>
  ",,,,,,,,,,,,,,,,,,,,,,,,,,,,
190,0,,html-keyboard-response,190,752326,0.0-7.7-3.7,3x077usqcvn,2022-09-19 13:29:19.771,5c4c57609446be00017e6746,0,59,61,30,26,43,male,,,"<p style=""font-size:50px"">You Lose!
No points this round.</p>",,,,,,,,,,,,,,,,,,,,,,,,,,,,
191,0,,html-keyboard-response,191,752850,0.0-7.7-4.7,3x077usqcvn,2022-09-19 13:29:19.771,5c4c57609446be00017e6746,0,59,61,30,26,43,male,,,,,,1.0,choice,7.0,A,C,red,red,stars,moons,A,C,A,red,stars,1413.0,1.0,1.0,NA,left,1183.0,2.0,0.0,0.0,,,
192,0,,html-keyboard-response,192,754333,0.0-7.8-0.8,3x077usqcvn,2022-09-19 13:29:19.771,5c4c57609446be00017e6746,0,59,61,30,26,43,male,1482.0,,"
  <table>
  <tr height=300>
    <td width=300 height=300><img src=""static/images/cards/stack_of_red_bolts.svg"" width=""175px"" height=""250px""></img></td>
    <td width=300 height=300><img src=""static/images/cards/stack_of_black_moons.svg"" width=""175px"" height=""250px""></img></td>
  </tr>
  <tr height=200>
    <td width=300><img src=""static/images/keys/w.svg"" width=""35%"" height=""75%""></img></td>
    <td width=300><img src=""static/images/keys/o.svg"" width=""35%"" height=""75%""></img></td>
  </tr>
</table>
  ",87.0,1.0,,,,,,,,,,,,,,,,,,,,,,,,,,
193,0,,html-keyboard-response,193,755976,0.0-7.8-1.8,3x077usqcvn,2022-09-19 13:29:19.771,5c4c57609446be00017e6746,0,59,61,30,26,43,male,1132.0,,"
  <table>
  <tr height=300>
    <td width=300 height=300><img src=""static/images/cards/back_of_red_bolts.svg"" width=""175px"" height=""250px""></img></td>
    <td width=300 height=300><img src=""static/images/cards/back_of_red_bolts.svg"" width=""175px"" height=""250px""></img></td>
  </tr>
  <tr height=200>
    <td width=300><img src=""static/images/keys/z.svg"" width=""35%"" height=""75%""></img></td>
    <td width=300><img src=""static/images/keys/m.svg"" width=""35%"" height=""75%""></img></td>
  </tr>
</table>
  ",90.0,1.0,,,,,,,,,,,,,,,,,,,,,,,,,,
194,0,,html-keyboard-response,194,757480,0.0-7.8-2.8,3x077usqcvn,2022-09-19 13:29:19.771,5c4c57609446be00017e6746,0,59,61,30,26,43,male,,,"
  <table>
  <tr height=300>
    <td width=300 height=300><img src=""static/images/cards/2_of_red_bolts.svg"" width=""175px"" height=""250px""></img></td>
    <td width=300 height=300><img src=""static/images/cards/back_of_red_bolts.svg"" width=""175px"" height=""250px""></img></td>
  </tr>
  <tr height=200>
    <td width=300><img src=""static/images/keys/z.svg"" width=""35%"" height=""75%""></img></td>
    <td width=300><img src=""static/images/keys/m.svg"" width=""35%"" height=""75%""></img></td>
  </tr>
</table>
  ",,,,,,,,,,,,,,,,,,,,,,,,,,,,
195,0,,html-keyboard-response,195,758990,0.0-7.8-3.8,3x077usqcvn,2022-09-19 13:29:19.771,5c4c57609446be00017e6746,0,59,61,30,26,43,male,,,"<p style=""font-size:50px"">You win!
+10 points this round!</p>",,,,,,,,,,,,,,,,,,,,,,,,,,,,
196,0,,html-keyboard-response,196,759514,0.0-7.8-4.8,3x077usqcvn,2022-09-19 13:29:19.771,5c4c57609446be00017e6746,0,59,61,30,26,43,male,,,,,,1.0,choice,8.0,D,Xc,red,black,bolts,moons,Xc,D,Xc,red,bolts,1482.0,1.0,0.0,NA,left,1132.0,2.0,0.0,1.0,,,
197,0,,html-keyboard-response,197,760891,0.0-7.9-0.9,3x077usqcvn,2022-09-19 13:29:19.771,5c4c57609446be00017e6746,0,59,61,30,26,43,male,1375.0,,"
  <table>
  <tr height=300>
    <td width=300 height=300><img src=""static/images/cards/stack_of_red_stars.svg"" width=""175px"" height=""250px""></img></td>
    <td width=300 height=300><img src=""static/images/cards/stack_of_black_moons.svg"" width=""175px"" height=""250px""></img></td>
  </tr>
  <tr height=200>
    <td width=300><img src=""static/images/keys/w.svg"" width=""35%"" height=""75%""></img></td>
    <td width=300><img src=""static/images/keys/o.svg"" width=""35%"" height=""75%""></img></td>
  </tr>
</table>
  ",87.0,1.0,,,,,,,,,,,,,,,,,,,,,,,,,,
198,0,,html-keyboard-response,198,762422,0.0-7.9-1.9,3x077usqcvn,2022-09-19 13:29:19.771,5c4c57609446be00017e6746,0,59,61,30,26,43,male,1018.0,,"
  <table>
  <tr height=300>
    <td width=300 height=300><img src=""static/images/cards/back_of_red_stars.svg"" width=""175px"" height=""250px""></img></td>
    <td width=300 height=300><img src=""static/images/cards/back_of_red_stars.svg"" width=""175px"" height=""250px""></img></td>
  </tr>
  <tr height=200>
    <td width=300><img src=""static/images/keys/z.svg"" width=""35%"" height=""75%""></img></td>
    <td width=300><img src=""static/images/keys/m.svg"" width=""35%"" height=""75%""></img></td>
  </tr>
</table>
  ",77.0,1.0,,,,,,,,,,,,,,,,,,,,,,,,,,
199,0,,html-keyboard-response,199,763939,0.0-7.9-2.9,3x077usqcvn,2022-09-19 13:29:19.771,5c4c57609446be00017e6746,0,59,61,30,26,43,male,,,"
  <table>
  <tr height=300>
    <td width=300 height=300><img src=""static/images/cards/back_of_red_stars.svg"" width=""175px"" height=""250px""></img></td>
    <td width=300 height=300><img src=""static/images/cards/2_of_red_stars.svg"" width=""175px"" height=""250px""></img></td>
  </tr>
  <tr height=200>
    <td width=300><img src=""static/images/keys/z.svg"" width=""35%"" height=""75%""></img></td>
    <td width=300><img src=""static/images/keys/m.svg"" width=""35%"" height=""75%""></img></td>
  </tr>
</table>
  ",,,,,,,,,,,,,,,,,,,,,,,,,,,,
200,0,,html-keyboard-response,200,765449,0.0-7.9-3.9,3x077usqcvn,2022-09-19 13:29:19.771,5c4c57609446be00017e6746,0,59,61,30,26,43,male,,,"<p style=""font-size:50px"">You Lose!
No points this round.</p>",,,,,,,,,,,,,,,,,,,,,,,,,,,,
201,0,,html-keyboard-response,201,765973,0.0-7.9-4.9,3x077usqcvn,2022-09-19 13:29:19.771,5c4c57609446be00017e6746,0,59,61,30,26,43,male,,,,,,1.0,choice,9.0,A,D,red,black,stars,moons,A,D,A,red,stars,1375.0,1.0,1.0,NA,right,1018.0,2.0,0.0,0.0,,,
202,0,,html-keyboard-response,202,767566,0.0-7.10-0.10,3x077usqcvn,2022-09-19 13:29:19.771,5c4c57609446be00017e6746,0,59,61,30,26,43,male,1592.0,,"
  <table>
  <tr height=300>
    <td width=300 height=300><img src=""static/images/cards/stack_of_red_stars.svg"" width=""175px"" height=""250px""></img></td>
    <td width=300 height=300><img src=""static/images/cards/stack_of_red_moons.svg"" width=""175px"" height=""250px""></img></td>
  </tr>
  <tr height=200>
    <td width=300><img src=""static/images/keys/w.svg"" width=""35%"" height=""75%""></img></td>
    <td width=300><img src=""static/images/keys/o.svg"" width=""35%"" height=""75%""></img></td>
  </tr>
</table>
  ",87.0,1.0,,,,,,,,,,,,,,,,,,,,,,,,,,
203,0,,html-keyboard-response,203,768966,0.0-7.10-1.10,3x077usqcvn,2022-09-19 13:29:19.771,5c4c57609446be00017e6746,0,59,61,30,26,43,male,898.0,,"
  <table>
  <tr height=300>
    <td width=300 height=300><img src=""static/images/cards/back_of_red_stars.svg"" width=""175px"" height=""250px""></img></td>
    <td width=300 height=300><img src=""static/images/cards/back_of_red_stars.svg"" width=""175px"" height=""250px""></img></td>
  </tr>
  <tr height=200>
    <td width=300><img src=""static/images/keys/z.svg"" width=""35%"" height=""75%""></img></td>
    <td width=300><img src=""static/images/keys/m.svg"" width=""35%"" height=""75%""></img></td>
  </tr>
</table>
  ",90.0,1.0,,,,,,,,,,,,,,,,,,,,,,,,,,
204,0,,html-keyboard-response,204,770484,0.0-7.10-2.10,3x077usqcvn,2022-09-19 13:29:19.771,5c4c57609446be00017e6746,0,59,61,30,26,43,male,,,"
  <table>
  <tr height=300>
    <td width=300 height=300><img src=""static/images/cards/7_of_red_stars.svg"" width=""175px"" height=""250px""></img></td>
    <td width=300 height=300><img src=""static/images/cards/back_of_red_stars.svg"" width=""175px"" height=""250px""></img></td>
  </tr>
  <tr height=200>
    <td width=300><img src=""static/images/keys/z.svg"" width=""35%"" height=""75%""></img></td>
    <td width=300><img src=""static/images/keys/m.svg"" width=""35%"" height=""75%""></img></td>
  </tr>
</table>
  ",,,,,,,,,,,,,,,,,,,,,,,,,,,,
205,0,,html-keyboard-response,205,771994,0.0-7.10-3.10,3x077usqcvn,2022-09-19 13:29:19.771,5c4c57609446be00017e6746,0,59,61,30,26,43,male,,,"<p style=""font-size:50px"">You win!
+10 points this round!</p>",,,,,,,,,,,,,,,,,,,,,,,,,,,,
206,0,,html-keyboard-response,206,772517,0.0-7.10-4.10,3x077usqcvn,2022-09-19 13:29:19.771,5c4c57609446be00017e6746,0,59,61,30,26,43,male,,,,,,1.0,choice,10.0,A,C,red,red,stars,moons,A,C,A,red,stars,1592.0,1.0,1.0,NA,left,898.0,7.0,1.0,1.0,,,
207,0,,html-keyboard-response,207,775175,0.0-7.11-0.11,3x077usqcvn,2022-09-19 13:29:19.771,5c4c57609446be00017e6746,0,59,61,30,26,43,male,2658.0,,"
  <table>
  <tr height=300>
    <td width=300 height=300><img src=""static/images/cards/stack_of_black_moons.svg"" width=""175px"" height=""250px""></img></td>
    <td width=300 height=300><img src=""static/images/cards/stack_of_red_moons.svg"" width=""175px"" height=""250px""></img></td>
  </tr>
  <tr height=200>
    <td width=300><img src=""static/images/keys/w.svg"" width=""35%"" height=""75%""></img></td>
    <td width=300><img src=""static/images/keys/o.svg"" width=""35%"" height=""75%""></img></td>
  </tr>
</table>
  ",87.0,1.0,,,,,,,,,,,,,,,,,,,,,,,,,,
208,0,,html-keyboard-response,208,776939,0.0-7.11-1.11,3x077usqcvn,2022-09-19 13:29:19.771,5c4c57609446be00017e6746,0,59,61,30,26,43,male,1263.0,,"
  <table>
  <tr height=300>
    <td width=300 height=300><img src=""static/images/cards/back_of_black_moons.svg"" width=""175px"" height=""250px""></img></td>
    <td width=300 height=300><img src=""static/images/cards/back_of_black_moons.svg"" width=""175px"" height=""250px""></img></td>
  </tr>
  <tr height=200>
    <td width=300><img src=""static/images/keys/z.svg"" width=""35%"" height=""75%""></img></td>
    <td width=300></td>
  </tr>
</table>
  ",90.0,1.0,,,,,,,,,,,,,,,,,,,,,,,,,,
209,0,,html-keyboard-response,209,778453,0.0-7.11-2.11,3x077usqcvn,2022-09-19 13:29:19.771,5c4c57609446be00017e6746,0,59,61,30,26,43,male,,,"
  <table>
  <tr height=300>
    <td width=300 height=300><img src=""static/images/cards/1_of_black_moons.svg"" width=""175px"" height=""250px""></img></td>
    <td width=300 height=300><img src=""static/images/cards/back_of_black_moons.svg"" width=""175px"" height=""250px""></img></td>
  </tr>
  <tr height=200>
    <td width=300><img src=""static/images/keys/z.svg"" width=""35%"" height=""75%""></img></td>
    <td width=300></td>
  </tr>
</table>
  ",,,,,,,,,,,,,,,,,,,,,,,,,,,,
210,0,,html-keyboard-response,210,779964,0.0-7.11-3.11,3x077usqcvn,2022-09-19 13:29:19.771,5c4c57609446be00017e6746,0,59,61,30,26,43,male,,,"<p style=""font-size:50px"">You win!
+10 points this round!</p>",,,,,,,,,,,,,,,,,,,,,,,,,,,,
211,0,,html-keyboard-response,211,780487,0.0-7.11-4.11,3x077usqcvn,2022-09-19 13:29:19.771,5c4c57609446be00017e6746,0,59,61,30,26,43,male,,,,,,1.0,choice,11.0,C,D,black,red,moons,moons,D,C,D,black,moons,2658.0,0.0,0.0,1,left,1263.0,1.0,0.0,1.0,,,
212,0,,html-keyboard-response,212,782440,0.0-7.12-0.12,3x077usqcvn,2022-09-19 13:29:19.771,5c4c57609446be00017e6746,0,59,61,30,26,43,male,1951.0,,"
  <table>
  <tr height=300>
    <td width=300 height=300><img src=""static/images/cards/stack_of_black_stars.svg"" width=""175px"" height=""250px""></img></td>
    <td width=300 height=300><img src=""static/images/cards/stack_of_red_moons.svg"" width=""175px"" height=""250px""></img></td>
  </tr>
  <tr height=200>
    <td width=300><img src=""static/images/keys/w.svg"" width=""35%"" height=""75%""></img></td>
    <td width=300><img src=""static/images/keys/o.svg"" width=""35%"" height=""75%""></img></td>
  </tr>
</table>
  ",87.0,1.0,,,,,,,,,,,,,,,,,,,,,,,,,,
213,0,,html-keyboard-response,213,783982,0.0-7.12-1.12,3x077usqcvn,2022-09-19 13:29:19.771,5c4c57609446be00017e6746,0,59,61,30,26,43,male,1032.0,,"
  <table>
  <tr height=300>
    <td width=300 height=300><img src=""static/images/cards/back_of_black_stars.svg"" width=""175px"" height=""250px""></img></td>
    <td width=300 height=300><img src=""static/images/cards/back_of_black_stars.svg"" width=""175px"" height=""250px""></img></td>
  </tr>
  <tr height=200>
    <td width=300><img src=""static/images/keys/z.svg"" width=""35%"" height=""75%""></img></td>
    <td width=300></td>
  </tr>
</table>
  ",90.0,1.0,,,,,,,,,,,,,,,,,,,,,,,,,,
214,0,,html-keyboard-response,214,785484,0.0-7.12-2.12,3x077usqcvn,2022-09-19 13:29:19.771,5c4c57609446be00017e6746,0,59,61,30,26,43,male,,,"
  <table>
  <tr height=300>
    <td width=300 height=300><img src=""static/images/cards/4_of_black_stars.svg"" width=""175px"" height=""250px""></img></td>
    <td width=300 height=300><img src=""static/images/cards/back_of_black_stars.svg"" width=""175px"" height=""250px""></img></td>
  </tr>
  <tr height=200>
    <td width=300><img src=""static/images/keys/z.svg"" width=""35%"" height=""75%""></img></td>
    <td width=300></td>
  </tr>
</table>
  ",,,,,,,,,,,,,,,,,,,,,,,,,,,,
215,0,,html-keyboard-response,215,786993,0.0-7.12-3.12,3x077usqcvn,2022-09-19 13:29:19.771,5c4c57609446be00017e6746,0,59,61,30,26,43,male,,,"<p style=""font-size:50px"">You Lose!
No points this round.</p>",,,,,,,,,,,,,,,,,,,,,,,,,,,,
216,0,,html-keyboard-response,216,787517,0.0-7.12-4.12,3x077usqcvn,2022-09-19 13:29:19.771,5c4c57609446be00017e6746,0,59,61,30,26,43,male,,,,,,1.0,choice,12.0,B,C,black,red,stars,moons,B,C,B,black,stars,1951.0,0.0,1.0,1,left,1032.0,4.0,0.0,0.0,,,
217,0,,html-keyboard-response,217,789779,0.0-7.13-0.13,3x077usqcvn,2022-09-19 13:29:19.771,5c4c57609446be00017e6746,0,59,61,30,26,43,male,2261.0,,"
  <table>
  <tr height=300>
    <td width=300 height=300><img src=""static/images/cards/stack_of_black_stars.svg"" width=""175px"" height=""250px""></img></td>
    <td width=300 height=300><img src=""static/images/cards/stack_of_black_moons.svg"" width=""175px"" height=""250px""></img></td>
  </tr>
  <tr height=200>
    <td width=300><img src=""static/images/keys/w.svg"" width=""35%"" height=""75%""></img></td>
    <td width=300><img src=""static/images/keys/o.svg"" width=""35%"" height=""75%""></img></td>
  </tr>
</table>
  ",87.0,1.0,,,,,,,,,,,,,,,,,,,,,,,,,,
218,0,,html-keyboard-response,218,792388,0.0-7.13-1.13,3x077usqcvn,2022-09-19 13:29:19.771,5c4c57609446be00017e6746,0,59,61,30,26,43,male,2091.0,,"
  <table>
  <tr height=300>
    <td width=300 height=300><img src=""static/images/cards/back_of_black_stars.svg"" width=""175px"" height=""250px""></img></td>
    <td width=300 height=300><img src=""static/images/cards/back_of_black_stars.svg"" width=""175px"" height=""250px""></img></td>
  </tr>
  <tr height=200>
    <td width=300></td>
    <td width=300><img src=""static/images/keys/m.svg"" width=""35%"" height=""75%""></img></td>
  </tr>
</table>
  ",77.0,1.0,,,,,,,,,,,,,,,,,,,,,,,,,,
219,0,,html-keyboard-response,219,793899,0.0-7.13-2.13,3x077usqcvn,2022-09-19 13:29:19.771,5c4c57609446be00017e6746,0,59,61,30,26,43,male,,,"
  <table>
  <tr height=300>
    <td width=300 height=300><img src=""static/images/cards/back_of_black_stars.svg"" width=""175px"" height=""250px""></img></td>
    <td width=300 height=300><img src=""static/images/cards/2_of_black_stars.svg"" width=""175px"" height=""250px""></img></td>
  </tr>
  <tr height=200>
    <td width=300></td>
    <td width=300><img src=""static/images/keys/m.svg"" width=""35%"" height=""75%""></img></td>
  </tr>
</table>
  ",,,,,,,,,,,,,,,,,,,,,,,,,,,,
220,0,,html-keyboard-response,220,795408,0.0-7.13-3.13,3x077usqcvn,2022-09-19 13:29:19.771,5c4c57609446be00017e6746,0,59,61,30,26,43,male,,,"<p style=""font-size:50px"">You Lose!
No points this round.</p>",,,,,,,,,,,,,,,,,,,,,,,,,,,,
221,0,,html-keyboard-response,221,795932,0.0-7.13-4.13,3x077usqcvn,2022-09-19 13:29:19.771,5c4c57609446be00017e6746,0,59,61,30,26,43,male,,,,,,1.0,choice,13.0,B,D,black,black,stars,moons,B,D,B,black,stars,2261.0,0.0,1.0,0,right,2091.0,2.0,0.0,0.0,,,
222,0,,html-keyboard-response,222,797705,0.0-7.14-0.14,3x077usqcvn,2022-09-19 13:29:19.771,5c4c57609446be00017e6746,0,59,61,30,26,43,male,1774.0,,"
  <table>
  <tr height=300>
    <td width=300 height=300><img src=""static/images/cards/stack_of_red_stars.svg"" width=""175px"" height=""250px""></img></td>
    <td width=300 height=300><img src=""static/images/cards/stack_of_red_moons.svg"" width=""175px"" height=""250px""></img></td>
  </tr>
  <tr height=200>
    <td width=300><img src=""static/images/keys/w.svg"" width=""35%"" height=""75%""></img></td>
    <td width=300><img src=""static/images/keys/o.svg"" width=""35%"" height=""75%""></img></td>
  </tr>
</table>
  ",87.0,1.0,,,,,,,,,,,,,,,,,,,,,,,,,,
223,0,,html-keyboard-response,223,799401,0.0-7.14-1.14,3x077usqcvn,2022-09-19 13:29:19.771,5c4c57609446be00017e6746,0,59,61,30,26,43,male,1183.0,,"
  <table>
  <tr height=300>
    <td width=300 height=300><img src=""static/images/cards/back_of_red_stars.svg"" width=""175px"" height=""250px""></img></td>
    <td width=300 height=300><img src=""static/images/cards/back_of_red_stars.svg"" width=""175px"" height=""250px""></img></td>
  </tr>
  <tr height=200>
    <td width=300><img src=""static/images/keys/z.svg"" width=""35%"" height=""75%""></img></td>
    <td width=300><img src=""static/images/keys/m.svg"" width=""35%"" height=""75%""></img></td>
  </tr>
</table>
  ",90.0,1.0,,,,,,,,,,,,,,,,,,,,,,,,,,
224,0,,html-keyboard-response,224,800910,0.0-7.14-2.14,3x077usqcvn,2022-09-19 13:29:19.771,5c4c57609446be00017e6746,0,59,61,30,26,43,male,,,"
  <table>
  <tr height=300>
    <td width=300 height=300><img src=""static/images/cards/6_of_red_stars.svg"" width=""175px"" height=""250px""></img></td>
    <td width=300 height=300><img src=""static/images/cards/back_of_red_stars.svg"" width=""175px"" height=""250px""></img></td>
  </tr>
  <tr height=200>
    <td width=300><img src=""static/images/keys/z.svg"" width=""35%"" height=""75%""></img></td>
    <td width=300><img src=""static/images/keys/m.svg"" width=""35%"" height=""75%""></img></td>
  </tr>
</table>
  ",,,,,,,,,,,,,,,,,,,,,,,,,,,,
225,0,,html-keyboard-response,225,802420,0.0-7.14-3.14,3x077usqcvn,2022-09-19 13:29:19.771,5c4c57609446be00017e6746,0,59,61,30,26,43,male,,,"<p style=""font-size:50px"">You win!
+10 points this round!</p>",,,,,,,,,,,,,,,,,,,,,,,,,,,,
226,0,,html-keyboard-response,226,802944,0.0-7.14-4.14,3x077usqcvn,2022-09-19 13:29:19.771,5c4c57609446be00017e6746,0,59,61,30,26,43,male,,,,,,1.0,choice,14.0,A,C,red,red,stars,moons,A,C,A,red,stars,1774.0,1.0,1.0,NA,left,1183.0,6.0,1.0,1.0,,,
227,0,,html-keyboard-response,227,804433,0.0-7.15-0.15,3x077usqcvn,2022-09-19 13:29:19.771,5c4c57609446be00017e6746,0,59,61,30,26,43,male,1488.0,,"
  <table>
  <tr height=300>
    <td width=300 height=300><img src=""static/images/cards/stack_of_red_stars.svg"" width=""175px"" height=""250px""></img></td>
    <td width=300 height=300><img src=""static/images/cards/stack_of_black_stars.svg"" width=""175px"" height=""250px""></img></td>
  </tr>
  <tr height=200>
    <td width=300><img src=""static/images/keys/w.svg"" width=""35%"" height=""75%""></img></td>
    <td width=300><img src=""static/images/keys/o.svg"" width=""35%"" height=""75%""></img></td>
  </tr>
</table>
  ",87.0,1.0,,,,,,,,,,,,,,,,,,,,,,,,,,
228,0,,html-keyboard-response,228,806230,0.0-7.15-1.15,3x077usqcvn,2022-09-19 13:29:19.771,5c4c57609446be00017e6746,0,59,61,30,26,43,male,1295.0,,"
  <table>
  <tr height=300>
    <td width=300 height=300><img src=""static/images/cards/back_of_red_stars.svg"" width=""175px"" height=""250px""></img></td>
    <td width=300 height=300><img src=""static/images/cards/back_of_red_stars.svg"" width=""175px"" height=""250px""></img></td>
  </tr>
  <tr height=200>
    <td width=300><img src=""static/images/keys/z.svg"" width=""35%"" height=""75%""></img></td>
    <td width=300><img src=""static/images/keys/m.svg"" width=""35%"" height=""75%""></img></td>
  </tr>
</table>
  ",90.0,1.0,,,,,,,,,,,,,,,,,,,,,,,,,,
229,0,,html-keyboard-response,229,807734,0.0-7.15-2.15,3x077usqcvn,2022-09-19 13:29:19.771,5c4c57609446be00017e6746,0,59,61,30,26,43,male,,,"
  <table>
  <tr height=300>
    <td width=300 height=300><img src=""static/images/cards/6_of_red_stars.svg"" width=""175px"" height=""250px""></img></td>
    <td width=300 height=300><img src=""static/images/cards/back_of_red_stars.svg"" width=""175px"" height=""250px""></img></td>
  </tr>
  <tr height=200>
    <td width=300><img src=""static/images/keys/z.svg"" width=""35%"" height=""75%""></img></td>
    <td width=300><img src=""static/images/keys/m.svg"" width=""35%"" height=""75%""></img></td>
  </tr>
</table>
  ",,,,,,,,,,,,,,,,,,,,,,,,,,,,
230,0,,html-keyboard-response,230,809244,0.0-7.15-3.15,3x077usqcvn,2022-09-19 13:29:19.771,5c4c57609446be00017e6746,0,59,61,30,26,43,male,,,"<p style=""font-size:50px"">You win!
+10 points this round!</p>",,,,,,,,,,,,,,,,,,,,,,,,,,,,
231,0,,html-keyboard-response,231,809768,0.0-7.15-4.15,3x077usqcvn,2022-09-19 13:29:19.771,5c4c57609446be00017e6746,0,59,61,30,26,43,male,,,,,,1.0,choice,15.0,A,B,red,black,stars,stars,A,B,A,red,stars,1488.0,1.0,1.0,NA,left,1295.0,6.0,1.0,1.0,,,
232,0,,html-keyboard-response,232,811446,0.0-7.16-0.16,3x077usqcvn,2022-09-19 13:29:19.771,5c4c57609446be00017e6746,0,59,61,30,26,43,male,1676.0,,"
  <table>
  <tr height=300>
    <td width=300 height=300><img src=""static/images/cards/stack_of_black_stars.svg"" width=""175px"" height=""250px""></img></td>
    <td width=300 height=300><img src=""static/images/cards/stack_of_black_moons.svg"" width=""175px"" height=""250px""></img></td>
  </tr>
  <tr height=200>
    <td width=300><img src=""static/images/keys/w.svg"" width=""35%"" height=""75%""></img></td>
    <td width=300><img src=""static/images/keys/o.svg"" width=""35%"" height=""75%""></img></td>
  </tr>
</table>
  ",87.0,1.0,,,,,,,,,,,,,,,,,,,,,,,,,,
233,0,,html-keyboard-response,233,813080,0.0-7.16-1.16,3x077usqcvn,2022-09-19 13:29:19.771,5c4c57609446be00017e6746,0,59,61,30,26,43,male,1117.0,,"
  <table>
  <tr height=300>
    <td width=300 height=300><img src=""static/images/cards/back_of_black_stars.svg"" width=""175px"" height=""250px""></img></td>
    <td width=300 height=300><img src=""static/images/cards/back_of_black_stars.svg"" width=""175px"" height=""250px""></img></td>
  </tr>
  <tr height=200>
    <td width=300><img src=""static/images/keys/z.svg"" width=""35%"" height=""75%""></img></td>
    <td width=300></td>
  </tr>
</table>
  ",90.0,1.0,,,,,,,,,,,,,,,,,,,,,,,,,,
234,0,,html-keyboard-response,234,814598,0.0-7.16-2.16,3x077usqcvn,2022-09-19 13:29:19.771,5c4c57609446be00017e6746,0,59,61,30,26,43,male,,,"
  <table>
  <tr height=300>
    <td width=300 height=300><img src=""static/images/cards/10_of_black_stars.svg"" width=""175px"" height=""250px""></img></td>
    <td width=300 height=300><img src=""static/images/cards/back_of_black_stars.svg"" width=""175px"" height=""250px""></img></td>
  </tr>
  <tr height=200>
    <td width=300><img src=""static/images/keys/z.svg"" width=""35%"" height=""75%""></img></td>
    <td width=300></td>
  </tr>
</table>
  ",,,,,,,,,,,,,,,,,,,,,,,,,,,,
235,0,,html-keyboard-response,235,816109,0.0-7.16-3.16,3x077usqcvn,2022-09-19 13:29:19.771,5c4c57609446be00017e6746,0,59,61,30,26,43,male,,,"<p style=""font-size:50px"">You win!
+10 points this round!</p>",,,,,,,,,,,,,,,,,,,,,,,,,,,,
236,0,,html-keyboard-response,236,816632,0.0-7.16-4.16,3x077usqcvn,2022-09-19 13:29:19.771,5c4c57609446be00017e6746,0,59,61,30,26,43,male,,,,,,1.0,choice,16.0,B,D,black,black,stars,moons,B,D,B,black,stars,1676.0,0.0,1.0,1,left,1117.0,10.0,1.0,1.0,,,
237,0,,html-keyboard-response,237,818498,0.0-7.17-0.17,3x077usqcvn,2022-09-19 13:29:19.771,5c4c57609446be00017e6746,0,59,61,30,26,43,male,1865.0,,"
  <table>
  <tr height=300>
    <td width=300 height=300><img src=""static/images/cards/stack_of_black_moons.svg"" width=""175px"" height=""250px""></img></td>
