,index,success,trial_type,trial_index,time_elapsed,internal_node_id,subject,date,prol_id,ctbl,sense_of_control_A,sense_of_control_B,sense_of_control_C,sense_of_control_D,age,gender,rt,url,stimulus,key_press,npress,is_data_trial,phase,trial,deck1,deck2,col1,col2,sym1,sym2,deck_l,deck_r,chosen_deck,chosen_col,chosen_sym,deck_rt,choose_choice,mutual_info,hidden_key,chosen_card,card_rt,player_num,win_card,outcome,mock_rating,response,responses
0,0,1.0,fullscreen,0,4673,0.0-0.0,vljmoowjl7,2022-09-19 13:29:21.577,5ab3fc4b5f01000001cb07e2,1,81,80,23,25,41,man,,,,,,,,,,,,,,,,,,,,,,,,,,,,,,,
1,0,,external-html,1,19949,0.0-1.0,vljmoowjl7,2022-09-19 13:29:21.577,5ab3fc4b5f01000001cb07e2,1,81,80,23,25,41,man,15203.0,static/js/sub/consent.html,,,,,,,,,,,,,,,,,,,,,,,,,,,,,
2,0,,call-function,2,19952,0.0-2.0,vljmoowjl7,2022-09-19 13:29:21.577,5ab3fc4b5f01000001cb07e2,1,81,80,23,25,41,man,,,,,,,,,,,,,,,,,,,,,,,,,,,,,,,
3,0,,image-keyboard-response,3,25300,0.0-3.0-0.0,vljmoowjl7,2022-09-19 13:29:21.577,5ab3fc4b5f01000001cb07e2,1,81,80,23,25,41,man,5348.0,,static/images/instructions_CB_1/Slide1.png,39.0,,,,,,,,,,,,,,,,,,,,,,,,,,,
4,0,,image-keyboard-response,4,31235,0.0-3.1-0.1,vljmoowjl7,2022-09-19 13:29:21.577,5ab3fc4b5f01000001cb07e2,1,81,80,23,25,41,man,5935.0,,static/images/instructions_CB_1/Slide2.png,39.0,,,,,,,,,,,,,,,,,,,,,,,,,,,
5,0,,image-keyboard-response,5,33428,0.0-3.2-0.2,vljmoowjl7,2022-09-19 13:29:21.577,5ab3fc4b5f01000001cb07e2,1,81,80,23,25,41,man,2191.0,,static/images/instructions_CB_1/Slide3.png,39.0,,,,,,,,,,,,,,,,,,,,,,,,,,,
6,0,,image-keyboard-response,6,35837,0.0-3.3-0.3,vljmoowjl7,2022-09-19 13:29:21.577,5ab3fc4b5f01000001cb07e2,1,81,80,23,25,41,man,2408.0,,static/images/instructions_CB_1/Slide4.png,39.0,,,,,,,,,,,,,,,,,,,,,,,,,,,
7,0,,image-keyboard-response,7,39086,0.0-3.4-0.4,vljmoowjl7,2022-09-19 13:29:21.577,5ab3fc4b5f01000001cb07e2,1,81,80,23,25,41,man,3249.0,,static/images/instructions_CB_1/Slide5.png,39.0,,,,,,,,,,,,,,,,,,,,,,,,,,,
8,0,,image-keyboard-response,8,40798,0.0-3.5-0.5,vljmoowjl7,2022-09-19 13:29:21.577,5ab3fc4b5f01000001cb07e2,1,81,80,23,25,41,man,1711.0,,static/images/instructions_CB_1/Slide6.png,39.0,,,,,,,,,,,,,,,,,,,,,,,,,,,
9,0,,image-keyboard-response,9,42743,0.0-3.6-0.6,vljmoowjl7,2022-09-19 13:29:21.577,5ab3fc4b5f01000001cb07e2,1,81,80,23,25,41,man,1945.0,,static/images/instructions_CB_1/Slide7.png,39.0,,,,,,,,,,,,,,,,,,,,,,,,,,,
10,0,,image-keyboard-response,10,47346,0.0-3.7-0.7,vljmoowjl7,2022-09-19 13:29:21.577,5ab3fc4b5f01000001cb07e2,1,81,80,23,25,41,man,4603.0,,static/images/instructions_CB_1/Slide8.png,39.0,,,,,,,,,,,,,,,,,,,,,,,,,,,
11,0,,image-keyboard-response,11,51460,0.0-3.8-0.8,vljmoowjl7,2022-09-19 13:29:21.577,5ab3fc4b5f01000001cb07e2,1,81,80,23,25,41,man,4114.0,,static/images/instructions_CB_1/Slide9.png,39.0,,,,,,,,,,,,,,,,,,,,,,,,,,,
12,0,,image-keyboard-response,12,58753,0.0-3.9-0.9,vljmoowjl7,2022-09-19 13:29:21.577,5ab3fc4b5f01000001cb07e2,1,81,80,23,25,41,man,7291.0,,static/images/instructions_CB_1/Slide10.png,39.0,,,,,,,,,,,,,,,,,,,,,,,,,,,
13,0,,image-keyboard-response,13,62778,0.0-3.10-0.10,vljmoowjl7,2022-09-19 13:29:21.577,5ab3fc4b5f01000001cb07e2,1,81,80,23,25,41,man,4025.0,,static/images/instructions_CB_1/Slide11.png,39.0,,,,,,,,,,,,,,,,,,,,,,,,,,,
14,0,,image-keyboard-response,14,75864,0.0-3.11-0.11,vljmoowjl7,2022-09-19 13:29:21.577,5ab3fc4b5f01000001cb07e2,1,81,80,23,25,41,man,13086.0,,static/images/instructions_CB_1/Slide12.png,39.0,,,,,,,,,,,,,,,,,,,,,,,,,,,
15,0,,image-keyboard-response,15,83591,0.0-3.12-0.12,vljmoowjl7,2022-09-19 13:29:21.577,5ab3fc4b5f01000001cb07e2,1,81,80,23,25,41,man,7727.0,,static/images/instructions_CB_1/Slide13.png,39.0,,,,,,,,,,,,,,,,,,,,,,,,,,,
16,0,,image-keyboard-response,16,86540,0.0-3.13-0.13,vljmoowjl7,2022-09-19 13:29:21.577,5ab3fc4b5f01000001cb07e2,1,81,80,23,25,41,man,2947.0,,static/images/instructions_CB_1/Slide14.png,39.0,,,,,,,,,,,,,,,,,,,,,,,,,,,
17,0,,image-keyboard-response,17,89575,0.0-3.14-0.14,vljmoowjl7,2022-09-19 13:29:21.577,5ab3fc4b5f01000001cb07e2,1,81,80,23,25,41,man,3035.0,,static/images/instructions_CB_1/Slide15.png,39.0,,,,,,,,,,,,,,,,,,,,,,,,,,,
18,0,,image-keyboard-response,18,93482,0.0-3.15-0.15,vljmoowjl7,2022-09-19 13:29:21.577,5ab3fc4b5f01000001cb07e2,1,81,80,23,25,41,man,3906.0,,static/images/instructions_CB_1/Slide16.png,39.0,,,,,,,,,,,,,,,,,,,,,,,,,,,
19,0,,image-keyboard-response,19,99082,0.0-3.16-0.16,vljmoowjl7,2022-09-19 13:29:21.577,5ab3fc4b5f01000001cb07e2,1,81,80,23,25,41,man,5599.0,,static/images/instructions_CB_1/Slide17.png,39.0,,,,,,,,,,,,,,,,,,,,,,,,,,,
20,0,,image-keyboard-response,20,100670,0.0-3.17-0.17,vljmoowjl7,2022-09-19 13:29:21.577,5ab3fc4b5f01000001cb07e2,1,81,80,23,25,41,man,1588.0,,static/images/instructions_CB_1/Slide18.png,39.0,,,,,,,,,,,,,,,,,,,,,,,,,,,
21,0,,image-keyboard-response,21,104134,0.0-3.18-0.18,vljmoowjl7,2022-09-19 13:29:21.577,5ab3fc4b5f01000001cb07e2,1,81,80,23,25,41,man,3462.0,,static/images/instructions_CB_1/Slide19.png,39.0,,,,,,,,,,,,,,,,,,,,,,,,,,,
22,0,,html-keyboard-response,22,105638,0.0-4.0-0.0,vljmoowjl7,2022-09-19 13:29:21.577,5ab3fc4b5f01000001cb07e2,1,81,80,23,25,41,man,,,"<img src=""static/images/cards/stack_of_red_moons.svg"" width=""175px"" height=""250px""></img>",,,,,,,,,,,,,,,,,,,,,,,,,,,,
23,0,,html-keyboard-response,23,106979,0.0-4.0-1.0,vljmoowjl7,2022-09-19 13:29:21.577,5ab3fc4b5f01000001cb07e2,1,81,80,23,25,41,man,840.0,,"
  <table>
  <tr height=300>
    <td width=300 height=300><img src=""static/images/cards/back_of_red_moons.svg"" width=""175px"" height=""250px""></img></td>
    <td width=300 height=300><img src=""static/images/cards/back_of_red_moons.svg"" width=""175px"" height=""250px""></img></td>
  </tr>
  <tr height=200>
    <td width=300><img src=""static/images/keys/z.svg"" width=""35%"" height=""75%""></img></td>
    <td width=300><img src=""static/images/keys/m.svg"" width=""35%"" height=""75%""></img></td>
  </tr>
</table>
  ",90.0,1.0,,,,,,,,,,,,,,,,,,,,,,,,,,
24,0,,html-keyboard-response,24,108481,0.0-4.0-2.0,vljmoowjl7,2022-09-19 13:29:21.577,5ab3fc4b5f01000001cb07e2,1,81,80,23,25,41,man,,,"
  <table>
  <tr height=300>
    <td width=300 height=300><img src=""static/images/cards/2_of_red_moons.svg"" width=""175px"" height=""250px""></img></td>
    <td width=300 height=300><img src=""static/images/cards/back_of_red_moons.svg"" width=""175px"" height=""250px""></img></td>
  </tr>
  <tr height=200>
    <td width=300><img src=""static/images/keys/z.svg"" width=""35%"" height=""75%""></img></td>
    <td width=300><img src=""static/images/keys/m.svg"" width=""35%"" height=""75%""></img></td>
  </tr>
</table>
  ",,,,,,,,,,,,,,,,,,,,,,,,,,,,
25,0,,html-keyboard-response,25,109983,0.0-4.0-3.0,vljmoowjl7,2022-09-19 13:29:21.577,5ab3fc4b5f01000001cb07e2,1,81,80,23,25,41,man,,,"<p style=""font-size:50px"">You Lose!
No points this round.</p>",,,,,,,,,,,,,,,,,,,,,,,,,,,,
26,0,,html-keyboard-response,26,110489,0.0-4.0-4.0,vljmoowjl7,2022-09-19 13:29:21.577,5ab3fc4b5f01000001cb07e2,1,81,80,23,25,41,man,,,,,,1.0,learning,0.0,A,,red,,moons,,,,A,red,moons,,1.0,1.0,NA,left,840.0,2.0,0.0,0.0,,,
27,0,,html-keyboard-response,27,111994,0.0-4.1-0.1,vljmoowjl7,2022-09-19 13:29:21.577,5ab3fc4b5f01000001cb07e2,1,81,80,23,25,41,man,,,"<img src=""static/images/cards/stack_of_black_moons.svg"" width=""175px"" height=""250px""></img>",,,,,,,,,,,,,,,,,,,,,,,,,,,,
28,0,,html-keyboard-response,28,113178,0.0-4.1-1.1,vljmoowjl7,2022-09-19 13:29:21.577,5ab3fc4b5f01000001cb07e2,1,81,80,23,25,41,man,683.0,,"
  <table>
  <tr height=300>
    <td width=300 height=300><img src=""static/images/cards/back_of_black_moons.svg"" width=""175px"" height=""250px""></img></td>
    <td width=300 height=300><img src=""static/images/cards/back_of_black_moons.svg"" width=""175px"" height=""250px""></img></td>
  </tr>
  <tr height=200>
    <td width=300></td>
    <td width=300><img src=""static/images/keys/m.svg"" width=""35%"" height=""75%""></img></td>
  </tr>
</table>
  ",77.0,2.0,,,,,,,,,,,,,,,,,,,,,,,,,,
29,0,,html-keyboard-response,29,114680,0.0-4.1-2.1,vljmoowjl7,2022-09-19 13:29:21.577,5ab3fc4b5f01000001cb07e2,1,81,80,23,25,41,man,,,"
  <table>
  <tr height=300>
    <td width=300 height=300><img src=""static/images/cards/back_of_black_moons.svg"" width=""175px"" height=""250px""></img></td>
    <td width=300 height=300><img src=""static/images/cards/2_of_black_moons.svg"" width=""175px"" height=""250px""></img></td>
  </tr>
  <tr height=200>
    <td width=300></td>
    <td width=300><img src=""static/images/keys/m.svg"" width=""35%"" height=""75%""></img></td>
  </tr>
</table>
  ",,,,,,,,,,,,,,,,,,,,,,,,,,,,
30,0,,html-keyboard-response,30,116184,0.0-4.1-3.1,vljmoowjl7,2022-09-19 13:29:21.577,5ab3fc4b5f01000001cb07e2,1,81,80,23,25,41,man,,,"<p style=""font-size:50px"">You Lose!
No points this round.</p>",,,,,,,,,,,,,,,,,,,,,,,,,,,,
31,0,,html-keyboard-response,31,116691,0.0-4.1-4.1,vljmoowjl7,2022-09-19 13:29:21.577,5ab3fc4b5f01000001cb07e2,1,81,80,23,25,41,man,,,,,,1.0,learning,1.0,B,,black,,moons,,,,B,black,moons,,0.0,1.0,0,right,683.0,2.0,0.0,0.0,,,
32,0,,html-keyboard-response,32,118195,0.0-4.2-0.2,vljmoowjl7,2022-09-19 13:29:21.577,5ab3fc4b5f01000001cb07e2,1,81,80,23,25,41,man,,,"<img src=""static/images/cards/stack_of_red_stars.svg"" width=""175px"" height=""250px""></img>",,,,,,,,,,,,,,,,,,,,,,,,,,,,
33,0,,html-keyboard-response,33,119129,0.0-4.2-1.2,vljmoowjl7,2022-09-19 13:29:21.577,5ab3fc4b5f01000001cb07e2,1,81,80,23,25,41,man,434.0,,"
  <table>
  <tr height=300>
    <td width=300 height=300><img src=""static/images/cards/back_of_red_stars.svg"" width=""175px"" height=""250px""></img></td>
    <td width=300 height=300><img src=""static/images/cards/back_of_red_stars.svg"" width=""175px"" height=""250px""></img></td>
  </tr>
  <tr height=200>
    <td width=300><img src=""static/images/keys/z.svg"" width=""35%"" height=""75%""></img></td>
    <td width=300><img src=""static/images/keys/m.svg"" width=""35%"" height=""75%""></img></td>
  </tr>
</table>
  ",90.0,1.0,,,,,,,,,,,,,,,,,,,,,,,,,,
34,0,,html-keyboard-response,34,120632,0.0-4.2-2.2,vljmoowjl7,2022-09-19 13:29:21.577,5ab3fc4b5f01000001cb07e2,1,81,80,23,25,41,man,,,"
  <table>
  <tr height=300>
    <td width=300 height=300><img src=""static/images/cards/10_of_red_stars.svg"" width=""175px"" height=""250px""></img></td>
    <td width=300 height=300><img src=""static/images/cards/back_of_red_stars.svg"" width=""175px"" height=""250px""></img></td>
  </tr>
  <tr height=200>
    <td width=300><img src=""static/images/keys/z.svg"" width=""35%"" height=""75%""></img></td>
    <td width=300><img src=""static/images/keys/m.svg"" width=""35%"" height=""75%""></img></td>
  </tr>
</table>
  ",,,,,,,,,,,,,,,,,,,,,,,,,,,,
35,0,,html-keyboard-response,35,122142,0.0-4.2-3.2,vljmoowjl7,2022-09-19 13:29:21.577,5ab3fc4b5f01000001cb07e2,1,81,80,23,25,41,man,,,"<p style=""font-size:50px"">You Lose!
No points this round.</p>",,,,,,,,,,,,,,,,,,,,,,,,,,,,
36,0,,html-keyboard-response,36,122651,0.0-4.2-4.2,vljmoowjl7,2022-09-19 13:29:21.577,5ab3fc4b5f01000001cb07e2,1,81,80,23,25,41,man,,,,,,1.0,learning,2.0,C,,red,,stars,,,,C,red,stars,,1.0,0.0,NA,left,434.0,10.0,1.0,0.0,,,
37,0,,html-keyboard-response,37,124156,0.0-4.3-0.3,vljmoowjl7,2022-09-19 13:29:21.577,5ab3fc4b5f01000001cb07e2,1,81,80,23,25,41,man,,,"<img src=""static/images/cards/stack_of_black_stars.svg"" width=""175px"" height=""250px""></img>",,,,,,,,,,,,,,,,,,,,,,,,,,,,
38,0,,html-keyboard-response,38,125217,0.0-4.3-1.3,vljmoowjl7,2022-09-19 13:29:21.577,5ab3fc4b5f01000001cb07e2,1,81,80,23,25,41,man,558.0,,"
  <table>
  <tr height=300>
    <td width=300 height=300><img src=""static/images/cards/back_of_black_stars.svg"" width=""175px"" height=""250px""></img></td>
    <td width=300 height=300><img src=""static/images/cards/back_of_black_stars.svg"" width=""175px"" height=""250px""></img></td>
  </tr>
  <tr height=200>
    <td width=300><img src=""static/images/keys/z.svg"" width=""35%"" height=""75%""></img></td>
    <td width=300></td>
  </tr>
</table>
  ",90.0,1.0,,,,,,,,,,,,,,,,,,,,,,,,,,
39,0,,html-keyboard-response,39,126720,0.0-4.3-2.3,vljmoowjl7,2022-09-19 13:29:21.577,5ab3fc4b5f01000001cb07e2,1,81,80,23,25,41,man,,,"
  <table>
  <tr height=300>
    <td width=300 height=300><img src=""static/images/cards/3_of_black_stars.svg"" width=""175px"" height=""250px""></img></td>
    <td width=300 height=300><img src=""static/images/cards/back_of_black_stars.svg"" width=""175px"" height=""250px""></img></td>
  </tr>
  <tr height=200>
    <td width=300><img src=""static/images/keys/z.svg"" width=""35%"" height=""75%""></img></td>
    <td width=300></td>
  </tr>
</table>
  ",,,,,,,,,,,,,,,,,,,,,,,,,,,,
40,0,,html-keyboard-response,40,128226,0.0-4.3-3.3,vljmoowjl7,2022-09-19 13:29:21.577,5ab3fc4b5f01000001cb07e2,1,81,80,23,25,41,man,,,"<p style=""font-size:50px"">You Lose!
No points this round.</p>",,,,,,,,,,,,,,,,,,,,,,,,,,,,
41,0,,html-keyboard-response,41,128737,0.0-4.3-4.3,vljmoowjl7,2022-09-19 13:29:21.577,5ab3fc4b5f01000001cb07e2,1,81,80,23,25,41,man,,,,,,1.0,learning,3.0,D,,black,,stars,,,,D,black,stars,,0.0,0.0,1,left,558.0,3.0,0.0,0.0,,,
42,0,,html-keyboard-response,42,130238,0.0-4.4-0.4,vljmoowjl7,2022-09-19 13:29:21.577,5ab3fc4b5f01000001cb07e2,1,81,80,23,25,41,man,,,"<img src=""static/images/cards/stack_of_red_bolts.svg"" width=""175px"" height=""250px""></img>",,,,,,,,,,,,,,,,,,,,,,,,,,,,
43,0,,html-keyboard-response,43,131370,0.0-4.4-1.4,vljmoowjl7,2022-09-19 13:29:21.577,5ab3fc4b5f01000001cb07e2,1,81,80,23,25,41,man,630.0,,"
  <table>
  <tr height=300>
    <td width=300 height=300><img src=""static/images/cards/back_of_red_bolts.svg"" width=""175px"" height=""250px""></img></td>
    <td width=300 height=300><img src=""static/images/cards/back_of_red_bolts.svg"" width=""175px"" height=""250px""></img></td>
  </tr>
  <tr height=200>
    <td width=300><img src=""static/images/keys/z.svg"" width=""35%"" height=""75%""></img></td>
    <td width=300><img src=""static/images/keys/m.svg"" width=""35%"" height=""75%""></img></td>
  </tr>
</table>
  ",90.0,1.0,,,,,,,,,,,,,,,,,,,,,,,,,,
44,0,,html-keyboard-response,44,132876,0.0-4.4-2.4,vljmoowjl7,2022-09-19 13:29:21.577,5ab3fc4b5f01000001cb07e2,1,81,80,23,25,41,man,,,"
  <table>
  <tr height=300>
    <td width=300 height=300><img src=""static/images/cards/2_of_red_bolts.svg"" width=""175px"" height=""250px""></img></td>
    <td width=300 height=300><img src=""static/images/cards/back_of_red_bolts.svg"" width=""175px"" height=""250px""></img></td>
  </tr>
  <tr height=200>
    <td width=300><img src=""static/images/keys/z.svg"" width=""35%"" height=""75%""></img></td>
    <td width=300><img src=""static/images/keys/m.svg"" width=""35%"" height=""75%""></img></td>
  </tr>
</table>
  ",,,,,,,,,,,,,,,,,,,,,,,,,,,,
45,0,,html-keyboard-response,45,134380,0.0-4.4-3.4,vljmoowjl7,2022-09-19 13:29:21.577,5ab3fc4b5f01000001cb07e2,1,81,80,23,25,41,man,,,"<p style=""font-size:50px"">You win!
+10 points this round!</p>",,,,,,,,,,,,,,,,,,,,,,,,,,,,
46,0,,html-keyboard-response,46,134886,0.0-4.4-4.4,vljmoowjl7,2022-09-19 13:29:21.577,5ab3fc4b5f01000001cb07e2,1,81,80,23,25,41,man,,,,,,1.0,learning,4.0,Xc,,red,,bolts,,,,Xc,red,bolts,,1.0,0.0,NA,left,630.0,2.0,0.0,1.0,,,
47,0,,html-keyboard-response,47,136391,0.0-4.5-0.5,vljmoowjl7,2022-09-19 13:29:21.577,5ab3fc4b5f01000001cb07e2,1,81,80,23,25,41,man,,,"<img src=""static/images/cards/stack_of_black_bolts.svg"" width=""175px"" height=""250px""></img>",,,,,,,,,,,,,,,,,,,,,,,,,,,,
48,0,,html-keyboard-response,48,137233,0.0-4.5-1.5,vljmoowjl7,2022-09-19 13:29:21.577,5ab3fc4b5f01000001cb07e2,1,81,80,23,25,41,man,339.0,,"
  <table>
  <tr height=300>
    <td width=300 height=300><img src=""static/images/cards/back_of_black_bolts.svg"" width=""175px"" height=""250px""></img></td>
    <td width=300 height=300><img src=""static/images/cards/back_of_black_bolts.svg"" width=""175px"" height=""250px""></img></td>
  </tr>
  <tr height=200>
    <td width=300><img src=""static/images/keys/z.svg"" width=""35%"" height=""75%""></img></td>
    <td width=300></td>
  </tr>
</table>
  ",90.0,1.0,,,,,,,,,,,,,,,,,,,,,,,,,,
49,0,,html-keyboard-response,49,138739,0.0-4.5-2.5,vljmoowjl7,2022-09-19 13:29:21.577,5ab3fc4b5f01000001cb07e2,1,81,80,23,25,41,man,,,"
  <table>
  <tr height=300>
    <td width=300 height=300><img src=""static/images/cards/10_of_black_bolts.svg"" width=""175px"" height=""250px""></img></td>
    <td width=300 height=300><img src=""static/images/cards/back_of_black_bolts.svg"" width=""175px"" height=""250px""></img></td>
  </tr>
  <tr height=200>
    <td width=300><img src=""static/images/keys/z.svg"" width=""35%"" height=""75%""></img></td>
    <td width=300></td>
  </tr>
</table>
  ",,,,,,,,,,,,,,,,,,,,,,,,,,,,
50,0,,html-keyboard-response,50,140246,0.0-4.5-3.5,vljmoowjl7,2022-09-19 13:29:21.577,5ab3fc4b5f01000001cb07e2,1,81,80,23,25,41,man,,,"<p style=""font-size:50px"">You win!
+10 points this round!</p>",,,,,,,,,,,,,,,,,,,,,,,,,,,,
51,0,,html-keyboard-response,51,140755,0.0-4.5-4.5,vljmoowjl7,2022-09-19 13:29:21.577,5ab3fc4b5f01000001cb07e2,1,81,80,23,25,41,man,,,,,,1.0,learning,5.0,Xnc,,black,,bolts,,,,Xnc,black,bolts,,0.0,0.0,1,left,339.0,10.0,1.0,1.0,,,
52,0,,html-keyboard-response,52,142261,0.0-4.6-0.6,vljmoowjl7,2022-09-19 13:29:21.577,5ab3fc4b5f01000001cb07e2,1,81,80,23,25,41,man,,,"<img src=""static/images/cards/stack_of_red_moons.svg"" width=""175px"" height=""250px""></img>",,,,,,,,,,,,,,,,,,,,,,,,,,,,
53,0,,html-keyboard-response,53,143115,0.0-4.6-1.6,vljmoowjl7,2022-09-19 13:29:21.577,5ab3fc4b5f01000001cb07e2,1,81,80,23,25,41,man,353.0,,"
  <table>
  <tr height=300>
    <td width=300 height=300><img src=""static/images/cards/back_of_red_moons.svg"" width=""175px"" height=""250px""></img></td>
    <td width=300 height=300><img src=""static/images/cards/back_of_red_moons.svg"" width=""175px"" height=""250px""></img></td>
  </tr>
  <tr height=200>
    <td width=300><img src=""static/images/keys/z.svg"" width=""35%"" height=""75%""></img></td>
    <td width=300><img src=""static/images/keys/m.svg"" width=""35%"" height=""75%""></img></td>
  </tr>
</table>
  ",90.0,1.0,,,,,,,,,,,,,,,,,,,,,,,,,,
54,0,,html-keyboard-response,54,144620,0.0-4.6-2.6,vljmoowjl7,2022-09-19 13:29:21.577,5ab3fc4b5f01000001cb07e2,1,81,80,23,25,41,man,,,"
  <table>
  <tr height=300>
    <td width=300 height=300><img src=""static/images/cards/10_of_red_moons.svg"" width=""175px"" height=""250px""></img></td>
    <td width=300 height=300><img src=""static/images/cards/back_of_red_moons.svg"" width=""175px"" height=""250px""></img></td>
  </tr>
  <tr height=200>
    <td width=300><img src=""static/images/keys/z.svg"" width=""35%"" height=""75%""></img></td>
    <td width=300><img src=""static/images/keys/m.svg"" width=""35%"" height=""75%""></img></td>
  </tr>
</table>
  ",,,,,,,,,,,,,,,,,,,,,,,,,,,,
55,0,,html-keyboard-response,55,146126,0.0-4.6-3.6,vljmoowjl7,2022-09-19 13:29:21.577,5ab3fc4b5f01000001cb07e2,1,81,80,23,25,41,man,,,"<p style=""font-size:50px"">You win!
+10 points this round!</p>",,,,,,,,,,,,,,,,,,,,,,,,,,,,
56,0,,html-keyboard-response,56,146631,0.0-4.6-4.6,vljmoowjl7,2022-09-19 13:29:21.577,5ab3fc4b5f01000001cb07e2,1,81,80,23,25,41,man,,,,,,1.0,learning,6.0,A,,red,,moons,,,,A,red,moons,,1.0,1.0,NA,left,353.0,10.0,1.0,1.0,,,
57,0,,html-keyboard-response,57,148135,0.0-4.7-0.7,vljmoowjl7,2022-09-19 13:29:21.577,5ab3fc4b5f01000001cb07e2,1,81,80,23,25,41,man,,,"<img src=""static/images/cards/stack_of_black_moons.svg"" width=""175px"" height=""250px""></img>",,,,,,,,,,,,,,,,,,,,,,,,,,,,
58,0,,html-keyboard-response,58,149034,0.0-4.7-1.7,vljmoowjl7,2022-09-19 13:29:21.577,5ab3fc4b5f01000001cb07e2,1,81,80,23,25,41,man,396.0,,"
  <table>
  <tr height=300>
    <td width=300 height=300><img src=""static/images/cards/back_of_black_moons.svg"" width=""175px"" height=""250px""></img></td>
    <td width=300 height=300><img src=""static/images/cards/back_of_black_moons.svg"" width=""175px"" height=""250px""></img></td>
  </tr>
  <tr height=200>
    <td width=300><img src=""static/images/keys/z.svg"" width=""35%"" height=""75%""></img></td>
    <td width=300></td>
  </tr>
</table>
  ",90.0,1.0,,,,,,,,,,,,,,,,,,,,,,,,,,
59,0,,html-keyboard-response,59,150539,0.0-4.7-2.7,vljmoowjl7,2022-09-19 13:29:21.577,5ab3fc4b5f01000001cb07e2,1,81,80,23,25,41,man,,,"
  <table>
  <tr height=300>
    <td width=300 height=300><img src=""static/images/cards/4_of_black_moons.svg"" width=""175px"" height=""250px""></img></td>
    <td width=300 height=300><img src=""static/images/cards/back_of_black_moons.svg"" width=""175px"" height=""250px""></img></td>
  </tr>
  <tr height=200>
    <td width=300><img src=""static/images/keys/z.svg"" width=""35%"" height=""75%""></img></td>
    <td width=300></td>
  </tr>
</table>
  ",,,,,,,,,,,,,,,,,,,,,,,,,,,,
60,0,,html-keyboard-response,60,152045,0.0-4.7-3.7,vljmoowjl7,2022-09-19 13:29:21.577,5ab3fc4b5f01000001cb07e2,1,81,80,23,25,41,man,,,"<p style=""font-size:50px"">You Lose!
No points this round.</p>",,,,,,,,,,,,,,,,,,,,,,,,,,,,
61,0,,html-keyboard-response,61,152554,0.0-4.7-4.7,vljmoowjl7,2022-09-19 13:29:21.577,5ab3fc4b5f01000001cb07e2,1,81,80,23,25,41,man,,,,,,1.0,learning,7.0,B,,black,,moons,,,,B,black,moons,,0.0,1.0,1,left,396.0,4.0,0.0,0.0,,,
62,0,,html-keyboard-response,62,154056,0.0-4.8-0.8,vljmoowjl7,2022-09-19 13:29:21.577,5ab3fc4b5f01000001cb07e2,1,81,80,23,25,41,man,,,"<img src=""static/images/cards/stack_of_red_stars.svg"" width=""175px"" height=""250px""></img>",,,,,,,,,,,,,,,,,,,,,,,,,,,,
63,0,,html-keyboard-response,63,154972,0.0-4.8-1.8,vljmoowjl7,2022-09-19 13:29:21.577,5ab3fc4b5f01000001cb07e2,1,81,80,23,25,41,man,414.0,,"
  <table>
  <tr height=300>
    <td width=300 height=300><img src=""static/images/cards/back_of_red_stars.svg"" width=""175px"" height=""250px""></img></td>
    <td width=300 height=300><img src=""static/images/cards/back_of_red_stars.svg"" width=""175px"" height=""250px""></img></td>
  </tr>
  <tr height=200>
    <td width=300><img src=""static/images/keys/z.svg"" width=""35%"" height=""75%""></img></td>
    <td width=300><img src=""static/images/keys/m.svg"" width=""35%"" height=""75%""></img></td>
  </tr>
</table>
  ",90.0,1.0,,,,,,,,,,,,,,,,,,,,,,,,,,
64,0,,html-keyboard-response,64,156475,0.0-4.8-2.8,vljmoowjl7,2022-09-19 13:29:21.577,5ab3fc4b5f01000001cb07e2,1,81,80,23,25,41,man,,,"
  <table>
  <tr height=300>
    <td width=300 height=300><img src=""static/images/cards/3_of_red_stars.svg"" width=""175px"" height=""250px""></img></td>
    <td width=300 height=300><img src=""static/images/cards/back_of_red_stars.svg"" width=""175px"" height=""250px""></img></td>
  </tr>
  <tr height=200>
    <td width=300><img src=""static/images/keys/z.svg"" width=""35%"" height=""75%""></img></td>
    <td width=300><img src=""static/images/keys/m.svg"" width=""35%"" height=""75%""></img></td>
  </tr>
</table>
  ",,,,,,,,,,,,,,,,,,,,,,,,,,,,
65,0,,html-keyboard-response,65,157983,0.0-4.8-3.8,vljmoowjl7,2022-09-19 13:29:21.577,5ab3fc4b5f01000001cb07e2,1,81,80,23,25,41,man,,,"<p style=""font-size:50px"">You win!
+10 points this round!</p>",,,,,,,,,,,,,,,,,,,,,,,,,,,,
66,0,,html-keyboard-response,66,158489,0.0-4.8-4.8,vljmoowjl7,2022-09-19 13:29:21.577,5ab3fc4b5f01000001cb07e2,1,81,80,23,25,41,man,,,,,,1.0,learning,8.0,C,,red,,stars,,,,C,red,stars,,1.0,0.0,NA,left,414.0,3.0,0.0,1.0,,,
67,0,,html-keyboard-response,67,159989,0.0-4.9-0.9,vljmoowjl7,2022-09-19 13:29:21.577,5ab3fc4b5f01000001cb07e2,1,81,80,23,25,41,man,,,"<img src=""static/images/cards/stack_of_black_stars.svg"" width=""175px"" height=""250px""></img>",,,,,,,,,,,,,,,,,,,,,,,,,,,,
68,0,,html-keyboard-response,68,160991,0.0-4.9-1.9,vljmoowjl7,2022-09-19 13:29:21.577,5ab3fc4b5f01000001cb07e2,1,81,80,23,25,41,man,501.0,,"
  <table>
  <tr height=300>
    <td width=300 height=300><img src=""static/images/cards/back_of_black_stars.svg"" width=""175px"" height=""250px""></img></td>
    <td width=300 height=300><img src=""static/images/cards/back_of_black_stars.svg"" width=""175px"" height=""250px""></img></td>
  </tr>
  <tr height=200>
    <td width=300></td>
    <td width=300><img src=""static/images/keys/m.svg"" width=""35%"" height=""75%""></img></td>
  </tr>
</table>
  ",77.0,1.0,,,,,,,,,,,,,,,,,,,,,,,,,,
69,0,,html-keyboard-response,69,162493,0.0-4.9-2.9,vljmoowjl7,2022-09-19 13:29:21.577,5ab3fc4b5f01000001cb07e2,1,81,80,23,25,41,man,,,"
  <table>
  <tr height=300>
    <td width=300 height=300><img src=""static/images/cards/back_of_black_stars.svg"" width=""175px"" height=""250px""></img></td>
    <td width=300 height=300><img src=""static/images/cards/7_of_black_stars.svg"" width=""175px"" height=""250px""></img></td>
  </tr>
  <tr height=200>
    <td width=300></td>
    <td width=300><img src=""static/images/keys/m.svg"" width=""35%"" height=""75%""></img></td>
  </tr>
</table>
  ",,,,,,,,,,,,,,,,,,,,,,,,,,,,
70,0,,html-keyboard-response,70,164000,0.0-4.9-3.9,vljmoowjl7,2022-09-19 13:29:21.577,5ab3fc4b5f01000001cb07e2,1,81,80,23,25,41,man,,,"<p style=""font-size:50px"">You Lose!
No points this round.</p>",,,,,,,,,,,,,,,,,,,,,,,,,,,,
71,0,,html-keyboard-response,71,164505,0.0-4.9-4.9,vljmoowjl7,2022-09-19 13:29:21.577,5ab3fc4b5f01000001cb07e2,1,81,80,23,25,41,man,,,,,,1.0,learning,9.0,D,,black,,stars,,,,D,black,stars,,0.0,0.0,0,right,501.0,7.0,1.0,0.0,,,
72,0,,html-keyboard-response,72,166007,0.0-4.10-0.10,vljmoowjl7,2022-09-19 13:29:21.577,5ab3fc4b5f01000001cb07e2,1,81,80,23,25,41,man,,,"<img src=""static/images/cards/stack_of_red_bolts.svg"" width=""175px"" height=""250px""></img>",,,,,,,,,,,,,,,,,,,,,,,,,,,,
73,0,,html-keyboard-response,73,166943,0.0-4.10-1.10,vljmoowjl7,2022-09-19 13:29:21.577,5ab3fc4b5f01000001cb07e2,1,81,80,23,25,41,man,434.0,,"
  <table>
  <tr height=300>
    <td width=300 height=300><img src=""static/images/cards/back_of_red_bolts.svg"" width=""175px"" height=""250px""></img></td>
    <td width=300 height=300><img src=""static/images/cards/back_of_red_bolts.svg"" width=""175px"" height=""250px""></img></td>
  </tr>
  <tr height=200>
    <td width=300><img src=""static/images/keys/z.svg"" width=""35%"" height=""75%""></img></td>
    <td width=300><img src=""static/images/keys/m.svg"" width=""35%"" height=""75%""></img></td>
  </tr>
</table>
  ",90.0,1.0,,,,,,,,,,,,,,,,,,,,,,,,,,
74,0,,html-keyboard-response,74,168445,0.0-4.10-2.10,vljmoowjl7,2022-09-19 13:29:21.577,5ab3fc4b5f01000001cb07e2,1,81,80,23,25,41,man,,,"
  <table>
  <tr height=300>
    <td width=300 height=300><img src=""static/images/cards/7_of_red_bolts.svg"" width=""175px"" height=""250px""></img></td>
    <td width=300 height=300><img src=""static/images/cards/back_of_red_bolts.svg"" width=""175px"" height=""250px""></img></td>
  </tr>
  <tr height=200>
    <td width=300><img src=""static/images/keys/z.svg"" width=""35%"" height=""75%""></img></td>
    <td width=300><img src=""static/images/keys/m.svg"" width=""35%"" height=""75%""></img></td>
  </tr>
</table>
  ",,,,,,,,,,,,,,,,,,,,,,,,,,,,
75,0,,html-keyboard-response,75,169951,0.0-4.10-3.10,vljmoowjl7,2022-09-19 13:29:21.577,5ab3fc4b5f01000001cb07e2,1,81,80,23,25,41,man,,,"<p style=""font-size:50px"">You win!
+10 points this round!</p>",,,,,,,,,,,,,,,,,,,,,,,,,,,,
76,0,,html-keyboard-response,76,170456,0.0-4.10-4.10,vljmoowjl7,2022-09-19 13:29:21.577,5ab3fc4b5f01000001cb07e2,1,81,80,23,25,41,man,,,,,,1.0,learning,10.0,Xc,,red,,bolts,,,,Xc,red,bolts,,1.0,0.0,NA,left,434.0,7.0,1.0,1.0,,,
77,0,,html-keyboard-response,77,171957,0.0-4.11-0.11,vljmoowjl7,2022-09-19 13:29:21.577,5ab3fc4b5f01000001cb07e2,1,81,80,23,25,41,man,,,"<img src=""static/images/cards/stack_of_black_bolts.svg"" width=""175px"" height=""250px""></img>",,,,,,,,,,,,,,,,,,,,,,,,,,,,
78,0,,html-keyboard-response,78,173028,0.0-4.11-1.11,vljmoowjl7,2022-09-19 13:29:21.577,5ab3fc4b5f01000001cb07e2,1,81,80,23,25,41,man,570.0,,"
  <table>
  <tr height=300>
    <td width=300 height=300><img src=""static/images/cards/back_of_black_bolts.svg"" width=""175px"" height=""250px""></img></td>
    <td width=300 height=300><img src=""static/images/cards/back_of_black_bolts.svg"" width=""175px"" height=""250px""></img></td>
  </tr>
  <tr height=200>
    <td width=300></td>
    <td width=300><img src=""static/images/keys/m.svg"" width=""35%"" height=""75%""></img></td>
  </tr>
</table>
  ",77.0,2.0,,,,,,,,,,,,,,,,,,,,,,,,,,
79,0,,html-keyboard-response,79,174532,0.0-4.11-2.11,vljmoowjl7,2022-09-19 13:29:21.577,5ab3fc4b5f01000001cb07e2,1,81,80,23,25,41,man,,,"
  <table>
  <tr height=300>
    <td width=300 height=300><img src=""static/images/cards/back_of_black_bolts.svg"" width=""175px"" height=""250px""></img></td>
    <td width=300 height=300><img src=""static/images/cards/3_of_black_bolts.svg"" width=""175px"" height=""250px""></img></td>
  </tr>
  <tr height=200>
    <td width=300></td>
    <td width=300><img src=""static/images/keys/m.svg"" width=""35%"" height=""75%""></img></td>
  </tr>
</table>
  ",,,,,,,,,,,,,,,,,,,,,,,,,,,,
80,0,,html-keyboard-response,80,176033,0.0-4.11-3.11,vljmoowjl7,2022-09-19 13:29:21.577,5ab3fc4b5f01000001cb07e2,1,81,80,23,25,41,man,,,"<p style=""font-size:50px"">You win!
+10 points this round!</p>",,,,,,,,,,,,,,,,,,,,,,,,,,,,
81,0,,html-keyboard-response,81,176540,0.0-4.11-4.11,vljmoowjl7,2022-09-19 13:29:21.577,5ab3fc4b5f01000001cb07e2,1,81,80,23,25,41,man,,,,,,1.0,learning,11.0,Xnc,,black,,bolts,,,,Xnc,black,bolts,,0.0,0.0,0,right,570.0,3.0,0.0,1.0,,,
82,0,,html-keyboard-response,82,178042,0.0-4.12-0.12,vljmoowjl7,2022-09-19 13:29:21.577,5ab3fc4b5f01000001cb07e2,1,81,80,23,25,41,man,,,"<img src=""static/images/cards/stack_of_red_moons.svg"" width=""175px"" height=""250px""></img>",,,,,,,,,,,,,,,,,,,,,,,,,,,,
83,0,,html-keyboard-response,83,179003,0.0-4.12-1.12,vljmoowjl7,2022-09-19 13:29:21.577,5ab3fc4b5f01000001cb07e2,1,81,80,23,25,41,man,459.0,,"
  <table>
  <tr height=300>
    <td width=300 height=300><img src=""static/images/cards/back_of_red_moons.svg"" width=""175px"" height=""250px""></img></td>
    <td width=300 height=300><img src=""static/images/cards/back_of_red_moons.svg"" width=""175px"" height=""250px""></img></td>
  </tr>
  <tr height=200>
    <td width=300><img src=""static/images/keys/z.svg"" width=""35%"" height=""75%""></img></td>
    <td width=300><img src=""static/images/keys/m.svg"" width=""35%"" height=""75%""></img></td>
  </tr>
</table>
  ",90.0,1.0,,,,,,,,,,,,,,,,,,,,,,,,,,
84,0,,html-keyboard-response,84,180504,0.0-4.12-2.12,vljmoowjl7,2022-09-19 13:29:21.577,5ab3fc4b5f01000001cb07e2,1,81,80,23,25,41,man,,,"
  <table>
  <tr height=300>
    <td width=300 height=300><img src=""static/images/cards/4_of_red_moons.svg"" width=""175px"" height=""250px""></img></td>
    <td width=300 height=300><img src=""static/images/cards/back_of_red_moons.svg"" width=""175px"" height=""250px""></img></td>
  </tr>
  <tr height=200>
    <td width=300><img src=""static/images/keys/z.svg"" width=""35%"" height=""75%""></img></td>
    <td width=300><img src=""static/images/keys/m.svg"" width=""35%"" height=""75%""></img></td>
  </tr>
</table>
  ",,,,,,,,,,,,,,,,,,,,,,,,,,,,
85,0,,html-keyboard-response,85,182009,0.0-4.12-3.12,vljmoowjl7,2022-09-19 13:29:21.577,5ab3fc4b5f01000001cb07e2,1,81,80,23,25,41,man,,,"<p style=""font-size:50px"">You Lose!
No points this round.</p>",,,,,,,,,,,,,,,,,,,,,,,,,,,,
86,0,,html-keyboard-response,86,182514,0.0-4.12-4.12,vljmoowjl7,2022-09-19 13:29:21.577,5ab3fc4b5f01000001cb07e2,1,81,80,23,25,41,man,,,,,,1.0,learning,12.0,A,,red,,moons,,,,A,red,moons,,1.0,1.0,NA,left,459.0,4.0,0.0,0.0,,,
87,0,,html-keyboard-response,87,184015,0.0-4.13-0.13,vljmoowjl7,2022-09-19 13:29:21.577,5ab3fc4b5f01000001cb07e2,1,81,80,23,25,41,man,,,"<img src=""static/images/cards/stack_of_black_moons.svg"" width=""175px"" height=""250px""></img>",,,,,,,,,,,,,,,,,,,,,,,,,,,,
88,0,,html-keyboard-response,88,184943,0.0-4.13-1.13,vljmoowjl7,2022-09-19 13:29:21.577,5ab3fc4b5f01000001cb07e2,1,81,80,23,25,41,man,426.0,,"
  <table>
  <tr height=300>
    <td width=300 height=300><img src=""static/images/cards/back_of_black_moons.svg"" width=""175px"" height=""250px""></img></td>
    <td width=300 height=300><img src=""static/images/cards/back_of_black_moons.svg"" width=""175px"" height=""250px""></img></td>
  </tr>
  <tr height=200>
    <td width=300></td>
    <td width=300><img src=""static/images/keys/m.svg"" width=""35%"" height=""75%""></img></td>
  </tr>
</table>
  ",77.0,1.0,,,,,,,,,,,,,,,,,,,,,,,,,,
89,0,,html-keyboard-response,89,186444,0.0-4.13-2.13,vljmoowjl7,2022-09-19 13:29:21.577,5ab3fc4b5f01000001cb07e2,1,81,80,23,25,41,man,,,"
  <table>
  <tr height=300>
    <td width=300 height=300><img src=""static/images/cards/back_of_black_moons.svg"" width=""175px"" height=""250px""></img></td>
    <td width=300 height=300><img src=""static/images/cards/6_of_black_moons.svg"" width=""175px"" height=""250px""></img></td>
  </tr>
  <tr height=200>
    <td width=300></td>
    <td width=300><img src=""static/images/keys/m.svg"" width=""35%"" height=""75%""></img></td>
  </tr>
</table>
  ",,,,,,,,,,,,,,,,,,,,,,,,,,,,
90,0,,html-keyboard-response,90,187954,0.0-4.13-3.13,vljmoowjl7,2022-09-19 13:29:21.577,5ab3fc4b5f01000001cb07e2,1,81,80,23,25,41,man,,,"<p style=""font-size:50px"">You win!
+10 points this round!</p>",,,,,,,,,,,,,,,,,,,,,,,,,,,,
91,0,,html-keyboard-response,91,188459,0.0-4.13-4.13,vljmoowjl7,2022-09-19 13:29:21.577,5ab3fc4b5f01000001cb07e2,1,81,80,23,25,41,man,,,,,,1.0,learning,13.0,B,,black,,moons,,,,B,black,moons,,0.0,1.0,0,right,426.0,6.0,1.0,1.0,,,
92,0,,html-keyboard-response,92,189964,0.0-4.14-0.14,vljmoowjl7,2022-09-19 13:29:21.577,5ab3fc4b5f01000001cb07e2,1,81,80,23,25,41,man,,,"<img src=""static/images/cards/stack_of_red_stars.svg"" width=""175px"" height=""250px""></img>",,,,,,,,,,,,,,,,,,,,,,,,,,,,
93,0,,html-keyboard-response,93,190838,0.0-4.14-1.14,vljmoowjl7,2022-09-19 13:29:21.577,5ab3fc4b5f01000001cb07e2,1,81,80,23,25,41,man,372.0,,"
  <table>
  <tr height=300>
    <td width=300 height=300><img src=""static/images/cards/back_of_red_stars.svg"" width=""175px"" height=""250px""></img></td>
    <td width=300 height=300><img src=""static/images/cards/back_of_red_stars.svg"" width=""175px"" height=""250px""></img></td>
  </tr>
  <tr height=200>
    <td width=300><img src=""static/images/keys/z.svg"" width=""35%"" height=""75%""></img></td>
    <td width=300><img src=""static/images/keys/m.svg"" width=""35%"" height=""75%""></img></td>
  </tr>
</table>
  ",77.0,1.0,,,,,,,,,,,,,,,,,,,,,,,,,,
94,0,,html-keyboard-response,94,192344,0.0-4.14-2.14,vljmoowjl7,2022-09-19 13:29:21.577,5ab3fc4b5f01000001cb07e2,1,81,80,23,25,41,man,,,"
  <table>
  <tr height=300>
    <td width=300 height=300><img src=""static/images/cards/back_of_red_stars.svg"" width=""175px"" height=""250px""></img></td>
    <td width=300 height=300><img src=""static/images/cards/7_of_red_stars.svg"" width=""175px"" height=""250px""></img></td>
  </tr>
  <tr height=200>
    <td width=300><img src=""static/images/keys/z.svg"" width=""35%"" height=""75%""></img></td>
    <td width=300><img src=""static/images/keys/m.svg"" width=""35%"" height=""75%""></img></td>
  </tr>
</table>
  ",,,,,,,,,,,,,,,,,,,,,,,,,,,,
95,0,,html-keyboard-response,95,193849,0.0-4.14-3.14,vljmoowjl7,2022-09-19 13:29:21.577,5ab3fc4b5f01000001cb07e2,1,81,80,23,25,41,man,,,"<p style=""font-size:50px"">You win!
+10 points this round!</p>",,,,,,,,,,,,,,,,,,,,,,,,,,,,
96,0,,html-keyboard-response,96,194356,0.0-4.14-4.14,vljmoowjl7,2022-09-19 13:29:21.577,5ab3fc4b5f01000001cb07e2,1,81,80,23,25,41,man,,,,,,1.0,learning,14.0,C,,red,,stars,,,,C,red,stars,,1.0,0.0,NA,right,372.0,7.0,1.0,1.0,,,
97,0,,html-keyboard-response,97,195856,0.0-4.15-0.15,vljmoowjl7,2022-09-19 13:29:21.577,5ab3fc4b5f01000001cb07e2,1,81,80,23,25,41,man,,,"<img src=""static/images/cards/stack_of_black_stars.svg"" width=""175px"" height=""250px""></img>",,,,,,,,,,,,,,,,,,,,,,,,,,,,
98,0,,html-keyboard-response,98,196735,0.0-4.15-1.15,vljmoowjl7,2022-09-19 13:29:21.577,5ab3fc4b5f01000001cb07e2,1,81,80,23,25,41,man,373.0,,"
  <table>
  <tr height=300>
    <td width=300 height=300><img src=""static/images/cards/back_of_black_stars.svg"" width=""175px"" height=""250px""></img></td>
    <td width=300 height=300><img src=""static/images/cards/back_of_black_stars.svg"" width=""175px"" height=""250px""></img></td>
  </tr>
  <tr height=200>
    <td width=300></td>
    <td width=300><img src=""static/images/keys/m.svg"" width=""35%"" height=""75%""></img></td>
  </tr>
</table>
  ",77.0,1.0,,,,,,,,,,,,,,,,,,,,,,,,,,
99,0,,html-keyboard-response,99,198237,0.0-4.15-2.15,vljmoowjl7,2022-09-19 13:29:21.577,5ab3fc4b5f01000001cb07e2,1,81,80,23,25,41,man,,,"
  <table>
  <tr height=300>
    <td width=300 height=300><img src=""static/images/cards/back_of_black_stars.svg"" width=""175px"" height=""250px""></img></td>
    <td width=300 height=300><img src=""static/images/cards/1_of_black_stars.svg"" width=""175px"" height=""250px""></img></td>
  </tr>
  <tr height=200>
    <td width=300></td>
    <td width=300><img src=""static/images/keys/m.svg"" width=""35%"" height=""75%""></img></td>
  </tr>
</table>
  ",,,,,,,,,,,,,,,,,,,,,,,,,,,,
100,0,,html-keyboard-response,100,199749,0.0-4.15-3.15,vljmoowjl7,2022-09-19 13:29:21.577,5ab3fc4b5f01000001cb07e2,1,81,80,23,25,41,man,,,"<p style=""font-size:50px"">You win!
+10 points this round!</p>",,,,,,,,,,,,,,,,,,,,,,,,,,,,
101,0,,html-keyboard-response,101,200253,0.0-4.15-4.15,vljmoowjl7,2022-09-19 13:29:21.577,5ab3fc4b5f01000001cb07e2,1,81,80,23,25,41,man,,,,,,1.0,learning,15.0,D,,black,,stars,,,,D,black,stars,,0.0,0.0,0,right,373.0,1.0,0.0,1.0,,,
102,0,,html-keyboard-response,102,201753,0.0-4.16-0.16,vljmoowjl7,2022-09-19 13:29:21.577,5ab3fc4b5f01000001cb07e2,1,81,80,23,25,41,man,,,"<img src=""static/images/cards/stack_of_red_bolts.svg"" width=""175px"" height=""250px""></img>",,,,,,,,,,,,,,,,,,,,,,,,,,,,
103,0,,html-keyboard-response,103,202640,0.0-4.16-1.16,vljmoowjl7,2022-09-19 13:29:21.577,5ab3fc4b5f01000001cb07e2,1,81,80,23,25,41,man,385.0,,"
  <table>
  <tr height=300>
    <td width=300 height=300><img src=""static/images/cards/back_of_red_bolts.svg"" width=""175px"" height=""250px""></img></td>
    <td width=300 height=300><img src=""static/images/cards/back_of_red_bolts.svg"" width=""175px"" height=""250px""></img></td>
  </tr>
  <tr height=200>
    <td width=300><img src=""static/images/keys/z.svg"" width=""35%"" height=""75%""></img></td>
    <td width=300><img src=""static/images/keys/m.svg"" width=""35%"" height=""75%""></img></td>
  </tr>
</table>
  ",77.0,1.0,,,,,,,,,,,,,,,,,,,,,,,,,,
104,0,,html-keyboard-response,104,204144,0.0-4.16-2.16,vljmoowjl7,2022-09-19 13:29:21.577,5ab3fc4b5f01000001cb07e2,1,81,80,23,25,41,man,,,"
  <table>
  <tr height=300>
    <td width=300 height=300><img src=""static/images/cards/back_of_red_bolts.svg"" width=""175px"" height=""250px""></img></td>
    <td width=300 height=300><img src=""static/images/cards/6_of_red_bolts.svg"" width=""175px"" height=""250px""></img></td>
  </tr>
  <tr height=200>
    <td width=300><img src=""static/images/keys/z.svg"" width=""35%"" height=""75%""></img></td>
    <td width=300><img src=""static/images/keys/m.svg"" width=""35%"" height=""75%""></img></td>
  </tr>
</table>
  ",,,,,,,,,,,,,,,,,,,,,,,,,,,,
105,0,,html-keyboard-response,105,205650,0.0-4.16-3.16,vljmoowjl7,2022-09-19 13:29:21.577,5ab3fc4b5f01000001cb07e2,1,81,80,23,25,41,man,,,"<p style=""font-size:50px"">You win!
+10 points this round!</p>",,,,,,,,,,,,,,,,,,,,,,,,,,,,
106,0,,html-keyboard-response,106,206154,0.0-4.16-4.16,vljmoowjl7,2022-09-19 13:29:21.577,5ab3fc4b5f01000001cb07e2,1,81,80,23,25,41,man,,,,,,1.0,learning,16.0,Xc,,red,,bolts,,,,Xc,red,bolts,,1.0,0.0,NA,right,385.0,6.0,1.0,1.0,,,
107,0,,html-keyboard-response,107,207656,0.0-4.17-0.17,vljmoowjl7,2022-09-19 13:29:21.577,5ab3fc4b5f01000001cb07e2,1,81,80,23,25,41,man,,,"<img src=""static/images/cards/stack_of_black_bolts.svg"" width=""175px"" height=""250px""></img>",,,,,,,,,,,,,,,,,,,,,,,,,,,,
108,0,,html-keyboard-response,108,208592,0.0-4.17-1.17,vljmoowjl7,2022-09-19 13:29:21.577,5ab3fc4b5f01000001cb07e2,1,81,80,23,25,41,man,435.0,,"
  <table>
  <tr height=300>
    <td width=300 height=300><img src=""static/images/cards/back_of_black_bolts.svg"" width=""175px"" height=""250px""></img></td>
    <td width=300 height=300><img src=""static/images/cards/back_of_black_bolts.svg"" width=""175px"" height=""250px""></img></td>
  </tr>
  <tr height=200>
    <td width=300></td>
    <td width=300><img src=""static/images/keys/m.svg"" width=""35%"" height=""75%""></img></td>
  </tr>
</table>
  ",77.0,1.0,,,,,,,,,,,,,,,,,,,,,,,,,,
109,0,,html-keyboard-response,109,210098,0.0-4.17-2.17,vljmoowjl7,2022-09-19 13:29:21.577,5ab3fc4b5f01000001cb07e2,1,81,80,23,25,41,man,,,"
  <table>
  <tr height=300>
    <td width=300 height=300><img src=""static/images/cards/back_of_black_bolts.svg"" width=""175px"" height=""250px""></img></td>
    <td width=300 height=300><img src=""static/images/cards/3_of_black_bolts.svg"" width=""175px"" height=""250px""></img></td>
  </tr>
  <tr height=200>
    <td width=300></td>
    <td width=300><img src=""static/images/keys/m.svg"" width=""35%"" height=""75%""></img></td>
  </tr>
</table>
  ",,,,,,,,,,,,,,,,,,,,,,,,,,,,
110,0,,html-keyboard-response,110,211598,0.0-4.17-3.17,vljmoowjl7,2022-09-19 13:29:21.577,5ab3fc4b5f01000001cb07e2,1,81,80,23,25,41,man,,,"<p style=""font-size:50px"">You win!
+10 points this round!</p>",,,,,,,,,,,,,,,,,,,,,,,,,,,,
111,0,,html-keyboard-response,111,212104,0.0-4.17-4.17,vljmoowjl7,2022-09-19 13:29:21.577,5ab3fc4b5f01000001cb07e2,1,81,80,23,25,41,man,,,,,,1.0,learning,17.0,Xnc,,black,,bolts,,,,Xnc,black,bolts,,0.0,0.0,0,right,435.0,3.0,0.0,1.0,,,
112,0,,html-keyboard-response,112,213607,0.0-4.18-0.18,vljmoowjl7,2022-09-19 13:29:21.577,5ab3fc4b5f01000001cb07e2,1,81,80,23,25,41,man,,,"<img src=""static/images/cards/stack_of_red_moons.svg"" width=""175px"" height=""250px""></img>",,,,,,,,,,,,,,,,,,,,,,,,,,,,
113,0,,html-keyboard-response,113,214620,0.0-4.18-1.18,vljmoowjl7,2022-09-19 13:29:21.577,5ab3fc4b5f01000001cb07e2,1,81,80,23,25,41,man,514.0,,"
  <table>
  <tr height=300>
    <td width=300 height=300><img src=""static/images/cards/back_of_red_moons.svg"" width=""175px"" height=""250px""></img></td>
    <td width=300 height=300><img src=""static/images/cards/back_of_red_moons.svg"" width=""175px"" height=""250px""></img></td>
  </tr>
  <tr height=200>
    <td width=300><img src=""static/images/keys/z.svg"" width=""35%"" height=""75%""></img></td>
    <td width=300><img src=""static/images/keys/m.svg"" width=""35%"" height=""75%""></img></td>
  </tr>
</table>
  ",77.0,1.0,,,,,,,,,,,,,,,,,,,,,,,,,,
114,0,,html-keyboard-response,114,216123,0.0-4.18-2.18,vljmoowjl7,2022-09-19 13:29:21.577,5ab3fc4b5f01000001cb07e2,1,81,80,23,25,41,man,,,"
  <table>
  <tr height=300>
    <td width=300 height=300><img src=""static/images/cards/back_of_red_moons.svg"" width=""175px"" height=""250px""></img></td>
    <td width=300 height=300><img src=""static/images/cards/10_of_red_moons.svg"" width=""175px"" height=""250px""></img></td>
  </tr>
  <tr height=200>
    <td width=300><img src=""static/images/keys/z.svg"" width=""35%"" height=""75%""></img></td>
    <td width=300><img src=""static/images/keys/m.svg"" width=""35%"" height=""75%""></img></td>
  </tr>
</table>
  ",,,,,,,,,,,,,,,,,,,,,,,,,,,,
115,0,,html-keyboard-response,115,217625,0.0-4.18-3.18,vljmoowjl7,2022-09-19 13:29:21.577,5ab3fc4b5f01000001cb07e2,1,81,80,23,25,41,man,,,"<p style=""font-size:50px"">You win!
+10 points this round!</p>",,,,,,,,,,,,,,,,,,,,,,,,,,,,
116,0,,html-keyboard-response,116,218131,0.0-4.18-4.18,vljmoowjl7,2022-09-19 13:29:21.577,5ab3fc4b5f01000001cb07e2,1,81,80,23,25,41,man,,,,,,1.0,learning,18.0,A,,red,,moons,,,,A,red,moons,,1.0,1.0,NA,right,514.0,10.0,1.0,1.0,,,
117,0,,html-keyboard-response,117,219632,0.0-4.19-0.19,vljmoowjl7,2022-09-19 13:29:21.577,5ab3fc4b5f01000001cb07e2,1,81,80,23,25,41,man,,,"<img src=""static/images/cards/stack_of_black_moons.svg"" width=""175px"" height=""250px""></img>",,,,,,,,,,,,,,,,,,,,,,,,,,,,
118,0,,html-keyboard-response,118,220639,0.0-4.19-1.19,vljmoowjl7,2022-09-19 13:29:21.577,5ab3fc4b5f01000001cb07e2,1,81,80,23,25,41,man,508.0,,"
  <table>
  <tr height=300>
    <td width=300 height=300><img src=""static/images/cards/back_of_black_moons.svg"" width=""175px"" height=""250px""></img></td>
    <td width=300 height=300><img src=""static/images/cards/back_of_black_moons.svg"" width=""175px"" height=""250px""></img></td>
  </tr>
  <tr height=200>
    <td width=300><img src=""static/images/keys/z.svg"" width=""35%"" height=""75%""></img></td>
    <td width=300></td>
  </tr>
</table>
  ",90.0,1.0,,,,,,,,,,,,,,,,,,,,,,,,,,
119,0,,html-keyboard-response,119,222142,0.0-4.19-2.19,vljmoowjl7,2022-09-19 13:29:21.577,5ab3fc4b5f01000001cb07e2,1,81,80,23,25,41,man,,,"
  <table>
  <tr height=300>
    <td width=300 height=300><img src=""static/images/cards/7_of_black_moons.svg"" width=""175px"" height=""250px""></img></td>
    <td width=300 height=300><img src=""static/images/cards/back_of_black_moons.svg"" width=""175px"" height=""250px""></img></td>
  </tr>
  <tr height=200>
    <td width=300><img src=""static/images/keys/z.svg"" width=""35%"" height=""75%""></img></td>
    <td width=300></td>
  </tr>
</table>
  ",,,,,,,,,,,,,,,,,,,,,,,,,,,,
120,0,,html-keyboard-response,120,223647,0.0-4.19-3.19,vljmoowjl7,2022-09-19 13:29:21.577,5ab3fc4b5f01000001cb07e2,1,81,80,23,25,41,man,,,"<p style=""font-size:50px"">You win!
+10 points this round!</p>",,,,,,,,,,,,,,,,,,,,,,,,,,,,
121,0,,html-keyboard-response,121,224152,0.0-4.19-4.19,vljmoowjl7,2022-09-19 13:29:21.577,5ab3fc4b5f01000001cb07e2,1,81,80,23,25,41,man,,,,,,1.0,learning,19.0,B,,black,,moons,,,,B,black,moons,,0.0,1.0,1,left,508.0,7.0,1.0,1.0,,,
122,0,,html-keyboard-response,122,225655,0.0-4.20-0.20,vljmoowjl7,2022-09-19 13:29:21.577,5ab3fc4b5f01000001cb07e2,1,81,80,23,25,41,man,,,"<img src=""static/images/cards/stack_of_red_stars.svg"" width=""175px"" height=""250px""></img>",,,,,,,,,,,,,,,,,,,,,,,,,,,,
123,0,,html-keyboard-response,123,226535,0.0-4.20-1.20,vljmoowjl7,2022-09-19 13:29:21.577,5ab3fc4b5f01000001cb07e2,1,81,80,23,25,41,man,380.0,,"
  <table>
  <tr height=300>
    <td width=300 height=300><img src=""static/images/cards/back_of_red_stars.svg"" width=""175px"" height=""250px""></img></td>
    <td width=300 height=300><img src=""static/images/cards/back_of_red_stars.svg"" width=""175px"" height=""250px""></img></td>
  </tr>
  <tr height=200>
    <td width=300><img src=""static/images/keys/z.svg"" width=""35%"" height=""75%""></img></td>
    <td width=300><img src=""static/images/keys/m.svg"" width=""35%"" height=""75%""></img></td>
  </tr>
</table>
  ",77.0,1.0,,,,,,,,,,,,,,,,,,,,,,,,,,
124,0,,html-keyboard-response,124,228039,0.0-4.20-2.20,vljmoowjl7,2022-09-19 13:29:21.577,5ab3fc4b5f01000001cb07e2,1,81,80,23,25,41,man,,,"
  <table>
  <tr height=300>
    <td width=300 height=300><img src=""static/images/cards/back_of_red_stars.svg"" width=""175px"" height=""250px""></img></td>
    <td width=300 height=300><img src=""static/images/cards/1_of_red_stars.svg"" width=""175px"" height=""250px""></img></td>
  </tr>
  <tr height=200>
    <td width=300><img src=""static/images/keys/z.svg"" width=""35%"" height=""75%""></img></td>
    <td width=300><img src=""static/images/keys/m.svg"" width=""35%"" height=""75%""></img></td>
  </tr>
</table>
  ",,,,,,,,,,,,,,,,,,,,,,,,,,,,
125,0,,html-keyboard-response,125,229545,0.0-4.20-3.20,vljmoowjl7,2022-09-19 13:29:21.577,5ab3fc4b5f01000001cb07e2,1,81,80,23,25,41,man,,,"<p style=""font-size:50px"">You Lose!
No points this round.</p>",,,,,,,,,,,,,,,,,,,,,,,,,,,,
126,0,,html-keyboard-response,126,230052,0.0-4.20-4.20,vljmoowjl7,2022-09-19 13:29:21.577,5ab3fc4b5f01000001cb07e2,1,81,80,23,25,41,man,,,,,,1.0,learning,20.0,C,,red,,stars,,,,C,red,stars,,1.0,0.0,NA,right,380.0,1.0,0.0,0.0,,,
127,0,,html-keyboard-response,127,231554,0.0-4.21-0.21,vljmoowjl7,2022-09-19 13:29:21.577,5ab3fc4b5f01000001cb07e2,1,81,80,23,25,41,man,,,"<img src=""static/images/cards/stack_of_black_stars.svg"" width=""175px"" height=""250px""></img>",,,,,,,,,,,,,,,,,,,,,,,,,,,,
128,0,,html-keyboard-response,128,232454,0.0-4.21-1.21,vljmoowjl7,2022-09-19 13:29:21.577,5ab3fc4b5f01000001cb07e2,1,81,80,23,25,41,man,395.0,,"
  <table>
  <tr height=300>
    <td width=300 height=300><img src=""static/images/cards/back_of_black_stars.svg"" width=""175px"" height=""250px""></img></td>
    <td width=300 height=300><img src=""static/images/cards/back_of_black_stars.svg"" width=""175px"" height=""250px""></img></td>
  </tr>
  <tr height=200>
    <td width=300></td>
    <td width=300><img src=""static/images/keys/m.svg"" width=""35%"" height=""75%""></img></td>
  </tr>
</table>
  ",77.0,1.0,,,,,,,,,,,,,,,,,,,,,,,,,,
129,0,,html-keyboard-response,129,233958,0.0-4.21-2.21,vljmoowjl7,2022-09-19 13:29:21.577,5ab3fc4b5f01000001cb07e2,1,81,80,23,25,41,man,,,"
  <table>
  <tr height=300>
    <td width=300 height=300><img src=""static/images/cards/back_of_black_stars.svg"" width=""175px"" height=""250px""></img></td>
    <td width=300 height=300><img src=""static/images/cards/7_of_black_stars.svg"" width=""175px"" height=""250px""></img></td>
  </tr>
  <tr height=200>
    <td width=300></td>
    <td width=300><img src=""static/images/keys/m.svg"" width=""35%"" height=""75%""></img></td>
  </tr>
</table>
  ",,,,,,,,,,,,,,,,,,,,,,,,,,,,
130,0,,html-keyboard-response,130,235462,0.0-4.21-3.21,vljmoowjl7,2022-09-19 13:29:21.577,5ab3fc4b5f01000001cb07e2,1,81,80,23,25,41,man,,,"<p style=""font-size:50px"">You win!
+10 points this round!</p>",,,,,,,,,,,,,,,,,,,,,,,,,,,,
131,0,,html-keyboard-response,131,235966,0.0-4.21-4.21,vljmoowjl7,2022-09-19 13:29:21.577,5ab3fc4b5f01000001cb07e2,1,81,80,23,25,41,man,,,,,,1.0,learning,21.0,D,,black,,stars,,,,D,black,stars,,0.0,0.0,0,right,395.0,7.0,1.0,1.0,,,
132,0,,html-keyboard-response,132,237469,0.0-4.22-0.22,vljmoowjl7,2022-09-19 13:29:21.577,5ab3fc4b5f01000001cb07e2,1,81,80,23,25,41,man,,,"<img src=""static/images/cards/stack_of_red_bolts.svg"" width=""175px"" height=""250px""></img>",,,,,,,,,,,,,,,,,,,,,,,,,,,,
133,0,,html-keyboard-response,133,238336,0.0-4.22-1.22,vljmoowjl7,2022-09-19 13:29:21.577,5ab3fc4b5f01000001cb07e2,1,81,80,23,25,41,man,367.0,,"
  <table>
  <tr height=300>
    <td width=300 height=300><img src=""static/images/cards/back_of_red_bolts.svg"" width=""175px"" height=""250px""></img></td>
    <td width=300 height=300><img src=""static/images/cards/back_of_red_bolts.svg"" width=""175px"" height=""250px""></img></td>
  </tr>
  <tr height=200>
    <td width=300><img src=""static/images/keys/z.svg"" width=""35%"" height=""75%""></img></td>
    <td width=300><img src=""static/images/keys/m.svg"" width=""35%"" height=""75%""></img></td>
  </tr>
</table>
  ",77.0,1.0,,,,,,,,,,,,,,,,,,,,,,,,,,
134,0,,html-keyboard-response,134,239840,0.0-4.22-2.22,vljmoowjl7,2022-09-19 13:29:21.577,5ab3fc4b5f01000001cb07e2,1,81,80,23,25,41,man,,,"
  <table>
  <tr height=300>
    <td width=300 height=300><img src=""static/images/cards/back_of_red_bolts.svg"" width=""175px"" height=""250px""></img></td>
    <td width=300 height=300><img src=""static/images/cards/4_of_red_bolts.svg"" width=""175px"" height=""250px""></img></td>
  </tr>
  <tr height=200>
    <td width=300><img src=""static/images/keys/z.svg"" width=""35%"" height=""75%""></img></td>
    <td width=300><img src=""static/images/keys/m.svg"" width=""35%"" height=""75%""></img></td>
  </tr>
</table>
  ",,,,,,,,,,,,,,,,,,,,,,,,,,,,
135,0,,html-keyboard-response,135,241347,0.0-4.22-3.22,vljmoowjl7,2022-09-19 13:29:21.577,5ab3fc4b5f01000001cb07e2,1,81,80,23,25,41,man,,,"<p style=""font-size:50px"">You win!
+10 points this round!</p>",,,,,,,,,,,,,,,,,,,,,,,,,,,,
136,0,,html-keyboard-response,136,241853,0.0-4.22-4.22,vljmoowjl7,2022-09-19 13:29:21.577,5ab3fc4b5f01000001cb07e2,1,81,80,23,25,41,man,,,,,,1.0,learning,22.0,Xc,,red,,bolts,,,,Xc,red,bolts,,1.0,0.0,NA,right,367.0,4.0,0.0,1.0,,,
137,0,,html-keyboard-response,137,243354,0.0-4.23-0.23,vljmoowjl7,2022-09-19 13:29:21.577,5ab3fc4b5f01000001cb07e2,1,81,80,23,25,41,man,,,"<img src=""static/images/cards/stack_of_black_bolts.svg"" width=""175px"" height=""250px""></img>",,,,,,,,,,,,,,,,,,,,,,,,,,,,
138,0,,html-keyboard-response,138,244210,0.0-4.23-1.23,vljmoowjl7,2022-09-19 13:29:21.577,5ab3fc4b5f01000001cb07e2,1,81,80,23,25,41,man,355.0,,"
  <table>
  <tr height=300>
    <td width=300 height=300><img src=""static/images/cards/back_of_black_bolts.svg"" width=""175px"" height=""250px""></img></td>
    <td width=300 height=300><img src=""static/images/cards/back_of_black_bolts.svg"" width=""175px"" height=""250px""></img></td>
  </tr>
  <tr height=200>
    <td width=300></td>
    <td width=300><img src=""static/images/keys/m.svg"" width=""35%"" height=""75%""></img></td>
  </tr>
</table>
  ",77.0,1.0,,,,,,,,,,,,,,,,,,,,,,,,,,
139,0,,html-keyboard-response,139,245711,0.0-4.23-2.23,vljmoowjl7,2022-09-19 13:29:21.577,5ab3fc4b5f01000001cb07e2,1,81,80,23,25,41,man,,,"
  <table>
  <tr height=300>
    <td width=300 height=300><img src=""static/images/cards/back_of_black_bolts.svg"" width=""175px"" height=""250px""></img></td>
    <td width=300 height=300><img src=""static/images/cards/10_of_black_bolts.svg"" width=""175px"" height=""250px""></img></td>
  </tr>
  <tr height=200>
    <td width=300></td>
    <td width=300><img src=""static/images/keys/m.svg"" width=""35%"" height=""75%""></img></td>
  </tr>
</table>
  ",,,,,,,,,,,,,,,,,,,,,,,,,,,,
140,0,,html-keyboard-response,140,247214,0.0-4.23-3.23,vljmoowjl7,2022-09-19 13:29:21.577,5ab3fc4b5f01000001cb07e2,1,81,80,23,25,41,man,,,"<p style=""font-size:50px"">You win!
+10 points this round!</p>",,,,,,,,,,,,,,,,,,,,,,,,,,,,
141,0,,html-keyboard-response,141,247724,0.0-4.23-4.23,vljmoowjl7,2022-09-19 13:29:21.577,5ab3fc4b5f01000001cb07e2,1,81,80,23,25,41,man,,,,,,1.0,learning,23.0,Xnc,,black,,bolts,,,,Xnc,black,bolts,,0.0,0.0,0,right,355.0,10.0,1.0,1.0,,,
142,0,,call-function,142,247726,0.0-5.0,vljmoowjl7,2022-09-19 13:29:21.577,5ab3fc4b5f01000001cb07e2,1,81,80,23,25,41,man,,,,,,,,,,,,,,,,,,,,,,,,,,,,,,,
143,0,,image-keyboard-response,143,318123,0.0-6.0-0.0,vljmoowjl7,2022-09-19 13:29:21.577,5ab3fc4b5f01000001cb07e2,1,81,80,23,25,41,man,70398.0,,static/images/instructions_CB_1/Slide20.png,39.0,,,,,,,,,,,,,,,,,,,,,,,,,,,
144,0,,image-keyboard-response,144,326314,0.0-6.1-0.1,vljmoowjl7,2022-09-19 13:29:21.577,5ab3fc4b5f01000001cb07e2,1,81,80,23,25,41,man,8191.0,,static/images/instructions_CB_1/Slide21.png,39.0,,,,,,,,,,,,,,,,,,,,,,,,,,,
145,0,,image-keyboard-response,145,351365,0.0-6.2-0.2,vljmoowjl7,2022-09-19 13:29:21.577,5ab3fc4b5f01000001cb07e2,1,81,80,23,25,41,man,25051.0,,static/images/instructions_CB_1/Slide22.png,39.0,,,,,,,,,,,,,,,,,,,,,,,,,,,
146,0,,image-keyboard-response,146,370415,0.0-6.3-0.3,vljmoowjl7,2022-09-19 13:29:21.577,5ab3fc4b5f01000001cb07e2,1,81,80,23,25,41,man,19049.0,,static/images/instructions_CB_1/Slide23.png,39.0,,,,,,,,,,,,,,,,,,,,,,,,,,,
147,0,,image-keyboard-response,147,372077,0.0-6.4-0.4,vljmoowjl7,2022-09-19 13:29:21.577,5ab3fc4b5f01000001cb07e2,1,81,80,23,25,41,man,1661.0,,static/images/instructions_CB_1/Slide24.png,39.0,,,,,,,,,,,,,,,,,,,,,,,,,,,
148,0,,html-keyboard-response,148,373956,0.0-7.0-0.0,vljmoowjl7,2022-09-19 13:29:21.577,5ab3fc4b5f01000001cb07e2,1,81,80,23,25,41,man,1879.0,,"
  <table>
  <tr height=300>
    <td width=300 height=300><img src=""static/images/cards/stack_of_black_bolts.svg"" width=""175px"" height=""250px""></img></td>
    <td width=300 height=300><img src=""static/images/cards/stack_of_black_stars.svg"" width=""175px"" height=""250px""></img></td>
  </tr>
  <tr height=200>
    <td width=300><img src=""static/images/keys/w.svg"" width=""35%"" height=""75%""></img></td>
    <td width=300><img src=""static/images/keys/o.svg"" width=""35%"" height=""75%""></img></td>
  </tr>
</table>
  ",79.0,1.0,,,,,,,,,,,,,,,,,,,,,,,,,,
149,0,,html-keyboard-response,149,375553,0.0-7.0-1.0,vljmoowjl7,2022-09-19 13:29:21.577,5ab3fc4b5f01000001cb07e2,1,81,80,23,25,41,man,1092.0,,"
  <table>
  <tr height=300>
    <td width=300 height=300><img src=""static/images/cards/back_of_black_stars.svg"" width=""175px"" height=""250px""></img></td>
    <td width=300 height=300><img src=""static/images/cards/back_of_black_stars.svg"" width=""175px"" height=""250px""></img></td>
  </tr>
  <tr height=200>
    <td width=300><img src=""static/images/keys/z.svg"" width=""35%"" height=""75%""></img></td>
    <td width=300></td>
  </tr>
</table>
  ",90.0,1.0,,,,,,,,,,,,,,,,,,,,,,,,,,
150,0,,html-keyboard-response,150,377057,0.0-7.0-2.0,vljmoowjl7,2022-09-19 13:29:21.577,5ab3fc4b5f01000001cb07e2,1,81,80,23,25,41,man,,,"
  <table>
  <tr height=300>
    <td width=300 height=300><img src=""static/images/cards/8_of_black_stars.svg"" width=""175px"" height=""250px""></img></td>
    <td width=300 height=300><img src=""static/images/cards/back_of_black_stars.svg"" width=""175px"" height=""250px""></img></td>
  </tr>
  <tr height=200>
    <td width=300><img src=""static/images/keys/z.svg"" width=""35%"" height=""75%""></img></td>
    <td width=300></td>
  </tr>
</table>
  ",,,,,,,,,,,,,,,,,,,,,,,,,,,,
151,0,,html-keyboard-response,151,378564,0.0-7.0-3.0,vljmoowjl7,2022-09-19 13:29:21.577,5ab3fc4b5f01000001cb07e2,1,81,80,23,25,41,man,,,"<p style=""font-size:50px"">You win!
+10 points this round!</p>",,,,,,,,,,,,,,,,,,,,,,,,,,,,
152,0,,html-keyboard-response,152,379068,0.0-7.0-4.0,vljmoowjl7,2022-09-19 13:29:21.577,5ab3fc4b5f01000001cb07e2,1,81,80,23,25,41,man,,,,,,1.0,choice,0.0,D,Xnc,black,black,bolts,stars,Xnc,D,D,black,stars,1879.0,0.0,0.0,1,left,1092.0,8.0,1.0,1.0,,,
153,0,,html-keyboard-response,153,382325,0.0-7.1-0.1,vljmoowjl7,2022-09-19 13:29:21.577,5ab3fc4b5f01000001cb07e2,1,81,80,23,25,41,man,3258.0,,"
  <table>
  <tr height=300>
    <td width=300 height=300><img src=""static/images/cards/stack_of_black_stars.svg"" width=""175px"" height=""250px""></img></td>
    <td width=300 height=300><img src=""static/images/cards/stack_of_black_moons.svg"" width=""175px"" height=""250px""></img></td>
  </tr>
  <tr height=200>
    <td width=300><img src=""static/images/keys/w.svg"" width=""35%"" height=""75%""></img></td>
    <td width=300><img src=""static/images/keys/o.svg"" width=""35%"" height=""75%""></img></td>
  </tr>
</table>
  ",79.0,1.0,,,,,,,,,,,,,,,,,,,,,,,,,,
154,0,,html-keyboard-response,154,383642,0.0-7.1-1.1,vljmoowjl7,2022-09-19 13:29:21.577,5ab3fc4b5f01000001cb07e2,1,81,80,23,25,41,man,812.0,,"
  <table>
  <tr height=300>
    <td width=300 height=300><img src=""static/images/cards/back_of_black_moons.svg"" width=""175px"" height=""250px""></img></td>
    <td width=300 height=300><img src=""static/images/cards/back_of_black_moons.svg"" width=""175px"" height=""250px""></img></td>
  </tr>
  <tr height=200>
    <td width=300></td>
    <td width=300><img src=""static/images/keys/m.svg"" width=""35%"" height=""75%""></img></td>
  </tr>
</table>
  ",77.0,1.0,,,,,,,,,,,,,,,,,,,,,,,,,,
155,0,,html-keyboard-response,155,385146,0.0-7.1-2.1,vljmoowjl7,2022-09-19 13:29:21.577,5ab3fc4b5f01000001cb07e2,1,81,80,23,25,41,man,,,"
  <table>
  <tr height=300>
    <td width=300 height=300><img src=""static/images/cards/back_of_black_moons.svg"" width=""175px"" height=""250px""></img></td>
    <td width=300 height=300><img src=""static/images/cards/4_of_black_moons.svg"" width=""175px"" height=""250px""></img></td>
  </tr>
  <tr height=200>
    <td width=300></td>
    <td width=300><img src=""static/images/keys/m.svg"" width=""35%"" height=""75%""></img></td>
  </tr>
</table>
  ",,,,,,,,,,,,,,,,,,,,,,,,,,,,
156,0,,html-keyboard-response,156,386646,0.0-7.1-3.1,vljmoowjl7,2022-09-19 13:29:21.577,5ab3fc4b5f01000001cb07e2,1,81,80,23,25,41,man,,,"<p style=""font-size:50px"">You Lose!
No points this round.</p>",,,,,,,,,,,,,,,,,,,,,,,,,,,,
157,0,,html-keyboard-response,157,387156,0.0-7.1-4.1,vljmoowjl7,2022-09-19 13:29:21.577,5ab3fc4b5f01000001cb07e2,1,81,80,23,25,41,man,,,,,,1.0,choice,1.0,B,D,black,black,stars,moons,D,B,B,black,moons,3258.0,0.0,1.0,0,right,812.0,4.0,0.0,0.0,,,
158,0,,html-keyboard-response,158,388715,0.0-7.2-0.2,vljmoowjl7,2022-09-19 13:29:21.577,5ab3fc4b5f01000001cb07e2,1,81,80,23,25,41,man,1559.0,,"
  <table>
  <tr height=300>
    <td width=300 height=300><img src=""static/images/cards/stack_of_red_stars.svg"" width=""175px"" height=""250px""></img></td>
    <td width=300 height=300><img src=""static/images/cards/stack_of_red_moons.svg"" width=""175px"" height=""250px""></img></td>
  </tr>
  <tr height=200>
    <td width=300><img src=""static/images/keys/w.svg"" width=""35%"" height=""75%""></img></td>
    <td width=300><img src=""static/images/keys/o.svg"" width=""35%"" height=""75%""></img></td>
  </tr>
</table>
  ",79.0,1.0,,,,,,,,,,,,,,,,,,,,,,,,,,
159,0,,html-keyboard-response,159,390482,0.0-7.2-1.2,vljmoowjl7,2022-09-19 13:29:21.577,5ab3fc4b5f01000001cb07e2,1,81,80,23,25,41,man,1263.0,,"
  <table>
  <tr height=300>
    <td width=300 height=300><img src=""static/images/cards/back_of_red_moons.svg"" width=""175px"" height=""250px""></img></td>
    <td width=300 height=300><img src=""static/images/cards/back_of_red_moons.svg"" width=""175px"" height=""250px""></img></td>
  </tr>
  <tr height=200>
    <td width=300><img src=""static/images/keys/z.svg"" width=""35%"" height=""75%""></img></td>
    <td width=300><img src=""static/images/keys/m.svg"" width=""35%"" height=""75%""></img></td>
  </tr>
</table>
  ",77.0,1.0,,,,,,,,,,,,,,,,,,,,,,,,,,
160,0,,html-keyboard-response,160,391988,0.0-7.2-2.2,vljmoowjl7,2022-09-19 13:29:21.577,5ab3fc4b5f01000001cb07e2,1,81,80,23,25,41,man,,,"
  <table>
  <tr height=300>
    <td width=300 height=300><img src=""static/images/cards/back_of_red_moons.svg"" width=""175px"" height=""250px""></img></td>
    <td width=300 height=300><img src=""static/images/cards/3_of_red_moons.svg"" width=""175px"" height=""250px""></img></td>
  </tr>
  <tr height=200>
    <td width=300><img src=""static/images/keys/z.svg"" width=""35%"" height=""75%""></img></td>
    <td width=300><img src=""static/images/keys/m.svg"" width=""35%"" height=""75%""></img></td>
  </tr>
</table>
  ",,,,,,,,,,,,,,,,,,,,,,,,,,,,
161,0,,html-keyboard-response,161,393493,0.0-7.2-3.2,vljmoowjl7,2022-09-19 13:29:21.577,5ab3fc4b5f01000001cb07e2,1,81,80,23,25,41,man,,,"<p style=""font-size:50px"">You Lose!
No points this round.</p>",,,,,,,,,,,,,,,,,,,,,,,,,,,,
162,0,,html-keyboard-response,162,393997,0.0-7.2-4.2,vljmoowjl7,2022-09-19 13:29:21.577,5ab3fc4b5f01000001cb07e2,1,81,80,23,25,41,man,,,,,,1.0,choice,2.0,A,C,red,red,stars,moons,C,A,A,red,moons,1559.0,1.0,1.0,NA,right,1263.0,3.0,0.0,0.0,,,
163,0,,html-keyboard-response,163,394779,0.0-7.3-0.3,vljmoowjl7,2022-09-19 13:29:21.577,5ab3fc4b5f01000001cb07e2,1,81,80,23,25,41,man,781.0,,"
  <table>
  <tr height=300>
    <td width=300 height=300><img src=""static/images/cards/stack_of_red_moons.svg"" width=""175px"" height=""250px""></img></td>
    <td width=300 height=300><img src=""static/images/cards/stack_of_black_moons.svg"" width=""175px"" height=""250px""></img></td>
  </tr>
  <tr height=200>
    <td width=300><img src=""static/images/keys/w.svg"" width=""35%"" height=""75%""></img></td>
    <td width=300><img src=""static/images/keys/o.svg"" width=""35%"" height=""75%""></img></td>
  </tr>
</table>
  ",79.0,1.0,,,,,,,,,,,,,,,,,,,,,,,,,,
164,0,,html-keyboard-response,164,396118,0.0-7.3-1.3,vljmoowjl7,2022-09-19 13:29:21.577,5ab3fc4b5f01000001cb07e2,1,81,80,23,25,41,man,838.0,,"
  <table>
  <tr height=300>
    <td width=300 height=300><img src=""static/images/cards/back_of_black_moons.svg"" width=""175px"" height=""250px""></img></td>
    <td width=300 height=300><img src=""static/images/cards/back_of_black_moons.svg"" width=""175px"" height=""250px""></img></td>
  </tr>
  <tr height=200>
    <td width=300></td>
    <td width=300><img src=""static/images/keys/m.svg"" width=""35%"" height=""75%""></img></td>
  </tr>
</table>
  ",77.0,1.0,,,,,,,,,,,,,,,,,,,,,,,,,,
165,0,,html-keyboard-response,165,397622,0.0-7.3-2.3,vljmoowjl7,2022-09-19 13:29:21.577,5ab3fc4b5f01000001cb07e2,1,81,80,23,25,41,man,,,"
  <table>
  <tr height=300>
    <td width=300 height=300><img src=""static/images/cards/back_of_black_moons.svg"" width=""175px"" height=""250px""></img></td>
    <td width=300 height=300><img src=""static/images/cards/4_of_black_moons.svg"" width=""175px"" height=""250px""></img></td>
  </tr>
  <tr height=200>
    <td width=300></td>
    <td width=300><img src=""static/images/keys/m.svg"" width=""35%"" height=""75%""></img></td>
  </tr>
</table>
  ",,,,,,,,,,,,,,,,,,,,,,,,,,,,
166,0,,html-keyboard-response,166,399128,0.0-7.3-3.3,vljmoowjl7,2022-09-19 13:29:21.577,5ab3fc4b5f01000001cb07e2,1,81,80,23,25,41,man,,,"<p style=""font-size:50px"">You Lose!
No points this round.</p>",,,,,,,,,,,,,,,,,,,,,,,,,,,,
167,0,,html-keyboard-response,167,399643,0.0-7.3-4.3,vljmoowjl7,2022-09-19 13:29:21.577,5ab3fc4b5f01000001cb07e2,1,81,80,23,25,41,man,,,,,,1.0,choice,3.0,A,B,red,black,moons,moons,A,B,B,black,moons,781.0,0.0,1.0,0,right,838.0,4.0,0.0,0.0,,,
168,0,,html-keyboard-response,168,400956,0.0-7.4-0.4,vljmoowjl7,2022-09-19 13:29:21.577,5ab3fc4b5f01000001cb07e2,1,81,80,23,25,41,man,1312.0,,"
  <table>
  <tr height=300>
    <td width=300 height=300><img src=""static/images/cards/stack_of_red_stars.svg"" width=""175px"" height=""250px""></img></td>
    <td width=300 height=300><img src=""static/images/cards/stack_of_black_bolts.svg"" width=""175px"" height=""250px""></img></td>
  </tr>
  <tr height=200>
    <td width=300><img src=""static/images/keys/w.svg"" width=""35%"" height=""75%""></img></td>
    <td width=300><img src=""static/images/keys/o.svg"" width=""35%"" height=""75%""></img></td>
  </tr>
</table>
  ",87.0,1.0,,,,,,,,,,,,,,,,,,,,,,,,,,
169,0,,html-keyboard-response,169,402486,0.0-7.4-1.4,vljmoowjl7,2022-09-19 13:29:21.577,5ab3fc4b5f01000001cb07e2,1,81,80,23,25,41,man,1026.0,,"
  <table>
  <tr height=300>
    <td width=300 height=300><img src=""static/images/cards/back_of_red_stars.svg"" width=""175px"" height=""250px""></img></td>
    <td width=300 height=300><img src=""static/images/cards/back_of_red_stars.svg"" width=""175px"" height=""250px""></img></td>
  </tr>
  <tr height=200>
    <td width=300><img src=""static/images/keys/z.svg"" width=""35%"" height=""75%""></img></td>
    <td width=300><img src=""static/images/keys/m.svg"" width=""35%"" height=""75%""></img></td>
  </tr>
</table>
  ",90.0,1.0,,,,,,,,,,,,,,,,,,,,,,,,,,
170,0,,html-keyboard-response,170,403989,0.0-7.4-2.4,vljmoowjl7,2022-09-19 13:29:21.577,5ab3fc4b5f01000001cb07e2,1,81,80,23,25,41,man,,,"
  <table>
  <tr height=300>
    <td width=300 height=300><img src=""static/images/cards/10_of_red_stars.svg"" width=""175px"" height=""250px""></img></td>
    <td width=300 height=300><img src=""static/images/cards/back_of_red_stars.svg"" width=""175px"" height=""250px""></img></td>
  </tr>
  <tr height=200>
    <td width=300><img src=""static/images/keys/z.svg"" width=""35%"" height=""75%""></img></td>
    <td width=300><img src=""static/images/keys/m.svg"" width=""35%"" height=""75%""></img></td>
  </tr>
</table>
  ",,,,,,,,,,,,,,,,,,,,,,,,,,,,
171,0,,html-keyboard-response,171,405495,0.0-7.4-3.4,vljmoowjl7,2022-09-19 13:29:21.577,5ab3fc4b5f01000001cb07e2,1,81,80,23,25,41,man,,,"<p style=""font-size:50px"">You Lose!
No points this round.</p>",,,,,,,,,,,,,,,,,,,,,,,,,,,,
172,0,,html-keyboard-response,172,406000,0.0-7.4-4.4,vljmoowjl7,2022-09-19 13:29:21.577,5ab3fc4b5f01000001cb07e2,1,81,80,23,25,41,man,,,,,,1.0,choice,4.0,C,Xnc,red,black,stars,bolts,C,Xnc,C,red,stars,1312.0,1.0,0.0,NA,left,1026.0,10.0,1.0,0.0,,,
173,0,,html-keyboard-response,173,407706,0.0-7.5-0.5,vljmoowjl7,2022-09-19 13:29:21.577,5ab3fc4b5f01000001cb07e2,1,81,80,23,25,41,man,1705.0,,"
  <table>
  <tr height=300>
    <td width=300 height=300><img src=""static/images/cards/stack_of_red_moons.svg"" width=""175px"" height=""250px""></img></td>
    <td width=300 height=300><img src=""static/images/cards/stack_of_black_bolts.svg"" width=""175px"" height=""250px""></img></td>
  </tr>
  <tr height=200>
    <td width=300><img src=""static/images/keys/w.svg"" width=""35%"" height=""75%""></img></td>
    <td width=300><img src=""static/images/keys/o.svg"" width=""35%"" height=""75%""></img></td>
  </tr>
</table>
  ",79.0,1.0,,,,,,,,,,,,,,,,,,,,,,,,,,
174,0,,html-keyboard-response,174,408853,0.0-7.5-1.5,vljmoowjl7,2022-09-19 13:29:21.577,5ab3fc4b5f01000001cb07e2,1,81,80,23,25,41,man,645.0,,"
  <table>
  <tr height=300>
    <td width=300 height=300><img src=""static/images/cards/back_of_black_bolts.svg"" width=""175px"" height=""250px""></img></td>
    <td width=300 height=300><img src=""static/images/cards/back_of_black_bolts.svg"" width=""175px"" height=""250px""></img></td>
  </tr>
  <tr height=200>
    <td width=300></td>
    <td width=300><img src=""static/images/keys/m.svg"" width=""35%"" height=""75%""></img></td>
  </tr>
</table>
  ",77.0,1.0,,,,,,,,,,,,,,,,,,,,,,,,,,
175,0,,html-keyboard-response,175,410355,0.0-7.5-2.5,vljmoowjl7,2022-09-19 13:29:21.577,5ab3fc4b5f01000001cb07e2,1,81,80,23,25,41,man,,,"
  <table>
  <tr height=300>
    <td width=300 height=300><img src=""static/images/cards/back_of_black_bolts.svg"" width=""175px"" height=""250px""></img></td>
    <td width=300 height=300><img src=""static/images/cards/6_of_black_bolts.svg"" width=""175px"" height=""250px""></img></td>
  </tr>
  <tr height=200>
    <td width=300></td>
    <td width=300><img src=""static/images/keys/m.svg"" width=""35%"" height=""75%""></img></td>
  </tr>
</table>
  ",,,,,,,,,,,,,,,,,,,,,,,,,,,,
176,0,,html-keyboard-response,176,411862,0.0-7.5-3.5,vljmoowjl7,2022-09-19 13:29:21.577,5ab3fc4b5f01000001cb07e2,1,81,80,23,25,41,man,,,"<p style=""font-size:50px"">You win!
+10 points this round!</p>",,,,,,,,,,,,,,,,,,,,,,,,,,,,
177,0,,html-keyboard-response,177,412369,0.0-7.5-4.5,vljmoowjl7,2022-09-19 13:29:21.577,5ab3fc4b5f01000001cb07e2,1,81,80,23,25,41,man,,,,,,1.0,choice,5.0,A,Xnc,red,black,moons,bolts,A,Xnc,Xnc,black,bolts,1705.0,0.0,0.0,0,right,645.0,6.0,1.0,1.0,,,
178,0,,html-keyboard-response,178,413573,0.0-7.6-0.6,vljmoowjl7,2022-09-19 13:29:21.577,5ab3fc4b5f01000001cb07e2,1,81,80,23,25,41,man,1204.0,,"
  <table>
  <tr height=300>
    <td width=300 height=300><img src=""static/images/cards/stack_of_black_moons.svg"" width=""175px"" height=""250px""></img></td>
    <td width=300 height=300><img src=""static/images/cards/stack_of_black_stars.svg"" width=""175px"" height=""250px""></img></td>
  </tr>
  <tr height=200>
    <td width=300><img src=""static/images/keys/w.svg"" width=""35%"" height=""75%""></img></td>
    <td width=300><img src=""static/images/keys/o.svg"" width=""35%"" height=""75%""></img></td>
  </tr>
</table>
  ",87.0,1.0,,,,,,,,,,,,,,,,,,,,,,,,,,
179,0,,html-keyboard-response,179,414602,0.0-7.6-1.6,vljmoowjl7,2022-09-19 13:29:21.577,5ab3fc4b5f01000001cb07e2,1,81,80,23,25,41,man,523.0,,"
  <table>
  <tr height=300>
    <td width=300 height=300><img src=""static/images/cards/back_of_black_moons.svg"" width=""175px"" height=""250px""></img></td>
    <td width=300 height=300><img src=""static/images/cards/back_of_black_moons.svg"" width=""175px"" height=""250px""></img></td>
  </tr>
  <tr height=200>
    <td width=300></td>
    <td width=300><img src=""static/images/keys/m.svg"" width=""35%"" height=""75%""></img></td>
  </tr>
</table>
  ",77.0,1.0,,,,,,,,,,,,,,,,,,,,,,,,,,
180,0,,html-keyboard-response,180,416103,0.0-7.6-2.6,vljmoowjl7,2022-09-19 13:29:21.577,5ab3fc4b5f01000001cb07e2,1,81,80,23,25,41,man,,,"
  <table>
  <tr height=300>
    <td width=300 height=300><img src=""static/images/cards/back_of_black_moons.svg"" width=""175px"" height=""250px""></img></td>
    <td width=300 height=300><img src=""static/images/cards/9_of_black_moons.svg"" width=""175px"" height=""250px""></img></td>
  </tr>
  <tr height=200>
    <td width=300></td>
    <td width=300><img src=""static/images/keys/m.svg"" width=""35%"" height=""75%""></img></td>
  </tr>
</table>
  ",,,,,,,,,,,,,,,,,,,,,,,,,,,,
181,0,,html-keyboard-response,181,417608,0.0-7.6-3.6,vljmoowjl7,2022-09-19 13:29:21.577,5ab3fc4b5f01000001cb07e2,1,81,80,23,25,41,man,,,"<p style=""font-size:50px"">You win!
+10 points this round!</p>",,,,,,,,,,,,,,,,,,,,,,,,,,,,
182,0,,html-keyboard-response,182,418116,0.0-7.6-4.6,vljmoowjl7,2022-09-19 13:29:21.577,5ab3fc4b5f01000001cb07e2,1,81,80,23,25,41,man,,,,,,1.0,choice,6.0,B,D,black,black,moons,stars,B,D,B,black,moons,1204.0,0.0,1.0,0,right,523.0,9.0,1.0,1.0,,,
183,0,,html-keyboard-response,183,418877,0.0-7.7-0.7,vljmoowjl7,2022-09-19 13:29:21.577,5ab3fc4b5f01000001cb07e2,1,81,80,23,25,41,man,760.0,,"
  <table>
  <tr height=300>
    <td width=300 height=300><img src=""static/images/cards/stack_of_black_moons.svg"" width=""175px"" height=""250px""></img></td>
    <td width=300 height=300><img src=""static/images/cards/stack_of_red_stars.svg"" width=""175px"" height=""250px""></img></td>
  </tr>
  <tr height=200>
    <td width=300><img src=""static/images/keys/w.svg"" width=""35%"" height=""75%""></img></td>
    <td width=300><img src=""static/images/keys/o.svg"" width=""35%"" height=""75%""></img></td>
  </tr>
</table>
  ",87.0,1.0,,,,,,,,,,,,,,,,,,,,,,,,,,
184,0,,html-keyboard-response,184,419777,0.0-7.7-1.7,vljmoowjl7,2022-09-19 13:29:21.577,5ab3fc4b5f01000001cb07e2,1,81,80,23,25,41,man,395.0,,"
  <table>
  <tr height=300>
    <td width=300 height=300><img src=""static/images/cards/back_of_black_moons.svg"" width=""175px"" height=""250px""></img></td>
    <td width=300 height=300><img src=""static/images/cards/back_of_black_moons.svg"" width=""175px"" height=""250px""></img></td>
  </tr>
  <tr height=200>
    <td width=300></td>
    <td width=300><img src=""static/images/keys/m.svg"" width=""35%"" height=""75%""></img></td>
  </tr>
</table>
  ",77.0,1.0,,,,,,,,,,,,,,,,,,,,,,,,,,
185,0,,html-keyboard-response,185,421280,0.0-7.7-2.7,vljmoowjl7,2022-09-19 13:29:21.577,5ab3fc4b5f01000001cb07e2,1,81,80,23,25,41,man,,,"
  <table>
  <tr height=300>
    <td width=300 height=300><img src=""static/images/cards/back_of_black_moons.svg"" width=""175px"" height=""250px""></img></td>
    <td width=300 height=300><img src=""static/images/cards/8_of_black_moons.svg"" width=""175px"" height=""250px""></img></td>
  </tr>
  <tr height=200>
    <td width=300></td>
    <td width=300><img src=""static/images/keys/m.svg"" width=""35%"" height=""75%""></img></td>
  </tr>
</table>
  ",,,,,,,,,,,,,,,,,,,,,,,,,,,,
186,0,,html-keyboard-response,186,422784,0.0-7.7-3.7,vljmoowjl7,2022-09-19 13:29:21.577,5ab3fc4b5f01000001cb07e2,1,81,80,23,25,41,man,,,"<p style=""font-size:50px"">You win!
+10 points this round!</p>",,,,,,,,,,,,,,,,,,,,,,,,,,,,
187,0,,html-keyboard-response,187,423289,0.0-7.7-4.7,vljmoowjl7,2022-09-19 13:29:21.577,5ab3fc4b5f01000001cb07e2,1,81,80,23,25,41,man,,,,,,1.0,choice,7.0,B,C,black,red,moons,stars,B,C,B,black,moons,760.0,0.0,1.0,0,right,395.0,8.0,1.0,1.0,,,
188,0,,html-keyboard-response,188,425234,0.0-7.8-0.8,vljmoowjl7,2022-09-19 13:29:21.577,5ab3fc4b5f01000001cb07e2,1,81,80,23,25,41,man,1943.0,,"
  <table>
  <tr height=300>
    <td width=300 height=300><img src=""static/images/cards/stack_of_red_moons.svg"" width=""175px"" height=""250px""></img></td>
    <td width=300 height=300><img src=""static/images/cards/stack_of_black_moons.svg"" width=""175px"" height=""250px""></img></td>
  </tr>
  <tr height=200>
    <td width=300><img src=""static/images/keys/w.svg"" width=""35%"" height=""75%""></img></td>
    <td width=300><img src=""static/images/keys/o.svg"" width=""35%"" height=""75%""></img></td>
  </tr>
</table>
  ",79.0,1.0,,,,,,,,,,,,,,,,,,,,,,,,,,
189,0,,html-keyboard-response,189,426459,0.0-7.8-1.8,vljmoowjl7,2022-09-19 13:29:21.577,5ab3fc4b5f01000001cb07e2,1,81,80,23,25,41,man,724.0,,"
  <table>
  <tr height=300>
    <td width=300 height=300><img src=""static/images/cards/back_of_black_moons.svg"" width=""175px"" height=""250px""></img></td>
    <td width=300 height=300><img src=""static/images/cards/back_of_black_moons.svg"" width=""175px"" height=""250px""></img></td>
  </tr>
  <tr height=200>
    <td width=300><img src=""static/images/keys/z.svg"" width=""35%"" height=""75%""></img></td>
    <td width=300></td>
  </tr>
</table>
  ",90.0,1.0,,,,,,,,,,,,,,,,,,,,,,,,,,
190,0,,html-keyboard-response,190,427963,0.0-7.8-2.8,vljmoowjl7,2022-09-19 13:29:21.577,5ab3fc4b5f01000001cb07e2,1,81,80,23,25,41,man,,,"
  <table>
  <tr height=300>
    <td width=300 height=300><img src=""static/images/cards/4_of_black_moons.svg"" width=""175px"" height=""250px""></img></td>
    <td width=300 height=300><img src=""static/images/cards/back_of_black_moons.svg"" width=""175px"" height=""250px""></img></td>
  </tr>
  <tr height=200>
    <td width=300><img src=""static/images/keys/z.svg"" width=""35%"" height=""75%""></img></td>
    <td width=300></td>
  </tr>
</table>
  ",,,,,,,,,,,,,,,,,,,,,,,,,,,,
191,0,,html-keyboard-response,191,429469,0.0-7.8-3.8,vljmoowjl7,2022-09-19 13:29:21.577,5ab3fc4b5f01000001cb07e2,1,81,80,23,25,41,man,,,"<p style=""font-size:50px"">You Lose!
No points this round.</p>",,,,,,,,,,,,,,,,,,,,,,,,,,,,
192,0,,html-keyboard-response,192,429974,0.0-7.8-4.8,vljmoowjl7,2022-09-19 13:29:21.577,5ab3fc4b5f01000001cb07e2,1,81,80,23,25,41,man,,,,,,1.0,choice,8.0,A,B,red,black,moons,moons,A,B,B,black,moons,1943.0,0.0,1.0,1,left,724.0,4.0,0.0,0.0,,,
193,0,,html-keyboard-response,193,430892,0.0-7.9-0.9,vljmoowjl7,2022-09-19 13:29:21.577,5ab3fc4b5f01000001cb07e2,1,81,80,23,25,41,man,918.0,,"
  <table>
  <tr height=300>
    <td width=300 height=300><img src=""static/images/cards/stack_of_black_moons.svg"" width=""175px"" height=""250px""></img></td>
    <td width=300 height=300><img src=""static/images/cards/stack_of_red_stars.svg"" width=""175px"" height=""250px""></img></td>
  </tr>
  <tr height=200>
    <td width=300><img src=""static/images/keys/w.svg"" width=""35%"" height=""75%""></img></td>
    <td width=300><img src=""static/images/keys/o.svg"" width=""35%"" height=""75%""></img></td>
  </tr>
</table>
  ",87.0,1.0,,,,,,,,,,,,,,,,,,,,,,,,,,
194,0,,html-keyboard-response,194,431860,0.0-7.9-1.9,vljmoowjl7,2022-09-19 13:29:21.577,5ab3fc4b5f01000001cb07e2,1,81,80,23,25,41,man,466.0,,"
  <table>
  <tr height=300>
    <td width=300 height=300><img src=""static/images/cards/back_of_black_moons.svg"" width=""175px"" height=""250px""></img></td>
    <td width=300 height=300><img src=""static/images/cards/back_of_black_moons.svg"" width=""175px"" height=""250px""></img></td>
  </tr>
  <tr height=200>
    <td width=300></td>
    <td width=300><img src=""static/images/keys/m.svg"" width=""35%"" height=""75%""></img></td>
  </tr>
</table>
  ",77.0,1.0,,,,,,,,,,,,,,,,,,,,,,,,,,
195,0,,html-keyboard-response,195,433362,0.0-7.9-2.9,vljmoowjl7,2022-09-19 13:29:21.577,5ab3fc4b5f01000001cb07e2,1,81,80,23,25,41,man,,,"
  <table>
  <tr height=300>
    <td width=300 height=300><img src=""static/images/cards/back_of_black_moons.svg"" width=""175px"" height=""250px""></img></td>
    <td width=300 height=300><img src=""static/images/cards/8_of_black_moons.svg"" width=""175px"" height=""250px""></img></td>
  </tr>
  <tr height=200>
    <td width=300></td>
    <td width=300><img src=""static/images/keys/m.svg"" width=""35%"" height=""75%""></img></td>
  </tr>
</table>
  ",,,,,,,,,,,,,,,,,,,,,,,,,,,,
196,0,,html-keyboard-response,196,434869,0.0-7.9-3.9,vljmoowjl7,2022-09-19 13:29:21.577,5ab3fc4b5f01000001cb07e2,1,81,80,23,25,41,man,,,"<p style=""font-size:50px"">You win!
+10 points this round!</p>",,,,,,,,,,,,,,,,,,,,,,,,,,,,
197,0,,html-keyboard-response,197,435374,0.0-7.9-4.9,vljmoowjl7,2022-09-19 13:29:21.577,5ab3fc4b5f01000001cb07e2,1,81,80,23,25,41,man,,,,,,1.0,choice,9.0,B,C,black,red,moons,stars,B,C,B,black,moons,918.0,0.0,1.0,0,right,466.0,8.0,1.0,1.0,,,
198,0,,html-keyboard-response,198,436157,0.0-7.10-0.10,vljmoowjl7,2022-09-19 13:29:21.577,5ab3fc4b5f01000001cb07e2,1,81,80,23,25,41,man,782.0,,"
  <table>
  <tr height=300>
    <td width=300 height=300><img src=""static/images/cards/stack_of_black_moons.svg"" width=""175px"" height=""250px""></img></td>
    <td width=300 height=300><img src=""static/images/cards/stack_of_black_stars.svg"" width=""175px"" height=""250px""></img></td>
  </tr>
  <tr height=200>
    <td width=300><img src=""static/images/keys/w.svg"" width=""35%"" height=""75%""></img></td>
    <td width=300><img src=""static/images/keys/o.svg"" width=""35%"" height=""75%""></img></td>
  </tr>
</table>
  ",87.0,1.0,,,,,,,,,,,,,,,,,,,,,,,,,,
199,0,,html-keyboard-response,199,437214,0.0-7.10-1.10,vljmoowjl7,2022-09-19 13:29:21.577,5ab3fc4b5f01000001cb07e2,1,81,80,23,25,41,man,556.0,,"
  <table>
  <tr height=300>
    <td width=300 height=300><img src=""static/images/cards/back_of_black_moons.svg"" width=""175px"" height=""250px""></img></td>
    <td width=300 height=300><img src=""static/images/cards/back_of_black_moons.svg"" width=""175px"" height=""250px""></img></td>
  </tr>
  <tr height=200>
    <td width=300></td>
    <td width=300><img src=""static/images/keys/m.svg"" width=""35%"" height=""75%""></img></td>
  </tr>
</table>
  ",77.0,1.0,,,,,,,,,,,,,,,,,,,,,,,,,,
200,0,,html-keyboard-response,200,438716,0.0-7.10-2.10,vljmoowjl7,2022-09-19 13:29:21.577,5ab3fc4b5f01000001cb07e2,1,81,80,23,25,41,man,,,"
  <table>
  <tr height=300>
    <td width=300 height=300><img src=""static/images/cards/back_of_black_moons.svg"" width=""175px"" height=""250px""></img></td>
    <td width=300 height=300><img src=""static/images/cards/1_of_black_moons.svg"" width=""175px"" height=""250px""></img></td>
  </tr>
  <tr height=200>
    <td width=300></td>
    <td width=300><img src=""static/images/keys/m.svg"" width=""35%"" height=""75%""></img></td>
  </tr>
</table>
  ",,,,,,,,,,,,,,,,,,,,,,,,,,,,
201,0,,html-keyboard-response,201,440219,0.0-7.10-3.10,vljmoowjl7,2022-09-19 13:29:21.577,5ab3fc4b5f01000001cb07e2,1,81,80,23,25,41,man,,,"<p style=""font-size:50px"">You Lose!
No points this round.</p>",,,,,,,,,,,,,,,,,,,,,,,,,,,,
202,0,,html-keyboard-response,202,440729,0.0-7.10-4.10,vljmoowjl7,2022-09-19 13:29:21.577,5ab3fc4b5f01000001cb07e2,1,81,80,23,25,41,man,,,,,,1.0,choice,10.0,B,D,black,black,moons,stars,B,D,B,black,moons,782.0,0.0,1.0,0,right,556.0,1.0,0.0,0.0,,,
203,0,,html-keyboard-response,203,441873,0.0-7.11-0.11,vljmoowjl7,2022-09-19 13:29:21.577,5ab3fc4b5f01000001cb07e2,1,81,80,23,25,41,man,1142.0,,"
  <table>
  <tr height=300>
    <td width=300 height=300><img src=""static/images/cards/stack_of_red_stars.svg"" width=""175px"" height=""250px""></img></td>
    <td width=300 height=300><img src=""static/images/cards/stack_of_black_moons.svg"" width=""175px"" height=""250px""></img></td>
  </tr>
  <tr height=200>
    <td width=300><img src=""static/images/keys/w.svg"" width=""35%"" height=""75%""></img></td>
    <td width=300><img src=""static/images/keys/o.svg"" width=""35%"" height=""75%""></img></td>
  </tr>
</table>
  ",79.0,1.0,,,,,,,,,,,,,,,,,,,,,,,,,,
204,0,,html-keyboard-response,204,442997,0.0-7.11-1.11,vljmoowjl7,2022-09-19 13:29:21.577,5ab3fc4b5f01000001cb07e2,1,81,80,23,25,41,man,622.0,,"
  <table>
  <tr height=300>
    <td width=300 height=300><img src=""static/images/cards/back_of_black_moons.svg"" width=""175px"" height=""250px""></img></td>
    <td width=300 height=300><img src=""static/images/cards/back_of_black_moons.svg"" width=""175px"" height=""250px""></img></td>
  </tr>
  <tr height=200>
    <td width=300><img src=""static/images/keys/z.svg"" width=""35%"" height=""75%""></img></td>
    <td width=300></td>
  </tr>
</table>
  ",90.0,1.0,,,,,,,,,,,,,,,,,,,,,,,,,,
205,0,,html-keyboard-response,205,444498,0.0-7.11-2.11,vljmoowjl7,2022-09-19 13:29:21.577,5ab3fc4b5f01000001cb07e2,1,81,80,23,25,41,man,,,"
  <table>
  <tr height=300>
    <td width=300 height=300><img src=""static/images/cards/8_of_black_moons.svg"" width=""175px"" height=""250px""></img></td>
    <td width=300 height=300><img src=""static/images/cards/back_of_black_moons.svg"" width=""175px"" height=""250px""></img></td>
  </tr>
  <tr height=200>
    <td width=300><img src=""static/images/keys/z.svg"" width=""35%"" height=""75%""></img></td>
    <td width=300></td>
  </tr>
</table>
  ",,,,,,,,,,,,,,,,,,,,,,,,,,,,
206,0,,html-keyboard-response,206,446003,0.0-7.11-3.11,vljmoowjl7,2022-09-19 13:29:21.577,5ab3fc4b5f01000001cb07e2,1,81,80,23,25,41,man,,,"<p style=""font-size:50px"">You win!
+10 points this round!</p>",,,,,,,,,,,,,,,,,,,,,,,,,,,,
207,0,,html-keyboard-response,207,446510,0.0-7.11-4.11,vljmoowjl7,2022-09-19 13:29:21.577,5ab3fc4b5f01000001cb07e2,1,81,80,23,25,41,man,,,,,,1.0,choice,11.0,B,C,red,black,stars,moons,C,B,B,black,moons,1142.0,0.0,1.0,1,left,622.0,8.0,1.0,1.0,,,
208,0,,html-keyboard-response,208,447893,0.0-7.12-0.12,vljmoowjl7,2022-09-19 13:29:21.577,5ab3fc4b5f01000001cb07e2,1,81,80,23,25,41,man,1382.0,,"
  <table>
  <tr height=300>
    <td width=300 height=300><img src=""static/images/cards/stack_of_red_stars.svg"" width=""175px"" height=""250px""></img></td>
    <td width=300 height=300><img src=""static/images/cards/stack_of_black_stars.svg"" width=""175px"" height=""250px""></img></td>
  </tr>
  <tr height=200>
    <td width=300><img src=""static/images/keys/w.svg"" width=""35%"" height=""75%""></img></td>
    <td width=300><img src=""static/images/keys/o.svg"" width=""35%"" height=""75%""></img></td>
  </tr>
</table>
  ",79.0,1.0,,,,,,,,,,,,,,,,,,,,,,,,,,
209,0,,html-keyboard-response,209,448791,0.0-7.12-1.12,vljmoowjl7,2022-09-19 13:29:21.577,5ab3fc4b5f01000001cb07e2,1,81,80,23,25,41,man,394.0,,"
  <table>
  <tr height=300>
    <td width=300 height=300><img src=""static/images/cards/back_of_black_stars.svg"" width=""175px"" height=""250px""></img></td>
    <td width=300 height=300><img src=""static/images/cards/back_of_black_stars.svg"" width=""175px"" height=""250px""></img></td>
  </tr>
  <tr height=200>
    <td width=300></td>
    <td width=300><img src=""static/images/keys/m.svg"" width=""35%"" height=""75%""></img></td>
  </tr>
</table>
  ",77.0,1.0,,,,,,,,,,,,,,,,,,,,,,,,,,
210,0,,html-keyboard-response,210,450294,0.0-7.12-2.12,vljmoowjl7,2022-09-19 13:29:21.577,5ab3fc4b5f01000001cb07e2,1,81,80,23,25,41,man,,,"
  <table>
  <tr height=300>
    <td width=300 height=300><img src=""static/images/cards/back_of_black_stars.svg"" width=""175px"" height=""250px""></img></td>
    <td width=300 height=300><img src=""static/images/cards/4_of_black_stars.svg"" width=""175px"" height=""250px""></img></td>
  </tr>
  <tr height=200>
    <td width=300></td>
    <td width=300><img src=""static/images/keys/m.svg"" width=""35%"" height=""75%""></img></td>
  </tr>
</table>
  ",,,,,,,,,,,,,,,,,,,,,,,,,,,,
211,0,,html-keyboard-response,211,451799,0.0-7.12-3.12,vljmoowjl7,2022-09-19 13:29:21.577,5ab3fc4b5f01000001cb07e2,1,81,80,23,25,41,man,,,"<p style=""font-size:50px"">You Lose!
No points this round.</p>",,,,,,,,,,,,,,,,,,,,,,,,,,,,
212,0,,html-keyboard-response,212,452304,0.0-7.12-4.12,vljmoowjl7,2022-09-19 13:29:21.577,5ab3fc4b5f01000001cb07e2,1,81,80,23,25,41,man,,,,,,1.0,choice,12.0,C,D,red,black,stars,stars,C,D,D,black,stars,1382.0,0.0,0.0,0,right,394.0,4.0,0.0,0.0,,,
213,0,,html-keyboard-response,213,453381,0.0-7.13-0.13,vljmoowjl7,2022-09-19 13:29:21.577,5ab3fc4b5f01000001cb07e2,1,81,80,23,25,41,man,1077.0,,"
  <table>
  <tr height=300>
    <td width=300 height=300><img src=""static/images/cards/stack_of_black_moons.svg"" width=""175px"" height=""250px""></img></td>
    <td width=300 height=300><img src=""static/images/cards/stack_of_red_stars.svg"" width=""175px"" height=""250px""></img></td>
  </tr>
  <tr height=200>
    <td width=300><img src=""static/images/keys/w.svg"" width=""35%"" height=""75%""></img></td>
    <td width=300><img src=""static/images/keys/o.svg"" width=""35%"" height=""75%""></img></td>
  </tr>
</table>
  ",87.0,1.0,,,,,,,,,,,,,,,,,,,,,,,,,,
214,0,,html-keyboard-response,214,454259,0.0-7.13-1.13,vljmoowjl7,2022-09-19 13:29:21.577,5ab3fc4b5f01000001cb07e2,1,81,80,23,25,41,man,377.0,,"
  <table>
  <tr height=300>
    <td width=300 height=300><img src=""static/images/cards/back_of_black_moons.svg"" width=""175px"" height=""250px""></img></td>
    <td width=300 height=300><img src=""static/images/cards/back_of_black_moons.svg"" width=""175px"" height=""250px""></img></td>
  </tr>
  <tr height=200>
    <td width=300></td>
    <td width=300><img src=""static/images/keys/m.svg"" width=""35%"" height=""75%""></img></td>
  </tr>
</table>
  ",77.0,1.0,,,,,,,,,,,,,,,,,,,,,,,,,,
215,0,,html-keyboard-response,215,455760,0.0-7.13-2.13,vljmoowjl7,2022-09-19 13:29:21.577,5ab3fc4b5f01000001cb07e2,1,81,80,23,25,41,man,,,"
  <table>
  <tr height=300>
    <td width=300 height=300><img src=""static/images/cards/back_of_black_moons.svg"" width=""175px"" height=""250px""></img></td>
    <td width=300 height=300><img src=""static/images/cards/2_of_black_moons.svg"" width=""175px"" height=""250px""></img></td>
  </tr>
  <tr height=200>
    <td width=300></td>
    <td width=300><img src=""static/images/keys/m.svg"" width=""35%"" height=""75%""></img></td>
  </tr>
</table>
  ",,,,,,,,,,,,,,,,,,,,,,,,,,,,
216,0,,html-keyboard-response,216,457270,0.0-7.13-3.13,vljmoowjl7,2022-09-19 13:29:21.577,5ab3fc4b5f01000001cb07e2,1,81,80,23,25,41,man,,,"<p style=""font-size:50px"">You Lose!
No points this round.</p>",,,,,,,,,,,,,,,,,,,,,,,,,,,,
217,0,,html-keyboard-response,217,457776,0.0-7.13-4.13,vljmoowjl7,2022-09-19 13:29:21.577,5ab3fc4b5f01000001cb07e2,1,81,80,23,25,41,man,,,,,,1.0,choice,13.0,B,C,black,red,moons,stars,B,C,B,black,moons,1077.0,0.0,1.0,0,right,377.0,2.0,0.0,0.0,,,
218,0,,html-keyboard-response,218,458500,0.0-7.14-0.14,vljmoowjl7,2022-09-19 13:29:21.577,5ab3fc4b5f01000001cb07e2,1,81,80,23,25,41,man,723.0,,"
  <table>
  <tr height=300>
    <td width=300 height=300><img src=""static/images/cards/stack_of_red_moons.svg"" width=""175px"" height=""250px""></img></td>
    <td width=300 height=300><img src=""static/images/cards/stack_of_red_stars.svg"" width=""175px"" height=""250px""></img></td>
  </tr>
  <tr height=200>
    <td width=300><img src=""static/images/keys/w.svg"" width=""35%"" height=""75%""></img></td>
    <td width=300><img src=""static/images/keys/o.svg"" width=""35%"" height=""75%""></img></td>
  </tr>
</table>
  ",87.0,1.0,,,,,,,,,,,,,,,,,,,,,,,,,,
219,0,,html-keyboard-response,219,459962,0.0-7.14-1.14,vljmoowjl7,2022-09-19 13:29:21.577,5ab3fc4b5f01000001cb07e2,1,81,80,23,25,41,man,957.0,,"
  <table>
  <tr height=300>
    <td width=300 height=300><img src=""static/images/cards/back_of_red_moons.svg"" width=""175px"" height=""250px""></img></td>
    <td width=300 height=300><img src=""static/images/cards/back_of_red_moons.svg"" width=""175px"" height=""250px""></img></td>
  </tr>
  <tr height=200>
    <td width=300><img src=""static/images/keys/z.svg"" width=""35%"" height=""75%""></img></td>
    <td width=300><img src=""static/images/keys/m.svg"" width=""35%"" height=""75%""></img></td>
  </tr>
</table>
  ",90.0,1.0,,,,,,,,,,,,,,,,,,,,,,,,,,
220,0,,html-keyboard-response,220,461465,0.0-7.14-2.14,vljmoowjl7,2022-09-19 13:29:21.577,5ab3fc4b5f01000001cb07e2,1,81,80,23,25,41,man,,,"
  <table>
  <tr height=300>
    <td width=300 height=300><img src=""static/images/cards/6_of_red_moons.svg"" width=""175px"" height=""250px""></img></td>
    <td width=300 height=300><img src=""static/images/cards/back_of_red_moons.svg"" width=""175px"" height=""250px""></img></td>
  </tr>
  <tr height=200>
    <td width=300><img src=""static/images/keys/z.svg"" width=""35%"" height=""75%""></img></td>
    <td width=300><img src=""static/images/keys/m.svg"" width=""35%"" height=""75%""></img></td>
  </tr>
</table>
  ",,,,,,,,,,,,,,,,,,,,,,,,,,,,
221,0,,html-keyboard-response,221,462970,0.0-7.14-3.14,vljmoowjl7,2022-09-19 13:29:21.577,5ab3fc4b5f01000001cb07e2,1,81,80,23,25,41,man,,,"<p style=""font-size:50px"">You win!
+10 points this round!</p>",,,,,,,,,,,,,,,,,,,,,,,,,,,,
222,0,,html-keyboard-response,222,463476,0.0-7.14-4.14,vljmoowjl7,2022-09-19 13:29:21.577,5ab3fc4b5f01000001cb07e2,1,81,80,23,25,41,man,,,,,,1.0,choice,14.0,A,C,red,red,moons,stars,A,C,A,red,moons,723.0,1.0,1.0,NA,left,957.0,6.0,1.0,1.0,,,
223,0,,html-keyboard-response,223,464631,0.0-7.15-0.15,vljmoowjl7,2022-09-19 13:29:21.577,5ab3fc4b5f01000001cb07e2,1,81,80,23,25,41,man,1155.0,,"
  <table>
  <tr height=300>
    <td width=300 height=300><img src=""static/images/cards/stack_of_red_stars.svg"" width=""175px"" height=""250px""></img></td>
    <td width=300 height=300><img src=""static/images/cards/stack_of_red_moons.svg"" width=""175px"" height=""250px""></img></td>
  </tr>
  <tr height=200>
    <td width=300><img src=""static/images/keys/w.svg"" width=""35%"" height=""75%""></img></td>
    <td width=300><img src=""static/images/keys/o.svg"" width=""35%"" height=""75%""></img></td>
  </tr>
</table>
  ",79.0,1.0,,,,,,,,,,,,,,,,,,,,,,,,,,
224,0,,html-keyboard-response,224,465835,0.0-7.15-1.15,vljmoowjl7,2022-09-19 13:29:21.577,5ab3fc4b5f01000001cb07e2,1,81,80,23,25,41,man,702.0,,"
  <table>
  <tr height=300>
    <td width=300 height=300><img src=""static/images/cards/back_of_red_moons.svg"" width=""175px"" height=""250px""></img></td>
    <td width=300 height=300><img src=""static/images/cards/back_of_red_moons.svg"" width=""175px"" height=""250px""></img></td>
  </tr>
  <tr height=200>
    <td width=300><img src=""static/images/keys/z.svg"" width=""35%"" height=""75%""></img></td>
    <td width=300><img src=""static/images/keys/m.svg"" width=""35%"" height=""75%""></img></td>
  </tr>
</table>
  ",77.0,1.0,,,,,,,,,,,,,,,,,,,,,,,,,,
225,0,,html-keyboard-response,225,467340,0.0-7.15-2.15,vljmoowjl7,2022-09-19 13:29:21.577,5ab3fc4b5f01000001cb07e2,1,81,80,23,25,41,man,,,"
  <table>
  <tr height=300>
    <td width=300 height=300><img src=""static/images/cards/back_of_red_moons.svg"" width=""175px"" height=""250px""></img></td>
    <td width=300 height=300><img src=""static/images/cards/8_of_red_moons.svg"" width=""175px"" height=""250px""></img></td>
  </tr>
  <tr height=200>
    <td width=300><img src=""static/images/keys/z.svg"" width=""35%"" height=""75%""></img></td>
    <td width=300><img src=""static/images/keys/m.svg"" width=""35%"" height=""75%""></img></td>
  </tr>
</table>
  ",,,,,,,,,,,,,,,,,,,,,,,,,,,,
226,0,,html-keyboard-response,226,468845,0.0-7.15-3.15,vljmoowjl7,2022-09-19 13:29:21.577,5ab3fc4b5f01000001cb07e2,1,81,80,23,25,41,man,,,"<p style=""font-size:50px"">You win!
+10 points this round!</p>",,,,,,,,,,,,,,,,,,,,,,,,,,,,
227,0,,html-keyboard-response,227,469350,0.0-7.15-4.15,vljmoowjl7,2022-09-19 13:29:21.577,5ab3fc4b5f01000001cb07e2,1,81,80,23,25,41,man,,,,,,1.0,choice,15.0,A,C,red,red,stars,moons,C,A,A,red,moons,1155.0,1.0,1.0,NA,right,702.0,8.0,1.0,1.0,,,
228,0,,html-keyboard-response,228,470661,0.0-7.16-0.16,vljmoowjl7,2022-09-19 13:29:21.577,5ab3fc4b5f01000001cb07e2,1,81,80,23,25,41,man,1310.0,,"
  <table>
  <tr height=300>
    <td width=300 height=300><img src=""static/images/cards/stack_of_red_bolts.svg"" width=""175px"" height=""250px""></img></td>
    <td width=300 height=300><img src=""static/images/cards/stack_of_red_moons.svg"" width=""175px"" height=""250px""></img></td>
  </tr>
  <tr height=200>
    <td width=300><img src=""static/images/keys/w.svg"" width=""35%"" height=""75%""></img></td>
    <td width=300><img src=""static/images/keys/o.svg"" width=""35%"" height=""75%""></img></td>
  </tr>
</table>
  ",87.0,1.0,,,,,,,,,,,,,,,,,,,,,,,,,,
229,0,,html-keyboard-response,229,471966,0.0-7.16-1.16,vljmoowjl7,2022-09-19 13:29:21.577,5ab3fc4b5f01000001cb07e2,1,81,80,23,25,41,man,801.0,,"
  <table>
  <tr height=300>
    <td width=300 height=300><img src=""static/images/cards/back_of_red_bolts.svg"" width=""175px"" height=""250px""></img></td>
    <td width=300 height=300><img src=""static/images/cards/back_of_red_bolts.svg"" width=""175px"" height=""250px""></img></td>
  </tr>
  <tr height=200>
    <td width=300><img src=""static/images/keys/z.svg"" width=""35%"" height=""75%""></img></td>
    <td width=300><img src=""static/images/keys/m.svg"" width=""35%"" height=""75%""></img></td>
  </tr>
</table>
  ",90.0,1.0,,,,,,,,,,,,,,,,,,,,,,,,,,
230,0,,html-keyboard-response,230,473468,0.0-7.16-2.16,vljmoowjl7,2022-09-19 13:29:21.577,5ab3fc4b5f01000001cb07e2,1,81,80,23,25,41,man,,,"
  <table>
  <tr height=300>
    <td width=300 height=300><img src=""static/images/cards/10_of_red_bolts.svg"" width=""175px"" height=""250px""></img></td>
    <td width=300 height=300><img src=""static/images/cards/back_of_red_bolts.svg"" width=""175px"" height=""250px""></img></td>
  </tr>
  <tr height=200>
    <td width=300><img src=""static/images/keys/z.svg"" width=""35%"" height=""75%""></img></td>
    <td width=300><img src=""static/images/keys/m.svg"" width=""35%"" height=""75%""></img></td>
  </tr>
</table>
  ",,,,,,,,,,,,,,,,,,,,,,,,,,,,
231,0,,html-keyboard-response,231,474971,0.0-7.16-3.16,vljmoowjl7,2022-09-19 13:29:21.577,5ab3fc4b5f01000001cb07e2,1,81,80,23,25,41,man,,,"<p style=""font-size:50px"">You win!
+10 points this round!</p>",,,,,,,,,,,,,,,,,,,,,,,,,,,,
232,0,,html-keyboard-response,232,475480,0.0-7.16-4.16,vljmoowjl7,2022-09-19 13:29:21.577,5ab3fc4b5f01000001cb07e2,1,81,80,23,25,41,man,,,,,,1.0,choice,16.0,A,Xc,red,red,bolts,moons,Xc,A,Xc,red,bolts,1310.0,1.0,0.0,NA,left,801.0,10.0,1.0,1.0,,,
233,0,,html-keyboard-response,233,476294,0.0-7.17-0.17,vljmoowjl7,2022-09-19 13:29:21.577,5ab3fc4b5f01000001cb07e2,1,81,80,23,25,41,man,813.0,,"
  <table>
  <tr height=300>
    <td width=300 height=300><img src=""static/images/cards/stack_of_red_moons.svg"" width=""175px"" height=""250px""></img></td>
    <td width=300 height=300><img src=""static/images/cards/stack_of_red_stars.svg"" width=""175px"" height=""250px""></img></td>
  </tr>
  <tr height=200>
    <td width=300><img src=""static/images/keys/w.svg"" width=""35%"" height=""75%""></img></td>
    <td width=300><img src=""static/images/keys/o.svg"" width=""35%"" height=""75%""></img></td>
  </tr>
</table>
  ",87.0,1.0,,,,,,,,,,,,,,,,,,,,,,,,,,
234,0,,html-keyboard-response,234,477602,0.0-7.17-1.17,vljmoowjl7,2022-09-19 13:29:21.577,5ab3fc4b5f01000001cb07e2,1,81,80,23,25,41,man,807.0,,"
  <table>
  <tr height=300>
    <td width=300 height=300><img src=""static/images/cards/back_of_red_moons.svg"" width=""175px"" height=""250px""></img></td>
    <td width=300 height=300><img src=""static/images/cards/back_of_red_moons.svg"" width=""175px"" height=""250px""></img></td>
  </tr>
  <tr height=200>
    <td width=300><img src=""static/images/keys/z.svg"" width=""35%"" height=""75%""></img></td>
    <td width=300><img src=""static/images/keys/m.svg"" width=""35%"" height=""75%""></img></td>
  </tr>
</table>
  ",77.0,1.0,,,,,,,,,,,,,,,,,,,,,,,,,,
235,0,,html-keyboard-response,235,479104,0.0-7.17-2.17,vljmoowjl7,2022-09-19 13:29:21.577,5ab3fc4b5f01000001cb07e2,1,81,80,23,25,41,man,,,"
  <table>
  <tr height=300>
    <td width=300 height=300><img src=""static/images/cards/back_of_red_moons.svg"" width=""175px"" height=""250px""></img></td>
    <td width=300 height=300><img src=""static/images/cards/9_of_red_moons.svg"" width=""175px"" height=""250px""></img></td>
  </tr>
  <tr height=200>
    <td width=300><img src=""static/images/keys/z.svg"" width=""35%"" height=""75%""></img></td>
    <td width=300><img src=""static/images/keys/m.svg"" width=""35%"" height=""75%""></img></td>
  </tr>
</table>
  ",,,,,,,,,,,,,,,,,,,,,,,,,,,,
236,0,,html-keyboard-response,236,480604,0.0-7.17-3.17,vljmoowjl7,2022-09-19 13:29:21.577,5ab3fc4b5f01000001cb07e2,1,81,80,23,25,41,man,,,"<p style=""font-size:50px"">You win!
+10 points this round!</p>",,,,,,,,,,,,,,,,,,,,,,,,,,,,
