,index,success,trial_type,trial_index,time_elapsed,internal_node_id,subject,date,prol_id,ctbl,sense_of_control_A,sense_of_control_B,sense_of_control_C,sense_of_control_D,age,gender,rt,url,stimulus,key_press,npress,is_data_trial,phase,trial,deck1,deck2,col1,col2,sym1,sym2,deck_l,deck_r,chosen_deck,chosen_col,chosen_sym,deck_rt,choose_choice,mutual_info,hidden_key,chosen_card,card_rt,player_num,win_card,outcome,mock_rating,response,responses
0,0,1.0,fullscreen,0,4475,0.0-0.0,msg4nt1j1yr,2022-09-19 17:34:18.752,62ff8aa20b2d8c0e359e9799,2,60,32,50,10,49,male,,,,,,,,,,,,,,,,,,,,,,,,,,,,,,,
1,0,,external-html,1,34651,0.0-1.0,msg4nt1j1yr,2022-09-19 17:34:18.752,62ff8aa20b2d8c0e359e9799,2,60,32,50,10,49,male,30121.3999999762,static/js/sub/consent.html,,,,,,,,,,,,,,,,,,,,,,,,,,,,,
2,0,,call-function,2,34653,0.0-2.0,msg4nt1j1yr,2022-09-19 17:34:18.752,62ff8aa20b2d8c0e359e9799,2,60,32,50,10,49,male,,,,,,,,,,,,,,,,,,,,,,,,,,,,,,,
3,0,,image-keyboard-response,3,47399,0.0-3.0-0.0,msg4nt1j1yr,2022-09-19 17:34:18.752,62ff8aa20b2d8c0e359e9799,2,60,32,50,10,49,male,12743.1999999285,,static/images/instructions_CB_2/Slide1.png,39.0,,,,,,,,,,,,,,,,,,,,,,,,,,,
4,0,,image-keyboard-response,4,63423,0.0-3.1-0.1,msg4nt1j1yr,2022-09-19 17:34:18.752,62ff8aa20b2d8c0e359e9799,2,60,32,50,10,49,male,16021.8999999762,,static/images/instructions_CB_2/Slide2.png,39.0,,,,,,,,,,,,,,,,,,,,,,,,,,,
5,0,,image-keyboard-response,5,71996,0.0-3.2-0.2,msg4nt1j1yr,2022-09-19 17:34:18.752,62ff8aa20b2d8c0e359e9799,2,60,32,50,10,49,male,8571.8999999762,,static/images/instructions_CB_2/Slide3.png,39.0,,,,,,,,,,,,,,,,,,,,,,,,,,,
6,0,,image-keyboard-response,6,84459,0.0-3.3-0.3,msg4nt1j1yr,2022-09-19 17:34:18.752,62ff8aa20b2d8c0e359e9799,2,60,32,50,10,49,male,12461.6999999285,,static/images/instructions_CB_2/Slide4.png,39.0,,,,,,,,,,,,,,,,,,,,,,,,,,,
7,0,,image-keyboard-response,7,96668,0.0-3.4-0.4,msg4nt1j1yr,2022-09-19 17:34:18.752,62ff8aa20b2d8c0e359e9799,2,60,32,50,10,49,male,12208.0,,static/images/instructions_CB_2/Slide5.png,39.0,,,,,,,,,,,,,,,,,,,,,,,,,,,
8,0,,image-keyboard-response,8,101980,0.0-3.5-0.5,msg4nt1j1yr,2022-09-19 17:34:18.752,62ff8aa20b2d8c0e359e9799,2,60,32,50,10,49,male,5310.3999999762,,static/images/instructions_CB_2/Slide6.png,39.0,,,,,,,,,,,,,,,,,,,,,,,,,,,
9,0,,image-keyboard-response,9,111966,0.0-3.6-0.6,msg4nt1j1yr,2022-09-19 17:34:18.752,62ff8aa20b2d8c0e359e9799,2,60,32,50,10,49,male,9984.7999999523,,static/images/instructions_CB_2/Slide7.png,39.0,,,,,,,,,,,,,,,,,,,,,,,,,,,
10,0,,image-keyboard-response,10,138611,0.0-3.7-0.7,msg4nt1j1yr,2022-09-19 17:34:18.752,62ff8aa20b2d8c0e359e9799,2,60,32,50,10,49,male,26644.2000000477,,static/images/instructions_CB_2/Slide8.png,39.0,,,,,,,,,,,,,,,,,,,,,,,,,,,
11,0,,image-keyboard-response,11,152153,0.0-3.8-0.8,msg4nt1j1yr,2022-09-19 17:34:18.752,62ff8aa20b2d8c0e359e9799,2,60,32,50,10,49,male,13541.0,,static/images/instructions_CB_2/Slide9.png,39.0,,,,,,,,,,,,,,,,,,,,,,,,,,,
12,0,,image-keyboard-response,12,166144,0.0-3.9-0.9,msg4nt1j1yr,2022-09-19 17:34:18.752,62ff8aa20b2d8c0e359e9799,2,60,32,50,10,49,male,13990.0,,static/images/instructions_CB_2/Slide10.png,39.0,,,,,,,,,,,,,,,,,,,,,,,,,,,
13,0,,image-keyboard-response,13,174656,0.0-3.10-0.10,msg4nt1j1yr,2022-09-19 17:34:18.752,62ff8aa20b2d8c0e359e9799,2,60,32,50,10,49,male,8511.1000000238,,static/images/instructions_CB_2/Slide11.png,39.0,,,,,,,,,,,,,,,,,,,,,,,,,,,
14,0,,image-keyboard-response,14,193403,0.0-3.11-0.11,msg4nt1j1yr,2022-09-19 17:34:18.752,62ff8aa20b2d8c0e359e9799,2,60,32,50,10,49,male,18745.1999999285,,static/images/instructions_CB_2/Slide12.png,39.0,,,,,,,,,,,,,,,,,,,,,,,,,,,
15,0,,image-keyboard-response,15,205851,0.0-3.12-0.12,msg4nt1j1yr,2022-09-19 17:34:18.752,62ff8aa20b2d8c0e359e9799,2,60,32,50,10,49,male,12447.5,,static/images/instructions_CB_2/Slide13.png,39.0,,,,,,,,,,,,,,,,,,,,,,,,,,,
16,0,,image-keyboard-response,16,229815,0.0-3.13-0.13,msg4nt1j1yr,2022-09-19 17:34:18.752,62ff8aa20b2d8c0e359e9799,2,60,32,50,10,49,male,23963.0,,static/images/instructions_CB_2/Slide14.png,39.0,,,,,,,,,,,,,,,,,,,,,,,,,,,
17,0,,image-keyboard-response,17,240606,0.0-3.14-0.14,msg4nt1j1yr,2022-09-19 17:34:18.752,62ff8aa20b2d8c0e359e9799,2,60,32,50,10,49,male,10789.1999999285,,static/images/instructions_CB_2/Slide15.png,39.0,,,,,,,,,,,,,,,,,,,,,,,,,,,
18,0,,image-keyboard-response,18,259114,0.0-3.15-0.15,msg4nt1j1yr,2022-09-19 17:34:18.752,62ff8aa20b2d8c0e359e9799,2,60,32,50,10,49,male,18507.7000000477,,static/images/instructions_CB_2/Slide16.png,39.0,,,,,,,,,,,,,,,,,,,,,,,,,,,
19,0,,image-keyboard-response,19,299423,0.0-3.16-0.16,msg4nt1j1yr,2022-09-19 17:34:18.752,62ff8aa20b2d8c0e359e9799,2,60,32,50,10,49,male,40307.8999999762,,static/images/instructions_CB_2/Slide17.png,39.0,,,,,,,,,,,,,,,,,,,,,,,,,,,
20,0,,image-keyboard-response,20,320259,0.0-3.17-0.17,msg4nt1j1yr,2022-09-19 17:34:18.752,62ff8aa20b2d8c0e359e9799,2,60,32,50,10,49,male,20834.8999999762,,static/images/instructions_CB_2/Slide18.png,39.0,,,,,,,,,,,,,,,,,,,,,,,,,,,
21,0,,image-keyboard-response,21,330429,0.0-3.18-0.18,msg4nt1j1yr,2022-09-19 17:34:18.752,62ff8aa20b2d8c0e359e9799,2,60,32,50,10,49,male,10168.2999999523,,static/images/instructions_CB_2/Slide19.png,39.0,,,,,,,,,,,,,,,,,,,,,,,,,,,
22,0,,html-keyboard-response,22,331934,0.0-4.0-0.0,msg4nt1j1yr,2022-09-19 17:34:18.752,62ff8aa20b2d8c0e359e9799,2,60,32,50,10,49,male,,,"<img src=""static/images/cards/stack_of_black_stars.svg"" width=""175px"" height=""250px""></img>",,,,,,,,,,,,,,,,,,,,,,,,,,,,
23,0,,html-keyboard-response,23,334714,0.0-4.0-1.0,msg4nt1j1yr,2022-09-19 17:34:18.752,62ff8aa20b2d8c0e359e9799,2,60,32,50,10,49,male,2253.3000000715,,"
  <table>
  <tr height=300>
    <td width=300 height=300><img src=""static/images/cards/back_of_black_stars.svg"" width=""175px"" height=""250px""></img></td>
    <td width=300 height=300><img src=""static/images/cards/back_of_black_stars.svg"" width=""175px"" height=""250px""></img></td>
  </tr>
  <tr height=200>
    <td width=300><img src=""static/images/keys/z.svg"" width=""35%"" height=""75%""></img></td>
    <td width=300><img src=""static/images/keys/m.svg"" width=""35%"" height=""75%""></img></td>
  </tr>
</table>
  ",90.0,1.0,,,,,,,,,,,,,,,,,,,,,,,,,,
24,0,,html-keyboard-response,24,336218,0.0-4.0-2.0,msg4nt1j1yr,2022-09-19 17:34:18.752,62ff8aa20b2d8c0e359e9799,2,60,32,50,10,49,male,,,"
  <table>
  <tr height=300>
    <td width=300 height=300><img src=""static/images/cards/7_of_black_stars.svg"" width=""175px"" height=""250px""></img></td>
    <td width=300 height=300><img src=""static/images/cards/back_of_black_stars.svg"" width=""175px"" height=""250px""></img></td>
  </tr>
  <tr height=200>
    <td width=300><img src=""static/images/keys/z.svg"" width=""35%"" height=""75%""></img></td>
    <td width=300><img src=""static/images/keys/m.svg"" width=""35%"" height=""75%""></img></td>
  </tr>
</table>
  ",,,,,,,,,,,,,,,,,,,,,,,,,,,,
25,0,,html-keyboard-response,25,337728,0.0-4.0-3.0,msg4nt1j1yr,2022-09-19 17:34:18.752,62ff8aa20b2d8c0e359e9799,2,60,32,50,10,49,male,,,"<p style=""font-size:50px"">You win!
+10 points this round!</p>",,,,,,,,,,,,,,,,,,,,,,,,,,,,
26,0,,html-keyboard-response,26,338238,0.0-4.0-4.0,msg4nt1j1yr,2022-09-19 17:34:18.752,62ff8aa20b2d8c0e359e9799,2,60,32,50,10,49,male,,,,,,1.0,learning,0.0,A,,black,,stars,,,,A,black,stars,,1.0,1.0,NA,left,2253.3000000715,7.0,1.0,1.0,,,
27,0,,html-keyboard-response,27,339742,0.0-4.1-0.1,msg4nt1j1yr,2022-09-19 17:34:18.752,62ff8aa20b2d8c0e359e9799,2,60,32,50,10,49,male,,,"<img src=""static/images/cards/stack_of_red_stars.svg"" width=""175px"" height=""250px""></img>",,,,,,,,,,,,,,,,,,,,,,,,,,,,
28,0,,html-keyboard-response,28,341272,0.0-4.1-1.1,msg4nt1j1yr,2022-09-19 17:34:18.752,62ff8aa20b2d8c0e359e9799,2,60,32,50,10,49,male,1024.1000000238,,"
  <table>
  <tr height=300>
    <td width=300 height=300><img src=""static/images/cards/back_of_red_stars.svg"" width=""175px"" height=""250px""></img></td>
    <td width=300 height=300><img src=""static/images/cards/back_of_red_stars.svg"" width=""175px"" height=""250px""></img></td>
  </tr>
  <tr height=200>
    <td width=300></td>
    <td width=300><img src=""static/images/keys/m.svg"" width=""35%"" height=""75%""></img></td>
  </tr>
</table>
  ",77.0,1.0,,,,,,,,,,,,,,,,,,,,,,,,,,
29,0,,html-keyboard-response,29,342778,0.0-4.1-2.1,msg4nt1j1yr,2022-09-19 17:34:18.752,62ff8aa20b2d8c0e359e9799,2,60,32,50,10,49,male,,,"
  <table>
  <tr height=300>
    <td width=300 height=300><img src=""static/images/cards/back_of_red_stars.svg"" width=""175px"" height=""250px""></img></td>
    <td width=300 height=300><img src=""static/images/cards/3_of_red_stars.svg"" width=""175px"" height=""250px""></img></td>
  </tr>
  <tr height=200>
    <td width=300></td>
    <td width=300><img src=""static/images/keys/m.svg"" width=""35%"" height=""75%""></img></td>
  </tr>
</table>
  ",,,,,,,,,,,,,,,,,,,,,,,,,,,,
30,0,,html-keyboard-response,30,344287,0.0-4.1-3.1,msg4nt1j1yr,2022-09-19 17:34:18.752,62ff8aa20b2d8c0e359e9799,2,60,32,50,10,49,male,,,"<p style=""font-size:50px"">You Lose!
No points this round.</p>",,,,,,,,,,,,,,,,,,,,,,,,,,,,
31,0,,html-keyboard-response,31,344797,0.0-4.1-4.1,msg4nt1j1yr,2022-09-19 17:34:18.752,62ff8aa20b2d8c0e359e9799,2,60,32,50,10,49,male,,,,,,1.0,learning,1.0,B,,red,,stars,,,,B,red,stars,,0.0,1.0,0,right,1024.1000000238,3.0,0.0,0.0,,,
32,0,,html-keyboard-response,32,346301,0.0-4.2-0.2,msg4nt1j1yr,2022-09-19 17:34:18.752,62ff8aa20b2d8c0e359e9799,2,60,32,50,10,49,male,,,"<img src=""static/images/cards/stack_of_black_moons.svg"" width=""175px"" height=""250px""></img>",,,,,,,,,,,,,,,,,,,,,,,,,,,,
33,0,,html-keyboard-response,33,348520,0.0-4.2-1.2,msg4nt1j1yr,2022-09-19 17:34:18.752,62ff8aa20b2d8c0e359e9799,2,60,32,50,10,49,male,1712.0,,"
  <table>
  <tr height=300>
    <td width=300 height=300><img src=""static/images/cards/back_of_black_moons.svg"" width=""175px"" height=""250px""></img></td>
    <td width=300 height=300><img src=""static/images/cards/back_of_black_moons.svg"" width=""175px"" height=""250px""></img></td>
  </tr>
  <tr height=200>
    <td width=300><img src=""static/images/keys/z.svg"" width=""35%"" height=""75%""></img></td>
    <td width=300><img src=""static/images/keys/m.svg"" width=""35%"" height=""75%""></img></td>
  </tr>
</table>
  ",77.0,1.0,,,,,,,,,,,,,,,,,,,,,,,,,,
34,0,,html-keyboard-response,34,350023,0.0-4.2-2.2,msg4nt1j1yr,2022-09-19 17:34:18.752,62ff8aa20b2d8c0e359e9799,2,60,32,50,10,49,male,,,"
  <table>
  <tr height=300>
    <td width=300 height=300><img src=""static/images/cards/back_of_black_moons.svg"" width=""175px"" height=""250px""></img></td>
    <td width=300 height=300><img src=""static/images/cards/6_of_black_moons.svg"" width=""175px"" height=""250px""></img></td>
  </tr>
  <tr height=200>
    <td width=300><img src=""static/images/keys/z.svg"" width=""35%"" height=""75%""></img></td>
    <td width=300><img src=""static/images/keys/m.svg"" width=""35%"" height=""75%""></img></td>
  </tr>
</table>
  ",,,,,,,,,,,,,,,,,,,,,,,,,,,,
35,0,,html-keyboard-response,35,351532,0.0-4.2-3.2,msg4nt1j1yr,2022-09-19 17:34:18.752,62ff8aa20b2d8c0e359e9799,2,60,32,50,10,49,male,,,"<p style=""font-size:50px"">You Lose!
No points this round.</p>",,,,,,,,,,,,,,,,,,,,,,,,,,,,
36,0,,html-keyboard-response,36,352042,0.0-4.2-4.2,msg4nt1j1yr,2022-09-19 17:34:18.752,62ff8aa20b2d8c0e359e9799,2,60,32,50,10,49,male,,,,,,1.0,learning,2.0,C,,black,,moons,,,,C,black,moons,,1.0,0.0,NA,right,1712.0,6.0,1.0,0.0,,,
37,0,,html-keyboard-response,37,353546,0.0-4.3-0.3,msg4nt1j1yr,2022-09-19 17:34:18.752,62ff8aa20b2d8c0e359e9799,2,60,32,50,10,49,male,,,"<img src=""static/images/cards/stack_of_red_moons.svg"" width=""175px"" height=""250px""></img>",,,,,,,,,,,,,,,,,,,,,,,,,,,,
38,0,,html-keyboard-response,38,354944,0.0-4.3-1.3,msg4nt1j1yr,2022-09-19 17:34:18.752,62ff8aa20b2d8c0e359e9799,2,60,32,50,10,49,male,891.2999999523,,"
  <table>
  <tr height=300>
    <td width=300 height=300><img src=""static/images/cards/back_of_red_moons.svg"" width=""175px"" height=""250px""></img></td>
    <td width=300 height=300><img src=""static/images/cards/back_of_red_moons.svg"" width=""175px"" height=""250px""></img></td>
  </tr>
  <tr height=200>
    <td width=300></td>
    <td width=300><img src=""static/images/keys/m.svg"" width=""35%"" height=""75%""></img></td>
  </tr>
</table>
  ",77.0,1.0,,,,,,,,,,,,,,,,,,,,,,,,,,
39,0,,html-keyboard-response,39,356449,0.0-4.3-2.3,msg4nt1j1yr,2022-09-19 17:34:18.752,62ff8aa20b2d8c0e359e9799,2,60,32,50,10,49,male,,,"
  <table>
  <tr height=300>
    <td width=300 height=300><img src=""static/images/cards/back_of_red_moons.svg"" width=""175px"" height=""250px""></img></td>
    <td width=300 height=300><img src=""static/images/cards/10_of_red_moons.svg"" width=""175px"" height=""250px""></img></td>
  </tr>
  <tr height=200>
    <td width=300></td>
    <td width=300><img src=""static/images/keys/m.svg"" width=""35%"" height=""75%""></img></td>
  </tr>
</table>
  ",,,,,,,,,,,,,,,,,,,,,,,,,,,,
40,0,,html-keyboard-response,40,357958,0.0-4.3-3.3,msg4nt1j1yr,2022-09-19 17:34:18.752,62ff8aa20b2d8c0e359e9799,2,60,32,50,10,49,male,,,"<p style=""font-size:50px"">You win!
+10 points this round!</p>",,,,,,,,,,,,,,,,,,,,,,,,,,,,
41,0,,html-keyboard-response,41,358468,0.0-4.3-4.3,msg4nt1j1yr,2022-09-19 17:34:18.752,62ff8aa20b2d8c0e359e9799,2,60,32,50,10,49,male,,,,,,1.0,learning,3.0,D,,red,,moons,,,,D,red,moons,,0.0,0.0,0,right,891.2999999523,10.0,1.0,1.0,,,
42,0,,html-keyboard-response,42,359972,0.0-4.4-0.4,msg4nt1j1yr,2022-09-19 17:34:18.752,62ff8aa20b2d8c0e359e9799,2,60,32,50,10,49,male,,,"<img src=""static/images/cards/stack_of_red_bolts.svg"" width=""175px"" height=""250px""></img>",,,,,,,,,,,,,,,,,,,,,,,,,,,,
43,0,,html-keyboard-response,43,361301,0.0-4.4-1.4,msg4nt1j1yr,2022-09-19 17:34:18.752,62ff8aa20b2d8c0e359e9799,2,60,32,50,10,49,male,822.0999999046,,"
  <table>
  <tr height=300>
    <td width=300 height=300><img src=""static/images/cards/back_of_red_bolts.svg"" width=""175px"" height=""250px""></img></td>
    <td width=300 height=300><img src=""static/images/cards/back_of_red_bolts.svg"" width=""175px"" height=""250px""></img></td>
  </tr>
  <tr height=200>
    <td width=300><img src=""static/images/keys/z.svg"" width=""35%"" height=""75%""></img></td>
    <td width=300><img src=""static/images/keys/m.svg"" width=""35%"" height=""75%""></img></td>
  </tr>
</table>
  ",77.0,1.0,,,,,,,,,,,,,,,,,,,,,,,,,,
44,0,,html-keyboard-response,44,362805,0.0-4.4-2.4,msg4nt1j1yr,2022-09-19 17:34:18.752,62ff8aa20b2d8c0e359e9799,2,60,32,50,10,49,male,,,"
  <table>
  <tr height=300>
    <td width=300 height=300><img src=""static/images/cards/back_of_red_bolts.svg"" width=""175px"" height=""250px""></img></td>
    <td width=300 height=300><img src=""static/images/cards/3_of_red_bolts.svg"" width=""175px"" height=""250px""></img></td>
  </tr>
  <tr height=200>
    <td width=300><img src=""static/images/keys/z.svg"" width=""35%"" height=""75%""></img></td>
    <td width=300><img src=""static/images/keys/m.svg"" width=""35%"" height=""75%""></img></td>
  </tr>
</table>
  ",,,,,,,,,,,,,,,,,,,,,,,,,,,,
45,0,,html-keyboard-response,45,364314,0.0-4.4-3.4,msg4nt1j1yr,2022-09-19 17:34:18.752,62ff8aa20b2d8c0e359e9799,2,60,32,50,10,49,male,,,"<p style=""font-size:50px"">You win!
+10 points this round!</p>",,,,,,,,,,,,,,,,,,,,,,,,,,,,
46,0,,html-keyboard-response,46,364825,0.0-4.4-4.4,msg4nt1j1yr,2022-09-19 17:34:18.752,62ff8aa20b2d8c0e359e9799,2,60,32,50,10,49,male,,,,,,1.0,learning,4.0,Xc,,red,,bolts,,,,Xc,red,bolts,,1.0,0.0,NA,right,822.0999999046,3.0,0.0,1.0,,,
47,0,,html-keyboard-response,47,366329,0.0-4.5-0.5,msg4nt1j1yr,2022-09-19 17:34:18.752,62ff8aa20b2d8c0e359e9799,2,60,32,50,10,49,male,,,"<img src=""static/images/cards/stack_of_black_bolts.svg"" width=""175px"" height=""250px""></img>",,,,,,,,,,,,,,,,,,,,,,,,,,,,
48,0,,html-keyboard-response,48,367563,0.0-4.5-1.5,msg4nt1j1yr,2022-09-19 17:34:18.752,62ff8aa20b2d8c0e359e9799,2,60,32,50,10,49,male,727.7999999523,,"
  <table>
  <tr height=300>
    <td width=300 height=300><img src=""static/images/cards/back_of_black_bolts.svg"" width=""175px"" height=""250px""></img></td>
    <td width=300 height=300><img src=""static/images/cards/back_of_black_bolts.svg"" width=""175px"" height=""250px""></img></td>
  </tr>
  <tr height=200>
    <td width=300><img src=""static/images/keys/z.svg"" width=""35%"" height=""75%""></img></td>
    <td width=300></td>
  </tr>
</table>
  ",90.0,1.0,,,,,,,,,,,,,,,,,,,,,,,,,,
49,0,,html-keyboard-response,49,369069,0.0-4.5-2.5,msg4nt1j1yr,2022-09-19 17:34:18.752,62ff8aa20b2d8c0e359e9799,2,60,32,50,10,49,male,,,"
  <table>
  <tr height=300>
    <td width=300 height=300><img src=""static/images/cards/2_of_black_bolts.svg"" width=""175px"" height=""250px""></img></td>
    <td width=300 height=300><img src=""static/images/cards/back_of_black_bolts.svg"" width=""175px"" height=""250px""></img></td>
  </tr>
  <tr height=200>
    <td width=300><img src=""static/images/keys/z.svg"" width=""35%"" height=""75%""></img></td>
    <td width=300></td>
  </tr>
</table>
  ",,,,,,,,,,,,,,,,,,,,,,,,,,,,
50,0,,html-keyboard-response,50,370578,0.0-4.5-3.5,msg4nt1j1yr,2022-09-19 17:34:18.752,62ff8aa20b2d8c0e359e9799,2,60,32,50,10,49,male,,,"<p style=""font-size:50px"">You win!
+10 points this round!</p>",,,,,,,,,,,,,,,,,,,,,,,,,,,,
51,0,,html-keyboard-response,51,371088,0.0-4.5-4.5,msg4nt1j1yr,2022-09-19 17:34:18.752,62ff8aa20b2d8c0e359e9799,2,60,32,50,10,49,male,,,,,,1.0,learning,5.0,Xnc,,black,,bolts,,,,Xnc,black,bolts,,0.0,0.0,1,left,727.7999999523,2.0,0.0,1.0,,,
52,0,,html-keyboard-response,52,372592,0.0-4.6-0.6,msg4nt1j1yr,2022-09-19 17:34:18.752,62ff8aa20b2d8c0e359e9799,2,60,32,50,10,49,male,,,"<img src=""static/images/cards/stack_of_black_stars.svg"" width=""175px"" height=""250px""></img>",,,,,,,,,,,,,,,,,,,,,,,,,,,,
53,0,,html-keyboard-response,53,374689,0.0-4.6-1.6,msg4nt1j1yr,2022-09-19 17:34:18.752,62ff8aa20b2d8c0e359e9799,2,60,32,50,10,49,male,1590.7000000477,,"
  <table>
  <tr height=300>
    <td width=300 height=300><img src=""static/images/cards/back_of_black_stars.svg"" width=""175px"" height=""250px""></img></td>
    <td width=300 height=300><img src=""static/images/cards/back_of_black_stars.svg"" width=""175px"" height=""250px""></img></td>
  </tr>
  <tr height=200>
    <td width=300><img src=""static/images/keys/z.svg"" width=""35%"" height=""75%""></img></td>
    <td width=300><img src=""static/images/keys/m.svg"" width=""35%"" height=""75%""></img></td>
  </tr>
</table>
  ",90.0,1.0,,,,,,,,,,,,,,,,,,,,,,,,,,
54,0,,html-keyboard-response,54,376192,0.0-4.6-2.6,msg4nt1j1yr,2022-09-19 17:34:18.752,62ff8aa20b2d8c0e359e9799,2,60,32,50,10,49,male,,,"
  <table>
  <tr height=300>
    <td width=300 height=300><img src=""static/images/cards/3_of_black_stars.svg"" width=""175px"" height=""250px""></img></td>
    <td width=300 height=300><img src=""static/images/cards/back_of_black_stars.svg"" width=""175px"" height=""250px""></img></td>
  </tr>
  <tr height=200>
    <td width=300><img src=""static/images/keys/z.svg"" width=""35%"" height=""75%""></img></td>
    <td width=300><img src=""static/images/keys/m.svg"" width=""35%"" height=""75%""></img></td>
  </tr>
</table>
  ",,,,,,,,,,,,,,,,,,,,,,,,,,,,
55,0,,html-keyboard-response,55,377701,0.0-4.6-3.6,msg4nt1j1yr,2022-09-19 17:34:18.752,62ff8aa20b2d8c0e359e9799,2,60,32,50,10,49,male,,,"<p style=""font-size:50px"">You Lose!
No points this round.</p>",,,,,,,,,,,,,,,,,,,,,,,,,,,,
56,0,,html-keyboard-response,56,378211,0.0-4.6-4.6,msg4nt1j1yr,2022-09-19 17:34:18.752,62ff8aa20b2d8c0e359e9799,2,60,32,50,10,49,male,,,,,,1.0,learning,6.0,A,,black,,stars,,,,A,black,stars,,1.0,1.0,NA,left,1590.7000000477,3.0,0.0,0.0,,,
57,0,,html-keyboard-response,57,379715,0.0-4.7-0.7,msg4nt1j1yr,2022-09-19 17:34:18.752,62ff8aa20b2d8c0e359e9799,2,60,32,50,10,49,male,,,"<img src=""static/images/cards/stack_of_red_stars.svg"" width=""175px"" height=""250px""></img>",,,,,,,,,,,,,,,,,,,,,,,,,,,,
58,0,,html-keyboard-response,58,380886,0.0-4.7-1.7,msg4nt1j1yr,2022-09-19 17:34:18.752,62ff8aa20b2d8c0e359e9799,2,60,32,50,10,49,male,664.2999999523,,"
  <table>
  <tr height=300>
    <td width=300 height=300><img src=""static/images/cards/back_of_red_stars.svg"" width=""175px"" height=""250px""></img></td>
    <td width=300 height=300><img src=""static/images/cards/back_of_red_stars.svg"" width=""175px"" height=""250px""></img></td>
  </tr>
  <tr height=200>
    <td width=300><img src=""static/images/keys/z.svg"" width=""35%"" height=""75%""></img></td>
    <td width=300></td>
  </tr>
</table>
  ",90.0,1.0,,,,,,,,,,,,,,,,,,,,,,,,,,
59,0,,html-keyboard-response,59,382391,0.0-4.7-2.7,msg4nt1j1yr,2022-09-19 17:34:18.752,62ff8aa20b2d8c0e359e9799,2,60,32,50,10,49,male,,,"
  <table>
  <tr height=300>
    <td width=300 height=300><img src=""static/images/cards/10_of_red_stars.svg"" width=""175px"" height=""250px""></img></td>
    <td width=300 height=300><img src=""static/images/cards/back_of_red_stars.svg"" width=""175px"" height=""250px""></img></td>
  </tr>
  <tr height=200>
    <td width=300><img src=""static/images/keys/z.svg"" width=""35%"" height=""75%""></img></td>
    <td width=300></td>
  </tr>
</table>
  ",,,,,,,,,,,,,,,,,,,,,,,,,,,,
60,0,,html-keyboard-response,60,383901,0.0-4.7-3.7,msg4nt1j1yr,2022-09-19 17:34:18.752,62ff8aa20b2d8c0e359e9799,2,60,32,50,10,49,male,,,"<p style=""font-size:50px"">You win!
+10 points this round!</p>",,,,,,,,,,,,,,,,,,,,,,,,,,,,
61,0,,html-keyboard-response,61,384411,0.0-4.7-4.7,msg4nt1j1yr,2022-09-19 17:34:18.752,62ff8aa20b2d8c0e359e9799,2,60,32,50,10,49,male,,,,,,1.0,learning,7.0,B,,red,,stars,,,,B,red,stars,,0.0,1.0,1,left,664.2999999523,10.0,1.0,1.0,,,
62,0,,html-keyboard-response,62,385916,0.0-4.8-0.8,msg4nt1j1yr,2022-09-19 17:34:18.752,62ff8aa20b2d8c0e359e9799,2,60,32,50,10,49,male,,,"<img src=""static/images/cards/stack_of_black_moons.svg"" width=""175px"" height=""250px""></img>",,,,,,,,,,,,,,,,,,,,,,,,,,,,
63,0,,html-keyboard-response,63,387583,0.0-4.8-1.8,msg4nt1j1yr,2022-09-19 17:34:18.752,62ff8aa20b2d8c0e359e9799,2,60,32,50,10,49,male,1161.6000000238,,"
  <table>
  <tr height=300>
    <td width=300 height=300><img src=""static/images/cards/back_of_black_moons.svg"" width=""175px"" height=""250px""></img></td>
    <td width=300 height=300><img src=""static/images/cards/back_of_black_moons.svg"" width=""175px"" height=""250px""></img></td>
  </tr>
  <tr height=200>
    <td width=300><img src=""static/images/keys/z.svg"" width=""35%"" height=""75%""></img></td>
    <td width=300><img src=""static/images/keys/m.svg"" width=""35%"" height=""75%""></img></td>
  </tr>
</table>
  ",77.0,1.0,,,,,,,,,,,,,,,,,,,,,,,,,,
64,0,,html-keyboard-response,64,389084,0.0-4.8-2.8,msg4nt1j1yr,2022-09-19 17:34:18.752,62ff8aa20b2d8c0e359e9799,2,60,32,50,10,49,male,,,"
  <table>
  <tr height=300>
    <td width=300 height=300><img src=""static/images/cards/back_of_black_moons.svg"" width=""175px"" height=""250px""></img></td>
    <td width=300 height=300><img src=""static/images/cards/4_of_black_moons.svg"" width=""175px"" height=""250px""></img></td>
  </tr>
  <tr height=200>
    <td width=300><img src=""static/images/keys/z.svg"" width=""35%"" height=""75%""></img></td>
    <td width=300><img src=""static/images/keys/m.svg"" width=""35%"" height=""75%""></img></td>
  </tr>
</table>
  ",,,,,,,,,,,,,,,,,,,,,,,,,,,,
65,0,,html-keyboard-response,65,390594,0.0-4.8-3.8,msg4nt1j1yr,2022-09-19 17:34:18.752,62ff8aa20b2d8c0e359e9799,2,60,32,50,10,49,male,,,"<p style=""font-size:50px"">You win!
+10 points this round!</p>",,,,,,,,,,,,,,,,,,,,,,,,,,,,
66,0,,html-keyboard-response,66,391104,0.0-4.8-4.8,msg4nt1j1yr,2022-09-19 17:34:18.752,62ff8aa20b2d8c0e359e9799,2,60,32,50,10,49,male,,,,,,1.0,learning,8.0,C,,black,,moons,,,,C,black,moons,,1.0,0.0,NA,right,1161.6000000238,4.0,0.0,1.0,,,
67,0,,html-keyboard-response,67,392610,0.0-4.9-0.9,msg4nt1j1yr,2022-09-19 17:34:18.752,62ff8aa20b2d8c0e359e9799,2,60,32,50,10,49,male,,,"<img src=""static/images/cards/stack_of_red_moons.svg"" width=""175px"" height=""250px""></img>",,,,,,,,,,,,,,,,,,,,,,,,,,,,
68,0,,html-keyboard-response,68,396114,0.0-4.9-1.9,msg4nt1j1yr,2022-09-19 17:34:18.752,62ff8aa20b2d8c0e359e9799,2,60,32,50,10,49,male,,,"
  <table>
  <tr height=300>
    <td width=300 height=300><img src=""static/images/cards/back_of_red_moons.svg"" width=""175px"" height=""250px""></img></td>
    <td width=300 height=300><img src=""static/images/cards/back_of_red_moons.svg"" width=""175px"" height=""250px""></img></td>
  </tr>
  <tr height=200>
    <td width=300></td>
    <td width=300><img src=""static/images/keys/m.svg"" width=""35%"" height=""75%""></img></td>
  </tr>
</table>
  ",,,,,,,,,,,,,,,,,,,,,,,,,,,,
69,0,,html-keyboard-response,69,396140,0.0-4.9-2.9,msg4nt1j1yr,2022-09-19 17:34:18.752,62ff8aa20b2d8c0e359e9799,2,60,32,50,10,49,male,,,,,,,,,,,,,,,,,,,,,,,,,,,,,,,
70,0,,html-keyboard-response,70,397647,0.0-4.9-3.9,msg4nt1j1yr,2022-09-19 17:34:18.752,62ff8aa20b2d8c0e359e9799,2,60,32,50,10,49,male,,,"<p style=""font-size:50px"">Too slow!</p>",,,,,,,,,,,,,,,,,,,,,,,,,,,,
71,0,,html-keyboard-response,71,398157,0.0-4.9-4.9,msg4nt1j1yr,2022-09-19 17:34:18.752,62ff8aa20b2d8c0e359e9799,2,60,32,50,10,49,male,,,,,,1.0,learning,9.0,D,,red,,moons,,,,D,red,moons,,0.0,0.0,0,,,4.0,0.0,1.0,,,
72,0,,html-keyboard-response,72,399661,0.0-4.10-0.10,msg4nt1j1yr,2022-09-19 17:34:18.752,62ff8aa20b2d8c0e359e9799,2,60,32,50,10,49,male,,,"<img src=""static/images/cards/stack_of_red_bolts.svg"" width=""175px"" height=""250px""></img>",,,,,,,,,,,,,,,,,,,,,,,,,,,,
73,0,,html-keyboard-response,73,401095,0.0-4.10-1.10,msg4nt1j1yr,2022-09-19 17:34:18.752,62ff8aa20b2d8c0e359e9799,2,60,32,50,10,49,male,927.1999999285,,"
  <table>
  <tr height=300>
    <td width=300 height=300><img src=""static/images/cards/back_of_red_bolts.svg"" width=""175px"" height=""250px""></img></td>
    <td width=300 height=300><img src=""static/images/cards/back_of_red_bolts.svg"" width=""175px"" height=""250px""></img></td>
  </tr>
  <tr height=200>
    <td width=300><img src=""static/images/keys/z.svg"" width=""35%"" height=""75%""></img></td>
    <td width=300><img src=""static/images/keys/m.svg"" width=""35%"" height=""75%""></img></td>
  </tr>
</table>
  ",77.0,1.0,,,,,,,,,,,,,,,,,,,,,,,,,,
74,0,,html-keyboard-response,74,402598,0.0-4.10-2.10,msg4nt1j1yr,2022-09-19 17:34:18.752,62ff8aa20b2d8c0e359e9799,2,60,32,50,10,49,male,,,"
  <table>
  <tr height=300>
    <td width=300 height=300><img src=""static/images/cards/back_of_red_bolts.svg"" width=""175px"" height=""250px""></img></td>
    <td width=300 height=300><img src=""static/images/cards/10_of_red_bolts.svg"" width=""175px"" height=""250px""></img></td>
  </tr>
  <tr height=200>
    <td width=300><img src=""static/images/keys/z.svg"" width=""35%"" height=""75%""></img></td>
    <td width=300><img src=""static/images/keys/m.svg"" width=""35%"" height=""75%""></img></td>
  </tr>
</table>
  ",,,,,,,,,,,,,,,,,,,,,,,,,,,,
75,0,,html-keyboard-response,75,404108,0.0-4.10-3.10,msg4nt1j1yr,2022-09-19 17:34:18.752,62ff8aa20b2d8c0e359e9799,2,60,32,50,10,49,male,,,"<p style=""font-size:50px"">You win!
+10 points this round!</p>",,,,,,,,,,,,,,,,,,,,,,,,,,,,
76,0,,html-keyboard-response,76,404618,0.0-4.10-4.10,msg4nt1j1yr,2022-09-19 17:34:18.752,62ff8aa20b2d8c0e359e9799,2,60,32,50,10,49,male,,,,,,1.0,learning,10.0,Xc,,red,,bolts,,,,Xc,red,bolts,,1.0,0.0,NA,right,927.1999999285,10.0,1.0,1.0,,,
77,0,,html-keyboard-response,77,406122,0.0-4.11-0.11,msg4nt1j1yr,2022-09-19 17:34:18.752,62ff8aa20b2d8c0e359e9799,2,60,32,50,10,49,male,,,"<img src=""static/images/cards/stack_of_black_bolts.svg"" width=""175px"" height=""250px""></img>",,,,,,,,,,,,,,,,,,,,,,,,,,,,
78,0,,html-keyboard-response,78,406993,0.0-4.11-1.11,msg4nt1j1yr,2022-09-19 17:34:18.752,62ff8aa20b2d8c0e359e9799,2,60,32,50,10,49,male,364.2000000477,,"
  <table>
  <tr height=300>
    <td width=300 height=300><img src=""static/images/cards/back_of_black_bolts.svg"" width=""175px"" height=""250px""></img></td>
    <td width=300 height=300><img src=""static/images/cards/back_of_black_bolts.svg"" width=""175px"" height=""250px""></img></td>
  </tr>
  <tr height=200>
    <td width=300><img src=""static/images/keys/z.svg"" width=""35%"" height=""75%""></img></td>
    <td width=300></td>
  </tr>
</table>
  ",90.0,1.0,,,,,,,,,,,,,,,,,,,,,,,,,,
79,0,,html-keyboard-response,79,408496,0.0-4.11-2.11,msg4nt1j1yr,2022-09-19 17:34:18.752,62ff8aa20b2d8c0e359e9799,2,60,32,50,10,49,male,,,"
  <table>
  <tr height=300>
    <td width=300 height=300><img src=""static/images/cards/10_of_black_bolts.svg"" width=""175px"" height=""250px""></img></td>
    <td width=300 height=300><img src=""static/images/cards/back_of_black_bolts.svg"" width=""175px"" height=""250px""></img></td>
  </tr>
  <tr height=200>
    <td width=300><img src=""static/images/keys/z.svg"" width=""35%"" height=""75%""></img></td>
    <td width=300></td>
  </tr>
</table>
  ",,,,,,,,,,,,,,,,,,,,,,,,,,,,
80,0,,html-keyboard-response,80,410006,0.0-4.11-3.11,msg4nt1j1yr,2022-09-19 17:34:18.752,62ff8aa20b2d8c0e359e9799,2,60,32,50,10,49,male,,,"<p style=""font-size:50px"">You win!
+10 points this round!</p>",,,,,,,,,,,,,,,,,,,,,,,,,,,,
81,0,,html-keyboard-response,81,410516,0.0-4.11-4.11,msg4nt1j1yr,2022-09-19 17:34:18.752,62ff8aa20b2d8c0e359e9799,2,60,32,50,10,49,male,,,,,,1.0,learning,11.0,Xnc,,black,,bolts,,,,Xnc,black,bolts,,0.0,0.0,1,left,364.2000000477,10.0,1.0,1.0,,,
82,0,,html-keyboard-response,82,412020,0.0-4.12-0.12,msg4nt1j1yr,2022-09-19 17:34:18.752,62ff8aa20b2d8c0e359e9799,2,60,32,50,10,49,male,,,"<img src=""static/images/cards/stack_of_black_stars.svg"" width=""175px"" height=""250px""></img>",,,,,,,,,,,,,,,,,,,,,,,,,,,,
83,0,,html-keyboard-response,83,413235,0.0-4.12-1.12,msg4nt1j1yr,2022-09-19 17:34:18.752,62ff8aa20b2d8c0e359e9799,2,60,32,50,10,49,male,708.0,,"
  <table>
  <tr height=300>
    <td width=300 height=300><img src=""static/images/cards/back_of_black_stars.svg"" width=""175px"" height=""250px""></img></td>
    <td width=300 height=300><img src=""static/images/cards/back_of_black_stars.svg"" width=""175px"" height=""250px""></img></td>
  </tr>
  <tr height=200>
    <td width=300><img src=""static/images/keys/z.svg"" width=""35%"" height=""75%""></img></td>
    <td width=300><img src=""static/images/keys/m.svg"" width=""35%"" height=""75%""></img></td>
  </tr>
</table>
  ",90.0,1.0,,,,,,,,,,,,,,,,,,,,,,,,,,
84,0,,html-keyboard-response,84,414740,0.0-4.12-2.12,msg4nt1j1yr,2022-09-19 17:34:18.752,62ff8aa20b2d8c0e359e9799,2,60,32,50,10,49,male,,,"
  <table>
  <tr height=300>
    <td width=300 height=300><img src=""static/images/cards/8_of_black_stars.svg"" width=""175px"" height=""250px""></img></td>
    <td width=300 height=300><img src=""static/images/cards/back_of_black_stars.svg"" width=""175px"" height=""250px""></img></td>
  </tr>
  <tr height=200>
    <td width=300><img src=""static/images/keys/z.svg"" width=""35%"" height=""75%""></img></td>
    <td width=300><img src=""static/images/keys/m.svg"" width=""35%"" height=""75%""></img></td>
  </tr>
</table>
  ",,,,,,,,,,,,,,,,,,,,,,,,,,,,
85,0,,html-keyboard-response,85,416246,0.0-4.12-3.12,msg4nt1j1yr,2022-09-19 17:34:18.752,62ff8aa20b2d8c0e359e9799,2,60,32,50,10,49,male,,,"<p style=""font-size:50px"">You win!
+10 points this round!</p>",,,,,,,,,,,,,,,,,,,,,,,,,,,,
86,0,,html-keyboard-response,86,416756,0.0-4.12-4.12,msg4nt1j1yr,2022-09-19 17:34:18.752,62ff8aa20b2d8c0e359e9799,2,60,32,50,10,49,male,,,,,,1.0,learning,12.0,A,,black,,stars,,,,A,black,stars,,1.0,1.0,NA,left,708.0,8.0,1.0,1.0,,,
87,0,,html-keyboard-response,87,418260,0.0-4.13-0.13,msg4nt1j1yr,2022-09-19 17:34:18.752,62ff8aa20b2d8c0e359e9799,2,60,32,50,10,49,male,,,"<img src=""static/images/cards/stack_of_red_stars.svg"" width=""175px"" height=""250px""></img>",,,,,,,,,,,,,,,,,,,,,,,,,,,,
88,0,,html-keyboard-response,88,419274,0.0-4.13-1.13,msg4nt1j1yr,2022-09-19 17:34:18.752,62ff8aa20b2d8c0e359e9799,2,60,32,50,10,49,male,507.8999999762,,"
  <table>
  <tr height=300>
    <td width=300 height=300><img src=""static/images/cards/back_of_red_stars.svg"" width=""175px"" height=""250px""></img></td>
    <td width=300 height=300><img src=""static/images/cards/back_of_red_stars.svg"" width=""175px"" height=""250px""></img></td>
  </tr>
  <tr height=200>
    <td width=300><img src=""static/images/keys/z.svg"" width=""35%"" height=""75%""></img></td>
    <td width=300></td>
  </tr>
</table>
  ",90.0,1.0,,,,,,,,,,,,,,,,,,,,,,,,,,
89,0,,html-keyboard-response,89,420775,0.0-4.13-2.13,msg4nt1j1yr,2022-09-19 17:34:18.752,62ff8aa20b2d8c0e359e9799,2,60,32,50,10,49,male,,,"
  <table>
  <tr height=300>
    <td width=300 height=300><img src=""static/images/cards/1_of_red_stars.svg"" width=""175px"" height=""250px""></img></td>
    <td width=300 height=300><img src=""static/images/cards/back_of_red_stars.svg"" width=""175px"" height=""250px""></img></td>
  </tr>
  <tr height=200>
    <td width=300><img src=""static/images/keys/z.svg"" width=""35%"" height=""75%""></img></td>
    <td width=300></td>
  </tr>
</table>
  ",,,,,,,,,,,,,,,,,,,,,,,,,,,,
90,0,,html-keyboard-response,90,422283,0.0-4.13-3.13,msg4nt1j1yr,2022-09-19 17:34:18.752,62ff8aa20b2d8c0e359e9799,2,60,32,50,10,49,male,,,"<p style=""font-size:50px"">You Lose!
No points this round.</p>",,,,,,,,,,,,,,,,,,,,,,,,,,,,
91,0,,html-keyboard-response,91,422793,0.0-4.13-4.13,msg4nt1j1yr,2022-09-19 17:34:18.752,62ff8aa20b2d8c0e359e9799,2,60,32,50,10,49,male,,,,,,1.0,learning,13.0,B,,red,,stars,,,,B,red,stars,,0.0,1.0,1,left,507.8999999762,1.0,0.0,0.0,,,
92,0,,html-keyboard-response,92,424295,0.0-4.14-0.14,msg4nt1j1yr,2022-09-19 17:34:18.752,62ff8aa20b2d8c0e359e9799,2,60,32,50,10,49,male,,,"<img src=""static/images/cards/stack_of_black_moons.svg"" width=""175px"" height=""250px""></img>",,,,,,,,,,,,,,,,,,,,,,,,,,,,
93,0,,html-keyboard-response,93,425584,0.0-4.14-1.14,msg4nt1j1yr,2022-09-19 17:34:18.752,62ff8aa20b2d8c0e359e9799,2,60,32,50,10,49,male,785.9000000954,,"
  <table>
  <tr height=300>
    <td width=300 height=300><img src=""static/images/cards/back_of_black_moons.svg"" width=""175px"" height=""250px""></img></td>
    <td width=300 height=300><img src=""static/images/cards/back_of_black_moons.svg"" width=""175px"" height=""250px""></img></td>
  </tr>
  <tr height=200>
    <td width=300><img src=""static/images/keys/z.svg"" width=""35%"" height=""75%""></img></td>
    <td width=300><img src=""static/images/keys/m.svg"" width=""35%"" height=""75%""></img></td>
  </tr>
</table>
  ",77.0,1.0,,,,,,,,,,,,,,,,,,,,,,,,,,
94,0,,html-keyboard-response,94,427090,0.0-4.14-2.14,msg4nt1j1yr,2022-09-19 17:34:18.752,62ff8aa20b2d8c0e359e9799,2,60,32,50,10,49,male,,,"
  <table>
  <tr height=300>
    <td width=300 height=300><img src=""static/images/cards/back_of_black_moons.svg"" width=""175px"" height=""250px""></img></td>
    <td width=300 height=300><img src=""static/images/cards/3_of_black_moons.svg"" width=""175px"" height=""250px""></img></td>
  </tr>
  <tr height=200>
    <td width=300><img src=""static/images/keys/z.svg"" width=""35%"" height=""75%""></img></td>
    <td width=300><img src=""static/images/keys/m.svg"" width=""35%"" height=""75%""></img></td>
  </tr>
</table>
  ",,,,,,,,,,,,,,,,,,,,,,,,,,,,
95,0,,html-keyboard-response,95,428599,0.0-4.14-3.14,msg4nt1j1yr,2022-09-19 17:34:18.752,62ff8aa20b2d8c0e359e9799,2,60,32,50,10,49,male,,,"<p style=""font-size:50px"">You Lose!
No points this round.</p>",,,,,,,,,,,,,,,,,,,,,,,,,,,,
96,0,,html-keyboard-response,96,429109,0.0-4.14-4.14,msg4nt1j1yr,2022-09-19 17:34:18.752,62ff8aa20b2d8c0e359e9799,2,60,32,50,10,49,male,,,,,,1.0,learning,14.0,C,,black,,moons,,,,C,black,moons,,1.0,0.0,NA,right,785.9000000954,3.0,0.0,0.0,,,
97,0,,html-keyboard-response,97,430614,0.0-4.15-0.15,msg4nt1j1yr,2022-09-19 17:34:18.752,62ff8aa20b2d8c0e359e9799,2,60,32,50,10,49,male,,,"<img src=""static/images/cards/stack_of_red_moons.svg"" width=""175px"" height=""250px""></img>",,,,,,,,,,,,,,,,,,,,,,,,,,,,
98,0,,html-keyboard-response,98,431705,0.0-4.15-1.15,msg4nt1j1yr,2022-09-19 17:34:18.752,62ff8aa20b2d8c0e359e9799,2,60,32,50,10,49,male,585.6999999285,,"
  <table>
  <tr height=300>
    <td width=300 height=300><img src=""static/images/cards/back_of_red_moons.svg"" width=""175px"" height=""250px""></img></td>
    <td width=300 height=300><img src=""static/images/cards/back_of_red_moons.svg"" width=""175px"" height=""250px""></img></td>
  </tr>
  <tr height=200>
    <td width=300><img src=""static/images/keys/z.svg"" width=""35%"" height=""75%""></img></td>
    <td width=300></td>
  </tr>
</table>
  ",90.0,1.0,,,,,,,,,,,,,,,,,,,,,,,,,,
99,0,,html-keyboard-response,99,433208,0.0-4.15-2.15,msg4nt1j1yr,2022-09-19 17:34:18.752,62ff8aa20b2d8c0e359e9799,2,60,32,50,10,49,male,,,"
  <table>
  <tr height=300>
    <td width=300 height=300><img src=""static/images/cards/4_of_red_moons.svg"" width=""175px"" height=""250px""></img></td>
    <td width=300 height=300><img src=""static/images/cards/back_of_red_moons.svg"" width=""175px"" height=""250px""></img></td>
  </tr>
  <tr height=200>
    <td width=300><img src=""static/images/keys/z.svg"" width=""35%"" height=""75%""></img></td>
    <td width=300></td>
  </tr>
</table>
  ",,,,,,,,,,,,,,,,,,,,,,,,,,,,
100,0,,html-keyboard-response,100,434718,0.0-4.15-3.15,msg4nt1j1yr,2022-09-19 17:34:18.752,62ff8aa20b2d8c0e359e9799,2,60,32,50,10,49,male,,,"<p style=""font-size:50px"">You Lose!
No points this round.</p>",,,,,,,,,,,,,,,,,,,,,,,,,,,,
101,0,,html-keyboard-response,101,435228,0.0-4.15-4.15,msg4nt1j1yr,2022-09-19 17:34:18.752,62ff8aa20b2d8c0e359e9799,2,60,32,50,10,49,male,,,,,,1.0,learning,15.0,D,,red,,moons,,,,D,red,moons,,0.0,0.0,1,left,585.6999999285,4.0,0.0,0.0,,,
102,0,,html-keyboard-response,102,436732,0.0-4.16-0.16,msg4nt1j1yr,2022-09-19 17:34:18.752,62ff8aa20b2d8c0e359e9799,2,60,32,50,10,49,male,,,"<img src=""static/images/cards/stack_of_red_bolts.svg"" width=""175px"" height=""250px""></img>",,,,,,,,,,,,,,,,,,,,,,,,,,,,
103,0,,html-keyboard-response,103,438013,0.0-4.16-1.16,msg4nt1j1yr,2022-09-19 17:34:18.752,62ff8aa20b2d8c0e359e9799,2,60,32,50,10,49,male,775.1000000238,,"
  <table>
  <tr height=300>
    <td width=300 height=300><img src=""static/images/cards/back_of_red_bolts.svg"" width=""175px"" height=""250px""></img></td>
    <td width=300 height=300><img src=""static/images/cards/back_of_red_bolts.svg"" width=""175px"" height=""250px""></img></td>
  </tr>
  <tr height=200>
    <td width=300><img src=""static/images/keys/z.svg"" width=""35%"" height=""75%""></img></td>
    <td width=300><img src=""static/images/keys/m.svg"" width=""35%"" height=""75%""></img></td>
  </tr>
</table>
  ",77.0,1.0,,,,,,,,,,,,,,,,,,,,,,,,,,
104,0,,html-keyboard-response,104,439518,0.0-4.16-2.16,msg4nt1j1yr,2022-09-19 17:34:18.752,62ff8aa20b2d8c0e359e9799,2,60,32,50,10,49,male,,,"
  <table>
  <tr height=300>
    <td width=300 height=300><img src=""static/images/cards/back_of_red_bolts.svg"" width=""175px"" height=""250px""></img></td>
    <td width=300 height=300><img src=""static/images/cards/1_of_red_bolts.svg"" width=""175px"" height=""250px""></img></td>
  </tr>
  <tr height=200>
    <td width=300><img src=""static/images/keys/z.svg"" width=""35%"" height=""75%""></img></td>
    <td width=300><img src=""static/images/keys/m.svg"" width=""35%"" height=""75%""></img></td>
  </tr>
</table>
  ",,,,,,,,,,,,,,,,,,,,,,,,,,,,
105,0,,html-keyboard-response,105,441027,0.0-4.16-3.16,msg4nt1j1yr,2022-09-19 17:34:18.752,62ff8aa20b2d8c0e359e9799,2,60,32,50,10,49,male,,,"<p style=""font-size:50px"">You win!
+10 points this round!</p>",,,,,,,,,,,,,,,,,,,,,,,,,,,,
106,0,,html-keyboard-response,106,441538,0.0-4.16-4.16,msg4nt1j1yr,2022-09-19 17:34:18.752,62ff8aa20b2d8c0e359e9799,2,60,32,50,10,49,male,,,,,,1.0,learning,16.0,Xc,,red,,bolts,,,,Xc,red,bolts,,1.0,0.0,NA,right,775.1000000238,1.0,0.0,1.0,,,
107,0,,html-keyboard-response,107,443042,0.0-4.17-0.17,msg4nt1j1yr,2022-09-19 17:34:18.752,62ff8aa20b2d8c0e359e9799,2,60,32,50,10,49,male,,,"<img src=""static/images/cards/stack_of_black_bolts.svg"" width=""175px"" height=""250px""></img>",,,,,,,,,,,,,,,,,,,,,,,,,,,,
108,0,,html-keyboard-response,108,444049,0.0-4.17-1.17,msg4nt1j1yr,2022-09-19 17:34:18.752,62ff8aa20b2d8c0e359e9799,2,60,32,50,10,49,male,501.0999999046,,"
  <table>
  <tr height=300>
    <td width=300 height=300><img src=""static/images/cards/back_of_black_bolts.svg"" width=""175px"" height=""250px""></img></td>
    <td width=300 height=300><img src=""static/images/cards/back_of_black_bolts.svg"" width=""175px"" height=""250px""></img></td>
  </tr>
  <tr height=200>
    <td width=300></td>
    <td width=300><img src=""static/images/keys/m.svg"" width=""35%"" height=""75%""></img></td>
  </tr>
</table>
  ",77.0,1.0,,,,,,,,,,,,,,,,,,,,,,,,,,
109,0,,html-keyboard-response,109,445556,0.0-4.17-2.17,msg4nt1j1yr,2022-09-19 17:34:18.752,62ff8aa20b2d8c0e359e9799,2,60,32,50,10,49,male,,,"
  <table>
  <tr height=300>
    <td width=300 height=300><img src=""static/images/cards/back_of_black_bolts.svg"" width=""175px"" height=""250px""></img></td>
    <td width=300 height=300><img src=""static/images/cards/3_of_black_bolts.svg"" width=""175px"" height=""250px""></img></td>
  </tr>
  <tr height=200>
    <td width=300></td>
    <td width=300><img src=""static/images/keys/m.svg"" width=""35%"" height=""75%""></img></td>
  </tr>
</table>
  ",,,,,,,,,,,,,,,,,,,,,,,,,,,,
110,0,,html-keyboard-response,110,447065,0.0-4.17-3.17,msg4nt1j1yr,2022-09-19 17:34:18.752,62ff8aa20b2d8c0e359e9799,2,60,32,50,10,49,male,,,"<p style=""font-size:50px"">You win!
+10 points this round!</p>",,,,,,,,,,,,,,,,,,,,,,,,,,,,
111,0,,html-keyboard-response,111,447575,0.0-4.17-4.17,msg4nt1j1yr,2022-09-19 17:34:18.752,62ff8aa20b2d8c0e359e9799,2,60,32,50,10,49,male,,,,,,1.0,learning,17.0,Xnc,,black,,bolts,,,,Xnc,black,bolts,,0.0,0.0,0,right,501.0999999046,3.0,0.0,1.0,,,
112,0,,html-keyboard-response,112,449079,0.0-4.18-0.18,msg4nt1j1yr,2022-09-19 17:34:18.752,62ff8aa20b2d8c0e359e9799,2,60,32,50,10,49,male,,,"<img src=""static/images/cards/stack_of_black_stars.svg"" width=""175px"" height=""250px""></img>",,,,,,,,,,,,,,,,,,,,,,,,,,,,
113,0,,html-keyboard-response,113,450357,0.0-4.18-1.18,msg4nt1j1yr,2022-09-19 17:34:18.752,62ff8aa20b2d8c0e359e9799,2,60,32,50,10,49,male,771.7000000477,,"
  <table>
  <tr height=300>
    <td width=300 height=300><img src=""static/images/cards/back_of_black_stars.svg"" width=""175px"" height=""250px""></img></td>
    <td width=300 height=300><img src=""static/images/cards/back_of_black_stars.svg"" width=""175px"" height=""250px""></img></td>
  </tr>
  <tr height=200>
    <td width=300><img src=""static/images/keys/z.svg"" width=""35%"" height=""75%""></img></td>
    <td width=300><img src=""static/images/keys/m.svg"" width=""35%"" height=""75%""></img></td>
  </tr>
</table>
  ",90.0,1.0,,,,,,,,,,,,,,,,,,,,,,,,,,
114,0,,html-keyboard-response,114,451860,0.0-4.18-2.18,msg4nt1j1yr,2022-09-19 17:34:18.752,62ff8aa20b2d8c0e359e9799,2,60,32,50,10,49,male,,,"
  <table>
  <tr height=300>
    <td width=300 height=300><img src=""static/images/cards/1_of_black_stars.svg"" width=""175px"" height=""250px""></img></td>
    <td width=300 height=300><img src=""static/images/cards/back_of_black_stars.svg"" width=""175px"" height=""250px""></img></td>
  </tr>
  <tr height=200>
    <td width=300><img src=""static/images/keys/z.svg"" width=""35%"" height=""75%""></img></td>
    <td width=300><img src=""static/images/keys/m.svg"" width=""35%"" height=""75%""></img></td>
  </tr>
</table>
  ",,,,,,,,,,,,,,,,,,,,,,,,,,,,
115,0,,html-keyboard-response,115,453369,0.0-4.18-3.18,msg4nt1j1yr,2022-09-19 17:34:18.752,62ff8aa20b2d8c0e359e9799,2,60,32,50,10,49,male,,,"<p style=""font-size:50px"">You Lose!
No points this round.</p>",,,,,,,,,,,,,,,,,,,,,,,,,,,,
116,0,,html-keyboard-response,116,453880,0.0-4.18-4.18,msg4nt1j1yr,2022-09-19 17:34:18.752,62ff8aa20b2d8c0e359e9799,2,60,32,50,10,49,male,,,,,,1.0,learning,18.0,A,,black,,stars,,,,A,black,stars,,1.0,1.0,NA,left,771.7000000477,1.0,0.0,0.0,,,
117,0,,html-keyboard-response,117,455383,0.0-4.19-0.19,msg4nt1j1yr,2022-09-19 17:34:18.752,62ff8aa20b2d8c0e359e9799,2,60,32,50,10,49,male,,,"<img src=""static/images/cards/stack_of_red_stars.svg"" width=""175px"" height=""250px""></img>",,,,,,,,,,,,,,,,,,,,,,,,,,,,
118,0,,html-keyboard-response,118,456417,0.0-4.19-1.19,msg4nt1j1yr,2022-09-19 17:34:18.752,62ff8aa20b2d8c0e359e9799,2,60,32,50,10,49,male,527.3999999762,,"
  <table>
  <tr height=300>
    <td width=300 height=300><img src=""static/images/cards/back_of_red_stars.svg"" width=""175px"" height=""250px""></img></td>
    <td width=300 height=300><img src=""static/images/cards/back_of_red_stars.svg"" width=""175px"" height=""250px""></img></td>
  </tr>
  <tr height=200>
    <td width=300><img src=""static/images/keys/z.svg"" width=""35%"" height=""75%""></img></td>
    <td width=300></td>
  </tr>
</table>
  ",90.0,1.0,,,,,,,,,,,,,,,,,,,,,,,,,,
119,0,,html-keyboard-response,119,457920,0.0-4.19-2.19,msg4nt1j1yr,2022-09-19 17:34:18.752,62ff8aa20b2d8c0e359e9799,2,60,32,50,10,49,male,,,"
  <table>
  <tr height=300>
    <td width=300 height=300><img src=""static/images/cards/8_of_red_stars.svg"" width=""175px"" height=""250px""></img></td>
    <td width=300 height=300><img src=""static/images/cards/back_of_red_stars.svg"" width=""175px"" height=""250px""></img></td>
  </tr>
  <tr height=200>
    <td width=300><img src=""static/images/keys/z.svg"" width=""35%"" height=""75%""></img></td>
    <td width=300></td>
  </tr>
</table>
  ",,,,,,,,,,,,,,,,,,,,,,,,,,,,
120,0,,html-keyboard-response,120,459430,0.0-4.19-3.19,msg4nt1j1yr,2022-09-19 17:34:18.752,62ff8aa20b2d8c0e359e9799,2,60,32,50,10,49,male,,,"<p style=""font-size:50px"">You win!
+10 points this round!</p>",,,,,,,,,,,,,,,,,,,,,,,,,,,,
121,0,,html-keyboard-response,121,459940,0.0-4.19-4.19,msg4nt1j1yr,2022-09-19 17:34:18.752,62ff8aa20b2d8c0e359e9799,2,60,32,50,10,49,male,,,,,,1.0,learning,19.0,B,,red,,stars,,,,B,red,stars,,0.0,1.0,1,left,527.3999999762,8.0,1.0,1.0,,,
122,0,,html-keyboard-response,122,461446,0.0-4.20-0.20,msg4nt1j1yr,2022-09-19 17:34:18.752,62ff8aa20b2d8c0e359e9799,2,60,32,50,10,49,male,,,"<img src=""static/images/cards/stack_of_black_moons.svg"" width=""175px"" height=""250px""></img>",,,,,,,,,,,,,,,,,,,,,,,,,,,,
123,0,,html-keyboard-response,123,462324,0.0-4.20-1.20,msg4nt1j1yr,2022-09-19 17:34:18.752,62ff8aa20b2d8c0e359e9799,2,60,32,50,10,49,male,373.3999999762,,"
  <table>
  <tr height=300>
    <td width=300 height=300><img src=""static/images/cards/back_of_black_moons.svg"" width=""175px"" height=""250px""></img></td>
    <td width=300 height=300><img src=""static/images/cards/back_of_black_moons.svg"" width=""175px"" height=""250px""></img></td>
  </tr>
  <tr height=200>
    <td width=300><img src=""static/images/keys/z.svg"" width=""35%"" height=""75%""></img></td>
    <td width=300><img src=""static/images/keys/m.svg"" width=""35%"" height=""75%""></img></td>
  </tr>
</table>
  ",90.0,1.0,,,,,,,,,,,,,,,,,,,,,,,,,,
124,0,,html-keyboard-response,124,463830,0.0-4.20-2.20,msg4nt1j1yr,2022-09-19 17:34:18.752,62ff8aa20b2d8c0e359e9799,2,60,32,50,10,49,male,,,"
  <table>
  <tr height=300>
    <td width=300 height=300><img src=""static/images/cards/9_of_black_moons.svg"" width=""175px"" height=""250px""></img></td>
    <td width=300 height=300><img src=""static/images/cards/back_of_black_moons.svg"" width=""175px"" height=""250px""></img></td>
  </tr>
  <tr height=200>
    <td width=300><img src=""static/images/keys/z.svg"" width=""35%"" height=""75%""></img></td>
    <td width=300><img src=""static/images/keys/m.svg"" width=""35%"" height=""75%""></img></td>
  </tr>
</table>
  ",,,,,,,,,,,,,,,,,,,,,,,,,,,,
125,0,,html-keyboard-response,125,465339,0.0-4.20-3.20,msg4nt1j1yr,2022-09-19 17:34:18.752,62ff8aa20b2d8c0e359e9799,2,60,32,50,10,49,male,,,"<p style=""font-size:50px"">You win!
+10 points this round!</p>",,,,,,,,,,,,,,,,,,,,,,,,,,,,
126,0,,html-keyboard-response,126,465849,0.0-4.20-4.20,msg4nt1j1yr,2022-09-19 17:34:18.752,62ff8aa20b2d8c0e359e9799,2,60,32,50,10,49,male,,,,,,1.0,learning,20.0,C,,black,,moons,,,,C,black,moons,,1.0,0.0,NA,left,373.3999999762,9.0,1.0,1.0,,,
127,0,,html-keyboard-response,127,467353,0.0-4.21-0.21,msg4nt1j1yr,2022-09-19 17:34:18.752,62ff8aa20b2d8c0e359e9799,2,60,32,50,10,49,male,,,"<img src=""static/images/cards/stack_of_red_moons.svg"" width=""175px"" height=""250px""></img>",,,,,,,,,,,,,,,,,,,,,,,,,,,,
128,0,,html-keyboard-response,128,468495,0.0-4.21-1.21,msg4nt1j1yr,2022-09-19 17:34:18.752,62ff8aa20b2d8c0e359e9799,2,60,32,50,10,49,male,636.0,,"
  <table>
  <tr height=300>
    <td width=300 height=300><img src=""static/images/cards/back_of_red_moons.svg"" width=""175px"" height=""250px""></img></td>
    <td width=300 height=300><img src=""static/images/cards/back_of_red_moons.svg"" width=""175px"" height=""250px""></img></td>
  </tr>
  <tr height=200>
    <td width=300><img src=""static/images/keys/z.svg"" width=""35%"" height=""75%""></img></td>
    <td width=300></td>
  </tr>
</table>
  ",90.0,1.0,,,,,,,,,,,,,,,,,,,,,,,,,,
129,0,,html-keyboard-response,129,470001,0.0-4.21-2.21,msg4nt1j1yr,2022-09-19 17:34:18.752,62ff8aa20b2d8c0e359e9799,2,60,32,50,10,49,male,,,"
  <table>
  <tr height=300>
    <td width=300 height=300><img src=""static/images/cards/6_of_red_moons.svg"" width=""175px"" height=""250px""></img></td>
    <td width=300 height=300><img src=""static/images/cards/back_of_red_moons.svg"" width=""175px"" height=""250px""></img></td>
  </tr>
  <tr height=200>
    <td width=300><img src=""static/images/keys/z.svg"" width=""35%"" height=""75%""></img></td>
    <td width=300></td>
  </tr>
</table>
  ",,,,,,,,,,,,,,,,,,,,,,,,,,,,
130,0,,html-keyboard-response,130,471510,0.0-4.21-3.21,msg4nt1j1yr,2022-09-19 17:34:18.752,62ff8aa20b2d8c0e359e9799,2,60,32,50,10,49,male,,,"<p style=""font-size:50px"">You Lose!
No points this round.</p>",,,,,,,,,,,,,,,,,,,,,,,,,,,,
131,0,,html-keyboard-response,131,472020,0.0-4.21-4.21,msg4nt1j1yr,2022-09-19 17:34:18.752,62ff8aa20b2d8c0e359e9799,2,60,32,50,10,49,male,,,,,,1.0,learning,21.0,D,,red,,moons,,,,D,red,moons,,0.0,0.0,1,left,636.0,6.0,1.0,0.0,,,
132,0,,html-keyboard-response,132,473524,0.0-4.22-0.22,msg4nt1j1yr,2022-09-19 17:34:18.752,62ff8aa20b2d8c0e359e9799,2,60,32,50,10,49,male,,,"<img src=""static/images/cards/stack_of_red_bolts.svg"" width=""175px"" height=""250px""></img>",,,,,,,,,,,,,,,,,,,,,,,,,,,,
133,0,,html-keyboard-response,133,474551,0.0-4.22-1.22,msg4nt1j1yr,2022-09-19 17:34:18.752,62ff8aa20b2d8c0e359e9799,2,60,32,50,10,49,male,521.3999999762,,"
  <table>
  <tr height=300>
    <td width=300 height=300><img src=""static/images/cards/back_of_red_bolts.svg"" width=""175px"" height=""250px""></img></td>
    <td width=300 height=300><img src=""static/images/cards/back_of_red_bolts.svg"" width=""175px"" height=""250px""></img></td>
  </tr>
  <tr height=200>
    <td width=300><img src=""static/images/keys/z.svg"" width=""35%"" height=""75%""></img></td>
    <td width=300><img src=""static/images/keys/m.svg"" width=""35%"" height=""75%""></img></td>
  </tr>
</table>
  ",77.0,1.0,,,,,,,,,,,,,,,,,,,,,,,,,,
134,0,,html-keyboard-response,134,476055,0.0-4.22-2.22,msg4nt1j1yr,2022-09-19 17:34:18.752,62ff8aa20b2d8c0e359e9799,2,60,32,50,10,49,male,,,"
  <table>
  <tr height=300>
    <td width=300 height=300><img src=""static/images/cards/back_of_red_bolts.svg"" width=""175px"" height=""250px""></img></td>
    <td width=300 height=300><img src=""static/images/cards/8_of_red_bolts.svg"" width=""175px"" height=""250px""></img></td>
  </tr>
  <tr height=200>
    <td width=300><img src=""static/images/keys/z.svg"" width=""35%"" height=""75%""></img></td>
    <td width=300><img src=""static/images/keys/m.svg"" width=""35%"" height=""75%""></img></td>
  </tr>
</table>
  ",,,,,,,,,,,,,,,,,,,,,,,,,,,,
135,0,,html-keyboard-response,135,477565,0.0-4.22-3.22,msg4nt1j1yr,2022-09-19 17:34:18.752,62ff8aa20b2d8c0e359e9799,2,60,32,50,10,49,male,,,"<p style=""font-size:50px"">You win!
+10 points this round!</p>",,,,,,,,,,,,,,,,,,,,,,,,,,,,
136,0,,html-keyboard-response,136,478075,0.0-4.22-4.22,msg4nt1j1yr,2022-09-19 17:34:18.752,62ff8aa20b2d8c0e359e9799,2,60,32,50,10,49,male,,,,,,1.0,learning,22.0,Xc,,red,,bolts,,,,Xc,red,bolts,,1.0,0.0,NA,right,521.3999999762,8.0,1.0,1.0,,,
137,0,,html-keyboard-response,137,479579,0.0-4.23-0.23,msg4nt1j1yr,2022-09-19 17:34:18.752,62ff8aa20b2d8c0e359e9799,2,60,32,50,10,49,male,,,"<img src=""static/images/cards/stack_of_black_bolts.svg"" width=""175px"" height=""250px""></img>",,,,,,,,,,,,,,,,,,,,,,,,,,,,
138,0,,html-keyboard-response,138,480569,0.0-4.23-1.23,msg4nt1j1yr,2022-09-19 17:34:18.752,62ff8aa20b2d8c0e359e9799,2,60,32,50,10,49,male,484.0,,"
  <table>
  <tr height=300>
    <td width=300 height=300><img src=""static/images/cards/back_of_black_bolts.svg"" width=""175px"" height=""250px""></img></td>
    <td width=300 height=300><img src=""static/images/cards/back_of_black_bolts.svg"" width=""175px"" height=""250px""></img></td>
  </tr>
  <tr height=200>
    <td width=300><img src=""static/images/keys/z.svg"" width=""35%"" height=""75%""></img></td>
    <td width=300></td>
  </tr>
</table>
  ",90.0,1.0,,,,,,,,,,,,,,,,,,,,,,,,,,
139,0,,html-keyboard-response,139,482075,0.0-4.23-2.23,msg4nt1j1yr,2022-09-19 17:34:18.752,62ff8aa20b2d8c0e359e9799,2,60,32,50,10,49,male,,,"
  <table>
  <tr height=300>
    <td width=300 height=300><img src=""static/images/cards/8_of_black_bolts.svg"" width=""175px"" height=""250px""></img></td>
    <td width=300 height=300><img src=""static/images/cards/back_of_black_bolts.svg"" width=""175px"" height=""250px""></img></td>
  </tr>
  <tr height=200>
    <td width=300><img src=""static/images/keys/z.svg"" width=""35%"" height=""75%""></img></td>
    <td width=300></td>
  </tr>
</table>
  ",,,,,,,,,,,,,,,,,,,,,,,,,,,,
140,0,,html-keyboard-response,140,483584,0.0-4.23-3.23,msg4nt1j1yr,2022-09-19 17:34:18.752,62ff8aa20b2d8c0e359e9799,2,60,32,50,10,49,male,,,"<p style=""font-size:50px"">You win!
+10 points this round!</p>",,,,,,,,,,,,,,,,,,,,,,,,,,,,
141,0,,html-keyboard-response,141,484094,0.0-4.23-4.23,msg4nt1j1yr,2022-09-19 17:34:18.752,62ff8aa20b2d8c0e359e9799,2,60,32,50,10,49,male,,,,,,1.0,learning,23.0,Xnc,,black,,bolts,,,,Xnc,black,bolts,,0.0,0.0,1,left,484.0,8.0,1.0,1.0,,,
142,0,,call-function,142,484122,0.0-5.0,msg4nt1j1yr,2022-09-19 17:34:18.752,62ff8aa20b2d8c0e359e9799,2,60,32,50,10,49,male,,,,,,,,,,,,,,,,,,,,,,,,,,,,,,,
143,0,,image-keyboard-response,143,500737,0.0-6.0-0.0,msg4nt1j1yr,2022-09-19 17:34:18.752,62ff8aa20b2d8c0e359e9799,2,60,32,50,10,49,male,16614.1999999285,,static/images/instructions_CB_2/Slide20.png,39.0,,,,,,,,,,,,,,,,,,,,,,,,,,,
144,0,,image-keyboard-response,144,541438,0.0-6.1-0.1,msg4nt1j1yr,2022-09-19 17:34:18.752,62ff8aa20b2d8c0e359e9799,2,60,32,50,10,49,male,40699.8999999762,,static/images/instructions_CB_2/Slide21.png,39.0,,,,,,,,,,,,,,,,,,,,,,,,,,,
145,0,,image-keyboard-response,145,563984,0.0-6.2-0.2,msg4nt1j1yr,2022-09-19 17:34:18.752,62ff8aa20b2d8c0e359e9799,2,60,32,50,10,49,male,22545.1000000238,,static/images/instructions_CB_2/Slide22.png,39.0,,,,,,,,,,,,,,,,,,,,,,,,,,,
146,0,,image-keyboard-response,146,582978,0.0-6.3-0.3,msg4nt1j1yr,2022-09-19 17:34:18.752,62ff8aa20b2d8c0e359e9799,2,60,32,50,10,49,male,18993.6000000238,,static/images/instructions_CB_2/Slide23.png,39.0,,,,,,,,,,,,,,,,,,,,,,,,,,,
147,0,,image-keyboard-response,147,588339,0.0-6.4-0.4,msg4nt1j1yr,2022-09-19 17:34:18.752,62ff8aa20b2d8c0e359e9799,2,60,32,50,10,49,male,5360.0,,static/images/instructions_CB_2/Slide24.png,39.0,,,,,,,,,,,,,,,,,,,,,,,,,,,
148,0,,html-keyboard-response,148,593346,0.0-7.0-0.0,msg4nt1j1yr,2022-09-19 17:34:18.752,62ff8aa20b2d8c0e359e9799,2,60,32,50,10,49,male,,,"
  <table>
  <tr height=300>
    <td width=300 height=300><img src=""static/images/cards/stack_of_black_stars.svg"" width=""175px"" height=""250px""></img></td>
    <td width=300 height=300><img src=""static/images/cards/stack_of_black_moons.svg"" width=""175px"" height=""250px""></img></td>
  </tr>
  <tr height=200>
    <td width=300><img src=""static/images/keys/w.svg"" width=""35%"" height=""75%""></img></td>
    <td width=300><img src=""static/images/keys/o.svg"" width=""35%"" height=""75%""></img></td>
  </tr>
</table>
  ",,,,,,,,,,,,,,,,,,,,,,,,,,,,
149,0,,html-keyboard-response,149,593851,0.0-7.0-1.0,msg4nt1j1yr,2022-09-19 17:34:18.752,62ff8aa20b2d8c0e359e9799,2,60,32,50,10,49,male,,,,,,,,,,,,,,,,,,,,,,,,,,,,,,,
150,0,,html-keyboard-response,150,593851,0.0-7.0-2.0,msg4nt1j1yr,2022-09-19 17:34:18.752,62ff8aa20b2d8c0e359e9799,2,60,32,50,10,49,male,,,,,,,,,,,,,,,,,,,,,,,,,,,,,,,
151,0,,html-keyboard-response,151,595360,0.0-7.0-3.0,msg4nt1j1yr,2022-09-19 17:34:18.752,62ff8aa20b2d8c0e359e9799,2,60,32,50,10,49,male,,,"<p style=""font-size:50px"">Too slow!</p>",,,,,,,,,,,,,,,,,,,,,,,,,,,,
152,0,,html-keyboard-response,152,595870,0.0-7.0-4.0,msg4nt1j1yr,2022-09-19 17:34:18.752,62ff8aa20b2d8c0e359e9799,2,60,32,50,10,49,male,,,,,,1.0,choice,0.0,A,C,black,black,stars,moons,A,C,,,,,0.0,0.0,1,,,8.0,1.0,1.0,,,
153,0,,html-keyboard-response,153,597359,0.0-7.1-0.1,msg4nt1j1yr,2022-09-19 17:34:18.752,62ff8aa20b2d8c0e359e9799,2,60,32,50,10,49,male,1486.8999999762,,"
  <table>
  <tr height=300>
    <td width=300 height=300><img src=""static/images/cards/stack_of_black_stars.svg"" width=""175px"" height=""250px""></img></td>
    <td width=300 height=300><img src=""static/images/cards/stack_of_red_stars.svg"" width=""175px"" height=""250px""></img></td>
  </tr>
  <tr height=200>
    <td width=300><img src=""static/images/keys/w.svg"" width=""35%"" height=""75%""></img></td>
    <td width=300><img src=""static/images/keys/o.svg"" width=""35%"" height=""75%""></img></td>
  </tr>
</table>
  ",87.0,1.0,,,,,,,,,,,,,,,,,,,,,,,,,,
154,0,,html-keyboard-response,154,600569,0.0-7.1-1.1,msg4nt1j1yr,2022-09-19 17:34:18.752,62ff8aa20b2d8c0e359e9799,2,60,32,50,10,49,male,2697.1999999285,,"
  <table>
  <tr height=300>
    <td width=300 height=300><img src=""static/images/cards/back_of_black_stars.svg"" width=""175px"" height=""250px""></img></td>
    <td width=300 height=300><img src=""static/images/cards/back_of_black_stars.svg"" width=""175px"" height=""250px""></img></td>
  </tr>
  <tr height=200>
    <td width=300><img src=""static/images/keys/z.svg"" width=""35%"" height=""75%""></img></td>
    <td width=300><img src=""static/images/keys/m.svg"" width=""35%"" height=""75%""></img></td>
  </tr>
</table>
  ",90.0,1.0,,,,,,,,,,,,,,,,,,,,,,,,,,
155,0,,html-keyboard-response,155,602076,0.0-7.1-2.1,msg4nt1j1yr,2022-09-19 17:34:18.752,62ff8aa20b2d8c0e359e9799,2,60,32,50,10,49,male,,,"
  <table>
  <tr height=300>
    <td width=300 height=300><img src=""static/images/cards/3_of_black_stars.svg"" width=""175px"" height=""250px""></img></td>
    <td width=300 height=300><img src=""static/images/cards/back_of_black_stars.svg"" width=""175px"" height=""250px""></img></td>
  </tr>
  <tr height=200>
    <td width=300><img src=""static/images/keys/z.svg"" width=""35%"" height=""75%""></img></td>
    <td width=300><img src=""static/images/keys/m.svg"" width=""35%"" height=""75%""></img></td>
  </tr>
</table>
  ",,,,,,,,,,,,,,,,,,,,,,,,,,,,
156,0,,html-keyboard-response,156,603585,0.0-7.1-3.1,msg4nt1j1yr,2022-09-19 17:34:18.752,62ff8aa20b2d8c0e359e9799,2,60,32,50,10,49,male,,,"<p style=""font-size:50px"">You Lose!
No points this round.</p>",,,,,,,,,,,,,,,,,,,,,,,,,,,,
157,0,,html-keyboard-response,157,604096,0.0-7.1-4.1,msg4nt1j1yr,2022-09-19 17:34:18.752,62ff8aa20b2d8c0e359e9799,2,60,32,50,10,49,male,,,,,,1.0,choice,1.0,A,B,black,red,stars,stars,A,B,A,black,stars,1486.8999999762,1.0,1.0,NA,left,2697.1999999285,3.0,0.0,0.0,,,
158,0,,html-keyboard-response,158,606321,0.0-7.2-0.2,msg4nt1j1yr,2022-09-19 17:34:18.752,62ff8aa20b2d8c0e359e9799,2,60,32,50,10,49,male,2223.3999999762,,"
  <table>
  <tr height=300>
    <td width=300 height=300><img src=""static/images/cards/stack_of_red_moons.svg"" width=""175px"" height=""250px""></img></td>
    <td width=300 height=300><img src=""static/images/cards/stack_of_black_moons.svg"" width=""175px"" height=""250px""></img></td>
  </tr>
  <tr height=200>
    <td width=300><img src=""static/images/keys/w.svg"" width=""35%"" height=""75%""></img></td>
    <td width=300><img src=""static/images/keys/o.svg"" width=""35%"" height=""75%""></img></td>
  </tr>
</table>
  ",79.0,1.0,,,,,,,,,,,,,,,,,,,,,,,,,,
159,0,,html-keyboard-response,159,607604,0.0-7.2-1.2,msg4nt1j1yr,2022-09-19 17:34:18.752,62ff8aa20b2d8c0e359e9799,2,60,32,50,10,49,male,777.8999999762,,"
  <table>
  <tr height=300>
    <td width=300 height=300><img src=""static/images/cards/back_of_black_moons.svg"" width=""175px"" height=""250px""></img></td>
    <td width=300 height=300><img src=""static/images/cards/back_of_black_moons.svg"" width=""175px"" height=""250px""></img></td>
  </tr>
  <tr height=200>
    <td width=300><img src=""static/images/keys/z.svg"" width=""35%"" height=""75%""></img></td>
    <td width=300><img src=""static/images/keys/m.svg"" width=""35%"" height=""75%""></img></td>
  </tr>
</table>
  ",77.0,1.0,,,,,,,,,,,,,,,,,,,,,,,,,,
160,0,,html-keyboard-response,160,609106,0.0-7.2-2.2,msg4nt1j1yr,2022-09-19 17:34:18.752,62ff8aa20b2d8c0e359e9799,2,60,32,50,10,49,male,,,"
  <table>
  <tr height=300>
    <td width=300 height=300><img src=""static/images/cards/back_of_black_moons.svg"" width=""175px"" height=""250px""></img></td>
    <td width=300 height=300><img src=""static/images/cards/6_of_black_moons.svg"" width=""175px"" height=""250px""></img></td>
  </tr>
  <tr height=200>
    <td width=300><img src=""static/images/keys/z.svg"" width=""35%"" height=""75%""></img></td>
    <td width=300><img src=""static/images/keys/m.svg"" width=""35%"" height=""75%""></img></td>
  </tr>
</table>
  ",,,,,,,,,,,,,,,,,,,,,,,,,,,,
161,0,,html-keyboard-response,161,610615,0.0-7.2-3.2,msg4nt1j1yr,2022-09-19 17:34:18.752,62ff8aa20b2d8c0e359e9799,2,60,32,50,10,49,male,,,"<p style=""font-size:50px"">You win!
+10 points this round!</p>",,,,,,,,,,,,,,,,,,,,,,,,,,,,
162,0,,html-keyboard-response,162,611126,0.0-7.2-4.2,msg4nt1j1yr,2022-09-19 17:34:18.752,62ff8aa20b2d8c0e359e9799,2,60,32,50,10,49,male,,,,,,1.0,choice,2.0,C,D,red,black,moons,moons,D,C,C,black,moons,2223.3999999762,1.0,0.0,NA,right,777.8999999762,6.0,1.0,1.0,,,
163,0,,html-keyboard-response,163,613054,0.0-7.3-0.3,msg4nt1j1yr,2022-09-19 17:34:18.752,62ff8aa20b2d8c0e359e9799,2,60,32,50,10,49,male,1926.5,,"
  <table>
  <tr height=300>
    <td width=300 height=300><img src=""static/images/cards/stack_of_red_moons.svg"" width=""175px"" height=""250px""></img></td>
    <td width=300 height=300><img src=""static/images/cards/stack_of_black_stars.svg"" width=""175px"" height=""250px""></img></td>
  </tr>
  <tr height=200>
    <td width=300><img src=""static/images/keys/w.svg"" width=""35%"" height=""75%""></img></td>
    <td width=300><img src=""static/images/keys/o.svg"" width=""35%"" height=""75%""></img></td>
  </tr>
</table>
  ",79.0,1.0,,,,,,,,,,,,,,,,,,,,,,,,,,
164,0,,html-keyboard-response,164,614319,0.0-7.3-1.3,msg4nt1j1yr,2022-09-19 17:34:18.752,62ff8aa20b2d8c0e359e9799,2,60,32,50,10,49,male,759.1000000238,,"
  <table>
  <tr height=300>
    <td width=300 height=300><img src=""static/images/cards/back_of_black_stars.svg"" width=""175px"" height=""250px""></img></td>
    <td width=300 height=300><img src=""static/images/cards/back_of_black_stars.svg"" width=""175px"" height=""250px""></img></td>
  </tr>
  <tr height=200>
    <td width=300><img src=""static/images/keys/z.svg"" width=""35%"" height=""75%""></img></td>
    <td width=300><img src=""static/images/keys/m.svg"" width=""35%"" height=""75%""></img></td>
  </tr>
</table>
  ",77.0,1.0,,,,,,,,,,,,,,,,,,,,,,,,,,
165,0,,html-keyboard-response,165,615822,0.0-7.3-2.3,msg4nt1j1yr,2022-09-19 17:34:18.752,62ff8aa20b2d8c0e359e9799,2,60,32,50,10,49,male,,,"
  <table>
  <tr height=300>
    <td width=300 height=300><img src=""static/images/cards/back_of_black_stars.svg"" width=""175px"" height=""250px""></img></td>
    <td width=300 height=300><img src=""static/images/cards/2_of_black_stars.svg"" width=""175px"" height=""250px""></img></td>
  </tr>
  <tr height=200>
    <td width=300><img src=""static/images/keys/z.svg"" width=""35%"" height=""75%""></img></td>
    <td width=300><img src=""static/images/keys/m.svg"" width=""35%"" height=""75%""></img></td>
  </tr>
</table>
  ",,,,,,,,,,,,,,,,,,,,,,,,,,,,
166,0,,html-keyboard-response,166,617332,0.0-7.3-3.3,msg4nt1j1yr,2022-09-19 17:34:18.752,62ff8aa20b2d8c0e359e9799,2,60,32,50,10,49,male,,,"<p style=""font-size:50px"">You Lose!
No points this round.</p>",,,,,,,,,,,,,,,,,,,,,,,,,,,,
167,0,,html-keyboard-response,167,617842,0.0-7.3-4.3,msg4nt1j1yr,2022-09-19 17:34:18.752,62ff8aa20b2d8c0e359e9799,2,60,32,50,10,49,male,,,,,,1.0,choice,3.0,A,D,red,black,moons,stars,D,A,A,black,stars,1926.5,1.0,1.0,NA,right,759.1000000238,2.0,0.0,0.0,,,
168,0,,html-keyboard-response,168,619406,0.0-7.4-0.4,msg4nt1j1yr,2022-09-19 17:34:18.752,62ff8aa20b2d8c0e359e9799,2,60,32,50,10,49,male,1562.3999999762,,"
  <table>
  <tr height=300>
    <td width=300 height=300><img src=""static/images/cards/stack_of_red_stars.svg"" width=""175px"" height=""250px""></img></td>
    <td width=300 height=300><img src=""static/images/cards/stack_of_black_moons.svg"" width=""175px"" height=""250px""></img></td>
  </tr>
  <tr height=200>
    <td width=300><img src=""static/images/keys/w.svg"" width=""35%"" height=""75%""></img></td>
    <td width=300><img src=""static/images/keys/o.svg"" width=""35%"" height=""75%""></img></td>
  </tr>
</table>
  ",87.0,1.0,,,,,,,,,,,,,,,,,,,,,,,,,,
169,0,,html-keyboard-response,169,620601,0.0-7.4-1.4,msg4nt1j1yr,2022-09-19 17:34:18.752,62ff8aa20b2d8c0e359e9799,2,60,32,50,10,49,male,690.8999999762,,"
  <table>
  <tr height=300>
    <td width=300 height=300><img src=""static/images/cards/back_of_red_stars.svg"" width=""175px"" height=""250px""></img></td>
    <td width=300 height=300><img src=""static/images/cards/back_of_red_stars.svg"" width=""175px"" height=""250px""></img></td>
  </tr>
  <tr height=200>
    <td width=300></td>
    <td width=300><img src=""static/images/keys/m.svg"" width=""35%"" height=""75%""></img></td>
  </tr>
</table>
  ",77.0,1.0,,,,,,,,,,,,,,,,,,,,,,,,,,
170,0,,html-keyboard-response,170,622104,0.0-7.4-2.4,msg4nt1j1yr,2022-09-19 17:34:18.752,62ff8aa20b2d8c0e359e9799,2,60,32,50,10,49,male,,,"
  <table>
  <tr height=300>
    <td width=300 height=300><img src=""static/images/cards/back_of_red_stars.svg"" width=""175px"" height=""250px""></img></td>
    <td width=300 height=300><img src=""static/images/cards/4_of_red_stars.svg"" width=""175px"" height=""250px""></img></td>
  </tr>
  <tr height=200>
    <td width=300></td>
    <td width=300><img src=""static/images/keys/m.svg"" width=""35%"" height=""75%""></img></td>
  </tr>
</table>
  ",,,,,,,,,,,,,,,,,,,,,,,,,,,,
171,0,,html-keyboard-response,171,623613,0.0-7.4-3.4,msg4nt1j1yr,2022-09-19 17:34:18.752,62ff8aa20b2d8c0e359e9799,2,60,32,50,10,49,male,,,"<p style=""font-size:50px"">You Lose!
No points this round.</p>",,,,,,,,,,,,,,,,,,,,,,,,,,,,
172,0,,html-keyboard-response,172,624123,0.0-7.4-4.4,msg4nt1j1yr,2022-09-19 17:34:18.752,62ff8aa20b2d8c0e359e9799,2,60,32,50,10,49,male,,,,,,1.0,choice,4.0,B,C,red,black,stars,moons,B,C,B,red,stars,1562.3999999762,0.0,1.0,0,right,690.8999999762,4.0,0.0,0.0,,,
173,0,,html-keyboard-response,173,625910,0.0-7.5-0.5,msg4nt1j1yr,2022-09-19 17:34:18.752,62ff8aa20b2d8c0e359e9799,2,60,32,50,10,49,male,1785.1000000238,,"
  <table>
  <tr height=300>
    <td width=300 height=300><img src=""static/images/cards/stack_of_red_moons.svg"" width=""175px"" height=""250px""></img></td>
    <td width=300 height=300><img src=""static/images/cards/stack_of_red_stars.svg"" width=""175px"" height=""250px""></img></td>
  </tr>
  <tr height=200>
    <td width=300><img src=""static/images/keys/w.svg"" width=""35%"" height=""75%""></img></td>
    <td width=300><img src=""static/images/keys/o.svg"" width=""35%"" height=""75%""></img></td>
  </tr>
</table>
  ",79.0,1.0,,,,,,,,,,,,,,,,,,,,,,,,,,
174,0,,html-keyboard-response,174,627203,0.0-7.5-1.5,msg4nt1j1yr,2022-09-19 17:34:18.752,62ff8aa20b2d8c0e359e9799,2,60,32,50,10,49,male,790.6999999285,,"
  <table>
  <tr height=300>
    <td width=300 height=300><img src=""static/images/cards/back_of_red_stars.svg"" width=""175px"" height=""250px""></img></td>
    <td width=300 height=300><img src=""static/images/cards/back_of_red_stars.svg"" width=""175px"" height=""250px""></img></td>
  </tr>
  <tr height=200>
    <td width=300></td>
    <td width=300><img src=""static/images/keys/m.svg"" width=""35%"" height=""75%""></img></td>
  </tr>
</table>
  ",77.0,1.0,,,,,,,,,,,,,,,,,,,,,,,,,,
175,0,,html-keyboard-response,175,628709,0.0-7.5-2.5,msg4nt1j1yr,2022-09-19 17:34:18.752,62ff8aa20b2d8c0e359e9799,2,60,32,50,10,49,male,,,"
  <table>
  <tr height=300>
    <td width=300 height=300><img src=""static/images/cards/back_of_red_stars.svg"" width=""175px"" height=""250px""></img></td>
    <td width=300 height=300><img src=""static/images/cards/4_of_red_stars.svg"" width=""175px"" height=""250px""></img></td>
  </tr>
  <tr height=200>
    <td width=300></td>
    <td width=300><img src=""static/images/keys/m.svg"" width=""35%"" height=""75%""></img></td>
  </tr>
</table>
  ",,,,,,,,,,,,,,,,,,,,,,,,,,,,
176,0,,html-keyboard-response,176,630219,0.0-7.5-3.5,msg4nt1j1yr,2022-09-19 17:34:18.752,62ff8aa20b2d8c0e359e9799,2,60,32,50,10,49,male,,,"<p style=""font-size:50px"">You Lose!
No points this round.</p>",,,,,,,,,,,,,,,,,,,,,,,,,,,,
177,0,,html-keyboard-response,177,630728,0.0-7.5-4.5,msg4nt1j1yr,2022-09-19 17:34:18.752,62ff8aa20b2d8c0e359e9799,2,60,32,50,10,49,male,,,,,,1.0,choice,5.0,B,D,red,red,moons,stars,D,B,B,red,stars,1785.1000000238,0.0,1.0,0,right,790.6999999285,4.0,0.0,0.0,,,
178,0,,html-keyboard-response,178,632574,0.0-7.6-0.6,msg4nt1j1yr,2022-09-19 17:34:18.752,62ff8aa20b2d8c0e359e9799,2,60,32,50,10,49,male,1844.1000000238,,"
  <table>
  <tr height=300>
    <td width=300 height=300><img src=""static/images/cards/stack_of_black_stars.svg"" width=""175px"" height=""250px""></img></td>
    <td width=300 height=300><img src=""static/images/cards/stack_of_red_moons.svg"" width=""175px"" height=""250px""></img></td>
  </tr>
  <tr height=200>
    <td width=300><img src=""static/images/keys/w.svg"" width=""35%"" height=""75%""></img></td>
    <td width=300><img src=""static/images/keys/o.svg"" width=""35%"" height=""75%""></img></td>
  </tr>
</table>
  ",87.0,1.0,,,,,,,,,,,,,,,,,,,,,,,,,,
179,0,,html-keyboard-response,179,634005,0.0-7.6-1.6,msg4nt1j1yr,2022-09-19 17:34:18.752,62ff8aa20b2d8c0e359e9799,2,60,32,50,10,49,male,928.8999999762,,"
  <table>
  <tr height=300>
    <td width=300 height=300><img src=""static/images/cards/back_of_black_stars.svg"" width=""175px"" height=""250px""></img></td>
    <td width=300 height=300><img src=""static/images/cards/back_of_black_stars.svg"" width=""175px"" height=""250px""></img></td>
  </tr>
  <tr height=200>
    <td width=300><img src=""static/images/keys/z.svg"" width=""35%"" height=""75%""></img></td>
    <td width=300><img src=""static/images/keys/m.svg"" width=""35%"" height=""75%""></img></td>
  </tr>
</table>
  ",90.0,1.0,,,,,,,,,,,,,,,,,,,,,,,,,,
180,0,,html-keyboard-response,180,635507,0.0-7.6-2.6,msg4nt1j1yr,2022-09-19 17:34:18.752,62ff8aa20b2d8c0e359e9799,2,60,32,50,10,49,male,,,"
  <table>
  <tr height=300>
    <td width=300 height=300><img src=""static/images/cards/3_of_black_stars.svg"" width=""175px"" height=""250px""></img></td>
    <td width=300 height=300><img src=""static/images/cards/back_of_black_stars.svg"" width=""175px"" height=""250px""></img></td>
  </tr>
  <tr height=200>
    <td width=300><img src=""static/images/keys/z.svg"" width=""35%"" height=""75%""></img></td>
    <td width=300><img src=""static/images/keys/m.svg"" width=""35%"" height=""75%""></img></td>
  </tr>
</table>
  ",,,,,,,,,,,,,,,,,,,,,,,,,,,,
181,0,,html-keyboard-response,181,637017,0.0-7.6-3.6,msg4nt1j1yr,2022-09-19 17:34:18.752,62ff8aa20b2d8c0e359e9799,2,60,32,50,10,49,male,,,"<p style=""font-size:50px"">You Lose!
No points this round.</p>",,,,,,,,,,,,,,,,,,,,,,,,,,,,
182,0,,html-keyboard-response,182,637527,0.0-7.6-4.6,msg4nt1j1yr,2022-09-19 17:34:18.752,62ff8aa20b2d8c0e359e9799,2,60,32,50,10,49,male,,,,,,1.0,choice,6.0,A,D,black,red,stars,moons,A,D,A,black,stars,1844.1000000238,1.0,1.0,NA,left,928.8999999762,3.0,0.0,0.0,,,
183,0,,html-keyboard-response,183,638870,0.0-7.7-0.7,msg4nt1j1yr,2022-09-19 17:34:18.752,62ff8aa20b2d8c0e359e9799,2,60,32,50,10,49,male,1342.0,,"
  <table>
  <tr height=300>
    <td width=300 height=300><img src=""static/images/cards/stack_of_red_moons.svg"" width=""175px"" height=""250px""></img></td>
    <td width=300 height=300><img src=""static/images/cards/stack_of_red_stars.svg"" width=""175px"" height=""250px""></img></td>
  </tr>
  <tr height=200>
    <td width=300><img src=""static/images/keys/w.svg"" width=""35%"" height=""75%""></img></td>
    <td width=300><img src=""static/images/keys/o.svg"" width=""35%"" height=""75%""></img></td>
  </tr>
</table>
  ",79.0,1.0,,,,,,,,,,,,,,,,,,,,,,,,,,
184,0,,html-keyboard-response,184,640497,0.0-7.7-1.7,msg4nt1j1yr,2022-09-19 17:34:18.752,62ff8aa20b2d8c0e359e9799,2,60,32,50,10,49,male,1122.7999999523,,"
  <table>
  <tr height=300>
    <td width=300 height=300><img src=""static/images/cards/back_of_red_stars.svg"" width=""175px"" height=""250px""></img></td>
    <td width=300 height=300><img src=""static/images/cards/back_of_red_stars.svg"" width=""175px"" height=""250px""></img></td>
  </tr>
  <tr height=200>
    <td width=300><img src=""static/images/keys/z.svg"" width=""35%"" height=""75%""></img></td>
    <td width=300></td>
  </tr>
</table>
  ",90.0,1.0,,,,,,,,,,,,,,,,,,,,,,,,,,
185,0,,html-keyboard-response,185,642003,0.0-7.7-2.7,msg4nt1j1yr,2022-09-19 17:34:18.752,62ff8aa20b2d8c0e359e9799,2,60,32,50,10,49,male,,,"
  <table>
  <tr height=300>
    <td width=300 height=300><img src=""static/images/cards/3_of_red_stars.svg"" width=""175px"" height=""250px""></img></td>
    <td width=300 height=300><img src=""static/images/cards/back_of_red_stars.svg"" width=""175px"" height=""250px""></img></td>
  </tr>
  <tr height=200>
    <td width=300><img src=""static/images/keys/z.svg"" width=""35%"" height=""75%""></img></td>
    <td width=300></td>
  </tr>
</table>
  ",,,,,,,,,,,,,,,,,,,,,,,,,,,,
186,0,,html-keyboard-response,186,643512,0.0-7.7-3.7,msg4nt1j1yr,2022-09-19 17:34:18.752,62ff8aa20b2d8c0e359e9799,2,60,32,50,10,49,male,,,"<p style=""font-size:50px"">You Lose!
No points this round.</p>",,,,,,,,,,,,,,,,,,,,,,,,,,,,
187,0,,html-keyboard-response,187,644023,0.0-7.7-4.7,msg4nt1j1yr,2022-09-19 17:34:18.752,62ff8aa20b2d8c0e359e9799,2,60,32,50,10,49,male,,,,,,1.0,choice,7.0,B,D,red,red,moons,stars,D,B,B,red,stars,1342.0,0.0,1.0,1,left,1122.7999999523,3.0,0.0,0.0,,,
188,0,,html-keyboard-response,188,645452,0.0-7.8-0.8,msg4nt1j1yr,2022-09-19 17:34:18.752,62ff8aa20b2d8c0e359e9799,2,60,32,50,10,49,male,1427.7000000477,,"
  <table>
  <tr height=300>
    <td width=300 height=300><img src=""static/images/cards/stack_of_black_stars.svg"" width=""175px"" height=""250px""></img></td>
    <td width=300 height=300><img src=""static/images/cards/stack_of_black_moons.svg"" width=""175px"" height=""250px""></img></td>
  </tr>
  <tr height=200>
    <td width=300><img src=""static/images/keys/w.svg"" width=""35%"" height=""75%""></img></td>
    <td width=300><img src=""static/images/keys/o.svg"" width=""35%"" height=""75%""></img></td>
  </tr>
</table>
  ",87.0,1.0,,,,,,,,,,,,,,,,,,,,,,,,,,
189,0,,html-keyboard-response,189,646958,0.0-7.8-1.8,msg4nt1j1yr,2022-09-19 17:34:18.752,62ff8aa20b2d8c0e359e9799,2,60,32,50,10,49,male,1000.7999999523,,"
  <table>
  <tr height=300>
    <td width=300 height=300><img src=""static/images/cards/back_of_black_stars.svg"" width=""175px"" height=""250px""></img></td>
    <td width=300 height=300><img src=""static/images/cards/back_of_black_stars.svg"" width=""175px"" height=""250px""></img></td>
  </tr>
  <tr height=200>
    <td width=300><img src=""static/images/keys/z.svg"" width=""35%"" height=""75%""></img></td>
    <td width=300><img src=""static/images/keys/m.svg"" width=""35%"" height=""75%""></img></td>
  </tr>
</table>
  ",77.0,1.0,,,,,,,,,,,,,,,,,,,,,,,,,,
190,0,,html-keyboard-response,190,648464,0.0-7.8-2.8,msg4nt1j1yr,2022-09-19 17:34:18.752,62ff8aa20b2d8c0e359e9799,2,60,32,50,10,49,male,,,"
  <table>
  <tr height=300>
    <td width=300 height=300><img src=""static/images/cards/back_of_black_stars.svg"" width=""175px"" height=""250px""></img></td>
    <td width=300 height=300><img src=""static/images/cards/6_of_black_stars.svg"" width=""175px"" height=""250px""></img></td>
  </tr>
  <tr height=200>
    <td width=300><img src=""static/images/keys/z.svg"" width=""35%"" height=""75%""></img></td>
    <td width=300><img src=""static/images/keys/m.svg"" width=""35%"" height=""75%""></img></td>
  </tr>
</table>
  ",,,,,,,,,,,,,,,,,,,,,,,,,,,,
191,0,,html-keyboard-response,191,649973,0.0-7.8-3.8,msg4nt1j1yr,2022-09-19 17:34:18.752,62ff8aa20b2d8c0e359e9799,2,60,32,50,10,49,male,,,"<p style=""font-size:50px"">You win!
+10 points this round!</p>",,,,,,,,,,,,,,,,,,,,,,,,,,,,
192,0,,html-keyboard-response,192,650483,0.0-7.8-4.8,msg4nt1j1yr,2022-09-19 17:34:18.752,62ff8aa20b2d8c0e359e9799,2,60,32,50,10,49,male,,,,,,1.0,choice,8.0,A,C,black,black,stars,moons,A,C,A,black,stars,1427.7000000477,1.0,1.0,NA,right,1000.7999999523,6.0,1.0,1.0,,,
193,0,,html-keyboard-response,193,651887,0.0-7.9-0.9,msg4nt1j1yr,2022-09-19 17:34:18.752,62ff8aa20b2d8c0e359e9799,2,60,32,50,10,49,male,1402.6000000238,,"
  <table>
  <tr height=300>
    <td width=300 height=300><img src=""static/images/cards/stack_of_black_bolts.svg"" width=""175px"" height=""250px""></img></td>
    <td width=300 height=300><img src=""static/images/cards/stack_of_red_moons.svg"" width=""175px"" height=""250px""></img></td>
  </tr>
  <tr height=200>
    <td width=300><img src=""static/images/keys/w.svg"" width=""35%"" height=""75%""></img></td>
    <td width=300><img src=""static/images/keys/o.svg"" width=""35%"" height=""75%""></img></td>
  </tr>
</table>
  ",87.0,1.0,,,,,,,,,,,,,,,,,,,,,,,,,,
194,0,,html-keyboard-response,194,653081,0.0-7.9-1.9,msg4nt1j1yr,2022-09-19 17:34:18.752,62ff8aa20b2d8c0e359e9799,2,60,32,50,10,49,male,691.5,,"
  <table>
  <tr height=300>
    <td width=300 height=300><img src=""static/images/cards/back_of_black_bolts.svg"" width=""175px"" height=""250px""></img></td>
    <td width=300 height=300><img src=""static/images/cards/back_of_black_bolts.svg"" width=""175px"" height=""250px""></img></td>
  </tr>
  <tr height=200>
    <td width=300></td>
    <td width=300><img src=""static/images/keys/m.svg"" width=""35%"" height=""75%""></img></td>
  </tr>
</table>
  ",77.0,1.0,,,,,,,,,,,,,,,,,,,,,,,,,,
195,0,,html-keyboard-response,195,654583,0.0-7.9-2.9,msg4nt1j1yr,2022-09-19 17:34:18.752,62ff8aa20b2d8c0e359e9799,2,60,32,50,10,49,male,,,"
  <table>
  <tr height=300>
    <td width=300 height=300><img src=""static/images/cards/back_of_black_bolts.svg"" width=""175px"" height=""250px""></img></td>
    <td width=300 height=300><img src=""static/images/cards/10_of_black_bolts.svg"" width=""175px"" height=""250px""></img></td>
  </tr>
  <tr height=200>
    <td width=300></td>
    <td width=300><img src=""static/images/keys/m.svg"" width=""35%"" height=""75%""></img></td>
  </tr>
</table>
  ",,,,,,,,,,,,,,,,,,,,,,,,,,,,
196,0,,html-keyboard-response,196,656092,0.0-7.9-3.9,msg4nt1j1yr,2022-09-19 17:34:18.752,62ff8aa20b2d8c0e359e9799,2,60,32,50,10,49,male,,,"<p style=""font-size:50px"">You win!
+10 points this round!</p>",,,,,,,,,,,,,,,,,,,,,,,,,,,,
197,0,,html-keyboard-response,197,656602,0.0-7.9-4.9,msg4nt1j1yr,2022-09-19 17:34:18.752,62ff8aa20b2d8c0e359e9799,2,60,32,50,10,49,male,,,,,,1.0,choice,9.0,D,Xnc,black,red,bolts,moons,Xnc,D,Xnc,black,bolts,1402.6000000238,0.0,0.0,0,right,691.5,10.0,1.0,1.0,,,
198,0,,html-keyboard-response,198,657950,0.0-7.10-0.10,msg4nt1j1yr,2022-09-19 17:34:18.752,62ff8aa20b2d8c0e359e9799,2,60,32,50,10,49,male,1346.2999999523,,"
  <table>
  <tr height=300>
    <td width=300 height=300><img src=""static/images/cards/stack_of_red_moons.svg"" width=""175px"" height=""250px""></img></td>
    <td width=300 height=300><img src=""static/images/cards/stack_of_black_stars.svg"" width=""175px"" height=""250px""></img></td>
  </tr>
  <tr height=200>
    <td width=300><img src=""static/images/keys/w.svg"" width=""35%"" height=""75%""></img></td>
    <td width=300><img src=""static/images/keys/o.svg"" width=""35%"" height=""75%""></img></td>
  </tr>
</table>
  ",79.0,1.0,,,,,,,,,,,,,,,,,,,,,,,,,,
199,0,,html-keyboard-response,199,659136,0.0-7.10-1.10,msg4nt1j1yr,2022-09-19 17:34:18.752,62ff8aa20b2d8c0e359e9799,2,60,32,50,10,49,male,680.0,,"
  <table>
  <tr height=300>
    <td width=300 height=300><img src=""static/images/cards/back_of_black_stars.svg"" width=""175px"" height=""250px""></img></td>
    <td width=300 height=300><img src=""static/images/cards/back_of_black_stars.svg"" width=""175px"" height=""250px""></img></td>
  </tr>
  <tr height=200>
    <td width=300><img src=""static/images/keys/z.svg"" width=""35%"" height=""75%""></img></td>
    <td width=300><img src=""static/images/keys/m.svg"" width=""35%"" height=""75%""></img></td>
  </tr>
</table>
  ",77.0,1.0,,,,,,,,,,,,,,,,,,,,,,,,,,
200,0,,html-keyboard-response,200,660638,0.0-7.10-2.10,msg4nt1j1yr,2022-09-19 17:34:18.752,62ff8aa20b2d8c0e359e9799,2,60,32,50,10,49,male,,,"
  <table>
  <tr height=300>
    <td width=300 height=300><img src=""static/images/cards/back_of_black_stars.svg"" width=""175px"" height=""250px""></img></td>
    <td width=300 height=300><img src=""static/images/cards/9_of_black_stars.svg"" width=""175px"" height=""250px""></img></td>
  </tr>
  <tr height=200>
    <td width=300><img src=""static/images/keys/z.svg"" width=""35%"" height=""75%""></img></td>
    <td width=300><img src=""static/images/keys/m.svg"" width=""35%"" height=""75%""></img></td>
  </tr>
</table>
  ",,,,,,,,,,,,,,,,,,,,,,,,,,,,
201,0,,html-keyboard-response,201,662147,0.0-7.10-3.10,msg4nt1j1yr,2022-09-19 17:34:18.752,62ff8aa20b2d8c0e359e9799,2,60,32,50,10,49,male,,,"<p style=""font-size:50px"">You win!
+10 points this round!</p>",,,,,,,,,,,,,,,,,,,,,,,,,,,,
202,0,,html-keyboard-response,202,662656,0.0-7.10-4.10,msg4nt1j1yr,2022-09-19 17:34:18.752,62ff8aa20b2d8c0e359e9799,2,60,32,50,10,49,male,,,,,,1.0,choice,10.0,A,D,red,black,moons,stars,D,A,A,black,stars,1346.2999999523,1.0,1.0,NA,right,680.0,9.0,1.0,1.0,,,
203,0,,html-keyboard-response,203,665495,0.0-7.11-0.11,msg4nt1j1yr,2022-09-19 17:34:18.752,62ff8aa20b2d8c0e359e9799,2,60,32,50,10,49,male,2836.5,,"
  <table>
  <tr height=300>
    <td width=300 height=300><img src=""static/images/cards/stack_of_black_moons.svg"" width=""175px"" height=""250px""></img></td>
    <td width=300 height=300><img src=""static/images/cards/stack_of_red_moons.svg"" width=""175px"" height=""250px""></img></td>
  </tr>
  <tr height=200>
    <td width=300><img src=""static/images/keys/w.svg"" width=""35%"" height=""75%""></img></td>
    <td width=300><img src=""static/images/keys/o.svg"" width=""35%"" height=""75%""></img></td>
  </tr>
</table>
  ",87.0,1.0,,,,,,,,,,,,,,,,,,,,,,,,,,
204,0,,html-keyboard-response,204,666760,0.0-7.11-1.11,msg4nt1j1yr,2022-09-19 17:34:18.752,62ff8aa20b2d8c0e359e9799,2,60,32,50,10,49,male,763.8999999762,,"
  <table>
  <tr height=300>
    <td width=300 height=300><img src=""static/images/cards/back_of_black_moons.svg"" width=""175px"" height=""250px""></img></td>
    <td width=300 height=300><img src=""static/images/cards/back_of_black_moons.svg"" width=""175px"" height=""250px""></img></td>
  </tr>
  <tr height=200>
    <td width=300><img src=""static/images/keys/z.svg"" width=""35%"" height=""75%""></img></td>
    <td width=300><img src=""static/images/keys/m.svg"" width=""35%"" height=""75%""></img></td>
  </tr>
</table>
  ",77.0,1.0,,,,,,,,,,,,,,,,,,,,,,,,,,
205,0,,html-keyboard-response,205,668265,0.0-7.11-2.11,msg4nt1j1yr,2022-09-19 17:34:18.752,62ff8aa20b2d8c0e359e9799,2,60,32,50,10,49,male,,,"
  <table>
  <tr height=300>
    <td width=300 height=300><img src=""static/images/cards/back_of_black_moons.svg"" width=""175px"" height=""250px""></img></td>
    <td width=300 height=300><img src=""static/images/cards/1_of_black_moons.svg"" width=""175px"" height=""250px""></img></td>
  </tr>
  <tr height=200>
    <td width=300><img src=""static/images/keys/z.svg"" width=""35%"" height=""75%""></img></td>
    <td width=300><img src=""static/images/keys/m.svg"" width=""35%"" height=""75%""></img></td>
  </tr>
</table>
  ",,,,,,,,,,,,,,,,,,,,,,,,,,,,
206,0,,html-keyboard-response,206,669774,0.0-7.11-3.11,msg4nt1j1yr,2022-09-19 17:34:18.752,62ff8aa20b2d8c0e359e9799,2,60,32,50,10,49,male,,,"<p style=""font-size:50px"">You Lose!
No points this round.</p>",,,,,,,,,,,,,,,,,,,,,,,,,,,,
207,0,,html-keyboard-response,207,670284,0.0-7.11-4.11,msg4nt1j1yr,2022-09-19 17:34:18.752,62ff8aa20b2d8c0e359e9799,2,60,32,50,10,49,male,,,,,,1.0,choice,11.0,C,D,black,red,moons,moons,C,D,C,black,moons,2836.5,1.0,0.0,NA,right,763.8999999762,1.0,0.0,0.0,,,
208,0,,html-keyboard-response,208,671935,0.0-7.12-0.12,msg4nt1j1yr,2022-09-19 17:34:18.752,62ff8aa20b2d8c0e359e9799,2,60,32,50,10,49,male,1649.5,,"
  <table>
  <tr height=300>
    <td width=300 height=300><img src=""static/images/cards/stack_of_black_moons.svg"" width=""175px"" height=""250px""></img></td>
    <td width=300 height=300><img src=""static/images/cards/stack_of_red_stars.svg"" width=""175px"" height=""250px""></img></td>
  </tr>
  <tr height=200>
    <td width=300><img src=""static/images/keys/w.svg"" width=""35%"" height=""75%""></img></td>
    <td width=300><img src=""static/images/keys/o.svg"" width=""35%"" height=""75%""></img></td>
  </tr>
</table>
  ",79.0,1.0,,,,,,,,,,,,,,,,,,,,,,,,,,
209,0,,html-keyboard-response,209,673043,0.0-7.12-1.12,msg4nt1j1yr,2022-09-19 17:34:18.752,62ff8aa20b2d8c0e359e9799,2,60,32,50,10,49,male,603.1000000238,,"
  <table>
  <tr height=300>
    <td width=300 height=300><img src=""static/images/cards/back_of_red_stars.svg"" width=""175px"" height=""250px""></img></td>
    <td width=300 height=300><img src=""static/images/cards/back_of_red_stars.svg"" width=""175px"" height=""250px""></img></td>
  </tr>
  <tr height=200>
    <td width=300></td>
    <td width=300><img src=""static/images/keys/m.svg"" width=""35%"" height=""75%""></img></td>
  </tr>
</table>
  ",77.0,1.0,,,,,,,,,,,,,,,,,,,,,,,,,,
210,0,,html-keyboard-response,210,674546,0.0-7.12-2.12,msg4nt1j1yr,2022-09-19 17:34:18.752,62ff8aa20b2d8c0e359e9799,2,60,32,50,10,49,male,,,"
  <table>
  <tr height=300>
    <td width=300 height=300><img src=""static/images/cards/back_of_red_stars.svg"" width=""175px"" height=""250px""></img></td>
    <td width=300 height=300><img src=""static/images/cards/9_of_red_stars.svg"" width=""175px"" height=""250px""></img></td>
  </tr>
  <tr height=200>
    <td width=300></td>
    <td width=300><img src=""static/images/keys/m.svg"" width=""35%"" height=""75%""></img></td>
  </tr>
</table>
  ",,,,,,,,,,,,,,,,,,,,,,,,,,,,
211,0,,html-keyboard-response,211,676055,0.0-7.12-3.12,msg4nt1j1yr,2022-09-19 17:34:18.752,62ff8aa20b2d8c0e359e9799,2,60,32,50,10,49,male,,,"<p style=""font-size:50px"">You win!
+10 points this round!</p>",,,,,,,,,,,,,,,,,,,,,,,,,,,,
212,0,,html-keyboard-response,212,676565,0.0-7.12-4.12,msg4nt1j1yr,2022-09-19 17:34:18.752,62ff8aa20b2d8c0e359e9799,2,60,32,50,10,49,male,,,,,,1.0,choice,12.0,B,C,black,red,moons,stars,C,B,B,red,stars,1649.5,0.0,1.0,0,right,603.1000000238,9.0,1.0,1.0,,,
213,0,,html-keyboard-response,213,677660,0.0-7.13-0.13,msg4nt1j1yr,2022-09-19 17:34:18.752,62ff8aa20b2d8c0e359e9799,2,60,32,50,10,49,male,1092.8999999762,,"
  <table>
  <tr height=300>
    <td width=300 height=300><img src=""static/images/cards/stack_of_black_bolts.svg"" width=""175px"" height=""250px""></img></td>
    <td width=300 height=300><img src=""static/images/cards/stack_of_red_stars.svg"" width=""175px"" height=""250px""></img></td>
  </tr>
  <tr height=200>
    <td width=300><img src=""static/images/keys/w.svg"" width=""35%"" height=""75%""></img></td>
    <td width=300><img src=""static/images/keys/o.svg"" width=""35%"" height=""75%""></img></td>
  </tr>
</table>
  ",87.0,1.0,,,,,,,,,,,,,,,,,,,,,,,,,,
214,0,,html-keyboard-response,214,679180,0.0-7.13-1.13,msg4nt1j1yr,2022-09-19 17:34:18.752,62ff8aa20b2d8c0e359e9799,2,60,32,50,10,49,male,1017.0,,"
  <table>
  <tr height=300>
    <td width=300 height=300><img src=""static/images/cards/back_of_black_bolts.svg"" width=""175px"" height=""250px""></img></td>
    <td width=300 height=300><img src=""static/images/cards/back_of_black_bolts.svg"" width=""175px"" height=""250px""></img></td>
  </tr>
  <tr height=200>
    <td width=300><img src=""static/images/keys/z.svg"" width=""35%"" height=""75%""></img></td>
    <td width=300></td>
  </tr>
</table>
  ",90.0,2.0,,,,,,,,,,,,,,,,,,,,,,,,,,
215,0,,html-keyboard-response,215,680682,0.0-7.13-2.13,msg4nt1j1yr,2022-09-19 17:34:18.752,62ff8aa20b2d8c0e359e9799,2,60,32,50,10,49,male,,,"
  <table>
  <tr height=300>
    <td width=300 height=300><img src=""static/images/cards/7_of_black_bolts.svg"" width=""175px"" height=""250px""></img></td>
    <td width=300 height=300><img src=""static/images/cards/back_of_black_bolts.svg"" width=""175px"" height=""250px""></img></td>
  </tr>
  <tr height=200>
    <td width=300><img src=""static/images/keys/z.svg"" width=""35%"" height=""75%""></img></td>
    <td width=300></td>
  </tr>
</table>
  ",,,,,,,,,,,,,,,,,,,,,,,,,,,,
216,0,,html-keyboard-response,216,682191,0.0-7.13-3.13,msg4nt1j1yr,2022-09-19 17:34:18.752,62ff8aa20b2d8c0e359e9799,2,60,32,50,10,49,male,,,"<p style=""font-size:50px"">You win!
+10 points this round!</p>",,,,,,,,,,,,,,,,,,,,,,,,,,,,
217,0,,html-keyboard-response,217,682701,0.0-7.13-4.13,msg4nt1j1yr,2022-09-19 17:34:18.752,62ff8aa20b2d8c0e359e9799,2,60,32,50,10,49,male,,,,,,1.0,choice,13.0,B,Xnc,black,red,bolts,stars,Xnc,B,Xnc,black,bolts,1092.8999999762,0.0,0.0,1,left,1017.0,7.0,1.0,1.0,,,
218,0,,html-keyboard-response,218,684278,0.0-7.14-0.14,msg4nt1j1yr,2022-09-19 17:34:18.752,62ff8aa20b2d8c0e359e9799,2,60,32,50,10,49,male,1576.1999999285,,"
  <table>
  <tr height=300>
    <td width=300 height=300><img src=""static/images/cards/stack_of_black_stars.svg"" width=""175px"" height=""250px""></img></td>
    <td width=300 height=300><img src=""static/images/cards/stack_of_red_stars.svg"" width=""175px"" height=""250px""></img></td>
  </tr>
  <tr height=200>
    <td width=300><img src=""static/images/keys/w.svg"" width=""35%"" height=""75%""></img></td>
    <td width=300><img src=""static/images/keys/o.svg"" width=""35%"" height=""75%""></img></td>
  </tr>
</table>
  ",87.0,1.0,,,,,,,,,,,,,,,,,,,,,,,,,,
219,0,,html-keyboard-response,219,686340,0.0-7.14-1.14,msg4nt1j1yr,2022-09-19 17:34:18.752,62ff8aa20b2d8c0e359e9799,2,60,32,50,10,49,male,1558.6000000238,,"
  <table>
  <tr height=300>
    <td width=300 height=300><img src=""static/images/cards/back_of_black_stars.svg"" width=""175px"" height=""250px""></img></td>
    <td width=300 height=300><img src=""static/images/cards/back_of_black_stars.svg"" width=""175px"" height=""250px""></img></td>
  </tr>
  <tr height=200>
    <td width=300><img src=""static/images/keys/z.svg"" width=""35%"" height=""75%""></img></td>
    <td width=300><img src=""static/images/keys/m.svg"" width=""35%"" height=""75%""></img></td>
  </tr>
</table>
  ",90.0,1.0,,,,,,,,,,,,,,,,,,,,,,,,,,
220,0,,html-keyboard-response,220,687845,0.0-7.14-2.14,msg4nt1j1yr,2022-09-19 17:34:18.752,62ff8aa20b2d8c0e359e9799,2,60,32,50,10,49,male,,,"
  <table>
  <tr height=300>
    <td width=300 height=300><img src=""static/images/cards/3_of_black_stars.svg"" width=""175px"" height=""250px""></img></td>
    <td width=300 height=300><img src=""static/images/cards/back_of_black_stars.svg"" width=""175px"" height=""250px""></img></td>
  </tr>
  <tr height=200>
    <td width=300><img src=""static/images/keys/z.svg"" width=""35%"" height=""75%""></img></td>
    <td width=300><img src=""static/images/keys/m.svg"" width=""35%"" height=""75%""></img></td>
  </tr>
</table>
  ",,,,,,,,,,,,,,,,,,,,,,,,,,,,
221,0,,html-keyboard-response,221,689355,0.0-7.14-3.14,msg4nt1j1yr,2022-09-19 17:34:18.752,62ff8aa20b2d8c0e359e9799,2,60,32,50,10,49,male,,,"<p style=""font-size:50px"">You Lose!
No points this round.</p>",,,,,,,,,,,,,,,,,,,,,,,,,,,,
222,0,,html-keyboard-response,222,689865,0.0-7.14-4.14,msg4nt1j1yr,2022-09-19 17:34:18.752,62ff8aa20b2d8c0e359e9799,2,60,32,50,10,49,male,,,,,,1.0,choice,14.0,A,B,black,red,stars,stars,A,B,A,black,stars,1576.1999999285,1.0,1.0,NA,left,1558.6000000238,3.0,0.0,0.0,,,
223,0,,html-keyboard-response,223,691296,0.0-7.15-0.15,msg4nt1j1yr,2022-09-19 17:34:18.752,62ff8aa20b2d8c0e359e9799,2,60,32,50,10,49,male,1429.8999999762,,"
  <table>
  <tr height=300>
    <td width=300 height=300><img src=""static/images/cards/stack_of_black_moons.svg"" width=""175px"" height=""250px""></img></td>
    <td width=300 height=300><img src=""static/images/cards/stack_of_red_stars.svg"" width=""175px"" height=""250px""></img></td>
  </tr>
  <tr height=200>
    <td width=300><img src=""static/images/keys/w.svg"" width=""35%"" height=""75%""></img></td>
    <td width=300><img src=""static/images/keys/o.svg"" width=""35%"" height=""75%""></img></td>
  </tr>
</table>
  ",79.0,1.0,,,,,,,,,,,,,,,,,,,,,,,,,,
224,0,,html-keyboard-response,224,692866,0.0-7.15-1.15,msg4nt1j1yr,2022-09-19 17:34:18.752,62ff8aa20b2d8c0e359e9799,2,60,32,50,10,49,male,1066.6000000238,,"
  <table>
  <tr height=300>
    <td width=300 height=300><img src=""static/images/cards/back_of_red_stars.svg"" width=""175px"" height=""250px""></img></td>
    <td width=300 height=300><img src=""static/images/cards/back_of_red_stars.svg"" width=""175px"" height=""250px""></img></td>
  </tr>
  <tr height=200>
    <td width=300><img src=""static/images/keys/z.svg"" width=""35%"" height=""75%""></img></td>
    <td width=300></td>
  </tr>
</table>
  ",90.0,1.0,,,,,,,,,,,,,,,,,,,,,,,,,,
225,0,,html-keyboard-response,225,694372,0.0-7.15-2.15,msg4nt1j1yr,2022-09-19 17:34:18.752,62ff8aa20b2d8c0e359e9799,2,60,32,50,10,49,male,,,"
  <table>
  <tr height=300>
    <td width=300 height=300><img src=""static/images/cards/6_of_red_stars.svg"" width=""175px"" height=""250px""></img></td>
    <td width=300 height=300><img src=""static/images/cards/back_of_red_stars.svg"" width=""175px"" height=""250px""></img></td>
  </tr>
  <tr height=200>
    <td width=300><img src=""static/images/keys/z.svg"" width=""35%"" height=""75%""></img></td>
    <td width=300></td>
  </tr>
</table>
  ",,,,,,,,,,,,,,,,,,,,,,,,,,,,
226,0,,html-keyboard-response,226,695879,0.0-7.15-3.15,msg4nt1j1yr,2022-09-19 17:34:18.752,62ff8aa20b2d8c0e359e9799,2,60,32,50,10,49,male,,,"<p style=""font-size:50px"">You win!
+10 points this round!</p>",,,,,,,,,,,,,,,,,,,,,,,,,,,,
227,0,,html-keyboard-response,227,696389,0.0-7.15-4.15,msg4nt1j1yr,2022-09-19 17:34:18.752,62ff8aa20b2d8c0e359e9799,2,60,32,50,10,49,male,,,,,,1.0,choice,15.0,B,C,black,red,moons,stars,C,B,B,red,stars,1429.8999999762,0.0,1.0,1,left,1066.6000000238,6.0,1.0,1.0,,,
228,0,,html-keyboard-response,228,698046,0.0-7.16-0.16,msg4nt1j1yr,2022-09-19 17:34:18.752,62ff8aa20b2d8c0e359e9799,2,60,32,50,10,49,male,1655.3000000715,,"
  <table>
  <tr height=300>
    <td width=300 height=300><img src=""static/images/cards/stack_of_black_moons.svg"" width=""175px"" height=""250px""></img></td>
    <td width=300 height=300><img src=""static/images/cards/stack_of_black_stars.svg"" width=""175px"" height=""250px""></img></td>
  </tr>
  <tr height=200>
    <td width=300><img src=""static/images/keys/w.svg"" width=""35%"" height=""75%""></img></td>
    <td width=300><img src=""static/images/keys/o.svg"" width=""35%"" height=""75%""></img></td>
  </tr>
</table>
  ",79.0,1.0,,,,,,,,,,,,,,,,,,,,,,,,,,
229,0,,html-keyboard-response,229,699016,0.0-7.16-1.16,msg4nt1j1yr,2022-09-19 17:34:18.752,62ff8aa20b2d8c0e359e9799,2,60,32,50,10,49,male,465.5999999046,,"
  <table>
  <tr height=300>
    <td width=300 height=300><img src=""static/images/cards/back_of_black_stars.svg"" width=""175px"" height=""250px""></img></td>
    <td width=300 height=300><img src=""static/images/cards/back_of_black_stars.svg"" width=""175px"" height=""250px""></img></td>
  </tr>
  <tr height=200>
    <td width=300><img src=""static/images/keys/z.svg"" width=""35%"" height=""75%""></img></td>
    <td width=300><img src=""static/images/keys/m.svg"" width=""35%"" height=""75%""></img></td>
  </tr>
</table>
  ",77.0,1.0,,,,,,,,,,,,,,,,,,,,,,,,,,
230,0,,html-keyboard-response,230,700519,0.0-7.16-2.16,msg4nt1j1yr,2022-09-19 17:34:18.752,62ff8aa20b2d8c0e359e9799,2,60,32,50,10,49,male,,,"
  <table>
  <tr height=300>
    <td width=300 height=300><img src=""static/images/cards/back_of_black_stars.svg"" width=""175px"" height=""250px""></img></td>
    <td width=300 height=300><img src=""static/images/cards/1_of_black_stars.svg"" width=""175px"" height=""250px""></img></td>
  </tr>
  <tr height=200>
    <td width=300><img src=""static/images/keys/z.svg"" width=""35%"" height=""75%""></img></td>
    <td width=300><img src=""static/images/keys/m.svg"" width=""35%"" height=""75%""></img></td>
  </tr>
</table>
  ",,,,,,,,,,,,,,,,,,,,,,,,,,,,
231,0,,html-keyboard-response,231,702027,0.0-7.16-3.16,msg4nt1j1yr,2022-09-19 17:34:18.752,62ff8aa20b2d8c0e359e9799,2,60,32,50,10,49,male,,,"<p style=""font-size:50px"">You Lose!
No points this round.</p>",,,,,,,,,,,,,,,,,,,,,,,,,,,,
232,0,,html-keyboard-response,232,702537,0.0-7.16-4.16,msg4nt1j1yr,2022-09-19 17:34:18.752,62ff8aa20b2d8c0e359e9799,2,60,32,50,10,49,male,,,,,,1.0,choice,16.0,A,C,black,black,moons,stars,C,A,A,black,stars,1655.3000000715,1.0,1.0,NA,right,465.5999999046,1.0,0.0,0.0,,,
233,0,,html-keyboard-response,233,703601,0.0-7.17-0.17,msg4nt1j1yr,2022-09-19 17:34:18.752,62ff8aa20b2d8c0e359e9799,2,60,32,50,10,49,male,1063.0,,"
  <table>
  <tr height=300>
    <td width=300 height=300><img src=""static/images/cards/stack_of_black_moons.svg"" width=""175px"" height=""250px""></img></td>
    <td width=300 height=300><img src=""static/images/cards/stack_of_red_stars.svg"" width=""175px"" height=""250px""></img></td>
  </tr>
  <tr height=200>
    <td width=300><img src=""static/images/keys/w.svg"" width=""35%"" height=""75%""></img></td>
    <td width=300><img src=""static/images/keys/o.svg"" width=""35%"" height=""75%""></img></td>
  </tr>
</table>
  ",79.0,1.0,,,,,,,,,,,,,,,,,,,,,,,,,,
234,0,,html-keyboard-response,234,704990,0.0-7.17-1.17,msg4nt1j1yr,2022-09-19 17:34:18.752,62ff8aa20b2d8c0e359e9799,2,60,32,50,10,49,male,884.0,,"
  <table>
  <tr height=300>
    <td width=300 height=300><img src=""static/images/cards/back_of_red_stars.svg"" width=""175px"" height=""250px""></img></td>
    <td width=300 height=300><img src=""static/images/cards/back_of_red_stars.svg"" width=""175px"" height=""250px""></img></td>
  </tr>
  <tr height=200>
    <td width=300><img src=""static/images/keys/z.svg"" width=""35%"" height=""75%""></img></td>
    <td width=300></td>
  </tr>
</table>
  ",90.0,1.0,,,,,,,,,,,,,,,,,,,,,,,,,,
235,0,,html-keyboard-response,235,706497,0.0-7.17-2.17,msg4nt1j1yr,2022-09-19 17:34:18.752,62ff8aa20b2d8c0e359e9799,2,60,32,50,10,49,male,,,"
  <table>
  <tr height=300>
    <td width=300 height=300><img src=""static/images/cards/1_of_red_stars.svg"" width=""175px"" height=""250px""></img></td>
    <td width=300 height=300><img src=""static/images/cards/back_of_red_stars.svg"" width=""175px"" height=""250px""></img></td>
  </tr>
  <tr height=200>
