,index,success,trial_type,trial_index,time_elapsed,internal_node_id,subject,date,prol_id,ctbl,sense_of_control_A,sense_of_control_B,sense_of_control_C,sense_of_control_D,age,gender,rt,url,stimulus,key_press,npress,is_data_trial,phase,trial,deck1,deck2,col1,col2,sym1,sym2,deck_l,deck_r,chosen_deck,chosen_col,chosen_sym,deck_rt,choose_choice,mutual_info,hidden_key,chosen_card,card_rt,player_num,win_card,outcome,mock_rating,response,responses
0,0,1.0,fullscreen,0,4668,0.0-0.0,88qa1lu7fxe,2022-09-16 18:28:08.574,5d88f010859c9e0001810e88,2,59,27,25,26,48,female,,,,,,,,,,,,,,,,,,,,,,,,,,,,,,,
1,0,,external-html,1,7386,0.0-1.0,88qa1lu7fxe,2022-09-16 18:28:08.574,5d88f010859c9e0001810e88,2,59,27,25,26,48,female,2630.599999994,static/js/sub/consent.html,,,,,,,,,,,,,,,,,,,,,,,,,,,,,
2,0,,call-function,2,7388,0.0-2.0,88qa1lu7fxe,2022-09-16 18:28:08.574,5d88f010859c9e0001810e88,2,59,27,25,26,48,female,,,,,,,,,,,,,,,,,,,,,,,,,,,,,,,
3,0,,image-keyboard-response,3,345299,0.0-3.0-0.0,88qa1lu7fxe,2022-09-16 18:28:08.574,5d88f010859c9e0001810e88,2,59,27,25,26,48,female,337910.8999999762,,static/images/instructions_CB_2/Slide1.png,39.0,,,,,,,,,,,,,,,,,,,,,,,,,,,
4,0,,image-keyboard-response,4,352823,0.0-3.1-0.1,88qa1lu7fxe,2022-09-16 18:28:08.574,5d88f010859c9e0001810e88,2,59,27,25,26,48,female,7521.1999999881,,static/images/instructions_CB_2/Slide2.png,39.0,,,,,,,,,,,,,,,,,,,,,,,,,,,
5,0,,image-keyboard-response,5,356557,0.0-3.2-0.2,88qa1lu7fxe,2022-09-16 18:28:08.574,5d88f010859c9e0001810e88,2,59,27,25,26,48,female,3731.1999999881,,static/images/instructions_CB_2/Slide3.png,39.0,,,,,,,,,,,,,,,,,,,,,,,,,,,
6,0,,image-keyboard-response,6,369281,0.0-3.3-0.3,88qa1lu7fxe,2022-09-16 18:28:08.574,5d88f010859c9e0001810e88,2,59,27,25,26,48,female,12722.8999999762,,static/images/instructions_CB_2/Slide4.png,39.0,,,,,,,,,,,,,,,,,,,,,,,,,,,
7,0,,image-keyboard-response,7,388596,0.0-3.4-0.4,88qa1lu7fxe,2022-09-16 18:28:08.574,5d88f010859c9e0001810e88,2,59,27,25,26,48,female,19313.599999994,,static/images/instructions_CB_2/Slide5.png,39.0,,,,,,,,,,,,,,,,,,,,,,,,,,,
8,0,,image-keyboard-response,8,392212,0.0-3.5-0.5,88qa1lu7fxe,2022-09-16 18:28:08.574,5d88f010859c9e0001810e88,2,59,27,25,26,48,female,3614.400000006,,static/images/instructions_CB_2/Slide6.png,39.0,,,,,,,,,,,,,,,,,,,,,,,,,,,
9,0,,image-keyboard-response,9,397522,0.0-3.6-0.6,88qa1lu7fxe,2022-09-16 18:28:08.574,5d88f010859c9e0001810e88,2,59,27,25,26,48,female,5308.0,,static/images/instructions_CB_2/Slide7.png,39.0,,,,,,,,,,,,,,,,,,,,,,,,,,,
10,0,,image-keyboard-response,10,416171,0.0-3.7-0.7,88qa1lu7fxe,2022-09-16 18:28:08.574,5d88f010859c9e0001810e88,2,59,27,25,26,48,female,18647.900000006,,static/images/instructions_CB_2/Slide8.png,39.0,,,,,,,,,,,,,,,,,,,,,,,,,,,
11,0,,image-keyboard-response,11,429516,0.0-3.8-0.8,88qa1lu7fxe,2022-09-16 18:28:08.574,5d88f010859c9e0001810e88,2,59,27,25,26,48,female,13343.099999994,,static/images/instructions_CB_2/Slide9.png,39.0,,,,,,,,,,,,,,,,,,,,,,,,,,,
12,0,,image-keyboard-response,12,443323,0.0-3.9-0.9,88qa1lu7fxe,2022-09-16 18:28:08.574,5d88f010859c9e0001810e88,2,59,27,25,26,48,female,13806.099999994,,static/images/instructions_CB_2/Slide10.png,39.0,,,,,,,,,,,,,,,,,,,,,,,,,,,
13,0,,image-keyboard-response,13,453132,0.0-3.10-0.10,88qa1lu7fxe,2022-09-16 18:28:08.574,5d88f010859c9e0001810e88,2,59,27,25,26,48,female,9807.0,,static/images/instructions_CB_2/Slide11.png,39.0,,,,,,,,,,,,,,,,,,,,,,,,,,,
14,0,,image-keyboard-response,14,476319,0.0-3.11-0.11,88qa1lu7fxe,2022-09-16 18:28:08.574,5d88f010859c9e0001810e88,2,59,27,25,26,48,female,23185.0,,static/images/instructions_CB_2/Slide12.png,39.0,,,,,,,,,,,,,,,,,,,,,,,,,,,
15,0,,image-keyboard-response,15,506196,0.0-3.12-0.12,88qa1lu7fxe,2022-09-16 18:28:08.574,5d88f010859c9e0001810e88,2,59,27,25,26,48,female,29875.599999994,,static/images/instructions_CB_2/Slide13.png,39.0,,,,,,,,,,,,,,,,,,,,,,,,,,,
16,0,,image-keyboard-response,16,515904,0.0-3.13-0.13,88qa1lu7fxe,2022-09-16 18:28:08.574,5d88f010859c9e0001810e88,2,59,27,25,26,48,female,9705.7999999821,,static/images/instructions_CB_2/Slide14.png,39.0,,,,,,,,,,,,,,,,,,,,,,,,,,,
17,0,,image-keyboard-response,17,533256,0.0-3.14-0.14,88qa1lu7fxe,2022-09-16 18:28:08.574,5d88f010859c9e0001810e88,2,59,27,25,26,48,female,17350.599999994,,static/images/instructions_CB_2/Slide15.png,39.0,,,,,,,,,,,,,,,,,,,,,,,,,,,
18,0,,image-keyboard-response,18,543287,0.0-3.15-0.15,88qa1lu7fxe,2022-09-16 18:28:08.574,5d88f010859c9e0001810e88,2,59,27,25,26,48,female,10030.1000000238,,static/images/instructions_CB_2/Slide16.png,39.0,,,,,,,,,,,,,,,,,,,,,,,,,,,
19,0,,image-keyboard-response,19,555327,0.0-3.16-0.16,88qa1lu7fxe,2022-09-16 18:28:08.574,5d88f010859c9e0001810e88,2,59,27,25,26,48,female,12039.400000006,,static/images/instructions_CB_2/Slide17.png,39.0,,,,,,,,,,,,,,,,,,,,,,,,,,,
20,0,,image-keyboard-response,20,575088,0.0-3.17-0.17,88qa1lu7fxe,2022-09-16 18:28:08.574,5d88f010859c9e0001810e88,2,59,27,25,26,48,female,19760.099999994,,static/images/instructions_CB_2/Slide18.png,39.0,,,,,,,,,,,,,,,,,,,,,,,,,,,
21,0,,image-keyboard-response,21,588355,0.0-3.18-0.18,88qa1lu7fxe,2022-09-16 18:28:08.574,5d88f010859c9e0001810e88,2,59,27,25,26,48,female,13264.599999994,,static/images/instructions_CB_2/Slide19.png,39.0,,,,,,,,,,,,,,,,,,,,,,,,,,,
22,0,,html-keyboard-response,22,589858,0.0-4.0-0.0,88qa1lu7fxe,2022-09-16 18:28:08.574,5d88f010859c9e0001810e88,2,59,27,25,26,48,female,,,"<img src=""static/images/cards/stack_of_black_stars.svg"" width=""175px"" height=""250px""></img>",,,,,,,,,,,,,,,,,,,,,,,,,,,,
23,0,,html-keyboard-response,23,590774,0.0-4.0-1.0,88qa1lu7fxe,2022-09-16 18:28:08.574,5d88f010859c9e0001810e88,2,59,27,25,26,48,female,413.0,,"
  <table>
  <tr height=300>
    <td width=300 height=300><img src=""static/images/cards/back_of_black_stars.svg"" width=""175px"" height=""250px""></img></td>
    <td width=300 height=300><img src=""static/images/cards/back_of_black_stars.svg"" width=""175px"" height=""250px""></img></td>
  </tr>
  <tr height=200>
    <td width=300><img src=""static/images/keys/z.svg"" width=""35%"" height=""75%""></img></td>
    <td width=300><img src=""static/images/keys/m.svg"" width=""35%"" height=""75%""></img></td>
  </tr>
</table>
  ",77.0,1.0,,,,,,,,,,,,,,,,,,,,,,,,,,
24,0,,html-keyboard-response,24,592277,0.0-4.0-2.0,88qa1lu7fxe,2022-09-16 18:28:08.574,5d88f010859c9e0001810e88,2,59,27,25,26,48,female,,,"
  <table>
  <tr height=300>
    <td width=300 height=300><img src=""static/images/cards/back_of_black_stars.svg"" width=""175px"" height=""250px""></img></td>
    <td width=300 height=300><img src=""static/images/cards/4_of_black_stars.svg"" width=""175px"" height=""250px""></img></td>
  </tr>
  <tr height=200>
    <td width=300><img src=""static/images/keys/z.svg"" width=""35%"" height=""75%""></img></td>
    <td width=300><img src=""static/images/keys/m.svg"" width=""35%"" height=""75%""></img></td>
  </tr>
</table>
  ",,,,,,,,,,,,,,,,,,,,,,,,,,,,
25,0,,html-keyboard-response,25,593781,0.0-4.0-3.0,88qa1lu7fxe,2022-09-16 18:28:08.574,5d88f010859c9e0001810e88,2,59,27,25,26,48,female,,,"<p style=""font-size:50px"">You Lose!
No points this round.</p>",,,,,,,,,,,,,,,,,,,,,,,,,,,,
26,0,,html-keyboard-response,26,594296,0.0-4.0-4.0,88qa1lu7fxe,2022-09-16 18:28:08.574,5d88f010859c9e0001810e88,2,59,27,25,26,48,female,,,,,,1.0,learning,0.0,A,,black,,stars,,,,A,black,stars,,1.0,1.0,NA,right,413.0,4.0,0.0,0.0,,,
27,0,,html-keyboard-response,27,595804,0.0-4.1-0.1,88qa1lu7fxe,2022-09-16 18:28:08.574,5d88f010859c9e0001810e88,2,59,27,25,26,48,female,,,"<img src=""static/images/cards/stack_of_red_stars.svg"" width=""175px"" height=""250px""></img>",,,,,,,,,,,,,,,,,,,,,,,,,,,,
28,0,,html-keyboard-response,28,596793,0.0-4.1-1.1,88qa1lu7fxe,2022-09-16 18:28:08.574,5d88f010859c9e0001810e88,2,59,27,25,26,48,female,473.0,,"
  <table>
  <tr height=300>
    <td width=300 height=300><img src=""static/images/cards/back_of_red_stars.svg"" width=""175px"" height=""250px""></img></td>
    <td width=300 height=300><img src=""static/images/cards/back_of_red_stars.svg"" width=""175px"" height=""250px""></img></td>
  </tr>
  <tr height=200>
    <td width=300><img src=""static/images/keys/z.svg"" width=""35%"" height=""75%""></img></td>
    <td width=300></td>
  </tr>
</table>
  ",90.0,1.0,,,,,,,,,,,,,,,,,,,,,,,,,,
29,0,,html-keyboard-response,29,598298,0.0-4.1-2.1,88qa1lu7fxe,2022-09-16 18:28:08.574,5d88f010859c9e0001810e88,2,59,27,25,26,48,female,,,"
  <table>
  <tr height=300>
    <td width=300 height=300><img src=""static/images/cards/9_of_red_stars.svg"" width=""175px"" height=""250px""></img></td>
    <td width=300 height=300><img src=""static/images/cards/back_of_red_stars.svg"" width=""175px"" height=""250px""></img></td>
  </tr>
  <tr height=200>
    <td width=300><img src=""static/images/keys/z.svg"" width=""35%"" height=""75%""></img></td>
    <td width=300></td>
  </tr>
</table>
  ",,,,,,,,,,,,,,,,,,,,,,,,,,,,
30,0,,html-keyboard-response,30,599820,0.0-4.1-3.1,88qa1lu7fxe,2022-09-16 18:28:08.574,5d88f010859c9e0001810e88,2,59,27,25,26,48,female,,,"<p style=""font-size:50px"">You win!
+10 points this round!</p>",,,,,,,,,,,,,,,,,,,,,,,,,,,,
31,0,,html-keyboard-response,31,600334,0.0-4.1-4.1,88qa1lu7fxe,2022-09-16 18:28:08.574,5d88f010859c9e0001810e88,2,59,27,25,26,48,female,,,,,,1.0,learning,1.0,B,,red,,stars,,,,B,red,stars,,0.0,1.0,1,left,473.0,9.0,1.0,1.0,,,
32,0,,html-keyboard-response,32,601840,0.0-4.2-0.2,88qa1lu7fxe,2022-09-16 18:28:08.574,5d88f010859c9e0001810e88,2,59,27,25,26,48,female,,,"<img src=""static/images/cards/stack_of_black_moons.svg"" width=""175px"" height=""250px""></img>",,,,,,,,,,,,,,,,,,,,,,,,,,,,
33,0,,html-keyboard-response,33,602621,0.0-4.2-1.2,88qa1lu7fxe,2022-09-16 18:28:08.574,5d88f010859c9e0001810e88,2,59,27,25,26,48,female,276.0,,"
  <table>
  <tr height=300>
    <td width=300 height=300><img src=""static/images/cards/back_of_black_moons.svg"" width=""175px"" height=""250px""></img></td>
    <td width=300 height=300><img src=""static/images/cards/back_of_black_moons.svg"" width=""175px"" height=""250px""></img></td>
  </tr>
  <tr height=200>
    <td width=300><img src=""static/images/keys/z.svg"" width=""35%"" height=""75%""></img></td>
    <td width=300><img src=""static/images/keys/m.svg"" width=""35%"" height=""75%""></img></td>
  </tr>
</table>
  ",77.0,1.0,,,,,,,,,,,,,,,,,,,,,,,,,,
34,0,,html-keyboard-response,34,604139,0.0-4.2-2.2,88qa1lu7fxe,2022-09-16 18:28:08.574,5d88f010859c9e0001810e88,2,59,27,25,26,48,female,,,"
  <table>
  <tr height=300>
    <td width=300 height=300><img src=""static/images/cards/back_of_black_moons.svg"" width=""175px"" height=""250px""></img></td>
    <td width=300 height=300><img src=""static/images/cards/4_of_black_moons.svg"" width=""175px"" height=""250px""></img></td>
  </tr>
  <tr height=200>
    <td width=300><img src=""static/images/keys/z.svg"" width=""35%"" height=""75%""></img></td>
    <td width=300><img src=""static/images/keys/m.svg"" width=""35%"" height=""75%""></img></td>
  </tr>
</table>
  ",,,,,,,,,,,,,,,,,,,,,,,,,,,,
35,0,,html-keyboard-response,35,605651,0.0-4.2-3.2,88qa1lu7fxe,2022-09-16 18:28:08.574,5d88f010859c9e0001810e88,2,59,27,25,26,48,female,,,"<p style=""font-size:50px"">You Lose!
No points this round.</p>",,,,,,,,,,,,,,,,,,,,,,,,,,,,
36,0,,html-keyboard-response,36,606166,0.0-4.2-4.2,88qa1lu7fxe,2022-09-16 18:28:08.574,5d88f010859c9e0001810e88,2,59,27,25,26,48,female,,,,,,1.0,learning,2.0,C,,black,,moons,,,,C,black,moons,,1.0,0.0,NA,right,276.0,4.0,0.0,0.0,,,
37,0,,html-keyboard-response,37,607683,0.0-4.3-0.3,88qa1lu7fxe,2022-09-16 18:28:08.574,5d88f010859c9e0001810e88,2,59,27,25,26,48,female,,,"<img src=""static/images/cards/stack_of_red_moons.svg"" width=""175px"" height=""250px""></img>",,,,,,,,,,,,,,,,,,,,,,,,,,,,
38,0,,html-keyboard-response,38,608758,0.0-4.3-1.3,88qa1lu7fxe,2022-09-16 18:28:08.574,5d88f010859c9e0001810e88,2,59,27,25,26,48,female,568.3000000119,,"
  <table>
  <tr height=300>
    <td width=300 height=300><img src=""static/images/cards/back_of_red_moons.svg"" width=""175px"" height=""250px""></img></td>
    <td width=300 height=300><img src=""static/images/cards/back_of_red_moons.svg"" width=""175px"" height=""250px""></img></td>
  </tr>
  <tr height=200>
    <td width=300></td>
    <td width=300><img src=""static/images/keys/m.svg"" width=""35%"" height=""75%""></img></td>
  </tr>
</table>
  ",77.0,1.0,,,,,,,,,,,,,,,,,,,,,,,,,,
39,0,,html-keyboard-response,39,610274,0.0-4.3-2.3,88qa1lu7fxe,2022-09-16 18:28:08.574,5d88f010859c9e0001810e88,2,59,27,25,26,48,female,,,"
  <table>
  <tr height=300>
    <td width=300 height=300><img src=""static/images/cards/back_of_red_moons.svg"" width=""175px"" height=""250px""></img></td>
    <td width=300 height=300><img src=""static/images/cards/10_of_red_moons.svg"" width=""175px"" height=""250px""></img></td>
  </tr>
  <tr height=200>
    <td width=300></td>
    <td width=300><img src=""static/images/keys/m.svg"" width=""35%"" height=""75%""></img></td>
  </tr>
</table>
  ",,,,,,,,,,,,,,,,,,,,,,,,,,,,
40,0,,html-keyboard-response,40,611787,0.0-4.3-3.3,88qa1lu7fxe,2022-09-16 18:28:08.574,5d88f010859c9e0001810e88,2,59,27,25,26,48,female,,,"<p style=""font-size:50px"">You win!
+10 points this round!</p>",,,,,,,,,,,,,,,,,,,,,,,,,,,,
41,0,,html-keyboard-response,41,612295,0.0-4.3-4.3,88qa1lu7fxe,2022-09-16 18:28:08.574,5d88f010859c9e0001810e88,2,59,27,25,26,48,female,,,,,,1.0,learning,3.0,D,,red,,moons,,,,D,red,moons,,0.0,0.0,0,right,568.3000000119,10.0,1.0,1.0,,,
42,0,,html-keyboard-response,42,613804,0.0-4.4-0.4,88qa1lu7fxe,2022-09-16 18:28:08.574,5d88f010859c9e0001810e88,2,59,27,25,26,48,female,,,"<img src=""static/images/cards/stack_of_red_bolts.svg"" width=""175px"" height=""250px""></img>",,,,,,,,,,,,,,,,,,,,,,,,,,,,
43,0,,html-keyboard-response,43,614541,0.0-4.4-1.4,88qa1lu7fxe,2022-09-16 18:28:08.574,5d88f010859c9e0001810e88,2,59,27,25,26,48,female,233.0,,"
  <table>
  <tr height=300>
    <td width=300 height=300><img src=""static/images/cards/back_of_red_bolts.svg"" width=""175px"" height=""250px""></img></td>
    <td width=300 height=300><img src=""static/images/cards/back_of_red_bolts.svg"" width=""175px"" height=""250px""></img></td>
  </tr>
  <tr height=200>
    <td width=300><img src=""static/images/keys/z.svg"" width=""35%"" height=""75%""></img></td>
    <td width=300><img src=""static/images/keys/m.svg"" width=""35%"" height=""75%""></img></td>
  </tr>
</table>
  ",77.0,1.0,,,,,,,,,,,,,,,,,,,,,,,,,,
44,0,,html-keyboard-response,44,616046,0.0-4.4-2.4,88qa1lu7fxe,2022-09-16 18:28:08.574,5d88f010859c9e0001810e88,2,59,27,25,26,48,female,,,"
  <table>
  <tr height=300>
    <td width=300 height=300><img src=""static/images/cards/back_of_red_bolts.svg"" width=""175px"" height=""250px""></img></td>
    <td width=300 height=300><img src=""static/images/cards/10_of_red_bolts.svg"" width=""175px"" height=""250px""></img></td>
  </tr>
  <tr height=200>
    <td width=300><img src=""static/images/keys/z.svg"" width=""35%"" height=""75%""></img></td>
    <td width=300><img src=""static/images/keys/m.svg"" width=""35%"" height=""75%""></img></td>
  </tr>
</table>
  ",,,,,,,,,,,,,,,,,,,,,,,,,,,,
45,0,,html-keyboard-response,45,617575,0.0-4.4-3.4,88qa1lu7fxe,2022-09-16 18:28:08.574,5d88f010859c9e0001810e88,2,59,27,25,26,48,female,,,"<p style=""font-size:50px"">You win!
+10 points this round!</p>",,,,,,,,,,,,,,,,,,,,,,,,,,,,
46,0,,html-keyboard-response,46,618083,0.0-4.4-4.4,88qa1lu7fxe,2022-09-16 18:28:08.574,5d88f010859c9e0001810e88,2,59,27,25,26,48,female,,,,,,1.0,learning,4.0,Xc,,red,,bolts,,,,Xc,red,bolts,,1.0,0.0,NA,right,233.0,10.0,1.0,1.0,,,
47,0,,html-keyboard-response,47,619596,0.0-4.5-0.5,88qa1lu7fxe,2022-09-16 18:28:08.574,5d88f010859c9e0001810e88,2,59,27,25,26,48,female,,,"<img src=""static/images/cards/stack_of_black_bolts.svg"" width=""175px"" height=""250px""></img>",,,,,,,,,,,,,,,,,,,,,,,,,,,,
48,0,,html-keyboard-response,48,620922,0.0-4.5-1.5,88qa1lu7fxe,2022-09-16 18:28:08.574,5d88f010859c9e0001810e88,2,59,27,25,26,48,female,823.3999999762,,"
  <table>
  <tr height=300>
    <td width=300 height=300><img src=""static/images/cards/back_of_black_bolts.svg"" width=""175px"" height=""250px""></img></td>
    <td width=300 height=300><img src=""static/images/cards/back_of_black_bolts.svg"" width=""175px"" height=""250px""></img></td>
  </tr>
  <tr height=200>
    <td width=300></td>
    <td width=300><img src=""static/images/keys/m.svg"" width=""35%"" height=""75%""></img></td>
  </tr>
</table>
  ",77.0,2.0,,,,,,,,,,,,,,,,,,,,,,,,,,
49,0,,html-keyboard-response,49,622424,0.0-4.5-2.5,88qa1lu7fxe,2022-09-16 18:28:08.574,5d88f010859c9e0001810e88,2,59,27,25,26,48,female,,,"
  <table>
  <tr height=300>
    <td width=300 height=300><img src=""static/images/cards/back_of_black_bolts.svg"" width=""175px"" height=""250px""></img></td>
    <td width=300 height=300><img src=""static/images/cards/8_of_black_bolts.svg"" width=""175px"" height=""250px""></img></td>
  </tr>
  <tr height=200>
    <td width=300></td>
    <td width=300><img src=""static/images/keys/m.svg"" width=""35%"" height=""75%""></img></td>
  </tr>
</table>
  ",,,,,,,,,,,,,,,,,,,,,,,,,,,,
50,0,,html-keyboard-response,50,623960,0.0-4.5-3.5,88qa1lu7fxe,2022-09-16 18:28:08.574,5d88f010859c9e0001810e88,2,59,27,25,26,48,female,,,"<p style=""font-size:50px"">You win!
+10 points this round!</p>",,,,,,,,,,,,,,,,,,,,,,,,,,,,
51,0,,html-keyboard-response,51,624471,0.0-4.5-4.5,88qa1lu7fxe,2022-09-16 18:28:08.574,5d88f010859c9e0001810e88,2,59,27,25,26,48,female,,,,,,1.0,learning,5.0,Xnc,,black,,bolts,,,,Xnc,black,bolts,,0.0,0.0,0,right,823.3999999762,8.0,1.0,1.0,,,
52,0,,html-keyboard-response,52,625974,0.0-4.6-0.6,88qa1lu7fxe,2022-09-16 18:28:08.574,5d88f010859c9e0001810e88,2,59,27,25,26,48,female,,,"<img src=""static/images/cards/stack_of_black_stars.svg"" width=""175px"" height=""250px""></img>",,,,,,,,,,,,,,,,,,,,,,,,,,,,
53,0,,html-keyboard-response,53,627253,0.0-4.6-1.6,88qa1lu7fxe,2022-09-16 18:28:08.574,5d88f010859c9e0001810e88,2,59,27,25,26,48,female,772.2999999821,,"
  <table>
  <tr height=300>
    <td width=300 height=300><img src=""static/images/cards/back_of_black_stars.svg"" width=""175px"" height=""250px""></img></td>
    <td width=300 height=300><img src=""static/images/cards/back_of_black_stars.svg"" width=""175px"" height=""250px""></img></td>
  </tr>
  <tr height=200>
    <td width=300><img src=""static/images/keys/z.svg"" width=""35%"" height=""75%""></img></td>
    <td width=300><img src=""static/images/keys/m.svg"" width=""35%"" height=""75%""></img></td>
  </tr>
</table>
  ",90.0,1.0,,,,,,,,,,,,,,,,,,,,,,,,,,
54,0,,html-keyboard-response,54,628764,0.0-4.6-2.6,88qa1lu7fxe,2022-09-16 18:28:08.574,5d88f010859c9e0001810e88,2,59,27,25,26,48,female,,,"
  <table>
  <tr height=300>
    <td width=300 height=300><img src=""static/images/cards/2_of_black_stars.svg"" width=""175px"" height=""250px""></img></td>
    <td width=300 height=300><img src=""static/images/cards/back_of_black_stars.svg"" width=""175px"" height=""250px""></img></td>
  </tr>
  <tr height=200>
    <td width=300><img src=""static/images/keys/z.svg"" width=""35%"" height=""75%""></img></td>
    <td width=300><img src=""static/images/keys/m.svg"" width=""35%"" height=""75%""></img></td>
  </tr>
</table>
  ",,,,,,,,,,,,,,,,,,,,,,,,,,,,
55,0,,html-keyboard-response,55,630294,0.0-4.6-3.6,88qa1lu7fxe,2022-09-16 18:28:08.574,5d88f010859c9e0001810e88,2,59,27,25,26,48,female,,,"<p style=""font-size:50px"">You Lose!
No points this round.</p>",,,,,,,,,,,,,,,,,,,,,,,,,,,,
56,0,,html-keyboard-response,56,630808,0.0-4.6-4.6,88qa1lu7fxe,2022-09-16 18:28:08.574,5d88f010859c9e0001810e88,2,59,27,25,26,48,female,,,,,,1.0,learning,6.0,A,,black,,stars,,,,A,black,stars,,1.0,1.0,NA,left,772.2999999821,2.0,0.0,0.0,,,
57,0,,html-keyboard-response,57,632330,0.0-4.7-0.7,88qa1lu7fxe,2022-09-16 18:28:08.574,5d88f010859c9e0001810e88,2,59,27,25,26,48,female,,,"<img src=""static/images/cards/stack_of_red_stars.svg"" width=""175px"" height=""250px""></img>",,,,,,,,,,,,,,,,,,,,,,,,,,,,
58,0,,html-keyboard-response,58,633327,0.0-4.7-1.7,88qa1lu7fxe,2022-09-16 18:28:08.574,5d88f010859c9e0001810e88,2,59,27,25,26,48,female,475.7999999821,,"
  <table>
  <tr height=300>
    <td width=300 height=300><img src=""static/images/cards/back_of_red_stars.svg"" width=""175px"" height=""250px""></img></td>
    <td width=300 height=300><img src=""static/images/cards/back_of_red_stars.svg"" width=""175px"" height=""250px""></img></td>
  </tr>
  <tr height=200>
    <td width=300></td>
    <td width=300><img src=""static/images/keys/m.svg"" width=""35%"" height=""75%""></img></td>
  </tr>
</table>
  ",77.0,1.0,,,,,,,,,,,,,,,,,,,,,,,,,,
59,0,,html-keyboard-response,59,634839,0.0-4.7-2.7,88qa1lu7fxe,2022-09-16 18:28:08.574,5d88f010859c9e0001810e88,2,59,27,25,26,48,female,,,"
  <table>
  <tr height=300>
    <td width=300 height=300><img src=""static/images/cards/back_of_red_stars.svg"" width=""175px"" height=""250px""></img></td>
    <td width=300 height=300><img src=""static/images/cards/8_of_red_stars.svg"" width=""175px"" height=""250px""></img></td>
  </tr>
  <tr height=200>
    <td width=300></td>
    <td width=300><img src=""static/images/keys/m.svg"" width=""35%"" height=""75%""></img></td>
  </tr>
</table>
  ",,,,,,,,,,,,,,,,,,,,,,,,,,,,
60,0,,html-keyboard-response,60,636345,0.0-4.7-3.7,88qa1lu7fxe,2022-09-16 18:28:08.574,5d88f010859c9e0001810e88,2,59,27,25,26,48,female,,,"<p style=""font-size:50px"">You win!
+10 points this round!</p>",,,,,,,,,,,,,,,,,,,,,,,,,,,,
61,0,,html-keyboard-response,61,636864,0.0-4.7-4.7,88qa1lu7fxe,2022-09-16 18:28:08.574,5d88f010859c9e0001810e88,2,59,27,25,26,48,female,,,,,,1.0,learning,7.0,B,,red,,stars,,,,B,red,stars,,0.0,1.0,0,right,475.7999999821,8.0,1.0,1.0,,,
62,0,,html-keyboard-response,62,638381,0.0-4.8-0.8,88qa1lu7fxe,2022-09-16 18:28:08.574,5d88f010859c9e0001810e88,2,59,27,25,26,48,female,,,"<img src=""static/images/cards/stack_of_black_moons.svg"" width=""175px"" height=""250px""></img>",,,,,,,,,,,,,,,,,,,,,,,,,,,,
63,0,,html-keyboard-response,63,639468,0.0-4.8-1.8,88qa1lu7fxe,2022-09-16 18:28:08.574,5d88f010859c9e0001810e88,2,59,27,25,26,48,female,573.8999999762,,"
  <table>
  <tr height=300>
    <td width=300 height=300><img src=""static/images/cards/back_of_black_moons.svg"" width=""175px"" height=""250px""></img></td>
    <td width=300 height=300><img src=""static/images/cards/back_of_black_moons.svg"" width=""175px"" height=""250px""></img></td>
  </tr>
  <tr height=200>
    <td width=300><img src=""static/images/keys/z.svg"" width=""35%"" height=""75%""></img></td>
    <td width=300><img src=""static/images/keys/m.svg"" width=""35%"" height=""75%""></img></td>
  </tr>
</table>
  ",77.0,1.0,,,,,,,,,,,,,,,,,,,,,,,,,,
64,0,,html-keyboard-response,64,640975,0.0-4.8-2.8,88qa1lu7fxe,2022-09-16 18:28:08.574,5d88f010859c9e0001810e88,2,59,27,25,26,48,female,,,"
  <table>
  <tr height=300>
    <td width=300 height=300><img src=""static/images/cards/back_of_black_moons.svg"" width=""175px"" height=""250px""></img></td>
    <td width=300 height=300><img src=""static/images/cards/8_of_black_moons.svg"" width=""175px"" height=""250px""></img></td>
  </tr>
  <tr height=200>
    <td width=300><img src=""static/images/keys/z.svg"" width=""35%"" height=""75%""></img></td>
    <td width=300><img src=""static/images/keys/m.svg"" width=""35%"" height=""75%""></img></td>
  </tr>
</table>
  ",,,,,,,,,,,,,,,,,,,,,,,,,,,,
65,0,,html-keyboard-response,65,642505,0.0-4.8-3.8,88qa1lu7fxe,2022-09-16 18:28:08.574,5d88f010859c9e0001810e88,2,59,27,25,26,48,female,,,"<p style=""font-size:50px"">You win!
+10 points this round!</p>",,,,,,,,,,,,,,,,,,,,,,,,,,,,
66,0,,html-keyboard-response,66,643011,0.0-4.8-4.8,88qa1lu7fxe,2022-09-16 18:28:08.574,5d88f010859c9e0001810e88,2,59,27,25,26,48,female,,,,,,1.0,learning,8.0,C,,black,,moons,,,,C,black,moons,,1.0,0.0,NA,right,573.8999999762,8.0,1.0,1.0,,,
67,0,,html-keyboard-response,67,644517,0.0-4.9-0.9,88qa1lu7fxe,2022-09-16 18:28:08.574,5d88f010859c9e0001810e88,2,59,27,25,26,48,female,,,"<img src=""static/images/cards/stack_of_red_moons.svg"" width=""175px"" height=""250px""></img>",,,,,,,,,,,,,,,,,,,,,,,,,,,,
68,0,,html-keyboard-response,68,645508,0.0-4.9-1.9,88qa1lu7fxe,2022-09-16 18:28:08.574,5d88f010859c9e0001810e88,2,59,27,25,26,48,female,476.0,,"
  <table>
  <tr height=300>
    <td width=300 height=300><img src=""static/images/cards/back_of_red_moons.svg"" width=""175px"" height=""250px""></img></td>
    <td width=300 height=300><img src=""static/images/cards/back_of_red_moons.svg"" width=""175px"" height=""250px""></img></td>
  </tr>
  <tr height=200>
    <td width=300></td>
    <td width=300><img src=""static/images/keys/m.svg"" width=""35%"" height=""75%""></img></td>
  </tr>
</table>
  ",77.0,1.0,,,,,,,,,,,,,,,,,,,,,,,,,,
69,0,,html-keyboard-response,69,647021,0.0-4.9-2.9,88qa1lu7fxe,2022-09-16 18:28:08.574,5d88f010859c9e0001810e88,2,59,27,25,26,48,female,,,"
  <table>
  <tr height=300>
    <td width=300 height=300><img src=""static/images/cards/back_of_red_moons.svg"" width=""175px"" height=""250px""></img></td>
    <td width=300 height=300><img src=""static/images/cards/1_of_red_moons.svg"" width=""175px"" height=""250px""></img></td>
  </tr>
  <tr height=200>
    <td width=300></td>
    <td width=300><img src=""static/images/keys/m.svg"" width=""35%"" height=""75%""></img></td>
  </tr>
</table>
  ",,,,,,,,,,,,,,,,,,,,,,,,,,,,
70,0,,html-keyboard-response,70,648545,0.0-4.9-3.9,88qa1lu7fxe,2022-09-16 18:28:08.574,5d88f010859c9e0001810e88,2,59,27,25,26,48,female,,,"<p style=""font-size:50px"">You Lose!
No points this round.</p>",,,,,,,,,,,,,,,,,,,,,,,,,,,,
71,0,,html-keyboard-response,71,649054,0.0-4.9-4.9,88qa1lu7fxe,2022-09-16 18:28:08.574,5d88f010859c9e0001810e88,2,59,27,25,26,48,female,,,,,,1.0,learning,9.0,D,,red,,moons,,,,D,red,moons,,0.0,0.0,0,right,476.0,1.0,0.0,0.0,,,
72,0,,html-keyboard-response,72,650558,0.0-4.10-0.10,88qa1lu7fxe,2022-09-16 18:28:08.574,5d88f010859c9e0001810e88,2,59,27,25,26,48,female,,,"<img src=""static/images/cards/stack_of_red_bolts.svg"" width=""175px"" height=""250px""></img>",,,,,,,,,,,,,,,,,,,,,,,,,,,,
73,0,,html-keyboard-response,73,651754,0.0-4.10-1.10,88qa1lu7fxe,2022-09-16 18:28:08.574,5d88f010859c9e0001810e88,2,59,27,25,26,48,female,685.7000000179,,"
  <table>
  <tr height=300>
    <td width=300 height=300><img src=""static/images/cards/back_of_red_bolts.svg"" width=""175px"" height=""250px""></img></td>
    <td width=300 height=300><img src=""static/images/cards/back_of_red_bolts.svg"" width=""175px"" height=""250px""></img></td>
  </tr>
  <tr height=200>
    <td width=300><img src=""static/images/keys/z.svg"" width=""35%"" height=""75%""></img></td>
    <td width=300><img src=""static/images/keys/m.svg"" width=""35%"" height=""75%""></img></td>
  </tr>
</table>
  ",90.0,1.0,,,,,,,,,,,,,,,,,,,,,,,,,,
74,0,,html-keyboard-response,74,653264,0.0-4.10-2.10,88qa1lu7fxe,2022-09-16 18:28:08.574,5d88f010859c9e0001810e88,2,59,27,25,26,48,female,,,"
  <table>
  <tr height=300>
    <td width=300 height=300><img src=""static/images/cards/3_of_red_bolts.svg"" width=""175px"" height=""250px""></img></td>
    <td width=300 height=300><img src=""static/images/cards/back_of_red_bolts.svg"" width=""175px"" height=""250px""></img></td>
  </tr>
  <tr height=200>
    <td width=300><img src=""static/images/keys/z.svg"" width=""35%"" height=""75%""></img></td>
    <td width=300><img src=""static/images/keys/m.svg"" width=""35%"" height=""75%""></img></td>
  </tr>
</table>
  ",,,,,,,,,,,,,,,,,,,,,,,,,,,,
75,0,,html-keyboard-response,75,654766,0.0-4.10-3.10,88qa1lu7fxe,2022-09-16 18:28:08.574,5d88f010859c9e0001810e88,2,59,27,25,26,48,female,,,"<p style=""font-size:50px"">You win!
+10 points this round!</p>",,,,,,,,,,,,,,,,,,,,,,,,,,,,
76,0,,html-keyboard-response,76,655284,0.0-4.10-4.10,88qa1lu7fxe,2022-09-16 18:28:08.574,5d88f010859c9e0001810e88,2,59,27,25,26,48,female,,,,,,1.0,learning,10.0,Xc,,red,,bolts,,,,Xc,red,bolts,,1.0,0.0,NA,left,685.7000000179,3.0,0.0,1.0,,,
77,0,,html-keyboard-response,77,656800,0.0-4.11-0.11,88qa1lu7fxe,2022-09-16 18:28:08.574,5d88f010859c9e0001810e88,2,59,27,25,26,48,female,,,"<img src=""static/images/cards/stack_of_black_bolts.svg"" width=""175px"" height=""250px""></img>",,,,,,,,,,,,,,,,,,,,,,,,,,,,
78,0,,html-keyboard-response,78,657831,0.0-4.11-1.11,88qa1lu7fxe,2022-09-16 18:28:08.574,5d88f010859c9e0001810e88,2,59,27,25,26,48,female,525.900000006,,"
  <table>
  <tr height=300>
    <td width=300 height=300><img src=""static/images/cards/back_of_black_bolts.svg"" width=""175px"" height=""250px""></img></td>
    <td width=300 height=300><img src=""static/images/cards/back_of_black_bolts.svg"" width=""175px"" height=""250px""></img></td>
  </tr>
  <tr height=200>
    <td width=300><img src=""static/images/keys/z.svg"" width=""35%"" height=""75%""></img></td>
    <td width=300></td>
  </tr>
</table>
  ",90.0,1.0,,,,,,,,,,,,,,,,,,,,,,,,,,
79,0,,html-keyboard-response,79,659350,0.0-4.11-2.11,88qa1lu7fxe,2022-09-16 18:28:08.574,5d88f010859c9e0001810e88,2,59,27,25,26,48,female,,,"
  <table>
  <tr height=300>
    <td width=300 height=300><img src=""static/images/cards/2_of_black_bolts.svg"" width=""175px"" height=""250px""></img></td>
    <td width=300 height=300><img src=""static/images/cards/back_of_black_bolts.svg"" width=""175px"" height=""250px""></img></td>
  </tr>
  <tr height=200>
    <td width=300><img src=""static/images/keys/z.svg"" width=""35%"" height=""75%""></img></td>
    <td width=300></td>
  </tr>
</table>
  ",,,,,,,,,,,,,,,,,,,,,,,,,,,,
80,0,,html-keyboard-response,80,660867,0.0-4.11-3.11,88qa1lu7fxe,2022-09-16 18:28:08.574,5d88f010859c9e0001810e88,2,59,27,25,26,48,female,,,"<p style=""font-size:50px"">You win!
+10 points this round!</p>",,,,,,,,,,,,,,,,,,,,,,,,,,,,
81,0,,html-keyboard-response,81,661376,0.0-4.11-4.11,88qa1lu7fxe,2022-09-16 18:28:08.574,5d88f010859c9e0001810e88,2,59,27,25,26,48,female,,,,,,1.0,learning,11.0,Xnc,,black,,bolts,,,,Xnc,black,bolts,,0.0,0.0,1,left,525.900000006,2.0,0.0,1.0,,,
82,0,,html-keyboard-response,82,662887,0.0-4.12-0.12,88qa1lu7fxe,2022-09-16 18:28:08.574,5d88f010859c9e0001810e88,2,59,27,25,26,48,female,,,"<img src=""static/images/cards/stack_of_black_stars.svg"" width=""175px"" height=""250px""></img>",,,,,,,,,,,,,,,,,,,,,,,,,,,,
83,0,,html-keyboard-response,83,664211,0.0-4.12-1.12,88qa1lu7fxe,2022-09-16 18:28:08.574,5d88f010859c9e0001810e88,2,59,27,25,26,48,female,809.099999994,,"
  <table>
  <tr height=300>
    <td width=300 height=300><img src=""static/images/cards/back_of_black_stars.svg"" width=""175px"" height=""250px""></img></td>
    <td width=300 height=300><img src=""static/images/cards/back_of_black_stars.svg"" width=""175px"" height=""250px""></img></td>
  </tr>
  <tr height=200>
    <td width=300><img src=""static/images/keys/z.svg"" width=""35%"" height=""75%""></img></td>
    <td width=300><img src=""static/images/keys/m.svg"" width=""35%"" height=""75%""></img></td>
  </tr>
</table>
  ",77.0,1.0,,,,,,,,,,,,,,,,,,,,,,,,,,
84,0,,html-keyboard-response,84,665715,0.0-4.12-2.12,88qa1lu7fxe,2022-09-16 18:28:08.574,5d88f010859c9e0001810e88,2,59,27,25,26,48,female,,,"
  <table>
  <tr height=300>
    <td width=300 height=300><img src=""static/images/cards/back_of_black_stars.svg"" width=""175px"" height=""250px""></img></td>
    <td width=300 height=300><img src=""static/images/cards/8_of_black_stars.svg"" width=""175px"" height=""250px""></img></td>
  </tr>
  <tr height=200>
    <td width=300><img src=""static/images/keys/z.svg"" width=""35%"" height=""75%""></img></td>
    <td width=300><img src=""static/images/keys/m.svg"" width=""35%"" height=""75%""></img></td>
  </tr>
</table>
  ",,,,,,,,,,,,,,,,,,,,,,,,,,,,
85,0,,html-keyboard-response,85,667228,0.0-4.12-3.12,88qa1lu7fxe,2022-09-16 18:28:08.574,5d88f010859c9e0001810e88,2,59,27,25,26,48,female,,,"<p style=""font-size:50px"">You win!
+10 points this round!</p>",,,,,,,,,,,,,,,,,,,,,,,,,,,,
86,0,,html-keyboard-response,86,667734,0.0-4.12-4.12,88qa1lu7fxe,2022-09-16 18:28:08.574,5d88f010859c9e0001810e88,2,59,27,25,26,48,female,,,,,,1.0,learning,12.0,A,,black,,stars,,,,A,black,stars,,1.0,1.0,NA,right,809.099999994,8.0,1.0,1.0,,,
87,0,,html-keyboard-response,87,669264,0.0-4.13-0.13,88qa1lu7fxe,2022-09-16 18:28:08.574,5d88f010859c9e0001810e88,2,59,27,25,26,48,female,,,"<img src=""static/images/cards/stack_of_red_stars.svg"" width=""175px"" height=""250px""></img>",,,,,,,,,,,,,,,,,,,,,,,,,,,,
88,0,,html-keyboard-response,88,670340,0.0-4.13-1.13,88qa1lu7fxe,2022-09-16 18:28:08.574,5d88f010859c9e0001810e88,2,59,27,25,26,48,female,567.1999999881,,"
  <table>
  <tr height=300>
    <td width=300 height=300><img src=""static/images/cards/back_of_red_stars.svg"" width=""175px"" height=""250px""></img></td>
    <td width=300 height=300><img src=""static/images/cards/back_of_red_stars.svg"" width=""175px"" height=""250px""></img></td>
  </tr>
  <tr height=200>
    <td width=300></td>
    <td width=300><img src=""static/images/keys/m.svg"" width=""35%"" height=""75%""></img></td>
  </tr>
</table>
  ",77.0,1.0,,,,,,,,,,,,,,,,,,,,,,,,,,
89,0,,html-keyboard-response,89,671849,0.0-4.13-2.13,88qa1lu7fxe,2022-09-16 18:28:08.574,5d88f010859c9e0001810e88,2,59,27,25,26,48,female,,,"
  <table>
  <tr height=300>
    <td width=300 height=300><img src=""static/images/cards/back_of_red_stars.svg"" width=""175px"" height=""250px""></img></td>
    <td width=300 height=300><img src=""static/images/cards/4_of_red_stars.svg"" width=""175px"" height=""250px""></img></td>
  </tr>
  <tr height=200>
    <td width=300></td>
    <td width=300><img src=""static/images/keys/m.svg"" width=""35%"" height=""75%""></img></td>
  </tr>
</table>
  ",,,,,,,,,,,,,,,,,,,,,,,,,,,,
90,0,,html-keyboard-response,90,673377,0.0-4.13-3.13,88qa1lu7fxe,2022-09-16 18:28:08.574,5d88f010859c9e0001810e88,2,59,27,25,26,48,female,,,"<p style=""font-size:50px"">You Lose!
No points this round.</p>",,,,,,,,,,,,,,,,,,,,,,,,,,,,
91,0,,html-keyboard-response,91,673901,0.0-4.13-4.13,88qa1lu7fxe,2022-09-16 18:28:08.574,5d88f010859c9e0001810e88,2,59,27,25,26,48,female,,,,,,1.0,learning,13.0,B,,red,,stars,,,,B,red,stars,,0.0,1.0,0,right,567.1999999881,4.0,0.0,0.0,,,
92,0,,html-keyboard-response,92,675425,0.0-4.14-0.14,88qa1lu7fxe,2022-09-16 18:28:08.574,5d88f010859c9e0001810e88,2,59,27,25,26,48,female,,,"<img src=""static/images/cards/stack_of_black_moons.svg"" width=""175px"" height=""250px""></img>",,,,,,,,,,,,,,,,,,,,,,,,,,,,
93,0,,html-keyboard-response,93,676370,0.0-4.14-1.14,88qa1lu7fxe,2022-09-16 18:28:08.574,5d88f010859c9e0001810e88,2,59,27,25,26,48,female,440.3999999762,,"
  <table>
  <tr height=300>
    <td width=300 height=300><img src=""static/images/cards/back_of_black_moons.svg"" width=""175px"" height=""250px""></img></td>
    <td width=300 height=300><img src=""static/images/cards/back_of_black_moons.svg"" width=""175px"" height=""250px""></img></td>
  </tr>
  <tr height=200>
    <td width=300><img src=""static/images/keys/z.svg"" width=""35%"" height=""75%""></img></td>
    <td width=300><img src=""static/images/keys/m.svg"" width=""35%"" height=""75%""></img></td>
  </tr>
</table>
  ",77.0,1.0,,,,,,,,,,,,,,,,,,,,,,,,,,
94,0,,html-keyboard-response,94,677886,0.0-4.14-2.14,88qa1lu7fxe,2022-09-16 18:28:08.574,5d88f010859c9e0001810e88,2,59,27,25,26,48,female,,,"
  <table>
  <tr height=300>
    <td width=300 height=300><img src=""static/images/cards/back_of_black_moons.svg"" width=""175px"" height=""250px""></img></td>
    <td width=300 height=300><img src=""static/images/cards/8_of_black_moons.svg"" width=""175px"" height=""250px""></img></td>
  </tr>
  <tr height=200>
    <td width=300><img src=""static/images/keys/z.svg"" width=""35%"" height=""75%""></img></td>
    <td width=300><img src=""static/images/keys/m.svg"" width=""35%"" height=""75%""></img></td>
  </tr>
</table>
  ",,,,,,,,,,,,,,,,,,,,,,,,,,,,
95,0,,html-keyboard-response,95,679403,0.0-4.14-3.14,88qa1lu7fxe,2022-09-16 18:28:08.574,5d88f010859c9e0001810e88,2,59,27,25,26,48,female,,,"<p style=""font-size:50px"">You Lose!
No points this round.</p>",,,,,,,,,,,,,,,,,,,,,,,,,,,,
96,0,,html-keyboard-response,96,679923,0.0-4.14-4.14,88qa1lu7fxe,2022-09-16 18:28:08.574,5d88f010859c9e0001810e88,2,59,27,25,26,48,female,,,,,,1.0,learning,14.0,C,,black,,moons,,,,C,black,moons,,1.0,0.0,NA,right,440.3999999762,8.0,1.0,0.0,,,
97,0,,html-keyboard-response,97,681428,0.0-4.15-0.15,88qa1lu7fxe,2022-09-16 18:28:08.574,5d88f010859c9e0001810e88,2,59,27,25,26,48,female,,,"<img src=""static/images/cards/stack_of_red_moons.svg"" width=""175px"" height=""250px""></img>",,,,,,,,,,,,,,,,,,,,,,,,,,,,
98,0,,html-keyboard-response,98,682529,0.0-4.15-1.15,88qa1lu7fxe,2022-09-16 18:28:08.574,5d88f010859c9e0001810e88,2,59,27,25,26,48,female,593.8000000119,,"
  <table>
  <tr height=300>
    <td width=300 height=300><img src=""static/images/cards/back_of_red_moons.svg"" width=""175px"" height=""250px""></img></td>
    <td width=300 height=300><img src=""static/images/cards/back_of_red_moons.svg"" width=""175px"" height=""250px""></img></td>
  </tr>
  <tr height=200>
    <td width=300></td>
    <td width=300><img src=""static/images/keys/m.svg"" width=""35%"" height=""75%""></img></td>
  </tr>
</table>
  ",77.0,1.0,,,,,,,,,,,,,,,,,,,,,,,,,,
99,0,,html-keyboard-response,99,684038,0.0-4.15-2.15,88qa1lu7fxe,2022-09-16 18:28:08.574,5d88f010859c9e0001810e88,2,59,27,25,26,48,female,,,"
  <table>
  <tr height=300>
    <td width=300 height=300><img src=""static/images/cards/back_of_red_moons.svg"" width=""175px"" height=""250px""></img></td>
    <td width=300 height=300><img src=""static/images/cards/7_of_red_moons.svg"" width=""175px"" height=""250px""></img></td>
  </tr>
  <tr height=200>
    <td width=300></td>
    <td width=300><img src=""static/images/keys/m.svg"" width=""35%"" height=""75%""></img></td>
  </tr>
</table>
  ",,,,,,,,,,,,,,,,,,,,,,,,,,,,
100,0,,html-keyboard-response,100,685552,0.0-4.15-3.15,88qa1lu7fxe,2022-09-16 18:28:08.574,5d88f010859c9e0001810e88,2,59,27,25,26,48,female,,,"<p style=""font-size:50px"">You Lose!
No points this round.</p>",,,,,,,,,,,,,,,,,,,,,,,,,,,,
101,0,,html-keyboard-response,101,686074,0.0-4.15-4.15,88qa1lu7fxe,2022-09-16 18:28:08.574,5d88f010859c9e0001810e88,2,59,27,25,26,48,female,,,,,,1.0,learning,15.0,D,,red,,moons,,,,D,red,moons,,0.0,0.0,0,right,593.8000000119,7.0,1.0,0.0,,,
102,0,,html-keyboard-response,102,687589,0.0-4.16-0.16,88qa1lu7fxe,2022-09-16 18:28:08.574,5d88f010859c9e0001810e88,2,59,27,25,26,48,female,,,"<img src=""static/images/cards/stack_of_red_bolts.svg"" width=""175px"" height=""250px""></img>",,,,,,,,,,,,,,,,,,,,,,,,,,,,
103,0,,html-keyboard-response,103,688672,0.0-4.16-1.16,88qa1lu7fxe,2022-09-16 18:28:08.574,5d88f010859c9e0001810e88,2,59,27,25,26,48,female,569.6999999881,,"
  <table>
  <tr height=300>
    <td width=300 height=300><img src=""static/images/cards/back_of_red_bolts.svg"" width=""175px"" height=""250px""></img></td>
    <td width=300 height=300><img src=""static/images/cards/back_of_red_bolts.svg"" width=""175px"" height=""250px""></img></td>
  </tr>
  <tr height=200>
    <td width=300><img src=""static/images/keys/z.svg"" width=""35%"" height=""75%""></img></td>
    <td width=300><img src=""static/images/keys/m.svg"" width=""35%"" height=""75%""></img></td>
  </tr>
</table>
  ",77.0,1.0,,,,,,,,,,,,,,,,,,,,,,,,,,
104,0,,html-keyboard-response,104,690183,0.0-4.16-2.16,88qa1lu7fxe,2022-09-16 18:28:08.574,5d88f010859c9e0001810e88,2,59,27,25,26,48,female,,,"
  <table>
  <tr height=300>
    <td width=300 height=300><img src=""static/images/cards/back_of_red_bolts.svg"" width=""175px"" height=""250px""></img></td>
    <td width=300 height=300><img src=""static/images/cards/9_of_red_bolts.svg"" width=""175px"" height=""250px""></img></td>
  </tr>
  <tr height=200>
    <td width=300><img src=""static/images/keys/z.svg"" width=""35%"" height=""75%""></img></td>
    <td width=300><img src=""static/images/keys/m.svg"" width=""35%"" height=""75%""></img></td>
  </tr>
</table>
  ",,,,,,,,,,,,,,,,,,,,,,,,,,,,
105,0,,html-keyboard-response,105,691707,0.0-4.16-3.16,88qa1lu7fxe,2022-09-16 18:28:08.574,5d88f010859c9e0001810e88,2,59,27,25,26,48,female,,,"<p style=""font-size:50px"">You win!
+10 points this round!</p>",,,,,,,,,,,,,,,,,,,,,,,,,,,,
106,0,,html-keyboard-response,106,692219,0.0-4.16-4.16,88qa1lu7fxe,2022-09-16 18:28:08.574,5d88f010859c9e0001810e88,2,59,27,25,26,48,female,,,,,,1.0,learning,16.0,Xc,,red,,bolts,,,,Xc,red,bolts,,1.0,0.0,NA,right,569.6999999881,9.0,1.0,1.0,,,
107,0,,html-keyboard-response,107,693723,0.0-4.17-0.17,88qa1lu7fxe,2022-09-16 18:28:08.574,5d88f010859c9e0001810e88,2,59,27,25,26,48,female,,,"<img src=""static/images/cards/stack_of_black_bolts.svg"" width=""175px"" height=""250px""></img>",,,,,,,,,,,,,,,,,,,,,,,,,,,,
108,0,,html-keyboard-response,108,694647,0.0-4.17-1.17,88qa1lu7fxe,2022-09-16 18:28:08.574,5d88f010859c9e0001810e88,2,59,27,25,26,48,female,421.5,,"
  <table>
  <tr height=300>
    <td width=300 height=300><img src=""static/images/cards/back_of_black_bolts.svg"" width=""175px"" height=""250px""></img></td>
    <td width=300 height=300><img src=""static/images/cards/back_of_black_bolts.svg"" width=""175px"" height=""250px""></img></td>
  </tr>
  <tr height=200>
    <td width=300></td>
    <td width=300><img src=""static/images/keys/m.svg"" width=""35%"" height=""75%""></img></td>
  </tr>
</table>
  ",77.0,1.0,,,,,,,,,,,,,,,,,,,,,,,,,,
109,0,,html-keyboard-response,109,696152,0.0-4.17-2.17,88qa1lu7fxe,2022-09-16 18:28:08.574,5d88f010859c9e0001810e88,2,59,27,25,26,48,female,,,"
  <table>
  <tr height=300>
    <td width=300 height=300><img src=""static/images/cards/back_of_black_bolts.svg"" width=""175px"" height=""250px""></img></td>
    <td width=300 height=300><img src=""static/images/cards/2_of_black_bolts.svg"" width=""175px"" height=""250px""></img></td>
  </tr>
  <tr height=200>
    <td width=300></td>
    <td width=300><img src=""static/images/keys/m.svg"" width=""35%"" height=""75%""></img></td>
  </tr>
</table>
  ",,,,,,,,,,,,,,,,,,,,,,,,,,,,
110,0,,html-keyboard-response,110,697663,0.0-4.17-3.17,88qa1lu7fxe,2022-09-16 18:28:08.574,5d88f010859c9e0001810e88,2,59,27,25,26,48,female,,,"<p style=""font-size:50px"">You win!
+10 points this round!</p>",,,,,,,,,,,,,,,,,,,,,,,,,,,,
111,0,,html-keyboard-response,111,698172,0.0-4.17-4.17,88qa1lu7fxe,2022-09-16 18:28:08.574,5d88f010859c9e0001810e88,2,59,27,25,26,48,female,,,,,,1.0,learning,17.0,Xnc,,black,,bolts,,,,Xnc,black,bolts,,0.0,0.0,0,right,421.5,2.0,0.0,1.0,,,
112,0,,html-keyboard-response,112,699691,0.0-4.18-0.18,88qa1lu7fxe,2022-09-16 18:28:08.574,5d88f010859c9e0001810e88,2,59,27,25,26,48,female,,,"<img src=""static/images/cards/stack_of_black_stars.svg"" width=""175px"" height=""250px""></img>",,,,,,,,,,,,,,,,,,,,,,,,,,,,
113,0,,html-keyboard-response,113,700910,0.0-4.18-1.18,88qa1lu7fxe,2022-09-16 18:28:08.574,5d88f010859c9e0001810e88,2,59,27,25,26,48,female,686.7000000179,,"
  <table>
  <tr height=300>
    <td width=300 height=300><img src=""static/images/cards/back_of_black_stars.svg"" width=""175px"" height=""250px""></img></td>
    <td width=300 height=300><img src=""static/images/cards/back_of_black_stars.svg"" width=""175px"" height=""250px""></img></td>
  </tr>
  <tr height=200>
    <td width=300><img src=""static/images/keys/z.svg"" width=""35%"" height=""75%""></img></td>
    <td width=300><img src=""static/images/keys/m.svg"" width=""35%"" height=""75%""></img></td>
  </tr>
</table>
  ",77.0,1.0,,,,,,,,,,,,,,,,,,,,,,,,,,
114,0,,html-keyboard-response,114,702416,0.0-4.18-2.18,88qa1lu7fxe,2022-09-16 18:28:08.574,5d88f010859c9e0001810e88,2,59,27,25,26,48,female,,,"
  <table>
  <tr height=300>
    <td width=300 height=300><img src=""static/images/cards/back_of_black_stars.svg"" width=""175px"" height=""250px""></img></td>
    <td width=300 height=300><img src=""static/images/cards/6_of_black_stars.svg"" width=""175px"" height=""250px""></img></td>
  </tr>
  <tr height=200>
    <td width=300><img src=""static/images/keys/z.svg"" width=""35%"" height=""75%""></img></td>
    <td width=300><img src=""static/images/keys/m.svg"" width=""35%"" height=""75%""></img></td>
  </tr>
</table>
  ",,,,,,,,,,,,,,,,,,,,,,,,,,,,
115,0,,html-keyboard-response,115,703932,0.0-4.18-3.18,88qa1lu7fxe,2022-09-16 18:28:08.574,5d88f010859c9e0001810e88,2,59,27,25,26,48,female,,,"<p style=""font-size:50px"">You win!
+10 points this round!</p>",,,,,,,,,,,,,,,,,,,,,,,,,,,,
116,0,,html-keyboard-response,116,704451,0.0-4.18-4.18,88qa1lu7fxe,2022-09-16 18:28:08.574,5d88f010859c9e0001810e88,2,59,27,25,26,48,female,,,,,,1.0,learning,18.0,A,,black,,stars,,,,A,black,stars,,1.0,1.0,NA,right,686.7000000179,6.0,1.0,1.0,,,
117,0,,html-keyboard-response,117,705956,0.0-4.19-0.19,88qa1lu7fxe,2022-09-16 18:28:08.574,5d88f010859c9e0001810e88,2,59,27,25,26,48,female,,,"<img src=""static/images/cards/stack_of_red_stars.svg"" width=""175px"" height=""250px""></img>",,,,,,,,,,,,,,,,,,,,,,,,,,,,
118,0,,html-keyboard-response,118,707107,0.0-4.19-1.19,88qa1lu7fxe,2022-09-16 18:28:08.574,5d88f010859c9e0001810e88,2,59,27,25,26,48,female,631.8000000119,,"
  <table>
  <tr height=300>
    <td width=300 height=300><img src=""static/images/cards/back_of_red_stars.svg"" width=""175px"" height=""250px""></img></td>
    <td width=300 height=300><img src=""static/images/cards/back_of_red_stars.svg"" width=""175px"" height=""250px""></img></td>
  </tr>
  <tr height=200>
    <td width=300><img src=""static/images/keys/z.svg"" width=""35%"" height=""75%""></img></td>
    <td width=300></td>
  </tr>
</table>
  ",90.0,1.0,,,,,,,,,,,,,,,,,,,,,,,,,,
119,0,,html-keyboard-response,119,708623,0.0-4.19-2.19,88qa1lu7fxe,2022-09-16 18:28:08.574,5d88f010859c9e0001810e88,2,59,27,25,26,48,female,,,"
  <table>
  <tr height=300>
    <td width=300 height=300><img src=""static/images/cards/1_of_red_stars.svg"" width=""175px"" height=""250px""></img></td>
    <td width=300 height=300><img src=""static/images/cards/back_of_red_stars.svg"" width=""175px"" height=""250px""></img></td>
  </tr>
  <tr height=200>
    <td width=300><img src=""static/images/keys/z.svg"" width=""35%"" height=""75%""></img></td>
    <td width=300></td>
  </tr>
</table>
  ",,,,,,,,,,,,,,,,,,,,,,,,,,,,
120,0,,html-keyboard-response,120,710132,0.0-4.19-3.19,88qa1lu7fxe,2022-09-16 18:28:08.574,5d88f010859c9e0001810e88,2,59,27,25,26,48,female,,,"<p style=""font-size:50px"">You Lose!
No points this round.</p>",,,,,,,,,,,,,,,,,,,,,,,,,,,,
121,0,,html-keyboard-response,121,710639,0.0-4.19-4.19,88qa1lu7fxe,2022-09-16 18:28:08.574,5d88f010859c9e0001810e88,2,59,27,25,26,48,female,,,,,,1.0,learning,19.0,B,,red,,stars,,,,B,red,stars,,0.0,1.0,1,left,631.8000000119,1.0,0.0,0.0,,,
122,0,,html-keyboard-response,122,712148,0.0-4.20-0.20,88qa1lu7fxe,2022-09-16 18:28:08.574,5d88f010859c9e0001810e88,2,59,27,25,26,48,female,,,"<img src=""static/images/cards/stack_of_black_moons.svg"" width=""175px"" height=""250px""></img>",,,,,,,,,,,,,,,,,,,,,,,,,,,,
123,0,,html-keyboard-response,123,713083,0.0-4.20-1.20,88qa1lu7fxe,2022-09-16 18:28:08.574,5d88f010859c9e0001810e88,2,59,27,25,26,48,female,423.099999994,,"
  <table>
  <tr height=300>
    <td width=300 height=300><img src=""static/images/cards/back_of_black_moons.svg"" width=""175px"" height=""250px""></img></td>
    <td width=300 height=300><img src=""static/images/cards/back_of_black_moons.svg"" width=""175px"" height=""250px""></img></td>
  </tr>
  <tr height=200>
    <td width=300><img src=""static/images/keys/z.svg"" width=""35%"" height=""75%""></img></td>
    <td width=300><img src=""static/images/keys/m.svg"" width=""35%"" height=""75%""></img></td>
  </tr>
</table>
  ",77.0,1.0,,,,,,,,,,,,,,,,,,,,,,,,,,
124,0,,html-keyboard-response,124,714599,0.0-4.20-2.20,88qa1lu7fxe,2022-09-16 18:28:08.574,5d88f010859c9e0001810e88,2,59,27,25,26,48,female,,,"
  <table>
  <tr height=300>
    <td width=300 height=300><img src=""static/images/cards/back_of_black_moons.svg"" width=""175px"" height=""250px""></img></td>
    <td width=300 height=300><img src=""static/images/cards/1_of_black_moons.svg"" width=""175px"" height=""250px""></img></td>
  </tr>
  <tr height=200>
    <td width=300><img src=""static/images/keys/z.svg"" width=""35%"" height=""75%""></img></td>
    <td width=300><img src=""static/images/keys/m.svg"" width=""35%"" height=""75%""></img></td>
  </tr>
</table>
  ",,,,,,,,,,,,,,,,,,,,,,,,,,,,
125,0,,html-keyboard-response,125,716118,0.0-4.20-3.20,88qa1lu7fxe,2022-09-16 18:28:08.574,5d88f010859c9e0001810e88,2,59,27,25,26,48,female,,,"<p style=""font-size:50px"">You win!
+10 points this round!</p>",,,,,,,,,,,,,,,,,,,,,,,,,,,,
126,0,,html-keyboard-response,126,716626,0.0-4.20-4.20,88qa1lu7fxe,2022-09-16 18:28:08.574,5d88f010859c9e0001810e88,2,59,27,25,26,48,female,,,,,,1.0,learning,20.0,C,,black,,moons,,,,C,black,moons,,1.0,0.0,NA,right,423.099999994,1.0,0.0,1.0,,,
127,0,,html-keyboard-response,127,718131,0.0-4.21-0.21,88qa1lu7fxe,2022-09-16 18:28:08.574,5d88f010859c9e0001810e88,2,59,27,25,26,48,female,,,"<img src=""static/images/cards/stack_of_red_moons.svg"" width=""175px"" height=""250px""></img>",,,,,,,,,,,,,,,,,,,,,,,,,,,,
128,0,,html-keyboard-response,128,719166,0.0-4.21-1.21,88qa1lu7fxe,2022-09-16 18:28:08.574,5d88f010859c9e0001810e88,2,59,27,25,26,48,female,522.5,,"
  <table>
  <tr height=300>
    <td width=300 height=300><img src=""static/images/cards/back_of_red_moons.svg"" width=""175px"" height=""250px""></img></td>
    <td width=300 height=300><img src=""static/images/cards/back_of_red_moons.svg"" width=""175px"" height=""250px""></img></td>
  </tr>
  <tr height=200>
    <td width=300><img src=""static/images/keys/z.svg"" width=""35%"" height=""75%""></img></td>
    <td width=300></td>
  </tr>
</table>
  ",90.0,1.0,,,,,,,,,,,,,,,,,,,,,,,,,,
129,0,,html-keyboard-response,129,720674,0.0-4.21-2.21,88qa1lu7fxe,2022-09-16 18:28:08.574,5d88f010859c9e0001810e88,2,59,27,25,26,48,female,,,"
  <table>
  <tr height=300>
    <td width=300 height=300><img src=""static/images/cards/4_of_red_moons.svg"" width=""175px"" height=""250px""></img></td>
    <td width=300 height=300><img src=""static/images/cards/back_of_red_moons.svg"" width=""175px"" height=""250px""></img></td>
  </tr>
  <tr height=200>
    <td width=300><img src=""static/images/keys/z.svg"" width=""35%"" height=""75%""></img></td>
    <td width=300></td>
  </tr>
</table>
  ",,,,,,,,,,,,,,,,,,,,,,,,,,,,
130,0,,html-keyboard-response,130,722202,0.0-4.21-3.21,88qa1lu7fxe,2022-09-16 18:28:08.574,5d88f010859c9e0001810e88,2,59,27,25,26,48,female,,,"<p style=""font-size:50px"">You win!
+10 points this round!</p>",,,,,,,,,,,,,,,,,,,,,,,,,,,,
131,0,,html-keyboard-response,131,722720,0.0-4.21-4.21,88qa1lu7fxe,2022-09-16 18:28:08.574,5d88f010859c9e0001810e88,2,59,27,25,26,48,female,,,,,,1.0,learning,21.0,D,,red,,moons,,,,D,red,moons,,0.0,0.0,1,left,522.5,4.0,0.0,1.0,,,
132,0,,html-keyboard-response,132,724225,0.0-4.22-0.22,88qa1lu7fxe,2022-09-16 18:28:08.574,5d88f010859c9e0001810e88,2,59,27,25,26,48,female,,,"<img src=""static/images/cards/stack_of_red_bolts.svg"" width=""175px"" height=""250px""></img>",,,,,,,,,,,,,,,,,,,,,,,,,,,,
133,0,,html-keyboard-response,133,725394,0.0-4.22-1.22,88qa1lu7fxe,2022-09-16 18:28:08.574,5d88f010859c9e0001810e88,2,59,27,25,26,48,female,664.2999999821,,"
  <table>
  <tr height=300>
    <td width=300 height=300><img src=""static/images/cards/back_of_red_bolts.svg"" width=""175px"" height=""250px""></img></td>
    <td width=300 height=300><img src=""static/images/cards/back_of_red_bolts.svg"" width=""175px"" height=""250px""></img></td>
  </tr>
  <tr height=200>
    <td width=300><img src=""static/images/keys/z.svg"" width=""35%"" height=""75%""></img></td>
    <td width=300><img src=""static/images/keys/m.svg"" width=""35%"" height=""75%""></img></td>
  </tr>
</table>
  ",77.0,1.0,,,,,,,,,,,,,,,,,,,,,,,,,,
134,0,,html-keyboard-response,134,726909,0.0-4.22-2.22,88qa1lu7fxe,2022-09-16 18:28:08.574,5d88f010859c9e0001810e88,2,59,27,25,26,48,female,,,"
  <table>
  <tr height=300>
    <td width=300 height=300><img src=""static/images/cards/back_of_red_bolts.svg"" width=""175px"" height=""250px""></img></td>
    <td width=300 height=300><img src=""static/images/cards/3_of_red_bolts.svg"" width=""175px"" height=""250px""></img></td>
  </tr>
  <tr height=200>
    <td width=300><img src=""static/images/keys/z.svg"" width=""35%"" height=""75%""></img></td>
    <td width=300><img src=""static/images/keys/m.svg"" width=""35%"" height=""75%""></img></td>
  </tr>
</table>
  ",,,,,,,,,,,,,,,,,,,,,,,,,,,,
135,0,,html-keyboard-response,135,728417,0.0-4.22-3.22,88qa1lu7fxe,2022-09-16 18:28:08.574,5d88f010859c9e0001810e88,2,59,27,25,26,48,female,,,"<p style=""font-size:50px"">You win!
+10 points this round!</p>",,,,,,,,,,,,,,,,,,,,,,,,,,,,
136,0,,html-keyboard-response,136,728936,0.0-4.22-4.22,88qa1lu7fxe,2022-09-16 18:28:08.574,5d88f010859c9e0001810e88,2,59,27,25,26,48,female,,,,,,1.0,learning,22.0,Xc,,red,,bolts,,,,Xc,red,bolts,,1.0,0.0,NA,right,664.2999999821,3.0,0.0,1.0,,,
137,0,,html-keyboard-response,137,730455,0.0-4.23-0.23,88qa1lu7fxe,2022-09-16 18:28:08.574,5d88f010859c9e0001810e88,2,59,27,25,26,48,female,,,"<img src=""static/images/cards/stack_of_black_bolts.svg"" width=""175px"" height=""250px""></img>",,,,,,,,,,,,,,,,,,,,,,,,,,,,
138,0,,html-keyboard-response,138,731915,0.0-4.23-1.23,88qa1lu7fxe,2022-09-16 18:28:08.574,5d88f010859c9e0001810e88,2,59,27,25,26,48,female,949.099999994,,"
  <table>
  <tr height=300>
    <td width=300 height=300><img src=""static/images/cards/back_of_black_bolts.svg"" width=""175px"" height=""250px""></img></td>
    <td width=300 height=300><img src=""static/images/cards/back_of_black_bolts.svg"" width=""175px"" height=""250px""></img></td>
  </tr>
  <tr height=200>
    <td width=300><img src=""static/images/keys/z.svg"" width=""35%"" height=""75%""></img></td>
    <td width=300></td>
  </tr>
</table>
  ",90.0,1.0,,,,,,,,,,,,,,,,,,,,,,,,,,
139,0,,html-keyboard-response,139,733421,0.0-4.23-2.23,88qa1lu7fxe,2022-09-16 18:28:08.574,5d88f010859c9e0001810e88,2,59,27,25,26,48,female,,,"
  <table>
  <tr height=300>
    <td width=300 height=300><img src=""static/images/cards/7_of_black_bolts.svg"" width=""175px"" height=""250px""></img></td>
    <td width=300 height=300><img src=""static/images/cards/back_of_black_bolts.svg"" width=""175px"" height=""250px""></img></td>
  </tr>
  <tr height=200>
    <td width=300><img src=""static/images/keys/z.svg"" width=""35%"" height=""75%""></img></td>
    <td width=300></td>
  </tr>
</table>
  ",,,,,,,,,,,,,,,,,,,,,,,,,,,,
140,0,,html-keyboard-response,140,734947,0.0-4.23-3.23,88qa1lu7fxe,2022-09-16 18:28:08.574,5d88f010859c9e0001810e88,2,59,27,25,26,48,female,,,"<p style=""font-size:50px"">You win!
+10 points this round!</p>",,,,,,,,,,,,,,,,,,,,,,,,,,,,
141,0,,html-keyboard-response,141,735460,0.0-4.23-4.23,88qa1lu7fxe,2022-09-16 18:28:08.574,5d88f010859c9e0001810e88,2,59,27,25,26,48,female,,,,,,1.0,learning,23.0,Xnc,,black,,bolts,,,,Xnc,black,bolts,,0.0,0.0,1,left,949.099999994,7.0,1.0,1.0,,,
142,0,,call-function,142,735476,0.0-5.0,88qa1lu7fxe,2022-09-16 18:28:08.574,5d88f010859c9e0001810e88,2,59,27,25,26,48,female,,,,,,,,,,,,,,,,,,,,,,,,,,,,,,,
143,0,,image-keyboard-response,143,746020,0.0-6.0-0.0,88qa1lu7fxe,2022-09-16 18:28:08.574,5d88f010859c9e0001810e88,2,59,27,25,26,48,female,10542.599999994,,static/images/instructions_CB_2/Slide20.png,39.0,,,,,,,,,,,,,,,,,,,,,,,,,,,
144,0,,image-keyboard-response,144,788922,0.0-6.1-0.1,88qa1lu7fxe,2022-09-16 18:28:08.574,5d88f010859c9e0001810e88,2,59,27,25,26,48,female,42901.0,,static/images/instructions_CB_2/Slide21.png,37.0,,,,,,,,,,,,,,,,,,,,,,,,,,,
145,0,,image-keyboard-response,145,792728,0.0-6.2-0.2,88qa1lu7fxe,2022-09-16 18:28:08.574,5d88f010859c9e0001810e88,2,59,27,25,26,48,female,3805.3000000119,,static/images/instructions_CB_2/Slide20.png,39.0,,,,,,,,,,,,,,,,,,,,,,,,,,,
146,0,,image-keyboard-response,146,803213,0.0-6.3-0.3,88qa1lu7fxe,2022-09-16 18:28:08.574,5d88f010859c9e0001810e88,2,59,27,25,26,48,female,10482.7999999821,,static/images/instructions_CB_2/Slide21.png,39.0,,,,,,,,,,,,,,,,,,,,,,,,,,,
147,0,,image-keyboard-response,147,815286,0.0-6.4-0.4,88qa1lu7fxe,2022-09-16 18:28:08.574,5d88f010859c9e0001810e88,2,59,27,25,26,48,female,12071.400000006,,static/images/instructions_CB_2/Slide22.png,39.0,,,,,,,,,,,,,,,,,,,,,,,,,,,
148,0,,image-keyboard-response,148,872585,0.0-6.5-0.5,88qa1lu7fxe,2022-09-16 18:28:08.574,5d88f010859c9e0001810e88,2,59,27,25,26,48,female,57298.2999999821,,static/images/instructions_CB_2/Slide23.png,39.0,,,,,,,,,,,,,,,,,,,,,,,,,,,
149,0,,image-keyboard-response,149,877174,0.0-6.6-0.6,88qa1lu7fxe,2022-09-16 18:28:08.574,5d88f010859c9e0001810e88,2,59,27,25,26,48,female,4587.0,,static/images/instructions_CB_2/Slide24.png,39.0,,,,,,,,,,,,,,,,,,,,,,,,,,,
150,0,,html-keyboard-response,150,879005,0.0-7.0-0.0,88qa1lu7fxe,2022-09-16 18:28:08.574,5d88f010859c9e0001810e88,2,59,27,25,26,48,female,1828.1999999881,,"
  <table>
  <tr height=300>
    <td width=300 height=300><img src=""static/images/cards/stack_of_black_stars.svg"" width=""175px"" height=""250px""></img></td>
    <td width=300 height=300><img src=""static/images/cards/stack_of_red_moons.svg"" width=""175px"" height=""250px""></img></td>
  </tr>
  <tr height=200>
    <td width=300><img src=""static/images/keys/w.svg"" width=""35%"" height=""75%""></img></td>
    <td width=300><img src=""static/images/keys/o.svg"" width=""35%"" height=""75%""></img></td>
  </tr>
</table>
  ",79.0,1.0,,,,,,,,,,,,,,,,,,,,,,,,,,
151,0,,html-keyboard-response,151,880117,0.0-7.0-1.0,88qa1lu7fxe,2022-09-16 18:28:08.574,5d88f010859c9e0001810e88,2,59,27,25,26,48,female,603.7999999821,,"
  <table>
  <tr height=300>
    <td width=300 height=300><img src=""static/images/cards/back_of_red_moons.svg"" width=""175px"" height=""250px""></img></td>
    <td width=300 height=300><img src=""static/images/cards/back_of_red_moons.svg"" width=""175px"" height=""250px""></img></td>
  </tr>
  <tr height=200>
    <td width=300></td>
    <td width=300><img src=""static/images/keys/m.svg"" width=""35%"" height=""75%""></img></td>
  </tr>
</table>
  ",77.0,1.0,,,,,,,,,,,,,,,,,,,,,,,,,,
152,0,,html-keyboard-response,152,881626,0.0-7.0-2.0,88qa1lu7fxe,2022-09-16 18:28:08.574,5d88f010859c9e0001810e88,2,59,27,25,26,48,female,,,"
  <table>
  <tr height=300>
    <td width=300 height=300><img src=""static/images/cards/back_of_red_moons.svg"" width=""175px"" height=""250px""></img></td>
    <td width=300 height=300><img src=""static/images/cards/3_of_red_moons.svg"" width=""175px"" height=""250px""></img></td>
  </tr>
  <tr height=200>
    <td width=300></td>
    <td width=300><img src=""static/images/keys/m.svg"" width=""35%"" height=""75%""></img></td>
  </tr>
</table>
  ",,,,,,,,,,,,,,,,,,,,,,,,,,,,
153,0,,html-keyboard-response,153,883157,0.0-7.0-3.0,88qa1lu7fxe,2022-09-16 18:28:08.574,5d88f010859c9e0001810e88,2,59,27,25,26,48,female,,,"<p style=""font-size:50px"">You win!
+10 points this round!</p>",,,,,,,,,,,,,,,,,,,,,,,,,,,,
154,0,,html-keyboard-response,154,883666,0.0-7.0-4.0,88qa1lu7fxe,2022-09-16 18:28:08.574,5d88f010859c9e0001810e88,2,59,27,25,26,48,female,,,,,,1.0,choice,0.0,A,D,black,red,stars,moons,A,D,D,red,moons,1828.1999999881,0.0,0.0,0,right,603.7999999821,3.0,0.0,1.0,,,
155,0,,html-keyboard-response,155,884772,0.0-7.1-0.1,88qa1lu7fxe,2022-09-16 18:28:08.574,5d88f010859c9e0001810e88,2,59,27,25,26,48,female,1103.5,,"
  <table>
  <tr height=300>
    <td width=300 height=300><img src=""static/images/cards/stack_of_black_stars.svg"" width=""175px"" height=""250px""></img></td>
    <td width=300 height=300><img src=""static/images/cards/stack_of_red_moons.svg"" width=""175px"" height=""250px""></img></td>
  </tr>
  <tr height=200>
    <td width=300><img src=""static/images/keys/w.svg"" width=""35%"" height=""75%""></img></td>
    <td width=300><img src=""static/images/keys/o.svg"" width=""35%"" height=""75%""></img></td>
  </tr>
</table>
  ",87.0,1.0,,,,,,,,,,,,,,,,,,,,,,,,,,
156,0,,html-keyboard-response,156,886248,0.0-7.1-1.1,88qa1lu7fxe,2022-09-16 18:28:08.574,5d88f010859c9e0001810e88,2,59,27,25,26,48,female,961.5,,"
  <table>
  <tr height=300>
    <td width=300 height=300><img src=""static/images/cards/back_of_black_stars.svg"" width=""175px"" height=""250px""></img></td>
    <td width=300 height=300><img src=""static/images/cards/back_of_black_stars.svg"" width=""175px"" height=""250px""></img></td>
  </tr>
  <tr height=200>
    <td width=300><img src=""static/images/keys/z.svg"" width=""35%"" height=""75%""></img></td>
    <td width=300><img src=""static/images/keys/m.svg"" width=""35%"" height=""75%""></img></td>
  </tr>
</table>
  ",77.0,1.0,,,,,,,,,,,,,,,,,,,,,,,,,,
157,0,,html-keyboard-response,157,887765,0.0-7.1-2.1,88qa1lu7fxe,2022-09-16 18:28:08.574,5d88f010859c9e0001810e88,2,59,27,25,26,48,female,,,"
  <table>
  <tr height=300>
    <td width=300 height=300><img src=""static/images/cards/back_of_black_stars.svg"" width=""175px"" height=""250px""></img></td>
    <td width=300 height=300><img src=""static/images/cards/2_of_black_stars.svg"" width=""175px"" height=""250px""></img></td>
  </tr>
  <tr height=200>
    <td width=300><img src=""static/images/keys/z.svg"" width=""35%"" height=""75%""></img></td>
    <td width=300><img src=""static/images/keys/m.svg"" width=""35%"" height=""75%""></img></td>
  </tr>
</table>
  ",,,,,,,,,,,,,,,,,,,,,,,,,,,,
158,0,,html-keyboard-response,158,889294,0.0-7.1-3.1,88qa1lu7fxe,2022-09-16 18:28:08.574,5d88f010859c9e0001810e88,2,59,27,25,26,48,female,,,"<p style=""font-size:50px"">You Lose!
No points this round.</p>",,,,,,,,,,,,,,,,,,,,,,,,,,,,
159,0,,html-keyboard-response,159,889803,0.0-7.1-4.1,88qa1lu7fxe,2022-09-16 18:28:08.574,5d88f010859c9e0001810e88,2,59,27,25,26,48,female,,,,,,1.0,choice,1.0,A,D,black,red,stars,moons,A,D,A,black,stars,1103.5,1.0,1.0,NA,right,961.5,2.0,0.0,0.0,,,
160,0,,html-keyboard-response,160,890910,0.0-7.2-0.2,88qa1lu7fxe,2022-09-16 18:28:08.574,5d88f010859c9e0001810e88,2,59,27,25,26,48,female,1106.1000000238,,"
  <table>
  <tr height=300>
    <td width=300 height=300><img src=""static/images/cards/stack_of_red_stars.svg"" width=""175px"" height=""250px""></img></td>
    <td width=300 height=300><img src=""static/images/cards/stack_of_red_moons.svg"" width=""175px"" height=""250px""></img></td>
  </tr>
  <tr height=200>
    <td width=300><img src=""static/images/keys/w.svg"" width=""35%"" height=""75%""></img></td>
    <td width=300><img src=""static/images/keys/o.svg"" width=""35%"" height=""75%""></img></td>
  </tr>
</table>
  ",79.0,1.0,,,,,,,,,,,,,,,,,,,,,,,,,,
161,0,,html-keyboard-response,161,891954,0.0-7.2-1.2,88qa1lu7fxe,2022-09-16 18:28:08.574,5d88f010859c9e0001810e88,2,59,27,25,26,48,female,539.099999994,,"
  <table>
  <tr height=300>
    <td width=300 height=300><img src=""static/images/cards/back_of_red_moons.svg"" width=""175px"" height=""250px""></img></td>
    <td width=300 height=300><img src=""static/images/cards/back_of_red_moons.svg"" width=""175px"" height=""250px""></img></td>
  </tr>
  <tr height=200>
    <td width=300></td>
    <td width=300><img src=""static/images/keys/m.svg"" width=""35%"" height=""75%""></img></td>
  </tr>
</table>
  ",77.0,1.0,,,,,,,,,,,,,,,,,,,,,,,,,,
162,0,,html-keyboard-response,162,893471,0.0-7.2-2.2,88qa1lu7fxe,2022-09-16 18:28:08.574,5d88f010859c9e0001810e88,2,59,27,25,26,48,female,,,"
  <table>
  <tr height=300>
    <td width=300 height=300><img src=""static/images/cards/back_of_red_moons.svg"" width=""175px"" height=""250px""></img></td>
    <td width=300 height=300><img src=""static/images/cards/1_of_red_moons.svg"" width=""175px"" height=""250px""></img></td>
  </tr>
  <tr height=200>
    <td width=300></td>
    <td width=300><img src=""static/images/keys/m.svg"" width=""35%"" height=""75%""></img></td>
  </tr>
</table>
  ",,,,,,,,,,,,,,,,,,,,,,,,,,,,
163,0,,html-keyboard-response,163,894991,0.0-7.2-3.2,88qa1lu7fxe,2022-09-16 18:28:08.574,5d88f010859c9e0001810e88,2,59,27,25,26,48,female,,,"<p style=""font-size:50px"">You win!
+10 points this round!</p>",,,,,,,,,,,,,,,,,,,,,,,,,,,,
164,0,,html-keyboard-response,164,895514,0.0-7.2-4.2,88qa1lu7fxe,2022-09-16 18:28:08.574,5d88f010859c9e0001810e88,2,59,27,25,26,48,female,,,,,,1.0,choice,2.0,B,D,red,red,stars,moons,B,D,D,red,moons,1106.1000000238,0.0,0.0,0,right,539.099999994,1.0,0.0,1.0,,,
165,0,,html-keyboard-response,165,896313,0.0-7.3-0.3,88qa1lu7fxe,2022-09-16 18:28:08.574,5d88f010859c9e0001810e88,2,59,27,25,26,48,female,796.0,,"
  <table>
  <tr height=300>
    <td width=300 height=300><img src=""static/images/cards/stack_of_black_moons.svg"" width=""175px"" height=""250px""></img></td>
    <td width=300 height=300><img src=""static/images/cards/stack_of_red_stars.svg"" width=""175px"" height=""250px""></img></td>
  </tr>
  <tr height=200>
    <td width=300><img src=""static/images/keys/w.svg"" width=""35%"" height=""75%""></img></td>
    <td width=300><img src=""static/images/keys/o.svg"" width=""35%"" height=""75%""></img></td>
  </tr>
</table>
  ",79.0,1.0,,,,,,,,,,,,,,,,,,,,,,,,,,
166,0,,html-keyboard-response,166,897379,0.0-7.3-1.3,88qa1lu7fxe,2022-09-16 18:28:08.574,5d88f010859c9e0001810e88,2,59,27,25,26,48,female,554.6999999881,,"
  <table>
  <tr height=300>
    <td width=300 height=300><img src=""static/images/cards/back_of_red_stars.svg"" width=""175px"" height=""250px""></img></td>
    <td width=300 height=300><img src=""static/images/cards/back_of_red_stars.svg"" width=""175px"" height=""250px""></img></td>
  </tr>
  <tr height=200>
    <td width=300></td>
    <td width=300><img src=""static/images/keys/m.svg"" width=""35%"" height=""75%""></img></td>
  </tr>
</table>
  ",77.0,1.0,,,,,,,,,,,,,,,,,,,,,,,,,,
167,0,,html-keyboard-response,167,898886,0.0-7.3-2.3,88qa1lu7fxe,2022-09-16 18:28:08.574,5d88f010859c9e0001810e88,2,59,27,25,26,48,female,,,"
  <table>
  <tr height=300>
    <td width=300 height=300><img src=""static/images/cards/back_of_red_stars.svg"" width=""175px"" height=""250px""></img></td>
    <td width=300 height=300><img src=""static/images/cards/2_of_red_stars.svg"" width=""175px"" height=""250px""></img></td>
  </tr>
  <tr height=200>
    <td width=300></td>
    <td width=300><img src=""static/images/keys/m.svg"" width=""35%"" height=""75%""></img></td>
  </tr>
</table>
  ",,,,,,,,,,,,,,,,,,,,,,,,,,,,
168,0,,html-keyboard-response,168,900398,0.0-7.3-3.3,88qa1lu7fxe,2022-09-16 18:28:08.574,5d88f010859c9e0001810e88,2,59,27,25,26,48,female,,,"<p style=""font-size:50px"">You Lose!
No points this round.</p>",,,,,,,,,,,,,,,,,,,,,,,,,,,,
169,0,,html-keyboard-response,169,900910,0.0-7.3-4.3,88qa1lu7fxe,2022-09-16 18:28:08.574,5d88f010859c9e0001810e88,2,59,27,25,26,48,female,,,,,,1.0,choice,3.0,B,C,black,red,moons,stars,C,B,B,red,stars,796.0,0.0,1.0,0,right,554.6999999881,2.0,0.0,0.0,,,
170,0,,html-keyboard-response,170,901865,0.0-7.4-0.4,88qa1lu7fxe,2022-09-16 18:28:08.574,5d88f010859c9e0001810e88,2,59,27,25,26,48,female,953.599999994,,"
  <table>
  <tr height=300>
    <td width=300 height=300><img src=""static/images/cards/stack_of_black_bolts.svg"" width=""175px"" height=""250px""></img></td>
    <td width=300 height=300><img src=""static/images/cards/stack_of_black_stars.svg"" width=""175px"" height=""250px""></img></td>
  </tr>
  <tr height=200>
    <td width=300><img src=""static/images/keys/w.svg"" width=""35%"" height=""75%""></img></td>
    <td width=300><img src=""static/images/keys/o.svg"" width=""35%"" height=""75%""></img></td>
  </tr>
</table>
  ",87.0,1.0,,,,,,,,,,,,,,,,,,,,,,,,,,
171,0,,html-keyboard-response,171,903066,0.0-7.4-1.4,88qa1lu7fxe,2022-09-16 18:28:08.574,5d88f010859c9e0001810e88,2,59,27,25,26,48,female,674.8000000119,,"
  <table>
  <tr height=300>
    <td width=300 height=300><img src=""static/images/cards/back_of_black_bolts.svg"" width=""175px"" height=""250px""></img></td>
    <td width=300 height=300><img src=""static/images/cards/back_of_black_bolts.svg"" width=""175px"" height=""250px""></img></td>
  </tr>
  <tr height=200>
    <td width=300></td>
    <td width=300><img src=""static/images/keys/m.svg"" width=""35%"" height=""75%""></img></td>
  </tr>
</table>
  ",77.0,1.0,,,,,,,,,,,,,,,,,,,,,,,,,,
172,0,,html-keyboard-response,172,904569,0.0-7.4-2.4,88qa1lu7fxe,2022-09-16 18:28:08.574,5d88f010859c9e0001810e88,2,59,27,25,26,48,female,,,"
  <table>
  <tr height=300>
    <td width=300 height=300><img src=""static/images/cards/back_of_black_bolts.svg"" width=""175px"" height=""250px""></img></td>
    <td width=300 height=300><img src=""static/images/cards/6_of_black_bolts.svg"" width=""175px"" height=""250px""></img></td>
  </tr>
  <tr height=200>
    <td width=300></td>
    <td width=300><img src=""static/images/keys/m.svg"" width=""35%"" height=""75%""></img></td>
  </tr>
</table>
  ",,,,,,,,,,,,,,,,,,,,,,,,,,,,
173,0,,html-keyboard-response,173,906081,0.0-7.4-3.4,88qa1lu7fxe,2022-09-16 18:28:08.574,5d88f010859c9e0001810e88,2,59,27,25,26,48,female,,,"<p style=""font-size:50px"">You win!
+10 points this round!</p>",,,,,,,,,,,,,,,,,,,,,,,,,,,,
174,0,,html-keyboard-response,174,906594,0.0-7.4-4.4,88qa1lu7fxe,2022-09-16 18:28:08.574,5d88f010859c9e0001810e88,2,59,27,25,26,48,female,,,,,,1.0,choice,4.0,A,Xnc,black,black,bolts,stars,Xnc,A,Xnc,black,bolts,953.599999994,0.0,0.0,0,right,674.8000000119,6.0,1.0,1.0,,,
175,0,,html-keyboard-response,175,907479,0.0-7.5-0.5,88qa1lu7fxe,2022-09-16 18:28:08.574,5d88f010859c9e0001810e88,2,59,27,25,26,48,female,882.0,,"
  <table>
  <tr height=300>
    <td width=300 height=300><img src=""static/images/cards/stack_of_black_moons.svg"" width=""175px"" height=""250px""></img></td>
    <td width=300 height=300><img src=""static/images/cards/stack_of_black_bolts.svg"" width=""175px"" height=""250px""></img></td>
  </tr>
  <tr height=200>
    <td width=300><img src=""static/images/keys/w.svg"" width=""35%"" height=""75%""></img></td>
    <td width=300><img src=""static/images/keys/o.svg"" width=""35%"" height=""75%""></img></td>
  </tr>
</table>
  ",79.0,1.0,,,,,,,,,,,,,,,,,,,,,,,,,,
176,0,,html-keyboard-response,176,908527,0.0-7.5-1.5,88qa1lu7fxe,2022-09-16 18:28:08.574,5d88f010859c9e0001810e88,2,59,27,25,26,48,female,531.7999999821,,"
  <table>
  <tr height=300>
    <td width=300 height=300><img src=""static/images/cards/back_of_black_bolts.svg"" width=""175px"" height=""250px""></img></td>
    <td width=300 height=300><img src=""static/images/cards/back_of_black_bolts.svg"" width=""175px"" height=""250px""></img></td>
  </tr>
  <tr height=200>
    <td width=300></td>
    <td width=300><img src=""static/images/keys/m.svg"" width=""35%"" height=""75%""></img></td>
  </tr>
</table>
  ",77.0,1.0,,,,,,,,,,,,,,,,,,,,,,,,,,
177,0,,html-keyboard-response,177,910039,0.0-7.5-2.5,88qa1lu7fxe,2022-09-16 18:28:08.574,5d88f010859c9e0001810e88,2,59,27,25,26,48,female,,,"
  <table>
  <tr height=300>
    <td width=300 height=300><img src=""static/images/cards/back_of_black_bolts.svg"" width=""175px"" height=""250px""></img></td>
    <td width=300 height=300><img src=""static/images/cards/2_of_black_bolts.svg"" width=""175px"" height=""250px""></img></td>
  </tr>
  <tr height=200>
    <td width=300></td>
    <td width=300><img src=""static/images/keys/m.svg"" width=""35%"" height=""75%""></img></td>
  </tr>
</table>
  ",,,,,,,,,,,,,,,,,,,,,,,,,,,,
178,0,,html-keyboard-response,178,911552,0.0-7.5-3.5,88qa1lu7fxe,2022-09-16 18:28:08.574,5d88f010859c9e0001810e88,2,59,27,25,26,48,female,,,"<p style=""font-size:50px"">You win!
+10 points this round!</p>",,,,,,,,,,,,,,,,,,,,,,,,,,,,
179,0,,html-keyboard-response,179,912063,0.0-7.5-4.5,88qa1lu7fxe,2022-09-16 18:28:08.574,5d88f010859c9e0001810e88,2,59,27,25,26,48,female,,,,,,1.0,choice,5.0,C,Xnc,black,black,moons,bolts,C,Xnc,Xnc,black,bolts,882.0,0.0,0.0,0,right,531.7999999821,2.0,0.0,1.0,,,
180,0,,html-keyboard-response,180,913380,0.0-7.6-0.6,88qa1lu7fxe,2022-09-16 18:28:08.574,5d88f010859c9e0001810e88,2,59,27,25,26,48,female,1315.5,,"
  <table>
  <tr height=300>
    <td width=300 height=300><img src=""static/images/cards/stack_of_red_stars.svg"" width=""175px"" height=""250px""></img></td>
    <td width=300 height=300><img src=""static/images/cards/stack_of_black_moons.svg"" width=""175px"" height=""250px""></img></td>
  </tr>
  <tr height=200>
    <td width=300><img src=""static/images/keys/w.svg"" width=""35%"" height=""75%""></img></td>
    <td width=300><img src=""static/images/keys/o.svg"" width=""35%"" height=""75%""></img></td>
  </tr>
</table>
  ",79.0,1.0,,,,,,,,,,,,,,,,,,,,,,,,,,
181,0,,html-keyboard-response,181,914510,0.0-7.6-1.6,88qa1lu7fxe,2022-09-16 18:28:08.574,5d88f010859c9e0001810e88,2,59,27,25,26,48,female,621.6999999881,,"
  <table>
  <tr height=300>
    <td width=300 height=300><img src=""static/images/cards/back_of_black_moons.svg"" width=""175px"" height=""250px""></img></td>
    <td width=300 height=300><img src=""static/images/cards/back_of_black_moons.svg"" width=""175px"" height=""250px""></img></td>
  </tr>
  <tr height=200>
    <td width=300><img src=""static/images/keys/z.svg"" width=""35%"" height=""75%""></img></td>
    <td width=300><img src=""static/images/keys/m.svg"" width=""35%"" height=""75%""></img></td>
  </tr>
</table>
  ",77.0,1.0,,,,,,,,,,,,,,,,,,,,,,,,,,
182,0,,html-keyboard-response,182,916028,0.0-7.6-2.6,88qa1lu7fxe,2022-09-16 18:28:08.574,5d88f010859c9e0001810e88,2,59,27,25,26,48,female,,,"
  <table>
  <tr height=300>
    <td width=300 height=300><img src=""static/images/cards/back_of_black_moons.svg"" width=""175px"" height=""250px""></img></td>
    <td width=300 height=300><img src=""static/images/cards/3_of_black_moons.svg"" width=""175px"" height=""250px""></img></td>
  </tr>
  <tr height=200>
    <td width=300><img src=""static/images/keys/z.svg"" width=""35%"" height=""75%""></img></td>
    <td width=300><img src=""static/images/keys/m.svg"" width=""35%"" height=""75%""></img></td>
  </tr>
</table>
  ",,,,,,,,,,,,,,,,,,,,,,,,,,,,
183,0,,html-keyboard-response,183,917540,0.0-7.6-3.6,88qa1lu7fxe,2022-09-16 18:28:08.574,5d88f010859c9e0001810e88,2,59,27,25,26,48,female,,,"<p style=""font-size:50px"">You Lose!
No points this round.</p>",,,,,,,,,,,,,,,,,,,,,,,,,,,,
184,0,,html-keyboard-response,184,918058,0.0-7.6-4.6,88qa1lu7fxe,2022-09-16 18:28:08.574,5d88f010859c9e0001810e88,2,59,27,25,26,48,female,,,,,,1.0,choice,6.0,B,C,red,black,stars,moons,B,C,C,black,moons,1315.5,1.0,0.0,NA,right,621.6999999881,3.0,0.0,0.0,,,
185,0,,html-keyboard-response,185,919340,0.0-7.7-0.7,88qa1lu7fxe,2022-09-16 18:28:08.574,5d88f010859c9e0001810e88,2,59,27,25,26,48,female,1279.5,,"
  <table>
  <tr height=300>
    <td width=300 height=300><img src=""static/images/cards/stack_of_black_moons.svg"" width=""175px"" height=""250px""></img></td>
    <td width=300 height=300><img src=""static/images/cards/stack_of_black_stars.svg"" width=""175px"" height=""250px""></img></td>
  </tr>
  <tr height=200>
    <td width=300><img src=""static/images/keys/w.svg"" width=""35%"" height=""75%""></img></td>
    <td width=300><img src=""static/images/keys/o.svg"" width=""35%"" height=""75%""></img></td>
  </tr>
</table>
  ",79.0,1.0,,,,,,,,,,,,,,,,,,,,,,,,,,
186,0,,html-keyboard-response,186,920308,0.0-7.7-1.7,88qa1lu7fxe,2022-09-16 18:28:08.574,5d88f010859c9e0001810e88,2,59,27,25,26,48,female,458.599999994,,"
  <table>
  <tr height=300>
    <td width=300 height=300><img src=""static/images/cards/back_of_black_stars.svg"" width=""175px"" height=""250px""></img></td>
    <td width=300 height=300><img src=""static/images/cards/back_of_black_stars.svg"" width=""175px"" height=""250px""></img></td>
  </tr>
  <tr height=200>
    <td width=300><img src=""static/images/keys/z.svg"" width=""35%"" height=""75%""></img></td>
    <td width=300><img src=""static/images/keys/m.svg"" width=""35%"" height=""75%""></img></td>
  </tr>
</table>
  ",77.0,1.0,,,,,,,,,,,,,,,,,,,,,,,,,,
187,0,,html-keyboard-response,187,921814,0.0-7.7-2.7,88qa1lu7fxe,2022-09-16 18:28:08.574,5d88f010859c9e0001810e88,2,59,27,25,26,48,female,,,"
  <table>
  <tr height=300>
    <td width=300 height=300><img src=""static/images/cards/back_of_black_stars.svg"" width=""175px"" height=""250px""></img></td>
    <td width=300 height=300><img src=""static/images/cards/10_of_black_stars.svg"" width=""175px"" height=""250px""></img></td>
  </tr>
  <tr height=200>
    <td width=300><img src=""static/images/keys/z.svg"" width=""35%"" height=""75%""></img></td>
    <td width=300><img src=""static/images/keys/m.svg"" width=""35%"" height=""75%""></img></td>
  </tr>
</table>
  ",,,,,,,,,,,,,,,,,,,,,,,,,,,,
188,0,,html-keyboard-response,188,923337,0.0-7.7-3.7,88qa1lu7fxe,2022-09-16 18:28:08.574,5d88f010859c9e0001810e88,2,59,27,25,26,48,female,,,"<p style=""font-size:50px"">You win!
+10 points this round!</p>",,,,,,,,,,,,,,,,,,,,,,,,,,,,
189,0,,html-keyboard-response,189,923852,0.0-7.7-4.7,88qa1lu7fxe,2022-09-16 18:28:08.574,5d88f010859c9e0001810e88,2,59,27,25,26,48,female,,,,,,1.0,choice,7.0,A,C,black,black,moons,stars,C,A,A,black,stars,1279.5,1.0,1.0,NA,right,458.599999994,10.0,1.0,1.0,,,
190,0,,html-keyboard-response,190,925743,0.0-7.8-0.8,88qa1lu7fxe,2022-09-16 18:28:08.574,5d88f010859c9e0001810e88,2,59,27,25,26,48,female,1889.400000006,,"
  <table>
  <tr height=300>
    <td width=300 height=300><img src=""static/images/cards/stack_of_black_moons.svg"" width=""175px"" height=""250px""></img></td>
    <td width=300 height=300><img src=""static/images/cards/stack_of_red_moons.svg"" width=""175px"" height=""250px""></img></td>
  </tr>
  <tr height=200>
    <td width=300><img src=""static/images/keys/w.svg"" width=""35%"" height=""75%""></img></td>
    <td width=300><img src=""static/images/keys/o.svg"" width=""35%"" height=""75%""></img></td>
  </tr>
</table>
  ",79.0,1.0,,,,,,,,,,,,,,,,,,,,,,,,,,
191,0,,html-keyboard-response,191,926733,0.0-7.8-1.8,88qa1lu7fxe,2022-09-16 18:28:08.574,5d88f010859c9e0001810e88,2,59,27,25,26,48,female,487.8000000119,,"
  <table>
  <tr height=300>
    <td width=300 height=300><img src=""static/images/cards/back_of_red_moons.svg"" width=""175px"" height=""250px""></img></td>
    <td width=300 height=300><img src=""static/images/cards/back_of_red_moons.svg"" width=""175px"" height=""250px""></img></td>
  </tr>
  <tr height=200>
    <td width=300></td>
    <td width=300><img src=""static/images/keys/m.svg"" width=""35%"" height=""75%""></img></td>
  </tr>
</table>
  ",77.0,1.0,,,,,,,,,,,,,,,,,,,,,,,,,,
192,0,,html-keyboard-response,192,928247,0.0-7.8-2.8,88qa1lu7fxe,2022-09-16 18:28:08.574,5d88f010859c9e0001810e88,2,59,27,25,26,48,female,,,"
  <table>
  <tr height=300>
    <td width=300 height=300><img src=""static/images/cards/back_of_red_moons.svg"" width=""175px"" height=""250px""></img></td>
    <td width=300 height=300><img src=""static/images/cards/2_of_red_moons.svg"" width=""175px"" height=""250px""></img></td>
  </tr>
  <tr height=200>
    <td width=300></td>
    <td width=300><img src=""static/images/keys/m.svg"" width=""35%"" height=""75%""></img></td>
  </tr>
</table>
  ",,,,,,,,,,,,,,,,,,,,,,,,,,,,
193,0,,html-keyboard-response,193,929765,0.0-7.8-3.8,88qa1lu7fxe,2022-09-16 18:28:08.574,5d88f010859c9e0001810e88,2,59,27,25,26,48,female,,,"<p style=""font-size:50px"">You Lose!
No points this round.</p>",,,,,,,,,,,,,,,,,,,,,,,,,,,,
194,0,,html-keyboard-response,194,930279,0.0-7.8-4.8,88qa1lu7fxe,2022-09-16 18:28:08.574,5d88f010859c9e0001810e88,2,59,27,25,26,48,female,,,,,,1.0,choice,8.0,C,D,black,red,moons,moons,C,D,D,red,moons,1889.400000006,0.0,0.0,0,right,487.8000000119,2.0,0.0,0.0,,,
195,0,,html-keyboard-response,195,931056,0.0-7.9-0.9,88qa1lu7fxe,2022-09-16 18:28:08.574,5d88f010859c9e0001810e88,2,59,27,25,26,48,female,775.599999994,,"
  <table>
  <tr height=300>
    <td width=300 height=300><img src=""static/images/cards/stack_of_red_moons.svg"" width=""175px"" height=""250px""></img></td>
    <td width=300 height=300><img src=""static/images/cards/stack_of_red_stars.svg"" width=""175px"" height=""250px""></img></td>
  </tr>
  <tr height=200>
    <td width=300><img src=""static/images/keys/w.svg"" width=""35%"" height=""75%""></img></td>
    <td width=300><img src=""static/images/keys/o.svg"" width=""35%"" height=""75%""></img></td>
  </tr>
</table>
  ",79.0,1.0,,,,,,,,,,,,,,,,,,,,,,,,,,
196,0,,html-keyboard-response,196,932269,0.0-7.9-1.9,88qa1lu7fxe,2022-09-16 18:28:08.574,5d88f010859c9e0001810e88,2,59,27,25,26,48,female,709.099999994,,"
  <table>
  <tr height=300>
    <td width=300 height=300><img src=""static/images/cards/back_of_red_stars.svg"" width=""175px"" height=""250px""></img></td>
    <td width=300 height=300><img src=""static/images/cards/back_of_red_stars.svg"" width=""175px"" height=""250px""></img></td>
  </tr>
  <tr height=200>
    <td width=300><img src=""static/images/keys/z.svg"" width=""35%"" height=""75%""></img></td>
    <td width=300></td>
  </tr>
</table>
  ",90.0,1.0,,,,,,,,,,,,,,,,,,,,,,,,,,
197,0,,html-keyboard-response,197,933787,0.0-7.9-2.9,88qa1lu7fxe,2022-09-16 18:28:08.574,5d88f010859c9e0001810e88,2,59,27,25,26,48,female,,,"
  <table>
  <tr height=300>
    <td width=300 height=300><img src=""static/images/cards/7_of_red_stars.svg"" width=""175px"" height=""250px""></img></td>
    <td width=300 height=300><img src=""static/images/cards/back_of_red_stars.svg"" width=""175px"" height=""250px""></img></td>
  </tr>
  <tr height=200>
    <td width=300><img src=""static/images/keys/z.svg"" width=""35%"" height=""75%""></img></td>
    <td width=300></td>
  </tr>
</table>
  ",,,,,,,,,,,,,,,,,,,,,,,,,,,,
198,0,,html-keyboard-response,198,935309,0.0-7.9-3.9,88qa1lu7fxe,2022-09-16 18:28:08.574,5d88f010859c9e0001810e88,2,59,27,25,26,48,female,,,"<p style=""font-size:50px"">You win!
+10 points this round!</p>",,,,,,,,,,,,,,,,,,,,,,,,,,,,
199,0,,html-keyboard-response,199,935816,0.0-7.9-4.9,88qa1lu7fxe,2022-09-16 18:28:08.574,5d88f010859c9e0001810e88,2,59,27,25,26,48,female,,,,,,1.0,choice,9.0,B,D,red,red,moons,stars,D,B,B,red,stars,775.599999994,0.0,1.0,1,left,709.099999994,7.0,1.0,1.0,,,
200,0,,html-keyboard-response,200,936510,0.0-7.10-0.10,88qa1lu7fxe,2022-09-16 18:28:08.574,5d88f010859c9e0001810e88,2,59,27,25,26,48,female,691.400000006,,"
  <table>
  <tr height=300>
    <td width=300 height=300><img src=""static/images/cards/stack_of_red_stars.svg"" width=""175px"" height=""250px""></img></td>
    <td width=300 height=300><img src=""static/images/cards/stack_of_black_bolts.svg"" width=""175px"" height=""250px""></img></td>
  </tr>
  <tr height=200>
    <td width=300><img src=""static/images/keys/w.svg"" width=""35%"" height=""75%""></img></td>
    <td width=300><img src=""static/images/keys/o.svg"" width=""35%"" height=""75%""></img></td>
  </tr>
</table>
  ",79.0,1.0,,,,,,,,,,,,,,,,,,,,,,,,,,
201,0,,html-keyboard-response,201,937429,0.0-7.10-1.10,88qa1lu7fxe,2022-09-16 18:28:08.574,5d88f010859c9e0001810e88,2,59,27,25,26,48,female,394.3000000119,,"
  <table>
  <tr height=300>
    <td width=300 height=300><img src=""static/images/cards/back_of_black_bolts.svg"" width=""175px"" height=""250px""></img></td>
    <td width=300 height=300><img src=""static/images/cards/back_of_black_bolts.svg"" width=""175px"" height=""250px""></img></td>
  </tr>
  <tr height=200>
    <td width=300></td>
    <td width=300><img src=""static/images/keys/m.svg"" width=""35%"" height=""75%""></img></td>
  </tr>
</table>
  ",77.0,1.0,,,,,,,,,,,,,,,,,,,,,,,,,,
202,0,,html-keyboard-response,202,938947,0.0-7.10-2.10,88qa1lu7fxe,2022-09-16 18:28:08.574,5d88f010859c9e0001810e88,2,59,27,25,26,48,female,,,"
  <table>
  <tr height=300>
    <td width=300 height=300><img src=""static/images/cards/back_of_black_bolts.svg"" width=""175px"" height=""250px""></img></td>
    <td width=300 height=300><img src=""static/images/cards/9_of_black_bolts.svg"" width=""175px"" height=""250px""></img></td>
  </tr>
  <tr height=200>
    <td width=300></td>
    <td width=300><img src=""static/images/keys/m.svg"" width=""35%"" height=""75%""></img></td>
  </tr>
</table>
  ",,,,,,,,,,,,,,,,,,,,,,,,,,,,
203,0,,html-keyboard-response,203,940457,0.0-7.10-3.10,88qa1lu7fxe,2022-09-16 18:28:08.574,5d88f010859c9e0001810e88,2,59,27,25,26,48,female,,,"<p style=""font-size:50px"">You win!
+10 points this round!</p>",,,,,,,,,,,,,,,,,,,,,,,,,,,,
204,0,,html-keyboard-response,204,940969,0.0-7.10-4.10,88qa1lu7fxe,2022-09-16 18:28:08.574,5d88f010859c9e0001810e88,2,59,27,25,26,48,female,,,,,,1.0,choice,10.0,B,Xnc,red,black,stars,bolts,B,Xnc,Xnc,black,bolts,691.400000006,0.0,0.0,0,right,394.3000000119,9.0,1.0,1.0,,,
205,0,,html-keyboard-response,205,942586,0.0-7.11-0.11,88qa1lu7fxe,2022-09-16 18:28:08.574,5d88f010859c9e0001810e88,2,59,27,25,26,48,female,1614.099999994,,"
  <table>
  <tr height=300>
    <td width=300 height=300><img src=""static/images/cards/stack_of_black_moons.svg"" width=""175px"" height=""250px""></img></td>
    <td width=300 height=300><img src=""static/images/cards/stack_of_red_moons.svg"" width=""175px"" height=""250px""></img></td>
  </tr>
  <tr height=200>
    <td width=300><img src=""static/images/keys/w.svg"" width=""35%"" height=""75%""></img></td>
    <td width=300><img src=""static/images/keys/o.svg"" width=""35%"" height=""75%""></img></td>
  </tr>
</table>
  ",79.0,1.0,,,,,,,,,,,,,,,,,,,,,,,,,,
206,0,,html-keyboard-response,206,943439,0.0-7.11-1.11,88qa1lu7fxe,2022-09-16 18:28:08.574,5d88f010859c9e0001810e88,2,59,27,25,26,48,female,334.6999999881,,"
  <table>
  <tr height=300>
    <td width=300 height=300><img src=""static/images/cards/back_of_red_moons.svg"" width=""175px"" height=""250px""></img></td>
    <td width=300 height=300><img src=""static/images/cards/back_of_red_moons.svg"" width=""175px"" height=""250px""></img></td>
  </tr>
  <tr height=200>
    <td width=300></td>
    <td width=300><img src=""static/images/keys/m.svg"" width=""35%"" height=""75%""></img></td>
  </tr>
</table>
  ",77.0,1.0,,,,,,,,,,,,,,,,,,,,,,,,,,
207,0,,html-keyboard-response,207,944957,0.0-7.11-2.11,88qa1lu7fxe,2022-09-16 18:28:08.574,5d88f010859c9e0001810e88,2,59,27,25,26,48,female,,,"
  <table>
  <tr height=300>
    <td width=300 height=300><img src=""static/images/cards/back_of_red_moons.svg"" width=""175px"" height=""250px""></img></td>
    <td width=300 height=300><img src=""static/images/cards/2_of_red_moons.svg"" width=""175px"" height=""250px""></img></td>
  </tr>
  <tr height=200>
    <td width=300></td>
    <td width=300><img src=""static/images/keys/m.svg"" width=""35%"" height=""75%""></img></td>
  </tr>
</table>
  ",,,,,,,,,,,,,,,,,,,,,,,,,,,,
208,0,,html-keyboard-response,208,946482,0.0-7.11-3.11,88qa1lu7fxe,2022-09-16 18:28:08.574,5d88f010859c9e0001810e88,2,59,27,25,26,48,female,,,"<p style=""font-size:50px"">You win!
+10 points this round!</p>",,,,,,,,,,,,,,,,,,,,,,,,,,,,
209,0,,html-keyboard-response,209,947004,0.0-7.11-4.11,88qa1lu7fxe,2022-09-16 18:28:08.574,5d88f010859c9e0001810e88,2,59,27,25,26,48,female,,,,,,1.0,choice,11.0,C,D,black,red,moons,moons,C,D,D,red,moons,1614.099999994,0.0,0.0,0,right,334.6999999881,2.0,0.0,1.0,,,
210,0,,html-keyboard-response,210,947991,0.0-7.12-0.12,88qa1lu7fxe,2022-09-16 18:28:08.574,5d88f010859c9e0001810e88,2,59,27,25,26,48,female,984.7999999821,,"
  <table>
  <tr height=300>
    <td width=300 height=300><img src=""static/images/cards/stack_of_red_stars.svg"" width=""175px"" height=""250px""></img></td>
    <td width=300 height=300><img src=""static/images/cards/stack_of_red_moons.svg"" width=""175px"" height=""250px""></img></td>
  </tr>
  <tr height=200>
    <td width=300><img src=""static/images/keys/w.svg"" width=""35%"" height=""75%""></img></td>
    <td width=300><img src=""static/images/keys/o.svg"" width=""35%"" height=""75%""></img></td>
  </tr>
</table>
  ",87.0,1.0,,,,,,,,,,,,,,,,,,,,,,,,,,
211,0,,html-keyboard-response,211,948904,0.0-7.12-1.12,88qa1lu7fxe,2022-09-16 18:28:08.574,5d88f010859c9e0001810e88,2,59,27,25,26,48,female,397.6999999881,,"
  <table>
  <tr height=300>
    <td width=300 height=300><img src=""static/images/cards/back_of_red_stars.svg"" width=""175px"" height=""250px""></img></td>
    <td width=300 height=300><img src=""static/images/cards/back_of_red_stars.svg"" width=""175px"" height=""250px""></img></td>
  </tr>
  <tr height=200>
    <td width=300></td>
    <td width=300><img src=""static/images/keys/m.svg"" width=""35%"" height=""75%""></img></td>
  </tr>
</table>
  ",77.0,1.0,,,,,,,,,,,,,,,,,,,,,,,,,,
212,0,,html-keyboard-response,212,950415,0.0-7.12-2.12,88qa1lu7fxe,2022-09-16 18:28:08.574,5d88f010859c9e0001810e88,2,59,27,25,26,48,female,,,"
  <table>
  <tr height=300>
    <td width=300 height=300><img src=""static/images/cards/back_of_red_stars.svg"" width=""175px"" height=""250px""></img></td>
    <td width=300 height=300><img src=""static/images/cards/10_of_red_stars.svg"" width=""175px"" height=""250px""></img></td>
  </tr>
  <tr height=200>
    <td width=300></td>
    <td width=300><img src=""static/images/keys/m.svg"" width=""35%"" height=""75%""></img></td>
  </tr>
</table>
  ",,,,,,,,,,,,,,,,,,,,,,,,,,,,
213,0,,html-keyboard-response,213,951941,0.0-7.12-3.12,88qa1lu7fxe,2022-09-16 18:28:08.574,5d88f010859c9e0001810e88,2,59,27,25,26,48,female,,,"<p style=""font-size:50px"">You win!
+10 points this round!</p>",,,,,,,,,,,,,,,,,,,,,,,,,,,,
214,0,,html-keyboard-response,214,952455,0.0-7.12-4.12,88qa1lu7fxe,2022-09-16 18:28:08.574,5d88f010859c9e0001810e88,2,59,27,25,26,48,female,,,,,,1.0,choice,12.0,B,D,red,red,stars,moons,B,D,B,red,stars,984.7999999821,0.0,1.0,0,right,397.6999999881,10.0,1.0,1.0,,,
215,0,,html-keyboard-response,215,953860,0.0-7.13-0.13,88qa1lu7fxe,2022-09-16 18:28:08.574,5d88f010859c9e0001810e88,2,59,27,25,26,48,female,1400.2000000179,,"
  <table>
  <tr height=300>
    <td width=300 height=300><img src=""static/images/cards/stack_of_black_stars.svg"" width=""175px"" height=""250px""></img></td>
    <td width=300 height=300><img src=""static/images/cards/stack_of_red_bolts.svg"" width=""175px"" height=""250px""></img></td>
  </tr>
  <tr height=200>
    <td width=300><img src=""static/images/keys/w.svg"" width=""35%"" height=""75%""></img></td>
    <td width=300><img src=""static/images/keys/o.svg"" width=""35%"" height=""75%""></img></td>
  </tr>
</table>
  ",79.0,1.0,,,,,,,,,,,,,,,,,,,,,,,,,,
216,0,,html-keyboard-response,216,954648,0.0-7.13-1.13,88qa1lu7fxe,2022-09-16 18:28:08.574,5d88f010859c9e0001810e88,2,59,27,25,26,48,female,274.7000000179,,"
  <table>
  <tr height=300>
    <td width=300 height=300><img src=""static/images/cards/back_of_red_bolts.svg"" width=""175px"" height=""250px""></img></td>
    <td width=300 height=300><img src=""static/images/cards/back_of_red_bolts.svg"" width=""175px"" height=""250px""></img></td>
  </tr>
  <tr height=200>
    <td width=300><img src=""static/images/keys/z.svg"" width=""35%"" height=""75%""></img></td>
    <td width=300><img src=""static/images/keys/m.svg"" width=""35%"" height=""75%""></img></td>
  </tr>
</table>
  ",77.0,1.0,,,,,,,,,,,,,,,,,,,,,,,,,,
217,0,,html-keyboard-response,217,956155,0.0-7.13-2.13,88qa1lu7fxe,2022-09-16 18:28:08.574,5d88f010859c9e0001810e88,2,59,27,25,26,48,female,,,"
  <table>
  <tr height=300>
    <td width=300 height=300><img src=""static/images/cards/back_of_red_bolts.svg"" width=""175px"" height=""250px""></img></td>
    <td width=300 height=300><img src=""static/images/cards/8_of_red_bolts.svg"" width=""175px"" height=""250px""></img></td>
  </tr>
  <tr height=200>
    <td width=300><img src=""static/images/keys/z.svg"" width=""35%"" height=""75%""></img></td>
    <td width=300><img src=""static/images/keys/m.svg"" width=""35%"" height=""75%""></img></td>
  </tr>
</table>
  ",,,,,,,,,,,,,,,,,,,,,,,,,,,,
218,0,,html-keyboard-response,218,957670,0.0-7.13-3.13,88qa1lu7fxe,2022-09-16 18:28:08.574,5d88f010859c9e0001810e88,2,59,27,25,26,48,female,,,"<p style=""font-size:50px"">You win!
+10 points this round!</p>",,,,,,,,,,,,,,,,,,,,,,,,,,,,
219,0,,html-keyboard-response,219,958191,0.0-7.13-4.13,88qa1lu7fxe,2022-09-16 18:28:08.574,5d88f010859c9e0001810e88,2,59,27,25,26,48,female,,,,,,1.0,choice,13.0,A,Xc,black,red,stars,bolts,A,Xc,Xc,red,bolts,1400.2000000179,1.0,0.0,NA,right,274.7000000179,8.0,1.0,1.0,,,
220,0,,html-keyboard-response,220,959594,0.0-7.14-0.14,88qa1lu7fxe,2022-09-16 18:28:08.574,5d88f010859c9e0001810e88,2,59,27,25,26,48,female,1400.0,,"
  <table>
  <tr height=300>
    <td width=300 height=300><img src=""static/images/cards/stack_of_red_moons.svg"" width=""175px"" height=""250px""></img></td>
    <td width=300 height=300><img src=""static/images/cards/stack_of_black_moons.svg"" width=""175px"" height=""250px""></img></td>
  </tr>
  <tr height=200>
    <td width=300><img src=""static/images/keys/w.svg"" width=""35%"" height=""75%""></img></td>
    <td width=300><img src=""static/images/keys/o.svg"" width=""35%"" height=""75%""></img></td>
  </tr>
</table>
  ",79.0,1.0,,,,,,,,,,,,,,,,,,,,,,,,,,
221,0,,html-keyboard-response,221,960477,0.0-7.14-1.14,88qa1lu7fxe,2022-09-16 18:28:08.574,5d88f010859c9e0001810e88,2,59,27,25,26,48,female,373.099999994,,"
  <table>
  <tr height=300>
    <td width=300 height=300><img src=""static/images/cards/back_of_black_moons.svg"" width=""175px"" height=""250px""></img></td>
    <td width=300 height=300><img src=""static/images/cards/back_of_black_moons.svg"" width=""175px"" height=""250px""></img></td>
  </tr>
  <tr height=200>
    <td width=300><img src=""static/images/keys/z.svg"" width=""35%"" height=""75%""></img></td>
    <td width=300><img src=""static/images/keys/m.svg"" width=""35%"" height=""75%""></img></td>
  </tr>
</table>
  ",77.0,1.0,,,,,,,,,,,,,,,,,,,,,,,,,,
222,0,,html-keyboard-response,222,961987,0.0-7.14-2.14,88qa1lu7fxe,2022-09-16 18:28:08.574,5d88f010859c9e0001810e88,2,59,27,25,26,48,female,,,"
  <table>
  <tr height=300>
    <td width=300 height=300><img src=""static/images/cards/back_of_black_moons.svg"" width=""175px"" height=""250px""></img></td>
    <td width=300 height=300><img src=""static/images/cards/1_of_black_moons.svg"" width=""175px"" height=""250px""></img></td>
  </tr>
  <tr height=200>
    <td width=300><img src=""static/images/keys/z.svg"" width=""35%"" height=""75%""></img></td>
    <td width=300><img src=""static/images/keys/m.svg"" width=""35%"" height=""75%""></img></td>
  </tr>
</table>
  ",,,,,,,,,,,,,,,,,,,,,,,,,,,,
223,0,,html-keyboard-response,223,963499,0.0-7.14-3.14,88qa1lu7fxe,2022-09-16 18:28:08.574,5d88f010859c9e0001810e88,2,59,27,25,26,48,female,,,"<p style=""font-size:50px"">You Lose!
No points this round.</p>",,,,,,,,,,,,,,,,,,,,,,,,,,,,
224,0,,html-keyboard-response,224,964010,0.0-7.14-4.14,88qa1lu7fxe,2022-09-16 18:28:08.574,5d88f010859c9e0001810e88,2,59,27,25,26,48,female,,,,,,1.0,choice,14.0,C,D,red,black,moons,moons,D,C,C,black,moons,1400.0,1.0,0.0,NA,right,373.099999994,1.0,0.0,0.0,,,
225,0,,html-keyboard-response,225,965623,0.0-7.15-0.15,88qa1lu7fxe,2022-09-16 18:28:08.574,5d88f010859c9e0001810e88,2,59,27,25,26,48,female,1610.2000000179,,"
  <table>
  <tr height=300>
    <td width=300 height=300><img src=""static/images/cards/stack_of_red_moons.svg"" width=""175px"" height=""250px""></img></td>
    <td width=300 height=300><img src=""static/images/cards/stack_of_black_moons.svg"" width=""175px"" height=""250px""></img></td>
  </tr>
  <tr height=200>
    <td width=300><img src=""static/images/keys/w.svg"" width=""35%"" height=""75%""></img></td>
    <td width=300><img src=""static/images/keys/o.svg"" width=""35%"" height=""75%""></img></td>
  </tr>
</table>
  ",87.0,1.0,,,,,,,,,,,,,,,,,,,,,,,,,,
226,0,,html-keyboard-response,226,966593,0.0-7.15-1.15,88qa1lu7fxe,2022-09-16 18:28:08.574,5d88f010859c9e0001810e88,2,59,27,25,26,48,female,450.3999999762,,"
  <table>
  <tr height=300>
    <td width=300 height=300><img src=""static/images/cards/back_of_red_moons.svg"" width=""175px"" height=""250px""></img></td>
    <td width=300 height=300><img src=""static/images/cards/back_of_red_moons.svg"" width=""175px"" height=""250px""></img></td>
  </tr>
  <tr height=200>
    <td width=300></td>
    <td width=300><img src=""static/images/keys/m.svg"" width=""35%"" height=""75%""></img></td>
  </tr>
</table>
  ",77.0,1.0,,,,,,,,,,,,,,,,,,,,,,,,,,
227,0,,html-keyboard-response,227,968099,0.0-7.15-2.15,88qa1lu7fxe,2022-09-16 18:28:08.574,5d88f010859c9e0001810e88,2,59,27,25,26,48,female,,,"
  <table>
  <tr height=300>
    <td width=300 height=300><img src=""static/images/cards/back_of_red_moons.svg"" width=""175px"" height=""250px""></img></td>
    <td width=300 height=300><img src=""static/images/cards/8_of_red_moons.svg"" width=""175px"" height=""250px""></img></td>
  </tr>
  <tr height=200>
    <td width=300></td>
    <td width=300><img src=""static/images/keys/m.svg"" width=""35%"" height=""75%""></img></td>
  </tr>
</table>
  ",,,,,,,,,,,,,,,,,,,,,,,,,,,,
228,0,,html-keyboard-response,228,969619,0.0-7.15-3.15,88qa1lu7fxe,2022-09-16 18:28:08.574,5d88f010859c9e0001810e88,2,59,27,25,26,48,female,,,"<p style=""font-size:50px"">You win!
+10 points this round!</p>",,,,,,,,,,,,,,,,,,,,,,,,,,,,
229,0,,html-keyboard-response,229,970132,0.0-7.15-4.15,88qa1lu7fxe,2022-09-16 18:28:08.574,5d88f010859c9e0001810e88,2,59,27,25,26,48,female,,,,,,1.0,choice,15.0,C,D,red,black,moons,moons,D,C,D,red,moons,1610.2000000179,0.0,0.0,0,right,450.3999999762,8.0,1.0,1.0,,,
230,0,,html-keyboard-response,230,971410,0.0-7.16-0.16,88qa1lu7fxe,2022-09-16 18:28:08.574,5d88f010859c9e0001810e88,2,59,27,25,26,48,female,1275.5,,"
  <table>
  <tr height=300>
    <td width=300 height=300><img src=""static/images/cards/stack_of_red_stars.svg"" width=""175px"" height=""250px""></img></td>
    <td width=300 height=300><img src=""static/images/cards/stack_of_black_moons.svg"" width=""175px"" height=""250px""></img></td>
  </tr>
  <tr height=200>
    <td width=300><img src=""static/images/keys/w.svg"" width=""35%"" height=""75%""></img></td>
    <td width=300><img src=""static/images/keys/o.svg"" width=""35%"" height=""75%""></img></td>
  </tr>
</table>
  ",87.0,1.0,,,,,,,,,,,,,,,,,,,,,,,,,,
231,0,,html-keyboard-response,231,972261,0.0-7.16-1.16,88qa1lu7fxe,2022-09-16 18:28:08.574,5d88f010859c9e0001810e88,2,59,27,25,26,48,female,342.099999994,,"
  <table>
  <tr height=300>
    <td width=300 height=300><img src=""static/images/cards/back_of_red_stars.svg"" width=""175px"" height=""250px""></img></td>
    <td width=300 height=300><img src=""static/images/cards/back_of_red_stars.svg"" width=""175px"" height=""250px""></img></td>
  </tr>
  <tr height=200>
    <td width=300></td>
    <td width=300><img src=""static/images/keys/m.svg"" width=""35%"" height=""75%""></img></td>
  </tr>
</table>
  ",77.0,1.0,,,,,,,,,,,,,,,,,,,,,,,,,,
232,0,,html-keyboard-response,232,973771,0.0-7.16-2.16,88qa1lu7fxe,2022-09-16 18:28:08.574,5d88f010859c9e0001810e88,2,59,27,25,26,48,female,,,"
  <table>
  <tr height=300>
    <td width=300 height=300><img src=""static/images/cards/back_of_red_stars.svg"" width=""175px"" height=""250px""></img></td>
    <td width=300 height=300><img src=""static/images/cards/7_of_red_stars.svg"" width=""175px"" height=""250px""></img></td>
  </tr>
  <tr height=200>
    <td width=300></td>
    <td width=300><img src=""static/images/keys/m.svg"" width=""35%"" height=""75%""></img></td>
  </tr>
</table>
  ",,,,,,,,,,,,,,,,,,,,,,,,,,,,
233,0,,html-keyboard-response,233,975292,0.0-7.16-3.16,88qa1lu7fxe,2022-09-16 18:28:08.574,5d88f010859c9e0001810e88,2,59,27,25,26,48,female,,,"<p style=""font-size:50px"">You win!
+10 points this round!</p>",,,,,,,,,,,,,,,,,,,,,,,,,,,,
234,0,,html-keyboard-response,234,975807,0.0-7.16-4.16,88qa1lu7fxe,2022-09-16 18:28:08.574,5d88f010859c9e0001810e88,2,59,27,25,26,48,female,,,,,,1.0,choice,16.0,B,C,red,black,stars,moons,B,C,B,red,stars,1275.5,0.0,1.0,0,right,342.099999994,7.0,1.0,1.0,,,
