,index,success,trial_type,trial_index,time_elapsed,internal_node_id,subject,date,prol_id,ctbl,sense_of_control_A,sense_of_control_B,sense_of_control_C,sense_of_control_D,age,gender,rt,url,stimulus,key_press,npress,is_data_trial,phase,trial,deck1,deck2,col1,col2,sym1,sym2,deck_l,deck_r,chosen_deck,chosen_col,chosen_sym,deck_rt,choose_choice,mutual_info,hidden_key,chosen_card,card_rt,player_num,win_card,outcome,mock_rating,response,responses
0,0,1.0,fullscreen,0,3099,0.0-0.0,1yf3geb1pa4i,2022-09-19 15:35:30.208,59400f1c6b84600001e76c13,3,37,33,25,34,33,female,,,,,,,,,,,,,,,,,,,,,,,,,,,,,,,
1,0,,external-html,1,6703,0.0-1.0,1yf3geb1pa4i,2022-09-19 15:35:30.208,59400f1c6b84600001e76c13,3,37,33,25,34,33,female,3496.6000000238,static/js/sub/consent.html,,,,,,,,,,,,,,,,,,,,,,,,,,,,,
2,0,,call-function,2,6707,0.0-2.0,1yf3geb1pa4i,2022-09-19 15:35:30.208,59400f1c6b84600001e76c13,3,37,33,25,34,33,female,,,,,,,,,,,,,,,,,,,,,,,,,,,,,,,
3,0,,image-keyboard-response,3,16764,0.0-3.0-0.0,1yf3geb1pa4i,2022-09-19 15:35:30.208,59400f1c6b84600001e76c13,3,37,33,25,34,33,female,10056.1999999881,,static/images/instructions_CB_3/Slide1.png,39.0,,,,,,,,,,,,,,,,,,,,,,,,,,,
4,0,,image-keyboard-response,4,39253,0.0-3.1-0.1,1yf3geb1pa4i,2022-09-19 15:35:30.208,59400f1c6b84600001e76c13,3,37,33,25,34,33,female,22487.3000000119,,static/images/instructions_CB_3/Slide2.png,39.0,,,,,,,,,,,,,,,,,,,,,,,,,,,
5,0,,image-keyboard-response,5,47430,0.0-3.2-0.2,1yf3geb1pa4i,2022-09-19 15:35:30.208,59400f1c6b84600001e76c13,3,37,33,25,34,33,female,8175.5,,static/images/instructions_CB_3/Slide3.png,39.0,,,,,,,,,,,,,,,,,,,,,,,,,,,
6,0,,image-keyboard-response,6,57336,0.0-3.3-0.3,1yf3geb1pa4i,2022-09-19 15:35:30.208,59400f1c6b84600001e76c13,3,37,33,25,34,33,female,9905.3000000119,,static/images/instructions_CB_3/Slide4.png,39.0,,,,,,,,,,,,,,,,,,,,,,,,,,,
7,0,,image-keyboard-response,7,65660,0.0-3.4-0.4,1yf3geb1pa4i,2022-09-19 15:35:30.208,59400f1c6b84600001e76c13,3,37,33,25,34,33,female,8322.8000000119,,static/images/instructions_CB_3/Slide5.png,39.0,,,,,,,,,,,,,,,,,,,,,,,,,,,
8,0,,image-keyboard-response,8,69679,0.0-3.5-0.5,1yf3geb1pa4i,2022-09-19 15:35:30.208,59400f1c6b84600001e76c13,3,37,33,25,34,33,female,4018.8999999762,,static/images/instructions_CB_3/Slide6.png,39.0,,,,,,,,,,,,,,,,,,,,,,,,,,,
9,0,,image-keyboard-response,9,89582,0.0-3.6-0.6,1yf3geb1pa4i,2022-09-19 15:35:30.208,59400f1c6b84600001e76c13,3,37,33,25,34,33,female,19901.6999999881,,static/images/instructions_CB_3/Slide7.png,39.0,,,,,,,,,,,,,,,,,,,,,,,,,,,
10,0,,image-keyboard-response,10,103282,0.0-3.7-0.7,1yf3geb1pa4i,2022-09-19 15:35:30.208,59400f1c6b84600001e76c13,3,37,33,25,34,33,female,13699.3999999762,,static/images/instructions_CB_3/Slide8.png,39.0,,,,,,,,,,,,,,,,,,,,,,,,,,,
11,0,,image-keyboard-response,11,116128,0.0-3.8-0.8,1yf3geb1pa4i,2022-09-19 15:35:30.208,59400f1c6b84600001e76c13,3,37,33,25,34,33,female,12844.6999999881,,static/images/instructions_CB_3/Slide9.png,39.0,,,,,,,,,,,,,,,,,,,,,,,,,,,
12,0,,image-keyboard-response,12,135892,0.0-3.9-0.9,1yf3geb1pa4i,2022-09-19 15:35:30.208,59400f1c6b84600001e76c13,3,37,33,25,34,33,female,19763.5,,static/images/instructions_CB_3/Slide10.png,39.0,,,,,,,,,,,,,,,,,,,,,,,,,,,
13,0,,image-keyboard-response,13,144128,0.0-3.10-0.10,1yf3geb1pa4i,2022-09-19 15:35:30.208,59400f1c6b84600001e76c13,3,37,33,25,34,33,female,8234.3000000119,,static/images/instructions_CB_3/Slide11.png,39.0,,,,,,,,,,,,,,,,,,,,,,,,,,,
14,0,,image-keyboard-response,14,161019,0.0-3.11-0.11,1yf3geb1pa4i,2022-09-19 15:35:30.208,59400f1c6b84600001e76c13,3,37,33,25,34,33,female,16891.0999999642,,static/images/instructions_CB_3/Slide12.png,39.0,,,,,,,,,,,,,,,,,,,,,,,,,,,
15,0,,image-keyboard-response,15,168867,0.0-3.12-0.12,1yf3geb1pa4i,2022-09-19 15:35:30.208,59400f1c6b84600001e76c13,3,37,33,25,34,33,female,7846.8000000119,,static/images/instructions_CB_3/Slide13.png,39.0,,,,,,,,,,,,,,,,,,,,,,,,,,,
16,0,,image-keyboard-response,16,173388,0.0-3.13-0.13,1yf3geb1pa4i,2022-09-19 15:35:30.208,59400f1c6b84600001e76c13,3,37,33,25,34,33,female,4520.2000000477,,static/images/instructions_CB_3/Slide14.png,39.0,,,,,,,,,,,,,,,,,,,,,,,,,,,
17,0,,image-keyboard-response,17,179351,0.0-3.14-0.14,1yf3geb1pa4i,2022-09-19 15:35:30.208,59400f1c6b84600001e76c13,3,37,33,25,34,33,female,5962.5,,static/images/instructions_CB_3/Slide15.png,39.0,,,,,,,,,,,,,,,,,,,,,,,,,,,
18,0,,image-keyboard-response,18,188931,0.0-3.15-0.15,1yf3geb1pa4i,2022-09-19 15:35:30.208,59400f1c6b84600001e76c13,3,37,33,25,34,33,female,9579.0999999642,,static/images/instructions_CB_3/Slide16.png,39.0,,,,,,,,,,,,,,,,,,,,,,,,,,,
19,0,,image-keyboard-response,19,191668,0.0-3.16-0.16,1yf3geb1pa4i,2022-09-19 15:35:30.208,59400f1c6b84600001e76c13,3,37,33,25,34,33,female,2736.1999999881,,static/images/instructions_CB_3/Slide17.png,39.0,,,,,,,,,,,,,,,,,,,,,,,,,,,
20,0,,image-keyboard-response,20,201298,0.0-3.17-0.17,1yf3geb1pa4i,2022-09-19 15:35:30.208,59400f1c6b84600001e76c13,3,37,33,25,34,33,female,9628.1999999881,,static/images/instructions_CB_3/Slide18.png,39.0,,,,,,,,,,,,,,,,,,,,,,,,,,,
21,0,,image-keyboard-response,21,203734,0.0-3.18-0.18,1yf3geb1pa4i,2022-09-19 15:35:30.208,59400f1c6b84600001e76c13,3,37,33,25,34,33,female,2435.5999999642,,static/images/instructions_CB_3/Slide19.png,39.0,,,,,,,,,,,,,,,,,,,,,,,,,,,
22,0,,html-keyboard-response,22,205246,0.0-4.0-0.0,1yf3geb1pa4i,2022-09-19 15:35:30.208,59400f1c6b84600001e76c13,3,37,33,25,34,33,female,,,"<img src=""static/images/cards/stack_of_black_moons.svg"" width=""175px"" height=""250px""></img>",,,,,,,,,,,,,,,,,,,,,,,,,,,,
23,0,,html-keyboard-response,23,206143,0.0-4.0-1.0,1yf3geb1pa4i,2022-09-19 15:35:30.208,59400f1c6b84600001e76c13,3,37,33,25,34,33,female,387.8000000119,,"
  <table>
  <tr height=300>
    <td width=300 height=300><img src=""static/images/cards/back_of_black_moons.svg"" width=""175px"" height=""250px""></img></td>
    <td width=300 height=300><img src=""static/images/cards/back_of_black_moons.svg"" width=""175px"" height=""250px""></img></td>
  </tr>
  <tr height=200>
    <td width=300><img src=""static/images/keys/z.svg"" width=""35%"" height=""75%""></img></td>
    <td width=300><img src=""static/images/keys/m.svg"" width=""35%"" height=""75%""></img></td>
  </tr>
</table>
  ",77.0,1.0,,,,,,,,,,,,,,,,,,,,,,,,,,
24,0,,html-keyboard-response,24,207655,0.0-4.0-2.0,1yf3geb1pa4i,2022-09-19 15:35:30.208,59400f1c6b84600001e76c13,3,37,33,25,34,33,female,,,"
  <table>
  <tr height=300>
    <td width=300 height=300><img src=""static/images/cards/back_of_black_moons.svg"" width=""175px"" height=""250px""></img></td>
    <td width=300 height=300><img src=""static/images/cards/6_of_black_moons.svg"" width=""175px"" height=""250px""></img></td>
  </tr>
  <tr height=200>
    <td width=300><img src=""static/images/keys/z.svg"" width=""35%"" height=""75%""></img></td>
    <td width=300><img src=""static/images/keys/m.svg"" width=""35%"" height=""75%""></img></td>
  </tr>
</table>
  ",,,,,,,,,,,,,,,,,,,,,,,,,,,,
25,0,,html-keyboard-response,25,209165,0.0-4.0-3.0,1yf3geb1pa4i,2022-09-19 15:35:30.208,59400f1c6b84600001e76c13,3,37,33,25,34,33,female,,,"<p style=""font-size:50px"">You win!
+10 points this round!</p>",,,,,,,,,,,,,,,,,,,,,,,,,,,,
26,0,,html-keyboard-response,26,209678,0.0-4.0-4.0,1yf3geb1pa4i,2022-09-19 15:35:30.208,59400f1c6b84600001e76c13,3,37,33,25,34,33,female,,,,,,1.0,learning,0.0,A,,black,,moons,,,,A,black,moons,,1.0,1.0,NA,right,387.8000000119,6.0,1.0,1.0,,,
27,0,,html-keyboard-response,27,211193,0.0-4.1-0.1,1yf3geb1pa4i,2022-09-19 15:35:30.208,59400f1c6b84600001e76c13,3,37,33,25,34,33,female,,,"<img src=""static/images/cards/stack_of_red_moons.svg"" width=""175px"" height=""250px""></img>",,,,,,,,,,,,,,,,,,,,,,,,,,,,
28,0,,html-keyboard-response,28,212065,0.0-4.1-1.1,1yf3geb1pa4i,2022-09-19 15:35:30.208,59400f1c6b84600001e76c13,3,37,33,25,34,33,female,361.9000000358,,"
  <table>
  <tr height=300>
    <td width=300 height=300><img src=""static/images/cards/back_of_red_moons.svg"" width=""175px"" height=""250px""></img></td>
    <td width=300 height=300><img src=""static/images/cards/back_of_red_moons.svg"" width=""175px"" height=""250px""></img></td>
  </tr>
  <tr height=200>
    <td width=300><img src=""static/images/keys/z.svg"" width=""35%"" height=""75%""></img></td>
    <td width=300></td>
  </tr>
</table>
  ",90.0,1.0,,,,,,,,,,,,,,,,,,,,,,,,,,
29,0,,html-keyboard-response,29,213580,0.0-4.1-2.1,1yf3geb1pa4i,2022-09-19 15:35:30.208,59400f1c6b84600001e76c13,3,37,33,25,34,33,female,,,"
  <table>
  <tr height=300>
    <td width=300 height=300><img src=""static/images/cards/7_of_red_moons.svg"" width=""175px"" height=""250px""></img></td>
    <td width=300 height=300><img src=""static/images/cards/back_of_red_moons.svg"" width=""175px"" height=""250px""></img></td>
  </tr>
  <tr height=200>
    <td width=300><img src=""static/images/keys/z.svg"" width=""35%"" height=""75%""></img></td>
    <td width=300></td>
  </tr>
</table>
  ",,,,,,,,,,,,,,,,,,,,,,,,,,,,
30,0,,html-keyboard-response,30,215100,0.0-4.1-3.1,1yf3geb1pa4i,2022-09-19 15:35:30.208,59400f1c6b84600001e76c13,3,37,33,25,34,33,female,,,"<p style=""font-size:50px"">You win!
+10 points this round!</p>",,,,,,,,,,,,,,,,,,,,,,,,,,,,
31,0,,html-keyboard-response,31,215613,0.0-4.1-4.1,1yf3geb1pa4i,2022-09-19 15:35:30.208,59400f1c6b84600001e76c13,3,37,33,25,34,33,female,,,,,,1.0,learning,1.0,B,,red,,moons,,,,B,red,moons,,0.0,1.0,1,left,361.9000000358,7.0,1.0,1.0,,,
32,0,,html-keyboard-response,32,217130,0.0-4.2-0.2,1yf3geb1pa4i,2022-09-19 15:35:30.208,59400f1c6b84600001e76c13,3,37,33,25,34,33,female,,,"<img src=""static/images/cards/stack_of_black_stars.svg"" width=""175px"" height=""250px""></img>",,,,,,,,,,,,,,,,,,,,,,,,,,,,
33,0,,html-keyboard-response,33,218276,0.0-4.2-1.2,1yf3geb1pa4i,2022-09-19 15:35:30.208,59400f1c6b84600001e76c13,3,37,33,25,34,33,female,637.1999999881,,"
  <table>
  <tr height=300>
    <td width=300 height=300><img src=""static/images/cards/back_of_black_stars.svg"" width=""175px"" height=""250px""></img></td>
    <td width=300 height=300><img src=""static/images/cards/back_of_black_stars.svg"" width=""175px"" height=""250px""></img></td>
  </tr>
  <tr height=200>
    <td width=300><img src=""static/images/keys/z.svg"" width=""35%"" height=""75%""></img></td>
    <td width=300><img src=""static/images/keys/m.svg"" width=""35%"" height=""75%""></img></td>
  </tr>
</table>
  ",77.0,1.0,,,,,,,,,,,,,,,,,,,,,,,,,,
34,0,,html-keyboard-response,34,219779,0.0-4.2-2.2,1yf3geb1pa4i,2022-09-19 15:35:30.208,59400f1c6b84600001e76c13,3,37,33,25,34,33,female,,,"
  <table>
  <tr height=300>
    <td width=300 height=300><img src=""static/images/cards/back_of_black_stars.svg"" width=""175px"" height=""250px""></img></td>
    <td width=300 height=300><img src=""static/images/cards/6_of_black_stars.svg"" width=""175px"" height=""250px""></img></td>
  </tr>
  <tr height=200>
    <td width=300><img src=""static/images/keys/z.svg"" width=""35%"" height=""75%""></img></td>
    <td width=300><img src=""static/images/keys/m.svg"" width=""35%"" height=""75%""></img></td>
  </tr>
</table>
  ",,,,,,,,,,,,,,,,,,,,,,,,,,,,
35,0,,html-keyboard-response,35,221289,0.0-4.2-3.2,1yf3geb1pa4i,2022-09-19 15:35:30.208,59400f1c6b84600001e76c13,3,37,33,25,34,33,female,,,"<p style=""font-size:50px"">You Lose!
No points this round.</p>",,,,,,,,,,,,,,,,,,,,,,,,,,,,
36,0,,html-keyboard-response,36,221801,0.0-4.2-4.2,1yf3geb1pa4i,2022-09-19 15:35:30.208,59400f1c6b84600001e76c13,3,37,33,25,34,33,female,,,,,,1.0,learning,2.0,C,,black,,stars,,,,C,black,stars,,1.0,0.0,NA,right,637.1999999881,6.0,1.0,0.0,,,
37,0,,html-keyboard-response,37,223305,0.0-4.3-0.3,1yf3geb1pa4i,2022-09-19 15:35:30.208,59400f1c6b84600001e76c13,3,37,33,25,34,33,female,,,"<img src=""static/images/cards/stack_of_red_stars.svg"" width=""175px"" height=""250px""></img>",,,,,,,,,,,,,,,,,,,,,,,,,,,,
38,0,,html-keyboard-response,38,224237,0.0-4.3-1.3,1yf3geb1pa4i,2022-09-19 15:35:30.208,59400f1c6b84600001e76c13,3,37,33,25,34,33,female,425.0,,"
  <table>
  <tr height=300>
    <td width=300 height=300><img src=""static/images/cards/back_of_red_stars.svg"" width=""175px"" height=""250px""></img></td>
    <td width=300 height=300><img src=""static/images/cards/back_of_red_stars.svg"" width=""175px"" height=""250px""></img></td>
  </tr>
  <tr height=200>
    <td width=300></td>
    <td width=300><img src=""static/images/keys/m.svg"" width=""35%"" height=""75%""></img></td>
  </tr>
</table>
  ",77.0,1.0,,,,,,,,,,,,,,,,,,,,,,,,,,
39,0,,html-keyboard-response,39,225750,0.0-4.3-2.3,1yf3geb1pa4i,2022-09-19 15:35:30.208,59400f1c6b84600001e76c13,3,37,33,25,34,33,female,,,"
  <table>
  <tr height=300>
    <td width=300 height=300><img src=""static/images/cards/back_of_red_stars.svg"" width=""175px"" height=""250px""></img></td>
    <td width=300 height=300><img src=""static/images/cards/7_of_red_stars.svg"" width=""175px"" height=""250px""></img></td>
  </tr>
  <tr height=200>
    <td width=300></td>
    <td width=300><img src=""static/images/keys/m.svg"" width=""35%"" height=""75%""></img></td>
  </tr>
</table>
  ",,,,,,,,,,,,,,,,,,,,,,,,,,,,
40,0,,html-keyboard-response,40,227256,0.0-4.3-3.3,1yf3geb1pa4i,2022-09-19 15:35:30.208,59400f1c6b84600001e76c13,3,37,33,25,34,33,female,,,"<p style=""font-size:50px"">You win!
+10 points this round!</p>",,,,,,,,,,,,,,,,,,,,,,,,,,,,
41,0,,html-keyboard-response,41,227772,0.0-4.3-4.3,1yf3geb1pa4i,2022-09-19 15:35:30.208,59400f1c6b84600001e76c13,3,37,33,25,34,33,female,,,,,,1.0,learning,3.0,D,,red,,stars,,,,D,red,stars,,0.0,0.0,0,right,425.0,7.0,1.0,1.0,,,
42,0,,html-keyboard-response,42,229288,0.0-4.4-0.4,1yf3geb1pa4i,2022-09-19 15:35:30.208,59400f1c6b84600001e76c13,3,37,33,25,34,33,female,,,"<img src=""static/images/cards/stack_of_red_bolts.svg"" width=""175px"" height=""250px""></img>",,,,,,,,,,,,,,,,,,,,,,,,,,,,
43,0,,html-keyboard-response,43,230331,0.0-4.4-1.4,1yf3geb1pa4i,2022-09-19 15:35:30.208,59400f1c6b84600001e76c13,3,37,33,25,34,33,female,532.8000000119,,"
  <table>
  <tr height=300>
    <td width=300 height=300><img src=""static/images/cards/back_of_red_bolts.svg"" width=""175px"" height=""250px""></img></td>
    <td width=300 height=300><img src=""static/images/cards/back_of_red_bolts.svg"" width=""175px"" height=""250px""></img></td>
  </tr>
  <tr height=200>
    <td width=300><img src=""static/images/keys/z.svg"" width=""35%"" height=""75%""></img></td>
    <td width=300><img src=""static/images/keys/m.svg"" width=""35%"" height=""75%""></img></td>
  </tr>
</table>
  ",90.0,1.0,,,,,,,,,,,,,,,,,,,,,,,,,,
44,0,,html-keyboard-response,44,231836,0.0-4.4-2.4,1yf3geb1pa4i,2022-09-19 15:35:30.208,59400f1c6b84600001e76c13,3,37,33,25,34,33,female,,,"
  <table>
  <tr height=300>
    <td width=300 height=300><img src=""static/images/cards/3_of_red_bolts.svg"" width=""175px"" height=""250px""></img></td>
    <td width=300 height=300><img src=""static/images/cards/back_of_red_bolts.svg"" width=""175px"" height=""250px""></img></td>
  </tr>
  <tr height=200>
    <td width=300><img src=""static/images/keys/z.svg"" width=""35%"" height=""75%""></img></td>
    <td width=300><img src=""static/images/keys/m.svg"" width=""35%"" height=""75%""></img></td>
  </tr>
</table>
  ",,,,,,,,,,,,,,,,,,,,,,,,,,,,
45,0,,html-keyboard-response,45,233357,0.0-4.4-3.4,1yf3geb1pa4i,2022-09-19 15:35:30.208,59400f1c6b84600001e76c13,3,37,33,25,34,33,female,,,"<p style=""font-size:50px"">You win!
+10 points this round!</p>",,,,,,,,,,,,,,,,,,,,,,,,,,,,
46,0,,html-keyboard-response,46,233874,0.0-4.4-4.4,1yf3geb1pa4i,2022-09-19 15:35:30.208,59400f1c6b84600001e76c13,3,37,33,25,34,33,female,,,,,,1.0,learning,4.0,Xc,,red,,bolts,,,,Xc,red,bolts,,1.0,0.0,NA,left,532.8000000119,3.0,0.0,1.0,,,
47,0,,html-keyboard-response,47,235376,0.0-4.5-0.5,1yf3geb1pa4i,2022-09-19 15:35:30.208,59400f1c6b84600001e76c13,3,37,33,25,34,33,female,,,"<img src=""static/images/cards/stack_of_black_bolts.svg"" width=""175px"" height=""250px""></img>",,,,,,,,,,,,,,,,,,,,,,,,,,,,
48,0,,html-keyboard-response,48,236320,0.0-4.5-1.5,1yf3geb1pa4i,2022-09-19 15:35:30.208,59400f1c6b84600001e76c13,3,37,33,25,34,33,female,434.3000000119,,"
  <table>
  <tr height=300>
    <td width=300 height=300><img src=""static/images/cards/back_of_black_bolts.svg"" width=""175px"" height=""250px""></img></td>
    <td width=300 height=300><img src=""static/images/cards/back_of_black_bolts.svg"" width=""175px"" height=""250px""></img></td>
  </tr>
  <tr height=200>
    <td width=300></td>
    <td width=300><img src=""static/images/keys/m.svg"" width=""35%"" height=""75%""></img></td>
  </tr>
</table>
  ",77.0,1.0,,,,,,,,,,,,,,,,,,,,,,,,,,
49,0,,html-keyboard-response,49,237823,0.0-4.5-2.5,1yf3geb1pa4i,2022-09-19 15:35:30.208,59400f1c6b84600001e76c13,3,37,33,25,34,33,female,,,"
  <table>
  <tr height=300>
    <td width=300 height=300><img src=""static/images/cards/back_of_black_bolts.svg"" width=""175px"" height=""250px""></img></td>
    <td width=300 height=300><img src=""static/images/cards/4_of_black_bolts.svg"" width=""175px"" height=""250px""></img></td>
  </tr>
  <tr height=200>
    <td width=300></td>
    <td width=300><img src=""static/images/keys/m.svg"" width=""35%"" height=""75%""></img></td>
  </tr>
</table>
  ",,,,,,,,,,,,,,,,,,,,,,,,,,,,
50,0,,html-keyboard-response,50,239334,0.0-4.5-3.5,1yf3geb1pa4i,2022-09-19 15:35:30.208,59400f1c6b84600001e76c13,3,37,33,25,34,33,female,,,"<p style=""font-size:50px"">You win!
+10 points this round!</p>",,,,,,,,,,,,,,,,,,,,,,,,,,,,
51,0,,html-keyboard-response,51,239847,0.0-4.5-4.5,1yf3geb1pa4i,2022-09-19 15:35:30.208,59400f1c6b84600001e76c13,3,37,33,25,34,33,female,,,,,,1.0,learning,5.0,Xnc,,black,,bolts,,,,Xnc,black,bolts,,0.0,0.0,0,right,434.3000000119,4.0,0.0,1.0,,,
52,0,,html-keyboard-response,52,241352,0.0-4.6-0.6,1yf3geb1pa4i,2022-09-19 15:35:30.208,59400f1c6b84600001e76c13,3,37,33,25,34,33,female,,,"<img src=""static/images/cards/stack_of_black_moons.svg"" width=""175px"" height=""250px""></img>",,,,,,,,,,,,,,,,,,,,,,,,,,,,
53,0,,html-keyboard-response,53,242221,0.0-4.6-1.6,1yf3geb1pa4i,2022-09-19 15:35:30.208,59400f1c6b84600001e76c13,3,37,33,25,34,33,female,363.0,,"
  <table>
  <tr height=300>
    <td width=300 height=300><img src=""static/images/cards/back_of_black_moons.svg"" width=""175px"" height=""250px""></img></td>
    <td width=300 height=300><img src=""static/images/cards/back_of_black_moons.svg"" width=""175px"" height=""250px""></img></td>
  </tr>
  <tr height=200>
    <td width=300><img src=""static/images/keys/z.svg"" width=""35%"" height=""75%""></img></td>
    <td width=300><img src=""static/images/keys/m.svg"" width=""35%"" height=""75%""></img></td>
  </tr>
</table>
  ",77.0,1.0,,,,,,,,,,,,,,,,,,,,,,,,,,
54,0,,html-keyboard-response,54,243731,0.0-4.6-2.6,1yf3geb1pa4i,2022-09-19 15:35:30.208,59400f1c6b84600001e76c13,3,37,33,25,34,33,female,,,"
  <table>
  <tr height=300>
    <td width=300 height=300><img src=""static/images/cards/back_of_black_moons.svg"" width=""175px"" height=""250px""></img></td>
    <td width=300 height=300><img src=""static/images/cards/9_of_black_moons.svg"" width=""175px"" height=""250px""></img></td>
  </tr>
  <tr height=200>
    <td width=300><img src=""static/images/keys/z.svg"" width=""35%"" height=""75%""></img></td>
    <td width=300><img src=""static/images/keys/m.svg"" width=""35%"" height=""75%""></img></td>
  </tr>
</table>
  ",,,,,,,,,,,,,,,,,,,,,,,,,,,,
55,0,,html-keyboard-response,55,245254,0.0-4.6-3.6,1yf3geb1pa4i,2022-09-19 15:35:30.208,59400f1c6b84600001e76c13,3,37,33,25,34,33,female,,,"<p style=""font-size:50px"">You win!
+10 points this round!</p>",,,,,,,,,,,,,,,,,,,,,,,,,,,,
56,0,,html-keyboard-response,56,245766,0.0-4.6-4.6,1yf3geb1pa4i,2022-09-19 15:35:30.208,59400f1c6b84600001e76c13,3,37,33,25,34,33,female,,,,,,1.0,learning,6.0,A,,black,,moons,,,,A,black,moons,,1.0,1.0,NA,right,363.0,9.0,1.0,1.0,,,
57,0,,html-keyboard-response,57,247271,0.0-4.7-0.7,1yf3geb1pa4i,2022-09-19 15:35:30.208,59400f1c6b84600001e76c13,3,37,33,25,34,33,female,,,"<img src=""static/images/cards/stack_of_red_moons.svg"" width=""175px"" height=""250px""></img>",,,,,,,,,,,,,,,,,,,,,,,,,,,,
58,0,,html-keyboard-response,58,248186,0.0-4.7-1.7,1yf3geb1pa4i,2022-09-19 15:35:30.208,59400f1c6b84600001e76c13,3,37,33,25,34,33,female,407.2999999523,,"
  <table>
  <tr height=300>
    <td width=300 height=300><img src=""static/images/cards/back_of_red_moons.svg"" width=""175px"" height=""250px""></img></td>
    <td width=300 height=300><img src=""static/images/cards/back_of_red_moons.svg"" width=""175px"" height=""250px""></img></td>
  </tr>
  <tr height=200>
    <td width=300><img src=""static/images/keys/z.svg"" width=""35%"" height=""75%""></img></td>
    <td width=300></td>
  </tr>
</table>
  ",90.0,1.0,,,,,,,,,,,,,,,,,,,,,,,,,,
59,0,,html-keyboard-response,59,249698,0.0-4.7-2.7,1yf3geb1pa4i,2022-09-19 15:35:30.208,59400f1c6b84600001e76c13,3,37,33,25,34,33,female,,,"
  <table>
  <tr height=300>
    <td width=300 height=300><img src=""static/images/cards/10_of_red_moons.svg"" width=""175px"" height=""250px""></img></td>
    <td width=300 height=300><img src=""static/images/cards/back_of_red_moons.svg"" width=""175px"" height=""250px""></img></td>
  </tr>
  <tr height=200>
    <td width=300><img src=""static/images/keys/z.svg"" width=""35%"" height=""75%""></img></td>
    <td width=300></td>
  </tr>
</table>
  ",,,,,,,,,,,,,,,,,,,,,,,,,,,,
60,0,,html-keyboard-response,60,251208,0.0-4.7-3.7,1yf3geb1pa4i,2022-09-19 15:35:30.208,59400f1c6b84600001e76c13,3,37,33,25,34,33,female,,,"<p style=""font-size:50px"">You win!
+10 points this round!</p>",,,,,,,,,,,,,,,,,,,,,,,,,,,,
61,0,,html-keyboard-response,61,251723,0.0-4.7-4.7,1yf3geb1pa4i,2022-09-19 15:35:30.208,59400f1c6b84600001e76c13,3,37,33,25,34,33,female,,,,,,1.0,learning,7.0,B,,red,,moons,,,,B,red,moons,,0.0,1.0,1,left,407.2999999523,10.0,1.0,1.0,,,
62,0,,html-keyboard-response,62,253230,0.0-4.8-0.8,1yf3geb1pa4i,2022-09-19 15:35:30.208,59400f1c6b84600001e76c13,3,37,33,25,34,33,female,,,"<img src=""static/images/cards/stack_of_black_stars.svg"" width=""175px"" height=""250px""></img>",,,,,,,,,,,,,,,,,,,,,,,,,,,,
63,0,,html-keyboard-response,63,254206,0.0-4.8-1.8,1yf3geb1pa4i,2022-09-19 15:35:30.208,59400f1c6b84600001e76c13,3,37,33,25,34,33,female,465.9000000358,,"
  <table>
  <tr height=300>
    <td width=300 height=300><img src=""static/images/cards/back_of_black_stars.svg"" width=""175px"" height=""250px""></img></td>
    <td width=300 height=300><img src=""static/images/cards/back_of_black_stars.svg"" width=""175px"" height=""250px""></img></td>
  </tr>
  <tr height=200>
    <td width=300><img src=""static/images/keys/z.svg"" width=""35%"" height=""75%""></img></td>
    <td width=300><img src=""static/images/keys/m.svg"" width=""35%"" height=""75%""></img></td>
  </tr>
</table>
  ",77.0,1.0,,,,,,,,,,,,,,,,,,,,,,,,,,
64,0,,html-keyboard-response,64,255723,0.0-4.8-2.8,1yf3geb1pa4i,2022-09-19 15:35:30.208,59400f1c6b84600001e76c13,3,37,33,25,34,33,female,,,"
  <table>
  <tr height=300>
    <td width=300 height=300><img src=""static/images/cards/back_of_black_stars.svg"" width=""175px"" height=""250px""></img></td>
    <td width=300 height=300><img src=""static/images/cards/9_of_black_stars.svg"" width=""175px"" height=""250px""></img></td>
  </tr>
  <tr height=200>
    <td width=300><img src=""static/images/keys/z.svg"" width=""35%"" height=""75%""></img></td>
    <td width=300><img src=""static/images/keys/m.svg"" width=""35%"" height=""75%""></img></td>
  </tr>
</table>
  ",,,,,,,,,,,,,,,,,,,,,,,,,,,,
65,0,,html-keyboard-response,65,257246,0.0-4.8-3.8,1yf3geb1pa4i,2022-09-19 15:35:30.208,59400f1c6b84600001e76c13,3,37,33,25,34,33,female,,,"<p style=""font-size:50px"">You win!
+10 points this round!</p>",,,,,,,,,,,,,,,,,,,,,,,,,,,,
66,0,,html-keyboard-response,66,257758,0.0-4.8-4.8,1yf3geb1pa4i,2022-09-19 15:35:30.208,59400f1c6b84600001e76c13,3,37,33,25,34,33,female,,,,,,1.0,learning,8.0,C,,black,,stars,,,,C,black,stars,,1.0,0.0,NA,right,465.9000000358,9.0,1.0,1.0,,,
67,0,,html-keyboard-response,67,259274,0.0-4.9-0.9,1yf3geb1pa4i,2022-09-19 15:35:30.208,59400f1c6b84600001e76c13,3,37,33,25,34,33,female,,,"<img src=""static/images/cards/stack_of_red_stars.svg"" width=""175px"" height=""250px""></img>",,,,,,,,,,,,,,,,,,,,,,,,,,,,
68,0,,html-keyboard-response,68,260225,0.0-4.9-1.9,1yf3geb1pa4i,2022-09-19 15:35:30.208,59400f1c6b84600001e76c13,3,37,33,25,34,33,female,440.7000000477,,"
  <table>
  <tr height=300>
    <td width=300 height=300><img src=""static/images/cards/back_of_red_stars.svg"" width=""175px"" height=""250px""></img></td>
    <td width=300 height=300><img src=""static/images/cards/back_of_red_stars.svg"" width=""175px"" height=""250px""></img></td>
  </tr>
  <tr height=200>
    <td width=300><img src=""static/images/keys/z.svg"" width=""35%"" height=""75%""></img></td>
    <td width=300></td>
  </tr>
</table>
  ",90.0,1.0,,,,,,,,,,,,,,,,,,,,,,,,,,
69,0,,html-keyboard-response,69,261728,0.0-4.9-2.9,1yf3geb1pa4i,2022-09-19 15:35:30.208,59400f1c6b84600001e76c13,3,37,33,25,34,33,female,,,"
  <table>
  <tr height=300>
    <td width=300 height=300><img src=""static/images/cards/1_of_red_stars.svg"" width=""175px"" height=""250px""></img></td>
    <td width=300 height=300><img src=""static/images/cards/back_of_red_stars.svg"" width=""175px"" height=""250px""></img></td>
  </tr>
  <tr height=200>
    <td width=300><img src=""static/images/keys/z.svg"" width=""35%"" height=""75%""></img></td>
    <td width=300></td>
  </tr>
</table>
  ",,,,,,,,,,,,,,,,,,,,,,,,,,,,
70,0,,html-keyboard-response,70,263252,0.0-4.9-3.9,1yf3geb1pa4i,2022-09-19 15:35:30.208,59400f1c6b84600001e76c13,3,37,33,25,34,33,female,,,"<p style=""font-size:50px"">You Lose!
No points this round.</p>",,,,,,,,,,,,,,,,,,,,,,,,,,,,
71,0,,html-keyboard-response,71,263765,0.0-4.9-4.9,1yf3geb1pa4i,2022-09-19 15:35:30.208,59400f1c6b84600001e76c13,3,37,33,25,34,33,female,,,,,,1.0,learning,9.0,D,,red,,stars,,,,D,red,stars,,0.0,0.0,1,left,440.7000000477,1.0,0.0,0.0,,,
72,0,,html-keyboard-response,72,265272,0.0-4.10-0.10,1yf3geb1pa4i,2022-09-19 15:35:30.208,59400f1c6b84600001e76c13,3,37,33,25,34,33,female,,,"<img src=""static/images/cards/stack_of_red_bolts.svg"" width=""175px"" height=""250px""></img>",,,,,,,,,,,,,,,,,,,,,,,,,,,,
73,0,,html-keyboard-response,73,266172,0.0-4.10-1.10,1yf3geb1pa4i,2022-09-19 15:35:30.208,59400f1c6b84600001e76c13,3,37,33,25,34,33,female,390.6000000238,,"
  <table>
  <tr height=300>
    <td width=300 height=300><img src=""static/images/cards/back_of_red_bolts.svg"" width=""175px"" height=""250px""></img></td>
    <td width=300 height=300><img src=""static/images/cards/back_of_red_bolts.svg"" width=""175px"" height=""250px""></img></td>
  </tr>
  <tr height=200>
    <td width=300><img src=""static/images/keys/z.svg"" width=""35%"" height=""75%""></img></td>
    <td width=300><img src=""static/images/keys/m.svg"" width=""35%"" height=""75%""></img></td>
  </tr>
</table>
  ",77.0,1.0,,,,,,,,,,,,,,,,,,,,,,,,,,
74,0,,html-keyboard-response,74,267686,0.0-4.10-2.10,1yf3geb1pa4i,2022-09-19 15:35:30.208,59400f1c6b84600001e76c13,3,37,33,25,34,33,female,,,"
  <table>
  <tr height=300>
    <td width=300 height=300><img src=""static/images/cards/back_of_red_bolts.svg"" width=""175px"" height=""250px""></img></td>
    <td width=300 height=300><img src=""static/images/cards/2_of_red_bolts.svg"" width=""175px"" height=""250px""></img></td>
  </tr>
  <tr height=200>
    <td width=300><img src=""static/images/keys/z.svg"" width=""35%"" height=""75%""></img></td>
    <td width=300><img src=""static/images/keys/m.svg"" width=""35%"" height=""75%""></img></td>
  </tr>
</table>
  ",,,,,,,,,,,,,,,,,,,,,,,,,,,,
75,0,,html-keyboard-response,75,269208,0.0-4.10-3.10,1yf3geb1pa4i,2022-09-19 15:35:30.208,59400f1c6b84600001e76c13,3,37,33,25,34,33,female,,,"<p style=""font-size:50px"">You win!
+10 points this round!</p>",,,,,,,,,,,,,,,,,,,,,,,,,,,,
76,0,,html-keyboard-response,76,269721,0.0-4.10-4.10,1yf3geb1pa4i,2022-09-19 15:35:30.208,59400f1c6b84600001e76c13,3,37,33,25,34,33,female,,,,,,1.0,learning,10.0,Xc,,red,,bolts,,,,Xc,red,bolts,,1.0,0.0,NA,right,390.6000000238,2.0,0.0,1.0,,,
77,0,,html-keyboard-response,77,271237,0.0-4.11-0.11,1yf3geb1pa4i,2022-09-19 15:35:30.208,59400f1c6b84600001e76c13,3,37,33,25,34,33,female,,,"<img src=""static/images/cards/stack_of_black_bolts.svg"" width=""175px"" height=""250px""></img>",,,,,,,,,,,,,,,,,,,,,,,,,,,,
78,0,,html-keyboard-response,78,272703,0.0-4.11-1.11,1yf3geb1pa4i,2022-09-19 15:35:30.208,59400f1c6b84600001e76c13,3,37,33,25,34,33,female,955.6999999881,,"
  <table>
  <tr height=300>
    <td width=300 height=300><img src=""static/images/cards/back_of_black_bolts.svg"" width=""175px"" height=""250px""></img></td>
    <td width=300 height=300><img src=""static/images/cards/back_of_black_bolts.svg"" width=""175px"" height=""250px""></img></td>
  </tr>
  <tr height=200>
    <td width=300><img src=""static/images/keys/z.svg"" width=""35%"" height=""75%""></img></td>
    <td width=300></td>
  </tr>
</table>
  ",90.0,1.0,,,,,,,,,,,,,,,,,,,,,,,,,,
79,0,,html-keyboard-response,79,274206,0.0-4.11-2.11,1yf3geb1pa4i,2022-09-19 15:35:30.208,59400f1c6b84600001e76c13,3,37,33,25,34,33,female,,,"
  <table>
  <tr height=300>
    <td width=300 height=300><img src=""static/images/cards/3_of_black_bolts.svg"" width=""175px"" height=""250px""></img></td>
    <td width=300 height=300><img src=""static/images/cards/back_of_black_bolts.svg"" width=""175px"" height=""250px""></img></td>
  </tr>
  <tr height=200>
    <td width=300><img src=""static/images/keys/z.svg"" width=""35%"" height=""75%""></img></td>
    <td width=300></td>
  </tr>
</table>
  ",,,,,,,,,,,,,,,,,,,,,,,,,,,,
80,0,,html-keyboard-response,80,275729,0.0-4.11-3.11,1yf3geb1pa4i,2022-09-19 15:35:30.208,59400f1c6b84600001e76c13,3,37,33,25,34,33,female,,,"<p style=""font-size:50px"">You win!
+10 points this round!</p>",,,,,,,,,,,,,,,,,,,,,,,,,,,,
81,0,,html-keyboard-response,81,276242,0.0-4.11-4.11,1yf3geb1pa4i,2022-09-19 15:35:30.208,59400f1c6b84600001e76c13,3,37,33,25,34,33,female,,,,,,1.0,learning,11.0,Xnc,,black,,bolts,,,,Xnc,black,bolts,,0.0,0.0,1,left,955.6999999881,3.0,0.0,1.0,,,
82,0,,html-keyboard-response,82,277759,0.0-4.12-0.12,1yf3geb1pa4i,2022-09-19 15:35:30.208,59400f1c6b84600001e76c13,3,37,33,25,34,33,female,,,"<img src=""static/images/cards/stack_of_black_moons.svg"" width=""175px"" height=""250px""></img>",,,,,,,,,,,,,,,,,,,,,,,,,,,,
83,0,,html-keyboard-response,83,280614,0.0-4.12-1.12,1yf3geb1pa4i,2022-09-19 15:35:30.208,59400f1c6b84600001e76c13,3,37,33,25,34,33,female,2350.1000000238,,"
  <table>
  <tr height=300>
    <td width=300 height=300><img src=""static/images/cards/back_of_black_moons.svg"" width=""175px"" height=""250px""></img></td>
    <td width=300 height=300><img src=""static/images/cards/back_of_black_moons.svg"" width=""175px"" height=""250px""></img></td>
  </tr>
  <tr height=200>
    <td width=300><img src=""static/images/keys/z.svg"" width=""35%"" height=""75%""></img></td>
    <td width=300><img src=""static/images/keys/m.svg"" width=""35%"" height=""75%""></img></td>
  </tr>
</table>
  ",77.0,1.0,,,,,,,,,,,,,,,,,,,,,,,,,,
84,0,,html-keyboard-response,84,282123,0.0-4.12-2.12,1yf3geb1pa4i,2022-09-19 15:35:30.208,59400f1c6b84600001e76c13,3,37,33,25,34,33,female,,,"
  <table>
  <tr height=300>
    <td width=300 height=300><img src=""static/images/cards/back_of_black_moons.svg"" width=""175px"" height=""250px""></img></td>
    <td width=300 height=300><img src=""static/images/cards/3_of_black_moons.svg"" width=""175px"" height=""250px""></img></td>
  </tr>
  <tr height=200>
    <td width=300><img src=""static/images/keys/z.svg"" width=""35%"" height=""75%""></img></td>
    <td width=300><img src=""static/images/keys/m.svg"" width=""35%"" height=""75%""></img></td>
  </tr>
</table>
  ",,,,,,,,,,,,,,,,,,,,,,,,,,,,
85,0,,html-keyboard-response,85,283643,0.0-4.12-3.12,1yf3geb1pa4i,2022-09-19 15:35:30.208,59400f1c6b84600001e76c13,3,37,33,25,34,33,female,,,"<p style=""font-size:50px"">You Lose!
No points this round.</p>",,,,,,,,,,,,,,,,,,,,,,,,,,,,
86,0,,html-keyboard-response,86,284155,0.0-4.12-4.12,1yf3geb1pa4i,2022-09-19 15:35:30.208,59400f1c6b84600001e76c13,3,37,33,25,34,33,female,,,,,,1.0,learning,12.0,A,,black,,moons,,,,A,black,moons,,1.0,1.0,NA,right,2350.1000000238,3.0,0.0,0.0,,,
87,0,,html-keyboard-response,87,285657,0.0-4.13-0.13,1yf3geb1pa4i,2022-09-19 15:35:30.208,59400f1c6b84600001e76c13,3,37,33,25,34,33,female,,,"<img src=""static/images/cards/stack_of_red_moons.svg"" width=""175px"" height=""250px""></img>",,,,,,,,,,,,,,,,,,,,,,,,,,,,
88,0,,html-keyboard-response,88,286718,0.0-4.13-1.13,1yf3geb1pa4i,2022-09-19 15:35:30.208,59400f1c6b84600001e76c13,3,37,33,25,34,33,female,553.0999999642,,"
  <table>
  <tr height=300>
    <td width=300 height=300><img src=""static/images/cards/back_of_red_moons.svg"" width=""175px"" height=""250px""></img></td>
    <td width=300 height=300><img src=""static/images/cards/back_of_red_moons.svg"" width=""175px"" height=""250px""></img></td>
  </tr>
  <tr height=200>
    <td width=300><img src=""static/images/keys/z.svg"" width=""35%"" height=""75%""></img></td>
    <td width=300></td>
  </tr>
</table>
  ",90.0,1.0,,,,,,,,,,,,,,,,,,,,,,,,,,
89,0,,html-keyboard-response,89,288231,0.0-4.13-2.13,1yf3geb1pa4i,2022-09-19 15:35:30.208,59400f1c6b84600001e76c13,3,37,33,25,34,33,female,,,"
  <table>
  <tr height=300>
    <td width=300 height=300><img src=""static/images/cards/2_of_red_moons.svg"" width=""175px"" height=""250px""></img></td>
    <td width=300 height=300><img src=""static/images/cards/back_of_red_moons.svg"" width=""175px"" height=""250px""></img></td>
  </tr>
  <tr height=200>
    <td width=300><img src=""static/images/keys/z.svg"" width=""35%"" height=""75%""></img></td>
    <td width=300></td>
  </tr>
</table>
  ",,,,,,,,,,,,,,,,,,,,,,,,,,,,
90,0,,html-keyboard-response,90,289751,0.0-4.13-3.13,1yf3geb1pa4i,2022-09-19 15:35:30.208,59400f1c6b84600001e76c13,3,37,33,25,34,33,female,,,"<p style=""font-size:50px"">You Lose!
No points this round.</p>",,,,,,,,,,,,,,,,,,,,,,,,,,,,
91,0,,html-keyboard-response,91,290263,0.0-4.13-4.13,1yf3geb1pa4i,2022-09-19 15:35:30.208,59400f1c6b84600001e76c13,3,37,33,25,34,33,female,,,,,,1.0,learning,13.0,B,,red,,moons,,,,B,red,moons,,0.0,1.0,1,left,553.0999999642,2.0,0.0,0.0,,,
92,0,,html-keyboard-response,92,291780,0.0-4.14-0.14,1yf3geb1pa4i,2022-09-19 15:35:30.208,59400f1c6b84600001e76c13,3,37,33,25,34,33,female,,,"<img src=""static/images/cards/stack_of_black_stars.svg"" width=""175px"" height=""250px""></img>",,,,,,,,,,,,,,,,,,,,,,,,,,,,
93,0,,html-keyboard-response,93,292663,0.0-4.14-1.14,1yf3geb1pa4i,2022-09-19 15:35:30.208,59400f1c6b84600001e76c13,3,37,33,25,34,33,female,375.1000000238,,"
  <table>
  <tr height=300>
    <td width=300 height=300><img src=""static/images/cards/back_of_black_stars.svg"" width=""175px"" height=""250px""></img></td>
    <td width=300 height=300><img src=""static/images/cards/back_of_black_stars.svg"" width=""175px"" height=""250px""></img></td>
  </tr>
  <tr height=200>
    <td width=300><img src=""static/images/keys/z.svg"" width=""35%"" height=""75%""></img></td>
    <td width=300><img src=""static/images/keys/m.svg"" width=""35%"" height=""75%""></img></td>
  </tr>
</table>
  ",90.0,1.0,,,,,,,,,,,,,,,,,,,,,,,,,,
94,0,,html-keyboard-response,94,294172,0.0-4.14-2.14,1yf3geb1pa4i,2022-09-19 15:35:30.208,59400f1c6b84600001e76c13,3,37,33,25,34,33,female,,,"
  <table>
  <tr height=300>
    <td width=300 height=300><img src=""static/images/cards/3_of_black_stars.svg"" width=""175px"" height=""250px""></img></td>
    <td width=300 height=300><img src=""static/images/cards/back_of_black_stars.svg"" width=""175px"" height=""250px""></img></td>
  </tr>
  <tr height=200>
    <td width=300><img src=""static/images/keys/z.svg"" width=""35%"" height=""75%""></img></td>
    <td width=300><img src=""static/images/keys/m.svg"" width=""35%"" height=""75%""></img></td>
  </tr>
</table>
  ",,,,,,,,,,,,,,,,,,,,,,,,,,,,
95,0,,html-keyboard-response,95,295690,0.0-4.14-3.14,1yf3geb1pa4i,2022-09-19 15:35:30.208,59400f1c6b84600001e76c13,3,37,33,25,34,33,female,,,"<p style=""font-size:50px"">You win!
+10 points this round!</p>",,,,,,,,,,,,,,,,,,,,,,,,,,,,
96,0,,html-keyboard-response,96,296199,0.0-4.14-4.14,1yf3geb1pa4i,2022-09-19 15:35:30.208,59400f1c6b84600001e76c13,3,37,33,25,34,33,female,,,,,,1.0,learning,14.0,C,,black,,stars,,,,C,black,stars,,1.0,0.0,NA,left,375.1000000238,3.0,0.0,1.0,,,
97,0,,html-keyboard-response,97,297713,0.0-4.15-0.15,1yf3geb1pa4i,2022-09-19 15:35:30.208,59400f1c6b84600001e76c13,3,37,33,25,34,33,female,,,"<img src=""static/images/cards/stack_of_red_stars.svg"" width=""175px"" height=""250px""></img>",,,,,,,,,,,,,,,,,,,,,,,,,,,,
98,0,,html-keyboard-response,98,298700,0.0-4.15-1.15,1yf3geb1pa4i,2022-09-19 15:35:30.208,59400f1c6b84600001e76c13,3,37,33,25,34,33,female,469.8000000119,,"
  <table>
  <tr height=300>
    <td width=300 height=300><img src=""static/images/cards/back_of_red_stars.svg"" width=""175px"" height=""250px""></img></td>
    <td width=300 height=300><img src=""static/images/cards/back_of_red_stars.svg"" width=""175px"" height=""250px""></img></td>
  </tr>
  <tr height=200>
    <td width=300></td>
    <td width=300><img src=""static/images/keys/m.svg"" width=""35%"" height=""75%""></img></td>
  </tr>
</table>
  ",77.0,1.0,,,,,,,,,,,,,,,,,,,,,,,,,,
99,0,,html-keyboard-response,99,300209,0.0-4.15-2.15,1yf3geb1pa4i,2022-09-19 15:35:30.208,59400f1c6b84600001e76c13,3,37,33,25,34,33,female,,,"
  <table>
  <tr height=300>
    <td width=300 height=300><img src=""static/images/cards/back_of_red_stars.svg"" width=""175px"" height=""250px""></img></td>
    <td width=300 height=300><img src=""static/images/cards/1_of_red_stars.svg"" width=""175px"" height=""250px""></img></td>
  </tr>
  <tr height=200>
    <td width=300></td>
    <td width=300><img src=""static/images/keys/m.svg"" width=""35%"" height=""75%""></img></td>
  </tr>
</table>
  ",,,,,,,,,,,,,,,,,,,,,,,,,,,,
100,0,,html-keyboard-response,100,301732,0.0-4.15-3.15,1yf3geb1pa4i,2022-09-19 15:35:30.208,59400f1c6b84600001e76c13,3,37,33,25,34,33,female,,,"<p style=""font-size:50px"">You win!
+10 points this round!</p>",,,,,,,,,,,,,,,,,,,,,,,,,,,,
101,0,,html-keyboard-response,101,302246,0.0-4.15-4.15,1yf3geb1pa4i,2022-09-19 15:35:30.208,59400f1c6b84600001e76c13,3,37,33,25,34,33,female,,,,,,1.0,learning,15.0,D,,red,,stars,,,,D,red,stars,,0.0,0.0,0,right,469.8000000119,1.0,0.0,1.0,,,
102,0,,html-keyboard-response,102,303762,0.0-4.16-0.16,1yf3geb1pa4i,2022-09-19 15:35:30.208,59400f1c6b84600001e76c13,3,37,33,25,34,33,female,,,"<img src=""static/images/cards/stack_of_red_bolts.svg"" width=""175px"" height=""250px""></img>",,,,,,,,,,,,,,,,,,,,,,,,,,,,
103,0,,html-keyboard-response,103,304649,0.0-4.16-1.16,1yf3geb1pa4i,2022-09-19 15:35:30.208,59400f1c6b84600001e76c13,3,37,33,25,34,33,female,378.3000000119,,"
  <table>
  <tr height=300>
    <td width=300 height=300><img src=""static/images/cards/back_of_red_bolts.svg"" width=""175px"" height=""250px""></img></td>
    <td width=300 height=300><img src=""static/images/cards/back_of_red_bolts.svg"" width=""175px"" height=""250px""></img></td>
  </tr>
  <tr height=200>
    <td width=300><img src=""static/images/keys/z.svg"" width=""35%"" height=""75%""></img></td>
    <td width=300><img src=""static/images/keys/m.svg"" width=""35%"" height=""75%""></img></td>
  </tr>
</table>
  ",77.0,1.0,,,,,,,,,,,,,,,,,,,,,,,,,,
104,0,,html-keyboard-response,104,306153,0.0-4.16-2.16,1yf3geb1pa4i,2022-09-19 15:35:30.208,59400f1c6b84600001e76c13,3,37,33,25,34,33,female,,,"
  <table>
  <tr height=300>
    <td width=300 height=300><img src=""static/images/cards/back_of_red_bolts.svg"" width=""175px"" height=""250px""></img></td>
    <td width=300 height=300><img src=""static/images/cards/8_of_red_bolts.svg"" width=""175px"" height=""250px""></img></td>
  </tr>
  <tr height=200>
    <td width=300><img src=""static/images/keys/z.svg"" width=""35%"" height=""75%""></img></td>
    <td width=300><img src=""static/images/keys/m.svg"" width=""35%"" height=""75%""></img></td>
  </tr>
</table>
  ",,,,,,,,,,,,,,,,,,,,,,,,,,,,
105,0,,html-keyboard-response,105,307676,0.0-4.16-3.16,1yf3geb1pa4i,2022-09-19 15:35:30.208,59400f1c6b84600001e76c13,3,37,33,25,34,33,female,,,"<p style=""font-size:50px"">You win!
+10 points this round!</p>",,,,,,,,,,,,,,,,,,,,,,,,,,,,
106,0,,html-keyboard-response,106,308187,0.0-4.16-4.16,1yf3geb1pa4i,2022-09-19 15:35:30.208,59400f1c6b84600001e76c13,3,37,33,25,34,33,female,,,,,,1.0,learning,16.0,Xc,,red,,bolts,,,,Xc,red,bolts,,1.0,0.0,NA,right,378.3000000119,8.0,1.0,1.0,,,
107,0,,html-keyboard-response,107,309697,0.0-4.17-0.17,1yf3geb1pa4i,2022-09-19 15:35:30.208,59400f1c6b84600001e76c13,3,37,33,25,34,33,female,,,"<img src=""static/images/cards/stack_of_black_bolts.svg"" width=""175px"" height=""250px""></img>",,,,,,,,,,,,,,,,,,,,,,,,,,,,
108,0,,html-keyboard-response,108,310852,0.0-4.17-1.17,1yf3geb1pa4i,2022-09-19 15:35:30.208,59400f1c6b84600001e76c13,3,37,33,25,34,33,female,644.3999999762,,"
  <table>
  <tr height=300>
    <td width=300 height=300><img src=""static/images/cards/back_of_black_bolts.svg"" width=""175px"" height=""250px""></img></td>
    <td width=300 height=300><img src=""static/images/cards/back_of_black_bolts.svg"" width=""175px"" height=""250px""></img></td>
  </tr>
  <tr height=200>
    <td width=300></td>
    <td width=300><img src=""static/images/keys/m.svg"" width=""35%"" height=""75%""></img></td>
  </tr>
</table>
  ",77.0,1.0,,,,,,,,,,,,,,,,,,,,,,,,,,
109,0,,html-keyboard-response,109,312362,0.0-4.17-2.17,1yf3geb1pa4i,2022-09-19 15:35:30.208,59400f1c6b84600001e76c13,3,37,33,25,34,33,female,,,"
  <table>
  <tr height=300>
    <td width=300 height=300><img src=""static/images/cards/back_of_black_bolts.svg"" width=""175px"" height=""250px""></img></td>
    <td width=300 height=300><img src=""static/images/cards/10_of_black_bolts.svg"" width=""175px"" height=""250px""></img></td>
  </tr>
  <tr height=200>
    <td width=300></td>
    <td width=300><img src=""static/images/keys/m.svg"" width=""35%"" height=""75%""></img></td>
  </tr>
</table>
  ",,,,,,,,,,,,,,,,,,,,,,,,,,,,
110,0,,html-keyboard-response,110,313875,0.0-4.17-3.17,1yf3geb1pa4i,2022-09-19 15:35:30.208,59400f1c6b84600001e76c13,3,37,33,25,34,33,female,,,"<p style=""font-size:50px"">You win!
+10 points this round!</p>",,,,,,,,,,,,,,,,,,,,,,,,,,,,
111,0,,html-keyboard-response,111,314389,0.0-4.17-4.17,1yf3geb1pa4i,2022-09-19 15:35:30.208,59400f1c6b84600001e76c13,3,37,33,25,34,33,female,,,,,,1.0,learning,17.0,Xnc,,black,,bolts,,,,Xnc,black,bolts,,0.0,0.0,0,right,644.3999999762,10.0,1.0,1.0,,,
112,0,,html-keyboard-response,112,315901,0.0-4.18-0.18,1yf3geb1pa4i,2022-09-19 15:35:30.208,59400f1c6b84600001e76c13,3,37,33,25,34,33,female,,,"<img src=""static/images/cards/stack_of_black_moons.svg"" width=""175px"" height=""250px""></img>",,,,,,,,,,,,,,,,,,,,,,,,,,,,
113,0,,html-keyboard-response,113,316806,0.0-4.18-1.18,1yf3geb1pa4i,2022-09-19 15:35:30.208,59400f1c6b84600001e76c13,3,37,33,25,34,33,female,397.5,,"
  <table>
  <tr height=300>
    <td width=300 height=300><img src=""static/images/cards/back_of_black_moons.svg"" width=""175px"" height=""250px""></img></td>
    <td width=300 height=300><img src=""static/images/cards/back_of_black_moons.svg"" width=""175px"" height=""250px""></img></td>
  </tr>
  <tr height=200>
    <td width=300><img src=""static/images/keys/z.svg"" width=""35%"" height=""75%""></img></td>
    <td width=300><img src=""static/images/keys/m.svg"" width=""35%"" height=""75%""></img></td>
  </tr>
</table>
  ",90.0,1.0,,,,,,,,,,,,,,,,,,,,,,,,,,
114,0,,html-keyboard-response,114,318325,0.0-4.18-2.18,1yf3geb1pa4i,2022-09-19 15:35:30.208,59400f1c6b84600001e76c13,3,37,33,25,34,33,female,,,"
  <table>
  <tr height=300>
    <td width=300 height=300><img src=""static/images/cards/2_of_black_moons.svg"" width=""175px"" height=""250px""></img></td>
    <td width=300 height=300><img src=""static/images/cards/back_of_black_moons.svg"" width=""175px"" height=""250px""></img></td>
  </tr>
  <tr height=200>
    <td width=300><img src=""static/images/keys/z.svg"" width=""35%"" height=""75%""></img></td>
    <td width=300><img src=""static/images/keys/m.svg"" width=""35%"" height=""75%""></img></td>
  </tr>
</table>
  ",,,,,,,,,,,,,,,,,,,,,,,,,,,,
115,0,,html-keyboard-response,115,319854,0.0-4.18-3.18,1yf3geb1pa4i,2022-09-19 15:35:30.208,59400f1c6b84600001e76c13,3,37,33,25,34,33,female,,,"<p style=""font-size:50px"">You Lose!
No points this round.</p>",,,,,,,,,,,,,,,,,,,,,,,,,,,,
116,0,,html-keyboard-response,116,320364,0.0-4.18-4.18,1yf3geb1pa4i,2022-09-19 15:35:30.208,59400f1c6b84600001e76c13,3,37,33,25,34,33,female,,,,,,1.0,learning,18.0,A,,black,,moons,,,,A,black,moons,,1.0,1.0,NA,left,397.5,2.0,0.0,0.0,,,
117,0,,html-keyboard-response,117,321881,0.0-4.19-0.19,1yf3geb1pa4i,2022-09-19 15:35:30.208,59400f1c6b84600001e76c13,3,37,33,25,34,33,female,,,"<img src=""static/images/cards/stack_of_red_moons.svg"" width=""175px"" height=""250px""></img>",,,,,,,,,,,,,,,,,,,,,,,,,,,,
118,0,,html-keyboard-response,118,322719,0.0-4.19-1.19,1yf3geb1pa4i,2022-09-19 15:35:30.208,59400f1c6b84600001e76c13,3,37,33,25,34,33,female,327.0,,"
  <table>
  <tr height=300>
    <td width=300 height=300><img src=""static/images/cards/back_of_red_moons.svg"" width=""175px"" height=""250px""></img></td>
    <td width=300 height=300><img src=""static/images/cards/back_of_red_moons.svg"" width=""175px"" height=""250px""></img></td>
  </tr>
  <tr height=200>
    <td width=300></td>
    <td width=300><img src=""static/images/keys/m.svg"" width=""35%"" height=""75%""></img></td>
  </tr>
</table>
  ",77.0,1.0,,,,,,,,,,,,,,,,,,,,,,,,,,
119,0,,html-keyboard-response,119,324225,0.0-4.19-2.19,1yf3geb1pa4i,2022-09-19 15:35:30.208,59400f1c6b84600001e76c13,3,37,33,25,34,33,female,,,"
  <table>
  <tr height=300>
    <td width=300 height=300><img src=""static/images/cards/back_of_red_moons.svg"" width=""175px"" height=""250px""></img></td>
    <td width=300 height=300><img src=""static/images/cards/3_of_red_moons.svg"" width=""175px"" height=""250px""></img></td>
  </tr>
  <tr height=200>
    <td width=300></td>
    <td width=300><img src=""static/images/keys/m.svg"" width=""35%"" height=""75%""></img></td>
  </tr>
</table>
  ",,,,,,,,,,,,,,,,,,,,,,,,,,,,
120,0,,html-keyboard-response,120,325744,0.0-4.19-3.19,1yf3geb1pa4i,2022-09-19 15:35:30.208,59400f1c6b84600001e76c13,3,37,33,25,34,33,female,,,"<p style=""font-size:50px"">You Lose!
No points this round.</p>",,,,,,,,,,,,,,,,,,,,,,,,,,,,
121,0,,html-keyboard-response,121,326259,0.0-4.19-4.19,1yf3geb1pa4i,2022-09-19 15:35:30.208,59400f1c6b84600001e76c13,3,37,33,25,34,33,female,,,,,,1.0,learning,19.0,B,,red,,moons,,,,B,red,moons,,0.0,1.0,0,right,327.0,3.0,0.0,0.0,,,
122,0,,html-keyboard-response,122,327774,0.0-4.20-0.20,1yf3geb1pa4i,2022-09-19 15:35:30.208,59400f1c6b84600001e76c13,3,37,33,25,34,33,female,,,"<img src=""static/images/cards/stack_of_black_stars.svg"" width=""175px"" height=""250px""></img>",,,,,,,,,,,,,,,,,,,,,,,,,,,,
123,0,,html-keyboard-response,123,328602,0.0-4.20-1.20,1yf3geb1pa4i,2022-09-19 15:35:30.208,59400f1c6b84600001e76c13,3,37,33,25,34,33,female,322.7000000477,,"
  <table>
  <tr height=300>
    <td width=300 height=300><img src=""static/images/cards/back_of_black_stars.svg"" width=""175px"" height=""250px""></img></td>
    <td width=300 height=300><img src=""static/images/cards/back_of_black_stars.svg"" width=""175px"" height=""250px""></img></td>
  </tr>
  <tr height=200>
    <td width=300><img src=""static/images/keys/z.svg"" width=""35%"" height=""75%""></img></td>
    <td width=300><img src=""static/images/keys/m.svg"" width=""35%"" height=""75%""></img></td>
  </tr>
</table>
  ",90.0,1.0,,,,,,,,,,,,,,,,,,,,,,,,,,
124,0,,html-keyboard-response,124,330117,0.0-4.20-2.20,1yf3geb1pa4i,2022-09-19 15:35:30.208,59400f1c6b84600001e76c13,3,37,33,25,34,33,female,,,"
  <table>
  <tr height=300>
    <td width=300 height=300><img src=""static/images/cards/3_of_black_stars.svg"" width=""175px"" height=""250px""></img></td>
    <td width=300 height=300><img src=""static/images/cards/back_of_black_stars.svg"" width=""175px"" height=""250px""></img></td>
  </tr>
  <tr height=200>
    <td width=300><img src=""static/images/keys/z.svg"" width=""35%"" height=""75%""></img></td>
    <td width=300><img src=""static/images/keys/m.svg"" width=""35%"" height=""75%""></img></td>
  </tr>
</table>
  ",,,,,,,,,,,,,,,,,,,,,,,,,,,,
125,0,,html-keyboard-response,125,331639,0.0-4.20-3.20,1yf3geb1pa4i,2022-09-19 15:35:30.208,59400f1c6b84600001e76c13,3,37,33,25,34,33,female,,,"<p style=""font-size:50px"">You Lose!
No points this round.</p>",,,,,,,,,,,,,,,,,,,,,,,,,,,,
126,0,,html-keyboard-response,126,332150,0.0-4.20-4.20,1yf3geb1pa4i,2022-09-19 15:35:30.208,59400f1c6b84600001e76c13,3,37,33,25,34,33,female,,,,,,1.0,learning,20.0,C,,black,,stars,,,,C,black,stars,,1.0,0.0,NA,left,322.7000000477,3.0,0.0,0.0,,,
127,0,,html-keyboard-response,127,333664,0.0-4.21-0.21,1yf3geb1pa4i,2022-09-19 15:35:30.208,59400f1c6b84600001e76c13,3,37,33,25,34,33,female,,,"<img src=""static/images/cards/stack_of_red_stars.svg"" width=""175px"" height=""250px""></img>",,,,,,,,,,,,,,,,,,,,,,,,,,,,
128,0,,html-keyboard-response,128,334542,0.0-4.21-1.21,1yf3geb1pa4i,2022-09-19 15:35:30.208,59400f1c6b84600001e76c13,3,37,33,25,34,33,female,368.8999999762,,"
  <table>
  <tr height=300>
    <td width=300 height=300><img src=""static/images/cards/back_of_red_stars.svg"" width=""175px"" height=""250px""></img></td>
    <td width=300 height=300><img src=""static/images/cards/back_of_red_stars.svg"" width=""175px"" height=""250px""></img></td>
  </tr>
  <tr height=200>
    <td width=300></td>
    <td width=300><img src=""static/images/keys/m.svg"" width=""35%"" height=""75%""></img></td>
  </tr>
</table>
  ",77.0,1.0,,,,,,,,,,,,,,,,,,,,,,,,,,
129,0,,html-keyboard-response,129,336057,0.0-4.21-2.21,1yf3geb1pa4i,2022-09-19 15:35:30.208,59400f1c6b84600001e76c13,3,37,33,25,34,33,female,,,"
  <table>
  <tr height=300>
    <td width=300 height=300><img src=""static/images/cards/back_of_red_stars.svg"" width=""175px"" height=""250px""></img></td>
    <td width=300 height=300><img src=""static/images/cards/10_of_red_stars.svg"" width=""175px"" height=""250px""></img></td>
  </tr>
  <tr height=200>
    <td width=300></td>
    <td width=300><img src=""static/images/keys/m.svg"" width=""35%"" height=""75%""></img></td>
  </tr>
</table>
  ",,,,,,,,,,,,,,,,,,,,,,,,,,,,
130,0,,html-keyboard-response,130,337581,0.0-4.21-3.21,1yf3geb1pa4i,2022-09-19 15:35:30.208,59400f1c6b84600001e76c13,3,37,33,25,34,33,female,,,"<p style=""font-size:50px"">You Lose!
No points this round.</p>",,,,,,,,,,,,,,,,,,,,,,,,,,,,
131,0,,html-keyboard-response,131,338090,0.0-4.21-4.21,1yf3geb1pa4i,2022-09-19 15:35:30.208,59400f1c6b84600001e76c13,3,37,33,25,34,33,female,,,,,,1.0,learning,21.0,D,,red,,stars,,,,D,red,stars,,0.0,0.0,0,right,368.8999999762,10.0,1.0,0.0,,,
132,0,,html-keyboard-response,132,339607,0.0-4.22-0.22,1yf3geb1pa4i,2022-09-19 15:35:30.208,59400f1c6b84600001e76c13,3,37,33,25,34,33,female,,,"<img src=""static/images/cards/stack_of_red_bolts.svg"" width=""175px"" height=""250px""></img>",,,,,,,,,,,,,,,,,,,,,,,,,,,,
133,0,,html-keyboard-response,133,340447,0.0-4.22-1.22,1yf3geb1pa4i,2022-09-19 15:35:30.208,59400f1c6b84600001e76c13,3,37,33,25,34,33,female,332.1999999881,,"
  <table>
  <tr height=300>
    <td width=300 height=300><img src=""static/images/cards/back_of_red_bolts.svg"" width=""175px"" height=""250px""></img></td>
    <td width=300 height=300><img src=""static/images/cards/back_of_red_bolts.svg"" width=""175px"" height=""250px""></img></td>
  </tr>
  <tr height=200>
    <td width=300><img src=""static/images/keys/z.svg"" width=""35%"" height=""75%""></img></td>
    <td width=300><img src=""static/images/keys/m.svg"" width=""35%"" height=""75%""></img></td>
  </tr>
</table>
  ",90.0,1.0,,,,,,,,,,,,,,,,,,,,,,,,,,
134,0,,html-keyboard-response,134,341963,0.0-4.22-2.22,1yf3geb1pa4i,2022-09-19 15:35:30.208,59400f1c6b84600001e76c13,3,37,33,25,34,33,female,,,"
  <table>
  <tr height=300>
    <td width=300 height=300><img src=""static/images/cards/7_of_red_bolts.svg"" width=""175px"" height=""250px""></img></td>
    <td width=300 height=300><img src=""static/images/cards/back_of_red_bolts.svg"" width=""175px"" height=""250px""></img></td>
  </tr>
  <tr height=200>
    <td width=300><img src=""static/images/keys/z.svg"" width=""35%"" height=""75%""></img></td>
    <td width=300><img src=""static/images/keys/m.svg"" width=""35%"" height=""75%""></img></td>
  </tr>
</table>
  ",,,,,,,,,,,,,,,,,,,,,,,,,,,,
135,0,,html-keyboard-response,135,343477,0.0-4.22-3.22,1yf3geb1pa4i,2022-09-19 15:35:30.208,59400f1c6b84600001e76c13,3,37,33,25,34,33,female,,,"<p style=""font-size:50px"">You win!
+10 points this round!</p>",,,,,,,,,,,,,,,,,,,,,,,,,,,,
136,0,,html-keyboard-response,136,343990,0.0-4.22-4.22,1yf3geb1pa4i,2022-09-19 15:35:30.208,59400f1c6b84600001e76c13,3,37,33,25,34,33,female,,,,,,1.0,learning,22.0,Xc,,red,,bolts,,,,Xc,red,bolts,,1.0,0.0,NA,left,332.1999999881,7.0,1.0,1.0,,,
137,0,,html-keyboard-response,137,345503,0.0-4.23-0.23,1yf3geb1pa4i,2022-09-19 15:35:30.208,59400f1c6b84600001e76c13,3,37,33,25,34,33,female,,,"<img src=""static/images/cards/stack_of_black_bolts.svg"" width=""175px"" height=""250px""></img>",,,,,,,,,,,,,,,,,,,,,,,,,,,,
138,0,,html-keyboard-response,138,346353,0.0-4.23-1.23,1yf3geb1pa4i,2022-09-19 15:35:30.208,59400f1c6b84600001e76c13,3,37,33,25,34,33,female,339.0999999642,,"
  <table>
  <tr height=300>
    <td width=300 height=300><img src=""static/images/cards/back_of_black_bolts.svg"" width=""175px"" height=""250px""></img></td>
    <td width=300 height=300><img src=""static/images/cards/back_of_black_bolts.svg"" width=""175px"" height=""250px""></img></td>
  </tr>
  <tr height=200>
    <td width=300></td>
    <td width=300><img src=""static/images/keys/m.svg"" width=""35%"" height=""75%""></img></td>
  </tr>
</table>
  ",77.0,1.0,,,,,,,,,,,,,,,,,,,,,,,,,,
139,0,,html-keyboard-response,139,347867,0.0-4.23-2.23,1yf3geb1pa4i,2022-09-19 15:35:30.208,59400f1c6b84600001e76c13,3,37,33,25,34,33,female,,,"
  <table>
  <tr height=300>
    <td width=300 height=300><img src=""static/images/cards/back_of_black_bolts.svg"" width=""175px"" height=""250px""></img></td>
    <td width=300 height=300><img src=""static/images/cards/9_of_black_bolts.svg"" width=""175px"" height=""250px""></img></td>
  </tr>
  <tr height=200>
    <td width=300></td>
    <td width=300><img src=""static/images/keys/m.svg"" width=""35%"" height=""75%""></img></td>
  </tr>
</table>
  ",,,,,,,,,,,,,,,,,,,,,,,,,,,,
140,0,,html-keyboard-response,140,349392,0.0-4.23-3.23,1yf3geb1pa4i,2022-09-19 15:35:30.208,59400f1c6b84600001e76c13,3,37,33,25,34,33,female,,,"<p style=""font-size:50px"">You win!
+10 points this round!</p>",,,,,,,,,,,,,,,,,,,,,,,,,,,,
141,0,,html-keyboard-response,141,349904,0.0-4.23-4.23,1yf3geb1pa4i,2022-09-19 15:35:30.208,59400f1c6b84600001e76c13,3,37,33,25,34,33,female,,,,,,1.0,learning,23.0,Xnc,,black,,bolts,,,,Xnc,black,bolts,,0.0,0.0,0,right,339.0999999642,9.0,1.0,1.0,,,
142,0,,call-function,142,349912,0.0-5.0,1yf3geb1pa4i,2022-09-19 15:35:30.208,59400f1c6b84600001e76c13,3,37,33,25,34,33,female,,,,,,,,,,,,,,,,,,,,,,,,,,,,,,,
143,0,,image-keyboard-response,143,367842,0.0-6.0-0.0,1yf3geb1pa4i,2022-09-19 15:35:30.208,59400f1c6b84600001e76c13,3,37,33,25,34,33,female,17930.2000000477,,static/images/instructions_CB_3/Slide20.png,39.0,,,,,,,,,,,,,,,,,,,,,,,,,,,
144,0,,image-keyboard-response,144,371706,0.0-6.1-0.1,1yf3geb1pa4i,2022-09-19 15:35:30.208,59400f1c6b84600001e76c13,3,37,33,25,34,33,female,3862.4000000358,,static/images/instructions_CB_3/Slide21.png,39.0,,,,,,,,,,,,,,,,,,,,,,,,,,,
145,0,,image-keyboard-response,145,373673,0.0-6.2-0.2,1yf3geb1pa4i,2022-09-19 15:35:30.208,59400f1c6b84600001e76c13,3,37,33,25,34,33,female,1965.6999999881,,static/images/instructions_CB_3/Slide22.png,39.0,,,,,,,,,,,,,,,,,,,,,,,,,,,
146,0,,image-keyboard-response,146,375033,0.0-6.3-0.3,1yf3geb1pa4i,2022-09-19 15:35:30.208,59400f1c6b84600001e76c13,3,37,33,25,34,33,female,1358.1999999881,,static/images/instructions_CB_3/Slide23.png,39.0,,,,,,,,,,,,,,,,,,,,,,,,,,,
147,0,,image-keyboard-response,147,380503,0.0-6.4-0.4,1yf3geb1pa4i,2022-09-19 15:35:30.208,59400f1c6b84600001e76c13,3,37,33,25,34,33,female,5469.4000000358,,static/images/instructions_CB_3/Slide24.png,39.0,,,,,,,,,,,,,,,,,,,,,,,,,,,
148,0,,html-keyboard-response,148,384523,0.0-7.0-0.0,1yf3geb1pa4i,2022-09-19 15:35:30.208,59400f1c6b84600001e76c13,3,37,33,25,34,33,female,4017.0,,"
  <table>
  <tr height=300>
    <td width=300 height=300><img src=""static/images/cards/stack_of_red_bolts.svg"" width=""175px"" height=""250px""></img></td>
    <td width=300 height=300><img src=""static/images/cards/stack_of_black_moons.svg"" width=""175px"" height=""250px""></img></td>
  </tr>
  <tr height=200>
    <td width=300><img src=""static/images/keys/w.svg"" width=""35%"" height=""75%""></img></td>
    <td width=300><img src=""static/images/keys/o.svg"" width=""35%"" height=""75%""></img></td>
  </tr>
</table>
  ",87.0,2.0,,,,,,,,,,,,,,,,,,,,,,,,,,
149,0,,html-keyboard-response,149,387607,0.0-7.0-1.0,1yf3geb1pa4i,2022-09-19 15:35:30.208,59400f1c6b84600001e76c13,3,37,33,25,34,33,female,2579.6999999881,,"
  <table>
  <tr height=300>
    <td width=300 height=300><img src=""static/images/cards/back_of_red_bolts.svg"" width=""175px"" height=""250px""></img></td>
    <td width=300 height=300><img src=""static/images/cards/back_of_red_bolts.svg"" width=""175px"" height=""250px""></img></td>
  </tr>
  <tr height=200>
    <td width=300><img src=""static/images/keys/z.svg"" width=""35%"" height=""75%""></img></td>
    <td width=300><img src=""static/images/keys/m.svg"" width=""35%"" height=""75%""></img></td>
  </tr>
</table>
  ",90.0,1.0,,,,,,,,,,,,,,,,,,,,,,,,,,
150,0,,html-keyboard-response,150,389110,0.0-7.0-2.0,1yf3geb1pa4i,2022-09-19 15:35:30.208,59400f1c6b84600001e76c13,3,37,33,25,34,33,female,,,"
  <table>
  <tr height=300>
    <td width=300 height=300><img src=""static/images/cards/9_of_red_bolts.svg"" width=""175px"" height=""250px""></img></td>
    <td width=300 height=300><img src=""static/images/cards/back_of_red_bolts.svg"" width=""175px"" height=""250px""></img></td>
  </tr>
  <tr height=200>
    <td width=300><img src=""static/images/keys/z.svg"" width=""35%"" height=""75%""></img></td>
    <td width=300><img src=""static/images/keys/m.svg"" width=""35%"" height=""75%""></img></td>
  </tr>
</table>
  ",,,,,,,,,,,,,,,,,,,,,,,,,,,,
151,0,,html-keyboard-response,151,390632,0.0-7.0-3.0,1yf3geb1pa4i,2022-09-19 15:35:30.208,59400f1c6b84600001e76c13,3,37,33,25,34,33,female,,,"<p style=""font-size:50px"">You win!
+10 points this round!</p>",,,,,,,,,,,,,,,,,,,,,,,,,,,,
152,0,,html-keyboard-response,152,391145,0.0-7.0-4.0,1yf3geb1pa4i,2022-09-19 15:35:30.208,59400f1c6b84600001e76c13,3,37,33,25,34,33,female,,,,,,1.0,choice,0.0,A,Xc,red,black,bolts,moons,Xc,A,Xc,red,bolts,4017.0,1.0,0.0,NA,left,2579.6999999881,9.0,1.0,1.0,,,
153,0,,html-keyboard-response,153,395315,0.0-7.1-0.1,1yf3geb1pa4i,2022-09-19 15:35:30.208,59400f1c6b84600001e76c13,3,37,33,25,34,33,female,4167.2999999523,,"
  <table>
  <tr height=300>
    <td width=300 height=300><img src=""static/images/cards/stack_of_black_stars.svg"" width=""175px"" height=""250px""></img></td>
    <td width=300 height=300><img src=""static/images/cards/stack_of_red_moons.svg"" width=""175px"" height=""250px""></img></td>
  </tr>
  <tr height=200>
    <td width=300><img src=""static/images/keys/w.svg"" width=""35%"" height=""75%""></img></td>
    <td width=300><img src=""static/images/keys/o.svg"" width=""35%"" height=""75%""></img></td>
  </tr>
</table>
  ",79.0,2.0,,,,,,,,,,,,,,,,,,,,,,,,,,
154,0,,html-keyboard-response,154,397656,0.0-7.1-1.1,1yf3geb1pa4i,2022-09-19 15:35:30.208,59400f1c6b84600001e76c13,3,37,33,25,34,33,female,1830.1000000238,,"
  <table>
  <tr height=300>
    <td width=300 height=300><img src=""static/images/cards/back_of_red_moons.svg"" width=""175px"" height=""250px""></img></td>
    <td width=300 height=300><img src=""static/images/cards/back_of_red_moons.svg"" width=""175px"" height=""250px""></img></td>
  </tr>
  <tr height=200>
    <td width=300><img src=""static/images/keys/z.svg"" width=""35%"" height=""75%""></img></td>
    <td width=300></td>
  </tr>
</table>
  ",90.0,1.0,,,,,,,,,,,,,,,,,,,,,,,,,,
155,0,,html-keyboard-response,155,399162,0.0-7.1-2.1,1yf3geb1pa4i,2022-09-19 15:35:30.208,59400f1c6b84600001e76c13,3,37,33,25,34,33,female,,,"
  <table>
  <tr height=300>
    <td width=300 height=300><img src=""static/images/cards/1_of_red_moons.svg"" width=""175px"" height=""250px""></img></td>
    <td width=300 height=300><img src=""static/images/cards/back_of_red_moons.svg"" width=""175px"" height=""250px""></img></td>
  </tr>
  <tr height=200>
    <td width=300><img src=""static/images/keys/z.svg"" width=""35%"" height=""75%""></img></td>
    <td width=300></td>
  </tr>
</table>
  ",,,,,,,,,,,,,,,,,,,,,,,,,,,,
156,0,,html-keyboard-response,156,400673,0.0-7.1-3.1,1yf3geb1pa4i,2022-09-19 15:35:30.208,59400f1c6b84600001e76c13,3,37,33,25,34,33,female,,,"<p style=""font-size:50px"">You Lose!
No points this round.</p>",,,,,,,,,,,,,,,,,,,,,,,,,,,,
157,0,,html-keyboard-response,157,401187,0.0-7.1-4.1,1yf3geb1pa4i,2022-09-19 15:35:30.208,59400f1c6b84600001e76c13,3,37,33,25,34,33,female,,,,,,1.0,choice,1.0,B,C,black,red,stars,moons,C,B,B,red,moons,4167.2999999523,0.0,1.0,1,left,1830.1000000238,1.0,0.0,0.0,,,
158,0,,html-keyboard-response,158,403462,0.0-7.2-0.2,1yf3geb1pa4i,2022-09-19 15:35:30.208,59400f1c6b84600001e76c13,3,37,33,25,34,33,female,2273.0999999642,,"
  <table>
  <tr height=300>
    <td width=300 height=300><img src=""static/images/cards/stack_of_black_moons.svg"" width=""175px"" height=""250px""></img></td>
    <td width=300 height=300><img src=""static/images/cards/stack_of_red_stars.svg"" width=""175px"" height=""250px""></img></td>
  </tr>
  <tr height=200>
    <td width=300><img src=""static/images/keys/w.svg"" width=""35%"" height=""75%""></img></td>
    <td width=300><img src=""static/images/keys/o.svg"" width=""35%"" height=""75%""></img></td>
  </tr>
</table>
  ",87.0,1.0,,,,,,,,,,,,,,,,,,,,,,,,,,
159,0,,html-keyboard-response,159,404850,0.0-7.2-1.2,1yf3geb1pa4i,2022-09-19 15:35:30.208,59400f1c6b84600001e76c13,3,37,33,25,34,33,female,881.1999999881,,"
  <table>
  <tr height=300>
    <td width=300 height=300><img src=""static/images/cards/back_of_black_moons.svg"" width=""175px"" height=""250px""></img></td>
    <td width=300 height=300><img src=""static/images/cards/back_of_black_moons.svg"" width=""175px"" height=""250px""></img></td>
  </tr>
  <tr height=200>
    <td width=300><img src=""static/images/keys/z.svg"" width=""35%"" height=""75%""></img></td>
    <td width=300><img src=""static/images/keys/m.svg"" width=""35%"" height=""75%""></img></td>
  </tr>
</table>
  ",90.0,1.0,,,,,,,,,,,,,,,,,,,,,,,,,,
160,0,,html-keyboard-response,160,406362,0.0-7.2-2.2,1yf3geb1pa4i,2022-09-19 15:35:30.208,59400f1c6b84600001e76c13,3,37,33,25,34,33,female,,,"
  <table>
  <tr height=300>
    <td width=300 height=300><img src=""static/images/cards/7_of_black_moons.svg"" width=""175px"" height=""250px""></img></td>
    <td width=300 height=300><img src=""static/images/cards/back_of_black_moons.svg"" width=""175px"" height=""250px""></img></td>
  </tr>
  <tr height=200>
    <td width=300><img src=""static/images/keys/z.svg"" width=""35%"" height=""75%""></img></td>
    <td width=300><img src=""static/images/keys/m.svg"" width=""35%"" height=""75%""></img></td>
  </tr>
</table>
  ",,,,,,,,,,,,,,,,,,,,,,,,,,,,
161,0,,html-keyboard-response,161,407875,0.0-7.2-3.2,1yf3geb1pa4i,2022-09-19 15:35:30.208,59400f1c6b84600001e76c13,3,37,33,25,34,33,female,,,"<p style=""font-size:50px"">You win!
+10 points this round!</p>",,,,,,,,,,,,,,,,,,,,,,,,,,,,
162,0,,html-keyboard-response,162,408386,0.0-7.2-4.2,1yf3geb1pa4i,2022-09-19 15:35:30.208,59400f1c6b84600001e76c13,3,37,33,25,34,33,female,,,,,,1.0,choice,2.0,A,D,black,red,moons,stars,A,D,A,black,moons,2273.0999999642,1.0,1.0,NA,left,881.1999999881,7.0,1.0,1.0,,,
163,0,,html-keyboard-response,163,410792,0.0-7.3-0.3,1yf3geb1pa4i,2022-09-19 15:35:30.208,59400f1c6b84600001e76c13,3,37,33,25,34,33,female,2404.5,,"
  <table>
  <tr height=300>
    <td width=300 height=300><img src=""static/images/cards/stack_of_red_moons.svg"" width=""175px"" height=""250px""></img></td>
    <td width=300 height=300><img src=""static/images/cards/stack_of_black_stars.svg"" width=""175px"" height=""250px""></img></td>
  </tr>
  <tr height=200>
    <td width=300><img src=""static/images/keys/w.svg"" width=""35%"" height=""75%""></img></td>
    <td width=300><img src=""static/images/keys/o.svg"" width=""35%"" height=""75%""></img></td>
  </tr>
</table>
  ",79.0,1.0,,,,,,,,,,,,,,,,,,,,,,,,,,
164,0,,html-keyboard-response,164,412294,0.0-7.3-1.3,1yf3geb1pa4i,2022-09-19 15:35:30.208,59400f1c6b84600001e76c13,3,37,33,25,34,33,female,983.3000000119,,"
  <table>
  <tr height=300>
    <td width=300 height=300><img src=""static/images/cards/back_of_black_stars.svg"" width=""175px"" height=""250px""></img></td>
    <td width=300 height=300><img src=""static/images/cards/back_of_black_stars.svg"" width=""175px"" height=""250px""></img></td>
  </tr>
  <tr height=200>
    <td width=300><img src=""static/images/keys/z.svg"" width=""35%"" height=""75%""></img></td>
    <td width=300><img src=""static/images/keys/m.svg"" width=""35%"" height=""75%""></img></td>
  </tr>
</table>
  ",77.0,1.0,,,,,,,,,,,,,,,,,,,,,,,,,,
165,0,,html-keyboard-response,165,413800,0.0-7.3-2.3,1yf3geb1pa4i,2022-09-19 15:35:30.208,59400f1c6b84600001e76c13,3,37,33,25,34,33,female,,,"
  <table>
  <tr height=300>
    <td width=300 height=300><img src=""static/images/cards/back_of_black_stars.svg"" width=""175px"" height=""250px""></img></td>
    <td width=300 height=300><img src=""static/images/cards/1_of_black_stars.svg"" width=""175px"" height=""250px""></img></td>
  </tr>
  <tr height=200>
    <td width=300><img src=""static/images/keys/z.svg"" width=""35%"" height=""75%""></img></td>
    <td width=300><img src=""static/images/keys/m.svg"" width=""35%"" height=""75%""></img></td>
  </tr>
</table>
  ",,,,,,,,,,,,,,,,,,,,,,,,,,,,
166,0,,html-keyboard-response,166,415323,0.0-7.3-3.3,1yf3geb1pa4i,2022-09-19 15:35:30.208,59400f1c6b84600001e76c13,3,37,33,25,34,33,female,,,"<p style=""font-size:50px"">You win!
+10 points this round!</p>",,,,,,,,,,,,,,,,,,,,,,,,,,,,
167,0,,html-keyboard-response,167,415833,0.0-7.3-4.3,1yf3geb1pa4i,2022-09-19 15:35:30.208,59400f1c6b84600001e76c13,3,37,33,25,34,33,female,,,,,,1.0,choice,3.0,B,C,red,black,moons,stars,B,C,C,black,stars,2404.5,1.0,0.0,NA,right,983.3000000119,1.0,0.0,1.0,,,
168,0,,html-keyboard-response,168,417541,0.0-7.4-0.4,1yf3geb1pa4i,2022-09-19 15:35:30.208,59400f1c6b84600001e76c13,3,37,33,25,34,33,female,1704.1999999881,,"
  <table>
  <tr height=300>
    <td width=300 height=300><img src=""static/images/cards/stack_of_black_stars.svg"" width=""175px"" height=""250px""></img></td>
    <td width=300 height=300><img src=""static/images/cards/stack_of_black_moons.svg"" width=""175px"" height=""250px""></img></td>
  </tr>
  <tr height=200>
    <td width=300><img src=""static/images/keys/w.svg"" width=""35%"" height=""75%""></img></td>
    <td width=300><img src=""static/images/keys/o.svg"" width=""35%"" height=""75%""></img></td>
  </tr>
</table>
  ",79.0,1.0,,,,,,,,,,,,,,,,,,,,,,,,,,
169,0,,html-keyboard-response,169,419397,0.0-7.4-1.4,1yf3geb1pa4i,2022-09-19 15:35:30.208,59400f1c6b84600001e76c13,3,37,33,25,34,33,female,1350.8999999762,,"
  <table>
  <tr height=300>
    <td width=300 height=300><img src=""static/images/cards/back_of_black_moons.svg"" width=""175px"" height=""250px""></img></td>
    <td width=300 height=300><img src=""static/images/cards/back_of_black_moons.svg"" width=""175px"" height=""250px""></img></td>
  </tr>
  <tr height=200>
    <td width=300><img src=""static/images/keys/z.svg"" width=""35%"" height=""75%""></img></td>
    <td width=300><img src=""static/images/keys/m.svg"" width=""35%"" height=""75%""></img></td>
  </tr>
</table>
  ",77.0,1.0,,,,,,,,,,,,,,,,,,,,,,,,,,
170,0,,html-keyboard-response,170,420912,0.0-7.4-2.4,1yf3geb1pa4i,2022-09-19 15:35:30.208,59400f1c6b84600001e76c13,3,37,33,25,34,33,female,,,"
  <table>
  <tr height=300>
    <td width=300 height=300><img src=""static/images/cards/back_of_black_moons.svg"" width=""175px"" height=""250px""></img></td>
    <td width=300 height=300><img src=""static/images/cards/9_of_black_moons.svg"" width=""175px"" height=""250px""></img></td>
  </tr>
  <tr height=200>
    <td width=300><img src=""static/images/keys/z.svg"" width=""35%"" height=""75%""></img></td>
    <td width=300><img src=""static/images/keys/m.svg"" width=""35%"" height=""75%""></img></td>
  </tr>
</table>
  ",,,,,,,,,,,,,,,,,,,,,,,,,,,,
171,0,,html-keyboard-response,171,422432,0.0-7.4-3.4,1yf3geb1pa4i,2022-09-19 15:35:30.208,59400f1c6b84600001e76c13,3,37,33,25,34,33,female,,,"<p style=""font-size:50px"">You win!
+10 points this round!</p>",,,,,,,,,,,,,,,,,,,,,,,,,,,,
172,0,,html-keyboard-response,172,422942,0.0-7.4-4.4,1yf3geb1pa4i,2022-09-19 15:35:30.208,59400f1c6b84600001e76c13,3,37,33,25,34,33,female,,,,,,1.0,choice,4.0,A,C,black,black,stars,moons,C,A,A,black,moons,1704.1999999881,1.0,1.0,NA,right,1350.8999999762,9.0,1.0,1.0,,,
173,0,,html-keyboard-response,173,425061,0.0-7.5-0.5,1yf3geb1pa4i,2022-09-19 15:35:30.208,59400f1c6b84600001e76c13,3,37,33,25,34,33,female,2117.0999999642,,"
  <table>
  <tr height=300>
    <td width=300 height=300><img src=""static/images/cards/stack_of_black_stars.svg"" width=""175px"" height=""250px""></img></td>
    <td width=300 height=300><img src=""static/images/cards/stack_of_red_stars.svg"" width=""175px"" height=""250px""></img></td>
  </tr>
  <tr height=200>
    <td width=300><img src=""static/images/keys/w.svg"" width=""35%"" height=""75%""></img></td>
    <td width=300><img src=""static/images/keys/o.svg"" width=""35%"" height=""75%""></img></td>
  </tr>
</table>
  ",87.0,1.0,,,,,,,,,,,,,,,,,,,,,,,,,,
174,0,,html-keyboard-response,174,426944,0.0-7.5-1.5,1yf3geb1pa4i,2022-09-19 15:35:30.208,59400f1c6b84600001e76c13,3,37,33,25,34,33,female,1375.8999999762,,"
  <table>
  <tr height=300>
    <td width=300 height=300><img src=""static/images/cards/back_of_black_stars.svg"" width=""175px"" height=""250px""></img></td>
    <td width=300 height=300><img src=""static/images/cards/back_of_black_stars.svg"" width=""175px"" height=""250px""></img></td>
  </tr>
  <tr height=200>
    <td width=300><img src=""static/images/keys/z.svg"" width=""35%"" height=""75%""></img></td>
    <td width=300><img src=""static/images/keys/m.svg"" width=""35%"" height=""75%""></img></td>
  </tr>
</table>
  ",90.0,1.0,,,,,,,,,,,,,,,,,,,,,,,,,,
175,0,,html-keyboard-response,175,428452,0.0-7.5-2.5,1yf3geb1pa4i,2022-09-19 15:35:30.208,59400f1c6b84600001e76c13,3,37,33,25,34,33,female,,,"
  <table>
  <tr height=300>
    <td width=300 height=300><img src=""static/images/cards/9_of_black_stars.svg"" width=""175px"" height=""250px""></img></td>
    <td width=300 height=300><img src=""static/images/cards/back_of_black_stars.svg"" width=""175px"" height=""250px""></img></td>
  </tr>
  <tr height=200>
    <td width=300><img src=""static/images/keys/z.svg"" width=""35%"" height=""75%""></img></td>
    <td width=300><img src=""static/images/keys/m.svg"" width=""35%"" height=""75%""></img></td>
  </tr>
</table>
  ",,,,,,,,,,,,,,,,,,,,,,,,,,,,
176,0,,html-keyboard-response,176,429962,0.0-7.5-3.5,1yf3geb1pa4i,2022-09-19 15:35:30.208,59400f1c6b84600001e76c13,3,37,33,25,34,33,female,,,"<p style=""font-size:50px"">You win!
+10 points this round!</p>",,,,,,,,,,,,,,,,,,,,,,,,,,,,
177,0,,html-keyboard-response,177,430483,0.0-7.5-4.5,1yf3geb1pa4i,2022-09-19 15:35:30.208,59400f1c6b84600001e76c13,3,37,33,25,34,33,female,,,,,,1.0,choice,5.0,C,D,black,red,stars,stars,C,D,C,black,stars,2117.0999999642,1.0,0.0,NA,left,1375.8999999762,9.0,1.0,1.0,,,
178,0,,html-keyboard-response,178,432964,0.0-7.6-0.6,1yf3geb1pa4i,2022-09-19 15:35:30.208,59400f1c6b84600001e76c13,3,37,33,25,34,33,female,2477.8999999762,,"
  <table>
  <tr height=300>
    <td width=300 height=300><img src=""static/images/cards/stack_of_black_moons.svg"" width=""175px"" height=""250px""></img></td>
    <td width=300 height=300><img src=""static/images/cards/stack_of_red_stars.svg"" width=""175px"" height=""250px""></img></td>
  </tr>
  <tr height=200>
    <td width=300><img src=""static/images/keys/w.svg"" width=""35%"" height=""75%""></img></td>
    <td width=300><img src=""static/images/keys/o.svg"" width=""35%"" height=""75%""></img></td>
  </tr>
</table>
  ",87.0,1.0,,,,,,,,,,,,,,,,,,,,,,,,,,
179,0,,html-keyboard-response,179,434509,0.0-7.6-1.6,1yf3geb1pa4i,2022-09-19 15:35:30.208,59400f1c6b84600001e76c13,3,37,33,25,34,33,female,1042.3999999762,,"
  <table>
  <tr height=300>
    <td width=300 height=300><img src=""static/images/cards/back_of_black_moons.svg"" width=""175px"" height=""250px""></img></td>
    <td width=300 height=300><img src=""static/images/cards/back_of_black_moons.svg"" width=""175px"" height=""250px""></img></td>
  </tr>
  <tr height=200>
    <td width=300><img src=""static/images/keys/z.svg"" width=""35%"" height=""75%""></img></td>
    <td width=300><img src=""static/images/keys/m.svg"" width=""35%"" height=""75%""></img></td>
  </tr>
</table>
  ",90.0,1.0,,,,,,,,,,,,,,,,,,,,,,,,,,
180,0,,html-keyboard-response,180,436016,0.0-7.6-2.6,1yf3geb1pa4i,2022-09-19 15:35:30.208,59400f1c6b84600001e76c13,3,37,33,25,34,33,female,,,"
  <table>
  <tr height=300>
    <td width=300 height=300><img src=""static/images/cards/6_of_black_moons.svg"" width=""175px"" height=""250px""></img></td>
    <td width=300 height=300><img src=""static/images/cards/back_of_black_moons.svg"" width=""175px"" height=""250px""></img></td>
  </tr>
  <tr height=200>
    <td width=300><img src=""static/images/keys/z.svg"" width=""35%"" height=""75%""></img></td>
    <td width=300><img src=""static/images/keys/m.svg"" width=""35%"" height=""75%""></img></td>
  </tr>
</table>
  ",,,,,,,,,,,,,,,,,,,,,,,,,,,,
181,0,,html-keyboard-response,181,437534,0.0-7.6-3.6,1yf3geb1pa4i,2022-09-19 15:35:30.208,59400f1c6b84600001e76c13,3,37,33,25,34,33,female,,,"<p style=""font-size:50px"">You win!
+10 points this round!</p>",,,,,,,,,,,,,,,,,,,,,,,,,,,,
182,0,,html-keyboard-response,182,438046,0.0-7.6-4.6,1yf3geb1pa4i,2022-09-19 15:35:30.208,59400f1c6b84600001e76c13,3,37,33,25,34,33,female,,,,,,1.0,choice,6.0,A,D,black,red,moons,stars,A,D,A,black,moons,2477.8999999762,1.0,1.0,NA,left,1042.3999999762,6.0,1.0,1.0,,,
183,0,,html-keyboard-response,183,440080,0.0-7.7-0.7,1yf3geb1pa4i,2022-09-19 15:35:30.208,59400f1c6b84600001e76c13,3,37,33,25,34,33,female,2031.5,,"
  <table>
  <tr height=300>
    <td width=300 height=300><img src=""static/images/cards/stack_of_black_moons.svg"" width=""175px"" height=""250px""></img></td>
    <td width=300 height=300><img src=""static/images/cards/stack_of_red_moons.svg"" width=""175px"" height=""250px""></img></td>
  </tr>
  <tr height=200>
    <td width=300><img src=""static/images/keys/w.svg"" width=""35%"" height=""75%""></img></td>
    <td width=300><img src=""static/images/keys/o.svg"" width=""35%"" height=""75%""></img></td>
  </tr>
</table>
  ",79.0,1.0,,,,,,,,,,,,,,,,,,,,,,,,,,
184,0,,html-keyboard-response,184,441564,0.0-7.7-1.7,1yf3geb1pa4i,2022-09-19 15:35:30.208,59400f1c6b84600001e76c13,3,37,33,25,34,33,female,969.8000000119,,"
  <table>
  <tr height=300>
    <td width=300 height=300><img src=""static/images/cards/back_of_red_moons.svg"" width=""175px"" height=""250px""></img></td>
    <td width=300 height=300><img src=""static/images/cards/back_of_red_moons.svg"" width=""175px"" height=""250px""></img></td>
  </tr>
  <tr height=200>
    <td width=300></td>
    <td width=300><img src=""static/images/keys/m.svg"" width=""35%"" height=""75%""></img></td>
  </tr>
</table>
  ",77.0,1.0,,,,,,,,,,,,,,,,,,,,,,,,,,
185,0,,html-keyboard-response,185,443082,0.0-7.7-2.7,1yf3geb1pa4i,2022-09-19 15:35:30.208,59400f1c6b84600001e76c13,3,37,33,25,34,33,female,,,"
  <table>
  <tr height=300>
    <td width=300 height=300><img src=""static/images/cards/back_of_red_moons.svg"" width=""175px"" height=""250px""></img></td>
    <td width=300 height=300><img src=""static/images/cards/1_of_red_moons.svg"" width=""175px"" height=""250px""></img></td>
  </tr>
  <tr height=200>
    <td width=300></td>
    <td width=300><img src=""static/images/keys/m.svg"" width=""35%"" height=""75%""></img></td>
  </tr>
</table>
  ",,,,,,,,,,,,,,,,,,,,,,,,,,,,
186,0,,html-keyboard-response,186,444603,0.0-7.7-3.7,1yf3geb1pa4i,2022-09-19 15:35:30.208,59400f1c6b84600001e76c13,3,37,33,25,34,33,female,,,"<p style=""font-size:50px"">You Lose!
No points this round.</p>",,,,,,,,,,,,,,,,,,,,,,,,,,,,
187,0,,html-keyboard-response,187,445114,0.0-7.7-4.7,1yf3geb1pa4i,2022-09-19 15:35:30.208,59400f1c6b84600001e76c13,3,37,33,25,34,33,female,,,,,,1.0,choice,7.0,A,B,black,red,moons,moons,A,B,B,red,moons,2031.5,0.0,1.0,0,right,969.8000000119,1.0,0.0,0.0,,,
188,0,,html-keyboard-response,188,446672,0.0-7.8-0.8,1yf3geb1pa4i,2022-09-19 15:35:30.208,59400f1c6b84600001e76c13,3,37,33,25,34,33,female,1555.1000000238,,"
  <table>
  <tr height=300>
    <td width=300 height=300><img src=""static/images/cards/stack_of_red_stars.svg"" width=""175px"" height=""250px""></img></td>
    <td width=300 height=300><img src=""static/images/cards/stack_of_black_stars.svg"" width=""175px"" height=""250px""></img></td>
  </tr>
  <tr height=200>
    <td width=300><img src=""static/images/keys/w.svg"" width=""35%"" height=""75%""></img></td>
    <td width=300><img src=""static/images/keys/o.svg"" width=""35%"" height=""75%""></img></td>
  </tr>
</table>
  ",87.0,3.0,,,,,,,,,,,,,,,,,,,,,,,,,,
189,0,,html-keyboard-response,189,447810,0.0-7.8-1.8,1yf3geb1pa4i,2022-09-19 15:35:30.208,59400f1c6b84600001e76c13,3,37,33,25,34,33,female,632.7000000477,,"
  <table>
  <tr height=300>
    <td width=300 height=300><img src=""static/images/cards/back_of_red_stars.svg"" width=""175px"" height=""250px""></img></td>
    <td width=300 height=300><img src=""static/images/cards/back_of_red_stars.svg"" width=""175px"" height=""250px""></img></td>
  </tr>
  <tr height=200>
    <td width=300><img src=""static/images/keys/z.svg"" width=""35%"" height=""75%""></img></td>
    <td width=300></td>
  </tr>
</table>
  ",90.0,1.0,,,,,,,,,,,,,,,,,,,,,,,,,,
190,0,,html-keyboard-response,190,449319,0.0-7.8-2.8,1yf3geb1pa4i,2022-09-19 15:35:30.208,59400f1c6b84600001e76c13,3,37,33,25,34,33,female,,,"
  <table>
  <tr height=300>
    <td width=300 height=300><img src=""static/images/cards/1_of_red_stars.svg"" width=""175px"" height=""250px""></img></td>
    <td width=300 height=300><img src=""static/images/cards/back_of_red_stars.svg"" width=""175px"" height=""250px""></img></td>
  </tr>
  <tr height=200>
    <td width=300><img src=""static/images/keys/z.svg"" width=""35%"" height=""75%""></img></td>
    <td width=300></td>
  </tr>
</table>
  ",,,,,,,,,,,,,,,,,,,,,,,,,,,,
191,0,,html-keyboard-response,191,450840,0.0-7.8-3.8,1yf3geb1pa4i,2022-09-19 15:35:30.208,59400f1c6b84600001e76c13,3,37,33,25,34,33,female,,,"<p style=""font-size:50px"">You Lose!
No points this round.</p>",,,,,,,,,,,,,,,,,,,,,,,,,,,,
192,0,,html-keyboard-response,192,451352,0.0-7.8-4.8,1yf3geb1pa4i,2022-09-19 15:35:30.208,59400f1c6b84600001e76c13,3,37,33,25,34,33,female,,,,,,1.0,choice,8.0,C,D,red,black,stars,stars,D,C,D,red,stars,1555.1000000238,0.0,0.0,1,left,632.7000000477,1.0,0.0,0.0,,,
193,0,,html-keyboard-response,193,452906,0.0-7.9-0.9,1yf3geb1pa4i,2022-09-19 15:35:30.208,59400f1c6b84600001e76c13,3,37,33,25,34,33,female,1552.0999999642,,"
  <table>
  <tr height=300>
    <td width=300 height=300><img src=""static/images/cards/stack_of_black_stars.svg"" width=""175px"" height=""250px""></img></td>
    <td width=300 height=300><img src=""static/images/cards/stack_of_red_stars.svg"" width=""175px"" height=""250px""></img></td>
  </tr>
  <tr height=200>
    <td width=300><img src=""static/images/keys/w.svg"" width=""35%"" height=""75%""></img></td>
    <td width=300><img src=""static/images/keys/o.svg"" width=""35%"" height=""75%""></img></td>
  </tr>
</table>
  ",87.0,1.0,,,,,,,,,,,,,,,,,,,,,,,,,,
194,0,,html-keyboard-response,194,454029,0.0-7.9-1.9,1yf3geb1pa4i,2022-09-19 15:35:30.208,59400f1c6b84600001e76c13,3,37,33,25,34,33,female,606.3000000119,,"
  <table>
  <tr height=300>
    <td width=300 height=300><img src=""static/images/cards/back_of_black_stars.svg"" width=""175px"" height=""250px""></img></td>
    <td width=300 height=300><img src=""static/images/cards/back_of_black_stars.svg"" width=""175px"" height=""250px""></img></td>
  </tr>
  <tr height=200>
    <td width=300><img src=""static/images/keys/z.svg"" width=""35%"" height=""75%""></img></td>
    <td width=300><img src=""static/images/keys/m.svg"" width=""35%"" height=""75%""></img></td>
  </tr>
</table>
  ",90.0,1.0,,,,,,,,,,,,,,,,,,,,,,,,,,
195,0,,html-keyboard-response,195,455537,0.0-7.9-2.9,1yf3geb1pa4i,2022-09-19 15:35:30.208,59400f1c6b84600001e76c13,3,37,33,25,34,33,female,,,"
  <table>
  <tr height=300>
    <td width=300 height=300><img src=""static/images/cards/10_of_black_stars.svg"" width=""175px"" height=""250px""></img></td>
    <td width=300 height=300><img src=""static/images/cards/back_of_black_stars.svg"" width=""175px"" height=""250px""></img></td>
  </tr>
  <tr height=200>
    <td width=300><img src=""static/images/keys/z.svg"" width=""35%"" height=""75%""></img></td>
    <td width=300><img src=""static/images/keys/m.svg"" width=""35%"" height=""75%""></img></td>
  </tr>
</table>
  ",,,,,,,,,,,,,,,,,,,,,,,,,,,,
196,0,,html-keyboard-response,196,457046,0.0-7.9-3.9,1yf3geb1pa4i,2022-09-19 15:35:30.208,59400f1c6b84600001e76c13,3,37,33,25,34,33,female,,,"<p style=""font-size:50px"">You Lose!
No points this round.</p>",,,,,,,,,,,,,,,,,,,,,,,,,,,,
197,0,,html-keyboard-response,197,457566,0.0-7.9-4.9,1yf3geb1pa4i,2022-09-19 15:35:30.208,59400f1c6b84600001e76c13,3,37,33,25,34,33,female,,,,,,1.0,choice,9.0,C,D,black,red,stars,stars,C,D,C,black,stars,1552.0999999642,1.0,0.0,NA,left,606.3000000119,10.0,1.0,0.0,,,
198,0,,html-keyboard-response,198,458766,0.0-7.10-0.10,1yf3geb1pa4i,2022-09-19 15:35:30.208,59400f1c6b84600001e76c13,3,37,33,25,34,33,female,1196.9000000358,,"
  <table>
  <tr height=300>
    <td width=300 height=300><img src=""static/images/cards/stack_of_black_bolts.svg"" width=""175px"" height=""250px""></img></td>
    <td width=300 height=300><img src=""static/images/cards/stack_of_red_moons.svg"" width=""175px"" height=""250px""></img></td>
  </tr>
  <tr height=200>
    <td width=300><img src=""static/images/keys/w.svg"" width=""35%"" height=""75%""></img></td>
    <td width=300><img src=""static/images/keys/o.svg"" width=""35%"" height=""75%""></img></td>
  </tr>
</table>
  ",87.0,1.0,,,,,,,,,,,,,,,,,,,,,,,,,,
199,0,,html-keyboard-response,199,459988,0.0-7.10-1.10,1yf3geb1pa4i,2022-09-19 15:35:30.208,59400f1c6b84600001e76c13,3,37,33,25,34,33,female,708.8999999762,,"
  <table>
  <tr height=300>
    <td width=300 height=300><img src=""static/images/cards/back_of_black_bolts.svg"" width=""175px"" height=""250px""></img></td>
    <td width=300 height=300><img src=""static/images/cards/back_of_black_bolts.svg"" width=""175px"" height=""250px""></img></td>
  </tr>
  <tr height=200>
    <td width=300><img src=""static/images/keys/z.svg"" width=""35%"" height=""75%""></img></td>
    <td width=300></td>
  </tr>
</table>
  ",90.0,1.0,,,,,,,,,,,,,,,,,,,,,,,,,,
200,0,,html-keyboard-response,200,461504,0.0-7.10-2.10,1yf3geb1pa4i,2022-09-19 15:35:30.208,59400f1c6b84600001e76c13,3,37,33,25,34,33,female,,,"
  <table>
  <tr height=300>
    <td width=300 height=300><img src=""static/images/cards/1_of_black_bolts.svg"" width=""175px"" height=""250px""></img></td>
    <td width=300 height=300><img src=""static/images/cards/back_of_black_bolts.svg"" width=""175px"" height=""250px""></img></td>
  </tr>
  <tr height=200>
    <td width=300><img src=""static/images/keys/z.svg"" width=""35%"" height=""75%""></img></td>
    <td width=300></td>
  </tr>
</table>
  ",,,,,,,,,,,,,,,,,,,,,,,,,,,,
201,0,,html-keyboard-response,201,463018,0.0-7.10-3.10,1yf3geb1pa4i,2022-09-19 15:35:30.208,59400f1c6b84600001e76c13,3,37,33,25,34,33,female,,,"<p style=""font-size:50px"">You win!
+10 points this round!</p>",,,,,,,,,,,,,,,,,,,,,,,,,,,,
202,0,,html-keyboard-response,202,463532,0.0-7.10-4.10,1yf3geb1pa4i,2022-09-19 15:35:30.208,59400f1c6b84600001e76c13,3,37,33,25,34,33,female,,,,,,1.0,choice,10.0,B,Xnc,black,red,bolts,moons,Xnc,B,Xnc,black,bolts,1196.9000000358,0.0,0.0,1,left,708.8999999762,1.0,0.0,1.0,,,
203,0,,html-keyboard-response,203,465388,0.0-7.11-0.11,1yf3geb1pa4i,2022-09-19 15:35:30.208,59400f1c6b84600001e76c13,3,37,33,25,34,33,female,1854.4000000358,,"
  <table>
  <tr height=300>
    <td width=300 height=300><img src=""static/images/cards/stack_of_red_stars.svg"" width=""175px"" height=""250px""></img></td>
    <td width=300 height=300><img src=""static/images/cards/stack_of_red_moons.svg"" width=""175px"" height=""250px""></img></td>
  </tr>
  <tr height=200>
    <td width=300><img src=""static/images/keys/w.svg"" width=""35%"" height=""75%""></img></td>
    <td width=300><img src=""static/images/keys/o.svg"" width=""35%"" height=""75%""></img></td>
  </tr>
</table>
  ",79.0,1.0,,,,,,,,,,,,,,,,,,,,,,,,,,
204,0,,html-keyboard-response,204,466972,0.0-7.11-1.11,1yf3geb1pa4i,2022-09-19 15:35:30.208,59400f1c6b84600001e76c13,3,37,33,25,34,33,female,1067.6000000238,,"
  <table>
  <tr height=300>
    <td width=300 height=300><img src=""static/images/cards/back_of_red_moons.svg"" width=""175px"" height=""250px""></img></td>
    <td width=300 height=300><img src=""static/images/cards/back_of_red_moons.svg"" width=""175px"" height=""250px""></img></td>
  </tr>
  <tr height=200>
    <td width=300><img src=""static/images/keys/z.svg"" width=""35%"" height=""75%""></img></td>
    <td width=300></td>
  </tr>
</table>
  ",90.0,1.0,,,,,,,,,,,,,,,,,,,,,,,,,,
205,0,,html-keyboard-response,205,468483,0.0-7.11-2.11,1yf3geb1pa4i,2022-09-19 15:35:30.208,59400f1c6b84600001e76c13,3,37,33,25,34,33,female,,,"
  <table>
  <tr height=300>
    <td width=300 height=300><img src=""static/images/cards/4_of_red_moons.svg"" width=""175px"" height=""250px""></img></td>
    <td width=300 height=300><img src=""static/images/cards/back_of_red_moons.svg"" width=""175px"" height=""250px""></img></td>
  </tr>
  <tr height=200>
    <td width=300><img src=""static/images/keys/z.svg"" width=""35%"" height=""75%""></img></td>
    <td width=300></td>
  </tr>
</table>
  ",,,,,,,,,,,,,,,,,,,,,,,,,,,,
206,0,,html-keyboard-response,206,469992,0.0-7.11-3.11,1yf3geb1pa4i,2022-09-19 15:35:30.208,59400f1c6b84600001e76c13,3,37,33,25,34,33,female,,,"<p style=""font-size:50px"">You Lose!
No points this round.</p>",,,,,,,,,,,,,,,,,,,,,,,,,,,,
207,0,,html-keyboard-response,207,470505,0.0-7.11-4.11,1yf3geb1pa4i,2022-09-19 15:35:30.208,59400f1c6b84600001e76c13,3,37,33,25,34,33,female,,,,,,1.0,choice,11.0,B,D,red,red,stars,moons,D,B,B,red,moons,1854.4000000358,0.0,1.0,1,left,1067.6000000238,4.0,0.0,0.0,,,
208,0,,html-keyboard-response,208,471647,0.0-7.12-0.12,1yf3geb1pa4i,2022-09-19 15:35:30.208,59400f1c6b84600001e76c13,3,37,33,25,34,33,female,1138.9000000358,,"
  <table>
  <tr height=300>
    <td width=300 height=300><img src=""static/images/cards/stack_of_red_moons.svg"" width=""175px"" height=""250px""></img></td>
    <td width=300 height=300><img src=""static/images/cards/stack_of_black_moons.svg"" width=""175px"" height=""250px""></img></td>
  </tr>
  <tr height=200>
    <td width=300><img src=""static/images/keys/w.svg"" width=""35%"" height=""75%""></img></td>
    <td width=300><img src=""static/images/keys/o.svg"" width=""35%"" height=""75%""></img></td>
  </tr>
</table>
  ",87.0,1.0,,,,,,,,,,,,,,,,,,,,,,,,,,
209,0,,html-keyboard-response,209,473075,0.0-7.12-1.12,1yf3geb1pa4i,2022-09-19 15:35:30.208,59400f1c6b84600001e76c13,3,37,33,25,34,33,female,923.2999999523,,"
  <table>
  <tr height=300>
    <td width=300 height=300><img src=""static/images/cards/back_of_red_moons.svg"" width=""175px"" height=""250px""></img></td>
    <td width=300 height=300><img src=""static/images/cards/back_of_red_moons.svg"" width=""175px"" height=""250px""></img></td>
  </tr>
  <tr height=200>
    <td width=300></td>
    <td width=300><img src=""static/images/keys/m.svg"" width=""35%"" height=""75%""></img></td>
  </tr>
</table>
  ",77.0,1.0,,,,,,,,,,,,,,,,,,,,,,,,,,
210,0,,html-keyboard-response,210,474588,0.0-7.12-2.12,1yf3geb1pa4i,2022-09-19 15:35:30.208,59400f1c6b84600001e76c13,3,37,33,25,34,33,female,,,"
  <table>
  <tr height=300>
    <td width=300 height=300><img src=""static/images/cards/back_of_red_moons.svg"" width=""175px"" height=""250px""></img></td>
    <td width=300 height=300><img src=""static/images/cards/10_of_red_moons.svg"" width=""175px"" height=""250px""></img></td>
  </tr>
  <tr height=200>
    <td width=300></td>
    <td width=300><img src=""static/images/keys/m.svg"" width=""35%"" height=""75%""></img></td>
  </tr>
</table>
  ",,,,,,,,,,,,,,,,,,,,,,,,,,,,
211,0,,html-keyboard-response,211,476109,0.0-7.12-3.12,1yf3geb1pa4i,2022-09-19 15:35:30.208,59400f1c6b84600001e76c13,3,37,33,25,34,33,female,,,"<p style=""font-size:50px"">You win!
+10 points this round!</p>",,,,,,,,,,,,,,,,,,,,,,,,,,,,
212,0,,html-keyboard-response,212,476620,0.0-7.12-4.12,1yf3geb1pa4i,2022-09-19 15:35:30.208,59400f1c6b84600001e76c13,3,37,33,25,34,33,female,,,,,,1.0,choice,12.0,A,B,red,black,moons,moons,B,A,B,red,moons,1138.9000000358,0.0,1.0,0,right,923.2999999523,10.0,1.0,1.0,,,
213,0,,html-keyboard-response,213,478114,0.0-7.13-0.13,1yf3geb1pa4i,2022-09-19 15:35:30.208,59400f1c6b84600001e76c13,3,37,33,25,34,33,female,1492.4000000358,,"
  <table>
  <tr height=300>
    <td width=300 height=300><img src=""static/images/cards/stack_of_red_stars.svg"" width=""175px"" height=""250px""></img></td>
    <td width=300 height=300><img src=""static/images/cards/stack_of_black_stars.svg"" width=""175px"" height=""250px""></img></td>
  </tr>
  <tr height=200>
    <td width=300><img src=""static/images/keys/w.svg"" width=""35%"" height=""75%""></img></td>
    <td width=300><img src=""static/images/keys/o.svg"" width=""35%"" height=""75%""></img></td>
  </tr>
</table>
  ",87.0,1.0,,,,,,,,,,,,,,,,,,,,,,,,,,
214,0,,html-keyboard-response,214,479675,0.0-7.13-1.13,1yf3geb1pa4i,2022-09-19 15:35:30.208,59400f1c6b84600001e76c13,3,37,33,25,34,33,female,1044.5999999642,,"
  <table>
  <tr height=300>
    <td width=300 height=300><img src=""static/images/cards/back_of_red_stars.svg"" width=""175px"" height=""250px""></img></td>
    <td width=300 height=300><img src=""static/images/cards/back_of_red_stars.svg"" width=""175px"" height=""250px""></img></td>
  </tr>
  <tr height=200>
    <td width=300></td>
    <td width=300><img src=""static/images/keys/m.svg"" width=""35%"" height=""75%""></img></td>
  </tr>
</table>
  ",77.0,1.0,,,,,,,,,,,,,,,,,,,,,,,,,,
215,0,,html-keyboard-response,215,481181,0.0-7.13-2.13,1yf3geb1pa4i,2022-09-19 15:35:30.208,59400f1c6b84600001e76c13,3,37,33,25,34,33,female,,,"
  <table>
  <tr height=300>
    <td width=300 height=300><img src=""static/images/cards/back_of_red_stars.svg"" width=""175px"" height=""250px""></img></td>
    <td width=300 height=300><img src=""static/images/cards/2_of_red_stars.svg"" width=""175px"" height=""250px""></img></td>
  </tr>
  <tr height=200>
    <td width=300></td>
    <td width=300><img src=""static/images/keys/m.svg"" width=""35%"" height=""75%""></img></td>
  </tr>
</table>
  ",,,,,,,,,,,,,,,,,,,,,,,,,,,,
216,0,,html-keyboard-response,216,482701,0.0-7.13-3.13,1yf3geb1pa4i,2022-09-19 15:35:30.208,59400f1c6b84600001e76c13,3,37,33,25,34,33,female,,,"<p style=""font-size:50px"">You Lose!
No points this round.</p>",,,,,,,,,,,,,,,,,,,,,,,,,,,,
217,0,,html-keyboard-response,217,483217,0.0-7.13-4.13,1yf3geb1pa4i,2022-09-19 15:35:30.208,59400f1c6b84600001e76c13,3,37,33,25,34,33,female,,,,,,1.0,choice,13.0,C,D,red,black,stars,stars,D,C,D,red,stars,1492.4000000358,0.0,0.0,0,right,1044.5999999642,2.0,0.0,0.0,,,
218,0,,html-keyboard-response,218,484742,0.0-7.14-0.14,1yf3geb1pa4i,2022-09-19 15:35:30.208,59400f1c6b84600001e76c13,3,37,33,25,34,33,female,1522.3999999762,,"
  <table>
  <tr height=300>
    <td width=300 height=300><img src=""static/images/cards/stack_of_red_stars.svg"" width=""175px"" height=""250px""></img></td>
    <td width=300 height=300><img src=""static/images/cards/stack_of_red_moons.svg"" width=""175px"" height=""250px""></img></td>
  </tr>
  <tr height=200>
    <td width=300><img src=""static/images/keys/w.svg"" width=""35%"" height=""75%""></img></td>
    <td width=300><img src=""static/images/keys/o.svg"" width=""35%"" height=""75%""></img></td>
  </tr>
</table>
  ",79.0,1.0,,,,,,,,,,,,,,,,,,,,,,,,,,
219,0,,html-keyboard-response,219,486231,0.0-7.14-1.14,1yf3geb1pa4i,2022-09-19 15:35:30.208,59400f1c6b84600001e76c13,3,37,33,25,34,33,female,981.1999999881,,"
  <table>
  <tr height=300>
    <td width=300 height=300><img src=""static/images/cards/back_of_red_moons.svg"" width=""175px"" height=""250px""></img></td>
    <td width=300 height=300><img src=""static/images/cards/back_of_red_moons.svg"" width=""175px"" height=""250px""></img></td>
  </tr>
  <tr height=200>
    <td width=300></td>
    <td width=300><img src=""static/images/keys/m.svg"" width=""35%"" height=""75%""></img></td>
  </tr>
</table>
  ",77.0,1.0,,,,,,,,,,,,,,,,,,,,,,,,,,
220,0,,html-keyboard-response,220,487738,0.0-7.14-2.14,1yf3geb1pa4i,2022-09-19 15:35:30.208,59400f1c6b84600001e76c13,3,37,33,25,34,33,female,,,"
  <table>
  <tr height=300>
    <td width=300 height=300><img src=""static/images/cards/back_of_red_moons.svg"" width=""175px"" height=""250px""></img></td>
    <td width=300 height=300><img src=""static/images/cards/1_of_red_moons.svg"" width=""175px"" height=""250px""></img></td>
  </tr>
  <tr height=200>
    <td width=300></td>
    <td width=300><img src=""static/images/keys/m.svg"" width=""35%"" height=""75%""></img></td>
  </tr>
</table>
  ",,,,,,,,,,,,,,,,,,,,,,,,,,,,
221,0,,html-keyboard-response,221,489260,0.0-7.14-3.14,1yf3geb1pa4i,2022-09-19 15:35:30.208,59400f1c6b84600001e76c13,3,37,33,25,34,33,female,,,"<p style=""font-size:50px"">You Lose!
No points this round.</p>",,,,,,,,,,,,,,,,,,,,,,,,,,,,
222,0,,html-keyboard-response,222,489771,0.0-7.14-4.14,1yf3geb1pa4i,2022-09-19 15:35:30.208,59400f1c6b84600001e76c13,3,37,33,25,34,33,female,,,,,,1.0,choice,14.0,B,D,red,red,stars,moons,D,B,B,red,moons,1522.3999999762,0.0,1.0,0,right,981.1999999881,1.0,0.0,0.0,,,
223,0,,html-keyboard-response,223,490959,0.0-7.15-0.15,1yf3geb1pa4i,2022-09-19 15:35:30.208,59400f1c6b84600001e76c13,3,37,33,25,34,33,female,1185.1999999881,,"
  <table>
  <tr height=300>
    <td width=300 height=300><img src=""static/images/cards/stack_of_red_stars.svg"" width=""175px"" height=""250px""></img></td>
    <td width=300 height=300><img src=""static/images/cards/stack_of_red_moons.svg"" width=""175px"" height=""250px""></img></td>
  </tr>
  <tr height=200>
    <td width=300><img src=""static/images/keys/w.svg"" width=""35%"" height=""75%""></img></td>
    <td width=300><img src=""static/images/keys/o.svg"" width=""35%"" height=""75%""></img></td>
  </tr>
</table>
  ",79.0,1.0,,,,,,,,,,,,,,,,,,,,,,,,,,
224,0,,html-keyboard-response,224,492076,0.0-7.15-1.15,1yf3geb1pa4i,2022-09-19 15:35:30.208,59400f1c6b84600001e76c13,3,37,33,25,34,33,female,614.6000000238,,"
  <table>
  <tr height=300>
    <td width=300 height=300><img src=""static/images/cards/back_of_red_moons.svg"" width=""175px"" height=""250px""></img></td>
    <td width=300 height=300><img src=""static/images/cards/back_of_red_moons.svg"" width=""175px"" height=""250px""></img></td>
  </tr>
  <tr height=200>
    <td width=300><img src=""static/images/keys/z.svg"" width=""35%"" height=""75%""></img></td>
    <td width=300></td>
  </tr>
</table>
  ",90.0,1.0,,,,,,,,,,,,,,,,,,,,,,,,,,
225,0,,html-keyboard-response,225,493586,0.0-7.15-2.15,1yf3geb1pa4i,2022-09-19 15:35:30.208,59400f1c6b84600001e76c13,3,37,33,25,34,33,female,,,"
  <table>
  <tr height=300>
    <td width=300 height=300><img src=""static/images/cards/2_of_red_moons.svg"" width=""175px"" height=""250px""></img></td>
    <td width=300 height=300><img src=""static/images/cards/back_of_red_moons.svg"" width=""175px"" height=""250px""></img></td>
  </tr>
  <tr height=200>
    <td width=300><img src=""static/images/keys/z.svg"" width=""35%"" height=""75%""></img></td>
    <td width=300></td>
  </tr>
</table>
  ",,,,,,,,,,,,,,,,,,,,,,,,,,,,
226,0,,html-keyboard-response,226,495098,0.0-7.15-3.15,1yf3geb1pa4i,2022-09-19 15:35:30.208,59400f1c6b84600001e76c13,3,37,33,25,34,33,female,,,"<p style=""font-size:50px"">You Lose!
No points this round.</p>",,,,,,,,,,,,,,,,,,,,,,,,,,,,
227,0,,html-keyboard-response,227,495613,0.0-7.15-4.15,1yf3geb1pa4i,2022-09-19 15:35:30.208,59400f1c6b84600001e76c13,3,37,33,25,34,33,female,,,,,,1.0,choice,15.0,B,D,red,red,stars,moons,D,B,B,red,moons,1185.1999999881,0.0,1.0,1,left,614.6000000238,2.0,0.0,0.0,,,
228,0,,html-keyboard-response,228,496248,0.0-7.16-0.16,1yf3geb1pa4i,2022-09-19 15:35:30.208,59400f1c6b84600001e76c13,3,37,33,25,34,33,female,633.7999999523,,"
  <table>
  <tr height=300>
    <td width=300 height=300><img src=""static/images/cards/stack_of_black_stars.svg"" width=""175px"" height=""250px""></img></td>
    <td width=300 height=300><img src=""static/images/cards/stack_of_red_stars.svg"" width=""175px"" height=""250px""></img></td>
  </tr>
  <tr height=200>
    <td width=300><img src=""static/images/keys/w.svg"" width=""35%"" height=""75%""></img></td>
    <td width=300><img src=""static/images/keys/o.svg"" width=""35%"" height=""75%""></img></td>
  </tr>
</table>
  ",87.0,1.0,,,,,,,,,,,,,,,,,,,,,,,,,,
229,0,,html-keyboard-response,229,497729,0.0-7.16-1.16,1yf3geb1pa4i,2022-09-19 15:35:30.208,59400f1c6b84600001e76c13,3,37,33,25,34,33,female,977.4000000358,,"
  <table>
  <tr height=300>
    <td width=300 height=300><img src=""static/images/cards/back_of_black_stars.svg"" width=""175px"" height=""250px""></img></td>
    <td width=300 height=300><img src=""static/images/cards/back_of_black_stars.svg"" width=""175px"" height=""250px""></img></td>
  </tr>
  <tr height=200>
    <td width=300><img src=""static/images/keys/z.svg"" width=""35%"" height=""75%""></img></td>
    <td width=300><img src=""static/images/keys/m.svg"" width=""35%"" height=""75%""></img></td>
  </tr>
</table>
  ",77.0,1.0,,,,,,,,,,,,,,,,,,,,,,,,,,
230,0,,html-keyboard-response,230,499246,0.0-7.16-2.16,1yf3geb1pa4i,2022-09-19 15:35:30.208,59400f1c6b84600001e76c13,3,37,33,25,34,33,female,,,"
  <table>
  <tr height=300>
    <td width=300 height=300><img src=""static/images/cards/back_of_black_stars.svg"" width=""175px"" height=""250px""></img></td>
    <td width=300 height=300><img src=""static/images/cards/8_of_black_stars.svg"" width=""175px"" height=""250px""></img></td>
  </tr>
  <tr height=200>
    <td width=300><img src=""static/images/keys/z.svg"" width=""35%"" height=""75%""></img></td>
    <td width=300><img src=""static/images/keys/m.svg"" width=""35%"" height=""75%""></img></td>
  </tr>
</table>
  ",,,,,,,,,,,,,,,,,,,,,,,,,,,,
231,0,,html-keyboard-response,231,500766,0.0-7.16-3.16,1yf3geb1pa4i,2022-09-19 15:35:30.208,59400f1c6b84600001e76c13,3,37,33,25,34,33,female,,,"<p style=""font-size:50px"">You Lose!
