,index,success,trial_type,trial_index,time_elapsed,internal_node_id,subject,date,prol_id,ctbl,sense_of_control_A,sense_of_control_B,sense_of_control_C,sense_of_control_D,age,gender,rt,url,stimulus,key_press,npress,is_data_trial,phase,trial,deck1,deck2,col1,col2,sym1,sym2,deck_l,deck_r,chosen_deck,chosen_col,chosen_sym,deck_rt,choose_choice,mutual_info,hidden_key,chosen_card,card_rt,player_num,win_card,outcome,mock_rating,response,responses
0,0,1.0,fullscreen,0,15076,0.0-0.0,4ofs3372rz3,2022-09-19 16:45:01.026,62e1581acad06eee3b6509dc,3,65,53,30,15,23,male,,,,,,,,,,,,,,,,,,,,,,,,,,,,,,,
1,0,,external-html,1,27962,0.0-1.0,4ofs3372rz3,2022-09-19 16:45:01.026,62e1581acad06eee3b6509dc,3,65,53,30,15,23,male,12742.7999999821,static/js/sub/consent.html,,,,,,,,,,,,,,,,,,,,,,,,,,,,,
2,0,,call-function,2,27963,0.0-2.0,4ofs3372rz3,2022-09-19 16:45:01.026,62e1581acad06eee3b6509dc,3,65,53,30,15,23,male,,,,,,,,,,,,,,,,,,,,,,,,,,,,,,,
3,0,,image-keyboard-response,3,31566,0.0-3.0-0.0,4ofs3372rz3,2022-09-19 16:45:01.026,62e1581acad06eee3b6509dc,3,65,53,30,15,23,male,3601.6999999881,,static/images/instructions_CB_3/Slide1.png,39.0,,,,,,,,,,,,,,,,,,,,,,,,,,,
4,0,,image-keyboard-response,4,38361,0.0-3.1-0.1,4ofs3372rz3,2022-09-19 16:45:01.026,62e1581acad06eee3b6509dc,3,65,53,30,15,23,male,6794.1999999881,,static/images/instructions_CB_3/Slide2.png,39.0,,,,,,,,,,,,,,,,,,,,,,,,,,,
5,0,,image-keyboard-response,5,41849,0.0-3.2-0.2,4ofs3372rz3,2022-09-19 16:45:01.026,62e1581acad06eee3b6509dc,3,65,53,30,15,23,male,3487.1999999881,,static/images/instructions_CB_3/Slide3.png,39.0,,,,,,,,,,,,,,,,,,,,,,,,,,,
6,0,,image-keyboard-response,6,48400,0.0-3.3-0.3,4ofs3372rz3,2022-09-19 16:45:01.026,62e1581acad06eee3b6509dc,3,65,53,30,15,23,male,6549.7999999821,,static/images/instructions_CB_3/Slide4.png,39.0,,,,,,,,,,,,,,,,,,,,,,,,,,,
7,0,,image-keyboard-response,7,55774,0.0-3.4-0.4,4ofs3372rz3,2022-09-19 16:45:01.026,62e1581acad06eee3b6509dc,3,65,53,30,15,23,male,7373.2999999821,,static/images/instructions_CB_3/Slide5.png,39.0,,,,,,,,,,,,,,,,,,,,,,,,,,,
8,0,,image-keyboard-response,8,58079,0.0-3.5-0.5,4ofs3372rz3,2022-09-19 16:45:01.026,62e1581acad06eee3b6509dc,3,65,53,30,15,23,male,2304.5,,static/images/instructions_CB_3/Slide6.png,39.0,,,,,,,,,,,,,,,,,,,,,,,,,,,
9,0,,image-keyboard-response,9,63301,0.0-3.6-0.6,4ofs3372rz3,2022-09-19 16:45:01.026,62e1581acad06eee3b6509dc,3,65,53,30,15,23,male,5220.900000006,,static/images/instructions_CB_3/Slide7.png,39.0,,,,,,,,,,,,,,,,,,,,,,,,,,,
10,0,,image-keyboard-response,10,75173,0.0-3.7-0.7,4ofs3372rz3,2022-09-19 16:45:01.026,62e1581acad06eee3b6509dc,3,65,53,30,15,23,male,11870.900000006,,static/images/instructions_CB_3/Slide8.png,39.0,,,,,,,,,,,,,,,,,,,,,,,,,,,
11,0,,image-keyboard-response,11,84867,0.0-3.8-0.8,4ofs3372rz3,2022-09-19 16:45:01.026,62e1581acad06eee3b6509dc,3,65,53,30,15,23,male,9693.099999994,,static/images/instructions_CB_3/Slide9.png,39.0,,,,,,,,,,,,,,,,,,,,,,,,,,,
12,0,,image-keyboard-response,12,97312,0.0-3.9-0.9,4ofs3372rz3,2022-09-19 16:45:01.026,62e1581acad06eee3b6509dc,3,65,53,30,15,23,male,12443.6999999881,,static/images/instructions_CB_3/Slide10.png,39.0,,,,,,,,,,,,,,,,,,,,,,,,,,,
13,0,,image-keyboard-response,13,98735,0.0-3.10-0.10,4ofs3372rz3,2022-09-19 16:45:01.026,62e1581acad06eee3b6509dc,3,65,53,30,15,23,male,1422.900000006,,static/images/instructions_CB_3/Slide11.png,37.0,,,,,,,,,,,,,,,,,,,,,,,,,,,
14,0,,image-keyboard-response,14,99393,0.0-3.11-0.11,4ofs3372rz3,2022-09-19 16:45:01.026,62e1581acad06eee3b6509dc,3,65,53,30,15,23,male,657.0,,static/images/instructions_CB_3/Slide10.png,39.0,,,,,,,,,,,,,,,,,,,,,,,,,,,
15,0,,image-keyboard-response,15,106791,0.0-3.12-0.12,4ofs3372rz3,2022-09-19 16:45:01.026,62e1581acad06eee3b6509dc,3,65,53,30,15,23,male,7396.6999999881,,static/images/instructions_CB_3/Slide11.png,39.0,,,,,,,,,,,,,,,,,,,,,,,,,,,
16,0,,image-keyboard-response,16,130744,0.0-3.13-0.13,4ofs3372rz3,2022-09-19 16:45:01.026,62e1581acad06eee3b6509dc,3,65,53,30,15,23,male,23951.2000000179,,static/images/instructions_CB_3/Slide12.png,39.0,,,,,,,,,,,,,,,,,,,,,,,,,,,
17,0,,image-keyboard-response,17,131654,0.0-3.14-0.14,4ofs3372rz3,2022-09-19 16:45:01.026,62e1581acad06eee3b6509dc,3,65,53,30,15,23,male,909.900000006,,static/images/instructions_CB_3/Slide13.png,37.0,,,,,,,,,,,,,,,,,,,,,,,,,,,
18,0,,image-keyboard-response,18,137524,0.0-3.15-0.15,4ofs3372rz3,2022-09-19 16:45:01.026,62e1581acad06eee3b6509dc,3,65,53,30,15,23,male,5868.6999999881,,static/images/instructions_CB_3/Slide12.png,39.0,,,,,,,,,,,,,,,,,,,,,,,,,,,
19,0,,image-keyboard-response,19,140751,0.0-3.16-0.16,4ofs3372rz3,2022-09-19 16:45:01.026,62e1581acad06eee3b6509dc,3,65,53,30,15,23,male,3226.6999999881,,static/images/instructions_CB_3/Slide13.png,37.0,,,,,,,,,,,,,,,,,,,,,,,,,,,
20,0,,image-keyboard-response,20,144019,0.0-3.17-0.17,4ofs3372rz3,2022-09-19 16:45:01.026,62e1581acad06eee3b6509dc,3,65,53,30,15,23,male,3266.599999994,,static/images/instructions_CB_3/Slide12.png,39.0,,,,,,,,,,,,,,,,,,,,,,,,,,,
21,0,,image-keyboard-response,21,157813,0.0-3.18-0.18,4ofs3372rz3,2022-09-19 16:45:01.026,62e1581acad06eee3b6509dc,3,65,53,30,15,23,male,13793.3000000119,,static/images/instructions_CB_3/Slide13.png,37.0,,,,,,,,,,,,,,,,,,,,,,,,,,,
22,0,,image-keyboard-response,22,158211,0.0-3.19-0.19,4ofs3372rz3,2022-09-19 16:45:01.026,62e1581acad06eee3b6509dc,3,65,53,30,15,23,male,397.1999999881,,static/images/instructions_CB_3/Slide12.png,39.0,,,,,,,,,,,,,,,,,,,,,,,,,,,
23,0,,image-keyboard-response,23,159611,0.0-3.20-0.20,4ofs3372rz3,2022-09-19 16:45:01.026,62e1581acad06eee3b6509dc,3,65,53,30,15,23,male,1399.1999999881,,static/images/instructions_CB_3/Slide13.png,39.0,,,,,,,,,,,,,,,,,,,,,,,,,,,
24,0,,image-keyboard-response,24,162884,0.0-3.21-0.21,4ofs3372rz3,2022-09-19 16:45:01.026,62e1581acad06eee3b6509dc,3,65,53,30,15,23,male,3272.099999994,,static/images/instructions_CB_3/Slide14.png,37.0,,,,,,,,,,,,,,,,,,,,,,,,,,,
25,0,,image-keyboard-response,25,166266,0.0-3.22-0.22,4ofs3372rz3,2022-09-19 16:45:01.026,62e1581acad06eee3b6509dc,3,65,53,30,15,23,male,3381.3000000119,,static/images/instructions_CB_3/Slide13.png,39.0,,,,,,,,,,,,,,,,,,,,,,,,,,,
26,0,,image-keyboard-response,26,168668,0.0-3.23-0.23,4ofs3372rz3,2022-09-19 16:45:01.026,62e1581acad06eee3b6509dc,3,65,53,30,15,23,male,2400.400000006,,static/images/instructions_CB_3/Slide14.png,39.0,,,,,,,,,,,,,,,,,,,,,,,,,,,
27,0,,image-keyboard-response,27,174879,0.0-3.24-0.24,4ofs3372rz3,2022-09-19 16:45:01.026,62e1581acad06eee3b6509dc,3,65,53,30,15,23,male,6211.0,,static/images/instructions_CB_3/Slide15.png,39.0,,,,,,,,,,,,,,,,,,,,,,,,,,,
28,0,,image-keyboard-response,28,180634,0.0-3.25-0.25,4ofs3372rz3,2022-09-19 16:45:01.026,62e1581acad06eee3b6509dc,3,65,53,30,15,23,male,5753.1000000238,,static/images/instructions_CB_3/Slide16.png,39.0,,,,,,,,,,,,,,,,,,,,,,,,,,,
29,0,,image-keyboard-response,29,188135,0.0-3.26-0.26,4ofs3372rz3,2022-09-19 16:45:01.026,62e1581acad06eee3b6509dc,3,65,53,30,15,23,male,7501.0,,static/images/instructions_CB_3/Slide17.png,39.0,,,,,,,,,,,,,,,,,,,,,,,,,,,
30,0,,image-keyboard-response,30,200415,0.0-3.27-0.27,4ofs3372rz3,2022-09-19 16:45:01.026,62e1581acad06eee3b6509dc,3,65,53,30,15,23,male,12278.7999999821,,static/images/instructions_CB_3/Slide18.png,39.0,,,,,,,,,,,,,,,,,,,,,,,,,,,
31,0,,image-keyboard-response,31,205709,0.0-3.28-0.28,4ofs3372rz3,2022-09-19 16:45:01.026,62e1581acad06eee3b6509dc,3,65,53,30,15,23,male,5293.7999999821,,static/images/instructions_CB_3/Slide19.png,39.0,,,,,,,,,,,,,,,,,,,,,,,,,,,
32,0,,html-keyboard-response,32,207220,0.0-4.0-0.0,4ofs3372rz3,2022-09-19 16:45:01.026,62e1581acad06eee3b6509dc,3,65,53,30,15,23,male,,,"<img src=""static/images/cards/stack_of_black_moons.svg"" width=""175px"" height=""250px""></img>",,,,,,,,,,,,,,,,,,,,,,,,,,,,
33,0,,html-keyboard-response,33,210108,0.0-4.0-1.0,4ofs3372rz3,2022-09-19 16:45:01.026,62e1581acad06eee3b6509dc,3,65,53,30,15,23,male,2380.6999999881,,"
  <table>
  <tr height=300>
    <td width=300 height=300><img src=""static/images/cards/back_of_black_moons.svg"" width=""175px"" height=""250px""></img></td>
    <td width=300 height=300><img src=""static/images/cards/back_of_black_moons.svg"" width=""175px"" height=""250px""></img></td>
  </tr>
  <tr height=200>
    <td width=300><img src=""static/images/keys/z.svg"" width=""35%"" height=""75%""></img></td>
    <td width=300><img src=""static/images/keys/m.svg"" width=""35%"" height=""75%""></img></td>
  </tr>
</table>
  ",90.0,1.0,,,,,,,,,,,,,,,,,,,,,,,,,,
34,0,,html-keyboard-response,34,211614,0.0-4.0-2.0,4ofs3372rz3,2022-09-19 16:45:01.026,62e1581acad06eee3b6509dc,3,65,53,30,15,23,male,,,"
  <table>
  <tr height=300>
    <td width=300 height=300><img src=""static/images/cards/8_of_black_moons.svg"" width=""175px"" height=""250px""></img></td>
    <td width=300 height=300><img src=""static/images/cards/back_of_black_moons.svg"" width=""175px"" height=""250px""></img></td>
  </tr>
  <tr height=200>
    <td width=300><img src=""static/images/keys/z.svg"" width=""35%"" height=""75%""></img></td>
    <td width=300><img src=""static/images/keys/m.svg"" width=""35%"" height=""75%""></img></td>
  </tr>
</table>
  ",,,,,,,,,,,,,,,,,,,,,,,,,,,,
35,0,,html-keyboard-response,35,213118,0.0-4.0-3.0,4ofs3372rz3,2022-09-19 16:45:01.026,62e1581acad06eee3b6509dc,3,65,53,30,15,23,male,,,"<p style=""font-size:50px"">You win!
+10 points this round!</p>",,,,,,,,,,,,,,,,,,,,,,,,,,,,
36,0,,html-keyboard-response,36,213631,0.0-4.0-4.0,4ofs3372rz3,2022-09-19 16:45:01.026,62e1581acad06eee3b6509dc,3,65,53,30,15,23,male,,,,,,1.0,learning,0.0,A,,black,,moons,,,,A,black,moons,,1.0,1.0,NA,left,2380.6999999881,8.0,1.0,1.0,,,
37,0,,html-keyboard-response,37,215134,0.0-4.1-0.1,4ofs3372rz3,2022-09-19 16:45:01.026,62e1581acad06eee3b6509dc,3,65,53,30,15,23,male,,,"<img src=""static/images/cards/stack_of_red_moons.svg"" width=""175px"" height=""250px""></img>",,,,,,,,,,,,,,,,,,,,,,,,,,,,
38,0,,html-keyboard-response,38,216489,0.0-4.1-1.1,4ofs3372rz3,2022-09-19 16:45:01.026,62e1581acad06eee3b6509dc,3,65,53,30,15,23,male,852.6000000238,,"
  <table>
  <tr height=300>
    <td width=300 height=300><img src=""static/images/cards/back_of_red_moons.svg"" width=""175px"" height=""250px""></img></td>
    <td width=300 height=300><img src=""static/images/cards/back_of_red_moons.svg"" width=""175px"" height=""250px""></img></td>
  </tr>
  <tr height=200>
    <td width=300></td>
    <td width=300><img src=""static/images/keys/m.svg"" width=""35%"" height=""75%""></img></td>
  </tr>
</table>
  ",77.0,1.0,,,,,,,,,,,,,,,,,,,,,,,,,,
39,0,,html-keyboard-response,39,218005,0.0-4.1-2.1,4ofs3372rz3,2022-09-19 16:45:01.026,62e1581acad06eee3b6509dc,3,65,53,30,15,23,male,,,"
  <table>
  <tr height=300>
    <td width=300 height=300><img src=""static/images/cards/back_of_red_moons.svg"" width=""175px"" height=""250px""></img></td>
    <td width=300 height=300><img src=""static/images/cards/6_of_red_moons.svg"" width=""175px"" height=""250px""></img></td>
  </tr>
  <tr height=200>
    <td width=300></td>
    <td width=300><img src=""static/images/keys/m.svg"" width=""35%"" height=""75%""></img></td>
  </tr>
</table>
  ",,,,,,,,,,,,,,,,,,,,,,,,,,,,
40,0,,html-keyboard-response,40,219522,0.0-4.1-3.1,4ofs3372rz3,2022-09-19 16:45:01.026,62e1581acad06eee3b6509dc,3,65,53,30,15,23,male,,,"<p style=""font-size:50px"">You win!
+10 points this round!</p>",,,,,,,,,,,,,,,,,,,,,,,,,,,,
41,0,,html-keyboard-response,41,220036,0.0-4.1-4.1,4ofs3372rz3,2022-09-19 16:45:01.026,62e1581acad06eee3b6509dc,3,65,53,30,15,23,male,,,,,,1.0,learning,1.0,B,,red,,moons,,,,B,red,moons,,0.0,1.0,0,right,852.6000000238,6.0,1.0,1.0,,,
42,0,,html-keyboard-response,42,221546,0.0-4.2-0.2,4ofs3372rz3,2022-09-19 16:45:01.026,62e1581acad06eee3b6509dc,3,65,53,30,15,23,male,,,"<img src=""static/images/cards/stack_of_black_stars.svg"" width=""175px"" height=""250px""></img>",,,,,,,,,,,,,,,,,,,,,,,,,,,,
43,0,,html-keyboard-response,43,223308,0.0-4.2-1.2,4ofs3372rz3,2022-09-19 16:45:01.026,62e1581acad06eee3b6509dc,3,65,53,30,15,23,male,1255.2000000179,,"
  <table>
  <tr height=300>
    <td width=300 height=300><img src=""static/images/cards/back_of_black_stars.svg"" width=""175px"" height=""250px""></img></td>
    <td width=300 height=300><img src=""static/images/cards/back_of_black_stars.svg"" width=""175px"" height=""250px""></img></td>
  </tr>
  <tr height=200>
    <td width=300><img src=""static/images/keys/z.svg"" width=""35%"" height=""75%""></img></td>
    <td width=300><img src=""static/images/keys/m.svg"" width=""35%"" height=""75%""></img></td>
  </tr>
</table>
  ",77.0,1.0,,,,,,,,,,,,,,,,,,,,,,,,,,
44,0,,html-keyboard-response,44,224814,0.0-4.2-2.2,4ofs3372rz3,2022-09-19 16:45:01.026,62e1581acad06eee3b6509dc,3,65,53,30,15,23,male,,,"
  <table>
  <tr height=300>
    <td width=300 height=300><img src=""static/images/cards/back_of_black_stars.svg"" width=""175px"" height=""250px""></img></td>
    <td width=300 height=300><img src=""static/images/cards/8_of_black_stars.svg"" width=""175px"" height=""250px""></img></td>
  </tr>
  <tr height=200>
    <td width=300><img src=""static/images/keys/z.svg"" width=""35%"" height=""75%""></img></td>
    <td width=300><img src=""static/images/keys/m.svg"" width=""35%"" height=""75%""></img></td>
  </tr>
</table>
  ",,,,,,,,,,,,,,,,,,,,,,,,,,,,
45,0,,html-keyboard-response,45,226334,0.0-4.2-3.2,4ofs3372rz3,2022-09-19 16:45:01.026,62e1581acad06eee3b6509dc,3,65,53,30,15,23,male,,,"<p style=""font-size:50px"">You Lose!
No points this round.</p>",,,,,,,,,,,,,,,,,,,,,,,,,,,,
46,0,,html-keyboard-response,46,226848,0.0-4.2-4.2,4ofs3372rz3,2022-09-19 16:45:01.026,62e1581acad06eee3b6509dc,3,65,53,30,15,23,male,,,,,,1.0,learning,2.0,C,,black,,stars,,,,C,black,stars,,1.0,0.0,NA,right,1255.2000000179,8.0,1.0,0.0,,,
47,0,,html-keyboard-response,47,228350,0.0-4.3-0.3,4ofs3372rz3,2022-09-19 16:45:01.026,62e1581acad06eee3b6509dc,3,65,53,30,15,23,male,,,"<img src=""static/images/cards/stack_of_red_stars.svg"" width=""175px"" height=""250px""></img>",,,,,,,,,,,,,,,,,,,,,,,,,,,,
48,0,,html-keyboard-response,48,229879,0.0-4.3-1.3,4ofs3372rz3,2022-09-19 16:45:01.026,62e1581acad06eee3b6509dc,3,65,53,30,15,23,male,1019.6999999881,,"
  <table>
  <tr height=300>
    <td width=300 height=300><img src=""static/images/cards/back_of_red_stars.svg"" width=""175px"" height=""250px""></img></td>
    <td width=300 height=300><img src=""static/images/cards/back_of_red_stars.svg"" width=""175px"" height=""250px""></img></td>
  </tr>
  <tr height=200>
    <td width=300><img src=""static/images/keys/z.svg"" width=""35%"" height=""75%""></img></td>
    <td width=300></td>
  </tr>
</table>
  ",90.0,1.0,,,,,,,,,,,,,,,,,,,,,,,,,,
49,0,,html-keyboard-response,49,231390,0.0-4.3-2.3,4ofs3372rz3,2022-09-19 16:45:01.026,62e1581acad06eee3b6509dc,3,65,53,30,15,23,male,,,"
  <table>
  <tr height=300>
    <td width=300 height=300><img src=""static/images/cards/3_of_red_stars.svg"" width=""175px"" height=""250px""></img></td>
    <td width=300 height=300><img src=""static/images/cards/back_of_red_stars.svg"" width=""175px"" height=""250px""></img></td>
  </tr>
  <tr height=200>
    <td width=300><img src=""static/images/keys/z.svg"" width=""35%"" height=""75%""></img></td>
    <td width=300></td>
  </tr>
</table>
  ",,,,,,,,,,,,,,,,,,,,,,,,,,,,
50,0,,html-keyboard-response,50,232900,0.0-4.3-3.3,4ofs3372rz3,2022-09-19 16:45:01.026,62e1581acad06eee3b6509dc,3,65,53,30,15,23,male,,,"<p style=""font-size:50px"">You Lose!
No points this round.</p>",,,,,,,,,,,,,,,,,,,,,,,,,,,,
51,0,,html-keyboard-response,51,233416,0.0-4.3-4.3,4ofs3372rz3,2022-09-19 16:45:01.026,62e1581acad06eee3b6509dc,3,65,53,30,15,23,male,,,,,,1.0,learning,3.0,D,,red,,stars,,,,D,red,stars,,0.0,0.0,1,left,1019.6999999881,3.0,0.0,0.0,,,
52,0,,html-keyboard-response,52,234920,0.0-4.4-0.4,4ofs3372rz3,2022-09-19 16:45:01.026,62e1581acad06eee3b6509dc,3,65,53,30,15,23,male,,,"<img src=""static/images/cards/stack_of_red_bolts.svg"" width=""175px"" height=""250px""></img>",,,,,,,,,,,,,,,,,,,,,,,,,,,,
53,0,,html-keyboard-response,53,236235,0.0-4.4-1.4,4ofs3372rz3,2022-09-19 16:45:01.026,62e1581acad06eee3b6509dc,3,65,53,30,15,23,male,807.6000000238,,"
  <table>
  <tr height=300>
    <td width=300 height=300><img src=""static/images/cards/back_of_red_bolts.svg"" width=""175px"" height=""250px""></img></td>
    <td width=300 height=300><img src=""static/images/cards/back_of_red_bolts.svg"" width=""175px"" height=""250px""></img></td>
  </tr>
  <tr height=200>
    <td width=300><img src=""static/images/keys/z.svg"" width=""35%"" height=""75%""></img></td>
    <td width=300><img src=""static/images/keys/m.svg"" width=""35%"" height=""75%""></img></td>
  </tr>
</table>
  ",77.0,1.0,,,,,,,,,,,,,,,,,,,,,,,,,,
54,0,,html-keyboard-response,54,237740,0.0-4.4-2.4,4ofs3372rz3,2022-09-19 16:45:01.026,62e1581acad06eee3b6509dc,3,65,53,30,15,23,male,,,"
  <table>
  <tr height=300>
    <td width=300 height=300><img src=""static/images/cards/back_of_red_bolts.svg"" width=""175px"" height=""250px""></img></td>
    <td width=300 height=300><img src=""static/images/cards/2_of_red_bolts.svg"" width=""175px"" height=""250px""></img></td>
  </tr>
  <tr height=200>
    <td width=300><img src=""static/images/keys/z.svg"" width=""35%"" height=""75%""></img></td>
    <td width=300><img src=""static/images/keys/m.svg"" width=""35%"" height=""75%""></img></td>
  </tr>
</table>
  ",,,,,,,,,,,,,,,,,,,,,,,,,,,,
55,0,,html-keyboard-response,55,239262,0.0-4.4-3.4,4ofs3372rz3,2022-09-19 16:45:01.026,62e1581acad06eee3b6509dc,3,65,53,30,15,23,male,,,"<p style=""font-size:50px"">You win!
+10 points this round!</p>",,,,,,,,,,,,,,,,,,,,,,,,,,,,
56,0,,html-keyboard-response,56,239782,0.0-4.4-4.4,4ofs3372rz3,2022-09-19 16:45:01.026,62e1581acad06eee3b6509dc,3,65,53,30,15,23,male,,,,,,1.0,learning,4.0,Xc,,red,,bolts,,,,Xc,red,bolts,,1.0,0.0,NA,right,807.6000000238,2.0,0.0,1.0,,,
57,0,,html-keyboard-response,57,241296,0.0-4.5-0.5,4ofs3372rz3,2022-09-19 16:45:01.026,62e1581acad06eee3b6509dc,3,65,53,30,15,23,male,,,"<img src=""static/images/cards/stack_of_black_bolts.svg"" width=""175px"" height=""250px""></img>",,,,,,,,,,,,,,,,,,,,,,,,,,,,
58,0,,html-keyboard-response,58,242842,0.0-4.5-1.5,4ofs3372rz3,2022-09-19 16:45:01.026,62e1581acad06eee3b6509dc,3,65,53,30,15,23,male,1039.2999999821,,"
  <table>
  <tr height=300>
    <td width=300 height=300><img src=""static/images/cards/back_of_black_bolts.svg"" width=""175px"" height=""250px""></img></td>
    <td width=300 height=300><img src=""static/images/cards/back_of_black_bolts.svg"" width=""175px"" height=""250px""></img></td>
  </tr>
  <tr height=200>
    <td width=300><img src=""static/images/keys/z.svg"" width=""35%"" height=""75%""></img></td>
    <td width=300></td>
  </tr>
</table>
  ",90.0,1.0,,,,,,,,,,,,,,,,,,,,,,,,,,
59,0,,html-keyboard-response,59,244350,0.0-4.5-2.5,4ofs3372rz3,2022-09-19 16:45:01.026,62e1581acad06eee3b6509dc,3,65,53,30,15,23,male,,,"
  <table>
  <tr height=300>
    <td width=300 height=300><img src=""static/images/cards/7_of_black_bolts.svg"" width=""175px"" height=""250px""></img></td>
    <td width=300 height=300><img src=""static/images/cards/back_of_black_bolts.svg"" width=""175px"" height=""250px""></img></td>
  </tr>
  <tr height=200>
    <td width=300><img src=""static/images/keys/z.svg"" width=""35%"" height=""75%""></img></td>
    <td width=300></td>
  </tr>
</table>
  ",,,,,,,,,,,,,,,,,,,,,,,,,,,,
60,0,,html-keyboard-response,60,245866,0.0-4.5-3.5,4ofs3372rz3,2022-09-19 16:45:01.026,62e1581acad06eee3b6509dc,3,65,53,30,15,23,male,,,"<p style=""font-size:50px"">You win!
+10 points this round!</p>",,,,,,,,,,,,,,,,,,,,,,,,,,,,
61,0,,html-keyboard-response,61,246381,0.0-4.5-4.5,4ofs3372rz3,2022-09-19 16:45:01.026,62e1581acad06eee3b6509dc,3,65,53,30,15,23,male,,,,,,1.0,learning,5.0,Xnc,,black,,bolts,,,,Xnc,black,bolts,,0.0,0.0,1,left,1039.2999999821,7.0,1.0,1.0,,,
62,0,,html-keyboard-response,62,247892,0.0-4.6-0.6,4ofs3372rz3,2022-09-19 16:45:01.026,62e1581acad06eee3b6509dc,3,65,53,30,15,23,male,,,"<img src=""static/images/cards/stack_of_black_moons.svg"" width=""175px"" height=""250px""></img>",,,,,,,,,,,,,,,,,,,,,,,,,,,,
63,0,,html-keyboard-response,63,249530,0.0-4.6-1.6,4ofs3372rz3,2022-09-19 16:45:01.026,62e1581acad06eee3b6509dc,3,65,53,30,15,23,male,1133.5,,"
  <table>
  <tr height=300>
    <td width=300 height=300><img src=""static/images/cards/back_of_black_moons.svg"" width=""175px"" height=""250px""></img></td>
    <td width=300 height=300><img src=""static/images/cards/back_of_black_moons.svg"" width=""175px"" height=""250px""></img></td>
  </tr>
  <tr height=200>
    <td width=300><img src=""static/images/keys/z.svg"" width=""35%"" height=""75%""></img></td>
    <td width=300><img src=""static/images/keys/m.svg"" width=""35%"" height=""75%""></img></td>
  </tr>
</table>
  ",77.0,1.0,,,,,,,,,,,,,,,,,,,,,,,,,,
64,0,,html-keyboard-response,64,251044,0.0-4.6-2.6,4ofs3372rz3,2022-09-19 16:45:01.026,62e1581acad06eee3b6509dc,3,65,53,30,15,23,male,,,"
  <table>
  <tr height=300>
    <td width=300 height=300><img src=""static/images/cards/back_of_black_moons.svg"" width=""175px"" height=""250px""></img></td>
    <td width=300 height=300><img src=""static/images/cards/1_of_black_moons.svg"" width=""175px"" height=""250px""></img></td>
  </tr>
  <tr height=200>
    <td width=300><img src=""static/images/keys/z.svg"" width=""35%"" height=""75%""></img></td>
    <td width=300><img src=""static/images/keys/m.svg"" width=""35%"" height=""75%""></img></td>
  </tr>
</table>
  ",,,,,,,,,,,,,,,,,,,,,,,,,,,,
65,0,,html-keyboard-response,65,252562,0.0-4.6-3.6,4ofs3372rz3,2022-09-19 16:45:01.026,62e1581acad06eee3b6509dc,3,65,53,30,15,23,male,,,"<p style=""font-size:50px"">You Lose!
No points this round.</p>",,,,,,,,,,,,,,,,,,,,,,,,,,,,
66,0,,html-keyboard-response,66,253069,0.0-4.6-4.6,4ofs3372rz3,2022-09-19 16:45:01.026,62e1581acad06eee3b6509dc,3,65,53,30,15,23,male,,,,,,1.0,learning,6.0,A,,black,,moons,,,,A,black,moons,,1.0,1.0,NA,right,1133.5,1.0,0.0,0.0,,,
67,0,,html-keyboard-response,67,254580,0.0-4.7-0.7,4ofs3372rz3,2022-09-19 16:45:01.026,62e1581acad06eee3b6509dc,3,65,53,30,15,23,male,,,"<img src=""static/images/cards/stack_of_red_moons.svg"" width=""175px"" height=""250px""></img>",,,,,,,,,,,,,,,,,,,,,,,,,,,,
68,0,,html-keyboard-response,68,255832,0.0-4.7-1.7,4ofs3372rz3,2022-09-19 16:45:01.026,62e1581acad06eee3b6509dc,3,65,53,30,15,23,male,739.2000000179,,"
  <table>
  <tr height=300>
    <td width=300 height=300><img src=""static/images/cards/back_of_red_moons.svg"" width=""175px"" height=""250px""></img></td>
    <td width=300 height=300><img src=""static/images/cards/back_of_red_moons.svg"" width=""175px"" height=""250px""></img></td>
  </tr>
  <tr height=200>
    <td width=300></td>
    <td width=300><img src=""static/images/keys/m.svg"" width=""35%"" height=""75%""></img></td>
  </tr>
</table>
  ",77.0,1.0,,,,,,,,,,,,,,,,,,,,,,,,,,
69,0,,html-keyboard-response,69,257348,0.0-4.7-2.7,4ofs3372rz3,2022-09-19 16:45:01.026,62e1581acad06eee3b6509dc,3,65,53,30,15,23,male,,,"
  <table>
  <tr height=300>
    <td width=300 height=300><img src=""static/images/cards/back_of_red_moons.svg"" width=""175px"" height=""250px""></img></td>
    <td width=300 height=300><img src=""static/images/cards/7_of_red_moons.svg"" width=""175px"" height=""250px""></img></td>
  </tr>
  <tr height=200>
    <td width=300></td>
    <td width=300><img src=""static/images/keys/m.svg"" width=""35%"" height=""75%""></img></td>
  </tr>
</table>
  ",,,,,,,,,,,,,,,,,,,,,,,,,,,,
70,0,,html-keyboard-response,70,258868,0.0-4.7-3.7,4ofs3372rz3,2022-09-19 16:45:01.026,62e1581acad06eee3b6509dc,3,65,53,30,15,23,male,,,"<p style=""font-size:50px"">You win!
+10 points this round!</p>",,,,,,,,,,,,,,,,,,,,,,,,,,,,
71,0,,html-keyboard-response,71,259383,0.0-4.7-4.7,4ofs3372rz3,2022-09-19 16:45:01.026,62e1581acad06eee3b6509dc,3,65,53,30,15,23,male,,,,,,1.0,learning,7.0,B,,red,,moons,,,,B,red,moons,,0.0,1.0,0,right,739.2000000179,7.0,1.0,1.0,,,
72,0,,html-keyboard-response,72,260889,0.0-4.8-0.8,4ofs3372rz3,2022-09-19 16:45:01.026,62e1581acad06eee3b6509dc,3,65,53,30,15,23,male,,,"<img src=""static/images/cards/stack_of_black_stars.svg"" width=""175px"" height=""250px""></img>",,,,,,,,,,,,,,,,,,,,,,,,,,,,
73,0,,html-keyboard-response,73,262112,0.0-4.8-1.8,4ofs3372rz3,2022-09-19 16:45:01.026,62e1581acad06eee3b6509dc,3,65,53,30,15,23,male,721.1999999881,,"
  <table>
  <tr height=300>
    <td width=300 height=300><img src=""static/images/cards/back_of_black_stars.svg"" width=""175px"" height=""250px""></img></td>
    <td width=300 height=300><img src=""static/images/cards/back_of_black_stars.svg"" width=""175px"" height=""250px""></img></td>
  </tr>
  <tr height=200>
    <td width=300><img src=""static/images/keys/z.svg"" width=""35%"" height=""75%""></img></td>
    <td width=300><img src=""static/images/keys/m.svg"" width=""35%"" height=""75%""></img></td>
  </tr>
</table>
  ",90.0,1.0,,,,,,,,,,,,,,,,,,,,,,,,,,
74,0,,html-keyboard-response,74,263622,0.0-4.8-2.8,4ofs3372rz3,2022-09-19 16:45:01.026,62e1581acad06eee3b6509dc,3,65,53,30,15,23,male,,,"
  <table>
  <tr height=300>
    <td width=300 height=300><img src=""static/images/cards/2_of_black_stars.svg"" width=""175px"" height=""250px""></img></td>
    <td width=300 height=300><img src=""static/images/cards/back_of_black_stars.svg"" width=""175px"" height=""250px""></img></td>
  </tr>
  <tr height=200>
    <td width=300><img src=""static/images/keys/z.svg"" width=""35%"" height=""75%""></img></td>
    <td width=300><img src=""static/images/keys/m.svg"" width=""35%"" height=""75%""></img></td>
  </tr>
</table>
  ",,,,,,,,,,,,,,,,,,,,,,,,,,,,
75,0,,html-keyboard-response,75,265146,0.0-4.8-3.8,4ofs3372rz3,2022-09-19 16:45:01.026,62e1581acad06eee3b6509dc,3,65,53,30,15,23,male,,,"<p style=""font-size:50px"">You Lose!
No points this round.</p>",,,,,,,,,,,,,,,,,,,,,,,,,,,,
76,0,,html-keyboard-response,76,265667,0.0-4.8-4.8,4ofs3372rz3,2022-09-19 16:45:01.026,62e1581acad06eee3b6509dc,3,65,53,30,15,23,male,,,,,,1.0,learning,8.0,C,,black,,stars,,,,C,black,stars,,1.0,0.0,NA,left,721.1999999881,2.0,0.0,0.0,,,
77,0,,html-keyboard-response,77,267182,0.0-4.9-0.9,4ofs3372rz3,2022-09-19 16:45:01.026,62e1581acad06eee3b6509dc,3,65,53,30,15,23,male,,,"<img src=""static/images/cards/stack_of_red_stars.svg"" width=""175px"" height=""250px""></img>",,,,,,,,,,,,,,,,,,,,,,,,,,,,
78,0,,html-keyboard-response,78,268528,0.0-4.9-1.9,4ofs3372rz3,2022-09-19 16:45:01.026,62e1581acad06eee3b6509dc,3,65,53,30,15,23,male,829.6000000238,,"
  <table>
  <tr height=300>
    <td width=300 height=300><img src=""static/images/cards/back_of_red_stars.svg"" width=""175px"" height=""250px""></img></td>
    <td width=300 height=300><img src=""static/images/cards/back_of_red_stars.svg"" width=""175px"" height=""250px""></img></td>
  </tr>
  <tr height=200>
    <td width=300><img src=""static/images/keys/z.svg"" width=""35%"" height=""75%""></img></td>
    <td width=300></td>
  </tr>
</table>
  ",90.0,1.0,,,,,,,,,,,,,,,,,,,,,,,,,,
79,0,,html-keyboard-response,79,270030,0.0-4.9-2.9,4ofs3372rz3,2022-09-19 16:45:01.026,62e1581acad06eee3b6509dc,3,65,53,30,15,23,male,,,"
  <table>
  <tr height=300>
    <td width=300 height=300><img src=""static/images/cards/6_of_red_stars.svg"" width=""175px"" height=""250px""></img></td>
    <td width=300 height=300><img src=""static/images/cards/back_of_red_stars.svg"" width=""175px"" height=""250px""></img></td>
  </tr>
  <tr height=200>
    <td width=300><img src=""static/images/keys/z.svg"" width=""35%"" height=""75%""></img></td>
    <td width=300></td>
  </tr>
</table>
  ",,,,,,,,,,,,,,,,,,,,,,,,,,,,
80,0,,html-keyboard-response,80,271534,0.0-4.9-3.9,4ofs3372rz3,2022-09-19 16:45:01.026,62e1581acad06eee3b6509dc,3,65,53,30,15,23,male,,,"<p style=""font-size:50px"">You win!
+10 points this round!</p>",,,,,,,,,,,,,,,,,,,,,,,,,,,,
81,0,,html-keyboard-response,81,272056,0.0-4.9-4.9,4ofs3372rz3,2022-09-19 16:45:01.026,62e1581acad06eee3b6509dc,3,65,53,30,15,23,male,,,,,,1.0,learning,9.0,D,,red,,stars,,,,D,red,stars,,0.0,0.0,1,left,829.6000000238,6.0,1.0,1.0,,,
82,0,,html-keyboard-response,82,273564,0.0-4.10-0.10,4ofs3372rz3,2022-09-19 16:45:01.026,62e1581acad06eee3b6509dc,3,65,53,30,15,23,male,,,"<img src=""static/images/cards/stack_of_red_bolts.svg"" width=""175px"" height=""250px""></img>",,,,,,,,,,,,,,,,,,,,,,,,,,,,
83,0,,html-keyboard-response,83,275248,0.0-4.10-1.10,4ofs3372rz3,2022-09-19 16:45:01.026,62e1581acad06eee3b6509dc,3,65,53,30,15,23,male,1177.099999994,,"
  <table>
  <tr height=300>
    <td width=300 height=300><img src=""static/images/cards/back_of_red_bolts.svg"" width=""175px"" height=""250px""></img></td>
    <td width=300 height=300><img src=""static/images/cards/back_of_red_bolts.svg"" width=""175px"" height=""250px""></img></td>
  </tr>
  <tr height=200>
    <td width=300><img src=""static/images/keys/z.svg"" width=""35%"" height=""75%""></img></td>
    <td width=300><img src=""static/images/keys/m.svg"" width=""35%"" height=""75%""></img></td>
  </tr>
</table>
  ",77.0,1.0,,,,,,,,,,,,,,,,,,,,,,,,,,
84,0,,html-keyboard-response,84,276760,0.0-4.10-2.10,4ofs3372rz3,2022-09-19 16:45:01.026,62e1581acad06eee3b6509dc,3,65,53,30,15,23,male,,,"
  <table>
  <tr height=300>
    <td width=300 height=300><img src=""static/images/cards/back_of_red_bolts.svg"" width=""175px"" height=""250px""></img></td>
    <td width=300 height=300><img src=""static/images/cards/8_of_red_bolts.svg"" width=""175px"" height=""250px""></img></td>
  </tr>
  <tr height=200>
    <td width=300><img src=""static/images/keys/z.svg"" width=""35%"" height=""75%""></img></td>
    <td width=300><img src=""static/images/keys/m.svg"" width=""35%"" height=""75%""></img></td>
  </tr>
</table>
  ",,,,,,,,,,,,,,,,,,,,,,,,,,,,
85,0,,html-keyboard-response,85,278277,0.0-4.10-3.10,4ofs3372rz3,2022-09-19 16:45:01.026,62e1581acad06eee3b6509dc,3,65,53,30,15,23,male,,,"<p style=""font-size:50px"">You win!
+10 points this round!</p>",,,,,,,,,,,,,,,,,,,,,,,,,,,,
86,0,,html-keyboard-response,86,278789,0.0-4.10-4.10,4ofs3372rz3,2022-09-19 16:45:01.026,62e1581acad06eee3b6509dc,3,65,53,30,15,23,male,,,,,,1.0,learning,10.0,Xc,,red,,bolts,,,,Xc,red,bolts,,1.0,0.0,NA,right,1177.099999994,8.0,1.0,1.0,,,
87,0,,html-keyboard-response,87,280304,0.0-4.11-0.11,4ofs3372rz3,2022-09-19 16:45:01.026,62e1581acad06eee3b6509dc,3,65,53,30,15,23,male,,,"<img src=""static/images/cards/stack_of_black_bolts.svg"" width=""175px"" height=""250px""></img>",,,,,,,,,,,,,,,,,,,,,,,,,,,,
88,0,,html-keyboard-response,88,281559,0.0-4.11-1.11,4ofs3372rz3,2022-09-19 16:45:01.026,62e1581acad06eee3b6509dc,3,65,53,30,15,23,male,752.400000006,,"
  <table>
  <tr height=300>
    <td width=300 height=300><img src=""static/images/cards/back_of_black_bolts.svg"" width=""175px"" height=""250px""></img></td>
    <td width=300 height=300><img src=""static/images/cards/back_of_black_bolts.svg"" width=""175px"" height=""250px""></img></td>
  </tr>
  <tr height=200>
    <td width=300></td>
    <td width=300><img src=""static/images/keys/m.svg"" width=""35%"" height=""75%""></img></td>
  </tr>
</table>
  ",77.0,1.0,,,,,,,,,,,,,,,,,,,,,,,,,,
89,0,,html-keyboard-response,89,283066,0.0-4.11-2.11,4ofs3372rz3,2022-09-19 16:45:01.026,62e1581acad06eee3b6509dc,3,65,53,30,15,23,male,,,"
  <table>
  <tr height=300>
    <td width=300 height=300><img src=""static/images/cards/back_of_black_bolts.svg"" width=""175px"" height=""250px""></img></td>
    <td width=300 height=300><img src=""static/images/cards/2_of_black_bolts.svg"" width=""175px"" height=""250px""></img></td>
  </tr>
  <tr height=200>
    <td width=300></td>
    <td width=300><img src=""static/images/keys/m.svg"" width=""35%"" height=""75%""></img></td>
  </tr>
</table>
  ",,,,,,,,,,,,,,,,,,,,,,,,,,,,
90,0,,html-keyboard-response,90,284578,0.0-4.11-3.11,4ofs3372rz3,2022-09-19 16:45:01.026,62e1581acad06eee3b6509dc,3,65,53,30,15,23,male,,,"<p style=""font-size:50px"">You win!
+10 points this round!</p>",,,,,,,,,,,,,,,,,,,,,,,,,,,,
91,0,,html-keyboard-response,91,285088,0.0-4.11-4.11,4ofs3372rz3,2022-09-19 16:45:01.026,62e1581acad06eee3b6509dc,3,65,53,30,15,23,male,,,,,,1.0,learning,11.0,Xnc,,black,,bolts,,,,Xnc,black,bolts,,0.0,0.0,0,right,752.400000006,2.0,0.0,1.0,,,
92,0,,html-keyboard-response,92,286596,0.0-4.12-0.12,4ofs3372rz3,2022-09-19 16:45:01.026,62e1581acad06eee3b6509dc,3,65,53,30,15,23,male,,,"<img src=""static/images/cards/stack_of_black_moons.svg"" width=""175px"" height=""250px""></img>",,,,,,,,,,,,,,,,,,,,,,,,,,,,
93,0,,html-keyboard-response,93,287931,0.0-4.12-1.12,4ofs3372rz3,2022-09-19 16:45:01.026,62e1581acad06eee3b6509dc,3,65,53,30,15,23,male,823.900000006,,"
  <table>
  <tr height=300>
    <td width=300 height=300><img src=""static/images/cards/back_of_black_moons.svg"" width=""175px"" height=""250px""></img></td>
    <td width=300 height=300><img src=""static/images/cards/back_of_black_moons.svg"" width=""175px"" height=""250px""></img></td>
  </tr>
  <tr height=200>
    <td width=300><img src=""static/images/keys/z.svg"" width=""35%"" height=""75%""></img></td>
    <td width=300><img src=""static/images/keys/m.svg"" width=""35%"" height=""75%""></img></td>
  </tr>
</table>
  ",77.0,1.0,,,,,,,,,,,,,,,,,,,,,,,,,,
94,0,,html-keyboard-response,94,289444,0.0-4.12-2.12,4ofs3372rz3,2022-09-19 16:45:01.026,62e1581acad06eee3b6509dc,3,65,53,30,15,23,male,,,"
  <table>
  <tr height=300>
    <td width=300 height=300><img src=""static/images/cards/back_of_black_moons.svg"" width=""175px"" height=""250px""></img></td>
    <td width=300 height=300><img src=""static/images/cards/1_of_black_moons.svg"" width=""175px"" height=""250px""></img></td>
  </tr>
  <tr height=200>
    <td width=300><img src=""static/images/keys/z.svg"" width=""35%"" height=""75%""></img></td>
    <td width=300><img src=""static/images/keys/m.svg"" width=""35%"" height=""75%""></img></td>
  </tr>
</table>
  ",,,,,,,,,,,,,,,,,,,,,,,,,,,,
95,0,,html-keyboard-response,95,290948,0.0-4.12-3.12,4ofs3372rz3,2022-09-19 16:45:01.026,62e1581acad06eee3b6509dc,3,65,53,30,15,23,male,,,"<p style=""font-size:50px"">You Lose!
No points this round.</p>",,,,,,,,,,,,,,,,,,,,,,,,,,,,
96,0,,html-keyboard-response,96,291455,0.0-4.12-4.12,4ofs3372rz3,2022-09-19 16:45:01.026,62e1581acad06eee3b6509dc,3,65,53,30,15,23,male,,,,,,1.0,learning,12.0,A,,black,,moons,,,,A,black,moons,,1.0,1.0,NA,right,823.900000006,1.0,0.0,0.0,,,
97,0,,html-keyboard-response,97,292959,0.0-4.13-0.13,4ofs3372rz3,2022-09-19 16:45:01.026,62e1581acad06eee3b6509dc,3,65,53,30,15,23,male,,,"<img src=""static/images/cards/stack_of_red_moons.svg"" width=""175px"" height=""250px""></img>",,,,,,,,,,,,,,,,,,,,,,,,,,,,
98,0,,html-keyboard-response,98,294007,0.0-4.13-1.13,4ofs3372rz3,2022-09-19 16:45:01.026,62e1581acad06eee3b6509dc,3,65,53,30,15,23,male,542.5,,"
  <table>
  <tr height=300>
    <td width=300 height=300><img src=""static/images/cards/back_of_red_moons.svg"" width=""175px"" height=""250px""></img></td>
    <td width=300 height=300><img src=""static/images/cards/back_of_red_moons.svg"" width=""175px"" height=""250px""></img></td>
  </tr>
  <tr height=200>
    <td width=300></td>
    <td width=300><img src=""static/images/keys/m.svg"" width=""35%"" height=""75%""></img></td>
  </tr>
</table>
  ",77.0,1.0,,,,,,,,,,,,,,,,,,,,,,,,,,
99,0,,html-keyboard-response,99,295524,0.0-4.13-2.13,4ofs3372rz3,2022-09-19 16:45:01.026,62e1581acad06eee3b6509dc,3,65,53,30,15,23,male,,,"
  <table>
  <tr height=300>
    <td width=300 height=300><img src=""static/images/cards/back_of_red_moons.svg"" width=""175px"" height=""250px""></img></td>
    <td width=300 height=300><img src=""static/images/cards/1_of_red_moons.svg"" width=""175px"" height=""250px""></img></td>
  </tr>
  <tr height=200>
    <td width=300></td>
    <td width=300><img src=""static/images/keys/m.svg"" width=""35%"" height=""75%""></img></td>
  </tr>
</table>
  ",,,,,,,,,,,,,,,,,,,,,,,,,,,,
100,0,,html-keyboard-response,100,297034,0.0-4.13-3.13,4ofs3372rz3,2022-09-19 16:45:01.026,62e1581acad06eee3b6509dc,3,65,53,30,15,23,male,,,"<p style=""font-size:50px"">You Lose!
No points this round.</p>",,,,,,,,,,,,,,,,,,,,,,,,,,,,
101,0,,html-keyboard-response,101,297546,0.0-4.13-4.13,4ofs3372rz3,2022-09-19 16:45:01.026,62e1581acad06eee3b6509dc,3,65,53,30,15,23,male,,,,,,1.0,learning,13.0,B,,red,,moons,,,,B,red,moons,,0.0,1.0,0,right,542.5,1.0,0.0,0.0,,,
102,0,,html-keyboard-response,102,299049,0.0-4.14-0.14,4ofs3372rz3,2022-09-19 16:45:01.026,62e1581acad06eee3b6509dc,3,65,53,30,15,23,male,,,"<img src=""static/images/cards/stack_of_black_stars.svg"" width=""175px"" height=""250px""></img>",,,,,,,,,,,,,,,,,,,,,,,,,,,,
103,0,,html-keyboard-response,103,300144,0.0-4.14-1.14,4ofs3372rz3,2022-09-19 16:45:01.026,62e1581acad06eee3b6509dc,3,65,53,30,15,23,male,589.2000000179,,"
  <table>
  <tr height=300>
    <td width=300 height=300><img src=""static/images/cards/back_of_black_stars.svg"" width=""175px"" height=""250px""></img></td>
    <td width=300 height=300><img src=""static/images/cards/back_of_black_stars.svg"" width=""175px"" height=""250px""></img></td>
  </tr>
  <tr height=200>
    <td width=300><img src=""static/images/keys/z.svg"" width=""35%"" height=""75%""></img></td>
    <td width=300><img src=""static/images/keys/m.svg"" width=""35%"" height=""75%""></img></td>
  </tr>
</table>
  ",90.0,1.0,,,,,,,,,,,,,,,,,,,,,,,,,,
104,0,,html-keyboard-response,104,301657,0.0-4.14-2.14,4ofs3372rz3,2022-09-19 16:45:01.026,62e1581acad06eee3b6509dc,3,65,53,30,15,23,male,,,"
  <table>
  <tr height=300>
    <td width=300 height=300><img src=""static/images/cards/9_of_black_stars.svg"" width=""175px"" height=""250px""></img></td>
    <td width=300 height=300><img src=""static/images/cards/back_of_black_stars.svg"" width=""175px"" height=""250px""></img></td>
  </tr>
  <tr height=200>
    <td width=300><img src=""static/images/keys/z.svg"" width=""35%"" height=""75%""></img></td>
    <td width=300><img src=""static/images/keys/m.svg"" width=""35%"" height=""75%""></img></td>
  </tr>
</table>
  ",,,,,,,,,,,,,,,,,,,,,,,,,,,,
105,0,,html-keyboard-response,105,303166,0.0-4.14-3.14,4ofs3372rz3,2022-09-19 16:45:01.026,62e1581acad06eee3b6509dc,3,65,53,30,15,23,male,,,"<p style=""font-size:50px"">You win!
+10 points this round!</p>",,,,,,,,,,,,,,,,,,,,,,,,,,,,
106,0,,html-keyboard-response,106,303679,0.0-4.14-4.14,4ofs3372rz3,2022-09-19 16:45:01.026,62e1581acad06eee3b6509dc,3,65,53,30,15,23,male,,,,,,1.0,learning,14.0,C,,black,,stars,,,,C,black,stars,,1.0,0.0,NA,left,589.2000000179,9.0,1.0,1.0,,,
107,0,,html-keyboard-response,107,305190,0.0-4.15-0.15,4ofs3372rz3,2022-09-19 16:45:01.026,62e1581acad06eee3b6509dc,3,65,53,30,15,23,male,,,"<img src=""static/images/cards/stack_of_red_stars.svg"" width=""175px"" height=""250px""></img>",,,,,,,,,,,,,,,,,,,,,,,,,,,,
108,0,,html-keyboard-response,108,306217,0.0-4.15-1.15,4ofs3372rz3,2022-09-19 16:45:01.026,62e1581acad06eee3b6509dc,3,65,53,30,15,23,male,520.0,,"
  <table>
  <tr height=300>
    <td width=300 height=300><img src=""static/images/cards/back_of_red_stars.svg"" width=""175px"" height=""250px""></img></td>
    <td width=300 height=300><img src=""static/images/cards/back_of_red_stars.svg"" width=""175px"" height=""250px""></img></td>
  </tr>
  <tr height=200>
    <td width=300></td>
    <td width=300><img src=""static/images/keys/m.svg"" width=""35%"" height=""75%""></img></td>
  </tr>
</table>
  ",77.0,1.0,,,,,,,,,,,,,,,,,,,,,,,,,,
109,0,,html-keyboard-response,109,307722,0.0-4.15-2.15,4ofs3372rz3,2022-09-19 16:45:01.026,62e1581acad06eee3b6509dc,3,65,53,30,15,23,male,,,"
  <table>
  <tr height=300>
    <td width=300 height=300><img src=""static/images/cards/back_of_red_stars.svg"" width=""175px"" height=""250px""></img></td>
    <td width=300 height=300><img src=""static/images/cards/3_of_red_stars.svg"" width=""175px"" height=""250px""></img></td>
  </tr>
  <tr height=200>
    <td width=300></td>
    <td width=300><img src=""static/images/keys/m.svg"" width=""35%"" height=""75%""></img></td>
  </tr>
</table>
  ",,,,,,,,,,,,,,,,,,,,,,,,,,,,
110,0,,html-keyboard-response,110,309244,0.0-4.15-3.15,4ofs3372rz3,2022-09-19 16:45:01.026,62e1581acad06eee3b6509dc,3,65,53,30,15,23,male,,,"<p style=""font-size:50px"">You win!
+10 points this round!</p>",,,,,,,,,,,,,,,,,,,,,,,,,,,,
111,0,,html-keyboard-response,111,309758,0.0-4.15-4.15,4ofs3372rz3,2022-09-19 16:45:01.026,62e1581acad06eee3b6509dc,3,65,53,30,15,23,male,,,,,,1.0,learning,15.0,D,,red,,stars,,,,D,red,stars,,0.0,0.0,0,right,520.0,3.0,0.0,1.0,,,
112,0,,html-keyboard-response,112,311272,0.0-4.16-0.16,4ofs3372rz3,2022-09-19 16:45:01.026,62e1581acad06eee3b6509dc,3,65,53,30,15,23,male,,,"<img src=""static/images/cards/stack_of_red_bolts.svg"" width=""175px"" height=""250px""></img>",,,,,,,,,,,,,,,,,,,,,,,,,,,,
113,0,,html-keyboard-response,113,312372,0.0-4.16-1.16,4ofs3372rz3,2022-09-19 16:45:01.026,62e1581acad06eee3b6509dc,3,65,53,30,15,23,male,589.0,,"
  <table>
  <tr height=300>
    <td width=300 height=300><img src=""static/images/cards/back_of_red_bolts.svg"" width=""175px"" height=""250px""></img></td>
    <td width=300 height=300><img src=""static/images/cards/back_of_red_bolts.svg"" width=""175px"" height=""250px""></img></td>
  </tr>
  <tr height=200>
    <td width=300><img src=""static/images/keys/z.svg"" width=""35%"" height=""75%""></img></td>
    <td width=300><img src=""static/images/keys/m.svg"" width=""35%"" height=""75%""></img></td>
  </tr>
</table>
  ",77.0,1.0,,,,,,,,,,,,,,,,,,,,,,,,,,
114,0,,html-keyboard-response,114,313874,0.0-4.16-2.16,4ofs3372rz3,2022-09-19 16:45:01.026,62e1581acad06eee3b6509dc,3,65,53,30,15,23,male,,,"
  <table>
  <tr height=300>
    <td width=300 height=300><img src=""static/images/cards/back_of_red_bolts.svg"" width=""175px"" height=""250px""></img></td>
    <td width=300 height=300><img src=""static/images/cards/9_of_red_bolts.svg"" width=""175px"" height=""250px""></img></td>
  </tr>
  <tr height=200>
    <td width=300><img src=""static/images/keys/z.svg"" width=""35%"" height=""75%""></img></td>
    <td width=300><img src=""static/images/keys/m.svg"" width=""35%"" height=""75%""></img></td>
  </tr>
</table>
  ",,,,,,,,,,,,,,,,,,,,,,,,,,,,
115,0,,html-keyboard-response,115,315386,0.0-4.16-3.16,4ofs3372rz3,2022-09-19 16:45:01.026,62e1581acad06eee3b6509dc,3,65,53,30,15,23,male,,,"<p style=""font-size:50px"">You win!
+10 points this round!</p>",,,,,,,,,,,,,,,,,,,,,,,,,,,,
116,0,,html-keyboard-response,116,315894,0.0-4.16-4.16,4ofs3372rz3,2022-09-19 16:45:01.026,62e1581acad06eee3b6509dc,3,65,53,30,15,23,male,,,,,,1.0,learning,16.0,Xc,,red,,bolts,,,,Xc,red,bolts,,1.0,0.0,NA,right,589.0,9.0,1.0,1.0,,,
117,0,,html-keyboard-response,117,317408,0.0-4.17-0.17,4ofs3372rz3,2022-09-19 16:45:01.026,62e1581acad06eee3b6509dc,3,65,53,30,15,23,male,,,"<img src=""static/images/cards/stack_of_black_bolts.svg"" width=""175px"" height=""250px""></img>",,,,,,,,,,,,,,,,,,,,,,,,,,,,
118,0,,html-keyboard-response,118,318575,0.0-4.17-1.17,4ofs3372rz3,2022-09-19 16:45:01.026,62e1581acad06eee3b6509dc,3,65,53,30,15,23,male,660.1999999881,,"
  <table>
  <tr height=300>
    <td width=300 height=300><img src=""static/images/cards/back_of_black_bolts.svg"" width=""175px"" height=""250px""></img></td>
    <td width=300 height=300><img src=""static/images/cards/back_of_black_bolts.svg"" width=""175px"" height=""250px""></img></td>
  </tr>
  <tr height=200>
    <td width=300></td>
    <td width=300><img src=""static/images/keys/m.svg"" width=""35%"" height=""75%""></img></td>
  </tr>
</table>
  ",77.0,1.0,,,,,,,,,,,,,,,,,,,,,,,,,,
119,0,,html-keyboard-response,119,320082,0.0-4.17-2.17,4ofs3372rz3,2022-09-19 16:45:01.026,62e1581acad06eee3b6509dc,3,65,53,30,15,23,male,,,"
  <table>
  <tr height=300>
    <td width=300 height=300><img src=""static/images/cards/back_of_black_bolts.svg"" width=""175px"" height=""250px""></img></td>
    <td width=300 height=300><img src=""static/images/cards/1_of_black_bolts.svg"" width=""175px"" height=""250px""></img></td>
  </tr>
  <tr height=200>
    <td width=300></td>
    <td width=300><img src=""static/images/keys/m.svg"" width=""35%"" height=""75%""></img></td>
  </tr>
</table>
  ",,,,,,,,,,,,,,,,,,,,,,,,,,,,
120,0,,html-keyboard-response,120,321604,0.0-4.17-3.17,4ofs3372rz3,2022-09-19 16:45:01.026,62e1581acad06eee3b6509dc,3,65,53,30,15,23,male,,,"<p style=""font-size:50px"">You win!
+10 points this round!</p>",,,,,,,,,,,,,,,,,,,,,,,,,,,,
121,0,,html-keyboard-response,121,322110,0.0-4.17-4.17,4ofs3372rz3,2022-09-19 16:45:01.026,62e1581acad06eee3b6509dc,3,65,53,30,15,23,male,,,,,,1.0,learning,17.0,Xnc,,black,,bolts,,,,Xnc,black,bolts,,0.0,0.0,0,right,660.1999999881,1.0,0.0,1.0,,,
122,0,,html-keyboard-response,122,323614,0.0-4.18-0.18,4ofs3372rz3,2022-09-19 16:45:01.026,62e1581acad06eee3b6509dc,3,65,53,30,15,23,male,,,"<img src=""static/images/cards/stack_of_black_moons.svg"" width=""175px"" height=""250px""></img>",,,,,,,,,,,,,,,,,,,,,,,,,,,,
123,0,,html-keyboard-response,123,324501,0.0-4.18-1.18,4ofs3372rz3,2022-09-19 16:45:01.026,62e1581acad06eee3b6509dc,3,65,53,30,15,23,male,378.1000000238,,"
  <table>
  <tr height=300>
    <td width=300 height=300><img src=""static/images/cards/back_of_black_moons.svg"" width=""175px"" height=""250px""></img></td>
    <td width=300 height=300><img src=""static/images/cards/back_of_black_moons.svg"" width=""175px"" height=""250px""></img></td>
  </tr>
  <tr height=200>
    <td width=300><img src=""static/images/keys/z.svg"" width=""35%"" height=""75%""></img></td>
    <td width=300><img src=""static/images/keys/m.svg"" width=""35%"" height=""75%""></img></td>
  </tr>
</table>
  ",90.0,1.0,,,,,,,,,,,,,,,,,,,,,,,,,,
124,0,,html-keyboard-response,124,326015,0.0-4.18-2.18,4ofs3372rz3,2022-09-19 16:45:01.026,62e1581acad06eee3b6509dc,3,65,53,30,15,23,male,,,"
  <table>
  <tr height=300>
    <td width=300 height=300><img src=""static/images/cards/9_of_black_moons.svg"" width=""175px"" height=""250px""></img></td>
    <td width=300 height=300><img src=""static/images/cards/back_of_black_moons.svg"" width=""175px"" height=""250px""></img></td>
  </tr>
  <tr height=200>
    <td width=300><img src=""static/images/keys/z.svg"" width=""35%"" height=""75%""></img></td>
    <td width=300><img src=""static/images/keys/m.svg"" width=""35%"" height=""75%""></img></td>
  </tr>
</table>
  ",,,,,,,,,,,,,,,,,,,,,,,,,,,,
125,0,,html-keyboard-response,125,327538,0.0-4.18-3.18,4ofs3372rz3,2022-09-19 16:45:01.026,62e1581acad06eee3b6509dc,3,65,53,30,15,23,male,,,"<p style=""font-size:50px"">You win!
+10 points this round!</p>",,,,,,,,,,,,,,,,,,,,,,,,,,,,
126,0,,html-keyboard-response,126,328047,0.0-4.18-4.18,4ofs3372rz3,2022-09-19 16:45:01.026,62e1581acad06eee3b6509dc,3,65,53,30,15,23,male,,,,,,1.0,learning,18.0,A,,black,,moons,,,,A,black,moons,,1.0,1.0,NA,left,378.1000000238,9.0,1.0,1.0,,,
127,0,,html-keyboard-response,127,329559,0.0-4.19-0.19,4ofs3372rz3,2022-09-19 16:45:01.026,62e1581acad06eee3b6509dc,3,65,53,30,15,23,male,,,"<img src=""static/images/cards/stack_of_red_moons.svg"" width=""175px"" height=""250px""></img>",,,,,,,,,,,,,,,,,,,,,,,,,,,,
128,0,,html-keyboard-response,128,330489,0.0-4.19-1.19,4ofs3372rz3,2022-09-19 16:45:01.026,62e1581acad06eee3b6509dc,3,65,53,30,15,23,male,425.900000006,,"
  <table>
  <tr height=300>
    <td width=300 height=300><img src=""static/images/cards/back_of_red_moons.svg"" width=""175px"" height=""250px""></img></td>
    <td width=300 height=300><img src=""static/images/cards/back_of_red_moons.svg"" width=""175px"" height=""250px""></img></td>
  </tr>
  <tr height=200>
    <td width=300></td>
    <td width=300><img src=""static/images/keys/m.svg"" width=""35%"" height=""75%""></img></td>
  </tr>
</table>
  ",77.0,1.0,,,,,,,,,,,,,,,,,,,,,,,,,,
129,0,,html-keyboard-response,129,331992,0.0-4.19-2.19,4ofs3372rz3,2022-09-19 16:45:01.026,62e1581acad06eee3b6509dc,3,65,53,30,15,23,male,,,"
  <table>
  <tr height=300>
    <td width=300 height=300><img src=""static/images/cards/back_of_red_moons.svg"" width=""175px"" height=""250px""></img></td>
    <td width=300 height=300><img src=""static/images/cards/1_of_red_moons.svg"" width=""175px"" height=""250px""></img></td>
  </tr>
  <tr height=200>
    <td width=300></td>
    <td width=300><img src=""static/images/keys/m.svg"" width=""35%"" height=""75%""></img></td>
  </tr>
</table>
  ",,,,,,,,,,,,,,,,,,,,,,,,,,,,
130,0,,html-keyboard-response,130,333508,0.0-4.19-3.19,4ofs3372rz3,2022-09-19 16:45:01.026,62e1581acad06eee3b6509dc,3,65,53,30,15,23,male,,,"<p style=""font-size:50px"">You Lose!
No points this round.</p>",,,,,,,,,,,,,,,,,,,,,,,,,,,,
131,0,,html-keyboard-response,131,334018,0.0-4.19-4.19,4ofs3372rz3,2022-09-19 16:45:01.026,62e1581acad06eee3b6509dc,3,65,53,30,15,23,male,,,,,,1.0,learning,19.0,B,,red,,moons,,,,B,red,moons,,0.0,1.0,0,right,425.900000006,1.0,0.0,0.0,,,
132,0,,html-keyboard-response,132,335524,0.0-4.20-0.20,4ofs3372rz3,2022-09-19 16:45:01.026,62e1581acad06eee3b6509dc,3,65,53,30,15,23,male,,,"<img src=""static/images/cards/stack_of_black_stars.svg"" width=""175px"" height=""250px""></img>",,,,,,,,,,,,,,,,,,,,,,,,,,,,
133,0,,html-keyboard-response,133,336595,0.0-4.20-1.20,4ofs3372rz3,2022-09-19 16:45:01.026,62e1581acad06eee3b6509dc,3,65,53,30,15,23,male,566.6999999881,,"
  <table>
  <tr height=300>
    <td width=300 height=300><img src=""static/images/cards/back_of_black_stars.svg"" width=""175px"" height=""250px""></img></td>
    <td width=300 height=300><img src=""static/images/cards/back_of_black_stars.svg"" width=""175px"" height=""250px""></img></td>
  </tr>
  <tr height=200>
    <td width=300><img src=""static/images/keys/z.svg"" width=""35%"" height=""75%""></img></td>
    <td width=300><img src=""static/images/keys/m.svg"" width=""35%"" height=""75%""></img></td>
  </tr>
</table>
  ",90.0,1.0,,,,,,,,,,,,,,,,,,,,,,,,,,
134,0,,html-keyboard-response,134,338104,0.0-4.20-2.20,4ofs3372rz3,2022-09-19 16:45:01.026,62e1581acad06eee3b6509dc,3,65,53,30,15,23,male,,,"
  <table>
  <tr height=300>
    <td width=300 height=300><img src=""static/images/cards/4_of_black_stars.svg"" width=""175px"" height=""250px""></img></td>
    <td width=300 height=300><img src=""static/images/cards/back_of_black_stars.svg"" width=""175px"" height=""250px""></img></td>
  </tr>
  <tr height=200>
    <td width=300><img src=""static/images/keys/z.svg"" width=""35%"" height=""75%""></img></td>
    <td width=300><img src=""static/images/keys/m.svg"" width=""35%"" height=""75%""></img></td>
  </tr>
</table>
  ",,,,,,,,,,,,,,,,,,,,,,,,,,,,
135,0,,html-keyboard-response,135,339624,0.0-4.20-3.20,4ofs3372rz3,2022-09-19 16:45:01.026,62e1581acad06eee3b6509dc,3,65,53,30,15,23,male,,,"<p style=""font-size:50px"">You win!
+10 points this round!</p>",,,,,,,,,,,,,,,,,,,,,,,,,,,,
136,0,,html-keyboard-response,136,340133,0.0-4.20-4.20,4ofs3372rz3,2022-09-19 16:45:01.026,62e1581acad06eee3b6509dc,3,65,53,30,15,23,male,,,,,,1.0,learning,20.0,C,,black,,stars,,,,C,black,stars,,1.0,0.0,NA,left,566.6999999881,4.0,0.0,1.0,,,
137,0,,html-keyboard-response,137,341649,0.0-4.21-0.21,4ofs3372rz3,2022-09-19 16:45:01.026,62e1581acad06eee3b6509dc,3,65,53,30,15,23,male,,,"<img src=""static/images/cards/stack_of_red_stars.svg"" width=""175px"" height=""250px""></img>",,,,,,,,,,,,,,,,,,,,,,,,,,,,
138,0,,html-keyboard-response,138,342807,0.0-4.21-1.21,4ofs3372rz3,2022-09-19 16:45:01.026,62e1581acad06eee3b6509dc,3,65,53,30,15,23,male,641.7000000179,,"
  <table>
  <tr height=300>
    <td width=300 height=300><img src=""static/images/cards/back_of_red_stars.svg"" width=""175px"" height=""250px""></img></td>
    <td width=300 height=300><img src=""static/images/cards/back_of_red_stars.svg"" width=""175px"" height=""250px""></img></td>
  </tr>
  <tr height=200>
    <td width=300></td>
    <td width=300><img src=""static/images/keys/m.svg"" width=""35%"" height=""75%""></img></td>
  </tr>
</table>
  ",77.0,1.0,,,,,,,,,,,,,,,,,,,,,,,,,,
139,0,,html-keyboard-response,139,344322,0.0-4.21-2.21,4ofs3372rz3,2022-09-19 16:45:01.026,62e1581acad06eee3b6509dc,3,65,53,30,15,23,male,,,"
  <table>
  <tr height=300>
    <td width=300 height=300><img src=""static/images/cards/back_of_red_stars.svg"" width=""175px"" height=""250px""></img></td>
    <td width=300 height=300><img src=""static/images/cards/6_of_red_stars.svg"" width=""175px"" height=""250px""></img></td>
  </tr>
  <tr height=200>
    <td width=300></td>
    <td width=300><img src=""static/images/keys/m.svg"" width=""35%"" height=""75%""></img></td>
  </tr>
</table>
  ",,,,,,,,,,,,,,,,,,,,,,,,,,,,
140,0,,html-keyboard-response,140,345844,0.0-4.21-3.21,4ofs3372rz3,2022-09-19 16:45:01.026,62e1581acad06eee3b6509dc,3,65,53,30,15,23,male,,,"<p style=""font-size:50px"">You Lose!
No points this round.</p>",,,,,,,,,,,,,,,,,,,,,,,,,,,,
141,0,,html-keyboard-response,141,346358,0.0-4.21-4.21,4ofs3372rz3,2022-09-19 16:45:01.026,62e1581acad06eee3b6509dc,3,65,53,30,15,23,male,,,,,,1.0,learning,21.0,D,,red,,stars,,,,D,red,stars,,0.0,0.0,0,right,641.7000000179,6.0,1.0,0.0,,,
142,0,,html-keyboard-response,142,347864,0.0-4.22-0.22,4ofs3372rz3,2022-09-19 16:45:01.026,62e1581acad06eee3b6509dc,3,65,53,30,15,23,male,,,"<img src=""static/images/cards/stack_of_red_bolts.svg"" width=""175px"" height=""250px""></img>",,,,,,,,,,,,,,,,,,,,,,,,,,,,
143,0,,html-keyboard-response,143,348953,0.0-4.22-1.22,4ofs3372rz3,2022-09-19 16:45:01.026,62e1581acad06eee3b6509dc,3,65,53,30,15,23,male,580.6999999881,,"
  <table>
  <tr height=300>
    <td width=300 height=300><img src=""static/images/cards/back_of_red_bolts.svg"" width=""175px"" height=""250px""></img></td>
    <td width=300 height=300><img src=""static/images/cards/back_of_red_bolts.svg"" width=""175px"" height=""250px""></img></td>
  </tr>
  <tr height=200>
    <td width=300><img src=""static/images/keys/z.svg"" width=""35%"" height=""75%""></img></td>
    <td width=300><img src=""static/images/keys/m.svg"" width=""35%"" height=""75%""></img></td>
  </tr>
</table>
  ",90.0,1.0,,,,,,,,,,,,,,,,,,,,,,,,,,
144,0,,html-keyboard-response,144,350464,0.0-4.22-2.22,4ofs3372rz3,2022-09-19 16:45:01.026,62e1581acad06eee3b6509dc,3,65,53,30,15,23,male,,,"
  <table>
  <tr height=300>
    <td width=300 height=300><img src=""static/images/cards/1_of_red_bolts.svg"" width=""175px"" height=""250px""></img></td>
    <td width=300 height=300><img src=""static/images/cards/back_of_red_bolts.svg"" width=""175px"" height=""250px""></img></td>
  </tr>
  <tr height=200>
    <td width=300><img src=""static/images/keys/z.svg"" width=""35%"" height=""75%""></img></td>
    <td width=300><img src=""static/images/keys/m.svg"" width=""35%"" height=""75%""></img></td>
  </tr>
</table>
  ",,,,,,,,,,,,,,,,,,,,,,,,,,,,
145,0,,html-keyboard-response,145,351984,0.0-4.22-3.22,4ofs3372rz3,2022-09-19 16:45:01.026,62e1581acad06eee3b6509dc,3,65,53,30,15,23,male,,,"<p style=""font-size:50px"">You win!
+10 points this round!</p>",,,,,,,,,,,,,,,,,,,,,,,,,,,,
146,0,,html-keyboard-response,146,352494,0.0-4.22-4.22,4ofs3372rz3,2022-09-19 16:45:01.026,62e1581acad06eee3b6509dc,3,65,53,30,15,23,male,,,,,,1.0,learning,22.0,Xc,,red,,bolts,,,,Xc,red,bolts,,1.0,0.0,NA,left,580.6999999881,1.0,0.0,1.0,,,
147,0,,html-keyboard-response,147,353996,0.0-4.23-0.23,4ofs3372rz3,2022-09-19 16:45:01.026,62e1581acad06eee3b6509dc,3,65,53,30,15,23,male,,,"<img src=""static/images/cards/stack_of_black_bolts.svg"" width=""175px"" height=""250px""></img>",,,,,,,,,,,,,,,,,,,,,,,,,,,,
148,0,,html-keyboard-response,148,355011,0.0-4.23-1.23,4ofs3372rz3,2022-09-19 16:45:01.026,62e1581acad06eee3b6509dc,3,65,53,30,15,23,male,507.7000000179,,"
  <table>
  <tr height=300>
    <td width=300 height=300><img src=""static/images/cards/back_of_black_bolts.svg"" width=""175px"" height=""250px""></img></td>
    <td width=300 height=300><img src=""static/images/cards/back_of_black_bolts.svg"" width=""175px"" height=""250px""></img></td>
  </tr>
  <tr height=200>
    <td width=300><img src=""static/images/keys/z.svg"" width=""35%"" height=""75%""></img></td>
    <td width=300></td>
  </tr>
</table>
  ",90.0,1.0,,,,,,,,,,,,,,,,,,,,,,,,,,
149,0,,html-keyboard-response,149,356524,0.0-4.23-2.23,4ofs3372rz3,2022-09-19 16:45:01.026,62e1581acad06eee3b6509dc,3,65,53,30,15,23,male,,,"
  <table>
  <tr height=300>
    <td width=300 height=300><img src=""static/images/cards/10_of_black_bolts.svg"" width=""175px"" height=""250px""></img></td>
    <td width=300 height=300><img src=""static/images/cards/back_of_black_bolts.svg"" width=""175px"" height=""250px""></img></td>
  </tr>
  <tr height=200>
    <td width=300><img src=""static/images/keys/z.svg"" width=""35%"" height=""75%""></img></td>
    <td width=300></td>
  </tr>
</table>
  ",,,,,,,,,,,,,,,,,,,,,,,,,,,,
150,0,,html-keyboard-response,150,358039,0.0-4.23-3.23,4ofs3372rz3,2022-09-19 16:45:01.026,62e1581acad06eee3b6509dc,3,65,53,30,15,23,male,,,"<p style=""font-size:50px"">You win!
+10 points this round!</p>",,,,,,,,,,,,,,,,,,,,,,,,,,,,
151,0,,html-keyboard-response,151,358549,0.0-4.23-4.23,4ofs3372rz3,2022-09-19 16:45:01.026,62e1581acad06eee3b6509dc,3,65,53,30,15,23,male,,,,,,1.0,learning,23.0,Xnc,,black,,bolts,,,,Xnc,black,bolts,,0.0,0.0,1,left,507.7000000179,10.0,1.0,1.0,,,
152,0,,call-function,152,358553,0.0-5.0,4ofs3372rz3,2022-09-19 16:45:01.026,62e1581acad06eee3b6509dc,3,65,53,30,15,23,male,,,,,,,,,,,,,,,,,,,,,,,,,,,,,,,
153,0,,image-keyboard-response,153,362368,0.0-6.0-0.0,4ofs3372rz3,2022-09-19 16:45:01.026,62e1581acad06eee3b6509dc,3,65,53,30,15,23,male,3814.099999994,,static/images/instructions_CB_3/Slide20.png,39.0,,,,,,,,,,,,,,,,,,,,,,,,,,,
154,0,,image-keyboard-response,154,372843,0.0-6.1-0.1,4ofs3372rz3,2022-09-19 16:45:01.026,62e1581acad06eee3b6509dc,3,65,53,30,15,23,male,10474.5,,static/images/instructions_CB_3/Slide21.png,37.0,,,,,,,,,,,,,,,,,,,,,,,,,,,
155,0,,image-keyboard-response,155,373331,0.0-6.2-0.2,4ofs3372rz3,2022-09-19 16:45:01.026,62e1581acad06eee3b6509dc,3,65,53,30,15,23,male,486.8000000119,,static/images/instructions_CB_3/Slide20.png,39.0,,,,,,,,,,,,,,,,,,,,,,,,,,,
156,0,,image-keyboard-response,156,374337,0.0-6.3-0.3,4ofs3372rz3,2022-09-19 16:45:01.026,62e1581acad06eee3b6509dc,3,65,53,30,15,23,male,1005.3000000119,,static/images/instructions_CB_3/Slide21.png,39.0,,,,,,,,,,,,,,,,,,,,,,,,,,,
157,0,,image-keyboard-response,157,400539,0.0-6.4-0.4,4ofs3372rz3,2022-09-19 16:45:01.026,62e1581acad06eee3b6509dc,3,65,53,30,15,23,male,26200.5,,static/images/instructions_CB_3/Slide22.png,39.0,,,,,,,,,,,,,,,,,,,,,,,,,,,
158,0,,image-keyboard-response,158,401918,0.0-6.5-0.5,4ofs3372rz3,2022-09-19 16:45:01.026,62e1581acad06eee3b6509dc,3,65,53,30,15,23,male,1378.099999994,,static/images/instructions_CB_3/Slide23.png,37.0,,,,,,,,,,,,,,,,,,,,,,,,,,,
159,0,,image-keyboard-response,159,402461,0.0-6.6-0.6,4ofs3372rz3,2022-09-19 16:45:01.026,62e1581acad06eee3b6509dc,3,65,53,30,15,23,male,542.8000000119,,static/images/instructions_CB_3/Slide22.png,39.0,,,,,,,,,,,,,,,,,,,,,,,,,,,
160,0,,image-keyboard-response,160,408637,0.0-6.7-0.7,4ofs3372rz3,2022-09-19 16:45:01.026,62e1581acad06eee3b6509dc,3,65,53,30,15,23,male,6175.099999994,,static/images/instructions_CB_3/Slide23.png,37.0,,,,,,,,,,,,,,,,,,,,,,,,,,,
161,0,,image-keyboard-response,161,409454,0.0-6.8-0.8,4ofs3372rz3,2022-09-19 16:45:01.026,62e1581acad06eee3b6509dc,3,65,53,30,15,23,male,816.400000006,,static/images/instructions_CB_3/Slide22.png,39.0,,,,,,,,,,,,,,,,,,,,,,,,,,,
162,0,,image-keyboard-response,162,412268,0.0-6.9-0.9,4ofs3372rz3,2022-09-19 16:45:01.026,62e1581acad06eee3b6509dc,3,65,53,30,15,23,male,2812.599999994,,static/images/instructions_CB_3/Slide23.png,39.0,,,,,,,,,,,,,,,,,,,,,,,,,,,
163,0,,image-keyboard-response,163,415392,0.0-6.10-0.10,4ofs3372rz3,2022-09-19 16:45:01.026,62e1581acad06eee3b6509dc,3,65,53,30,15,23,male,3123.2000000179,,static/images/instructions_CB_3/Slide24.png,39.0,,,,,,,,,,,,,,,,,,,,,,,,,,,
164,0,,html-keyboard-response,164,417683,0.0-7.0-0.0,4ofs3372rz3,2022-09-19 16:45:01.026,62e1581acad06eee3b6509dc,3,65,53,30,15,23,male,2288.900000006,,"
  <table>
  <tr height=300>
    <td width=300 height=300><img src=""static/images/cards/stack_of_black_moons.svg"" width=""175px"" height=""250px""></img></td>
    <td width=300 height=300><img src=""static/images/cards/stack_of_red_moons.svg"" width=""175px"" height=""250px""></img></td>
  </tr>
  <tr height=200>
    <td width=300><img src=""static/images/keys/w.svg"" width=""35%"" height=""75%""></img></td>
    <td width=300><img src=""static/images/keys/o.svg"" width=""35%"" height=""75%""></img></td>
  </tr>
</table>
  ",87.0,1.0,,,,,,,,,,,,,,,,,,,,,,,,,,
165,0,,html-keyboard-response,165,419984,0.0-7.0-1.0,4ofs3372rz3,2022-09-19 16:45:01.026,62e1581acad06eee3b6509dc,3,65,53,30,15,23,male,1788.900000006,,"
  <table>
  <tr height=300>
    <td width=300 height=300><img src=""static/images/cards/back_of_black_moons.svg"" width=""175px"" height=""250px""></img></td>
    <td width=300 height=300><img src=""static/images/cards/back_of_black_moons.svg"" width=""175px"" height=""250px""></img></td>
  </tr>
  <tr height=200>
    <td width=300><img src=""static/images/keys/z.svg"" width=""35%"" height=""75%""></img></td>
    <td width=300><img src=""static/images/keys/m.svg"" width=""35%"" height=""75%""></img></td>
  </tr>
</table>
  ",90.0,1.0,,,,,,,,,,,,,,,,,,,,,,,,,,
166,0,,html-keyboard-response,166,421492,0.0-7.0-2.0,4ofs3372rz3,2022-09-19 16:45:01.026,62e1581acad06eee3b6509dc,3,65,53,30,15,23,male,,,"
  <table>
  <tr height=300>
    <td width=300 height=300><img src=""static/images/cards/3_of_black_moons.svg"" width=""175px"" height=""250px""></img></td>
    <td width=300 height=300><img src=""static/images/cards/back_of_black_moons.svg"" width=""175px"" height=""250px""></img></td>
  </tr>
  <tr height=200>
    <td width=300><img src=""static/images/keys/z.svg"" width=""35%"" height=""75%""></img></td>
    <td width=300><img src=""static/images/keys/m.svg"" width=""35%"" height=""75%""></img></td>
  </tr>
</table>
  ",,,,,,,,,,,,,,,,,,,,,,,,,,,,
167,0,,html-keyboard-response,167,423000,0.0-7.0-3.0,4ofs3372rz3,2022-09-19 16:45:01.026,62e1581acad06eee3b6509dc,3,65,53,30,15,23,male,,,"<p style=""font-size:50px"">You Lose!
No points this round.</p>",,,,,,,,,,,,,,,,,,,,,,,,,,,,
168,0,,html-keyboard-response,168,423510,0.0-7.0-4.0,4ofs3372rz3,2022-09-19 16:45:01.026,62e1581acad06eee3b6509dc,3,65,53,30,15,23,male,,,,,,1.0,choice,0.0,A,B,black,red,moons,moons,A,B,A,black,moons,2288.900000006,1.0,1.0,NA,left,1788.900000006,3.0,0.0,0.0,,,
169,0,,html-keyboard-response,169,427510,0.0-7.1-0.1,4ofs3372rz3,2022-09-19 16:45:01.026,62e1581acad06eee3b6509dc,3,65,53,30,15,23,male,3999.599999994,,"
  <table>
  <tr height=300>
    <td width=300 height=300><img src=""static/images/cards/stack_of_black_stars.svg"" width=""175px"" height=""250px""></img></td>
    <td width=300 height=300><img src=""static/images/cards/stack_of_red_stars.svg"" width=""175px"" height=""250px""></img></td>
  </tr>
  <tr height=200>
    <td width=300><img src=""static/images/keys/w.svg"" width=""35%"" height=""75%""></img></td>
    <td width=300><img src=""static/images/keys/o.svg"" width=""35%"" height=""75%""></img></td>
  </tr>
</table>
  ",87.0,1.0,,,,,,,,,,,,,,,,,,,,,,,,,,
170,0,,html-keyboard-response,170,429084,0.0-7.1-1.1,4ofs3372rz3,2022-09-19 16:45:01.026,62e1581acad06eee3b6509dc,3,65,53,30,15,23,male,1069.3999999762,,"
  <table>
  <tr height=300>
    <td width=300 height=300><img src=""static/images/cards/back_of_black_stars.svg"" width=""175px"" height=""250px""></img></td>
    <td width=300 height=300><img src=""static/images/cards/back_of_black_stars.svg"" width=""175px"" height=""250px""></img></td>
  </tr>
  <tr height=200>
    <td width=300><img src=""static/images/keys/z.svg"" width=""35%"" height=""75%""></img></td>
    <td width=300><img src=""static/images/keys/m.svg"" width=""35%"" height=""75%""></img></td>
  </tr>
</table>
  ",77.0,1.0,,,,,,,,,,,,,,,,,,,,,,,,,,
171,0,,html-keyboard-response,171,430600,0.0-7.1-2.1,4ofs3372rz3,2022-09-19 16:45:01.026,62e1581acad06eee3b6509dc,3,65,53,30,15,23,male,,,"
  <table>
  <tr height=300>
    <td width=300 height=300><img src=""static/images/cards/back_of_black_stars.svg"" width=""175px"" height=""250px""></img></td>
    <td width=300 height=300><img src=""static/images/cards/8_of_black_stars.svg"" width=""175px"" height=""250px""></img></td>
  </tr>
  <tr height=200>
    <td width=300><img src=""static/images/keys/z.svg"" width=""35%"" height=""75%""></img></td>
    <td width=300><img src=""static/images/keys/m.svg"" width=""35%"" height=""75%""></img></td>
  </tr>
</table>
  ",,,,,,,,,,,,,,,,,,,,,,,,,,,,
172,0,,html-keyboard-response,172,432118,0.0-7.1-3.1,4ofs3372rz3,2022-09-19 16:45:01.026,62e1581acad06eee3b6509dc,3,65,53,30,15,23,male,,,"<p style=""font-size:50px"">You win!
+10 points this round!</p>",,,,,,,,,,,,,,,,,,,,,,,,,,,,
173,0,,html-keyboard-response,173,432631,0.0-7.1-4.1,4ofs3372rz3,2022-09-19 16:45:01.026,62e1581acad06eee3b6509dc,3,65,53,30,15,23,male,,,,,,1.0,choice,1.0,C,D,black,red,stars,stars,C,D,C,black,stars,3999.599999994,1.0,0.0,NA,right,1069.3999999762,8.0,1.0,1.0,,,
174,0,,html-keyboard-response,174,434230,0.0-7.2-0.2,4ofs3372rz3,2022-09-19 16:45:01.026,62e1581acad06eee3b6509dc,3,65,53,30,15,23,male,1597.1999999881,,"
  <table>
  <tr height=300>
    <td width=300 height=300><img src=""static/images/cards/stack_of_black_moons.svg"" width=""175px"" height=""250px""></img></td>
    <td width=300 height=300><img src=""static/images/cards/stack_of_red_stars.svg"" width=""175px"" height=""250px""></img></td>
  </tr>
  <tr height=200>
    <td width=300><img src=""static/images/keys/w.svg"" width=""35%"" height=""75%""></img></td>
    <td width=300><img src=""static/images/keys/o.svg"" width=""35%"" height=""75%""></img></td>
  </tr>
</table>
  ",87.0,1.0,,,,,,,,,,,,,,,,,,,,,,,,,,
175,0,,html-keyboard-response,175,435485,0.0-7.2-1.2,4ofs3372rz3,2022-09-19 16:45:01.026,62e1581acad06eee3b6509dc,3,65,53,30,15,23,male,747.3000000119,,"
  <table>
  <tr height=300>
    <td width=300 height=300><img src=""static/images/cards/back_of_black_moons.svg"" width=""175px"" height=""250px""></img></td>
    <td width=300 height=300><img src=""static/images/cards/back_of_black_moons.svg"" width=""175px"" height=""250px""></img></td>
  </tr>
  <tr height=200>
    <td width=300><img src=""static/images/keys/z.svg"" width=""35%"" height=""75%""></img></td>
    <td width=300><img src=""static/images/keys/m.svg"" width=""35%"" height=""75%""></img></td>
  </tr>
</table>
  ",90.0,1.0,,,,,,,,,,,,,,,,,,,,,,,,,,
176,0,,html-keyboard-response,176,437001,0.0-7.2-2.2,4ofs3372rz3,2022-09-19 16:45:01.026,62e1581acad06eee3b6509dc,3,65,53,30,15,23,male,,,"
  <table>
  <tr height=300>
    <td width=300 height=300><img src=""static/images/cards/8_of_black_moons.svg"" width=""175px"" height=""250px""></img></td>
    <td width=300 height=300><img src=""static/images/cards/back_of_black_moons.svg"" width=""175px"" height=""250px""></img></td>
  </tr>
  <tr height=200>
    <td width=300><img src=""static/images/keys/z.svg"" width=""35%"" height=""75%""></img></td>
    <td width=300><img src=""static/images/keys/m.svg"" width=""35%"" height=""75%""></img></td>
  </tr>
</table>
  ",,,,,,,,,,,,,,,,,,,,,,,,,,,,
177,0,,html-keyboard-response,177,438520,0.0-7.2-3.2,4ofs3372rz3,2022-09-19 16:45:01.026,62e1581acad06eee3b6509dc,3,65,53,30,15,23,male,,,"<p style=""font-size:50px"">You win!
+10 points this round!</p>",,,,,,,,,,,,,,,,,,,,,,,,,,,,
178,0,,html-keyboard-response,178,439031,0.0-7.2-4.2,4ofs3372rz3,2022-09-19 16:45:01.026,62e1581acad06eee3b6509dc,3,65,53,30,15,23,male,,,,,,1.0,choice,2.0,A,D,black,red,moons,stars,A,D,A,black,moons,1597.1999999881,1.0,1.0,NA,left,747.3000000119,8.0,1.0,1.0,,,
179,0,,html-keyboard-response,179,442129,0.0-7.3-0.3,4ofs3372rz3,2022-09-19 16:45:01.026,62e1581acad06eee3b6509dc,3,65,53,30,15,23,male,3096.5,,"
  <table>
  <tr height=300>
    <td width=300 height=300><img src=""static/images/cards/stack_of_red_stars.svg"" width=""175px"" height=""250px""></img></td>
    <td width=300 height=300><img src=""static/images/cards/stack_of_red_moons.svg"" width=""175px"" height=""250px""></img></td>
  </tr>
  <tr height=200>
    <td width=300><img src=""static/images/keys/w.svg"" width=""35%"" height=""75%""></img></td>
    <td width=300><img src=""static/images/keys/o.svg"" width=""35%"" height=""75%""></img></td>
  </tr>
</table>
  ",79.0,1.0,,,,,,,,,,,,,,,,,,,,,,,,,,
180,0,,html-keyboard-response,180,443450,0.0-7.3-1.3,4ofs3372rz3,2022-09-19 16:45:01.026,62e1581acad06eee3b6509dc,3,65,53,30,15,23,male,810.5,,"
  <table>
  <tr height=300>
    <td width=300 height=300><img src=""static/images/cards/back_of_red_moons.svg"" width=""175px"" height=""250px""></img></td>
    <td width=300 height=300><img src=""static/images/cards/back_of_red_moons.svg"" width=""175px"" height=""250px""></img></td>
  </tr>
  <tr height=200>
    <td width=300><img src=""static/images/keys/z.svg"" width=""35%"" height=""75%""></img></td>
    <td width=300></td>
  </tr>
</table>
  ",90.0,1.0,,,,,,,,,,,,,,,,,,,,,,,,,,
181,0,,html-keyboard-response,181,444960,0.0-7.3-2.3,4ofs3372rz3,2022-09-19 16:45:01.026,62e1581acad06eee3b6509dc,3,65,53,30,15,23,male,,,"
  <table>
  <tr height=300>
    <td width=300 height=300><img src=""static/images/cards/4_of_red_moons.svg"" width=""175px"" height=""250px""></img></td>
    <td width=300 height=300><img src=""static/images/cards/back_of_red_moons.svg"" width=""175px"" height=""250px""></img></td>
  </tr>
  <tr height=200>
    <td width=300><img src=""static/images/keys/z.svg"" width=""35%"" height=""75%""></img></td>
    <td width=300></td>
  </tr>
</table>
  ",,,,,,,,,,,,,,,,,,,,,,,,,,,,
182,0,,html-keyboard-response,182,446473,0.0-7.3-3.3,4ofs3372rz3,2022-09-19 16:45:01.026,62e1581acad06eee3b6509dc,3,65,53,30,15,23,male,,,"<p style=""font-size:50px"">You Lose!
No points this round.</p>",,,,,,,,,,,,,,,,,,,,,,,,,,,,
183,0,,html-keyboard-response,183,446989,0.0-7.3-4.3,4ofs3372rz3,2022-09-19 16:45:01.026,62e1581acad06eee3b6509dc,3,65,53,30,15,23,male,,,,,,1.0,choice,3.0,B,D,red,red,stars,moons,D,B,B,red,moons,3096.5,0.0,1.0,1,left,810.5,4.0,0.0,0.0,,,
184,0,,html-keyboard-response,184,448525,0.0-7.4-0.4,4ofs3372rz3,2022-09-19 16:45:01.026,62e1581acad06eee3b6509dc,3,65,53,30,15,23,male,1534.6999999881,,"
  <table>
  <tr height=300>
    <td width=300 height=300><img src=""static/images/cards/stack_of_red_bolts.svg"" width=""175px"" height=""250px""></img></td>
    <td width=300 height=300><img src=""static/images/cards/stack_of_red_moons.svg"" width=""175px"" height=""250px""></img></td>
  </tr>
  <tr height=200>
    <td width=300><img src=""static/images/keys/w.svg"" width=""35%"" height=""75%""></img></td>
    <td width=300><img src=""static/images/keys/o.svg"" width=""35%"" height=""75%""></img></td>
  </tr>
</table>
  ",87.0,1.0,,,,,,,,,,,,,,,,,,,,,,,,,,
185,0,,html-keyboard-response,185,450084,0.0-7.4-1.4,4ofs3372rz3,2022-09-19 16:45:01.026,62e1581acad06eee3b6509dc,3,65,53,30,15,23,male,1043.0,,"
  <table>
  <tr height=300>
    <td width=300 height=300><img src=""static/images/cards/back_of_red_bolts.svg"" width=""175px"" height=""250px""></img></td>
    <td width=300 height=300><img src=""static/images/cards/back_of_red_bolts.svg"" width=""175px"" height=""250px""></img></td>
  </tr>
  <tr height=200>
    <td width=300><img src=""static/images/keys/z.svg"" width=""35%"" height=""75%""></img></td>
    <td width=300><img src=""static/images/keys/m.svg"" width=""35%"" height=""75%""></img></td>
  </tr>
</table>
  ",90.0,1.0,,,,,,,,,,,,,,,,,,,,,,,,,,
186,0,,html-keyboard-response,186,451598,0.0-7.4-2.4,4ofs3372rz3,2022-09-19 16:45:01.026,62e1581acad06eee3b6509dc,3,65,53,30,15,23,male,,,"
  <table>
  <tr height=300>
    <td width=300 height=300><img src=""static/images/cards/10_of_red_bolts.svg"" width=""175px"" height=""250px""></img></td>
    <td width=300 height=300><img src=""static/images/cards/back_of_red_bolts.svg"" width=""175px"" height=""250px""></img></td>
  </tr>
  <tr height=200>
    <td width=300><img src=""static/images/keys/z.svg"" width=""35%"" height=""75%""></img></td>
    <td width=300><img src=""static/images/keys/m.svg"" width=""35%"" height=""75%""></img></td>
  </tr>
</table>
  ",,,,,,,,,,,,,,,,,,,,,,,,,,,,
187,0,,html-keyboard-response,187,453124,0.0-7.4-3.4,4ofs3372rz3,2022-09-19 16:45:01.026,62e1581acad06eee3b6509dc,3,65,53,30,15,23,male,,,"<p style=""font-size:50px"">You win!
+10 points this round!</p>",,,,,,,,,,,,,,,,,,,,,,,,,,,,
188,0,,html-keyboard-response,188,453638,0.0-7.4-4.4,4ofs3372rz3,2022-09-19 16:45:01.026,62e1581acad06eee3b6509dc,3,65,53,30,15,23,male,,,,,,1.0,choice,4.0,B,Xc,red,red,bolts,moons,Xc,B,Xc,red,bolts,1534.6999999881,1.0,0.0,NA,left,1043.0,10.0,1.0,1.0,,,
189,0,,html-keyboard-response,189,455772,0.0-7.5-0.5,4ofs3372rz3,2022-09-19 16:45:01.026,62e1581acad06eee3b6509dc,3,65,53,30,15,23,male,2132.6999999881,,"
  <table>
  <tr height=300>
    <td width=300 height=300><img src=""static/images/cards/stack_of_red_stars.svg"" width=""175px"" height=""250px""></img></td>
    <td width=300 height=300><img src=""static/images/cards/stack_of_red_moons.svg"" width=""175px"" height=""250px""></img></td>
  </tr>
  <tr height=200>
    <td width=300><img src=""static/images/keys/w.svg"" width=""35%"" height=""75%""></img></td>
    <td width=300><img src=""static/images/keys/o.svg"" width=""35%"" height=""75%""></img></td>
  </tr>
</table>
  ",79.0,1.0,,,,,,,,,,,,,,,,,,,,,,,,,,
190,0,,html-keyboard-response,190,457003,0.0-7.5-1.5,4ofs3372rz3,2022-09-19 16:45:01.026,62e1581acad06eee3b6509dc,3,65,53,30,15,23,male,714.7000000179,,"
  <table>
  <tr height=300>
    <td width=300 height=300><img src=""static/images/cards/back_of_red_moons.svg"" width=""175px"" height=""250px""></img></td>
    <td width=300 height=300><img src=""static/images/cards/back_of_red_moons.svg"" width=""175px"" height=""250px""></img></td>
  </tr>
  <tr height=200>
    <td width=300></td>
    <td width=300><img src=""static/images/keys/m.svg"" width=""35%"" height=""75%""></img></td>
  </tr>
</table>
  ",77.0,1.0,,,,,,,,,,,,,,,,,,,,,,,,,,
191,0,,html-keyboard-response,191,458514,0.0-7.5-2.5,4ofs3372rz3,2022-09-19 16:45:01.026,62e1581acad06eee3b6509dc,3,65,53,30,15,23,male,,,"
  <table>
  <tr height=300>
    <td width=300 height=300><img src=""static/images/cards/back_of_red_moons.svg"" width=""175px"" height=""250px""></img></td>
    <td width=300 height=300><img src=""static/images/cards/6_of_red_moons.svg"" width=""175px"" height=""250px""></img></td>
  </tr>
  <tr height=200>
    <td width=300></td>
    <td width=300><img src=""static/images/keys/m.svg"" width=""35%"" height=""75%""></img></td>
  </tr>
</table>
  ",,,,,,,,,,,,,,,,,,,,,,,,,,,,
192,0,,html-keyboard-response,192,460036,0.0-7.5-3.5,4ofs3372rz3,2022-09-19 16:45:01.026,62e1581acad06eee3b6509dc,3,65,53,30,15,23,male,,,"<p style=""font-size:50px"">You win!
+10 points this round!</p>",,,,,,,,,,,,,,,,,,,,,,,,,,,,
193,0,,html-keyboard-response,193,460553,0.0-7.5-4.5,4ofs3372rz3,2022-09-19 16:45:01.026,62e1581acad06eee3b6509dc,3,65,53,30,15,23,male,,,,,,1.0,choice,5.0,B,D,red,red,stars,moons,D,B,B,red,moons,2132.6999999881,0.0,1.0,0,right,714.7000000179,6.0,1.0,1.0,,,
194,0,,html-keyboard-response,194,462153,0.0-7.6-0.6,4ofs3372rz3,2022-09-19 16:45:01.026,62e1581acad06eee3b6509dc,3,65,53,30,15,23,male,1598.1999999881,,"
  <table>
  <tr height=300>
    <td width=300 height=300><img src=""static/images/cards/stack_of_black_moons.svg"" width=""175px"" height=""250px""></img></td>
    <td width=300 height=300><img src=""static/images/cards/stack_of_black_stars.svg"" width=""175px"" height=""250px""></img></td>
  </tr>
  <tr height=200>
    <td width=300><img src=""static/images/keys/w.svg"" width=""35%"" height=""75%""></img></td>
    <td width=300><img src=""static/images/keys/o.svg"" width=""35%"" height=""75%""></img></td>
  </tr>
</table>
  ",87.0,1.0,,,,,,,,,,,,,,,,,,,,,,,,,,
195,0,,html-keyboard-response,195,463403,0.0-7.6-1.6,4ofs3372rz3,2022-09-19 16:45:01.026,62e1581acad06eee3b6509dc,3,65,53,30,15,23,male,741.7000000179,,"
  <table>
  <tr height=300>
    <td width=300 height=300><img src=""static/images/cards/back_of_black_moons.svg"" width=""175px"" height=""250px""></img></td>
    <td width=300 height=300><img src=""static/images/cards/back_of_black_moons.svg"" width=""175px"" height=""250px""></img></td>
  </tr>
  <tr height=200>
    <td width=300><img src=""static/images/keys/z.svg"" width=""35%"" height=""75%""></img></td>
    <td width=300><img src=""static/images/keys/m.svg"" width=""35%"" height=""75%""></img></td>
  </tr>
</table>
  ",90.0,1.0,,,,,,,,,,,,,,,,,,,,,,,,,,
196,0,,html-keyboard-response,196,464910,0.0-7.6-2.6,4ofs3372rz3,2022-09-19 16:45:01.026,62e1581acad06eee3b6509dc,3,65,53,30,15,23,male,,,"
  <table>
  <tr height=300>
    <td width=300 height=300><img src=""static/images/cards/1_of_black_moons.svg"" width=""175px"" height=""250px""></img></td>
    <td width=300 height=300><img src=""static/images/cards/back_of_black_moons.svg"" width=""175px"" height=""250px""></img></td>
  </tr>
  <tr height=200>
    <td width=300><img src=""static/images/keys/z.svg"" width=""35%"" height=""75%""></img></td>
    <td width=300><img src=""static/images/keys/m.svg"" width=""35%"" height=""75%""></img></td>
  </tr>
</table>
  ",,,,,,,,,,,,,,,,,,,,,,,,,,,,
197,0,,html-keyboard-response,197,466432,0.0-7.6-3.6,4ofs3372rz3,2022-09-19 16:45:01.026,62e1581acad06eee3b6509dc,3,65,53,30,15,23,male,,,"<p style=""font-size:50px"">You Lose!
No points this round.</p>",,,,,,,,,,,,,,,,,,,,,,,,,,,,
198,0,,html-keyboard-response,198,466941,0.0-7.6-4.6,4ofs3372rz3,2022-09-19 16:45:01.026,62e1581acad06eee3b6509dc,3,65,53,30,15,23,male,,,,,,1.0,choice,6.0,A,C,black,black,moons,stars,A,C,A,black,moons,1598.1999999881,1.0,1.0,NA,left,741.7000000179,1.0,0.0,0.0,,,
199,0,,html-keyboard-response,199,468652,0.0-7.7-0.7,4ofs3372rz3,2022-09-19 16:45:01.026,62e1581acad06eee3b6509dc,3,65,53,30,15,23,male,1710.1000000238,,"
  <table>
  <tr height=300>
    <td width=300 height=300><img src=""static/images/cards/stack_of_red_moons.svg"" width=""175px"" height=""250px""></img></td>
    <td width=300 height=300><img src=""static/images/cards/stack_of_red_stars.svg"" width=""175px"" height=""250px""></img></td>
  </tr>
  <tr height=200>
    <td width=300><img src=""static/images/keys/w.svg"" width=""35%"" height=""75%""></img></td>
    <td width=300><img src=""static/images/keys/o.svg"" width=""35%"" height=""75%""></img></td>
  </tr>
</table>
  ",87.0,1.0,,,,,,,,,,,,,,,,,,,,,,,,,,
200,0,,html-keyboard-response,200,470179,0.0-7.7-1.7,4ofs3372rz3,2022-09-19 16:45:01.026,62e1581acad06eee3b6509dc,3,65,53,30,15,23,male,1022.1000000238,,"
  <table>
  <tr height=300>
    <td width=300 height=300><img src=""static/images/cards/back_of_red_moons.svg"" width=""175px"" height=""250px""></img></td>
    <td width=300 height=300><img src=""static/images/cards/back_of_red_moons.svg"" width=""175px"" height=""250px""></img></td>
  </tr>
  <tr height=200>
    <td width=300></td>
    <td width=300><img src=""static/images/keys/m.svg"" width=""35%"" height=""75%""></img></td>
  </tr>
</table>
  ",77.0,1.0,,,,,,,,,,,,,,,,,,,,,,,,,,
201,0,,html-keyboard-response,201,471696,0.0-7.7-2.7,4ofs3372rz3,2022-09-19 16:45:01.026,62e1581acad06eee3b6509dc,3,65,53,30,15,23,male,,,"
  <table>
  <tr height=300>
    <td width=300 height=300><img src=""static/images/cards/back_of_red_moons.svg"" width=""175px"" height=""250px""></img></td>
    <td width=300 height=300><img src=""static/images/cards/7_of_red_moons.svg"" width=""175px"" height=""250px""></img></td>
  </tr>
  <tr height=200>
    <td width=300></td>
    <td width=300><img src=""static/images/keys/m.svg"" width=""35%"" height=""75%""></img></td>
  </tr>
</table>
  ",,,,,,,,,,,,,,,,,,,,,,,,,,,,
202,0,,html-keyboard-response,202,473218,0.0-7.7-3.7,4ofs3372rz3,2022-09-19 16:45:01.026,62e1581acad06eee3b6509dc,3,65,53,30,15,23,male,,,"<p style=""font-size:50px"">You win!
+10 points this round!</p>",,,,,,,,,,,,,,,,,,,,,,,,,,,,
203,0,,html-keyboard-response,203,473731,0.0-7.7-4.7,4ofs3372rz3,2022-09-19 16:45:01.026,62e1581acad06eee3b6509dc,3,65,53,30,15,23,male,,,,,,1.0,choice,7.0,B,D,red,red,moons,stars,B,D,B,red,moons,1710.1000000238,0.0,1.0,0,right,1022.1000000238,7.0,1.0,1.0,,,
204,0,,html-keyboard-response,204,475592,0.0-7.8-0.8,4ofs3372rz3,2022-09-19 16:45:01.026,62e1581acad06eee3b6509dc,3,65,53,30,15,23,male,1859.400000006,,"
  <table>
  <tr height=300>
    <td width=300 height=300><img src=""static/images/cards/stack_of_black_moons.svg"" width=""175px"" height=""250px""></img></td>
    <td width=300 height=300><img src=""static/images/cards/stack_of_red_stars.svg"" width=""175px"" height=""250px""></img></td>
  </tr>
  <tr height=200>
    <td width=300><img src=""static/images/keys/w.svg"" width=""35%"" height=""75%""></img></td>
    <td width=300><img src=""static/images/keys/o.svg"" width=""35%"" height=""75%""></img></td>
  </tr>
</table>
  ",87.0,1.0,,,,,,,,,,,,,,,,,,,,,,,,,,
205,0,,html-keyboard-response,205,476797,0.0-7.8-1.8,4ofs3372rz3,2022-09-19 16:45:01.026,62e1581acad06eee3b6509dc,3,65,53,30,15,23,male,695.400000006,,"
  <table>
  <tr height=300>
    <td width=300 height=300><img src=""static/images/cards/back_of_black_moons.svg"" width=""175px"" height=""250px""></img></td>
    <td width=300 height=300><img src=""static/images/cards/back_of_black_moons.svg"" width=""175px"" height=""250px""></img></td>
  </tr>
  <tr height=200>
    <td width=300><img src=""static/images/keys/z.svg"" width=""35%"" height=""75%""></img></td>
    <td width=300><img src=""static/images/keys/m.svg"" width=""35%"" height=""75%""></img></td>
  </tr>
</table>
  ",90.0,1.0,,,,,,,,,,,,,,,,,,,,,,,,,,
206,0,,html-keyboard-response,206,478302,0.0-7.8-2.8,4ofs3372rz3,2022-09-19 16:45:01.026,62e1581acad06eee3b6509dc,3,65,53,30,15,23,male,,,"
  <table>
  <tr height=300>
    <td width=300 height=300><img src=""static/images/cards/8_of_black_moons.svg"" width=""175px"" height=""250px""></img></td>
    <td width=300 height=300><img src=""static/images/cards/back_of_black_moons.svg"" width=""175px"" height=""250px""></img></td>
  </tr>
  <tr height=200>
    <td width=300><img src=""static/images/keys/z.svg"" width=""35%"" height=""75%""></img></td>
    <td width=300><img src=""static/images/keys/m.svg"" width=""35%"" height=""75%""></img></td>
  </tr>
</table>
  ",,,,,,,,,,,,,,,,,,,,,,,,,,,,
207,0,,html-keyboard-response,207,479833,0.0-7.8-3.8,4ofs3372rz3,2022-09-19 16:45:01.026,62e1581acad06eee3b6509dc,3,65,53,30,15,23,male,,,"<p style=""font-size:50px"">You win!
+10 points this round!</p>",,,,,,,,,,,,,,,,,,,,,,,,,,,,
208,0,,html-keyboard-response,208,480340,0.0-7.8-4.8,4ofs3372rz3,2022-09-19 16:45:01.026,62e1581acad06eee3b6509dc,3,65,53,30,15,23,male,,,,,,1.0,choice,8.0,A,D,black,red,moons,stars,A,D,A,black,moons,1859.400000006,1.0,1.0,NA,left,695.400000006,8.0,1.0,1.0,,,
209,0,,html-keyboard-response,209,482814,0.0-7.9-0.9,4ofs3372rz3,2022-09-19 16:45:01.026,62e1581acad06eee3b6509dc,3,65,53,30,15,23,male,2472.8000000119,,"
  <table>
  <tr height=300>
    <td width=300 height=300><img src=""static/images/cards/stack_of_red_moons.svg"" width=""175px"" height=""250px""></img></td>
    <td width=300 height=300><img src=""static/images/cards/stack_of_black_moons.svg"" width=""175px"" height=""250px""></img></td>
  </tr>
  <tr height=200>
    <td width=300><img src=""static/images/keys/w.svg"" width=""35%"" height=""75%""></img></td>
    <td width=300><img src=""static/images/keys/o.svg"" width=""35%"" height=""75%""></img></td>
  </tr>
</table>
  ",79.0,1.0,,,,,,,,,,,,,,,,,,,,,,,,,,
210,0,,html-keyboard-response,210,483815,0.0-7.9-1.9,4ofs3372rz3,2022-09-19 16:45:01.026,62e1581acad06eee3b6509dc,3,65,53,30,15,23,male,491.900000006,,"
  <table>
  <tr height=300>
    <td width=300 height=300><img src=""static/images/cards/back_of_black_moons.svg"" width=""175px"" height=""250px""></img></td>
    <td width=300 height=300><img src=""static/images/cards/back_of_black_moons.svg"" width=""175px"" height=""250px""></img></td>
  </tr>
  <tr height=200>
    <td width=300><img src=""static/images/keys/z.svg"" width=""35%"" height=""75%""></img></td>
    <td width=300><img src=""static/images/keys/m.svg"" width=""35%"" height=""75%""></img></td>
  </tr>
</table>
  ",77.0,1.0,,,,,,,,,,,,,,,,,,,,,,,,,,
211,0,,html-keyboard-response,211,485328,0.0-7.9-2.9,4ofs3372rz3,2022-09-19 16:45:01.026,62e1581acad06eee3b6509dc,3,65,53,30,15,23,male,,,"
  <table>
  <tr height=300>
    <td width=300 height=300><img src=""static/images/cards/back_of_black_moons.svg"" width=""175px"" height=""250px""></img></td>
    <td width=300 height=300><img src=""static/images/cards/3_of_black_moons.svg"" width=""175px"" height=""250px""></img></td>
  </tr>
  <tr height=200>
    <td width=300><img src=""static/images/keys/z.svg"" width=""35%"" height=""75%""></img></td>
    <td width=300><img src=""static/images/keys/m.svg"" width=""35%"" height=""75%""></img></td>
  </tr>
</table>
  ",,,,,,,,,,,,,,,,,,,,,,,,,,,,
212,0,,html-keyboard-response,212,486839,0.0-7.9-3.9,4ofs3372rz3,2022-09-19 16:45:01.026,62e1581acad06eee3b6509dc,3,65,53,30,15,23,male,,,"<p style=""font-size:50px"">You Lose!
No points this round.</p>",,,,,,,,,,,,,,,,,,,,,,,,,,,,
213,0,,html-keyboard-response,213,487353,0.0-7.9-4.9,4ofs3372rz3,2022-09-19 16:45:01.026,62e1581acad06eee3b6509dc,3,65,53,30,15,23,male,,,,,,1.0,choice,9.0,A,B,red,black,moons,moons,B,A,A,black,moons,2472.8000000119,1.0,1.0,NA,right,491.900000006,3.0,0.0,0.0,,,
214,0,,html-keyboard-response,214,488412,0.0-7.10-0.10,4ofs3372rz3,2022-09-19 16:45:01.026,62e1581acad06eee3b6509dc,3,65,53,30,15,23,male,1057.7999999821,,"
  <table>
  <tr height=300>
    <td width=300 height=300><img src=""static/images/cards/stack_of_black_moons.svg"" width=""175px"" height=""250px""></img></td>
    <td width=300 height=300><img src=""static/images/cards/stack_of_red_stars.svg"" width=""175px"" height=""250px""></img></td>
  </tr>
  <tr height=200>
    <td width=300><img src=""static/images/keys/w.svg"" width=""35%"" height=""75%""></img></td>
    <td width=300><img src=""static/images/keys/o.svg"" width=""35%"" height=""75%""></img></td>
  </tr>
</table>
  ",87.0,1.0,,,,,,,,,,,,,,,,,,,,,,,,,,
215,0,,html-keyboard-response,215,489180,0.0-7.10-1.10,4ofs3372rz3,2022-09-19 16:45:01.026,62e1581acad06eee3b6509dc,3,65,53,30,15,23,male,263.0,,"
  <table>
  <tr height=300>
    <td width=300 height=300><img src=""static/images/cards/back_of_black_moons.svg"" width=""175px"" height=""250px""></img></td>
    <td width=300 height=300><img src=""static/images/cards/back_of_black_moons.svg"" width=""175px"" height=""250px""></img></td>
  </tr>
  <tr height=200>
    <td width=300><img src=""static/images/keys/z.svg"" width=""35%"" height=""75%""></img></td>
    <td width=300><img src=""static/images/keys/m.svg"" width=""35%"" height=""75%""></img></td>
  </tr>
</table>
  ",90.0,1.0,,,,,,,,,,,,,,,,,,,,,,,,,,
216,0,,html-keyboard-response,216,490686,0.0-7.10-2.10,4ofs3372rz3,2022-09-19 16:45:01.026,62e1581acad06eee3b6509dc,3,65,53,30,15,23,male,,,"
  <table>
  <tr height=300>
    <td width=300 height=300><img src=""static/images/cards/6_of_black_moons.svg"" width=""175px"" height=""250px""></img></td>
    <td width=300 height=300><img src=""static/images/cards/back_of_black_moons.svg"" width=""175px"" height=""250px""></img></td>
  </tr>
  <tr height=200>
    <td width=300><img src=""static/images/keys/z.svg"" width=""35%"" height=""75%""></img></td>
    <td width=300><img src=""static/images/keys/m.svg"" width=""35%"" height=""75%""></img></td>
  </tr>
</table>
  ",,,,,,,,,,,,,,,,,,,,,,,,,,,,
217,0,,html-keyboard-response,217,492197,0.0-7.10-3.10,4ofs3372rz3,2022-09-19 16:45:01.026,62e1581acad06eee3b6509dc,3,65,53,30,15,23,male,,,"<p style=""font-size:50px"">You win!
+10 points this round!</p>",,,,,,,,,,,,,,,,,,,,,,,,,,,,
218,0,,html-keyboard-response,218,492710,0.0-7.10-4.10,4ofs3372rz3,2022-09-19 16:45:01.026,62e1581acad06eee3b6509dc,3,65,53,30,15,23,male,,,,,,1.0,choice,10.0,A,D,black,red,moons,stars,A,D,A,black,moons,1057.7999999821,1.0,1.0,NA,left,263.0,6.0,1.0,1.0,,,
219,0,,html-keyboard-response,219,493657,0.0-7.11-0.11,4ofs3372rz3,2022-09-19 16:45:01.026,62e1581acad06eee3b6509dc,3,65,53,30,15,23,male,945.6999999881,,"
  <table>
  <tr height=300>
    <td width=300 height=300><img src=""static/images/cards/stack_of_black_moons.svg"" width=""175px"" height=""250px""></img></td>
    <td width=300 height=300><img src=""static/images/cards/stack_of_red_stars.svg"" width=""175px"" height=""250px""></img></td>
  </tr>
  <tr height=200>
    <td width=300><img src=""static/images/keys/w.svg"" width=""35%"" height=""75%""></img></td>
    <td width=300><img src=""static/images/keys/o.svg"" width=""35%"" height=""75%""></img></td>
  </tr>
</table>
  ",87.0,1.0,,,,,,,,,,,,,,,,,,,,,,,,,,
220,0,,html-keyboard-response,220,494409,0.0-7.11-1.11,4ofs3372rz3,2022-09-19 16:45:01.026,62e1581acad06eee3b6509dc,3,65,53,30,15,23,male,244.1000000238,,"
  <table>
  <tr height=300>
    <td width=300 height=300><img src=""static/images/cards/back_of_black_moons.svg"" width=""175px"" height=""250px""></img></td>
    <td width=300 height=300><img src=""static/images/cards/back_of_black_moons.svg"" width=""175px"" height=""250px""></img></td>
  </tr>
  <tr height=200>
    <td width=300><img src=""static/images/keys/z.svg"" width=""35%"" height=""75%""></img></td>
    <td width=300><img src=""static/images/keys/m.svg"" width=""35%"" height=""75%""></img></td>
  </tr>
</table>
  ",77.0,1.0,,,,,,,,,,,,,,,,,,,,,,,,,,
221,0,,html-keyboard-response,221,495926,0.0-7.11-2.11,4ofs3372rz3,2022-09-19 16:45:01.026,62e1581acad06eee3b6509dc,3,65,53,30,15,23,male,,,"
  <table>
  <tr height=300>
    <td width=300 height=300><img src=""static/images/cards/back_of_black_moons.svg"" width=""175px"" height=""250px""></img></td>
    <td width=300 height=300><img src=""static/images/cards/6_of_black_moons.svg"" width=""175px"" height=""250px""></img></td>
  </tr>
  <tr height=200>
    <td width=300><img src=""static/images/keys/z.svg"" width=""35%"" height=""75%""></img></td>
    <td width=300><img src=""static/images/keys/m.svg"" width=""35%"" height=""75%""></img></td>
  </tr>
</table>
  ",,,,,,,,,,,,,,,,,,,,,,,,,,,,
222,0,,html-keyboard-response,222,497440,0.0-7.11-3.11,4ofs3372rz3,2022-09-19 16:45:01.026,62e1581acad06eee3b6509dc,3,65,53,30,15,23,male,,,"<p style=""font-size:50px"">You win!
+10 points this round!</p>",,,,,,,,,,,,,,,,,,,,,,,,,,,,
223,0,,html-keyboard-response,223,497962,0.0-7.11-4.11,4ofs3372rz3,2022-09-19 16:45:01.026,62e1581acad06eee3b6509dc,3,65,53,30,15,23,male,,,,,,1.0,choice,11.0,A,D,black,red,moons,stars,A,D,A,black,moons,945.6999999881,1.0,1.0,NA,right,244.1000000238,6.0,1.0,1.0,,,
224,0,,html-keyboard-response,224,499784,0.0-7.12-0.12,4ofs3372rz3,2022-09-19 16:45:01.026,62e1581acad06eee3b6509dc,3,65,53,30,15,23,male,1820.599999994,,"
  <table>
  <tr height=300>
    <td width=300 height=300><img src=""static/images/cards/stack_of_red_moons.svg"" width=""175px"" height=""250px""></img></td>
    <td width=300 height=300><img src=""static/images/cards/stack_of_black_moons.svg"" width=""175px"" height=""250px""></img></td>
  </tr>
  <tr height=200>
    <td width=300><img src=""static/images/keys/w.svg"" width=""35%"" height=""75%""></img></td>
    <td width=300><img src=""static/images/keys/o.svg"" width=""35%"" height=""75%""></img></td>
  </tr>
</table>
  ",79.0,1.0,,,,,,,,,,,,,,,,,,,,,,,,,,
225,0,,html-keyboard-response,225,500525,0.0-7.12-1.12,4ofs3372rz3,2022-09-19 16:45:01.026,62e1581acad06eee3b6509dc,3,65,53,30,15,23,male,224.7999999821,,"
  <table>
  <tr height=300>
    <td width=300 height=300><img src=""static/images/cards/back_of_black_moons.svg"" width=""175px"" height=""250px""></img></td>
    <td width=300 height=300><img src=""static/images/cards/back_of_black_moons.svg"" width=""175px"" height=""250px""></img></td>
  </tr>
  <tr height=200>
    <td width=300><img src=""static/images/keys/z.svg"" width=""35%"" height=""75%""></img></td>
    <td width=300><img src=""static/images/keys/m.svg"" width=""35%"" height=""75%""></img></td>
  </tr>
</table>
  ",77.0,1.0,,,,,,,,,,,,,,,,,,,,,,,,,,
226,0,,html-keyboard-response,226,502041,0.0-7.12-2.12,4ofs3372rz3,2022-09-19 16:45:01.026,62e1581acad06eee3b6509dc,3,65,53,30,15,23,male,,,"
  <table>
  <tr height=300>
    <td width=300 height=300><img src=""static/images/cards/back_of_black_moons.svg"" width=""175px"" height=""250px""></img></td>
    <td width=300 height=300><img src=""static/images/cards/7_of_black_moons.svg"" width=""175px"" height=""250px""></img></td>
  </tr>
  <tr height=200>
    <td width=300><img src=""static/images/keys/z.svg"" width=""35%"" height=""75%""></img></td>
    <td width=300><img src=""static/images/keys/m.svg"" width=""35%"" height=""75%""></img></td>
  </tr>
</table>
  ",,,,,,,,,,,,,,,,,,,,,,,,,,,,
227,0,,html-keyboard-response,227,503552,0.0-7.12-3.12,4ofs3372rz3,2022-09-19 16:45:01.026,62e1581acad06eee3b6509dc,3,65,53,30,15,23,male,,,"<p style=""font-size:50px"">You win!
+10 points this round!</p>",,,,,,,,,,,,,,,,,,,,,,,,,,,,
228,0,,html-keyboard-response,228,504064,0.0-7.12-4.12,4ofs3372rz3,2022-09-19 16:45:01.026,62e1581acad06eee3b6509dc,3,65,53,30,15,23,male,,,,,,1.0,choice,12.0,A,B,red,black,moons,moons,B,A,A,black,moons,1820.599999994,1.0,1.0,NA,right,224.7999999821,7.0,1.0,1.0,,,
229,0,,html-keyboard-response,229,505283,0.0-7.13-0.13,4ofs3372rz3,2022-09-19 16:45:01.026,62e1581acad06eee3b6509dc,3,65,53,30,15,23,male,1216.900000006,,"
  <table>
  <tr height=300>
    <td width=300 height=300><img src=""static/images/cards/stack_of_black_moons.svg"" width=""175px"" height=""250px""></img></td>
    <td width=300 height=300><img src=""static/images/cards/stack_of_black_stars.svg"" width=""175px"" height=""250px""></img></td>
  </tr>
  <tr height=200>
    <td width=300><img src=""static/images/keys/w.svg"" width=""35%"" height=""75%""></img></td>
    <td width=300><img src=""static/images/keys/o.svg"" width=""35%"" height=""75%""></img></td>
  </tr>
</table>
  ",87.0,1.0,,,,,,,,,,,,,,,,,,,,,,,,,,
230,0,,html-keyboard-response,230,507038,0.0-7.13-1.13,4ofs3372rz3,2022-09-19 16:45:01.026,62e1581acad06eee3b6509dc,3,65,53,30,15,23,male,1238.5,,"
  <table>
  <tr height=300>
    <td width=300 height=300><img src=""static/images/cards/back_of_black_moons.svg"" width=""175px"" height=""250px""></img></td>
    <td width=300 height=300><img src=""static/images/cards/back_of_black_moons.svg"" width=""175px"" height=""250px""></img></td>
  </tr>
  <tr height=200>
    <td width=300><img src=""static/images/keys/z.svg"" width=""35%"" height=""75%""></img></td>
    <td width=300><img src=""static/images/keys/m.svg"" width=""35%"" height=""75%""></img></td>
  </tr>
</table>
  ",77.0,1.0,,,,,,,,,,,,,,,,,,,,,,,,,,
231,0,,html-keyboard-response,231,508552,0.0-7.13-2.13,4ofs3372rz3,2022-09-19 16:45:01.026,62e1581acad06eee3b6509dc,3,65,53,30,15,23,male,,,"
  <table>
  <tr height=300>
    <td width=300 height=300><img src=""static/images/cards/back_of_black_moons.svg"" width=""175px"" height=""250px""></img></td>
    <td width=300 height=300><img src=""static/images/cards/6_of_black_moons.svg"" width=""175px"" height=""250px""></img></td>
  </tr>
  <tr height=200>
    <td width=300><img src=""static/images/keys/z.svg"" width=""35%"" height=""75%""></img></td>
    <td width=300><img src=""static/images/keys/m.svg"" width=""35%"" height=""75%""></img></td>
  </tr>
</table>
  ",,,,,,,,,,,,,,,,,,,,,,,,,,,,
232,0,,html-keyboard-response,232,510068,0.0-7.13-3.13,4ofs3372rz3,2022-09-19 16:45:01.026,62e1581acad06eee3b6509dc,3,65,53,30,15,23,male,,,"<p style=""font-size:50px"">You win!
+10 points this round!</p>",,,,,,,,,,,,,,,,,,,,,,,,,,,,
233,0,,html-keyboard-response,233,510582,0.0-7.13-4.13,4ofs3372rz3,2022-09-19 16:45:01.026,62e1581acad06eee3b6509dc,3,65,53,30,15,23,male,,,,,,1.0,choice,13.0,A,C,black,black,moons,stars,A,C,A,black,moons,1216.900000006,1.0,1.0,NA,right,1238.5,6.0,1.0,1.0,,,
234,0,,html-keyboard-response,234,512236,0.0-7.14-0.14,4ofs3372rz3,2022-09-19 16:45:01.026,62e1581acad06eee3b6509dc,3,65,53,30,15,23,male,1652.5,,"
  <table>
  <tr height=300>
    <td width=300 height=300><img src=""static/images/cards/stack_of_red_stars.svg"" width=""175px"" height=""250px""></img></td>
    <td width=300 height=300><img src=""static/images/cards/stack_of_red_moons.svg"" width=""175px"" height=""250px""></img></td>
  </tr>
  <tr height=200>
    <td width=300><img src=""static/images/keys/w.svg"" width=""35%"" height=""75%""></img></td>
    <td width=300><img src=""static/images/keys/o.svg"" width=""35%"" height=""75%""></img></td>
  </tr>
</table>
  ",79.0,1.0,,,,,,,,,,,,,,,,,,,,,,,,,,
235,0,,html-keyboard-response,235,513029,0.0-7.14-1.14,4ofs3372rz3,2022-09-19 16:45:01.026,62e1581acad06eee3b6509dc,3,65,53,30,15,23,male,287.3000000119,,"
  <table>
  <tr height=300>
    <td width=300 height=300><img src=""static/images/cards/back_of_red_moons.svg"" width=""175px"" height=""250px""></img></td>
    <td width=300 height=300><img src=""static/images/cards/back_of_red_moons.svg"" width=""175px"" height=""250px""></img></td>
  </tr>
  <tr height=200>
    <td width=300><img src=""static/images/keys/z.svg"" width=""35%"" height=""75%""></img></td>
    <td width=300></td>
  </tr>
</table>
  ",90.0,1.0,,,,,,,,,,,,,,,,,,,,,,,,,,
236,0,,html-keyboard-response,236,514544,0.0-7.14-2.14,4ofs3372rz3,2022-09-19 16:45:01.026,62e1581acad06eee3b6509dc,3,65,53,30,15,23,male,,,"
  <table>
  <tr height=300>
    <td width=300 height=300><img src=""static/images/cards/7_of_red_moons.svg"" width=""175px"" height=""250px""></img></td>
    <td width=300 height=300><img src=""static/images/cards/back_of_red_moons.svg"" width=""175px"" height=""250px""></img></td>
  </tr>
  <tr height=200>
    <td width=300><img src=""static/images/keys/z.svg"" width=""35%"" height=""75%""></img></td>
    <td width=300></td>
  </tr>
</table>
  ",,,,,,,,,,,,,,,,,,,,,,,,,,,,
237,0,,html-keyboard-response,237,516058,0.0-7.14-3.14,4ofs3372rz3,2022-09-19 16:45:01.026,62e1581acad06eee3b6509dc,3,65,53,30,15,23,male,,,"<p style=""font-size:50px"">You win!
+10 points this round!</p>",,,,,,,,,,,,,,,,,,,,,,,,,,,,
238,0,,html-keyboard-response,238,516573,0.0-7.14-4.14,4ofs3372rz3,2022-09-19 16:45:01.026,62e1581acad06eee3b6509dc,3,65,53,30,15,23,male,,,,,,1.0,choice,14.0,B,D,red,red,stars,moons,D,B,B,red,moons,1652.5,0.0,1.0,1,left,287.3000000119,7.0,1.0,1.0,,,
239,0,,html-keyboard-response,239,517640,0.0-7.15-0.15,4ofs3372rz3,2022-09-19 16:45:01.026,62e1581acad06eee3b6509dc,3,65,53,30,15,23,male,1066.1000000238,,"
  <table>
  <tr height=300>
    <td width=300 height=300><img src=""static/images/cards/stack_of_red_stars.svg"" width=""175px"" height=""250px""></img></td>
    <td width=300 height=300><img src=""static/images/cards/stack_of_red_moons.svg"" width=""175px"" height=""250px""></img></td>
  </tr>
  <tr height=200>
    <td width=300><img src=""static/images/keys/w.svg"" width=""35%"" height=""75%""></img></td>
    <td width=300><img src=""static/images/keys/o.svg"" width=""35%"" height=""75%""></img></td>
  </tr>
</table>
  ",79.0,1.0,,,,,,,,,,,,,,,,,,,,,,,,,,
240,0,,html-keyboard-response,240,518761,0.0-7.15-1.15,4ofs3372rz3,2022-09-19 16:45:01.026,62e1581acad06eee3b6509dc,3,65,53,30,15,23,male,608.8999999762,,"
  <table>
  <tr height=300>
    <td width=300 height=300><img src=""static/images/cards/back_of_red_moons.svg"" width=""175px"" height=""250px""></img></td>
    <td width=300 height=300><img src=""static/images/cards/back_of_red_moons.svg"" width=""175px"" height=""250px""></img></td>
  </tr>
  <tr height=200>
    <td width=300></td>
    <td width=300><img src=""static/images/keys/m.svg"" width=""35%"" height=""75%""></img></td>
  </tr>
</table>
