,index,success,trial_type,trial_index,time_elapsed,internal_node_id,subject,date,prol_id,ctbl,sense_of_control_A,sense_of_control_B,sense_of_control_C,sense_of_control_D,age,gender,rt,url,stimulus,key_press,npress,is_data_trial,phase,trial,deck1,deck2,col1,col2,sym1,sym2,deck_l,deck_r,chosen_deck,chosen_col,chosen_sym,deck_rt,choose_choice,mutual_info,hidden_key,chosen_card,card_rt,player_num,win_card,outcome,mock_rating,response,responses
0,0,1.0,fullscreen,0,4851,0.0-0.0,2d1dtlyr6d8,2022-09-19 17:09:06.278,5e89ba09ec9b3364b1fc0bd1,2,63,60,39,43,43,male,,,,,,,,,,,,,,,,,,,,,,,,,,,,,,,
1,0,,external-html,1,13644,0.0-1.0,2d1dtlyr6d8,2022-09-19 17:09:06.278,5e89ba09ec9b3364b1fc0bd1,2,63,60,39,43,43,male,8668.5,static/js/sub/consent.html,,,,,,,,,,,,,,,,,,,,,,,,,,,,,
2,0,,call-function,2,13645,0.0-2.0,2d1dtlyr6d8,2022-09-19 17:09:06.278,5e89ba09ec9b3364b1fc0bd1,2,63,60,39,43,43,male,,,,,,,,,,,,,,,,,,,,,,,,,,,,,,,
3,0,,image-keyboard-response,3,18506,0.0-3.0-0.0,2d1dtlyr6d8,2022-09-19 17:09:06.278,5e89ba09ec9b3364b1fc0bd1,2,63,60,39,43,43,male,4858.799999997,,static/images/instructions_CB_2/Slide1.png,39.0,,,,,,,,,,,,,,,,,,,,,,,,,,,
4,0,,image-keyboard-response,4,28633,0.0-3.1-0.1,2d1dtlyr6d8,2022-09-19 17:09:06.278,5e89ba09ec9b3364b1fc0bd1,2,63,60,39,43,43,male,10125.700000003,,static/images/instructions_CB_2/Slide2.png,39.0,,,,,,,,,,,,,,,,,,,,,,,,,,,
5,0,,image-keyboard-response,5,33007,0.0-3.2-0.2,2d1dtlyr6d8,2022-09-19 17:09:06.278,5e89ba09ec9b3364b1fc0bd1,2,63,60,39,43,43,male,4373.8999999911,,static/images/instructions_CB_2/Slide3.png,39.0,,,,,,,,,,,,,,,,,,,,,,,,,,,
6,0,,image-keyboard-response,6,37945,0.0-3.3-0.3,2d1dtlyr6d8,2022-09-19 17:09:06.278,5e89ba09ec9b3364b1fc0bd1,2,63,60,39,43,43,male,4936.599999994,,static/images/instructions_CB_2/Slide4.png,39.0,,,,,,,,,,,,,,,,,,,,,,,,,,,
7,0,,image-keyboard-response,7,44088,0.0-3.4-0.4,2d1dtlyr6d8,2022-09-19 17:09:06.278,5e89ba09ec9b3364b1fc0bd1,2,63,60,39,43,43,male,6142.299999997,,static/images/instructions_CB_2/Slide5.png,39.0,,,,,,,,,,,,,,,,,,,,,,,,,,,
8,0,,image-keyboard-response,8,47081,0.0-3.5-0.5,2d1dtlyr6d8,2022-09-19 17:09:06.278,5e89ba09ec9b3364b1fc0bd1,2,63,60,39,43,43,male,2992.1000000089,,static/images/instructions_CB_2/Slide6.png,39.0,,,,,,,,,,,,,,,,,,,,,,,,,,,
9,0,,image-keyboard-response,9,51120,0.0-3.6-0.6,2d1dtlyr6d8,2022-09-19 17:09:06.278,5e89ba09ec9b3364b1fc0bd1,2,63,60,39,43,43,male,4039.0,,static/images/instructions_CB_2/Slide7.png,39.0,,,,,,,,,,,,,,,,,,,,,,,,,,,
10,0,,image-keyboard-response,10,75804,0.0-3.7-0.7,2d1dtlyr6d8,2022-09-19 17:09:06.278,5e89ba09ec9b3364b1fc0bd1,2,63,60,39,43,43,male,24682.3999999911,,static/images/instructions_CB_2/Slide8.png,39.0,,,,,,,,,,,,,,,,,,,,,,,,,,,
11,0,,image-keyboard-response,11,80634,0.0-3.8-0.8,2d1dtlyr6d8,2022-09-19 17:09:06.278,5e89ba09ec9b3364b1fc0bd1,2,63,60,39,43,43,male,4829.0,,static/images/instructions_CB_2/Slide9.png,39.0,,,,,,,,,,,,,,,,,,,,,,,,,,,
12,0,,image-keyboard-response,12,90027,0.0-3.9-0.9,2d1dtlyr6d8,2022-09-19 17:09:06.278,5e89ba09ec9b3364b1fc0bd1,2,63,60,39,43,43,male,9392.599999994,,static/images/instructions_CB_2/Slide10.png,39.0,,,,,,,,,,,,,,,,,,,,,,,,,,,
13,0,,image-keyboard-response,13,94889,0.0-3.10-0.10,2d1dtlyr6d8,2022-09-19 17:09:06.278,5e89ba09ec9b3364b1fc0bd1,2,63,60,39,43,43,male,4860.599999994,,static/images/instructions_CB_2/Slide11.png,39.0,,,,,,,,,,,,,,,,,,,,,,,,,,,
14,0,,image-keyboard-response,14,113234,0.0-3.11-0.11,2d1dtlyr6d8,2022-09-19 17:09:06.278,5e89ba09ec9b3364b1fc0bd1,2,63,60,39,43,43,male,18344.400000006,,static/images/instructions_CB_2/Slide12.png,39.0,,,,,,,,,,,,,,,,,,,,,,,,,,,
15,0,,image-keyboard-response,15,129908,0.0-3.12-0.12,2d1dtlyr6d8,2022-09-19 17:09:06.278,5e89ba09ec9b3364b1fc0bd1,2,63,60,39,43,43,male,16672.6000000089,,static/images/instructions_CB_2/Slide13.png,39.0,,,,,,,,,,,,,,,,,,,,,,,,,,,
16,0,,image-keyboard-response,16,134507,0.0-3.13-0.13,2d1dtlyr6d8,2022-09-19 17:09:06.278,5e89ba09ec9b3364b1fc0bd1,2,63,60,39,43,43,male,4598.0,,static/images/instructions_CB_2/Slide14.png,39.0,,,,,,,,,,,,,,,,,,,,,,,,,,,
17,0,,image-keyboard-response,17,140932,0.0-3.14-0.14,2d1dtlyr6d8,2022-09-19 17:09:06.278,5e89ba09ec9b3364b1fc0bd1,2,63,60,39,43,43,male,6424.200000003,,static/images/instructions_CB_2/Slide15.png,39.0,,,,,,,,,,,,,,,,,,,,,,,,,,,
18,0,,image-keyboard-response,18,149627,0.0-3.15-0.15,2d1dtlyr6d8,2022-09-19 17:09:06.278,5e89ba09ec9b3364b1fc0bd1,2,63,60,39,43,43,male,8694.700000003,,static/images/instructions_CB_2/Slide16.png,39.0,,,,,,,,,,,,,,,,,,,,,,,,,,,
19,0,,image-keyboard-response,19,160468,0.0-3.16-0.16,2d1dtlyr6d8,2022-09-19 17:09:06.278,5e89ba09ec9b3364b1fc0bd1,2,63,60,39,43,43,male,10839.299999997,,static/images/instructions_CB_2/Slide17.png,39.0,,,,,,,,,,,,,,,,,,,,,,,,,,,
20,0,,image-keyboard-response,20,163059,0.0-3.17-0.17,2d1dtlyr6d8,2022-09-19 17:09:06.278,5e89ba09ec9b3364b1fc0bd1,2,63,60,39,43,43,male,2590.3999999911,,static/images/instructions_CB_2/Slide18.png,39.0,,,,,,,,,,,,,,,,,,,,,,,,,,,
21,0,,image-keyboard-response,21,174548,0.0-3.18-0.18,2d1dtlyr6d8,2022-09-19 17:09:06.278,5e89ba09ec9b3364b1fc0bd1,2,63,60,39,43,43,male,11488.6000000089,,static/images/instructions_CB_2/Slide19.png,39.0,,,,,,,,,,,,,,,,,,,,,,,,,,,
22,0,,html-keyboard-response,22,176051,0.0-4.0-0.0,2d1dtlyr6d8,2022-09-19 17:09:06.278,5e89ba09ec9b3364b1fc0bd1,2,63,60,39,43,43,male,,,"<img src=""static/images/cards/stack_of_black_stars.svg"" width=""175px"" height=""250px""></img>",,,,,,,,,,,,,,,,,,,,,,,,,,,,
23,0,,html-keyboard-response,23,177140,0.0-4.0-1.0,2d1dtlyr6d8,2022-09-19 17:09:06.278,5e89ba09ec9b3364b1fc0bd1,2,63,60,39,43,43,male,587.400000006,,"
  <table>
  <tr height=300>
    <td width=300 height=300><img src=""static/images/cards/back_of_black_stars.svg"" width=""175px"" height=""250px""></img></td>
    <td width=300 height=300><img src=""static/images/cards/back_of_black_stars.svg"" width=""175px"" height=""250px""></img></td>
  </tr>
  <tr height=200>
    <td width=300><img src=""static/images/keys/z.svg"" width=""35%"" height=""75%""></img></td>
    <td width=300><img src=""static/images/keys/m.svg"" width=""35%"" height=""75%""></img></td>
  </tr>
</table>
  ",90.0,1.0,,,,,,,,,,,,,,,,,,,,,,,,,,
24,0,,html-keyboard-response,24,178647,0.0-4.0-2.0,2d1dtlyr6d8,2022-09-19 17:09:06.278,5e89ba09ec9b3364b1fc0bd1,2,63,60,39,43,43,male,,,"
  <table>
  <tr height=300>
    <td width=300 height=300><img src=""static/images/cards/7_of_black_stars.svg"" width=""175px"" height=""250px""></img></td>
    <td width=300 height=300><img src=""static/images/cards/back_of_black_stars.svg"" width=""175px"" height=""250px""></img></td>
  </tr>
  <tr height=200>
    <td width=300><img src=""static/images/keys/z.svg"" width=""35%"" height=""75%""></img></td>
    <td width=300><img src=""static/images/keys/m.svg"" width=""35%"" height=""75%""></img></td>
  </tr>
</table>
  ",,,,,,,,,,,,,,,,,,,,,,,,,,,,
25,0,,html-keyboard-response,25,180158,0.0-4.0-3.0,2d1dtlyr6d8,2022-09-19 17:09:06.278,5e89ba09ec9b3364b1fc0bd1,2,63,60,39,43,43,male,,,"<p style=""font-size:50px"">You win!
+10 points this round!</p>",,,,,,,,,,,,,,,,,,,,,,,,,,,,
26,0,,html-keyboard-response,26,180669,0.0-4.0-4.0,2d1dtlyr6d8,2022-09-19 17:09:06.278,5e89ba09ec9b3364b1fc0bd1,2,63,60,39,43,43,male,,,,,,1.0,learning,0.0,A,,black,,stars,,,,A,black,stars,,1.0,1.0,NA,left,587.400000006,7.0,1.0,1.0,,,
27,0,,html-keyboard-response,27,182170,0.0-4.1-0.1,2d1dtlyr6d8,2022-09-19 17:09:06.278,5e89ba09ec9b3364b1fc0bd1,2,63,60,39,43,43,male,,,"<img src=""static/images/cards/stack_of_red_stars.svg"" width=""175px"" height=""250px""></img>",,,,,,,,,,,,,,,,,,,,,,,,,,,,
28,0,,html-keyboard-response,28,183807,0.0-4.1-1.1,2d1dtlyr6d8,2022-09-19 17:09:06.278,5e89ba09ec9b3364b1fc0bd1,2,63,60,39,43,43,male,1135.599999994,,"
  <table>
  <tr height=300>
    <td width=300 height=300><img src=""static/images/cards/back_of_red_stars.svg"" width=""175px"" height=""250px""></img></td>
    <td width=300 height=300><img src=""static/images/cards/back_of_red_stars.svg"" width=""175px"" height=""250px""></img></td>
  </tr>
  <tr height=200>
    <td width=300><img src=""static/images/keys/z.svg"" width=""35%"" height=""75%""></img></td>
    <td width=300></td>
  </tr>
</table>
  ",90.0,1.0,,,,,,,,,,,,,,,,,,,,,,,,,,
29,0,,html-keyboard-response,29,185308,0.0-4.1-2.1,2d1dtlyr6d8,2022-09-19 17:09:06.278,5e89ba09ec9b3364b1fc0bd1,2,63,60,39,43,43,male,,,"
  <table>
  <tr height=300>
    <td width=300 height=300><img src=""static/images/cards/6_of_red_stars.svg"" width=""175px"" height=""250px""></img></td>
    <td width=300 height=300><img src=""static/images/cards/back_of_red_stars.svg"" width=""175px"" height=""250px""></img></td>
  </tr>
  <tr height=200>
    <td width=300><img src=""static/images/keys/z.svg"" width=""35%"" height=""75%""></img></td>
    <td width=300></td>
  </tr>
</table>
  ",,,,,,,,,,,,,,,,,,,,,,,,,,,,
30,0,,html-keyboard-response,30,186816,0.0-4.1-3.1,2d1dtlyr6d8,2022-09-19 17:09:06.278,5e89ba09ec9b3364b1fc0bd1,2,63,60,39,43,43,male,,,"<p style=""font-size:50px"">You win!
+10 points this round!</p>",,,,,,,,,,,,,,,,,,,,,,,,,,,,
31,0,,html-keyboard-response,31,187327,0.0-4.1-4.1,2d1dtlyr6d8,2022-09-19 17:09:06.278,5e89ba09ec9b3364b1fc0bd1,2,63,60,39,43,43,male,,,,,,1.0,learning,1.0,B,,red,,stars,,,,B,red,stars,,0.0,1.0,1,left,1135.599999994,6.0,1.0,1.0,,,
32,0,,html-keyboard-response,32,188829,0.0-4.2-0.2,2d1dtlyr6d8,2022-09-19 17:09:06.278,5e89ba09ec9b3364b1fc0bd1,2,63,60,39,43,43,male,,,"<img src=""static/images/cards/stack_of_black_moons.svg"" width=""175px"" height=""250px""></img>",,,,,,,,,,,,,,,,,,,,,,,,,,,,
33,0,,html-keyboard-response,33,190412,0.0-4.2-1.2,2d1dtlyr6d8,2022-09-19 17:09:06.278,5e89ba09ec9b3364b1fc0bd1,2,63,60,39,43,43,male,1076.799999997,,"
  <table>
  <tr height=300>
    <td width=300 height=300><img src=""static/images/cards/back_of_black_moons.svg"" width=""175px"" height=""250px""></img></td>
    <td width=300 height=300><img src=""static/images/cards/back_of_black_moons.svg"" width=""175px"" height=""250px""></img></td>
  </tr>
  <tr height=200>
    <td width=300><img src=""static/images/keys/z.svg"" width=""35%"" height=""75%""></img></td>
    <td width=300><img src=""static/images/keys/m.svg"" width=""35%"" height=""75%""></img></td>
  </tr>
</table>
  ",77.0,1.0,,,,,,,,,,,,,,,,,,,,,,,,,,
34,0,,html-keyboard-response,34,191919,0.0-4.2-2.2,2d1dtlyr6d8,2022-09-19 17:09:06.278,5e89ba09ec9b3364b1fc0bd1,2,63,60,39,43,43,male,,,"
  <table>
  <tr height=300>
    <td width=300 height=300><img src=""static/images/cards/back_of_black_moons.svg"" width=""175px"" height=""250px""></img></td>
    <td width=300 height=300><img src=""static/images/cards/3_of_black_moons.svg"" width=""175px"" height=""250px""></img></td>
  </tr>
  <tr height=200>
    <td width=300><img src=""static/images/keys/z.svg"" width=""35%"" height=""75%""></img></td>
    <td width=300><img src=""static/images/keys/m.svg"" width=""35%"" height=""75%""></img></td>
  </tr>
</table>
  ",,,,,,,,,,,,,,,,,,,,,,,,,,,,
35,0,,html-keyboard-response,35,193424,0.0-4.2-3.2,2d1dtlyr6d8,2022-09-19 17:09:06.278,5e89ba09ec9b3364b1fc0bd1,2,63,60,39,43,43,male,,,"<p style=""font-size:50px"">You Lose!
No points this round.</p>",,,,,,,,,,,,,,,,,,,,,,,,,,,,
36,0,,html-keyboard-response,36,193944,0.0-4.2-4.2,2d1dtlyr6d8,2022-09-19 17:09:06.278,5e89ba09ec9b3364b1fc0bd1,2,63,60,39,43,43,male,,,,,,1.0,learning,2.0,C,,black,,moons,,,,C,black,moons,,1.0,0.0,NA,right,1076.799999997,3.0,0.0,0.0,,,
37,0,,html-keyboard-response,37,195446,0.0-4.3-0.3,2d1dtlyr6d8,2022-09-19 17:09:06.278,5e89ba09ec9b3364b1fc0bd1,2,63,60,39,43,43,male,,,"<img src=""static/images/cards/stack_of_red_moons.svg"" width=""175px"" height=""250px""></img>",,,,,,,,,,,,,,,,,,,,,,,,,,,,
38,0,,html-keyboard-response,38,196924,0.0-4.3-1.3,2d1dtlyr6d8,2022-09-19 17:09:06.278,5e89ba09ec9b3364b1fc0bd1,2,63,60,39,43,43,male,974.599999994,,"
  <table>
  <tr height=300>
    <td width=300 height=300><img src=""static/images/cards/back_of_red_moons.svg"" width=""175px"" height=""250px""></img></td>
    <td width=300 height=300><img src=""static/images/cards/back_of_red_moons.svg"" width=""175px"" height=""250px""></img></td>
  </tr>
  <tr height=200>
    <td width=300></td>
    <td width=300><img src=""static/images/keys/m.svg"" width=""35%"" height=""75%""></img></td>
  </tr>
</table>
  ",77.0,1.0,,,,,,,,,,,,,,,,,,,,,,,,,,
39,0,,html-keyboard-response,39,198430,0.0-4.3-2.3,2d1dtlyr6d8,2022-09-19 17:09:06.278,5e89ba09ec9b3364b1fc0bd1,2,63,60,39,43,43,male,,,"
  <table>
  <tr height=300>
    <td width=300 height=300><img src=""static/images/cards/back_of_red_moons.svg"" width=""175px"" height=""250px""></img></td>
    <td width=300 height=300><img src=""static/images/cards/4_of_red_moons.svg"" width=""175px"" height=""250px""></img></td>
  </tr>
  <tr height=200>
    <td width=300></td>
    <td width=300><img src=""static/images/keys/m.svg"" width=""35%"" height=""75%""></img></td>
  </tr>
</table>
  ",,,,,,,,,,,,,,,,,,,,,,,,,,,,
40,0,,html-keyboard-response,40,199939,0.0-4.3-3.3,2d1dtlyr6d8,2022-09-19 17:09:06.278,5e89ba09ec9b3364b1fc0bd1,2,63,60,39,43,43,male,,,"<p style=""font-size:50px"">You win!
+10 points this round!</p>",,,,,,,,,,,,,,,,,,,,,,,,,,,,
41,0,,html-keyboard-response,41,200449,0.0-4.3-4.3,2d1dtlyr6d8,2022-09-19 17:09:06.278,5e89ba09ec9b3364b1fc0bd1,2,63,60,39,43,43,male,,,,,,1.0,learning,3.0,D,,red,,moons,,,,D,red,moons,,0.0,0.0,0,right,974.599999994,4.0,0.0,1.0,,,
42,0,,html-keyboard-response,42,201951,0.0-4.4-0.4,2d1dtlyr6d8,2022-09-19 17:09:06.278,5e89ba09ec9b3364b1fc0bd1,2,63,60,39,43,43,male,,,"<img src=""static/images/cards/stack_of_red_bolts.svg"" width=""175px"" height=""250px""></img>",,,,,,,,,,,,,,,,,,,,,,,,,,,,
43,0,,html-keyboard-response,43,203476,0.0-4.4-1.4,2d1dtlyr6d8,2022-09-19 17:09:06.278,5e89ba09ec9b3364b1fc0bd1,2,63,60,39,43,43,male,1018.599999994,,"
  <table>
  <tr height=300>
    <td width=300 height=300><img src=""static/images/cards/back_of_red_bolts.svg"" width=""175px"" height=""250px""></img></td>
    <td width=300 height=300><img src=""static/images/cards/back_of_red_bolts.svg"" width=""175px"" height=""250px""></img></td>
  </tr>
  <tr height=200>
    <td width=300><img src=""static/images/keys/z.svg"" width=""35%"" height=""75%""></img></td>
    <td width=300><img src=""static/images/keys/m.svg"" width=""35%"" height=""75%""></img></td>
  </tr>
</table>
  ",77.0,1.0,,,,,,,,,,,,,,,,,,,,,,,,,,
44,0,,html-keyboard-response,44,204980,0.0-4.4-2.4,2d1dtlyr6d8,2022-09-19 17:09:06.278,5e89ba09ec9b3364b1fc0bd1,2,63,60,39,43,43,male,,,"
  <table>
  <tr height=300>
    <td width=300 height=300><img src=""static/images/cards/back_of_red_bolts.svg"" width=""175px"" height=""250px""></img></td>
    <td width=300 height=300><img src=""static/images/cards/4_of_red_bolts.svg"" width=""175px"" height=""250px""></img></td>
  </tr>
  <tr height=200>
    <td width=300><img src=""static/images/keys/z.svg"" width=""35%"" height=""75%""></img></td>
    <td width=300><img src=""static/images/keys/m.svg"" width=""35%"" height=""75%""></img></td>
  </tr>
</table>
  ",,,,,,,,,,,,,,,,,,,,,,,,,,,,
45,0,,html-keyboard-response,45,206484,0.0-4.4-3.4,2d1dtlyr6d8,2022-09-19 17:09:06.278,5e89ba09ec9b3364b1fc0bd1,2,63,60,39,43,43,male,,,"<p style=""font-size:50px"">You win!
+10 points this round!</p>",,,,,,,,,,,,,,,,,,,,,,,,,,,,
46,0,,html-keyboard-response,46,206994,0.0-4.4-4.4,2d1dtlyr6d8,2022-09-19 17:09:06.278,5e89ba09ec9b3364b1fc0bd1,2,63,60,39,43,43,male,,,,,,1.0,learning,4.0,Xc,,red,,bolts,,,,Xc,red,bolts,,1.0,0.0,NA,right,1018.599999994,4.0,0.0,1.0,,,
47,0,,html-keyboard-response,47,208495,0.0-4.5-0.5,2d1dtlyr6d8,2022-09-19 17:09:06.278,5e89ba09ec9b3364b1fc0bd1,2,63,60,39,43,43,male,,,"<img src=""static/images/cards/stack_of_black_bolts.svg"" width=""175px"" height=""250px""></img>",,,,,,,,,,,,,,,,,,,,,,,,,,,,
48,0,,html-keyboard-response,48,209805,0.0-4.5-1.5,2d1dtlyr6d8,2022-09-19 17:09:06.278,5e89ba09ec9b3364b1fc0bd1,2,63,60,39,43,43,male,804.0,,"
  <table>
  <tr height=300>
    <td width=300 height=300><img src=""static/images/cards/back_of_black_bolts.svg"" width=""175px"" height=""250px""></img></td>
    <td width=300 height=300><img src=""static/images/cards/back_of_black_bolts.svg"" width=""175px"" height=""250px""></img></td>
  </tr>
  <tr height=200>
    <td width=300><img src=""static/images/keys/z.svg"" width=""35%"" height=""75%""></img></td>
    <td width=300></td>
  </tr>
</table>
  ",90.0,1.0,,,,,,,,,,,,,,,,,,,,,,,,,,
49,0,,html-keyboard-response,49,211311,0.0-4.5-2.5,2d1dtlyr6d8,2022-09-19 17:09:06.278,5e89ba09ec9b3364b1fc0bd1,2,63,60,39,43,43,male,,,"
  <table>
  <tr height=300>
    <td width=300 height=300><img src=""static/images/cards/9_of_black_bolts.svg"" width=""175px"" height=""250px""></img></td>
    <td width=300 height=300><img src=""static/images/cards/back_of_black_bolts.svg"" width=""175px"" height=""250px""></img></td>
  </tr>
  <tr height=200>
    <td width=300><img src=""static/images/keys/z.svg"" width=""35%"" height=""75%""></img></td>
    <td width=300></td>
  </tr>
</table>
  ",,,,,,,,,,,,,,,,,,,,,,,,,,,,
50,0,,html-keyboard-response,50,212822,0.0-4.5-3.5,2d1dtlyr6d8,2022-09-19 17:09:06.278,5e89ba09ec9b3364b1fc0bd1,2,63,60,39,43,43,male,,,"<p style=""font-size:50px"">You win!
+10 points this round!</p>",,,,,,,,,,,,,,,,,,,,,,,,,,,,
51,0,,html-keyboard-response,51,213330,0.0-4.5-4.5,2d1dtlyr6d8,2022-09-19 17:09:06.278,5e89ba09ec9b3364b1fc0bd1,2,63,60,39,43,43,male,,,,,,1.0,learning,5.0,Xnc,,black,,bolts,,,,Xnc,black,bolts,,0.0,0.0,1,left,804.0,9.0,1.0,1.0,,,
52,0,,html-keyboard-response,52,214831,0.0-4.6-0.6,2d1dtlyr6d8,2022-09-19 17:09:06.278,5e89ba09ec9b3364b1fc0bd1,2,63,60,39,43,43,male,,,"<img src=""static/images/cards/stack_of_black_stars.svg"" width=""175px"" height=""250px""></img>",,,,,,,,,,,,,,,,,,,,,,,,,,,,
53,0,,html-keyboard-response,53,216535,0.0-4.6-1.6,2d1dtlyr6d8,2022-09-19 17:09:06.278,5e89ba09ec9b3364b1fc0bd1,2,63,60,39,43,43,male,1199.0,,"
  <table>
  <tr height=300>
    <td width=300 height=300><img src=""static/images/cards/back_of_black_stars.svg"" width=""175px"" height=""250px""></img></td>
    <td width=300 height=300><img src=""static/images/cards/back_of_black_stars.svg"" width=""175px"" height=""250px""></img></td>
  </tr>
  <tr height=200>
    <td width=300><img src=""static/images/keys/z.svg"" width=""35%"" height=""75%""></img></td>
    <td width=300><img src=""static/images/keys/m.svg"" width=""35%"" height=""75%""></img></td>
  </tr>
</table>
  ",90.0,1.0,,,,,,,,,,,,,,,,,,,,,,,,,,
54,0,,html-keyboard-response,54,218040,0.0-4.6-2.6,2d1dtlyr6d8,2022-09-19 17:09:06.278,5e89ba09ec9b3364b1fc0bd1,2,63,60,39,43,43,male,,,"
  <table>
  <tr height=300>
    <td width=300 height=300><img src=""static/images/cards/3_of_black_stars.svg"" width=""175px"" height=""250px""></img></td>
    <td width=300 height=300><img src=""static/images/cards/back_of_black_stars.svg"" width=""175px"" height=""250px""></img></td>
  </tr>
  <tr height=200>
    <td width=300><img src=""static/images/keys/z.svg"" width=""35%"" height=""75%""></img></td>
    <td width=300><img src=""static/images/keys/m.svg"" width=""35%"" height=""75%""></img></td>
  </tr>
</table>
  ",,,,,,,,,,,,,,,,,,,,,,,,,,,,
55,0,,html-keyboard-response,55,219550,0.0-4.6-3.6,2d1dtlyr6d8,2022-09-19 17:09:06.278,5e89ba09ec9b3364b1fc0bd1,2,63,60,39,43,43,male,,,"<p style=""font-size:50px"">You Lose!
No points this round.</p>",,,,,,,,,,,,,,,,,,,,,,,,,,,,
56,0,,html-keyboard-response,56,220058,0.0-4.6-4.6,2d1dtlyr6d8,2022-09-19 17:09:06.278,5e89ba09ec9b3364b1fc0bd1,2,63,60,39,43,43,male,,,,,,1.0,learning,6.0,A,,black,,stars,,,,A,black,stars,,1.0,1.0,NA,left,1199.0,3.0,0.0,0.0,,,
57,0,,html-keyboard-response,57,221562,0.0-4.7-0.7,2d1dtlyr6d8,2022-09-19 17:09:06.278,5e89ba09ec9b3364b1fc0bd1,2,63,60,39,43,43,male,,,"<img src=""static/images/cards/stack_of_red_stars.svg"" width=""175px"" height=""250px""></img>",,,,,,,,,,,,,,,,,,,,,,,,,,,,
58,0,,html-keyboard-response,58,223214,0.0-4.7-1.7,2d1dtlyr6d8,2022-09-19 17:09:06.278,5e89ba09ec9b3364b1fc0bd1,2,63,60,39,43,43,male,1145.799999997,,"
  <table>
  <tr height=300>
    <td width=300 height=300><img src=""static/images/cards/back_of_red_stars.svg"" width=""175px"" height=""250px""></img></td>
    <td width=300 height=300><img src=""static/images/cards/back_of_red_stars.svg"" width=""175px"" height=""250px""></img></td>
  </tr>
  <tr height=200>
    <td width=300><img src=""static/images/keys/z.svg"" width=""35%"" height=""75%""></img></td>
    <td width=300></td>
  </tr>
</table>
  ",90.0,1.0,,,,,,,,,,,,,,,,,,,,,,,,,,
59,0,,html-keyboard-response,59,224718,0.0-4.7-2.7,2d1dtlyr6d8,2022-09-19 17:09:06.278,5e89ba09ec9b3364b1fc0bd1,2,63,60,39,43,43,male,,,"
  <table>
  <tr height=300>
    <td width=300 height=300><img src=""static/images/cards/3_of_red_stars.svg"" width=""175px"" height=""250px""></img></td>
    <td width=300 height=300><img src=""static/images/cards/back_of_red_stars.svg"" width=""175px"" height=""250px""></img></td>
  </tr>
  <tr height=200>
    <td width=300><img src=""static/images/keys/z.svg"" width=""35%"" height=""75%""></img></td>
    <td width=300></td>
  </tr>
</table>
  ",,,,,,,,,,,,,,,,,,,,,,,,,,,,
60,0,,html-keyboard-response,60,226224,0.0-4.7-3.7,2d1dtlyr6d8,2022-09-19 17:09:06.278,5e89ba09ec9b3364b1fc0bd1,2,63,60,39,43,43,male,,,"<p style=""font-size:50px"">You Lose!
No points this round.</p>",,,,,,,,,,,,,,,,,,,,,,,,,,,,
61,0,,html-keyboard-response,61,226735,0.0-4.7-4.7,2d1dtlyr6d8,2022-09-19 17:09:06.278,5e89ba09ec9b3364b1fc0bd1,2,63,60,39,43,43,male,,,,,,1.0,learning,7.0,B,,red,,stars,,,,B,red,stars,,0.0,1.0,1,left,1145.799999997,3.0,0.0,0.0,,,
62,0,,html-keyboard-response,62,228236,0.0-4.8-0.8,2d1dtlyr6d8,2022-09-19 17:09:06.278,5e89ba09ec9b3364b1fc0bd1,2,63,60,39,43,43,male,,,"<img src=""static/images/cards/stack_of_black_moons.svg"" width=""175px"" height=""250px""></img>",,,,,,,,,,,,,,,,,,,,,,,,,,,,
63,0,,html-keyboard-response,63,229670,0.0-4.8-1.8,2d1dtlyr6d8,2022-09-19 17:09:06.278,5e89ba09ec9b3364b1fc0bd1,2,63,60,39,43,43,male,927.1000000089,,"
  <table>
  <tr height=300>
    <td width=300 height=300><img src=""static/images/cards/back_of_black_moons.svg"" width=""175px"" height=""250px""></img></td>
    <td width=300 height=300><img src=""static/images/cards/back_of_black_moons.svg"" width=""175px"" height=""250px""></img></td>
  </tr>
  <tr height=200>
    <td width=300><img src=""static/images/keys/z.svg"" width=""35%"" height=""75%""></img></td>
    <td width=300><img src=""static/images/keys/m.svg"" width=""35%"" height=""75%""></img></td>
  </tr>
</table>
  ",77.0,1.0,,,,,,,,,,,,,,,,,,,,,,,,,,
64,0,,html-keyboard-response,64,231171,0.0-4.8-2.8,2d1dtlyr6d8,2022-09-19 17:09:06.278,5e89ba09ec9b3364b1fc0bd1,2,63,60,39,43,43,male,,,"
  <table>
  <tr height=300>
    <td width=300 height=300><img src=""static/images/cards/back_of_black_moons.svg"" width=""175px"" height=""250px""></img></td>
    <td width=300 height=300><img src=""static/images/cards/4_of_black_moons.svg"" width=""175px"" height=""250px""></img></td>
  </tr>
  <tr height=200>
    <td width=300><img src=""static/images/keys/z.svg"" width=""35%"" height=""75%""></img></td>
    <td width=300><img src=""static/images/keys/m.svg"" width=""35%"" height=""75%""></img></td>
  </tr>
</table>
  ",,,,,,,,,,,,,,,,,,,,,,,,,,,,
65,0,,html-keyboard-response,65,232677,0.0-4.8-3.8,2d1dtlyr6d8,2022-09-19 17:09:06.278,5e89ba09ec9b3364b1fc0bd1,2,63,60,39,43,43,male,,,"<p style=""font-size:50px"">You Lose!
No points this round.</p>",,,,,,,,,,,,,,,,,,,,,,,,,,,,
66,0,,html-keyboard-response,66,233185,0.0-4.8-4.8,2d1dtlyr6d8,2022-09-19 17:09:06.278,5e89ba09ec9b3364b1fc0bd1,2,63,60,39,43,43,male,,,,,,1.0,learning,8.0,C,,black,,moons,,,,C,black,moons,,1.0,0.0,NA,right,927.1000000089,4.0,0.0,0.0,,,
67,0,,html-keyboard-response,67,234686,0.0-4.9-0.9,2d1dtlyr6d8,2022-09-19 17:09:06.278,5e89ba09ec9b3364b1fc0bd1,2,63,60,39,43,43,male,,,"<img src=""static/images/cards/stack_of_red_moons.svg"" width=""175px"" height=""250px""></img>",,,,,,,,,,,,,,,,,,,,,,,,,,,,
68,0,,html-keyboard-response,68,235773,0.0-4.9-1.9,2d1dtlyr6d8,2022-09-19 17:09:06.278,5e89ba09ec9b3364b1fc0bd1,2,63,60,39,43,43,male,581.299999997,,"
  <table>
  <tr height=300>
    <td width=300 height=300><img src=""static/images/cards/back_of_red_moons.svg"" width=""175px"" height=""250px""></img></td>
    <td width=300 height=300><img src=""static/images/cards/back_of_red_moons.svg"" width=""175px"" height=""250px""></img></td>
  </tr>
  <tr height=200>
    <td width=300><img src=""static/images/keys/z.svg"" width=""35%"" height=""75%""></img></td>
    <td width=300></td>
  </tr>
</table>
  ",90.0,1.0,,,,,,,,,,,,,,,,,,,,,,,,,,
69,0,,html-keyboard-response,69,237280,0.0-4.9-2.9,2d1dtlyr6d8,2022-09-19 17:09:06.278,5e89ba09ec9b3364b1fc0bd1,2,63,60,39,43,43,male,,,"
  <table>
  <tr height=300>
    <td width=300 height=300><img src=""static/images/cards/2_of_red_moons.svg"" width=""175px"" height=""250px""></img></td>
    <td width=300 height=300><img src=""static/images/cards/back_of_red_moons.svg"" width=""175px"" height=""250px""></img></td>
  </tr>
  <tr height=200>
    <td width=300><img src=""static/images/keys/z.svg"" width=""35%"" height=""75%""></img></td>
    <td width=300></td>
  </tr>
</table>
  ",,,,,,,,,,,,,,,,,,,,,,,,,,,,
70,0,,html-keyboard-response,70,238787,0.0-4.9-3.9,2d1dtlyr6d8,2022-09-19 17:09:06.278,5e89ba09ec9b3364b1fc0bd1,2,63,60,39,43,43,male,,,"<p style=""font-size:50px"">You win!
+10 points this round!</p>",,,,,,,,,,,,,,,,,,,,,,,,,,,,
71,0,,html-keyboard-response,71,239298,0.0-4.9-4.9,2d1dtlyr6d8,2022-09-19 17:09:06.278,5e89ba09ec9b3364b1fc0bd1,2,63,60,39,43,43,male,,,,,,1.0,learning,9.0,D,,red,,moons,,,,D,red,moons,,0.0,0.0,1,left,581.299999997,2.0,0.0,1.0,,,
72,0,,html-keyboard-response,72,240800,0.0-4.10-0.10,2d1dtlyr6d8,2022-09-19 17:09:06.278,5e89ba09ec9b3364b1fc0bd1,2,63,60,39,43,43,male,,,"<img src=""static/images/cards/stack_of_red_bolts.svg"" width=""175px"" height=""250px""></img>",,,,,,,,,,,,,,,,,,,,,,,,,,,,
73,0,,html-keyboard-response,73,242222,0.0-4.10-1.10,2d1dtlyr6d8,2022-09-19 17:09:06.278,5e89ba09ec9b3364b1fc0bd1,2,63,60,39,43,43,male,915.400000006,,"
  <table>
  <tr height=300>
    <td width=300 height=300><img src=""static/images/cards/back_of_red_bolts.svg"" width=""175px"" height=""250px""></img></td>
    <td width=300 height=300><img src=""static/images/cards/back_of_red_bolts.svg"" width=""175px"" height=""250px""></img></td>
  </tr>
  <tr height=200>
    <td width=300><img src=""static/images/keys/z.svg"" width=""35%"" height=""75%""></img></td>
    <td width=300><img src=""static/images/keys/m.svg"" width=""35%"" height=""75%""></img></td>
  </tr>
</table>
  ",90.0,1.0,,,,,,,,,,,,,,,,,,,,,,,,,,
74,0,,html-keyboard-response,74,243726,0.0-4.10-2.10,2d1dtlyr6d8,2022-09-19 17:09:06.278,5e89ba09ec9b3364b1fc0bd1,2,63,60,39,43,43,male,,,"
  <table>
  <tr height=300>
    <td width=300 height=300><img src=""static/images/cards/6_of_red_bolts.svg"" width=""175px"" height=""250px""></img></td>
    <td width=300 height=300><img src=""static/images/cards/back_of_red_bolts.svg"" width=""175px"" height=""250px""></img></td>
  </tr>
  <tr height=200>
    <td width=300><img src=""static/images/keys/z.svg"" width=""35%"" height=""75%""></img></td>
    <td width=300><img src=""static/images/keys/m.svg"" width=""35%"" height=""75%""></img></td>
  </tr>
</table>
  ",,,,,,,,,,,,,,,,,,,,,,,,,,,,
75,0,,html-keyboard-response,75,245232,0.0-4.10-3.10,2d1dtlyr6d8,2022-09-19 17:09:06.278,5e89ba09ec9b3364b1fc0bd1,2,63,60,39,43,43,male,,,"<p style=""font-size:50px"">You win!
+10 points this round!</p>",,,,,,,,,,,,,,,,,,,,,,,,,,,,
76,0,,html-keyboard-response,76,245739,0.0-4.10-4.10,2d1dtlyr6d8,2022-09-19 17:09:06.278,5e89ba09ec9b3364b1fc0bd1,2,63,60,39,43,43,male,,,,,,1.0,learning,10.0,Xc,,red,,bolts,,,,Xc,red,bolts,,1.0,0.0,NA,left,915.400000006,6.0,1.0,1.0,,,
77,0,,html-keyboard-response,77,247240,0.0-4.11-0.11,2d1dtlyr6d8,2022-09-19 17:09:06.278,5e89ba09ec9b3364b1fc0bd1,2,63,60,39,43,43,male,,,"<img src=""static/images/cards/stack_of_black_bolts.svg"" width=""175px"" height=""250px""></img>",,,,,,,,,,,,,,,,,,,,,,,,,,,,
78,0,,html-keyboard-response,78,248438,0.0-4.11-1.11,2d1dtlyr6d8,2022-09-19 17:09:06.278,5e89ba09ec9b3364b1fc0bd1,2,63,60,39,43,43,male,691.5,,"
  <table>
  <tr height=300>
    <td width=300 height=300><img src=""static/images/cards/back_of_black_bolts.svg"" width=""175px"" height=""250px""></img></td>
    <td width=300 height=300><img src=""static/images/cards/back_of_black_bolts.svg"" width=""175px"" height=""250px""></img></td>
  </tr>
  <tr height=200>
    <td width=300><img src=""static/images/keys/z.svg"" width=""35%"" height=""75%""></img></td>
    <td width=300></td>
  </tr>
</table>
  ",90.0,1.0,,,,,,,,,,,,,,,,,,,,,,,,,,
79,0,,html-keyboard-response,79,249944,0.0-4.11-2.11,2d1dtlyr6d8,2022-09-19 17:09:06.278,5e89ba09ec9b3364b1fc0bd1,2,63,60,39,43,43,male,,,"
  <table>
  <tr height=300>
    <td width=300 height=300><img src=""static/images/cards/3_of_black_bolts.svg"" width=""175px"" height=""250px""></img></td>
    <td width=300 height=300><img src=""static/images/cards/back_of_black_bolts.svg"" width=""175px"" height=""250px""></img></td>
  </tr>
  <tr height=200>
    <td width=300><img src=""static/images/keys/z.svg"" width=""35%"" height=""75%""></img></td>
    <td width=300></td>
  </tr>
</table>
  ",,,,,,,,,,,,,,,,,,,,,,,,,,,,
80,0,,html-keyboard-response,80,251451,0.0-4.11-3.11,2d1dtlyr6d8,2022-09-19 17:09:06.278,5e89ba09ec9b3364b1fc0bd1,2,63,60,39,43,43,male,,,"<p style=""font-size:50px"">You win!
+10 points this round!</p>",,,,,,,,,,,,,,,,,,,,,,,,,,,,
81,0,,html-keyboard-response,81,251962,0.0-4.11-4.11,2d1dtlyr6d8,2022-09-19 17:09:06.278,5e89ba09ec9b3364b1fc0bd1,2,63,60,39,43,43,male,,,,,,1.0,learning,11.0,Xnc,,black,,bolts,,,,Xnc,black,bolts,,0.0,0.0,1,left,691.5,3.0,0.0,1.0,,,
82,0,,html-keyboard-response,82,253463,0.0-4.12-0.12,2d1dtlyr6d8,2022-09-19 17:09:06.278,5e89ba09ec9b3364b1fc0bd1,2,63,60,39,43,43,male,,,"<img src=""static/images/cards/stack_of_black_stars.svg"" width=""175px"" height=""250px""></img>",,,,,,,,,,,,,,,,,,,,,,,,,,,,
83,0,,html-keyboard-response,83,254997,0.0-4.12-1.12,2d1dtlyr6d8,2022-09-19 17:09:06.278,5e89ba09ec9b3364b1fc0bd1,2,63,60,39,43,43,male,1028.3999999911,,"
  <table>
  <tr height=300>
    <td width=300 height=300><img src=""static/images/cards/back_of_black_stars.svg"" width=""175px"" height=""250px""></img></td>
    <td width=300 height=300><img src=""static/images/cards/back_of_black_stars.svg"" width=""175px"" height=""250px""></img></td>
  </tr>
  <tr height=200>
    <td width=300><img src=""static/images/keys/z.svg"" width=""35%"" height=""75%""></img></td>
    <td width=300><img src=""static/images/keys/m.svg"" width=""35%"" height=""75%""></img></td>
  </tr>
</table>
  ",90.0,1.0,,,,,,,,,,,,,,,,,,,,,,,,,,
84,0,,html-keyboard-response,84,256504,0.0-4.12-2.12,2d1dtlyr6d8,2022-09-19 17:09:06.278,5e89ba09ec9b3364b1fc0bd1,2,63,60,39,43,43,male,,,"
  <table>
  <tr height=300>
    <td width=300 height=300><img src=""static/images/cards/1_of_black_stars.svg"" width=""175px"" height=""250px""></img></td>
    <td width=300 height=300><img src=""static/images/cards/back_of_black_stars.svg"" width=""175px"" height=""250px""></img></td>
  </tr>
  <tr height=200>
    <td width=300><img src=""static/images/keys/z.svg"" width=""35%"" height=""75%""></img></td>
    <td width=300><img src=""static/images/keys/m.svg"" width=""35%"" height=""75%""></img></td>
  </tr>
</table>
  ",,,,,,,,,,,,,,,,,,,,,,,,,,,,
85,0,,html-keyboard-response,85,258012,0.0-4.12-3.12,2d1dtlyr6d8,2022-09-19 17:09:06.278,5e89ba09ec9b3364b1fc0bd1,2,63,60,39,43,43,male,,,"<p style=""font-size:50px"">You Lose!
No points this round.</p>",,,,,,,,,,,,,,,,,,,,,,,,,,,,
86,0,,html-keyboard-response,86,258520,0.0-4.12-4.12,2d1dtlyr6d8,2022-09-19 17:09:06.278,5e89ba09ec9b3364b1fc0bd1,2,63,60,39,43,43,male,,,,,,1.0,learning,12.0,A,,black,,stars,,,,A,black,stars,,1.0,1.0,NA,left,1028.3999999911,1.0,0.0,0.0,,,
87,0,,html-keyboard-response,87,260021,0.0-4.13-0.13,2d1dtlyr6d8,2022-09-19 17:09:06.278,5e89ba09ec9b3364b1fc0bd1,2,63,60,39,43,43,male,,,"<img src=""static/images/cards/stack_of_red_stars.svg"" width=""175px"" height=""250px""></img>",,,,,,,,,,,,,,,,,,,,,,,,,,,,
88,0,,html-keyboard-response,88,261175,0.0-4.13-1.13,2d1dtlyr6d8,2022-09-19 17:09:06.278,5e89ba09ec9b3364b1fc0bd1,2,63,60,39,43,43,male,647.400000006,,"
  <table>
  <tr height=300>
    <td width=300 height=300><img src=""static/images/cards/back_of_red_stars.svg"" width=""175px"" height=""250px""></img></td>
    <td width=300 height=300><img src=""static/images/cards/back_of_red_stars.svg"" width=""175px"" height=""250px""></img></td>
  </tr>
  <tr height=200>
    <td width=300></td>
    <td width=300><img src=""static/images/keys/m.svg"" width=""35%"" height=""75%""></img></td>
  </tr>
</table>
  ",77.0,1.0,,,,,,,,,,,,,,,,,,,,,,,,,,
89,0,,html-keyboard-response,89,262679,0.0-4.13-2.13,2d1dtlyr6d8,2022-09-19 17:09:06.278,5e89ba09ec9b3364b1fc0bd1,2,63,60,39,43,43,male,,,"
  <table>
  <tr height=300>
    <td width=300 height=300><img src=""static/images/cards/back_of_red_stars.svg"" width=""175px"" height=""250px""></img></td>
    <td width=300 height=300><img src=""static/images/cards/10_of_red_stars.svg"" width=""175px"" height=""250px""></img></td>
  </tr>
  <tr height=200>
    <td width=300></td>
    <td width=300><img src=""static/images/keys/m.svg"" width=""35%"" height=""75%""></img></td>
  </tr>
</table>
  ",,,,,,,,,,,,,,,,,,,,,,,,,,,,
90,0,,html-keyboard-response,90,264192,0.0-4.13-3.13,2d1dtlyr6d8,2022-09-19 17:09:06.278,5e89ba09ec9b3364b1fc0bd1,2,63,60,39,43,43,male,,,"<p style=""font-size:50px"">You win!
+10 points this round!</p>",,,,,,,,,,,,,,,,,,,,,,,,,,,,
91,0,,html-keyboard-response,91,264700,0.0-4.13-4.13,2d1dtlyr6d8,2022-09-19 17:09:06.278,5e89ba09ec9b3364b1fc0bd1,2,63,60,39,43,43,male,,,,,,1.0,learning,13.0,B,,red,,stars,,,,B,red,stars,,0.0,1.0,0,right,647.400000006,10.0,1.0,1.0,,,
92,0,,html-keyboard-response,92,266201,0.0-4.14-0.14,2d1dtlyr6d8,2022-09-19 17:09:06.278,5e89ba09ec9b3364b1fc0bd1,2,63,60,39,43,43,male,,,"<img src=""static/images/cards/stack_of_black_moons.svg"" width=""175px"" height=""250px""></img>",,,,,,,,,,,,,,,,,,,,,,,,,,,,
93,0,,html-keyboard-response,93,267967,0.0-4.14-1.14,2d1dtlyr6d8,2022-09-19 17:09:06.278,5e89ba09ec9b3364b1fc0bd1,2,63,60,39,43,43,male,1264.3999999911,,"
  <table>
  <tr height=300>
    <td width=300 height=300><img src=""static/images/cards/back_of_black_moons.svg"" width=""175px"" height=""250px""></img></td>
    <td width=300 height=300><img src=""static/images/cards/back_of_black_moons.svg"" width=""175px"" height=""250px""></img></td>
  </tr>
  <tr height=200>
    <td width=300><img src=""static/images/keys/z.svg"" width=""35%"" height=""75%""></img></td>
    <td width=300><img src=""static/images/keys/m.svg"" width=""35%"" height=""75%""></img></td>
  </tr>
</table>
  ",77.0,1.0,,,,,,,,,,,,,,,,,,,,,,,,,,
94,0,,html-keyboard-response,94,269473,0.0-4.14-2.14,2d1dtlyr6d8,2022-09-19 17:09:06.278,5e89ba09ec9b3364b1fc0bd1,2,63,60,39,43,43,male,,,"
  <table>
  <tr height=300>
    <td width=300 height=300><img src=""static/images/cards/back_of_black_moons.svg"" width=""175px"" height=""250px""></img></td>
    <td width=300 height=300><img src=""static/images/cards/6_of_black_moons.svg"" width=""175px"" height=""250px""></img></td>
  </tr>
  <tr height=200>
    <td width=300><img src=""static/images/keys/z.svg"" width=""35%"" height=""75%""></img></td>
    <td width=300><img src=""static/images/keys/m.svg"" width=""35%"" height=""75%""></img></td>
  </tr>
</table>
  ",,,,,,,,,,,,,,,,,,,,,,,,,,,,
95,0,,html-keyboard-response,95,270983,0.0-4.14-3.14,2d1dtlyr6d8,2022-09-19 17:09:06.278,5e89ba09ec9b3364b1fc0bd1,2,63,60,39,43,43,male,,,"<p style=""font-size:50px"">You Lose!
No points this round.</p>",,,,,,,,,,,,,,,,,,,,,,,,,,,,
96,0,,html-keyboard-response,96,271493,0.0-4.14-4.14,2d1dtlyr6d8,2022-09-19 17:09:06.278,5e89ba09ec9b3364b1fc0bd1,2,63,60,39,43,43,male,,,,,,1.0,learning,14.0,C,,black,,moons,,,,C,black,moons,,1.0,0.0,NA,right,1264.3999999911,6.0,1.0,0.0,,,
97,0,,html-keyboard-response,97,272995,0.0-4.15-0.15,2d1dtlyr6d8,2022-09-19 17:09:06.278,5e89ba09ec9b3364b1fc0bd1,2,63,60,39,43,43,male,,,"<img src=""static/images/cards/stack_of_red_moons.svg"" width=""175px"" height=""250px""></img>",,,,,,,,,,,,,,,,,,,,,,,,,,,,
98,0,,html-keyboard-response,98,274326,0.0-4.15-1.15,2d1dtlyr6d8,2022-09-19 17:09:06.278,5e89ba09ec9b3364b1fc0bd1,2,63,60,39,43,43,male,828.200000003,,"
  <table>
  <tr height=300>
    <td width=300 height=300><img src=""static/images/cards/back_of_red_moons.svg"" width=""175px"" height=""250px""></img></td>
    <td width=300 height=300><img src=""static/images/cards/back_of_red_moons.svg"" width=""175px"" height=""250px""></img></td>
  </tr>
  <tr height=200>
    <td width=300></td>
    <td width=300><img src=""static/images/keys/m.svg"" width=""35%"" height=""75%""></img></td>
  </tr>
</table>
  ",77.0,1.0,,,,,,,,,,,,,,,,,,,,,,,,,,
99,0,,html-keyboard-response,99,275827,0.0-4.15-2.15,2d1dtlyr6d8,2022-09-19 17:09:06.278,5e89ba09ec9b3364b1fc0bd1,2,63,60,39,43,43,male,,,"
  <table>
  <tr height=300>
    <td width=300 height=300><img src=""static/images/cards/back_of_red_moons.svg"" width=""175px"" height=""250px""></img></td>
    <td width=300 height=300><img src=""static/images/cards/6_of_red_moons.svg"" width=""175px"" height=""250px""></img></td>
  </tr>
  <tr height=200>
    <td width=300></td>
    <td width=300><img src=""static/images/keys/m.svg"" width=""35%"" height=""75%""></img></td>
  </tr>
</table>
  ",,,,,,,,,,,,,,,,,,,,,,,,,,,,
100,0,,html-keyboard-response,100,277334,0.0-4.15-3.15,2d1dtlyr6d8,2022-09-19 17:09:06.278,5e89ba09ec9b3364b1fc0bd1,2,63,60,39,43,43,male,,,"<p style=""font-size:50px"">You win!
+10 points this round!</p>",,,,,,,,,,,,,,,,,,,,,,,,,,,,
101,0,,html-keyboard-response,101,277845,0.0-4.15-4.15,2d1dtlyr6d8,2022-09-19 17:09:06.278,5e89ba09ec9b3364b1fc0bd1,2,63,60,39,43,43,male,,,,,,1.0,learning,15.0,D,,red,,moons,,,,D,red,moons,,0.0,0.0,0,right,828.200000003,6.0,1.0,1.0,,,
102,0,,html-keyboard-response,102,279346,0.0-4.16-0.16,2d1dtlyr6d8,2022-09-19 17:09:06.278,5e89ba09ec9b3364b1fc0bd1,2,63,60,39,43,43,male,,,"<img src=""static/images/cards/stack_of_red_bolts.svg"" width=""175px"" height=""250px""></img>",,,,,,,,,,,,,,,,,,,,,,,,,,,,
103,0,,html-keyboard-response,103,282232,0.0-4.16-1.16,2d1dtlyr6d8,2022-09-19 17:09:06.278,5e89ba09ec9b3364b1fc0bd1,2,63,60,39,43,43,male,2378.799999997,,"
  <table>
  <tr height=300>
    <td width=300 height=300><img src=""static/images/cards/back_of_red_bolts.svg"" width=""175px"" height=""250px""></img></td>
    <td width=300 height=300><img src=""static/images/cards/back_of_red_bolts.svg"" width=""175px"" height=""250px""></img></td>
  </tr>
  <tr height=200>
    <td width=300><img src=""static/images/keys/z.svg"" width=""35%"" height=""75%""></img></td>
    <td width=300><img src=""static/images/keys/m.svg"" width=""35%"" height=""75%""></img></td>
  </tr>
</table>
  ",77.0,1.0,,,,,,,,,,,,,,,,,,,,,,,,,,
104,0,,html-keyboard-response,104,283734,0.0-4.16-2.16,2d1dtlyr6d8,2022-09-19 17:09:06.278,5e89ba09ec9b3364b1fc0bd1,2,63,60,39,43,43,male,,,"
  <table>
  <tr height=300>
    <td width=300 height=300><img src=""static/images/cards/back_of_red_bolts.svg"" width=""175px"" height=""250px""></img></td>
    <td width=300 height=300><img src=""static/images/cards/7_of_red_bolts.svg"" width=""175px"" height=""250px""></img></td>
  </tr>
  <tr height=200>
    <td width=300><img src=""static/images/keys/z.svg"" width=""35%"" height=""75%""></img></td>
    <td width=300><img src=""static/images/keys/m.svg"" width=""35%"" height=""75%""></img></td>
  </tr>
</table>
  ",,,,,,,,,,,,,,,,,,,,,,,,,,,,
105,0,,html-keyboard-response,105,285236,0.0-4.16-3.16,2d1dtlyr6d8,2022-09-19 17:09:06.278,5e89ba09ec9b3364b1fc0bd1,2,63,60,39,43,43,male,,,"<p style=""font-size:50px"">You win!
+10 points this round!</p>",,,,,,,,,,,,,,,,,,,,,,,,,,,,
106,0,,html-keyboard-response,106,285741,0.0-4.16-4.16,2d1dtlyr6d8,2022-09-19 17:09:06.278,5e89ba09ec9b3364b1fc0bd1,2,63,60,39,43,43,male,,,,,,1.0,learning,16.0,Xc,,red,,bolts,,,,Xc,red,bolts,,1.0,0.0,NA,right,2378.799999997,7.0,1.0,1.0,,,
107,0,,html-keyboard-response,107,287244,0.0-4.17-0.17,2d1dtlyr6d8,2022-09-19 17:09:06.278,5e89ba09ec9b3364b1fc0bd1,2,63,60,39,43,43,male,,,"<img src=""static/images/cards/stack_of_black_bolts.svg"" width=""175px"" height=""250px""></img>",,,,,,,,,,,,,,,,,,,,,,,,,,,,
108,0,,html-keyboard-response,108,288407,0.0-4.17-1.17,2d1dtlyr6d8,2022-09-19 17:09:06.278,5e89ba09ec9b3364b1fc0bd1,2,63,60,39,43,43,male,657.3999999911,,"
  <table>
  <tr height=300>
    <td width=300 height=300><img src=""static/images/cards/back_of_black_bolts.svg"" width=""175px"" height=""250px""></img></td>
    <td width=300 height=300><img src=""static/images/cards/back_of_black_bolts.svg"" width=""175px"" height=""250px""></img></td>
  </tr>
  <tr height=200>
    <td width=300><img src=""static/images/keys/z.svg"" width=""35%"" height=""75%""></img></td>
    <td width=300></td>
  </tr>
</table>
  ",90.0,1.0,,,,,,,,,,,,,,,,,,,,,,,,,,
109,0,,html-keyboard-response,109,289913,0.0-4.17-2.17,2d1dtlyr6d8,2022-09-19 17:09:06.278,5e89ba09ec9b3364b1fc0bd1,2,63,60,39,43,43,male,,,"
  <table>
  <tr height=300>
    <td width=300 height=300><img src=""static/images/cards/8_of_black_bolts.svg"" width=""175px"" height=""250px""></img></td>
    <td width=300 height=300><img src=""static/images/cards/back_of_black_bolts.svg"" width=""175px"" height=""250px""></img></td>
  </tr>
  <tr height=200>
    <td width=300><img src=""static/images/keys/z.svg"" width=""35%"" height=""75%""></img></td>
    <td width=300></td>
  </tr>
</table>
  ",,,,,,,,,,,,,,,,,,,,,,,,,,,,
110,0,,html-keyboard-response,110,291422,0.0-4.17-3.17,2d1dtlyr6d8,2022-09-19 17:09:06.278,5e89ba09ec9b3364b1fc0bd1,2,63,60,39,43,43,male,,,"<p style=""font-size:50px"">You win!
+10 points this round!</p>",,,,,,,,,,,,,,,,,,,,,,,,,,,,
111,0,,html-keyboard-response,111,291932,0.0-4.17-4.17,2d1dtlyr6d8,2022-09-19 17:09:06.278,5e89ba09ec9b3364b1fc0bd1,2,63,60,39,43,43,male,,,,,,1.0,learning,17.0,Xnc,,black,,bolts,,,,Xnc,black,bolts,,0.0,0.0,1,left,657.3999999911,8.0,1.0,1.0,,,
112,0,,html-keyboard-response,112,293433,0.0-4.18-0.18,2d1dtlyr6d8,2022-09-19 17:09:06.278,5e89ba09ec9b3364b1fc0bd1,2,63,60,39,43,43,male,,,"<img src=""static/images/cards/stack_of_black_stars.svg"" width=""175px"" height=""250px""></img>",,,,,,,,,,,,,,,,,,,,,,,,,,,,
113,0,,html-keyboard-response,113,294822,0.0-4.18-1.18,2d1dtlyr6d8,2022-09-19 17:09:06.278,5e89ba09ec9b3364b1fc0bd1,2,63,60,39,43,43,male,883.8999999911,,"
  <table>
  <tr height=300>
    <td width=300 height=300><img src=""static/images/cards/back_of_black_stars.svg"" width=""175px"" height=""250px""></img></td>
    <td width=300 height=300><img src=""static/images/cards/back_of_black_stars.svg"" width=""175px"" height=""250px""></img></td>
  </tr>
  <tr height=200>
    <td width=300><img src=""static/images/keys/z.svg"" width=""35%"" height=""75%""></img></td>
    <td width=300><img src=""static/images/keys/m.svg"" width=""35%"" height=""75%""></img></td>
  </tr>
</table>
  ",90.0,1.0,,,,,,,,,,,,,,,,,,,,,,,,,,
114,0,,html-keyboard-response,114,296325,0.0-4.18-2.18,2d1dtlyr6d8,2022-09-19 17:09:06.278,5e89ba09ec9b3364b1fc0bd1,2,63,60,39,43,43,male,,,"
  <table>
  <tr height=300>
    <td width=300 height=300><img src=""static/images/cards/8_of_black_stars.svg"" width=""175px"" height=""250px""></img></td>
    <td width=300 height=300><img src=""static/images/cards/back_of_black_stars.svg"" width=""175px"" height=""250px""></img></td>
  </tr>
  <tr height=200>
    <td width=300><img src=""static/images/keys/z.svg"" width=""35%"" height=""75%""></img></td>
    <td width=300><img src=""static/images/keys/m.svg"" width=""35%"" height=""75%""></img></td>
  </tr>
</table>
  ",,,,,,,,,,,,,,,,,,,,,,,,,,,,
115,0,,html-keyboard-response,115,297832,0.0-4.18-3.18,2d1dtlyr6d8,2022-09-19 17:09:06.278,5e89ba09ec9b3364b1fc0bd1,2,63,60,39,43,43,male,,,"<p style=""font-size:50px"">You win!
+10 points this round!</p>",,,,,,,,,,,,,,,,,,,,,,,,,,,,
116,0,,html-keyboard-response,116,298343,0.0-4.18-4.18,2d1dtlyr6d8,2022-09-19 17:09:06.278,5e89ba09ec9b3364b1fc0bd1,2,63,60,39,43,43,male,,,,,,1.0,learning,18.0,A,,black,,stars,,,,A,black,stars,,1.0,1.0,NA,left,883.8999999911,8.0,1.0,1.0,,,
117,0,,html-keyboard-response,117,299845,0.0-4.19-0.19,2d1dtlyr6d8,2022-09-19 17:09:06.278,5e89ba09ec9b3364b1fc0bd1,2,63,60,39,43,43,male,,,"<img src=""static/images/cards/stack_of_red_stars.svg"" width=""175px"" height=""250px""></img>",,,,,,,,,,,,,,,,,,,,,,,,,,,,
118,0,,html-keyboard-response,118,301127,0.0-4.19-1.19,2d1dtlyr6d8,2022-09-19 17:09:06.278,5e89ba09ec9b3364b1fc0bd1,2,63,60,39,43,43,male,781.200000003,,"
  <table>
  <tr height=300>
    <td width=300 height=300><img src=""static/images/cards/back_of_red_stars.svg"" width=""175px"" height=""250px""></img></td>
    <td width=300 height=300><img src=""static/images/cards/back_of_red_stars.svg"" width=""175px"" height=""250px""></img></td>
  </tr>
  <tr height=200>
    <td width=300></td>
    <td width=300><img src=""static/images/keys/m.svg"" width=""35%"" height=""75%""></img></td>
  </tr>
</table>
  ",77.0,1.0,,,,,,,,,,,,,,,,,,,,,,,,,,
119,0,,html-keyboard-response,119,302632,0.0-4.19-2.19,2d1dtlyr6d8,2022-09-19 17:09:06.278,5e89ba09ec9b3364b1fc0bd1,2,63,60,39,43,43,male,,,"
  <table>
  <tr height=300>
    <td width=300 height=300><img src=""static/images/cards/back_of_red_stars.svg"" width=""175px"" height=""250px""></img></td>
    <td width=300 height=300><img src=""static/images/cards/3_of_red_stars.svg"" width=""175px"" height=""250px""></img></td>
  </tr>
  <tr height=200>
    <td width=300></td>
    <td width=300><img src=""static/images/keys/m.svg"" width=""35%"" height=""75%""></img></td>
  </tr>
</table>
  ",,,,,,,,,,,,,,,,,,,,,,,,,,,,
120,0,,html-keyboard-response,120,304134,0.0-4.19-3.19,2d1dtlyr6d8,2022-09-19 17:09:06.278,5e89ba09ec9b3364b1fc0bd1,2,63,60,39,43,43,male,,,"<p style=""font-size:50px"">You Lose!
No points this round.</p>",,,,,,,,,,,,,,,,,,,,,,,,,,,,
121,0,,html-keyboard-response,121,304639,0.0-4.19-4.19,2d1dtlyr6d8,2022-09-19 17:09:06.278,5e89ba09ec9b3364b1fc0bd1,2,63,60,39,43,43,male,,,,,,1.0,learning,19.0,B,,red,,stars,,,,B,red,stars,,0.0,1.0,0,right,781.200000003,3.0,0.0,0.0,,,
122,0,,html-keyboard-response,122,306140,0.0-4.20-0.20,2d1dtlyr6d8,2022-09-19 17:09:06.278,5e89ba09ec9b3364b1fc0bd1,2,63,60,39,43,43,male,,,"<img src=""static/images/cards/stack_of_black_moons.svg"" width=""175px"" height=""250px""></img>",,,,,,,,,,,,,,,,,,,,,,,,,,,,
123,0,,html-keyboard-response,123,307752,0.0-4.20-1.20,2d1dtlyr6d8,2022-09-19 17:09:06.278,5e89ba09ec9b3364b1fc0bd1,2,63,60,39,43,43,male,1105.5,,"
  <table>
  <tr height=300>
    <td width=300 height=300><img src=""static/images/cards/back_of_black_moons.svg"" width=""175px"" height=""250px""></img></td>
    <td width=300 height=300><img src=""static/images/cards/back_of_black_moons.svg"" width=""175px"" height=""250px""></img></td>
  </tr>
  <tr height=200>
    <td width=300><img src=""static/images/keys/z.svg"" width=""35%"" height=""75%""></img></td>
    <td width=300><img src=""static/images/keys/m.svg"" width=""35%"" height=""75%""></img></td>
  </tr>
</table>
  ",90.0,1.0,,,,,,,,,,,,,,,,,,,,,,,,,,
124,0,,html-keyboard-response,124,309258,0.0-4.20-2.20,2d1dtlyr6d8,2022-09-19 17:09:06.278,5e89ba09ec9b3364b1fc0bd1,2,63,60,39,43,43,male,,,"
  <table>
  <tr height=300>
    <td width=300 height=300><img src=""static/images/cards/9_of_black_moons.svg"" width=""175px"" height=""250px""></img></td>
    <td width=300 height=300><img src=""static/images/cards/back_of_black_moons.svg"" width=""175px"" height=""250px""></img></td>
  </tr>
  <tr height=200>
    <td width=300><img src=""static/images/keys/z.svg"" width=""35%"" height=""75%""></img></td>
    <td width=300><img src=""static/images/keys/m.svg"" width=""35%"" height=""75%""></img></td>
  </tr>
</table>
  ",,,,,,,,,,,,,,,,,,,,,,,,,,,,
125,0,,html-keyboard-response,125,310769,0.0-4.20-3.20,2d1dtlyr6d8,2022-09-19 17:09:06.278,5e89ba09ec9b3364b1fc0bd1,2,63,60,39,43,43,male,,,"<p style=""font-size:50px"">You Lose!
No points this round.</p>",,,,,,,,,,,,,,,,,,,,,,,,,,,,
126,0,,html-keyboard-response,126,311279,0.0-4.20-4.20,2d1dtlyr6d8,2022-09-19 17:09:06.278,5e89ba09ec9b3364b1fc0bd1,2,63,60,39,43,43,male,,,,,,1.0,learning,20.0,C,,black,,moons,,,,C,black,moons,,1.0,0.0,NA,left,1105.5,9.0,1.0,0.0,,,
127,0,,html-keyboard-response,127,312781,0.0-4.21-0.21,2d1dtlyr6d8,2022-09-19 17:09:06.278,5e89ba09ec9b3364b1fc0bd1,2,63,60,39,43,43,male,,,"<img src=""static/images/cards/stack_of_red_moons.svg"" width=""175px"" height=""250px""></img>",,,,,,,,,,,,,,,,,,,,,,,,,,,,
128,0,,html-keyboard-response,128,314232,0.0-4.21-1.21,2d1dtlyr6d8,2022-09-19 17:09:06.278,5e89ba09ec9b3364b1fc0bd1,2,63,60,39,43,43,male,947.200000003,,"
  <table>
  <tr height=300>
    <td width=300 height=300><img src=""static/images/cards/back_of_red_moons.svg"" width=""175px"" height=""250px""></img></td>
    <td width=300 height=300><img src=""static/images/cards/back_of_red_moons.svg"" width=""175px"" height=""250px""></img></td>
  </tr>
  <tr height=200>
    <td width=300></td>
    <td width=300><img src=""static/images/keys/m.svg"" width=""35%"" height=""75%""></img></td>
  </tr>
</table>
  ",77.0,1.0,,,,,,,,,,,,,,,,,,,,,,,,,,
129,0,,html-keyboard-response,129,315737,0.0-4.21-2.21,2d1dtlyr6d8,2022-09-19 17:09:06.278,5e89ba09ec9b3364b1fc0bd1,2,63,60,39,43,43,male,,,"
  <table>
  <tr height=300>
    <td width=300 height=300><img src=""static/images/cards/back_of_red_moons.svg"" width=""175px"" height=""250px""></img></td>
    <td width=300 height=300><img src=""static/images/cards/6_of_red_moons.svg"" width=""175px"" height=""250px""></img></td>
  </tr>
  <tr height=200>
    <td width=300></td>
    <td width=300><img src=""static/images/keys/m.svg"" width=""35%"" height=""75%""></img></td>
  </tr>
</table>
  ",,,,,,,,,,,,,,,,,,,,,,,,,,,,
130,0,,html-keyboard-response,130,317246,0.0-4.21-3.21,2d1dtlyr6d8,2022-09-19 17:09:06.278,5e89ba09ec9b3364b1fc0bd1,2,63,60,39,43,43,male,,,"<p style=""font-size:50px"">You win!
+10 points this round!</p>",,,,,,,,,,,,,,,,,,,,,,,,,,,,
131,0,,html-keyboard-response,131,317757,0.0-4.21-4.21,2d1dtlyr6d8,2022-09-19 17:09:06.278,5e89ba09ec9b3364b1fc0bd1,2,63,60,39,43,43,male,,,,,,1.0,learning,21.0,D,,red,,moons,,,,D,red,moons,,0.0,0.0,0,right,947.200000003,6.0,1.0,1.0,,,
132,0,,html-keyboard-response,132,319259,0.0-4.22-0.22,2d1dtlyr6d8,2022-09-19 17:09:06.278,5e89ba09ec9b3364b1fc0bd1,2,63,60,39,43,43,male,,,"<img src=""static/images/cards/stack_of_red_bolts.svg"" width=""175px"" height=""250px""></img>",,,,,,,,,,,,,,,,,,,,,,,,,,,,
133,0,,html-keyboard-response,133,321056,0.0-4.22-1.22,2d1dtlyr6d8,2022-09-19 17:09:06.278,5e89ba09ec9b3364b1fc0bd1,2,63,60,39,43,43,male,1290.5,,"
  <table>
  <tr height=300>
    <td width=300 height=300><img src=""static/images/cards/back_of_red_bolts.svg"" width=""175px"" height=""250px""></img></td>
    <td width=300 height=300><img src=""static/images/cards/back_of_red_bolts.svg"" width=""175px"" height=""250px""></img></td>
  </tr>
  <tr height=200>
    <td width=300><img src=""static/images/keys/z.svg"" width=""35%"" height=""75%""></img></td>
    <td width=300><img src=""static/images/keys/m.svg"" width=""35%"" height=""75%""></img></td>
  </tr>
</table>
  ",77.0,1.0,,,,,,,,,,,,,,,,,,,,,,,,,,
134,0,,html-keyboard-response,134,322558,0.0-4.22-2.22,2d1dtlyr6d8,2022-09-19 17:09:06.278,5e89ba09ec9b3364b1fc0bd1,2,63,60,39,43,43,male,,,"
  <table>
  <tr height=300>
    <td width=300 height=300><img src=""static/images/cards/back_of_red_bolts.svg"" width=""175px"" height=""250px""></img></td>
    <td width=300 height=300><img src=""static/images/cards/1_of_red_bolts.svg"" width=""175px"" height=""250px""></img></td>
  </tr>
  <tr height=200>
    <td width=300><img src=""static/images/keys/z.svg"" width=""35%"" height=""75%""></img></td>
    <td width=300><img src=""static/images/keys/m.svg"" width=""35%"" height=""75%""></img></td>
  </tr>
</table>
  ",,,,,,,,,,,,,,,,,,,,,,,,,,,,
135,0,,html-keyboard-response,135,324061,0.0-4.22-3.22,2d1dtlyr6d8,2022-09-19 17:09:06.278,5e89ba09ec9b3364b1fc0bd1,2,63,60,39,43,43,male,,,"<p style=""font-size:50px"">You win!
+10 points this round!</p>",,,,,,,,,,,,,,,,,,,,,,,,,,,,
136,0,,html-keyboard-response,136,324568,0.0-4.22-4.22,2d1dtlyr6d8,2022-09-19 17:09:06.278,5e89ba09ec9b3364b1fc0bd1,2,63,60,39,43,43,male,,,,,,1.0,learning,22.0,Xc,,red,,bolts,,,,Xc,red,bolts,,1.0,0.0,NA,right,1290.5,1.0,0.0,1.0,,,
137,0,,html-keyboard-response,137,326070,0.0-4.23-0.23,2d1dtlyr6d8,2022-09-19 17:09:06.278,5e89ba09ec9b3364b1fc0bd1,2,63,60,39,43,43,male,,,"<img src=""static/images/cards/stack_of_black_bolts.svg"" width=""175px"" height=""250px""></img>",,,,,,,,,,,,,,,,,,,,,,,,,,,,
138,0,,html-keyboard-response,138,327520,0.0-4.23-1.23,2d1dtlyr6d8,2022-09-19 17:09:06.278,5e89ba09ec9b3364b1fc0bd1,2,63,60,39,43,43,male,943.400000006,,"
  <table>
  <tr height=300>
    <td width=300 height=300><img src=""static/images/cards/back_of_black_bolts.svg"" width=""175px"" height=""250px""></img></td>
    <td width=300 height=300><img src=""static/images/cards/back_of_black_bolts.svg"" width=""175px"" height=""250px""></img></td>
  </tr>
  <tr height=200>
    <td width=300></td>
    <td width=300><img src=""static/images/keys/m.svg"" width=""35%"" height=""75%""></img></td>
  </tr>
</table>
  ",77.0,1.0,,,,,,,,,,,,,,,,,,,,,,,,,,
139,0,,html-keyboard-response,139,329026,0.0-4.23-2.23,2d1dtlyr6d8,2022-09-19 17:09:06.278,5e89ba09ec9b3364b1fc0bd1,2,63,60,39,43,43,male,,,"
  <table>
  <tr height=300>
    <td width=300 height=300><img src=""static/images/cards/back_of_black_bolts.svg"" width=""175px"" height=""250px""></img></td>
    <td width=300 height=300><img src=""static/images/cards/4_of_black_bolts.svg"" width=""175px"" height=""250px""></img></td>
  </tr>
  <tr height=200>
    <td width=300></td>
    <td width=300><img src=""static/images/keys/m.svg"" width=""35%"" height=""75%""></img></td>
  </tr>
</table>
  ",,,,,,,,,,,,,,,,,,,,,,,,,,,,
140,0,,html-keyboard-response,140,330537,0.0-4.23-3.23,2d1dtlyr6d8,2022-09-19 17:09:06.278,5e89ba09ec9b3364b1fc0bd1,2,63,60,39,43,43,male,,,"<p style=""font-size:50px"">You win!
+10 points this round!</p>",,,,,,,,,,,,,,,,,,,,,,,,,,,,
141,0,,html-keyboard-response,141,331047,0.0-4.23-4.23,2d1dtlyr6d8,2022-09-19 17:09:06.278,5e89ba09ec9b3364b1fc0bd1,2,63,60,39,43,43,male,,,,,,1.0,learning,23.0,Xnc,,black,,bolts,,,,Xnc,black,bolts,,0.0,0.0,0,right,943.400000006,4.0,0.0,1.0,,,
142,0,,call-function,142,331055,0.0-5.0,2d1dtlyr6d8,2022-09-19 17:09:06.278,5e89ba09ec9b3364b1fc0bd1,2,63,60,39,43,43,male,,,,,,,,,,,,,,,,,,,,,,,,,,,,,,,
143,0,,image-keyboard-response,143,337841,0.0-6.0-0.0,2d1dtlyr6d8,2022-09-19 17:09:06.278,5e89ba09ec9b3364b1fc0bd1,2,63,60,39,43,43,male,6785.299999997,,static/images/instructions_CB_2/Slide20.png,39.0,,,,,,,,,,,,,,,,,,,,,,,,,,,
144,0,,image-keyboard-response,144,355435,0.0-6.1-0.1,2d1dtlyr6d8,2022-09-19 17:09:06.278,5e89ba09ec9b3364b1fc0bd1,2,63,60,39,43,43,male,17592.599999994,,static/images/instructions_CB_2/Slide21.png,37.0,,,,,,,,,,,,,,,,,,,,,,,,,,,
145,0,,image-keyboard-response,145,359969,0.0-6.2-0.2,2d1dtlyr6d8,2022-09-19 17:09:06.278,5e89ba09ec9b3364b1fc0bd1,2,63,60,39,43,43,male,4532.0,,static/images/instructions_CB_2/Slide20.png,39.0,,,,,,,,,,,,,,,,,,,,,,,,,,,
146,0,,image-keyboard-response,146,364793,0.0-6.3-0.3,2d1dtlyr6d8,2022-09-19 17:09:06.278,5e89ba09ec9b3364b1fc0bd1,2,63,60,39,43,43,male,4823.6000000089,,static/images/instructions_CB_2/Slide21.png,37.0,,,,,,,,,,,,,,,,,,,,,,,,,,,
147,0,,image-keyboard-response,147,366705,0.0-6.4-0.4,2d1dtlyr6d8,2022-09-19 17:09:06.278,5e89ba09ec9b3364b1fc0bd1,2,63,60,39,43,43,male,1911.099999994,,static/images/instructions_CB_2/Slide20.png,39.0,,,,,,,,,,,,,,,,,,,,,,,,,,,
148,0,,image-keyboard-response,148,367481,0.0-6.5-0.5,2d1dtlyr6d8,2022-09-19 17:09:06.278,5e89ba09ec9b3364b1fc0bd1,2,63,60,39,43,43,male,775.099999994,,static/images/instructions_CB_2/Slide21.png,39.0,,,,,,,,,,,,,,,,,,,,,,,,,,,
149,0,,image-keyboard-response,149,370553,0.0-6.6-0.6,2d1dtlyr6d8,2022-09-19 17:09:06.278,5e89ba09ec9b3364b1fc0bd1,2,63,60,39,43,43,male,3071.6000000089,,static/images/instructions_CB_2/Slide22.png,37.0,,,,,,,,,,,,,,,,,,,,,,,,,,,
150,0,,image-keyboard-response,150,373289,0.0-6.7-0.7,2d1dtlyr6d8,2022-09-19 17:09:06.278,5e89ba09ec9b3364b1fc0bd1,2,63,60,39,43,43,male,2734.799999997,,static/images/instructions_CB_2/Slide21.png,39.0,,,,,,,,,,,,,,,,,,,,,,,,,,,
151,0,,image-keyboard-response,151,378938,0.0-6.8-0.8,2d1dtlyr6d8,2022-09-19 17:09:06.278,5e89ba09ec9b3364b1fc0bd1,2,63,60,39,43,43,male,5648.5,,static/images/instructions_CB_2/Slide22.png,39.0,,,,,,,,,,,,,,,,,,,,,,,,,,,
152,0,,image-keyboard-response,152,405980,0.0-6.9-0.9,2d1dtlyr6d8,2022-09-19 17:09:06.278,5e89ba09ec9b3364b1fc0bd1,2,63,60,39,43,43,male,27040.8999999911,,static/images/instructions_CB_2/Slide23.png,39.0,,,,,,,,,,,,,,,,,,,,,,,,,,,
153,0,,image-keyboard-response,153,408395,0.0-6.10-0.10,2d1dtlyr6d8,2022-09-19 17:09:06.278,5e89ba09ec9b3364b1fc0bd1,2,63,60,39,43,43,male,2413.5,,static/images/instructions_CB_2/Slide24.png,39.0,,,,,,,,,,,,,,,,,,,,,,,,,,,
154,0,,html-keyboard-response,154,411610,0.0-7.0-0.0,2d1dtlyr6d8,2022-09-19 17:09:06.278,5e89ba09ec9b3364b1fc0bd1,2,63,60,39,43,43,male,3214.099999994,,"
  <table>
  <tr height=300>
    <td width=300 height=300><img src=""static/images/cards/stack_of_black_stars.svg"" width=""175px"" height=""250px""></img></td>
    <td width=300 height=300><img src=""static/images/cards/stack_of_red_moons.svg"" width=""175px"" height=""250px""></img></td>
  </tr>
  <tr height=200>
    <td width=300><img src=""static/images/keys/w.svg"" width=""35%"" height=""75%""></img></td>
    <td width=300><img src=""static/images/keys/o.svg"" width=""35%"" height=""75%""></img></td>
  </tr>
</table>
  ",87.0,1.0,,,,,,,,,,,,,,,,,,,,,,,,,,
155,0,,html-keyboard-response,155,413835,0.0-7.0-1.0,2d1dtlyr6d8,2022-09-19 17:09:06.278,5e89ba09ec9b3364b1fc0bd1,2,63,60,39,43,43,male,1719.1000000089,,"
  <table>
  <tr height=300>
    <td width=300 height=300><img src=""static/images/cards/back_of_black_stars.svg"" width=""175px"" height=""250px""></img></td>
    <td width=300 height=300><img src=""static/images/cards/back_of_black_stars.svg"" width=""175px"" height=""250px""></img></td>
  </tr>
  <tr height=200>
    <td width=300><img src=""static/images/keys/z.svg"" width=""35%"" height=""75%""></img></td>
    <td width=300><img src=""static/images/keys/m.svg"" width=""35%"" height=""75%""></img></td>
  </tr>
</table>
  ",90.0,1.0,,,,,,,,,,,,,,,,,,,,,,,,,,
156,0,,html-keyboard-response,156,415337,0.0-7.0-2.0,2d1dtlyr6d8,2022-09-19 17:09:06.278,5e89ba09ec9b3364b1fc0bd1,2,63,60,39,43,43,male,,,"
  <table>
  <tr height=300>
    <td width=300 height=300><img src=""static/images/cards/1_of_black_stars.svg"" width=""175px"" height=""250px""></img></td>
    <td width=300 height=300><img src=""static/images/cards/back_of_black_stars.svg"" width=""175px"" height=""250px""></img></td>
  </tr>
  <tr height=200>
    <td width=300><img src=""static/images/keys/z.svg"" width=""35%"" height=""75%""></img></td>
    <td width=300><img src=""static/images/keys/m.svg"" width=""35%"" height=""75%""></img></td>
  </tr>
</table>
  ",,,,,,,,,,,,,,,,,,,,,,,,,,,,
157,0,,html-keyboard-response,157,416842,0.0-7.0-3.0,2d1dtlyr6d8,2022-09-19 17:09:06.278,5e89ba09ec9b3364b1fc0bd1,2,63,60,39,43,43,male,,,"<p style=""font-size:50px"">You Lose!
No points this round.</p>",,,,,,,,,,,,,,,,,,,,,,,,,,,,
158,0,,html-keyboard-response,158,417353,0.0-7.0-4.0,2d1dtlyr6d8,2022-09-19 17:09:06.278,5e89ba09ec9b3364b1fc0bd1,2,63,60,39,43,43,male,,,,,,1.0,choice,0.0,A,D,black,red,stars,moons,A,D,A,black,stars,3214.099999994,1.0,1.0,NA,left,1719.1000000089,1.0,0.0,0.0,,,
159,0,,html-keyboard-response,159,420282,0.0-7.1-0.1,2d1dtlyr6d8,2022-09-19 17:09:06.278,5e89ba09ec9b3364b1fc0bd1,2,63,60,39,43,43,male,2928.1000000089,,"
  <table>
  <tr height=300>
    <td width=300 height=300><img src=""static/images/cards/stack_of_black_moons.svg"" width=""175px"" height=""250px""></img></td>
    <td width=300 height=300><img src=""static/images/cards/stack_of_red_moons.svg"" width=""175px"" height=""250px""></img></td>
  </tr>
  <tr height=200>
    <td width=300><img src=""static/images/keys/w.svg"" width=""35%"" height=""75%""></img></td>
    <td width=300><img src=""static/images/keys/o.svg"" width=""35%"" height=""75%""></img></td>
  </tr>
</table>
  ",79.0,1.0,,,,,,,,,,,,,,,,,,,,,,,,,,
160,0,,html-keyboard-response,160,421924,0.0-7.1-1.1,2d1dtlyr6d8,2022-09-19 17:09:06.278,5e89ba09ec9b3364b1fc0bd1,2,63,60,39,43,43,male,1139.1999999881,,"
  <table>
  <tr height=300>
    <td width=300 height=300><img src=""static/images/cards/back_of_red_moons.svg"" width=""175px"" height=""250px""></img></td>
    <td width=300 height=300><img src=""static/images/cards/back_of_red_moons.svg"" width=""175px"" height=""250px""></img></td>
  </tr>
  <tr height=200>
    <td width=300><img src=""static/images/keys/z.svg"" width=""35%"" height=""75%""></img></td>
    <td width=300></td>
  </tr>
</table>
  ",90.0,1.0,,,,,,,,,,,,,,,,,,,,,,,,,,
161,0,,html-keyboard-response,161,423425,0.0-7.1-2.1,2d1dtlyr6d8,2022-09-19 17:09:06.278,5e89ba09ec9b3364b1fc0bd1,2,63,60,39,43,43,male,,,"
  <table>
  <tr height=300>
    <td width=300 height=300><img src=""static/images/cards/6_of_red_moons.svg"" width=""175px"" height=""250px""></img></td>
    <td width=300 height=300><img src=""static/images/cards/back_of_red_moons.svg"" width=""175px"" height=""250px""></img></td>
  </tr>
  <tr height=200>
    <td width=300><img src=""static/images/keys/z.svg"" width=""35%"" height=""75%""></img></td>
    <td width=300></td>
  </tr>
</table>
  ",,,,,,,,,,,,,,,,,,,,,,,,,,,,
162,0,,html-keyboard-response,162,424932,0.0-7.1-3.1,2d1dtlyr6d8,2022-09-19 17:09:06.278,5e89ba09ec9b3364b1fc0bd1,2,63,60,39,43,43,male,,,"<p style=""font-size:50px"">You Lose!
No points this round.</p>",,,,,,,,,,,,,,,,,,,,,,,,,,,,
163,0,,html-keyboard-response,163,425438,0.0-7.1-4.1,2d1dtlyr6d8,2022-09-19 17:09:06.278,5e89ba09ec9b3364b1fc0bd1,2,63,60,39,43,43,male,,,,,,1.0,choice,1.0,C,D,black,red,moons,moons,C,D,D,red,moons,2928.1000000089,0.0,0.0,1,left,1139.1999999881,6.0,1.0,0.0,,,
164,0,,html-keyboard-response,164,426986,0.0-7.2-0.2,2d1dtlyr6d8,2022-09-19 17:09:06.278,5e89ba09ec9b3364b1fc0bd1,2,63,60,39,43,43,male,1547.1000000089,,"
  <table>
  <tr height=300>
    <td width=300 height=300><img src=""static/images/cards/stack_of_red_stars.svg"" width=""175px"" height=""250px""></img></td>
    <td width=300 height=300><img src=""static/images/cards/stack_of_red_moons.svg"" width=""175px"" height=""250px""></img></td>
  </tr>
  <tr height=200>
    <td width=300><img src=""static/images/keys/w.svg"" width=""35%"" height=""75%""></img></td>
    <td width=300><img src=""static/images/keys/o.svg"" width=""35%"" height=""75%""></img></td>
  </tr>
</table>
  ",79.0,1.0,,,,,,,,,,,,,,,,,,,,,,,,,,
165,0,,html-keyboard-response,165,428579,0.0-7.2-1.2,2d1dtlyr6d8,2022-09-19 17:09:06.278,5e89ba09ec9b3364b1fc0bd1,2,63,60,39,43,43,male,1086.400000006,,"
  <table>
  <tr height=300>
    <td width=300 height=300><img src=""static/images/cards/back_of_red_moons.svg"" width=""175px"" height=""250px""></img></td>
    <td width=300 height=300><img src=""static/images/cards/back_of_red_moons.svg"" width=""175px"" height=""250px""></img></td>
  </tr>
  <tr height=200>
    <td width=300></td>
    <td width=300><img src=""static/images/keys/m.svg"" width=""35%"" height=""75%""></img></td>
  </tr>
</table>
  ",77.0,1.0,,,,,,,,,,,,,,,,,,,,,,,,,,
166,0,,html-keyboard-response,166,430080,0.0-7.2-2.2,2d1dtlyr6d8,2022-09-19 17:09:06.278,5e89ba09ec9b3364b1fc0bd1,2,63,60,39,43,43,male,,,"
  <table>
  <tr height=300>
    <td width=300 height=300><img src=""static/images/cards/back_of_red_moons.svg"" width=""175px"" height=""250px""></img></td>
    <td width=300 height=300><img src=""static/images/cards/10_of_red_moons.svg"" width=""175px"" height=""250px""></img></td>
  </tr>
  <tr height=200>
    <td width=300></td>
    <td width=300><img src=""static/images/keys/m.svg"" width=""35%"" height=""75%""></img></td>
  </tr>
</table>
  ",,,,,,,,,,,,,,,,,,,,,,,,,,,,
167,0,,html-keyboard-response,167,431588,0.0-7.2-3.2,2d1dtlyr6d8,2022-09-19 17:09:06.278,5e89ba09ec9b3364b1fc0bd1,2,63,60,39,43,43,male,,,"<p style=""font-size:50px"">You Lose!
No points this round.</p>",,,,,,,,,,,,,,,,,,,,,,,,,,,,
168,0,,html-keyboard-response,168,432094,0.0-7.2-4.2,2d1dtlyr6d8,2022-09-19 17:09:06.278,5e89ba09ec9b3364b1fc0bd1,2,63,60,39,43,43,male,,,,,,1.0,choice,2.0,B,D,red,red,stars,moons,B,D,D,red,moons,1547.1000000089,0.0,0.0,0,right,1086.400000006,10.0,1.0,0.0,,,
169,0,,html-keyboard-response,169,432770,0.0-7.3-0.3,2d1dtlyr6d8,2022-09-19 17:09:06.278,5e89ba09ec9b3364b1fc0bd1,2,63,60,39,43,43,male,674.299999997,,"
  <table>
  <tr height=300>
    <td width=300 height=300><img src=""static/images/cards/stack_of_black_stars.svg"" width=""175px"" height=""250px""></img></td>
    <td width=300 height=300><img src=""static/images/cards/stack_of_red_moons.svg"" width=""175px"" height=""250px""></img></td>
  </tr>
  <tr height=200>
    <td width=300><img src=""static/images/keys/w.svg"" width=""35%"" height=""75%""></img></td>
    <td width=300><img src=""static/images/keys/o.svg"" width=""35%"" height=""75%""></img></td>
  </tr>
</table>
  ",79.0,1.0,,,,,,,,,,,,,,,,,,,,,,,,,,
170,0,,html-keyboard-response,170,434144,0.0-7.3-1.3,2d1dtlyr6d8,2022-09-19 17:09:06.278,5e89ba09ec9b3364b1fc0bd1,2,63,60,39,43,43,male,872.3999999911,,"
  <table>
  <tr height=300>
    <td width=300 height=300><img src=""static/images/cards/back_of_red_moons.svg"" width=""175px"" height=""250px""></img></td>
    <td width=300 height=300><img src=""static/images/cards/back_of_red_moons.svg"" width=""175px"" height=""250px""></img></td>
  </tr>
  <tr height=200>
    <td width=300></td>
    <td width=300><img src=""static/images/keys/m.svg"" width=""35%"" height=""75%""></img></td>
  </tr>
</table>
  ",77.0,1.0,,,,,,,,,,,,,,,,,,,,,,,,,,
171,0,,html-keyboard-response,171,435645,0.0-7.3-2.3,2d1dtlyr6d8,2022-09-19 17:09:06.278,5e89ba09ec9b3364b1fc0bd1,2,63,60,39,43,43,male,,,"
  <table>
  <tr height=300>
    <td width=300 height=300><img src=""static/images/cards/back_of_red_moons.svg"" width=""175px"" height=""250px""></img></td>
    <td width=300 height=300><img src=""static/images/cards/7_of_red_moons.svg"" width=""175px"" height=""250px""></img></td>
  </tr>
  <tr height=200>
    <td width=300></td>
    <td width=300><img src=""static/images/keys/m.svg"" width=""35%"" height=""75%""></img></td>
  </tr>
</table>
  ",,,,,,,,,,,,,,,,,,,,,,,,,,,,
172,0,,html-keyboard-response,172,437149,0.0-7.3-3.3,2d1dtlyr6d8,2022-09-19 17:09:06.278,5e89ba09ec9b3364b1fc0bd1,2,63,60,39,43,43,male,,,"<p style=""font-size:50px"">You win!
+10 points this round!</p>",,,,,,,,,,,,,,,,,,,,,,,,,,,,
173,0,,html-keyboard-response,173,437660,0.0-7.3-4.3,2d1dtlyr6d8,2022-09-19 17:09:06.278,5e89ba09ec9b3364b1fc0bd1,2,63,60,39,43,43,male,,,,,,1.0,choice,3.0,A,D,black,red,stars,moons,A,D,D,red,moons,674.299999997,0.0,0.0,0,right,872.3999999911,7.0,1.0,1.0,,,
174,0,,html-keyboard-response,174,438491,0.0-7.4-0.4,2d1dtlyr6d8,2022-09-19 17:09:06.278,5e89ba09ec9b3364b1fc0bd1,2,63,60,39,43,43,male,830.0,,"
  <table>
  <tr height=300>
    <td width=300 height=300><img src=""static/images/cards/stack_of_black_moons.svg"" width=""175px"" height=""250px""></img></td>
    <td width=300 height=300><img src=""static/images/cards/stack_of_red_moons.svg"" width=""175px"" height=""250px""></img></td>
  </tr>
  <tr height=200>
    <td width=300><img src=""static/images/keys/w.svg"" width=""35%"" height=""75%""></img></td>
    <td width=300><img src=""static/images/keys/o.svg"" width=""35%"" height=""75%""></img></td>
  </tr>
</table>
  ",79.0,1.0,,,,,,,,,,,,,,,,,,,,,,,,,,
175,0,,html-keyboard-response,175,440347,0.0-7.4-1.4,2d1dtlyr6d8,2022-09-19 17:09:06.278,5e89ba09ec9b3364b1fc0bd1,2,63,60,39,43,43,male,1350.1999999881,,"
  <table>
  <tr height=300>
    <td width=300 height=300><img src=""static/images/cards/back_of_red_moons.svg"" width=""175px"" height=""250px""></img></td>
    <td width=300 height=300><img src=""static/images/cards/back_of_red_moons.svg"" width=""175px"" height=""250px""></img></td>
  </tr>
  <tr height=200>
    <td width=300><img src=""static/images/keys/z.svg"" width=""35%"" height=""75%""></img></td>
    <td width=300></td>
  </tr>
</table>
  ",90.0,1.0,,,,,,,,,,,,,,,,,,,,,,,,,,
176,0,,html-keyboard-response,176,441849,0.0-7.4-2.4,2d1dtlyr6d8,2022-09-19 17:09:06.278,5e89ba09ec9b3364b1fc0bd1,2,63,60,39,43,43,male,,,"
  <table>
  <tr height=300>
    <td width=300 height=300><img src=""static/images/cards/10_of_red_moons.svg"" width=""175px"" height=""250px""></img></td>
    <td width=300 height=300><img src=""static/images/cards/back_of_red_moons.svg"" width=""175px"" height=""250px""></img></td>
  </tr>
  <tr height=200>
    <td width=300><img src=""static/images/keys/z.svg"" width=""35%"" height=""75%""></img></td>
    <td width=300></td>
  </tr>
</table>
  ",,,,,,,,,,,,,,,,,,,,,,,,,,,,
177,0,,html-keyboard-response,177,443360,0.0-7.4-3.4,2d1dtlyr6d8,2022-09-19 17:09:06.278,5e89ba09ec9b3364b1fc0bd1,2,63,60,39,43,43,male,,,"<p style=""font-size:50px"">You win!
+10 points this round!</p>",,,,,,,,,,,,,,,,,,,,,,,,,,,,
178,0,,html-keyboard-response,178,443867,0.0-7.4-4.4,2d1dtlyr6d8,2022-09-19 17:09:06.278,5e89ba09ec9b3364b1fc0bd1,2,63,60,39,43,43,male,,,,,,1.0,choice,4.0,C,D,black,red,moons,moons,C,D,D,red,moons,830.0,0.0,0.0,1,left,1350.1999999881,10.0,1.0,1.0,,,
179,0,,html-keyboard-response,179,446323,0.0-7.5-0.5,2d1dtlyr6d8,2022-09-19 17:09:06.278,5e89ba09ec9b3364b1fc0bd1,2,63,60,39,43,43,male,2455.0,,"
  <table>
  <tr height=300>
    <td width=300 height=300><img src=""static/images/cards/stack_of_red_moons.svg"" width=""175px"" height=""250px""></img></td>
    <td width=300 height=300><img src=""static/images/cards/stack_of_black_moons.svg"" width=""175px"" height=""250px""></img></td>
  </tr>
  <tr height=200>
    <td width=300><img src=""static/images/keys/w.svg"" width=""35%"" height=""75%""></img></td>
    <td width=300><img src=""static/images/keys/o.svg"" width=""35%"" height=""75%""></img></td>
  </tr>
</table>
  ",87.0,1.0,,,,,,,,,,,,,,,,,,,,,,,,,,
180,0,,html-keyboard-response,180,447835,0.0-7.5-1.5,2d1dtlyr6d8,2022-09-19 17:09:06.278,5e89ba09ec9b3364b1fc0bd1,2,63,60,39,43,43,male,1008.6000000089,,"
  <table>
  <tr height=300>
    <td width=300 height=300><img src=""static/images/cards/back_of_red_moons.svg"" width=""175px"" height=""250px""></img></td>
    <td width=300 height=300><img src=""static/images/cards/back_of_red_moons.svg"" width=""175px"" height=""250px""></img></td>
  </tr>
  <tr height=200>
    <td width=300><img src=""static/images/keys/z.svg"" width=""35%"" height=""75%""></img></td>
    <td width=300></td>
  </tr>
</table>
  ",90.0,1.0,,,,,,,,,,,,,,,,,,,,,,,,,,
181,0,,html-keyboard-response,181,449341,0.0-7.5-2.5,2d1dtlyr6d8,2022-09-19 17:09:06.278,5e89ba09ec9b3364b1fc0bd1,2,63,60,39,43,43,male,,,"
  <table>
  <tr height=300>
    <td width=300 height=300><img src=""static/images/cards/7_of_red_moons.svg"" width=""175px"" height=""250px""></img></td>
    <td width=300 height=300><img src=""static/images/cards/back_of_red_moons.svg"" width=""175px"" height=""250px""></img></td>
  </tr>
  <tr height=200>
    <td width=300><img src=""static/images/keys/z.svg"" width=""35%"" height=""75%""></img></td>
    <td width=300></td>
  </tr>
</table>
  ",,,,,,,,,,,,,,,,,,,,,,,,,,,,
182,0,,html-keyboard-response,182,450850,0.0-7.5-3.5,2d1dtlyr6d8,2022-09-19 17:09:06.278,5e89ba09ec9b3364b1fc0bd1,2,63,60,39,43,43,male,,,"<p style=""font-size:50px"">You Lose!
No points this round.</p>",,,,,,,,,,,,,,,,,,,,,,,,,,,,
183,0,,html-keyboard-response,183,451360,0.0-7.5-4.5,2d1dtlyr6d8,2022-09-19 17:09:06.278,5e89ba09ec9b3364b1fc0bd1,2,63,60,39,43,43,male,,,,,,1.0,choice,5.0,C,D,red,black,moons,moons,D,C,D,red,moons,2455.0,0.0,0.0,1,left,1008.6000000089,7.0,1.0,0.0,,,
184,0,,html-keyboard-response,184,454098,0.0-7.6-0.6,2d1dtlyr6d8,2022-09-19 17:09:06.278,5e89ba09ec9b3364b1fc0bd1,2,63,60,39,43,43,male,2736.5,,"
  <table>
  <tr height=300>
    <td width=300 height=300><img src=""static/images/cards/stack_of_black_stars.svg"" width=""175px"" height=""250px""></img></td>
    <td width=300 height=300><img src=""static/images/cards/stack_of_red_stars.svg"" width=""175px"" height=""250px""></img></td>
  </tr>
  <tr height=200>
    <td width=300><img src=""static/images/keys/w.svg"" width=""35%"" height=""75%""></img></td>
    <td width=300><img src=""static/images/keys/o.svg"" width=""35%"" height=""75%""></img></td>
  </tr>
</table>
  ",79.0,1.0,,,,,,,,,,,,,,,,,,,,,,,,,,
185,0,,html-keyboard-response,185,455548,0.0-7.6-1.6,2d1dtlyr6d8,2022-09-19 17:09:06.278,5e89ba09ec9b3364b1fc0bd1,2,63,60,39,43,43,male,947.599999994,,"
  <table>
  <tr height=300>
    <td width=300 height=300><img src=""static/images/cards/back_of_red_stars.svg"" width=""175px"" height=""250px""></img></td>
    <td width=300 height=300><img src=""static/images/cards/back_of_red_stars.svg"" width=""175px"" height=""250px""></img></td>
  </tr>
  <tr height=200>
    <td width=300></td>
    <td width=300><img src=""static/images/keys/m.svg"" width=""35%"" height=""75%""></img></td>
  </tr>
</table>
  ",77.0,1.0,,,,,,,,,,,,,,,,,,,,,,,,,,
186,0,,html-keyboard-response,186,457050,0.0-7.6-2.6,2d1dtlyr6d8,2022-09-19 17:09:06.278,5e89ba09ec9b3364b1fc0bd1,2,63,60,39,43,43,male,,,"
  <table>
  <tr height=300>
    <td width=300 height=300><img src=""static/images/cards/back_of_red_stars.svg"" width=""175px"" height=""250px""></img></td>
    <td width=300 height=300><img src=""static/images/cards/10_of_red_stars.svg"" width=""175px"" height=""250px""></img></td>
  </tr>
  <tr height=200>
    <td width=300></td>
    <td width=300><img src=""static/images/keys/m.svg"" width=""35%"" height=""75%""></img></td>
  </tr>
</table>
  ",,,,,,,,,,,,,,,,,,,,,,,,,,,,
187,0,,html-keyboard-response,187,458559,0.0-7.6-3.6,2d1dtlyr6d8,2022-09-19 17:09:06.278,5e89ba09ec9b3364b1fc0bd1,2,63,60,39,43,43,male,,,"<p style=""font-size:50px"">You win!
+10 points this round!</p>",,,,,,,,,,,,,,,,,,,,,,,,,,,,
188,0,,html-keyboard-response,188,459069,0.0-7.6-4.6,2d1dtlyr6d8,2022-09-19 17:09:06.278,5e89ba09ec9b3364b1fc0bd1,2,63,60,39,43,43,male,,,,,,1.0,choice,6.0,A,B,black,red,stars,stars,A,B,B,red,stars,2736.5,0.0,1.0,0,right,947.599999994,10.0,1.0,1.0,,,
189,0,,html-keyboard-response,189,460956,0.0-7.7-0.7,2d1dtlyr6d8,2022-09-19 17:09:06.278,5e89ba09ec9b3364b1fc0bd1,2,63,60,39,43,43,male,1885.299999997,,"
  <table>
  <tr height=300>
    <td width=300 height=300><img src=""static/images/cards/stack_of_black_stars.svg"" width=""175px"" height=""250px""></img></td>
    <td width=300 height=300><img src=""static/images/cards/stack_of_red_stars.svg"" width=""175px"" height=""250px""></img></td>
  </tr>
  <tr height=200>
    <td width=300><img src=""static/images/keys/w.svg"" width=""35%"" height=""75%""></img></td>
    <td width=300><img src=""static/images/keys/o.svg"" width=""35%"" height=""75%""></img></td>
  </tr>
</table>
  ",79.0,1.0,,,,,,,,,,,,,,,,,,,,,,,,,,
190,0,,html-keyboard-response,190,462499,0.0-7.7-1.7,2d1dtlyr6d8,2022-09-19 17:09:06.278,5e89ba09ec9b3364b1fc0bd1,2,63,60,39,43,43,male,1042.1999999881,,"
  <table>
  <tr height=300>
    <td width=300 height=300><img src=""static/images/cards/back_of_red_stars.svg"" width=""175px"" height=""250px""></img></td>
    <td width=300 height=300><img src=""static/images/cards/back_of_red_stars.svg"" width=""175px"" height=""250px""></img></td>
  </tr>
  <tr height=200>
    <td width=300></td>
    <td width=300><img src=""static/images/keys/m.svg"" width=""35%"" height=""75%""></img></td>
  </tr>
</table>
  ",77.0,1.0,,,,,,,,,,,,,,,,,,,,,,,,,,
191,0,,html-keyboard-response,191,464004,0.0-7.7-2.7,2d1dtlyr6d8,2022-09-19 17:09:06.278,5e89ba09ec9b3364b1fc0bd1,2,63,60,39,43,43,male,,,"
  <table>
  <tr height=300>
    <td width=300 height=300><img src=""static/images/cards/back_of_red_stars.svg"" width=""175px"" height=""250px""></img></td>
    <td width=300 height=300><img src=""static/images/cards/2_of_red_stars.svg"" width=""175px"" height=""250px""></img></td>
  </tr>
  <tr height=200>
    <td width=300></td>
    <td width=300><img src=""static/images/keys/m.svg"" width=""35%"" height=""75%""></img></td>
  </tr>
</table>
  ",,,,,,,,,,,,,,,,,,,,,,,,,,,,
192,0,,html-keyboard-response,192,465510,0.0-7.7-3.7,2d1dtlyr6d8,2022-09-19 17:09:06.278,5e89ba09ec9b3364b1fc0bd1,2,63,60,39,43,43,male,,,"<p style=""font-size:50px"">You Lose!
No points this round.</p>",,,,,,,,,,,,,,,,,,,,,,,,,,,,
193,0,,html-keyboard-response,193,466020,0.0-7.7-4.7,2d1dtlyr6d8,2022-09-19 17:09:06.278,5e89ba09ec9b3364b1fc0bd1,2,63,60,39,43,43,male,,,,,,1.0,choice,7.0,A,B,black,red,stars,stars,A,B,B,red,stars,1885.299999997,0.0,1.0,0,right,1042.1999999881,2.0,0.0,0.0,,,
194,0,,html-keyboard-response,194,468076,0.0-7.8-0.8,2d1dtlyr6d8,2022-09-19 17:09:06.278,5e89ba09ec9b3364b1fc0bd1,2,63,60,39,43,43,male,2054.799999997,,"
  <table>
  <tr height=300>
    <td width=300 height=300><img src=""static/images/cards/stack_of_red_stars.svg"" width=""175px"" height=""250px""></img></td>
    <td width=300 height=300><img src=""static/images/cards/stack_of_red_bolts.svg"" width=""175px"" height=""250px""></img></td>
  </tr>
  <tr height=200>
    <td width=300><img src=""static/images/keys/w.svg"" width=""35%"" height=""75%""></img></td>
    <td width=300><img src=""static/images/keys/o.svg"" width=""35%"" height=""75%""></img></td>
  </tr>
</table>
  ",79.0,1.0,,,,,,,,,,,,,,,,,,,,,,,,,,
195,0,,html-keyboard-response,195,470075,0.0-7.8-1.8,2d1dtlyr6d8,2022-09-19 17:09:06.278,5e89ba09ec9b3364b1fc0bd1,2,63,60,39,43,43,male,1325.700000003,,"
  <table>
  <tr height=300>
    <td width=300 height=300><img src=""static/images/cards/back_of_red_bolts.svg"" width=""175px"" height=""250px""></img></td>
    <td width=300 height=300><img src=""static/images/cards/back_of_red_bolts.svg"" width=""175px"" height=""250px""></img></td>
  </tr>
  <tr height=200>
    <td width=300><img src=""static/images/keys/z.svg"" width=""35%"" height=""75%""></img></td>
    <td width=300><img src=""static/images/keys/m.svg"" width=""35%"" height=""75%""></img></td>
  </tr>
</table>
  ",77.0,1.0,,,,,,,,,,,,,,,,,,,,,,,,,,
196,0,,html-keyboard-response,196,471581,0.0-7.8-2.8,2d1dtlyr6d8,2022-09-19 17:09:06.278,5e89ba09ec9b3364b1fc0bd1,2,63,60,39,43,43,male,,,"
  <table>
  <tr height=300>
    <td width=300 height=300><img src=""static/images/cards/back_of_red_bolts.svg"" width=""175px"" height=""250px""></img></td>
    <td width=300 height=300><img src=""static/images/cards/9_of_red_bolts.svg"" width=""175px"" height=""250px""></img></td>
  </tr>
  <tr height=200>
    <td width=300><img src=""static/images/keys/z.svg"" width=""35%"" height=""75%""></img></td>
    <td width=300><img src=""static/images/keys/m.svg"" width=""35%"" height=""75%""></img></td>
  </tr>
</table>
  ",,,,,,,,,,,,,,,,,,,,,,,,,,,,
197,0,,html-keyboard-response,197,473086,0.0-7.8-3.8,2d1dtlyr6d8,2022-09-19 17:09:06.278,5e89ba09ec9b3364b1fc0bd1,2,63,60,39,43,43,male,,,"<p style=""font-size:50px"">You win!
+10 points this round!</p>",,,,,,,,,,,,,,,,,,,,,,,,,,,,
198,0,,html-keyboard-response,198,473592,0.0-7.8-4.8,2d1dtlyr6d8,2022-09-19 17:09:06.278,5e89ba09ec9b3364b1fc0bd1,2,63,60,39,43,43,male,,,,,,1.0,choice,8.0,B,Xc,red,red,stars,bolts,B,Xc,Xc,red,bolts,2054.799999997,1.0,0.0,NA,right,1325.700000003,9.0,1.0,1.0,,,
199,0,,html-keyboard-response,199,474701,0.0-7.9-0.9,2d1dtlyr6d8,2022-09-19 17:09:06.278,5e89ba09ec9b3364b1fc0bd1,2,63,60,39,43,43,male,1107.700000003,,"
  <table>
  <tr height=300>
    <td width=300 height=300><img src=""static/images/cards/stack_of_red_stars.svg"" width=""175px"" height=""250px""></img></td>
    <td width=300 height=300><img src=""static/images/cards/stack_of_black_moons.svg"" width=""175px"" height=""250px""></img></td>
  </tr>
  <tr height=200>
    <td width=300><img src=""static/images/keys/w.svg"" width=""35%"" height=""75%""></img></td>
    <td width=300><img src=""static/images/keys/o.svg"" width=""35%"" height=""75%""></img></td>
  </tr>
</table>
  ",79.0,1.0,,,,,,,,,,,,,,,,,,,,,,,,,,
200,0,,html-keyboard-response,200,475987,0.0-7.9-1.9,2d1dtlyr6d8,2022-09-19 17:09:06.278,5e89ba09ec9b3364b1fc0bd1,2,63,60,39,43,43,male,780.700000003,,"
  <table>
  <tr height=300>
    <td width=300 height=300><img src=""static/images/cards/back_of_black_moons.svg"" width=""175px"" height=""250px""></img></td>
    <td width=300 height=300><img src=""static/images/cards/back_of_black_moons.svg"" width=""175px"" height=""250px""></img></td>
  </tr>
  <tr height=200>
    <td width=300><img src=""static/images/keys/z.svg"" width=""35%"" height=""75%""></img></td>
    <td width=300><img src=""static/images/keys/m.svg"" width=""35%"" height=""75%""></img></td>
  </tr>
</table>
  ",77.0,1.0,,,,,,,,,,,,,,,,,,,,,,,,,,
201,0,,html-keyboard-response,201,477493,0.0-7.9-2.9,2d1dtlyr6d8,2022-09-19 17:09:06.278,5e89ba09ec9b3364b1fc0bd1,2,63,60,39,43,43,male,,,"
  <table>
  <tr height=300>
    <td width=300 height=300><img src=""static/images/cards/back_of_black_moons.svg"" width=""175px"" height=""250px""></img></td>
    <td width=300 height=300><img src=""static/images/cards/6_of_black_moons.svg"" width=""175px"" height=""250px""></img></td>
  </tr>
  <tr height=200>
    <td width=300><img src=""static/images/keys/z.svg"" width=""35%"" height=""75%""></img></td>
    <td width=300><img src=""static/images/keys/m.svg"" width=""35%"" height=""75%""></img></td>
  </tr>
</table>
  ",,,,,,,,,,,,,,,,,,,,,,,,,,,,
202,0,,html-keyboard-response,202,479000,0.0-7.9-3.9,2d1dtlyr6d8,2022-09-19 17:09:06.278,5e89ba09ec9b3364b1fc0bd1,2,63,60,39,43,43,male,,,"<p style=""font-size:50px"">You Lose!
No points this round.</p>",,,,,,,,,,,,,,,,,,,,,,,,,,,,
203,0,,html-keyboard-response,203,479508,0.0-7.9-4.9,2d1dtlyr6d8,2022-09-19 17:09:06.278,5e89ba09ec9b3364b1fc0bd1,2,63,60,39,43,43,male,,,,,,1.0,choice,9.0,B,C,red,black,stars,moons,B,C,C,black,moons,1107.700000003,1.0,0.0,NA,right,780.700000003,6.0,1.0,0.0,,,
204,0,,html-keyboard-response,204,482716,0.0-7.10-0.10,2d1dtlyr6d8,2022-09-19 17:09:06.278,5e89ba09ec9b3364b1fc0bd1,2,63,60,39,43,43,male,3207.0,,"
  <table>
  <tr height=300>
    <td width=300 height=300><img src=""static/images/cards/stack_of_black_moons.svg"" width=""175px"" height=""250px""></img></td>
    <td width=300 height=300><img src=""static/images/cards/stack_of_black_stars.svg"" width=""175px"" height=""250px""></img></td>
  </tr>
  <tr height=200>
    <td width=300><img src=""static/images/keys/w.svg"" width=""35%"" height=""75%""></img></td>
    <td width=300><img src=""static/images/keys/o.svg"" width=""35%"" height=""75%""></img></td>
  </tr>
</table>
  ",79.0,1.0,,,,,,,,,,,,,,,,,,,,,,,,,,
205,0,,html-keyboard-response,205,484212,0.0-7.10-1.10,2d1dtlyr6d8,2022-09-19 17:09:06.278,5e89ba09ec9b3364b1fc0bd1,2,63,60,39,43,43,male,992.299999997,,"
  <table>
  <tr height=300>
    <td width=300 height=300><img src=""static/images/cards/back_of_black_stars.svg"" width=""175px"" height=""250px""></img></td>
    <td width=300 height=300><img src=""static/images/cards/back_of_black_stars.svg"" width=""175px"" height=""250px""></img></td>
  </tr>
  <tr height=200>
    <td width=300><img src=""static/images/keys/z.svg"" width=""35%"" height=""75%""></img></td>
    <td width=300><img src=""static/images/keys/m.svg"" width=""35%"" height=""75%""></img></td>
  </tr>
</table>
  ",77.0,1.0,,,,,,,,,,,,,,,,,,,,,,,,,,
206,0,,html-keyboard-response,206,485714,0.0-7.10-2.10,2d1dtlyr6d8,2022-09-19 17:09:06.278,5e89ba09ec9b3364b1fc0bd1,2,63,60,39,43,43,male,,,"
  <table>
  <tr height=300>
    <td width=300 height=300><img src=""static/images/cards/back_of_black_stars.svg"" width=""175px"" height=""250px""></img></td>
    <td width=300 height=300><img src=""static/images/cards/1_of_black_stars.svg"" width=""175px"" height=""250px""></img></td>
  </tr>
  <tr height=200>
    <td width=300><img src=""static/images/keys/z.svg"" width=""35%"" height=""75%""></img></td>
    <td width=300><img src=""static/images/keys/m.svg"" width=""35%"" height=""75%""></img></td>
  </tr>
</table>
  ",,,,,,,,,,,,,,,,,,,,,,,,,,,,
207,0,,html-keyboard-response,207,487222,0.0-7.10-3.10,2d1dtlyr6d8,2022-09-19 17:09:06.278,5e89ba09ec9b3364b1fc0bd1,2,63,60,39,43,43,male,,,"<p style=""font-size:50px"">You Lose!
No points this round.</p>",,,,,,,,,,,,,,,,,,,,,,,,,,,,
208,0,,html-keyboard-response,208,487733,0.0-7.10-4.10,2d1dtlyr6d8,2022-09-19 17:09:06.278,5e89ba09ec9b3364b1fc0bd1,2,63,60,39,43,43,male,,,,,,1.0,choice,10.0,A,C,black,black,moons,stars,C,A,A,black,stars,3207.0,1.0,1.0,NA,right,992.299999997,1.0,0.0,0.0,,,
209,0,,html-keyboard-response,209,489485,0.0-7.11-0.11,2d1dtlyr6d8,2022-09-19 17:09:06.278,5e89ba09ec9b3364b1fc0bd1,2,63,60,39,43,43,male,1750.6000000089,,"
  <table>
  <tr height=300>
    <td width=300 height=300><img src=""static/images/cards/stack_of_black_bolts.svg"" width=""175px"" height=""250px""></img></td>
    <td width=300 height=300><img src=""static/images/cards/stack_of_black_stars.svg"" width=""175px"" height=""250px""></img></td>
  </tr>
  <tr height=200>
    <td width=300><img src=""static/images/keys/w.svg"" width=""35%"" height=""75%""></img></td>
    <td width=300><img src=""static/images/keys/o.svg"" width=""35%"" height=""75%""></img></td>
  </tr>
</table>
  ",87.0,1.0,,,,,,,,,,,,,,,,,,,,,,,,,,
210,0,,html-keyboard-response,210,492310,0.0-7.11-1.11,2d1dtlyr6d8,2022-09-19 17:09:06.278,5e89ba09ec9b3364b1fc0bd1,2,63,60,39,43,43,male,2320.400000006,,"
  <table>
  <tr height=300>
    <td width=300 height=300><img src=""static/images/cards/back_of_black_bolts.svg"" width=""175px"" height=""250px""></img></td>
    <td width=300 height=300><img src=""static/images/cards/back_of_black_bolts.svg"" width=""175px"" height=""250px""></img></td>
  </tr>
  <tr height=200>
    <td width=300><img src=""static/images/keys/z.svg"" width=""35%"" height=""75%""></img></td>
    <td width=300></td>
  </tr>
</table>
  ",90.0,1.0,,,,,,,,,,,,,,,,,,,,,,,,,,
211,0,,html-keyboard-response,211,493830,0.0-7.11-2.11,2d1dtlyr6d8,2022-09-19 17:09:06.278,5e89ba09ec9b3364b1fc0bd1,2,63,60,39,43,43,male,,,"
  <table>
  <tr height=300>
    <td width=300 height=300><img src=""static/images/cards/8_of_black_bolts.svg"" width=""175px"" height=""250px""></img></td>
    <td width=300 height=300><img src=""static/images/cards/back_of_black_bolts.svg"" width=""175px"" height=""250px""></img></td>
  </tr>
  <tr height=200>
    <td width=300><img src=""static/images/keys/z.svg"" width=""35%"" height=""75%""></img></td>
    <td width=300></td>
  </tr>
</table>
  ",,,,,,,,,,,,,,,,,,,,,,,,,,,,
212,0,,html-keyboard-response,212,495335,0.0-7.11-3.11,2d1dtlyr6d8,2022-09-19 17:09:06.278,5e89ba09ec9b3364b1fc0bd1,2,63,60,39,43,43,male,,,"<p style=""font-size:50px"">You win!
+10 points this round!</p>",,,,,,,,,,,,,,,,,,,,,,,,,,,,
213,0,,html-keyboard-response,213,495843,0.0-7.11-4.11,2d1dtlyr6d8,2022-09-19 17:09:06.278,5e89ba09ec9b3364b1fc0bd1,2,63,60,39,43,43,male,,,,,,1.0,choice,11.0,A,Xnc,black,black,bolts,stars,Xnc,A,Xnc,black,bolts,1750.6000000089,0.0,0.0,1,left,2320.400000006,8.0,1.0,1.0,,,
214,0,,html-keyboard-response,214,498044,0.0-7.12-0.12,2d1dtlyr6d8,2022-09-19 17:09:06.278,5e89ba09ec9b3364b1fc0bd1,2,63,60,39,43,43,male,2199.700000003,,"
  <table>
  <tr height=300>
    <td width=300 height=300><img src=""static/images/cards/stack_of_red_stars.svg"" width=""175px"" height=""250px""></img></td>
    <td width=300 height=300><img src=""static/images/cards/stack_of_red_moons.svg"" width=""175px"" height=""250px""></img></td>
  </tr>
  <tr height=200>
    <td width=300><img src=""static/images/keys/w.svg"" width=""35%"" height=""75%""></img></td>
    <td width=300><img src=""static/images/keys/o.svg"" width=""35%"" height=""75%""></img></td>
  </tr>
</table>
  ",79.0,1.0,,,,,,,,,,,,,,,,,,,,,,,,,,
215,0,,html-keyboard-response,215,499790,0.0-7.12-1.12,2d1dtlyr6d8,2022-09-19 17:09:06.278,5e89ba09ec9b3364b1fc0bd1,2,63,60,39,43,43,male,1239.599999994,,"
  <table>
  <tr height=300>
    <td width=300 height=300><img src=""static/images/cards/back_of_red_moons.svg"" width=""175px"" height=""250px""></img></td>
    <td width=300 height=300><img src=""static/images/cards/back_of_red_moons.svg"" width=""175px"" height=""250px""></img></td>
  </tr>
  <tr height=200>
    <td width=300><img src=""static/images/keys/z.svg"" width=""35%"" height=""75%""></img></td>
    <td width=300></td>
  </tr>
</table>
  ",90.0,1.0,,,,,,,,,,,,,,,,,,,,,,,,,,
216,0,,html-keyboard-response,216,501296,0.0-7.12-2.12,2d1dtlyr6d8,2022-09-19 17:09:06.278,5e89ba09ec9b3364b1fc0bd1,2,63,60,39,43,43,male,,,"
  <table>
  <tr height=300>
    <td width=300 height=300><img src=""static/images/cards/4_of_red_moons.svg"" width=""175px"" height=""250px""></img></td>
    <td width=300 height=300><img src=""static/images/cards/back_of_red_moons.svg"" width=""175px"" height=""250px""></img></td>
  </tr>
  <tr height=200>
    <td width=300><img src=""static/images/keys/z.svg"" width=""35%"" height=""75%""></img></td>
    <td width=300></td>
  </tr>
</table>
  ",,,,,,,,,,,,,,,,,,,,,,,,,,,,
217,0,,html-keyboard-response,217,502804,0.0-7.12-3.12,2d1dtlyr6d8,2022-09-19 17:09:06.278,5e89ba09ec9b3364b1fc0bd1,2,63,60,39,43,43,male,,,"<p style=""font-size:50px"">You Lose!
No points this round.</p>",,,,,,,,,,,,,,,,,,,,,,,,,,,,
218,0,,html-keyboard-response,218,503314,0.0-7.12-4.12,2d1dtlyr6d8,2022-09-19 17:09:06.278,5e89ba09ec9b3364b1fc0bd1,2,63,60,39,43,43,male,,,,,,1.0,choice,12.0,B,D,red,red,stars,moons,B,D,D,red,moons,2199.700000003,0.0,0.0,1,left,1239.599999994,4.0,0.0,0.0,,,
219,0,,html-keyboard-response,219,505734,0.0-7.13-0.13,2d1dtlyr6d8,2022-09-19 17:09:06.278,5e89ba09ec9b3364b1fc0bd1,2,63,60,39,43,43,male,2418.799999997,,"
  <table>
  <tr height=300>
    <td width=300 height=300><img src=""static/images/cards/stack_of_black_stars.svg"" width=""175px"" height=""250px""></img></td>
    <td width=300 height=300><img src=""static/images/cards/stack_of_red_moons.svg"" width=""175px"" height=""250px""></img></td>
  </tr>
  <tr height=200>
    <td width=300><img src=""static/images/keys/w.svg"" width=""35%"" height=""75%""></img></td>
    <td width=300><img src=""static/images/keys/o.svg"" width=""35%"" height=""75%""></img></td>
  </tr>
</table>
  ",79.0,1.0,,,,,,,,,,,,,,,,,,,,,,,,,,
220,0,,html-keyboard-response,220,507349,0.0-7.13-1.13,2d1dtlyr6d8,2022-09-19 17:09:06.278,5e89ba09ec9b3364b1fc0bd1,2,63,60,39,43,43,male,1110.8999999911,,"
  <table>
  <tr height=300>
    <td width=300 height=300><img src=""static/images/cards/back_of_red_moons.svg"" width=""175px"" height=""250px""></img></td>
    <td width=300 height=300><img src=""static/images/cards/back_of_red_moons.svg"" width=""175px"" height=""250px""></img></td>
  </tr>
  <tr height=200>
    <td width=300></td>
    <td width=300><img src=""static/images/keys/m.svg"" width=""35%"" height=""75%""></img></td>
  </tr>
</table>
  ",77.0,1.0,,,,,,,,,,,,,,,,,,,,,,,,,,
221,0,,html-keyboard-response,221,508855,0.0-7.13-2.13,2d1dtlyr6d8,2022-09-19 17:09:06.278,5e89ba09ec9b3364b1fc0bd1,2,63,60,39,43,43,male,,,"
  <table>
  <tr height=300>
    <td width=300 height=300><img src=""static/images/cards/back_of_red_moons.svg"" width=""175px"" height=""250px""></img></td>
    <td width=300 height=300><img src=""static/images/cards/3_of_red_moons.svg"" width=""175px"" height=""250px""></img></td>
  </tr>
  <tr height=200>
    <td width=300></td>
    <td width=300><img src=""static/images/keys/m.svg"" width=""35%"" height=""75%""></img></td>
  </tr>
</table>
  ",,,,,,,,,,,,,,,,,,,,,,,,,,,,
222,0,,html-keyboard-response,222,510366,0.0-7.13-3.13,2d1dtlyr6d8,2022-09-19 17:09:06.278,5e89ba09ec9b3364b1fc0bd1,2,63,60,39,43,43,male,,,"<p style=""font-size:50px"">You Lose!
No points this round.</p>",,,,,,,,,,,,,,,,,,,,,,,,,,,,
223,0,,html-keyboard-response,223,510876,0.0-7.13-4.13,2d1dtlyr6d8,2022-09-19 17:09:06.278,5e89ba09ec9b3364b1fc0bd1,2,63,60,39,43,43,male,,,,,,1.0,choice,13.0,A,D,black,red,stars,moons,A,D,D,red,moons,2418.799999997,0.0,0.0,0,right,1110.8999999911,3.0,0.0,0.0,,,
224,0,,html-keyboard-response,224,515109,0.0-7.14-0.14,2d1dtlyr6d8,2022-09-19 17:09:06.278,5e89ba09ec9b3364b1fc0bd1,2,63,60,39,43,43,male,4231.299999997,,"
  <table>
  <tr height=300>
    <td width=300 height=300><img src=""static/images/cards/stack_of_red_moons.svg"" width=""175px"" height=""250px""></img></td>
    <td width=300 height=300><img src=""static/images/cards/stack_of_black_stars.svg"" width=""175px"" height=""250px""></img></td>
  </tr>
  <tr height=200>
    <td width=300><img src=""static/images/keys/w.svg"" width=""35%"" height=""75%""></img></td>
    <td width=300><img src=""static/images/keys/o.svg"" width=""35%"" height=""75%""></img></td>
  </tr>
</table>
  ",79.0,1.0,,,,,,,,,,,,,,,,,,,,,,,,,,
225,0,,html-keyboard-response,225,516774,0.0-7.14-1.14,2d1dtlyr6d8,2022-09-19 17:09:06.278,5e89ba09ec9b3364b1fc0bd1,2,63,60,39,43,43,male,1161.5,,"
  <table>
  <tr height=300>
    <td width=300 height=300><img src=""static/images/cards/back_of_black_stars.svg"" width=""175px"" height=""250px""></img></td>
    <td width=300 height=300><img src=""static/images/cards/back_of_black_stars.svg"" width=""175px"" height=""250px""></img></td>
  </tr>
  <tr height=200>
    <td width=300><img src=""static/images/keys/z.svg"" width=""35%"" height=""75%""></img></td>
    <td width=300><img src=""static/images/keys/m.svg"" width=""35%"" height=""75%""></img></td>
  </tr>
</table>
  ",77.0,2.0,,,,,,,,,,,,,,,,,,,,,,,,,,
226,0,,html-keyboard-response,226,518277,0.0-7.14-2.14,2d1dtlyr6d8,2022-09-19 17:09:06.278,5e89ba09ec9b3364b1fc0bd1,2,63,60,39,43,43,male,,,"
  <table>
  <tr height=300>
    <td width=300 height=300><img src=""static/images/cards/back_of_black_stars.svg"" width=""175px"" height=""250px""></img></td>
    <td width=300 height=300><img src=""static/images/cards/8_of_black_stars.svg"" width=""175px"" height=""250px""></img></td>
  </tr>
  <tr height=200>
    <td width=300><img src=""static/images/keys/z.svg"" width=""35%"" height=""75%""></img></td>
    <td width=300><img src=""static/images/keys/m.svg"" width=""35%"" height=""75%""></img></td>
  </tr>
</table>
  ",,,,,,,,,,,,,,,,,,,,,,,,,,,,
227,0,,html-keyboard-response,227,519785,0.0-7.14-3.14,2d1dtlyr6d8,2022-09-19 17:09:06.278,5e89ba09ec9b3364b1fc0bd1,2,63,60,39,43,43,male,,,"<p style=""font-size:50px"">You win!
+10 points this round!</p>",,,,,,,,,,,,,,,,,,,,,,,,,,,,
228,0,,html-keyboard-response,228,520291,0.0-7.14-4.14,2d1dtlyr6d8,2022-09-19 17:09:06.278,5e89ba09ec9b3364b1fc0bd1,2,63,60,39,43,43,male,,,,,,1.0,choice,14.0,A,D,red,black,moons,stars,D,A,A,black,stars,4231.299999997,1.0,1.0,NA,right,1161.5,8.0,1.0,1.0,,,
229,0,,html-keyboard-response,229,521606,0.0-7.15-0.15,2d1dtlyr6d8,2022-09-19 17:09:06.278,5e89ba09ec9b3364b1fc0bd1,2,63,60,39,43,43,male,1312.799999997,,"
  <table>
  <tr height=300>
    <td width=300 height=300><img src=""static/images/cards/stack_of_black_stars.svg"" width=""175px"" height=""250px""></img></td>
    <td width=300 height=300><img src=""static/images/cards/stack_of_red_moons.svg"" width=""175px"" height=""250px""></img></td>
  </tr>
  <tr height=200>
    <td width=300><img src=""static/images/keys/w.svg"" width=""35%"" height=""75%""></img></td>
    <td width=300><img src=""static/images/keys/o.svg"" width=""35%"" height=""75%""></img></td>
  </tr>
</table>
  ",87.0,1.0,,,,,,,,,,,,,,,,,,,,,,,,,,
230,0,,html-keyboard-response,230,523344,0.0-7.15-1.15,2d1dtlyr6d8,2022-09-19 17:09:06.278,5e89ba09ec9b3364b1fc0bd1,2,63,60,39,43,43,male,1231.799999997,,"
  <table>
  <tr height=300>
    <td width=300 height=300><img src=""static/images/cards/back_of_black_stars.svg"" width=""175px"" height=""250px""></img></td>
    <td width=300 height=300><img src=""static/images/cards/back_of_black_stars.svg"" width=""175px"" height=""250px""></img></td>
  </tr>
  <tr height=200>
    <td width=300><img src=""static/images/keys/z.svg"" width=""35%"" height=""75%""></img></td>
    <td width=300><img src=""static/images/keys/m.svg"" width=""35%"" height=""75%""></img></td>
  </tr>
</table>
  ",77.0,1.0,,,,,,,,,,,,,,,,,,,,,,,,,,
231,0,,html-keyboard-response,231,524865,0.0-7.15-2.15,2d1dtlyr6d8,2022-09-19 17:09:06.278,5e89ba09ec9b3364b1fc0bd1,2,63,60,39,43,43,male,,,"
  <table>
  <tr height=300>
    <td width=300 height=300><img src=""static/images/cards/back_of_black_stars.svg"" width=""175px"" height=""250px""></img></td>
    <td width=300 height=300><img src=""static/images/cards/3_of_black_stars.svg"" width=""175px"" height=""250px""></img></td>
  </tr>
  <tr height=200>
    <td width=300><img src=""static/images/keys/z.svg"" width=""35%"" height=""75%""></img></td>
    <td width=300><img src=""static/images/keys/m.svg"" width=""35%"" height=""75%""></img></td>
  </tr>
</table>
  ",,,,,,,,,,,,,,,,,,,,,,,,,,,,
232,0,,html-keyboard-response,232,526371,0.0-7.15-3.15,2d1dtlyr6d8,2022-09-19 17:09:06.278,5e89ba09ec9b3364b1fc0bd1,2,63,60,39,43,43,male,,,"<p style=""font-size:50px"">You Lose!
No points this round.</p>",,,,,,,,,,,,,,,,,,,,,,,,,,,,
233,0,,html-keyboard-response,233,526880,0.0-7.15-4.15,2d1dtlyr6d8,2022-09-19 17:09:06.278,5e89ba09ec9b3364b1fc0bd1,2,63,60,39,43,43,male,,,,,,1.0,choice,15.0,A,D,black,red,stars,moons,A,D,A,black,stars,1312.799999997,1.0,1.0,NA,right,1231.799999997,3.0,0.0,0.0,,,
234,0,,html-keyboard-response,234,529375,0.0-7.16-0.16,2d1dtlyr6d8,2022-09-19 17:09:06.278,5e89ba09ec9b3364b1fc0bd1,2,63,60,39,43,43,male,2492.700000003,,"
  <table>
  <tr height=300>
    <td width=300 height=300><img src=""static/images/cards/stack_of_black_moons.svg"" width=""175px"" height=""250px""></img></td>
    <td width=300 height=300><img src=""static/images/cards/stack_of_black_stars.svg"" width=""175px"" height=""250px""></img></td>
  </tr>
  <tr height=200>
    <td width=300><img src=""static/images/keys/w.svg"" width=""35%"" height=""75%""></img></td>
    <td width=300><img src=""static/images/keys/o.svg"" width=""35%"" height=""75%""></img></td>
  </tr>
</table>
  ",79.0,1.0,,,,,,,,,,,,,,,,,,,,,,,,,,
235,0,,html-keyboard-response,235,530822,0.0-7.16-1.16,2d1dtlyr6d8,2022-09-19 17:09:06.278,5e89ba09ec9b3364b1fc0bd1,2,63,60,39,43,43,male,941.5,,"
  <table>
  <tr height=300>
    <td width=300 height=300><img src=""static/images/cards/back_of_black_stars.svg"" width=""175px"" height=""250px""></img></td>
    <td width=300 height=300><img src=""static/images/cards/back_of_black_stars.svg"" width=""175px"" height=""250px""></img></td>
  </tr>
  <tr height=200>
    <td width=300><img src=""static/images/keys/z.svg"" width=""35%"" height=""75%""></img></td>
    <td width=300><img src=""static/images/keys/m.svg"" width=""35%"" height=""75%""></img></td>
  </tr>
</table>
  ",77.0,1.0,,,,,,,,,,,,,,,,,,,,,,,,,,
236,0,,html-keyboard-response,236,532328,0.0-7.16-2.16,2d1dtlyr6d8,2022-09-19 17:09:06.278,5e89ba09ec9b3364b1fc0bd1,2,63,60,39,43,43,male,,,"
  <table>
  <tr height=300>
    <td width=300 height=300><img src=""static/images/cards/back_of_black_stars.svg"" width=""175px"" height=""250px""></img></td>
    <td width=300 height=300><img src=""static/images/cards/1_of_black_stars.svg"" width=""175px"" height=""250px""></img></td>
  </tr>
  <tr height=200>
