,index,success,trial_type,trial_index,time_elapsed,internal_node_id,subject,date,prol_id,ctbl,sense_of_control_A,sense_of_control_B,sense_of_control_C,sense_of_control_D,age,gender,rt,url,stimulus,key_press,is_data_trial,phase,trial,deck1,deck2,col1,col2,sym1,sym2,deck_l,deck_r,chosen_deck,chosen_col,chosen_sym,deck_rt,choose_choice,mutual_info,hidden_key,chosen_card,card_rt,player_num,win_card,outcome,mock_rating,npress,response,responses
0,0,1.0,fullscreen,0,12142,0.0-0.0,l01wn5j792,2022-09-19 13:29:34.278,5bc7a4433dec25000138c626,1,59,65,47,47,42,Male,,,,,,,,,,,,,,,,,,,,,,,,,,,,,,,
1,0,,external-html,1,31633,0.0-1.0,l01wn5j792,2022-09-19 13:29:34.278,5bc7a4433dec25000138c626,1,59,65,47,47,42,Male,18769.4000000004,static/js/sub/consent.html,,,,,,,,,,,,,,,,,,,,,,,,,,,,,
2,0,,call-function,2,31637,0.0-2.0,l01wn5j792,2022-09-19 13:29:34.278,5bc7a4433dec25000138c626,1,59,65,47,47,42,Male,,,,,,,,,,,,,,,,,,,,,,,,,,,,,,,
3,0,,image-keyboard-response,3,34000,0.0-3.0-0.0,l01wn5j792,2022-09-19 13:29:34.278,5bc7a4433dec25000138c626,1,59,65,47,47,42,Male,2361.1999999993,,static/images/instructions_CB_1/Slide1.png,39.0,,,,,,,,,,,,,,,,,,,,,,,,,,,
4,0,,image-keyboard-response,4,43153,0.0-3.1-0.1,l01wn5j792,2022-09-19 13:29:34.278,5bc7a4433dec25000138c626,1,59,65,47,47,42,Male,9151.5999999996,,static/images/instructions_CB_1/Slide2.png,39.0,,,,,,,,,,,,,,,,,,,,,,,,,,,
5,0,,image-keyboard-response,5,46363,0.0-3.2-0.2,l01wn5j792,2022-09-19 13:29:34.278,5bc7a4433dec25000138c626,1,59,65,47,47,42,Male,3209.4000000004,,static/images/instructions_CB_1/Slide3.png,39.0,,,,,,,,,,,,,,,,,,,,,,,,,,,
6,0,,image-keyboard-response,6,54253,0.0-3.3-0.3,l01wn5j792,2022-09-19 13:29:34.278,5bc7a4433dec25000138c626,1,59,65,47,47,42,Male,7888.2000000011,,static/images/instructions_CB_1/Slide4.png,39.0,,,,,,,,,,,,,,,,,,,,,,,,,,,
7,0,,image-keyboard-response,7,60308,0.0-3.4-0.4,l01wn5j792,2022-09-19 13:29:34.278,5bc7a4433dec25000138c626,1,59,65,47,47,42,Male,6054.6000000015,,static/images/instructions_CB_1/Slide5.png,39.0,,,,,,,,,,,,,,,,,,,,,,,,,,,
8,0,,image-keyboard-response,8,66859,0.0-3.5-0.5,l01wn5j792,2022-09-19 13:29:34.278,5bc7a4433dec25000138c626,1,59,65,47,47,42,Male,6561.3999999985,,static/images/instructions_CB_1/Slide6.png,39.0,,,,,,,,,,,,,,,,,,,,,,,,,,,
9,0,,image-keyboard-response,9,71208,0.0-3.6-0.6,l01wn5j792,2022-09-19 13:29:34.278,5bc7a4433dec25000138c626,1,59,65,47,47,42,Male,4348.7000000011,,static/images/instructions_CB_1/Slide7.png,39.0,,,,,,,,,,,,,,,,,,,,,,,,,,,
10,0,,image-keyboard-response,10,84872,0.0-3.7-0.7,l01wn5j792,2022-09-19 13:29:34.278,5bc7a4433dec25000138c626,1,59,65,47,47,42,Male,13662.7999999989,,static/images/instructions_CB_1/Slide8.png,39.0,,,,,,,,,,,,,,,,,,,,,,,,,,,
11,0,,image-keyboard-response,11,91784,0.0-3.8-0.8,l01wn5j792,2022-09-19 13:29:34.278,5bc7a4433dec25000138c626,1,59,65,47,47,42,Male,6911.2000000011,,static/images/instructions_CB_1/Slide9.png,39.0,,,,,,,,,,,,,,,,,,,,,,,,,,,
12,0,,image-keyboard-response,12,108208,0.0-3.9-0.9,l01wn5j792,2022-09-19 13:29:34.278,5bc7a4433dec25000138c626,1,59,65,47,47,42,Male,16423.2000000011,,static/images/instructions_CB_1/Slide10.png,39.0,,,,,,,,,,,,,,,,,,,,,,,,,,,
13,0,,image-keyboard-response,13,110350,0.0-3.10-0.10,l01wn5j792,2022-09-19 13:29:34.278,5bc7a4433dec25000138c626,1,59,65,47,47,42,Male,2141.0,,static/images/instructions_CB_1/Slide11.png,39.0,,,,,,,,,,,,,,,,,,,,,,,,,,,
14,0,,image-keyboard-response,14,115795,0.0-3.11-0.11,l01wn5j792,2022-09-19 13:29:34.278,5bc7a4433dec25000138c626,1,59,65,47,47,42,Male,5443.5999999996,,static/images/instructions_CB_1/Slide12.png,39.0,,,,,,,,,,,,,,,,,,,,,,,,,,,
15,0,,image-keyboard-response,15,129256,0.0-3.12-0.12,l01wn5j792,2022-09-19 13:29:34.278,5bc7a4433dec25000138c626,1,59,65,47,47,42,Male,13455.6999999993,,static/images/instructions_CB_1/Slide13.png,39.0,,,,,,,,,,,,,,,,,,,,,,,,,,,
16,0,,image-keyboard-response,16,136364,0.0-3.13-0.13,l01wn5j792,2022-09-19 13:29:34.278,5bc7a4433dec25000138c626,1,59,65,47,47,42,Male,7107.0,,static/images/instructions_CB_1/Slide14.png,39.0,,,,,,,,,,,,,,,,,,,,,,,,,,,
17,0,,image-keyboard-response,17,140570,0.0-3.14-0.14,l01wn5j792,2022-09-19 13:29:34.278,5bc7a4433dec25000138c626,1,59,65,47,47,42,Male,4205.3999999985,,static/images/instructions_CB_1/Slide15.png,39.0,,,,,,,,,,,,,,,,,,,,,,,,,,,
18,0,,image-keyboard-response,18,147244,0.0-3.15-0.15,l01wn5j792,2022-09-19 13:29:34.278,5bc7a4433dec25000138c626,1,59,65,47,47,42,Male,6672.5999999996,,static/images/instructions_CB_1/Slide16.png,39.0,,,,,,,,,,,,,,,,,,,,,,,,,,,
19,0,,image-keyboard-response,19,153189,0.0-3.16-0.16,l01wn5j792,2022-09-19 13:29:34.278,5bc7a4433dec25000138c626,1,59,65,47,47,42,Male,5944.0,,static/images/instructions_CB_1/Slide17.png,39.0,,,,,,,,,,,,,,,,,,,,,,,,,,,
20,0,,image-keyboard-response,20,181372,0.0-3.17-0.17,l01wn5j792,2022-09-19 13:29:34.278,5bc7a4433dec25000138c626,1,59,65,47,47,42,Male,28182.9000000004,,static/images/instructions_CB_1/Slide18.png,39.0,,,,,,,,,,,,,,,,,,,,,,,,,,,
21,0,,image-keyboard-response,21,189544,0.0-3.18-0.18,l01wn5j792,2022-09-19 13:29:34.278,5bc7a4433dec25000138c626,1,59,65,47,47,42,Male,8178.7999999989,,static/images/instructions_CB_1/Slide19.png,39.0,,,,,,,,,,,,,,,,,,,,,,,,,,,
22,0,,html-keyboard-response,22,191050,0.0-4.0-0.0,l01wn5j792,2022-09-19 13:29:34.278,5bc7a4433dec25000138c626,1,59,65,47,47,42,Male,,,"<img src=""static/images/cards/stack_of_red_moons.svg"" width=""175px"" height=""250px""></img>",,,,,,,,,,,,,,,,,,,,,,,,,,,,
23,0,,html-keyboard-response,23,194568,0.0-4.0-1.0,l01wn5j792,2022-09-19 13:29:34.278,5bc7a4433dec25000138c626,1,59,65,47,47,42,Male,,,"
  <table>
  <tr height=300>
    <td width=300 height=300><img src=""static/images/cards/back_of_red_moons.svg"" width=""175px"" height=""250px""></img></td>
    <td width=300 height=300><img src=""static/images/cards/back_of_red_moons.svg"" width=""175px"" height=""250px""></img></td>
  </tr>
  <tr height=200>
    <td width=300><img src=""static/images/keys/z.svg"" width=""35%"" height=""75%""></img></td>
    <td width=300><img src=""static/images/keys/m.svg"" width=""35%"" height=""75%""></img></td>
  </tr>
</table>
  ",,,,,,,,,,,,,,,,,,,,,,,,,,,,
24,0,,html-keyboard-response,24,194570,0.0-4.0-2.0,l01wn5j792,2022-09-19 13:29:34.278,5bc7a4433dec25000138c626,1,59,65,47,47,42,Male,,,,,,,,,,,,,,,,,,,,,,,,,,,,,,,
25,0,,html-keyboard-response,25,196079,0.0-4.0-3.0,l01wn5j792,2022-09-19 13:29:34.278,5bc7a4433dec25000138c626,1,59,65,47,47,42,Male,,,"<p style=""font-size:50px"">Too slow!</p>",,,,,,,,,,,,,,,,,,,,,,,,,,,,
26,0,,html-keyboard-response,26,196599,0.0-4.0-4.0,l01wn5j792,2022-09-19 13:29:34.278,5bc7a4433dec25000138c626,1,59,65,47,47,42,Male,,,,,1.0,learning,0.0,A,,red,,moons,,,,A,red,moons,,1.0,1.0,NA,,,,,,,,,
27,0,,html-keyboard-response,27,198114,0.0-4.1-0.1,l01wn5j792,2022-09-19 13:29:34.278,5bc7a4433dec25000138c626,1,59,65,47,47,42,Male,,,"<img src=""static/images/cards/stack_of_black_moons.svg"" width=""175px"" height=""250px""></img>",,,,,,,,,,,,,,,,,,,,,,,,,,,,
28,0,,html-keyboard-response,28,199237,0.0-4.1-1.1,l01wn5j792,2022-09-19 13:29:34.278,5bc7a4433dec25000138c626,1,59,65,47,47,42,Male,609.4000000004,,"
  <table>
  <tr height=300>
    <td width=300 height=300><img src=""static/images/cards/back_of_black_moons.svg"" width=""175px"" height=""250px""></img></td>
    <td width=300 height=300><img src=""static/images/cards/back_of_black_moons.svg"" width=""175px"" height=""250px""></img></td>
  </tr>
  <tr height=200>
    <td width=300><img src=""static/images/keys/z.svg"" width=""35%"" height=""75%""></img></td>
    <td width=300></td>
  </tr>
</table>
  ",90.0,,,,,,,,,,,,,,,,,,,,,,,,,1.0,,
29,0,,html-keyboard-response,29,200750,0.0-4.1-2.1,l01wn5j792,2022-09-19 13:29:34.278,5bc7a4433dec25000138c626,1,59,65,47,47,42,Male,,,"
  <table>
  <tr height=300>
    <td width=300 height=300><img src=""static/images/cards/6_of_black_moons.svg"" width=""175px"" height=""250px""></img></td>
    <td width=300 height=300><img src=""static/images/cards/back_of_black_moons.svg"" width=""175px"" height=""250px""></img></td>
  </tr>
  <tr height=200>
    <td width=300><img src=""static/images/keys/z.svg"" width=""35%"" height=""75%""></img></td>
    <td width=300></td>
  </tr>
</table>
  ",,,,,,,,,,,,,,,,,,,,,,,,,,,,
30,0,,html-keyboard-response,30,202265,0.0-4.1-3.1,l01wn5j792,2022-09-19 13:29:34.278,5bc7a4433dec25000138c626,1,59,65,47,47,42,Male,,,"<p style=""font-size:50px"">You win!
+10 points this round!</p>",,,,,,,,,,,,,,,,,,,,,,,,,,,,
31,0,,html-keyboard-response,31,202782,0.0-4.1-4.1,l01wn5j792,2022-09-19 13:29:34.278,5bc7a4433dec25000138c626,1,59,65,47,47,42,Male,,,,,1.0,learning,1.0,B,,black,,moons,,,,B,black,moons,,0.0,1.0,1,left,609.4000000004,6.0,1.0,1.0,,,,
32,0,,html-keyboard-response,32,204292,0.0-4.2-0.2,l01wn5j792,2022-09-19 13:29:34.278,5bc7a4433dec25000138c626,1,59,65,47,47,42,Male,,,"<img src=""static/images/cards/stack_of_red_stars.svg"" width=""175px"" height=""250px""></img>",,,,,,,,,,,,,,,,,,,,,,,,,,,,
33,0,,html-keyboard-response,33,206296,0.0-4.2-1.2,l01wn5j792,2022-09-19 13:29:34.278,5bc7a4433dec25000138c626,1,59,65,47,47,42,Male,1487.3999999985,,"
  <table>
  <tr height=300>
    <td width=300 height=300><img src=""static/images/cards/back_of_red_stars.svg"" width=""175px"" height=""250px""></img></td>
    <td width=300 height=300><img src=""static/images/cards/back_of_red_stars.svg"" width=""175px"" height=""250px""></img></td>
  </tr>
  <tr height=200>
    <td width=300><img src=""static/images/keys/z.svg"" width=""35%"" height=""75%""></img></td>
    <td width=300><img src=""static/images/keys/m.svg"" width=""35%"" height=""75%""></img></td>
  </tr>
</table>
  ",77.0,,,,,,,,,,,,,,,,,,,,,,,,,1.0,,
34,0,,html-keyboard-response,34,207807,0.0-4.2-2.2,l01wn5j792,2022-09-19 13:29:34.278,5bc7a4433dec25000138c626,1,59,65,47,47,42,Male,,,"
  <table>
  <tr height=300>
    <td width=300 height=300><img src=""static/images/cards/back_of_red_stars.svg"" width=""175px"" height=""250px""></img></td>
    <td width=300 height=300><img src=""static/images/cards/4_of_red_stars.svg"" width=""175px"" height=""250px""></img></td>
  </tr>
  <tr height=200>
    <td width=300><img src=""static/images/keys/z.svg"" width=""35%"" height=""75%""></img></td>
    <td width=300><img src=""static/images/keys/m.svg"" width=""35%"" height=""75%""></img></td>
  </tr>
</table>
  ",,,,,,,,,,,,,,,,,,,,,,,,,,,,
35,0,,html-keyboard-response,35,209324,0.0-4.2-3.2,l01wn5j792,2022-09-19 13:29:34.278,5bc7a4433dec25000138c626,1,59,65,47,47,42,Male,,,"<p style=""font-size:50px"">You win!
+10 points this round!</p>",,,,,,,,,,,,,,,,,,,,,,,,,,,,
36,0,,html-keyboard-response,36,209844,0.0-4.2-4.2,l01wn5j792,2022-09-19 13:29:34.278,5bc7a4433dec25000138c626,1,59,65,47,47,42,Male,,,,,1.0,learning,2.0,C,,red,,stars,,,,C,red,stars,,1.0,0.0,NA,right,1487.3999999985,4.0,0.0,1.0,,,,
37,0,,html-keyboard-response,37,211360,0.0-4.3-0.3,l01wn5j792,2022-09-19 13:29:34.278,5bc7a4433dec25000138c626,1,59,65,47,47,42,Male,,,"<img src=""static/images/cards/stack_of_black_stars.svg"" width=""175px"" height=""250px""></img>",,,,,,,,,,,,,,,,,,,,,,,,,,,,
38,0,,html-keyboard-response,38,213073,0.0-4.3-1.3,l01wn5j792,2022-09-19 13:29:34.278,5bc7a4433dec25000138c626,1,59,65,47,47,42,Male,1196.1999999993,,"
  <table>
  <tr height=300>
    <td width=300 height=300><img src=""static/images/cards/back_of_black_stars.svg"" width=""175px"" height=""250px""></img></td>
    <td width=300 height=300><img src=""static/images/cards/back_of_black_stars.svg"" width=""175px"" height=""250px""></img></td>
  </tr>
  <tr height=200>
    <td width=300><img src=""static/images/keys/z.svg"" width=""35%"" height=""75%""></img></td>
    <td width=300></td>
  </tr>
</table>
  ",90.0,,,,,,,,,,,,,,,,,,,,,,,,,1.0,,
39,0,,html-keyboard-response,39,214575,0.0-4.3-2.3,l01wn5j792,2022-09-19 13:29:34.278,5bc7a4433dec25000138c626,1,59,65,47,47,42,Male,,,"
  <table>
  <tr height=300>
    <td width=300 height=300><img src=""static/images/cards/2_of_black_stars.svg"" width=""175px"" height=""250px""></img></td>
    <td width=300 height=300><img src=""static/images/cards/back_of_black_stars.svg"" width=""175px"" height=""250px""></img></td>
  </tr>
  <tr height=200>
    <td width=300><img src=""static/images/keys/z.svg"" width=""35%"" height=""75%""></img></td>
    <td width=300></td>
  </tr>
</table>
  ",,,,,,,,,,,,,,,,,,,,,,,,,,,,
40,0,,html-keyboard-response,40,216090,0.0-4.3-3.3,l01wn5j792,2022-09-19 13:29:34.278,5bc7a4433dec25000138c626,1,59,65,47,47,42,Male,,,"<p style=""font-size:50px"">You win!
+10 points this round!</p>",,,,,,,,,,,,,,,,,,,,,,,,,,,,
41,0,,html-keyboard-response,41,216603,0.0-4.3-4.3,l01wn5j792,2022-09-19 13:29:34.278,5bc7a4433dec25000138c626,1,59,65,47,47,42,Male,,,,,1.0,learning,3.0,D,,black,,stars,,,,D,black,stars,,0.0,0.0,1,left,1196.1999999993,2.0,0.0,1.0,,,,
42,0,,html-keyboard-response,42,218107,0.0-4.4-0.4,l01wn5j792,2022-09-19 13:29:34.278,5bc7a4433dec25000138c626,1,59,65,47,47,42,Male,,,"<img src=""static/images/cards/stack_of_red_bolts.svg"" width=""175px"" height=""250px""></img>",,,,,,,,,,,,,,,,,,,,,,,,,,,,
43,0,,html-keyboard-response,43,219298,0.0-4.4-1.4,l01wn5j792,2022-09-19 13:29:34.278,5bc7a4433dec25000138c626,1,59,65,47,47,42,Male,679.1999999993,,"
  <table>
  <tr height=300>
    <td width=300 height=300><img src=""static/images/cards/back_of_red_bolts.svg"" width=""175px"" height=""250px""></img></td>
    <td width=300 height=300><img src=""static/images/cards/back_of_red_bolts.svg"" width=""175px"" height=""250px""></img></td>
  </tr>
  <tr height=200>
    <td width=300><img src=""static/images/keys/z.svg"" width=""35%"" height=""75%""></img></td>
    <td width=300><img src=""static/images/keys/m.svg"" width=""35%"" height=""75%""></img></td>
  </tr>
</table>
  ",77.0,,,,,,,,,,,,,,,,,,,,,,,,,1.0,,
44,0,,html-keyboard-response,44,220807,0.0-4.4-2.4,l01wn5j792,2022-09-19 13:29:34.278,5bc7a4433dec25000138c626,1,59,65,47,47,42,Male,,,"
  <table>
  <tr height=300>
    <td width=300 height=300><img src=""static/images/cards/back_of_red_bolts.svg"" width=""175px"" height=""250px""></img></td>
    <td width=300 height=300><img src=""static/images/cards/6_of_red_bolts.svg"" width=""175px"" height=""250px""></img></td>
  </tr>
  <tr height=200>
    <td width=300><img src=""static/images/keys/z.svg"" width=""35%"" height=""75%""></img></td>
    <td width=300><img src=""static/images/keys/m.svg"" width=""35%"" height=""75%""></img></td>
  </tr>
</table>
  ",,,,,,,,,,,,,,,,,,,,,,,,,,,,
45,0,,html-keyboard-response,45,222319,0.0-4.4-3.4,l01wn5j792,2022-09-19 13:29:34.278,5bc7a4433dec25000138c626,1,59,65,47,47,42,Male,,,"<p style=""font-size:50px"">You win!
+10 points this round!</p>",,,,,,,,,,,,,,,,,,,,,,,,,,,,
46,0,,html-keyboard-response,46,222839,0.0-4.4-4.4,l01wn5j792,2022-09-19 13:29:34.278,5bc7a4433dec25000138c626,1,59,65,47,47,42,Male,,,,,1.0,learning,4.0,Xc,,red,,bolts,,,,Xc,red,bolts,,1.0,0.0,NA,right,679.1999999993,6.0,1.0,1.0,,,,
47,0,,html-keyboard-response,47,224349,0.0-4.5-0.5,l01wn5j792,2022-09-19 13:29:34.278,5bc7a4433dec25000138c626,1,59,65,47,47,42,Male,,,"<img src=""static/images/cards/stack_of_black_bolts.svg"" width=""175px"" height=""250px""></img>",,,,,,,,,,,,,,,,,,,,,,,,,,,,
48,0,,html-keyboard-response,48,225574,0.0-4.5-1.5,l01wn5j792,2022-09-19 13:29:34.278,5bc7a4433dec25000138c626,1,59,65,47,47,42,Male,721.0,,"
  <table>
  <tr height=300>
    <td width=300 height=300><img src=""static/images/cards/back_of_black_bolts.svg"" width=""175px"" height=""250px""></img></td>
    <td width=300 height=300><img src=""static/images/cards/back_of_black_bolts.svg"" width=""175px"" height=""250px""></img></td>
  </tr>
  <tr height=200>
    <td width=300><img src=""static/images/keys/z.svg"" width=""35%"" height=""75%""></img></td>
    <td width=300></td>
  </tr>
</table>
  ",90.0,,,,,,,,,,,,,,,,,,,,,,,,,1.0,,
49,0,,html-keyboard-response,49,227087,0.0-4.5-2.5,l01wn5j792,2022-09-19 13:29:34.278,5bc7a4433dec25000138c626,1,59,65,47,47,42,Male,,,"
  <table>
  <tr height=300>
    <td width=300 height=300><img src=""static/images/cards/1_of_black_bolts.svg"" width=""175px"" height=""250px""></img></td>
    <td width=300 height=300><img src=""static/images/cards/back_of_black_bolts.svg"" width=""175px"" height=""250px""></img></td>
  </tr>
  <tr height=200>
    <td width=300><img src=""static/images/keys/z.svg"" width=""35%"" height=""75%""></img></td>
    <td width=300></td>
  </tr>
</table>
  ",,,,,,,,,,,,,,,,,,,,,,,,,,,,
50,0,,html-keyboard-response,50,228602,0.0-4.5-3.5,l01wn5j792,2022-09-19 13:29:34.278,5bc7a4433dec25000138c626,1,59,65,47,47,42,Male,,,"<p style=""font-size:50px"">You win!
+10 points this round!</p>",,,,,,,,,,,,,,,,,,,,,,,,,,,,
51,0,,html-keyboard-response,51,229120,0.0-4.5-4.5,l01wn5j792,2022-09-19 13:29:34.278,5bc7a4433dec25000138c626,1,59,65,47,47,42,Male,,,,,1.0,learning,5.0,Xnc,,black,,bolts,,,,Xnc,black,bolts,,0.0,0.0,1,left,721.0,1.0,0.0,1.0,,,,
52,0,,html-keyboard-response,52,230636,0.0-4.6-0.6,l01wn5j792,2022-09-19 13:29:34.278,5bc7a4433dec25000138c626,1,59,65,47,47,42,Male,,,"<img src=""static/images/cards/stack_of_red_moons.svg"" width=""175px"" height=""250px""></img>",,,,,,,,,,,,,,,,,,,,,,,,,,,,
53,0,,html-keyboard-response,53,231852,0.0-4.6-1.6,l01wn5j792,2022-09-19 13:29:34.278,5bc7a4433dec25000138c626,1,59,65,47,47,42,Male,704.3999999985,,"
  <table>
  <tr height=300>
    <td width=300 height=300><img src=""static/images/cards/back_of_red_moons.svg"" width=""175px"" height=""250px""></img></td>
    <td width=300 height=300><img src=""static/images/cards/back_of_red_moons.svg"" width=""175px"" height=""250px""></img></td>
  </tr>
  <tr height=200>
    <td width=300><img src=""static/images/keys/z.svg"" width=""35%"" height=""75%""></img></td>
    <td width=300><img src=""static/images/keys/m.svg"" width=""35%"" height=""75%""></img></td>
  </tr>
</table>
  ",77.0,,,,,,,,,,,,,,,,,,,,,,,,,1.0,,
54,0,,html-keyboard-response,54,233355,0.0-4.6-2.6,l01wn5j792,2022-09-19 13:29:34.278,5bc7a4433dec25000138c626,1,59,65,47,47,42,Male,,,"
  <table>
  <tr height=300>
    <td width=300 height=300><img src=""static/images/cards/back_of_red_moons.svg"" width=""175px"" height=""250px""></img></td>
    <td width=300 height=300><img src=""static/images/cards/10_of_red_moons.svg"" width=""175px"" height=""250px""></img></td>
  </tr>
  <tr height=200>
    <td width=300><img src=""static/images/keys/z.svg"" width=""35%"" height=""75%""></img></td>
    <td width=300><img src=""static/images/keys/m.svg"" width=""35%"" height=""75%""></img></td>
  </tr>
</table>
  ",,,,,,,,,,,,,,,,,,,,,,,,,,,,
55,0,,html-keyboard-response,55,234866,0.0-4.6-3.6,l01wn5j792,2022-09-19 13:29:34.278,5bc7a4433dec25000138c626,1,59,65,47,47,42,Male,,,"<p style=""font-size:50px"">You win!
+10 points this round!</p>",,,,,,,,,,,,,,,,,,,,,,,,,,,,
56,0,,html-keyboard-response,56,235373,0.0-4.6-4.6,l01wn5j792,2022-09-19 13:29:34.278,5bc7a4433dec25000138c626,1,59,65,47,47,42,Male,,,,,1.0,learning,6.0,A,,red,,moons,,,,A,red,moons,,1.0,1.0,NA,right,704.3999999985,10.0,1.0,1.0,,,,
57,0,,html-keyboard-response,57,236884,0.0-4.7-0.7,l01wn5j792,2022-09-19 13:29:34.278,5bc7a4433dec25000138c626,1,59,65,47,47,42,Male,,,"<img src=""static/images/cards/stack_of_black_moons.svg"" width=""175px"" height=""250px""></img>",,,,,,,,,,,,,,,,,,,,,,,,,,,,
58,0,,html-keyboard-response,58,238118,0.0-4.7-1.7,l01wn5j792,2022-09-19 13:29:34.278,5bc7a4433dec25000138c626,1,59,65,47,47,42,Male,721.8000000007,,"
  <table>
  <tr height=300>
    <td width=300 height=300><img src=""static/images/cards/back_of_black_moons.svg"" width=""175px"" height=""250px""></img></td>
    <td width=300 height=300><img src=""static/images/cards/back_of_black_moons.svg"" width=""175px"" height=""250px""></img></td>
  </tr>
  <tr height=200>
    <td width=300></td>
    <td width=300><img src=""static/images/keys/m.svg"" width=""35%"" height=""75%""></img></td>
  </tr>
</table>
  ",77.0,,,,,,,,,,,,,,,,,,,,,,,,,1.0,,
59,0,,html-keyboard-response,59,239623,0.0-4.7-2.7,l01wn5j792,2022-09-19 13:29:34.278,5bc7a4433dec25000138c626,1,59,65,47,47,42,Male,,,"
  <table>
  <tr height=300>
    <td width=300 height=300><img src=""static/images/cards/back_of_black_moons.svg"" width=""175px"" height=""250px""></img></td>
    <td width=300 height=300><img src=""static/images/cards/4_of_black_moons.svg"" width=""175px"" height=""250px""></img></td>
  </tr>
  <tr height=200>
    <td width=300></td>
    <td width=300><img src=""static/images/keys/m.svg"" width=""35%"" height=""75%""></img></td>
  </tr>
</table>
  ",,,,,,,,,,,,,,,,,,,,,,,,,,,,
60,0,,html-keyboard-response,60,241133,0.0-4.7-3.7,l01wn5j792,2022-09-19 13:29:34.278,5bc7a4433dec25000138c626,1,59,65,47,47,42,Male,,,"<p style=""font-size:50px"">You Lose!
No points this round.</p>",,,,,,,,,,,,,,,,,,,,,,,,,,,,
61,0,,html-keyboard-response,61,241649,0.0-4.7-4.7,l01wn5j792,2022-09-19 13:29:34.278,5bc7a4433dec25000138c626,1,59,65,47,47,42,Male,,,,,1.0,learning,7.0,B,,black,,moons,,,,B,black,moons,,0.0,1.0,0,right,721.8000000007,4.0,0.0,0.0,,,,
62,0,,html-keyboard-response,62,243163,0.0-4.8-0.8,l01wn5j792,2022-09-19 13:29:34.278,5bc7a4433dec25000138c626,1,59,65,47,47,42,Male,,,"<img src=""static/images/cards/stack_of_red_stars.svg"" width=""175px"" height=""250px""></img>",,,,,,,,,,,,,,,,,,,,,,,,,,,,
63,0,,html-keyboard-response,63,244403,0.0-4.8-1.8,l01wn5j792,2022-09-19 13:29:34.278,5bc7a4433dec25000138c626,1,59,65,47,47,42,Male,725.7999999989,,"
  <table>
  <tr height=300>
    <td width=300 height=300><img src=""static/images/cards/back_of_red_stars.svg"" width=""175px"" height=""250px""></img></td>
    <td width=300 height=300><img src=""static/images/cards/back_of_red_stars.svg"" width=""175px"" height=""250px""></img></td>
  </tr>
  <tr height=200>
    <td width=300><img src=""static/images/keys/z.svg"" width=""35%"" height=""75%""></img></td>
    <td width=300><img src=""static/images/keys/m.svg"" width=""35%"" height=""75%""></img></td>
  </tr>
</table>
  ",90.0,,,,,,,,,,,,,,,,,,,,,,,,,1.0,,
64,0,,html-keyboard-response,64,245918,0.0-4.8-2.8,l01wn5j792,2022-09-19 13:29:34.278,5bc7a4433dec25000138c626,1,59,65,47,47,42,Male,,,"
  <table>
  <tr height=300>
    <td width=300 height=300><img src=""static/images/cards/1_of_red_stars.svg"" width=""175px"" height=""250px""></img></td>
    <td width=300 height=300><img src=""static/images/cards/back_of_red_stars.svg"" width=""175px"" height=""250px""></img></td>
  </tr>
  <tr height=200>
    <td width=300><img src=""static/images/keys/z.svg"" width=""35%"" height=""75%""></img></td>
    <td width=300><img src=""static/images/keys/m.svg"" width=""35%"" height=""75%""></img></td>
  </tr>
</table>
  ",,,,,,,,,,,,,,,,,,,,,,,,,,,,
65,0,,html-keyboard-response,65,247436,0.0-4.8-3.8,l01wn5j792,2022-09-19 13:29:34.278,5bc7a4433dec25000138c626,1,59,65,47,47,42,Male,,,"<p style=""font-size:50px"">You win!
+10 points this round!</p>",,,,,,,,,,,,,,,,,,,,,,,,,,,,
66,0,,html-keyboard-response,66,247942,0.0-4.8-4.8,l01wn5j792,2022-09-19 13:29:34.278,5bc7a4433dec25000138c626,1,59,65,47,47,42,Male,,,,,1.0,learning,8.0,C,,red,,stars,,,,C,red,stars,,1.0,0.0,NA,left,725.7999999989,1.0,0.0,1.0,,,,
67,0,,html-keyboard-response,67,249444,0.0-4.9-0.9,l01wn5j792,2022-09-19 13:29:34.278,5bc7a4433dec25000138c626,1,59,65,47,47,42,Male,,,"<img src=""static/images/cards/stack_of_black_stars.svg"" width=""175px"" height=""250px""></img>",,,,,,,,,,,,,,,,,,,,,,,,,,,,
68,0,,html-keyboard-response,68,250519,0.0-4.9-1.9,l01wn5j792,2022-09-19 13:29:34.278,5bc7a4433dec25000138c626,1,59,65,47,47,42,Male,548.0,,"
  <table>
  <tr height=300>
    <td width=300 height=300><img src=""static/images/cards/back_of_black_stars.svg"" width=""175px"" height=""250px""></img></td>
    <td width=300 height=300><img src=""static/images/cards/back_of_black_stars.svg"" width=""175px"" height=""250px""></img></td>
  </tr>
  <tr height=200>
    <td width=300></td>
    <td width=300><img src=""static/images/keys/m.svg"" width=""35%"" height=""75%""></img></td>
  </tr>
</table>
  ",77.0,,,,,,,,,,,,,,,,,,,,,,,,,1.0,,
69,0,,html-keyboard-response,69,252024,0.0-4.9-2.9,l01wn5j792,2022-09-19 13:29:34.278,5bc7a4433dec25000138c626,1,59,65,47,47,42,Male,,,"
  <table>
  <tr height=300>
    <td width=300 height=300><img src=""static/images/cards/back_of_black_stars.svg"" width=""175px"" height=""250px""></img></td>
    <td width=300 height=300><img src=""static/images/cards/8_of_black_stars.svg"" width=""175px"" height=""250px""></img></td>
  </tr>
  <tr height=200>
    <td width=300></td>
    <td width=300><img src=""static/images/keys/m.svg"" width=""35%"" height=""75%""></img></td>
  </tr>
</table>
  ",,,,,,,,,,,,,,,,,,,,,,,,,,,,
70,0,,html-keyboard-response,70,253540,0.0-4.9-3.9,l01wn5j792,2022-09-19 13:29:34.278,5bc7a4433dec25000138c626,1,59,65,47,47,42,Male,,,"<p style=""font-size:50px"">You Lose!
No points this round.</p>",,,,,,,,,,,,,,,,,,,,,,,,,,,,
71,0,,html-keyboard-response,71,254058,0.0-4.9-4.9,l01wn5j792,2022-09-19 13:29:34.278,5bc7a4433dec25000138c626,1,59,65,47,47,42,Male,,,,,1.0,learning,9.0,D,,black,,stars,,,,D,black,stars,,0.0,0.0,0,right,548.0,8.0,1.0,0.0,,,,
72,0,,html-keyboard-response,72,255563,0.0-4.10-0.10,l01wn5j792,2022-09-19 13:29:34.278,5bc7a4433dec25000138c626,1,59,65,47,47,42,Male,,,"<img src=""static/images/cards/stack_of_red_bolts.svg"" width=""175px"" height=""250px""></img>",,,,,,,,,,,,,,,,,,,,,,,,,,,,
73,0,,html-keyboard-response,73,256821,0.0-4.10-1.10,l01wn5j792,2022-09-19 13:29:34.278,5bc7a4433dec25000138c626,1,59,65,47,47,42,Male,750.2999999989,,"
  <table>
  <tr height=300>
    <td width=300 height=300><img src=""static/images/cards/back_of_red_bolts.svg"" width=""175px"" height=""250px""></img></td>
    <td width=300 height=300><img src=""static/images/cards/back_of_red_bolts.svg"" width=""175px"" height=""250px""></img></td>
  </tr>
  <tr height=200>
    <td width=300><img src=""static/images/keys/z.svg"" width=""35%"" height=""75%""></img></td>
    <td width=300><img src=""static/images/keys/m.svg"" width=""35%"" height=""75%""></img></td>
  </tr>
</table>
  ",77.0,,,,,,,,,,,,,,,,,,,,,,,,,1.0,,
74,0,,html-keyboard-response,74,258330,0.0-4.10-2.10,l01wn5j792,2022-09-19 13:29:34.278,5bc7a4433dec25000138c626,1,59,65,47,47,42,Male,,,"
  <table>
  <tr height=300>
    <td width=300 height=300><img src=""static/images/cards/back_of_red_bolts.svg"" width=""175px"" height=""250px""></img></td>
    <td width=300 height=300><img src=""static/images/cards/2_of_red_bolts.svg"" width=""175px"" height=""250px""></img></td>
  </tr>
  <tr height=200>
    <td width=300><img src=""static/images/keys/z.svg"" width=""35%"" height=""75%""></img></td>
    <td width=300><img src=""static/images/keys/m.svg"" width=""35%"" height=""75%""></img></td>
  </tr>
</table>
  ",,,,,,,,,,,,,,,,,,,,,,,,,,,,
75,0,,html-keyboard-response,75,259850,0.0-4.10-3.10,l01wn5j792,2022-09-19 13:29:34.278,5bc7a4433dec25000138c626,1,59,65,47,47,42,Male,,,"<p style=""font-size:50px"">You win!
+10 points this round!</p>",,,,,,,,,,,,,,,,,,,,,,,,,,,,
76,0,,html-keyboard-response,76,260371,0.0-4.10-4.10,l01wn5j792,2022-09-19 13:29:34.278,5bc7a4433dec25000138c626,1,59,65,47,47,42,Male,,,,,1.0,learning,10.0,Xc,,red,,bolts,,,,Xc,red,bolts,,1.0,0.0,NA,right,750.2999999989,2.0,0.0,1.0,,,,
77,0,,html-keyboard-response,77,261885,0.0-4.11-0.11,l01wn5j792,2022-09-19 13:29:34.278,5bc7a4433dec25000138c626,1,59,65,47,47,42,Male,,,"<img src=""static/images/cards/stack_of_black_bolts.svg"" width=""175px"" height=""250px""></img>",,,,,,,,,,,,,,,,,,,,,,,,,,,,
78,0,,html-keyboard-response,78,263064,0.0-4.11-1.11,l01wn5j792,2022-09-19 13:29:34.278,5bc7a4433dec25000138c626,1,59,65,47,47,42,Male,675.3000000007,,"
  <table>
  <tr height=300>
    <td width=300 height=300><img src=""static/images/cards/back_of_black_bolts.svg"" width=""175px"" height=""250px""></img></td>
    <td width=300 height=300><img src=""static/images/cards/back_of_black_bolts.svg"" width=""175px"" height=""250px""></img></td>
  </tr>
  <tr height=200>
    <td width=300><img src=""static/images/keys/z.svg"" width=""35%"" height=""75%""></img></td>
    <td width=300></td>
  </tr>
</table>
  ",90.0,,,,,,,,,,,,,,,,,,,,,,,,,1.0,,
79,0,,html-keyboard-response,79,264574,0.0-4.11-2.11,l01wn5j792,2022-09-19 13:29:34.278,5bc7a4433dec25000138c626,1,59,65,47,47,42,Male,,,"
  <table>
  <tr height=300>
    <td width=300 height=300><img src=""static/images/cards/6_of_black_bolts.svg"" width=""175px"" height=""250px""></img></td>
    <td width=300 height=300><img src=""static/images/cards/back_of_black_bolts.svg"" width=""175px"" height=""250px""></img></td>
  </tr>
  <tr height=200>
    <td width=300><img src=""static/images/keys/z.svg"" width=""35%"" height=""75%""></img></td>
    <td width=300></td>
  </tr>
</table>
  ",,,,,,,,,,,,,,,,,,,,,,,,,,,,
80,0,,html-keyboard-response,80,266089,0.0-4.11-3.11,l01wn5j792,2022-09-19 13:29:34.278,5bc7a4433dec25000138c626,1,59,65,47,47,42,Male,,,"<p style=""font-size:50px"">You win!
+10 points this round!</p>",,,,,,,,,,,,,,,,,,,,,,,,,,,,
81,0,,html-keyboard-response,81,266604,0.0-4.11-4.11,l01wn5j792,2022-09-19 13:29:34.278,5bc7a4433dec25000138c626,1,59,65,47,47,42,Male,,,,,1.0,learning,11.0,Xnc,,black,,bolts,,,,Xnc,black,bolts,,0.0,0.0,1,left,675.3000000007,6.0,1.0,1.0,,,,
82,0,,html-keyboard-response,82,268117,0.0-4.12-0.12,l01wn5j792,2022-09-19 13:29:34.278,5bc7a4433dec25000138c626,1,59,65,47,47,42,Male,,,"<img src=""static/images/cards/stack_of_red_moons.svg"" width=""175px"" height=""250px""></img>",,,,,,,,,,,,,,,,,,,,,,,,,,,,
83,0,,html-keyboard-response,83,269076,0.0-4.12-1.12,l01wn5j792,2022-09-19 13:29:34.278,5bc7a4433dec25000138c626,1,59,65,47,47,42,Male,445.8000000007,,"
  <table>
  <tr height=300>
    <td width=300 height=300><img src=""static/images/cards/back_of_red_moons.svg"" width=""175px"" height=""250px""></img></td>
    <td width=300 height=300><img src=""static/images/cards/back_of_red_moons.svg"" width=""175px"" height=""250px""></img></td>
  </tr>
  <tr height=200>
    <td width=300><img src=""static/images/keys/z.svg"" width=""35%"" height=""75%""></img></td>
    <td width=300><img src=""static/images/keys/m.svg"" width=""35%"" height=""75%""></img></td>
  </tr>
</table>
  ",90.0,,,,,,,,,,,,,,,,,,,,,,,,,1.0,,
84,0,,html-keyboard-response,84,270584,0.0-4.12-2.12,l01wn5j792,2022-09-19 13:29:34.278,5bc7a4433dec25000138c626,1,59,65,47,47,42,Male,,,"
  <table>
  <tr height=300>
    <td width=300 height=300><img src=""static/images/cards/4_of_red_moons.svg"" width=""175px"" height=""250px""></img></td>
    <td width=300 height=300><img src=""static/images/cards/back_of_red_moons.svg"" width=""175px"" height=""250px""></img></td>
  </tr>
  <tr height=200>
    <td width=300><img src=""static/images/keys/z.svg"" width=""35%"" height=""75%""></img></td>
    <td width=300><img src=""static/images/keys/m.svg"" width=""35%"" height=""75%""></img></td>
  </tr>
</table>
  ",,,,,,,,,,,,,,,,,,,,,,,,,,,,
85,0,,html-keyboard-response,85,272107,0.0-4.12-3.12,l01wn5j792,2022-09-19 13:29:34.278,5bc7a4433dec25000138c626,1,59,65,47,47,42,Male,,,"<p style=""font-size:50px"">You Lose!
No points this round.</p>",,,,,,,,,,,,,,,,,,,,,,,,,,,,
86,0,,html-keyboard-response,86,272617,0.0-4.12-4.12,l01wn5j792,2022-09-19 13:29:34.278,5bc7a4433dec25000138c626,1,59,65,47,47,42,Male,,,,,1.0,learning,12.0,A,,red,,moons,,,,A,red,moons,,1.0,1.0,NA,left,445.8000000007,4.0,0.0,0.0,,,,
87,0,,html-keyboard-response,87,274131,0.0-4.13-0.13,l01wn5j792,2022-09-19 13:29:34.278,5bc7a4433dec25000138c626,1,59,65,47,47,42,Male,,,"<img src=""static/images/cards/stack_of_black_moons.svg"" width=""175px"" height=""250px""></img>",,,,,,,,,,,,,,,,,,,,,,,,,,,,
88,0,,html-keyboard-response,88,275236,0.0-4.13-1.13,l01wn5j792,2022-09-19 13:29:34.278,5bc7a4433dec25000138c626,1,59,65,47,47,42,Male,592.8999999985,,"
  <table>
  <tr height=300>
    <td width=300 height=300><img src=""static/images/cards/back_of_black_moons.svg"" width=""175px"" height=""250px""></img></td>
    <td width=300 height=300><img src=""static/images/cards/back_of_black_moons.svg"" width=""175px"" height=""250px""></img></td>
  </tr>
  <tr height=200>
    <td width=300></td>
    <td width=300><img src=""static/images/keys/m.svg"" width=""35%"" height=""75%""></img></td>
  </tr>
</table>
  ",77.0,,,,,,,,,,,,,,,,,,,,,,,,,1.0,,
89,0,,html-keyboard-response,89,276747,0.0-4.13-2.13,l01wn5j792,2022-09-19 13:29:34.278,5bc7a4433dec25000138c626,1,59,65,47,47,42,Male,,,"
  <table>
  <tr height=300>
    <td width=300 height=300><img src=""static/images/cards/back_of_black_moons.svg"" width=""175px"" height=""250px""></img></td>
    <td width=300 height=300><img src=""static/images/cards/4_of_black_moons.svg"" width=""175px"" height=""250px""></img></td>
  </tr>
  <tr height=200>
    <td width=300></td>
    <td width=300><img src=""static/images/keys/m.svg"" width=""35%"" height=""75%""></img></td>
  </tr>
</table>
  ",,,,,,,,,,,,,,,,,,,,,,,,,,,,
90,0,,html-keyboard-response,90,278270,0.0-4.13-3.13,l01wn5j792,2022-09-19 13:29:34.278,5bc7a4433dec25000138c626,1,59,65,47,47,42,Male,,,"<p style=""font-size:50px"">You Lose!
No points this round.</p>",,,,,,,,,,,,,,,,,,,,,,,,,,,,
91,0,,html-keyboard-response,91,278779,0.0-4.13-4.13,l01wn5j792,2022-09-19 13:29:34.278,5bc7a4433dec25000138c626,1,59,65,47,47,42,Male,,,,,1.0,learning,13.0,B,,black,,moons,,,,B,black,moons,,0.0,1.0,0,right,592.8999999985,4.0,0.0,0.0,,,,
92,0,,html-keyboard-response,92,280281,0.0-4.14-0.14,l01wn5j792,2022-09-19 13:29:34.278,5bc7a4433dec25000138c626,1,59,65,47,47,42,Male,,,"<img src=""static/images/cards/stack_of_red_stars.svg"" width=""175px"" height=""250px""></img>",,,,,,,,,,,,,,,,,,,,,,,,,,,,
93,0,,html-keyboard-response,93,281405,0.0-4.14-1.14,l01wn5j792,2022-09-19 13:29:34.278,5bc7a4433dec25000138c626,1,59,65,47,47,42,Male,609.0999999996,,"
  <table>
  <tr height=300>
    <td width=300 height=300><img src=""static/images/cards/back_of_red_stars.svg"" width=""175px"" height=""250px""></img></td>
    <td width=300 height=300><img src=""static/images/cards/back_of_red_stars.svg"" width=""175px"" height=""250px""></img></td>
  </tr>
  <tr height=200>
    <td width=300><img src=""static/images/keys/z.svg"" width=""35%"" height=""75%""></img></td>
    <td width=300><img src=""static/images/keys/m.svg"" width=""35%"" height=""75%""></img></td>
  </tr>
</table>
  ",90.0,,,,,,,,,,,,,,,,,,,,,,,,,1.0,,
94,0,,html-keyboard-response,94,282911,0.0-4.14-2.14,l01wn5j792,2022-09-19 13:29:34.278,5bc7a4433dec25000138c626,1,59,65,47,47,42,Male,,,"
  <table>
  <tr height=300>
    <td width=300 height=300><img src=""static/images/cards/8_of_red_stars.svg"" width=""175px"" height=""250px""></img></td>
    <td width=300 height=300><img src=""static/images/cards/back_of_red_stars.svg"" width=""175px"" height=""250px""></img></td>
  </tr>
  <tr height=200>
    <td width=300><img src=""static/images/keys/z.svg"" width=""35%"" height=""75%""></img></td>
    <td width=300><img src=""static/images/keys/m.svg"" width=""35%"" height=""75%""></img></td>
  </tr>
</table>
  ",,,,,,,,,,,,,,,,,,,,,,,,,,,,
95,0,,html-keyboard-response,95,284428,0.0-4.14-3.14,l01wn5j792,2022-09-19 13:29:34.278,5bc7a4433dec25000138c626,1,59,65,47,47,42,Male,,,"<p style=""font-size:50px"">You win!
+10 points this round!</p>",,,,,,,,,,,,,,,,,,,,,,,,,,,,
96,0,,html-keyboard-response,96,284945,0.0-4.14-4.14,l01wn5j792,2022-09-19 13:29:34.278,5bc7a4433dec25000138c626,1,59,65,47,47,42,Male,,,,,1.0,learning,14.0,C,,red,,stars,,,,C,red,stars,,1.0,0.0,NA,left,609.0999999996,8.0,1.0,1.0,,,,
97,0,,html-keyboard-response,97,286460,0.0-4.15-0.15,l01wn5j792,2022-09-19 13:29:34.278,5bc7a4433dec25000138c626,1,59,65,47,47,42,Male,,,"<img src=""static/images/cards/stack_of_black_stars.svg"" width=""175px"" height=""250px""></img>",,,,,,,,,,,,,,,,,,,,,,,,,,,,
98,0,,html-keyboard-response,98,287493,0.0-4.15-1.15,l01wn5j792,2022-09-19 13:29:34.278,5bc7a4433dec25000138c626,1,59,65,47,47,42,Male,520.0,,"
  <table>
  <tr height=300>
    <td width=300 height=300><img src=""static/images/cards/back_of_black_stars.svg"" width=""175px"" height=""250px""></img></td>
    <td width=300 height=300><img src=""static/images/cards/back_of_black_stars.svg"" width=""175px"" height=""250px""></img></td>
  </tr>
  <tr height=200>
    <td width=300><img src=""static/images/keys/z.svg"" width=""35%"" height=""75%""></img></td>
    <td width=300></td>
  </tr>
</table>
  ",90.0,,,,,,,,,,,,,,,,,,,,,,,,,1.0,,
99,0,,html-keyboard-response,99,289008,0.0-4.15-2.15,l01wn5j792,2022-09-19 13:29:34.278,5bc7a4433dec25000138c626,1,59,65,47,47,42,Male,,,"
  <table>
  <tr height=300>
    <td width=300 height=300><img src=""static/images/cards/9_of_black_stars.svg"" width=""175px"" height=""250px""></img></td>
    <td width=300 height=300><img src=""static/images/cards/back_of_black_stars.svg"" width=""175px"" height=""250px""></img></td>
  </tr>
  <tr height=200>
    <td width=300><img src=""static/images/keys/z.svg"" width=""35%"" height=""75%""></img></td>
    <td width=300></td>
  </tr>
</table>
  ",,,,,,,,,,,,,,,,,,,,,,,,,,,,
100,0,,html-keyboard-response,100,290522,0.0-4.15-3.15,l01wn5j792,2022-09-19 13:29:34.278,5bc7a4433dec25000138c626,1,59,65,47,47,42,Male,,,"<p style=""font-size:50px"">You win!
+10 points this round!</p>",,,,,,,,,,,,,,,,,,,,,,,,,,,,
101,0,,html-keyboard-response,101,291041,0.0-4.15-4.15,l01wn5j792,2022-09-19 13:29:34.278,5bc7a4433dec25000138c626,1,59,65,47,47,42,Male,,,,,1.0,learning,15.0,D,,black,,stars,,,,D,black,stars,,0.0,0.0,1,left,520.0,9.0,1.0,1.0,,,,
102,0,,html-keyboard-response,102,292554,0.0-4.16-0.16,l01wn5j792,2022-09-19 13:29:34.278,5bc7a4433dec25000138c626,1,59,65,47,47,42,Male,,,"<img src=""static/images/cards/stack_of_red_bolts.svg"" width=""175px"" height=""250px""></img>",,,,,,,,,,,,,,,,,,,,,,,,,,,,
103,0,,html-keyboard-response,103,293762,0.0-4.16-1.16,l01wn5j792,2022-09-19 13:29:34.278,5bc7a4433dec25000138c626,1,59,65,47,47,42,Male,692.0,,"
  <table>
  <tr height=300>
    <td width=300 height=300><img src=""static/images/cards/back_of_red_bolts.svg"" width=""175px"" height=""250px""></img></td>
    <td width=300 height=300><img src=""static/images/cards/back_of_red_bolts.svg"" width=""175px"" height=""250px""></img></td>
  </tr>
  <tr height=200>
    <td width=300><img src=""static/images/keys/z.svg"" width=""35%"" height=""75%""></img></td>
    <td width=300><img src=""static/images/keys/m.svg"" width=""35%"" height=""75%""></img></td>
  </tr>
</table>
  ",90.0,,,,,,,,,,,,,,,,,,,,,,,,,1.0,,
104,0,,html-keyboard-response,104,295264,0.0-4.16-2.16,l01wn5j792,2022-09-19 13:29:34.278,5bc7a4433dec25000138c626,1,59,65,47,47,42,Male,,,"
  <table>
  <tr height=300>
    <td width=300 height=300><img src=""static/images/cards/9_of_red_bolts.svg"" width=""175px"" height=""250px""></img></td>
    <td width=300 height=300><img src=""static/images/cards/back_of_red_bolts.svg"" width=""175px"" height=""250px""></img></td>
  </tr>
  <tr height=200>
    <td width=300><img src=""static/images/keys/z.svg"" width=""35%"" height=""75%""></img></td>
    <td width=300><img src=""static/images/keys/m.svg"" width=""35%"" height=""75%""></img></td>
  </tr>
</table>
  ",,,,,,,,,,,,,,,,,,,,,,,,,,,,
105,0,,html-keyboard-response,105,296788,0.0-4.16-3.16,l01wn5j792,2022-09-19 13:29:34.278,5bc7a4433dec25000138c626,1,59,65,47,47,42,Male,,,"<p style=""font-size:50px"">You win!
+10 points this round!</p>",,,,,,,,,,,,,,,,,,,,,,,,,,,,
106,0,,html-keyboard-response,106,297307,0.0-4.16-4.16,l01wn5j792,2022-09-19 13:29:34.278,5bc7a4433dec25000138c626,1,59,65,47,47,42,Male,,,,,1.0,learning,16.0,Xc,,red,,bolts,,,,Xc,red,bolts,,1.0,0.0,NA,left,692.0,9.0,1.0,1.0,,,,
107,0,,html-keyboard-response,107,298821,0.0-4.17-0.17,l01wn5j792,2022-09-19 13:29:34.278,5bc7a4433dec25000138c626,1,59,65,47,47,42,Male,,,"<img src=""static/images/cards/stack_of_black_bolts.svg"" width=""175px"" height=""250px""></img>",,,,,,,,,,,,,,,,,,,,,,,,,,,,
108,0,,html-keyboard-response,108,299752,0.0-4.17-1.17,l01wn5j792,2022-09-19 13:29:34.278,5bc7a4433dec25000138c626,1,59,65,47,47,42,Male,417.1999999993,,"
  <table>
  <tr height=300>
    <td width=300 height=300><img src=""static/images/cards/back_of_black_bolts.svg"" width=""175px"" height=""250px""></img></td>
    <td width=300 height=300><img src=""static/images/cards/back_of_black_bolts.svg"" width=""175px"" height=""250px""></img></td>
  </tr>
  <tr height=200>
    <td width=300><img src=""static/images/keys/z.svg"" width=""35%"" height=""75%""></img></td>
    <td width=300></td>
  </tr>
</table>
  ",90.0,,,,,,,,,,,,,,,,,,,,,,,,,1.0,,
109,0,,html-keyboard-response,109,301268,0.0-4.17-2.17,l01wn5j792,2022-09-19 13:29:34.278,5bc7a4433dec25000138c626,1,59,65,47,47,42,Male,,,"
  <table>
  <tr height=300>
    <td width=300 height=300><img src=""static/images/cards/8_of_black_bolts.svg"" width=""175px"" height=""250px""></img></td>
    <td width=300 height=300><img src=""static/images/cards/back_of_black_bolts.svg"" width=""175px"" height=""250px""></img></td>
  </tr>
  <tr height=200>
    <td width=300><img src=""static/images/keys/z.svg"" width=""35%"" height=""75%""></img></td>
    <td width=300></td>
  </tr>
</table>
  ",,,,,,,,,,,,,,,,,,,,,,,,,,,,
110,0,,html-keyboard-response,110,302784,0.0-4.17-3.17,l01wn5j792,2022-09-19 13:29:34.278,5bc7a4433dec25000138c626,1,59,65,47,47,42,Male,,,"<p style=""font-size:50px"">You win!
+10 points this round!</p>",,,,,,,,,,,,,,,,,,,,,,,,,,,,
111,0,,html-keyboard-response,111,303290,0.0-4.17-4.17,l01wn5j792,2022-09-19 13:29:34.278,5bc7a4433dec25000138c626,1,59,65,47,47,42,Male,,,,,1.0,learning,17.0,Xnc,,black,,bolts,,,,Xnc,black,bolts,,0.0,0.0,1,left,417.1999999993,8.0,1.0,1.0,,,,
112,0,,html-keyboard-response,112,304793,0.0-4.18-0.18,l01wn5j792,2022-09-19 13:29:34.278,5bc7a4433dec25000138c626,1,59,65,47,47,42,Male,,,"<img src=""static/images/cards/stack_of_red_moons.svg"" width=""175px"" height=""250px""></img>",,,,,,,,,,,,,,,,,,,,,,,,,,,,
113,0,,html-keyboard-response,113,305963,0.0-4.18-1.18,l01wn5j792,2022-09-19 13:29:34.278,5bc7a4433dec25000138c626,1,59,65,47,47,42,Male,660.2000000011,,"
  <table>
  <tr height=300>
    <td width=300 height=300><img src=""static/images/cards/back_of_red_moons.svg"" width=""175px"" height=""250px""></img></td>
    <td width=300 height=300><img src=""static/images/cards/back_of_red_moons.svg"" width=""175px"" height=""250px""></img></td>
  </tr>
  <tr height=200>
    <td width=300><img src=""static/images/keys/z.svg"" width=""35%"" height=""75%""></img></td>
    <td width=300><img src=""static/images/keys/m.svg"" width=""35%"" height=""75%""></img></td>
  </tr>
</table>
  ",77.0,,,,,,,,,,,,,,,,,,,,,,,,,1.0,,
114,0,,html-keyboard-response,114,307466,0.0-4.18-2.18,l01wn5j792,2022-09-19 13:29:34.278,5bc7a4433dec25000138c626,1,59,65,47,47,42,Male,,,"
  <table>
  <tr height=300>
    <td width=300 height=300><img src=""static/images/cards/back_of_red_moons.svg"" width=""175px"" height=""250px""></img></td>
    <td width=300 height=300><img src=""static/images/cards/2_of_red_moons.svg"" width=""175px"" height=""250px""></img></td>
  </tr>
  <tr height=200>
    <td width=300><img src=""static/images/keys/z.svg"" width=""35%"" height=""75%""></img></td>
    <td width=300><img src=""static/images/keys/m.svg"" width=""35%"" height=""75%""></img></td>
  </tr>
</table>
  ",,,,,,,,,,,,,,,,,,,,,,,,,,,,
115,0,,html-keyboard-response,115,308982,0.0-4.18-3.18,l01wn5j792,2022-09-19 13:29:34.278,5bc7a4433dec25000138c626,1,59,65,47,47,42,Male,,,"<p style=""font-size:50px"">You Lose!
No points this round.</p>",,,,,,,,,,,,,,,,,,,,,,,,,,,,
116,0,,html-keyboard-response,116,309501,0.0-4.18-4.18,l01wn5j792,2022-09-19 13:29:34.278,5bc7a4433dec25000138c626,1,59,65,47,47,42,Male,,,,,1.0,learning,18.0,A,,red,,moons,,,,A,red,moons,,1.0,1.0,NA,right,660.2000000011,2.0,0.0,0.0,,,,
117,0,,html-keyboard-response,117,311016,0.0-4.19-0.19,l01wn5j792,2022-09-19 13:29:34.278,5bc7a4433dec25000138c626,1,59,65,47,47,42,Male,,,"<img src=""static/images/cards/stack_of_black_moons.svg"" width=""175px"" height=""250px""></img>",,,,,,,,,,,,,,,,,,,,,,,,,,,,
118,0,,html-keyboard-response,118,312083,0.0-4.19-1.19,l01wn5j792,2022-09-19 13:29:34.278,5bc7a4433dec25000138c626,1,59,65,47,47,42,Male,553.9000000004,,"
  <table>
  <tr height=300>
    <td width=300 height=300><img src=""static/images/cards/back_of_black_moons.svg"" width=""175px"" height=""250px""></img></td>
    <td width=300 height=300><img src=""static/images/cards/back_of_black_moons.svg"" width=""175px"" height=""250px""></img></td>
  </tr>
  <tr height=200>
    <td width=300></td>
    <td width=300><img src=""static/images/keys/m.svg"" width=""35%"" height=""75%""></img></td>
  </tr>
</table>
  ",77.0,,,,,,,,,,,,,,,,,,,,,,,,,1.0,,
119,0,,html-keyboard-response,119,313589,0.0-4.19-2.19,l01wn5j792,2022-09-19 13:29:34.278,5bc7a4433dec25000138c626,1,59,65,47,47,42,Male,,,"
  <table>
  <tr height=300>
    <td width=300 height=300><img src=""static/images/cards/back_of_black_moons.svg"" width=""175px"" height=""250px""></img></td>
    <td width=300 height=300><img src=""static/images/cards/10_of_black_moons.svg"" width=""175px"" height=""250px""></img></td>
  </tr>
  <tr height=200>
    <td width=300></td>
    <td width=300><img src=""static/images/keys/m.svg"" width=""35%"" height=""75%""></img></td>
  </tr>
</table>
  ",,,,,,,,,,,,,,,,,,,,,,,,,,,,
120,0,,html-keyboard-response,120,315101,0.0-4.19-3.19,l01wn5j792,2022-09-19 13:29:34.278,5bc7a4433dec25000138c626,1,59,65,47,47,42,Male,,,"<p style=""font-size:50px"">You win!
+10 points this round!</p>",,,,,,,,,,,,,,,,,,,,,,,,,,,,
121,0,,html-keyboard-response,121,315615,0.0-4.19-4.19,l01wn5j792,2022-09-19 13:29:34.278,5bc7a4433dec25000138c626,1,59,65,47,47,42,Male,,,,,1.0,learning,19.0,B,,black,,moons,,,,B,black,moons,,0.0,1.0,0,right,553.9000000004,10.0,1.0,1.0,,,,
122,0,,html-keyboard-response,122,317131,0.0-4.20-0.20,l01wn5j792,2022-09-19 13:29:34.278,5bc7a4433dec25000138c626,1,59,65,47,47,42,Male,,,"<img src=""static/images/cards/stack_of_red_stars.svg"" width=""175px"" height=""250px""></img>",,,,,,,,,,,,,,,,,,,,,,,,,,,,
123,0,,html-keyboard-response,123,318391,0.0-4.20-1.20,l01wn5j792,2022-09-19 13:29:34.278,5bc7a4433dec25000138c626,1,59,65,47,47,42,Male,746.0,,"
  <table>
  <tr height=300>
    <td width=300 height=300><img src=""static/images/cards/back_of_red_stars.svg"" width=""175px"" height=""250px""></img></td>
    <td width=300 height=300><img src=""static/images/cards/back_of_red_stars.svg"" width=""175px"" height=""250px""></img></td>
  </tr>
  <tr height=200>
    <td width=300><img src=""static/images/keys/z.svg"" width=""35%"" height=""75%""></img></td>
    <td width=300><img src=""static/images/keys/m.svg"" width=""35%"" height=""75%""></img></td>
  </tr>
</table>
  ",90.0,,,,,,,,,,,,,,,,,,,,,,,,,1.0,,
124,0,,html-keyboard-response,124,319896,0.0-4.20-2.20,l01wn5j792,2022-09-19 13:29:34.278,5bc7a4433dec25000138c626,1,59,65,47,47,42,Male,,,"
  <table>
  <tr height=300>
    <td width=300 height=300><img src=""static/images/cards/10_of_red_stars.svg"" width=""175px"" height=""250px""></img></td>
    <td width=300 height=300><img src=""static/images/cards/back_of_red_stars.svg"" width=""175px"" height=""250px""></img></td>
  </tr>
  <tr height=200>
    <td width=300><img src=""static/images/keys/z.svg"" width=""35%"" height=""75%""></img></td>
    <td width=300><img src=""static/images/keys/m.svg"" width=""35%"" height=""75%""></img></td>
  </tr>
</table>
  ",,,,,,,,,,,,,,,,,,,,,,,,,,,,
125,0,,html-keyboard-response,125,321409,0.0-4.20-3.20,l01wn5j792,2022-09-19 13:29:34.278,5bc7a4433dec25000138c626,1,59,65,47,47,42,Male,,,"<p style=""font-size:50px"">You win!
+10 points this round!</p>",,,,,,,,,,,,,,,,,,,,,,,,,,,,
126,0,,html-keyboard-response,126,321929,0.0-4.20-4.20,l01wn5j792,2022-09-19 13:29:34.278,5bc7a4433dec25000138c626,1,59,65,47,47,42,Male,,,,,1.0,learning,20.0,C,,red,,stars,,,,C,red,stars,,1.0,0.0,NA,left,746.0,10.0,1.0,1.0,,,,
127,0,,html-keyboard-response,127,323445,0.0-4.21-0.21,l01wn5j792,2022-09-19 13:29:34.278,5bc7a4433dec25000138c626,1,59,65,47,47,42,Male,,,"<img src=""static/images/cards/stack_of_black_stars.svg"" width=""175px"" height=""250px""></img>",,,,,,,,,,,,,,,,,,,,,,,,,,,,
128,0,,html-keyboard-response,128,324587,0.0-4.21-1.21,l01wn5j792,2022-09-19 13:29:34.278,5bc7a4433dec25000138c626,1,59,65,47,47,42,Male,626.5999999996,,"
  <table>
  <tr height=300>
    <td width=300 height=300><img src=""static/images/cards/back_of_black_stars.svg"" width=""175px"" height=""250px""></img></td>
    <td width=300 height=300><img src=""static/images/cards/back_of_black_stars.svg"" width=""175px"" height=""250px""></img></td>
  </tr>
  <tr height=200>
    <td width=300><img src=""static/images/keys/z.svg"" width=""35%"" height=""75%""></img></td>
    <td width=300></td>
  </tr>
</table>
  ",90.0,,,,,,,,,,,,,,,,,,,,,,,,,1.0,,
129,0,,html-keyboard-response,129,326094,0.0-4.21-2.21,l01wn5j792,2022-09-19 13:29:34.278,5bc7a4433dec25000138c626,1,59,65,47,47,42,Male,,,"
  <table>
  <tr height=300>
    <td width=300 height=300><img src=""static/images/cards/2_of_black_stars.svg"" width=""175px"" height=""250px""></img></td>
    <td width=300 height=300><img src=""static/images/cards/back_of_black_stars.svg"" width=""175px"" height=""250px""></img></td>
  </tr>
  <tr height=200>
    <td width=300><img src=""static/images/keys/z.svg"" width=""35%"" height=""75%""></img></td>
    <td width=300></td>
  </tr>
</table>
  ",,,,,,,,,,,,,,,,,,,,,,,,,,,,
130,0,,html-keyboard-response,130,327622,0.0-4.21-3.21,l01wn5j792,2022-09-19 13:29:34.278,5bc7a4433dec25000138c626,1,59,65,47,47,42,Male,,,"<p style=""font-size:50px"">You Lose!
No points this round.</p>",,,,,,,,,,,,,,,,,,,,,,,,,,,,
131,0,,html-keyboard-response,131,328128,0.0-4.21-4.21,l01wn5j792,2022-09-19 13:29:34.278,5bc7a4433dec25000138c626,1,59,65,47,47,42,Male,,,,,1.0,learning,21.0,D,,black,,stars,,,,D,black,stars,,0.0,0.0,1,left,626.5999999996,2.0,0.0,0.0,,,,
132,0,,html-keyboard-response,132,329635,0.0-4.22-0.22,l01wn5j792,2022-09-19 13:29:34.278,5bc7a4433dec25000138c626,1,59,65,47,47,42,Male,,,"<img src=""static/images/cards/stack_of_red_bolts.svg"" width=""175px"" height=""250px""></img>",,,,,,,,,,,,,,,,,,,,,,,,,,,,
133,0,,html-keyboard-response,133,331225,0.0-4.22-1.22,l01wn5j792,2022-09-19 13:29:34.278,5bc7a4433dec25000138c626,1,59,65,47,47,42,Male,1085.8000000007,,"
  <table>
  <tr height=300>
    <td width=300 height=300><img src=""static/images/cards/back_of_red_bolts.svg"" width=""175px"" height=""250px""></img></td>
    <td width=300 height=300><img src=""static/images/cards/back_of_red_bolts.svg"" width=""175px"" height=""250px""></img></td>
  </tr>
  <tr height=200>
    <td width=300><img src=""static/images/keys/z.svg"" width=""35%"" height=""75%""></img></td>
    <td width=300><img src=""static/images/keys/m.svg"" width=""35%"" height=""75%""></img></td>
  </tr>
</table>
  ",77.0,,,,,,,,,,,,,,,,,,,,,,,,,1.0,,
134,0,,html-keyboard-response,134,332742,0.0-4.22-2.22,l01wn5j792,2022-09-19 13:29:34.278,5bc7a4433dec25000138c626,1,59,65,47,47,42,Male,,,"
  <table>
  <tr height=300>
    <td width=300 height=300><img src=""static/images/cards/back_of_red_bolts.svg"" width=""175px"" height=""250px""></img></td>
    <td width=300 height=300><img src=""static/images/cards/3_of_red_bolts.svg"" width=""175px"" height=""250px""></img></td>
  </tr>
  <tr height=200>
    <td width=300><img src=""static/images/keys/z.svg"" width=""35%"" height=""75%""></img></td>
    <td width=300><img src=""static/images/keys/m.svg"" width=""35%"" height=""75%""></img></td>
  </tr>
</table>
  ",,,,,,,,,,,,,,,,,,,,,,,,,,,,
135,0,,html-keyboard-response,135,334260,0.0-4.22-3.22,l01wn5j792,2022-09-19 13:29:34.278,5bc7a4433dec25000138c626,1,59,65,47,47,42,Male,,,"<p style=""font-size:50px"">You win!
+10 points this round!</p>",,,,,,,,,,,,,,,,,,,,,,,,,,,,
136,0,,html-keyboard-response,136,334776,0.0-4.22-4.22,l01wn5j792,2022-09-19 13:29:34.278,5bc7a4433dec25000138c626,1,59,65,47,47,42,Male,,,,,1.0,learning,22.0,Xc,,red,,bolts,,,,Xc,red,bolts,,1.0,0.0,NA,right,1085.8000000007,3.0,0.0,1.0,,,,
137,0,,html-keyboard-response,137,336289,0.0-4.23-0.23,l01wn5j792,2022-09-19 13:29:34.278,5bc7a4433dec25000138c626,1,59,65,47,47,42,Male,,,"<img src=""static/images/cards/stack_of_black_bolts.svg"" width=""175px"" height=""250px""></img>",,,,,,,,,,,,,,,,,,,,,,,,,,,,
138,0,,html-keyboard-response,138,337304,0.0-4.23-1.23,l01wn5j792,2022-09-19 13:29:34.278,5bc7a4433dec25000138c626,1,59,65,47,47,42,Male,501.8999999985,,"
  <table>
  <tr height=300>
    <td width=300 height=300><img src=""static/images/cards/back_of_black_bolts.svg"" width=""175px"" height=""250px""></img></td>
    <td width=300 height=300><img src=""static/images/cards/back_of_black_bolts.svg"" width=""175px"" height=""250px""></img></td>
  </tr>
  <tr height=200>
    <td width=300></td>
    <td width=300><img src=""static/images/keys/m.svg"" width=""35%"" height=""75%""></img></td>
  </tr>
</table>
  ",77.0,,,,,,,,,,,,,,,,,,,,,,,,,1.0,,
139,0,,html-keyboard-response,139,338821,0.0-4.23-2.23,l01wn5j792,2022-09-19 13:29:34.278,5bc7a4433dec25000138c626,1,59,65,47,47,42,Male,,,"
  <table>
  <tr height=300>
    <td width=300 height=300><img src=""static/images/cards/back_of_black_bolts.svg"" width=""175px"" height=""250px""></img></td>
    <td width=300 height=300><img src=""static/images/cards/3_of_black_bolts.svg"" width=""175px"" height=""250px""></img></td>
  </tr>
  <tr height=200>
    <td width=300></td>
    <td width=300><img src=""static/images/keys/m.svg"" width=""35%"" height=""75%""></img></td>
  </tr>
</table>
  ",,,,,,,,,,,,,,,,,,,,,,,,,,,,
140,0,,html-keyboard-response,140,340349,0.0-4.23-3.23,l01wn5j792,2022-09-19 13:29:34.278,5bc7a4433dec25000138c626,1,59,65,47,47,42,Male,,,"<p style=""font-size:50px"">You win!
+10 points this round!</p>",,,,,,,,,,,,,,,,,,,,,,,,,,,,
141,0,,html-keyboard-response,141,340856,0.0-4.23-4.23,l01wn5j792,2022-09-19 13:29:34.278,5bc7a4433dec25000138c626,1,59,65,47,47,42,Male,,,,,1.0,learning,23.0,Xnc,,black,,bolts,,,,Xnc,black,bolts,,0.0,0.0,0,right,501.8999999985,3.0,0.0,1.0,,,,
142,0,,call-function,142,340861,0.0-5.0,l01wn5j792,2022-09-19 13:29:34.278,5bc7a4433dec25000138c626,1,59,65,47,47,42,Male,,,,,,,,,,,,,,,,,,,,,,,,,,,,,,,
143,0,,image-keyboard-response,143,347044,0.0-6.0-0.0,l01wn5j792,2022-09-19 13:29:34.278,5bc7a4433dec25000138c626,1,59,65,47,47,42,Male,6183.5,,static/images/instructions_CB_1/Slide20.png,39.0,,,,,,,,,,,,,,,,,,,,,,,,,,,
144,0,,image-keyboard-response,144,357306,0.0-6.1-0.1,l01wn5j792,2022-09-19 13:29:34.278,5bc7a4433dec25000138c626,1,59,65,47,47,42,Male,10261.2000000011,,static/images/instructions_CB_1/Slide21.png,39.0,,,,,,,,,,,,,,,,,,,,,,,,,,,
145,0,,image-keyboard-response,145,360088,0.0-6.2-0.2,l01wn5j792,2022-09-19 13:29:34.278,5bc7a4433dec25000138c626,1,59,65,47,47,42,Male,2781.0,,static/images/instructions_CB_1/Slide22.png,39.0,,,,,,,,,,,,,,,,,,,,,,,,,,,
146,0,,image-keyboard-response,146,380545,0.0-6.3-0.3,l01wn5j792,2022-09-19 13:29:34.278,5bc7a4433dec25000138c626,1,59,65,47,47,42,Male,20469.0,,static/images/instructions_CB_1/Slide23.png,39.0,,,,,,,,,,,,,,,,,,,,,,,,,,,
147,0,,image-keyboard-response,147,384187,0.0-6.4-0.4,l01wn5j792,2022-09-19 13:29:34.278,5bc7a4433dec25000138c626,1,59,65,47,47,42,Male,3641.0,,static/images/instructions_CB_1/Slide24.png,39.0,,,,,,,,,,,,,,,,,,,,,,,,,,,
148,0,,html-keyboard-response,148,386868,0.0-7.0-0.0,l01wn5j792,2022-09-19 13:29:34.278,5bc7a4433dec25000138c626,1,59,65,47,47,42,Male,2679.5,,"
  <table>
  <tr height=300>
    <td width=300 height=300><img src=""static/images/cards/stack_of_red_stars.svg"" width=""175px"" height=""250px""></img></td>
    <td width=300 height=300><img src=""static/images/cards/stack_of_black_stars.svg"" width=""175px"" height=""250px""></img></td>
  </tr>
  <tr height=200>
    <td width=300><img src=""static/images/keys/w.svg"" width=""35%"" height=""75%""></img></td>
    <td width=300><img src=""static/images/keys/o.svg"" width=""35%"" height=""75%""></img></td>
  </tr>
</table>
  ",87.0,,,,,,,,,,,,,,,,,,,,,,,,,2.0,,
149,0,,html-keyboard-response,149,388855,0.0-7.0-1.0,l01wn5j792,2022-09-19 13:29:34.278,5bc7a4433dec25000138c626,1,59,65,47,47,42,Male,1484.5999999996,,"
  <table>
  <tr height=300>
    <td width=300 height=300><img src=""static/images/cards/back_of_red_stars.svg"" width=""175px"" height=""250px""></img></td>
    <td width=300 height=300><img src=""static/images/cards/back_of_red_stars.svg"" width=""175px"" height=""250px""></img></td>
  </tr>
  <tr height=200>
    <td width=300><img src=""static/images/keys/z.svg"" width=""35%"" height=""75%""></img></td>
    <td width=300><img src=""static/images/keys/m.svg"" width=""35%"" height=""75%""></img></td>
  </tr>
</table>
  ",77.0,,,,,,,,,,,,,,,,,,,,,,,,,1.0,,
150,0,,html-keyboard-response,150,390356,0.0-7.0-2.0,l01wn5j792,2022-09-19 13:29:34.278,5bc7a4433dec25000138c626,1,59,65,47,47,42,Male,,,"
  <table>
  <tr height=300>
    <td width=300 height=300><img src=""static/images/cards/back_of_red_stars.svg"" width=""175px"" height=""250px""></img></td>
    <td width=300 height=300><img src=""static/images/cards/8_of_red_stars.svg"" width=""175px"" height=""250px""></img></td>
  </tr>
  <tr height=200>
    <td width=300><img src=""static/images/keys/z.svg"" width=""35%"" height=""75%""></img></td>
    <td width=300><img src=""static/images/keys/m.svg"" width=""35%"" height=""75%""></img></td>
  </tr>
</table>
  ",,,,,,,,,,,,,,,,,,,,,,,,,,,,
151,0,,html-keyboard-response,151,391883,0.0-7.0-3.0,l01wn5j792,2022-09-19 13:29:34.278,5bc7a4433dec25000138c626,1,59,65,47,47,42,Male,,,"<p style=""font-size:50px"">You Lose!
No points this round.</p>",,,,,,,,,,,,,,,,,,,,,,,,,,,,
152,0,,html-keyboard-response,152,392405,0.0-7.0-4.0,l01wn5j792,2022-09-19 13:29:34.278,5bc7a4433dec25000138c626,1,59,65,47,47,42,Male,,,,,1.0,choice,0.0,C,D,red,black,stars,stars,C,D,C,red,stars,2679.5,1.0,0.0,NA,right,1484.5999999996,8.0,1.0,0.0,,,,
153,0,,html-keyboard-response,153,393164,0.0-7.1-0.1,l01wn5j792,2022-09-19 13:29:34.278,5bc7a4433dec25000138c626,1,59,65,47,47,42,Male,758.4000000004,,"
  <table>
  <tr height=300>
    <td width=300 height=300><img src=""static/images/cards/stack_of_red_stars.svg"" width=""175px"" height=""250px""></img></td>
    <td width=300 height=300><img src=""static/images/cards/stack_of_black_stars.svg"" width=""175px"" height=""250px""></img></td>
  </tr>
  <tr height=200>
    <td width=300><img src=""static/images/keys/w.svg"" width=""35%"" height=""75%""></img></td>
    <td width=300><img src=""static/images/keys/o.svg"" width=""35%"" height=""75%""></img></td>
  </tr>
</table>
  ",87.0,,,,,,,,,,,,,,,,,,,,,,,,,1.0,,
154,0,,html-keyboard-response,154,395390,0.0-7.1-1.1,l01wn5j792,2022-09-19 13:29:34.278,5bc7a4433dec25000138c626,1,59,65,47,47,42,Male,1721.4000000004,,"
  <table>
  <tr height=300>
    <td width=300 height=300><img src=""static/images/cards/back_of_red_stars.svg"" width=""175px"" height=""250px""></img></td>
    <td width=300 height=300><img src=""static/images/cards/back_of_red_stars.svg"" width=""175px"" height=""250px""></img></td>
  </tr>
  <tr height=200>
    <td width=300><img src=""static/images/keys/z.svg"" width=""35%"" height=""75%""></img></td>
    <td width=300><img src=""static/images/keys/m.svg"" width=""35%"" height=""75%""></img></td>
  </tr>
</table>
  ",90.0,,,,,,,,,,,,,,,,,,,,,,,,,1.0,,
155,0,,html-keyboard-response,155,396892,0.0-7.1-2.1,l01wn5j792,2022-09-19 13:29:34.278,5bc7a4433dec25000138c626,1,59,65,47,47,42,Male,,,"
  <table>
  <tr height=300>
    <td width=300 height=300><img src=""static/images/cards/9_of_red_stars.svg"" width=""175px"" height=""250px""></img></td>
    <td width=300 height=300><img src=""static/images/cards/back_of_red_stars.svg"" width=""175px"" height=""250px""></img></td>
  </tr>
  <tr height=200>
    <td width=300><img src=""static/images/keys/z.svg"" width=""35%"" height=""75%""></img></td>
    <td width=300><img src=""static/images/keys/m.svg"" width=""35%"" height=""75%""></img></td>
  </tr>
</table>
  ",,,,,,,,,,,,,,,,,,,,,,,,,,,,
156,0,,html-keyboard-response,156,398405,0.0-7.1-3.1,l01wn5j792,2022-09-19 13:29:34.278,5bc7a4433dec25000138c626,1,59,65,47,47,42,Male,,,"<p style=""font-size:50px"">You Lose!
No points this round.</p>",,,,,,,,,,,,,,,,,,,,,,,,,,,,
157,0,,html-keyboard-response,157,398922,0.0-7.1-4.1,l01wn5j792,2022-09-19 13:29:34.278,5bc7a4433dec25000138c626,1,59,65,47,47,42,Male,,,,,1.0,choice,1.0,C,D,red,black,stars,stars,C,D,C,red,stars,758.4000000004,1.0,0.0,NA,left,1721.4000000004,9.0,1.0,0.0,,,,
158,0,,html-keyboard-response,158,400374,0.0-7.2-0.2,l01wn5j792,2022-09-19 13:29:34.278,5bc7a4433dec25000138c626,1,59,65,47,47,42,Male,1450.0,,"
  <table>
  <tr height=300>
    <td width=300 height=300><img src=""static/images/cards/stack_of_red_moons.svg"" width=""175px"" height=""250px""></img></td>
    <td width=300 height=300><img src=""static/images/cards/stack_of_black_stars.svg"" width=""175px"" height=""250px""></img></td>
  </tr>
  <tr height=200>
    <td width=300><img src=""static/images/keys/w.svg"" width=""35%"" height=""75%""></img></td>
    <td width=300><img src=""static/images/keys/o.svg"" width=""35%"" height=""75%""></img></td>
  </tr>
</table>
  ",79.0,,,,,,,,,,,,,,,,,,,,,,,,,1.0,,
159,0,,html-keyboard-response,159,401939,0.0-7.2-1.2,l01wn5j792,2022-09-19 13:29:34.278,5bc7a4433dec25000138c626,1,59,65,47,47,42,Male,1058.0999999996,,"
  <table>
  <tr height=300>
    <td width=300 height=300><img src=""static/images/cards/back_of_black_stars.svg"" width=""175px"" height=""250px""></img></td>
    <td width=300 height=300><img src=""static/images/cards/back_of_black_stars.svg"" width=""175px"" height=""250px""></img></td>
  </tr>
  <tr height=200>
    <td width=300></td>
    <td width=300><img src=""static/images/keys/m.svg"" width=""35%"" height=""75%""></img></td>
  </tr>
</table>
  ",77.0,,,,,,,,,,,,,,,,,,,,,,,,,1.0,,
160,0,,html-keyboard-response,160,403451,0.0-7.2-2.2,l01wn5j792,2022-09-19 13:29:34.278,5bc7a4433dec25000138c626,1,59,65,47,47,42,Male,,,"
  <table>
  <tr height=300>
    <td width=300 height=300><img src=""static/images/cards/back_of_black_stars.svg"" width=""175px"" height=""250px""></img></td>
    <td width=300 height=300><img src=""static/images/cards/4_of_black_stars.svg"" width=""175px"" height=""250px""></img></td>
  </tr>
  <tr height=200>
    <td width=300></td>
    <td width=300><img src=""static/images/keys/m.svg"" width=""35%"" height=""75%""></img></td>
  </tr>
</table>
  ",,,,,,,,,,,,,,,,,,,,,,,,,,,,
161,0,,html-keyboard-response,161,404966,0.0-7.2-3.2,l01wn5j792,2022-09-19 13:29:34.278,5bc7a4433dec25000138c626,1,59,65,47,47,42,Male,,,"<p style=""font-size:50px"">You Lose!
No points this round.</p>",,,,,,,,,,,,,,,,,,,,,,,,,,,,
162,0,,html-keyboard-response,162,405483,0.0-7.2-4.2,l01wn5j792,2022-09-19 13:29:34.278,5bc7a4433dec25000138c626,1,59,65,47,47,42,Male,,,,,1.0,choice,2.0,A,D,red,black,moons,stars,A,D,D,black,stars,1450.0,0.0,0.0,0,right,1058.0999999996,4.0,0.0,0.0,,,,
163,0,,html-keyboard-response,163,406795,0.0-7.3-0.3,l01wn5j792,2022-09-19 13:29:34.278,5bc7a4433dec25000138c626,1,59,65,47,47,42,Male,1311.2000000011,,"
  <table>
  <tr height=300>
    <td width=300 height=300><img src=""static/images/cards/stack_of_black_moons.svg"" width=""175px"" height=""250px""></img></td>
    <td width=300 height=300><img src=""static/images/cards/stack_of_red_moons.svg"" width=""175px"" height=""250px""></img></td>
  </tr>
  <tr height=200>
    <td width=300><img src=""static/images/keys/w.svg"" width=""35%"" height=""75%""></img></td>
    <td width=300><img src=""static/images/keys/o.svg"" width=""35%"" height=""75%""></img></td>
  </tr>
</table>
  ",79.0,,,,,,,,,,,,,,,,,,,,,,,,,1.0,,
164,0,,html-keyboard-response,164,408352,0.0-7.3-1.3,l01wn5j792,2022-09-19 13:29:34.278,5bc7a4433dec25000138c626,1,59,65,47,47,42,Male,1053.5999999996,,"
  <table>
  <tr height=300>
    <td width=300 height=300><img src=""static/images/cards/back_of_red_moons.svg"" width=""175px"" height=""250px""></img></td>
    <td width=300 height=300><img src=""static/images/cards/back_of_red_moons.svg"" width=""175px"" height=""250px""></img></td>
  </tr>
  <tr height=200>
    <td width=300><img src=""static/images/keys/z.svg"" width=""35%"" height=""75%""></img></td>
    <td width=300><img src=""static/images/keys/m.svg"" width=""35%"" height=""75%""></img></td>
  </tr>
</table>
  ",77.0,,,,,,,,,,,,,,,,,,,,,,,,,1.0,,
165,0,,html-keyboard-response,165,409866,0.0-7.3-2.3,l01wn5j792,2022-09-19 13:29:34.278,5bc7a4433dec25000138c626,1,59,65,47,47,42,Male,,,"
  <table>
  <tr height=300>
    <td width=300 height=300><img src=""static/images/cards/back_of_red_moons.svg"" width=""175px"" height=""250px""></img></td>
    <td width=300 height=300><img src=""static/images/cards/6_of_red_moons.svg"" width=""175px"" height=""250px""></img></td>
  </tr>
  <tr height=200>
    <td width=300><img src=""static/images/keys/z.svg"" width=""35%"" height=""75%""></img></td>
    <td width=300><img src=""static/images/keys/m.svg"" width=""35%"" height=""75%""></img></td>
  </tr>
</table>
  ",,,,,,,,,,,,,,,,,,,,,,,,,,,,
166,0,,html-keyboard-response,166,411379,0.0-7.3-3.3,l01wn5j792,2022-09-19 13:29:34.278,5bc7a4433dec25000138c626,1,59,65,47,47,42,Male,,,"<p style=""font-size:50px"">You win!
+10 points this round!</p>",,,,,,,,,,,,,,,,,,,,,,,,,,,,
167,0,,html-keyboard-response,167,411897,0.0-7.3-4.3,l01wn5j792,2022-09-19 13:29:34.278,5bc7a4433dec25000138c626,1,59,65,47,47,42,Male,,,,,1.0,choice,3.0,A,B,black,red,moons,moons,B,A,A,red,moons,1311.2000000011,1.0,1.0,NA,right,1053.5999999996,6.0,1.0,1.0,,,,
168,0,,html-keyboard-response,168,413100,0.0-7.4-0.4,l01wn5j792,2022-09-19 13:29:34.278,5bc7a4433dec25000138c626,1,59,65,47,47,42,Male,1201.3000000007,,"
  <table>
  <tr height=300>
    <td width=300 height=300><img src=""static/images/cards/stack_of_red_moons.svg"" width=""175px"" height=""250px""></img></td>
    <td width=300 height=300><img src=""static/images/cards/stack_of_red_stars.svg"" width=""175px"" height=""250px""></img></td>
  </tr>
  <tr height=200>
    <td width=300><img src=""static/images/keys/w.svg"" width=""35%"" height=""75%""></img></td>
    <td width=300><img src=""static/images/keys/o.svg"" width=""35%"" height=""75%""></img></td>
  </tr>
</table>
  ",79.0,,,,,,,,,,,,,,,,,,,,,,,,,1.0,,
169,0,,html-keyboard-response,169,415009,0.0-7.4-1.4,l01wn5j792,2022-09-19 13:29:34.278,5bc7a4433dec25000138c626,1,59,65,47,47,42,Male,1400.7999999989,,"
  <table>
  <tr height=300>
    <td width=300 height=300><img src=""static/images/cards/back_of_red_stars.svg"" width=""175px"" height=""250px""></img></td>
    <td width=300 height=300><img src=""static/images/cards/back_of_red_stars.svg"" width=""175px"" height=""250px""></img></td>
  </tr>
  <tr height=200>
    <td width=300><img src=""static/images/keys/z.svg"" width=""35%"" height=""75%""></img></td>
    <td width=300><img src=""static/images/keys/m.svg"" width=""35%"" height=""75%""></img></td>
  </tr>
</table>
  ",90.0,,,,,,,,,,,,,,,,,,,,,,,,,1.0,,
170,0,,html-keyboard-response,170,416515,0.0-7.4-2.4,l01wn5j792,2022-09-19 13:29:34.278,5bc7a4433dec25000138c626,1,59,65,47,47,42,Male,,,"
  <table>
  <tr height=300>
    <td width=300 height=300><img src=""static/images/cards/1_of_red_stars.svg"" width=""175px"" height=""250px""></img></td>
    <td width=300 height=300><img src=""static/images/cards/back_of_red_stars.svg"" width=""175px"" height=""250px""></img></td>
  </tr>
  <tr height=200>
    <td width=300><img src=""static/images/keys/z.svg"" width=""35%"" height=""75%""></img></td>
    <td width=300><img src=""static/images/keys/m.svg"" width=""35%"" height=""75%""></img></td>
  </tr>
</table>
  ",,,,,,,,,,,,,,,,,,,,,,,,,,,,
171,0,,html-keyboard-response,171,418027,0.0-7.4-3.4,l01wn5j792,2022-09-19 13:29:34.278,5bc7a4433dec25000138c626,1,59,65,47,47,42,Male,,,"<p style=""font-size:50px"">You Lose!
No points this round.</p>",,,,,,,,,,,,,,,,,,,,,,,,,,,,
172,0,,html-keyboard-response,172,418546,0.0-7.4-4.4,l01wn5j792,2022-09-19 13:29:34.278,5bc7a4433dec25000138c626,1,59,65,47,47,42,Male,,,,,1.0,choice,4.0,A,C,red,red,moons,stars,A,C,C,red,stars,1201.3000000007,1.0,0.0,NA,left,1400.7999999989,1.0,0.0,0.0,,,,
173,0,,html-keyboard-response,173,419778,0.0-7.5-0.5,l01wn5j792,2022-09-19 13:29:34.278,5bc7a4433dec25000138c626,1,59,65,47,47,42,Male,1230.6000000015,,"
  <table>
  <tr height=300>
    <td width=300 height=300><img src=""static/images/cards/stack_of_black_moons.svg"" width=""175px"" height=""250px""></img></td>
    <td width=300 height=300><img src=""static/images/cards/stack_of_red_moons.svg"" width=""175px"" height=""250px""></img></td>
  </tr>
  <tr height=200>
    <td width=300><img src=""static/images/keys/w.svg"" width=""35%"" height=""75%""></img></td>
    <td width=300><img src=""static/images/keys/o.svg"" width=""35%"" height=""75%""></img></td>
  </tr>
</table>
  ",87.0,,,,,,,,,,,,,,,,,,,,,,,,,1.0,,
174,0,,html-keyboard-response,174,421469,0.0-7.5-1.5,l01wn5j792,2022-09-19 13:29:34.278,5bc7a4433dec25000138c626,1,59,65,47,47,42,Male,1177.5,,"
  <table>
  <tr height=300>
    <td width=300 height=300><img src=""static/images/cards/back_of_black_moons.svg"" width=""175px"" height=""250px""></img></td>
    <td width=300 height=300><img src=""static/images/cards/back_of_black_moons.svg"" width=""175px"" height=""250px""></img></td>
  </tr>
  <tr height=200>
    <td width=300><img src=""static/images/keys/z.svg"" width=""35%"" height=""75%""></img></td>
    <td width=300></td>
  </tr>
</table>
  ",90.0,,,,,,,,,,,,,,,,,,,,,,,,,1.0,,
175,0,,html-keyboard-response,175,422976,0.0-7.5-2.5,l01wn5j792,2022-09-19 13:29:34.278,5bc7a4433dec25000138c626,1,59,65,47,47,42,Male,,,"
  <table>
  <tr height=300>
    <td width=300 height=300><img src=""static/images/cards/1_of_black_moons.svg"" width=""175px"" height=""250px""></img></td>
    <td width=300 height=300><img src=""static/images/cards/back_of_black_moons.svg"" width=""175px"" height=""250px""></img></td>
  </tr>
  <tr height=200>
    <td width=300><img src=""static/images/keys/z.svg"" width=""35%"" height=""75%""></img></td>
    <td width=300></td>
  </tr>
</table>
  ",,,,,,,,,,,,,,,,,,,,,,,,,,,,
176,0,,html-keyboard-response,176,424507,0.0-7.5-3.5,l01wn5j792,2022-09-19 13:29:34.278,5bc7a4433dec25000138c626,1,59,65,47,47,42,Male,,,"<p style=""font-size:50px"">You Lose!
No points this round.</p>",,,,,,,,,,,,,,,,,,,,,,,,,,,,
177,0,,html-keyboard-response,177,425027,0.0-7.5-4.5,l01wn5j792,2022-09-19 13:29:34.278,5bc7a4433dec25000138c626,1,59,65,47,47,42,Male,,,,,1.0,choice,5.0,A,B,black,red,moons,moons,B,A,B,black,moons,1230.6000000015,0.0,1.0,1,left,1177.5,1.0,0.0,0.0,,,,
178,0,,html-keyboard-response,178,425759,0.0-7.6-0.6,l01wn5j792,2022-09-19 13:29:34.278,5bc7a4433dec25000138c626,1,59,65,47,47,42,Male,730.1000000015,,"
  <table>
  <tr height=300>
    <td width=300 height=300><img src=""static/images/cards/stack_of_red_stars.svg"" width=""175px"" height=""250px""></img></td>
    <td width=300 height=300><img src=""static/images/cards/stack_of_red_moons.svg"" width=""175px"" height=""250px""></img></td>
  </tr>
  <tr height=200>
    <td width=300><img src=""static/images/keys/w.svg"" width=""35%"" height=""75%""></img></td>
    <td width=300><img src=""static/images/keys/o.svg"" width=""35%"" height=""75%""></img></td>
  </tr>
</table>
  ",79.0,,,,,,,,,,,,,,,,,,,,,,,,,1.0,,
179,0,,html-keyboard-response,179,427552,0.0-7.6-1.6,l01wn5j792,2022-09-19 13:29:34.278,5bc7a4433dec25000138c626,1,59,65,47,47,42,Male,1280.0,,"
  <table>
  <tr height=300>
    <td width=300 height=300><img src=""static/images/cards/back_of_red_moons.svg"" width=""175px"" height=""250px""></img></td>
    <td width=300 height=300><img src=""static/images/cards/back_of_red_moons.svg"" width=""175px"" height=""250px""></img></td>
  </tr>
  <tr height=200>
    <td width=300><img src=""static/images/keys/z.svg"" width=""35%"" height=""75%""></img></td>
    <td width=300><img src=""static/images/keys/m.svg"" width=""35%"" height=""75%""></img></td>
  </tr>
</table>
  ",77.0,,,,,,,,,,,,,,,,,,,,,,,,,2.0,,
180,0,,html-keyboard-response,180,429057,0.0-7.6-2.6,l01wn5j792,2022-09-19 13:29:34.278,5bc7a4433dec25000138c626,1,59,65,47,47,42,Male,,,"
  <table>
  <tr height=300>
    <td width=300 height=300><img src=""static/images/cards/back_of_red_moons.svg"" width=""175px"" height=""250px""></img></td>
    <td width=300 height=300><img src=""static/images/cards/6_of_red_moons.svg"" width=""175px"" height=""250px""></img></td>
  </tr>
  <tr height=200>
    <td width=300><img src=""static/images/keys/z.svg"" width=""35%"" height=""75%""></img></td>
    <td width=300><img src=""static/images/keys/m.svg"" width=""35%"" height=""75%""></img></td>
  </tr>
</table>
  ",,,,,,,,,,,,,,,,,,,,,,,,,,,,
181,0,,html-keyboard-response,181,430578,0.0-7.6-3.6,l01wn5j792,2022-09-19 13:29:34.278,5bc7a4433dec25000138c626,1,59,65,47,47,42,Male,,,"<p style=""font-size:50px"">You win!
+10 points this round!</p>",,,,,,,,,,,,,,,,,,,,,,,,,,,,
182,0,,html-keyboard-response,182,431090,0.0-7.6-4.6,l01wn5j792,2022-09-19 13:29:34.278,5bc7a4433dec25000138c626,1,59,65,47,47,42,Male,,,,,1.0,choice,6.0,A,C,red,red,stars,moons,C,A,A,red,moons,730.1000000015,1.0,1.0,NA,right,1280.0,6.0,1.0,1.0,,,,
183,0,,html-keyboard-response,183,432427,0.0-7.7-0.7,l01wn5j792,2022-09-19 13:29:34.278,5bc7a4433dec25000138c626,1,59,65,47,47,42,Male,1335.5999999996,,"
  <table>
  <tr height=300>
    <td width=300 height=300><img src=""static/images/cards/stack_of_red_stars.svg"" width=""175px"" height=""250px""></img></td>
    <td width=300 height=300><img src=""static/images/cards/stack_of_black_stars.svg"" width=""175px"" height=""250px""></img></td>
  </tr>
  <tr height=200>
    <td width=300><img src=""static/images/keys/w.svg"" width=""35%"" height=""75%""></img></td>
    <td width=300><img src=""static/images/keys/o.svg"" width=""35%"" height=""75%""></img></td>
  </tr>
</table>
  ",79.0,,,,,,,,,,,,,,,,,,,,,,,,,1.0,,
184,0,,html-keyboard-response,184,433575,0.0-7.7-1.7,l01wn5j792,2022-09-19 13:29:34.278,5bc7a4433dec25000138c626,1,59,65,47,47,42,Male,639.2999999989,,"
  <table>
  <tr height=300>
    <td width=300 height=300><img src=""static/images/cards/back_of_black_stars.svg"" width=""175px"" height=""250px""></img></td>
    <td width=300 height=300><img src=""static/images/cards/back_of_black_stars.svg"" width=""175px"" height=""250px""></img></td>
  </tr>
  <tr height=200>
    <td width=300></td>
    <td width=300><img src=""static/images/keys/m.svg"" width=""35%"" height=""75%""></img></td>
  </tr>
</table>
  ",77.0,,,,,,,,,,,,,,,,,,,,,,,,,1.0,,
185,0,,html-keyboard-response,185,435087,0.0-7.7-2.7,l01wn5j792,2022-09-19 13:29:34.278,5bc7a4433dec25000138c626,1,59,65,47,47,42,Male,,,"
  <table>
  <tr height=300>
    <td width=300 height=300><img src=""static/images/cards/back_of_black_stars.svg"" width=""175px"" height=""250px""></img></td>
    <td width=300 height=300><img src=""static/images/cards/6_of_black_stars.svg"" width=""175px"" height=""250px""></img></td>
  </tr>
  <tr height=200>
    <td width=300></td>
    <td width=300><img src=""static/images/keys/m.svg"" width=""35%"" height=""75%""></img></td>
  </tr>
</table>
  ",,,,,,,,,,,,,,,,,,,,,,,,,,,,
186,0,,html-keyboard-response,186,436602,0.0-7.7-3.7,l01wn5j792,2022-09-19 13:29:34.278,5bc7a4433dec25000138c626,1,59,65,47,47,42,Male,,,"<p style=""font-size:50px"">You Lose!
No points this round.</p>",,,,,,,,,,,,,,,,,,,,,,,,,,,,
187,0,,html-keyboard-response,187,437121,0.0-7.7-4.7,l01wn5j792,2022-09-19 13:29:34.278,5bc7a4433dec25000138c626,1,59,65,47,47,42,Male,,,,,1.0,choice,7.0,C,D,red,black,stars,stars,C,D,D,black,stars,1335.5999999996,0.0,0.0,0,right,639.2999999989,6.0,1.0,0.0,,,,
188,0,,html-keyboard-response,188,438903,0.0-7.8-0.8,l01wn5j792,2022-09-19 13:29:34.278,5bc7a4433dec25000138c626,1,59,65,47,47,42,Male,1781.0,,"
  <table>
  <tr height=300>
    <td width=300 height=300><img src=""static/images/cards/stack_of_red_moons.svg"" width=""175px"" height=""250px""></img></td>
    <td width=300 height=300><img src=""static/images/cards/stack_of_black_stars.svg"" width=""175px"" height=""250px""></img></td>
  </tr>
  <tr height=200>
    <td width=300><img src=""static/images/keys/w.svg"" width=""35%"" height=""75%""></img></td>
    <td width=300><img src=""static/images/keys/o.svg"" width=""35%"" height=""75%""></img></td>
  </tr>
</table>
  ",79.0,,,,,,,,,,,,,,,,,,,,,,,,,1.0,,
189,0,,html-keyboard-response,189,440486,0.0-7.8-1.8,l01wn5j792,2022-09-19 13:29:34.278,5bc7a4433dec25000138c626,1,59,65,47,47,42,Male,1070.5,,"
  <table>
  <tr height=300>
    <td width=300 height=300><img src=""static/images/cards/back_of_black_stars.svg"" width=""175px"" height=""250px""></img></td>
    <td width=300 height=300><img src=""static/images/cards/back_of_black_stars.svg"" width=""175px"" height=""250px""></img></td>
  </tr>
  <tr height=200>
    <td width=300><img src=""static/images/keys/z.svg"" width=""35%"" height=""75%""></img></td>
    <td width=300></td>
  </tr>
</table>
  ",90.0,,,,,,,,,,,,,,,,,,,,,,,,,1.0,,
190,0,,html-keyboard-response,190,442016,0.0-7.8-2.8,l01wn5j792,2022-09-19 13:29:34.278,5bc7a4433dec25000138c626,1,59,65,47,47,42,Male,,,"
  <table>
  <tr height=300>
    <td width=300 height=300><img src=""static/images/cards/9_of_black_stars.svg"" width=""175px"" height=""250px""></img></td>
    <td width=300 height=300><img src=""static/images/cards/back_of_black_stars.svg"" width=""175px"" height=""250px""></img></td>
  </tr>
  <tr height=200>
    <td width=300><img src=""static/images/keys/z.svg"" width=""35%"" height=""75%""></img></td>
    <td width=300></td>
  </tr>
</table>
  ",,,,,,,,,,,,,,,,,,,,,,,,,,,,
191,0,,html-keyboard-response,191,443520,0.0-7.8-3.8,l01wn5j792,2022-09-19 13:29:34.278,5bc7a4433dec25000138c626,1,59,65,47,47,42,Male,,,"<p style=""font-size:50px"">You Lose!
No points this round.</p>",,,,,,,,,,,,,,,,,,,,,,,,,,,,
192,0,,html-keyboard-response,192,444032,0.0-7.8-4.8,l01wn5j792,2022-09-19 13:29:34.278,5bc7a4433dec25000138c626,1,59,65,47,47,42,Male,,,,,1.0,choice,8.0,A,D,red,black,moons,stars,A,D,D,black,stars,1781.0,0.0,0.0,1,left,1070.5,9.0,1.0,0.0,,,,
193,0,,html-keyboard-response,193,444993,0.0-7.9-0.9,l01wn5j792,2022-09-19 13:29:34.278,5bc7a4433dec25000138c626,1,59,65,47,47,42,Male,959.6000000015,,"
  <table>
  <tr height=300>
    <td width=300 height=300><img src=""static/images/cards/stack_of_black_stars.svg"" width=""175px"" height=""250px""></img></td>
    <td width=300 height=300><img src=""static/images/cards/stack_of_red_bolts.svg"" width=""175px"" height=""250px""></img></td>
  </tr>
  <tr height=200>
    <td width=300><img src=""static/images/keys/w.svg"" width=""35%"" height=""75%""></img></td>
    <td width=300><img src=""static/images/keys/o.svg"" width=""35%"" height=""75%""></img></td>
  </tr>
</table>
  ",87.0,,,,,,,,,,,,,,,,,,,,,,,,,1.0,,
194,0,,html-keyboard-response,194,446466,0.0-7.9-1.9,l01wn5j792,2022-09-19 13:29:34.278,5bc7a4433dec25000138c626,1,59,65,47,47,42,Male,956.7999999989,,"
  <table>
  <tr height=300>
    <td width=300 height=300><img src=""static/images/cards/back_of_black_stars.svg"" width=""175px"" height=""250px""></img></td>
    <td width=300 height=300><img src=""static/images/cards/back_of_black_stars.svg"" width=""175px"" height=""250px""></img></td>
  </tr>
  <tr height=200>
    <td width=300><img src=""static/images/keys/z.svg"" width=""35%"" height=""75%""></img></td>
    <td width=300></td>
  </tr>
</table>
  ",90.0,,,,,,,,,,,,,,,,,,,,,,,,,1.0,,
195,0,,html-keyboard-response,195,447976,0.0-7.9-2.9,l01wn5j792,2022-09-19 13:29:34.278,5bc7a4433dec25000138c626,1,59,65,47,47,42,Male,,,"
  <table>
  <tr height=300>
    <td width=300 height=300><img src=""static/images/cards/6_of_black_stars.svg"" width=""175px"" height=""250px""></img></td>
    <td width=300 height=300><img src=""static/images/cards/back_of_black_stars.svg"" width=""175px"" height=""250px""></img></td>
  </tr>
  <tr height=200>
    <td width=300><img src=""static/images/keys/z.svg"" width=""35%"" height=""75%""></img></td>
    <td width=300></td>
  </tr>
</table>
  ",,,,,,,,,,,,,,,,,,,,,,,,,,,,
196,0,,html-keyboard-response,196,449501,0.0-7.9-3.9,l01wn5j792,2022-09-19 13:29:34.278,5bc7a4433dec25000138c626,1,59,65,47,47,42,Male,,,"<p style=""font-size:50px"">You win!
+10 points this round!</p>",,,,,,,,,,,,,,,,,,,,,,,,,,,,
197,0,,html-keyboard-response,197,450013,0.0-7.9-4.9,l01wn5j792,2022-09-19 13:29:34.278,5bc7a4433dec25000138c626,1,59,65,47,47,42,Male,,,,,1.0,choice,9.0,D,Xc,black,red,stars,bolts,D,Xc,D,black,stars,959.6000000015,0.0,0.0,1,left,956.7999999989,6.0,1.0,1.0,,,,
198,0,,html-keyboard-response,198,451511,0.0-7.10-0.10,l01wn5j792,2022-09-19 13:29:34.278,5bc7a4433dec25000138c626,1,59,65,47,47,42,Male,1496.6999999993,,"
  <table>
  <tr height=300>
    <td width=300 height=300><img src=""static/images/cards/stack_of_red_stars.svg"" width=""175px"" height=""250px""></img></td>
    <td width=300 height=300><img src=""static/images/cards/stack_of_black_moons.svg"" width=""175px"" height=""250px""></img></td>
  </tr>
  <tr height=200>
    <td width=300><img src=""static/images/keys/w.svg"" width=""35%"" height=""75%""></img></td>
    <td width=300><img src=""static/images/keys/o.svg"" width=""35%"" height=""75%""></img></td>
  </tr>
</table>
  ",87.0,,,,,,,,,,,,,,,,,,,,,,,,,1.0,,
199,0,,html-keyboard-response,199,453242,0.0-7.10-1.10,l01wn5j792,2022-09-19 13:29:34.278,5bc7a4433dec25000138c626,1,59,65,47,47,42,Male,1217.3000000007,,"
  <table>
  <tr height=300>
    <td width=300 height=300><img src=""static/images/cards/back_of_red_stars.svg"" width=""175px"" height=""250px""></img></td>
    <td width=300 height=300><img src=""static/images/cards/back_of_red_stars.svg"" width=""175px"" height=""250px""></img></td>
  </tr>
  <tr height=200>
    <td width=300><img src=""static/images/keys/z.svg"" width=""35%"" height=""75%""></img></td>
    <td width=300><img src=""static/images/keys/m.svg"" width=""35%"" height=""75%""></img></td>
  </tr>
</table>
  ",77.0,,,,,,,,,,,,,,,,,,,,,,,,,1.0,,
200,0,,html-keyboard-response,200,454758,0.0-7.10-2.10,l01wn5j792,2022-09-19 13:29:34.278,5bc7a4433dec25000138c626,1,59,65,47,47,42,Male,,,"
  <table>
  <tr height=300>
    <td width=300 height=300><img src=""static/images/cards/back_of_red_stars.svg"" width=""175px"" height=""250px""></img></td>
    <td width=300 height=300><img src=""static/images/cards/3_of_red_stars.svg"" width=""175px"" height=""250px""></img></td>
  </tr>
  <tr height=200>
    <td width=300><img src=""static/images/keys/z.svg"" width=""35%"" height=""75%""></img></td>
    <td width=300><img src=""static/images/keys/m.svg"" width=""35%"" height=""75%""></img></td>
  </tr>
</table>
  ",,,,,,,,,,,,,,,,,,,,,,,,,,,,
201,0,,html-keyboard-response,201,456274,0.0-7.10-3.10,l01wn5j792,2022-09-19 13:29:34.278,5bc7a4433dec25000138c626,1,59,65,47,47,42,Male,,,"<p style=""font-size:50px"">You Lose!
No points this round.</p>",,,,,,,,,,,,,,,,,,,,,,,,,,,,
202,0,,html-keyboard-response,202,456793,0.0-7.10-4.10,l01wn5j792,2022-09-19 13:29:34.278,5bc7a4433dec25000138c626,1,59,65,47,47,42,Male,,,,,1.0,choice,10.0,B,C,red,black,stars,moons,C,B,C,red,stars,1496.6999999993,1.0,0.0,NA,right,1217.3000000007,3.0,0.0,0.0,,,,
203,0,,html-keyboard-response,203,458441,0.0-7.11-0.11,l01wn5j792,2022-09-19 13:29:34.278,5bc7a4433dec25000138c626,1,59,65,47,47,42,Male,1646.0999999996,,"
  <table>
  <tr height=300>
    <td width=300 height=300><img src=""static/images/cards/stack_of_black_moons.svg"" width=""175px"" height=""250px""></img></td>
    <td width=300 height=300><img src=""static/images/cards/stack_of_red_stars.svg"" width=""175px"" height=""250px""></img></td>
  </tr>
  <tr height=200>
    <td width=300><img src=""static/images/keys/w.svg"" width=""35%"" height=""75%""></img></td>
    <td width=300><img src=""static/images/keys/o.svg"" width=""35%"" height=""75%""></img></td>
  </tr>
</table>
  ",87.0,,,,,,,,,,,,,,,,,,,,,,,,,1.0,,
204,0,,html-keyboard-response,204,459742,0.0-7.11-1.11,l01wn5j792,2022-09-19 13:29:34.278,5bc7a4433dec25000138c626,1,59,65,47,47,42,Male,787.5999999996,,"
  <table>
  <tr height=300>
    <td width=300 height=300><img src=""static/images/cards/back_of_black_moons.svg"" width=""175px"" height=""250px""></img></td>
    <td width=300 height=300><img src=""static/images/cards/back_of_black_moons.svg"" width=""175px"" height=""250px""></img></td>
  </tr>
  <tr height=200>
    <td width=300></td>
    <td width=300><img src=""static/images/keys/m.svg"" width=""35%"" height=""75%""></img></td>
  </tr>
</table>
  ",77.0,,,,,,,,,,,,,,,,,,,,,,,,,1.0,,
205,0,,html-keyboard-response,205,461254,0.0-7.11-2.11,l01wn5j792,2022-09-19 13:29:34.278,5bc7a4433dec25000138c626,1,59,65,47,47,42,Male,,,"
  <table>
  <tr height=300>
    <td width=300 height=300><img src=""static/images/cards/back_of_black_moons.svg"" width=""175px"" height=""250px""></img></td>
    <td width=300 height=300><img src=""static/images/cards/1_of_black_moons.svg"" width=""175px"" height=""250px""></img></td>
  </tr>
  <tr height=200>
    <td width=300></td>
    <td width=300><img src=""static/images/keys/m.svg"" width=""35%"" height=""75%""></img></td>
  </tr>
</table>
  ",,,,,,,,,,,,,,,,,,,,,,,,,,,,
206,0,,html-keyboard-response,206,462778,0.0-7.11-3.11,l01wn5j792,2022-09-19 13:29:34.278,5bc7a4433dec25000138c626,1,59,65,47,47,42,Male,,,"<p style=""font-size:50px"">You Lose!
No points this round.</p>",,,,,,,,,,,,,,,,,,,,,,,,,,,,
207,0,,html-keyboard-response,207,463290,0.0-7.11-4.11,l01wn5j792,2022-09-19 13:29:34.278,5bc7a4433dec25000138c626,1,59,65,47,47,42,Male,,,,,1.0,choice,11.0,B,C,black,red,moons,stars,B,C,B,black,moons,1646.0999999996,0.0,1.0,0,right,787.5999999996,1.0,0.0,0.0,,,,
208,0,,html-keyboard-response,208,464000,0.0-7.12-0.12,l01wn5j792,2022-09-19 13:29:34.278,5bc7a4433dec25000138c626,1,59,65,47,47,42,Male,708.0999999996,,"
  <table>
  <tr height=300>
    <td width=300 height=300><img src=""static/images/cards/stack_of_red_moons.svg"" width=""175px"" height=""250px""></img></td>
    <td width=300 height=300><img src=""static/images/cards/stack_of_red_stars.svg"" width=""175px"" height=""250px""></img></td>
  </tr>
  <tr height=200>
    <td width=300><img src=""static/images/keys/w.svg"" width=""35%"" height=""75%""></img></td>
    <td width=300><img src=""static/images/keys/o.svg"" width=""35%"" height=""75%""></img></td>
  </tr>
</table>
  ",79.0,,,,,,,,,,,,,,,,,,,,,,,,,1.0,,
209,0,,html-keyboard-response,209,465560,0.0-7.12-1.12,l01wn5j792,2022-09-19 13:29:34.278,5bc7a4433dec25000138c626,1,59,65,47,47,42,Male,1056.2000000011,,"
  <table>
  <tr height=300>
    <td width=300 height=300><img src=""static/images/cards/back_of_red_stars.svg"" width=""175px"" height=""250px""></img></td>
    <td width=300 height=300><img src=""static/images/cards/back_of_red_stars.svg"" width=""175px"" height=""250px""></img></td>
  </tr>
  <tr height=200>
    <td width=300><img src=""static/images/keys/z.svg"" width=""35%"" height=""75%""></img></td>
    <td width=300><img src=""static/images/keys/m.svg"" width=""35%"" height=""75%""></img></td>
  </tr>
</table>
  ",77.0,,,,,,,,,,,,,,,,,,,,,,,,,1.0,,
210,0,,html-keyboard-response,210,467074,0.0-7.12-2.12,l01wn5j792,2022-09-19 13:29:34.278,5bc7a4433dec25000138c626,1,59,65,47,47,42,Male,,,"
  <table>
  <tr height=300>
    <td width=300 height=300><img src=""static/images/cards/back_of_red_stars.svg"" width=""175px"" height=""250px""></img></td>
    <td width=300 height=300><img src=""static/images/cards/6_of_red_stars.svg"" width=""175px"" height=""250px""></img></td>
  </tr>
  <tr height=200>
    <td width=300><img src=""static/images/keys/z.svg"" width=""35%"" height=""75%""></img></td>
    <td width=300><img src=""static/images/keys/m.svg"" width=""35%"" height=""75%""></img></td>
  </tr>
</table>
  ",,,,,,,,,,,,,,,,,,,,,,,,,,,,
211,0,,html-keyboard-response,211,468586,0.0-7.12-3.12,l01wn5j792,2022-09-19 13:29:34.278,5bc7a4433dec25000138c626,1,59,65,47,47,42,Male,,,"<p style=""font-size:50px"">You Lose!
No points this round.</p>",,,,,,,,,,,,,,,,,,,,,,,,,,,,
212,0,,html-keyboard-response,212,469103,0.0-7.12-4.12,l01wn5j792,2022-09-19 13:29:34.278,5bc7a4433dec25000138c626,1,59,65,47,47,42,Male,,,,,1.0,choice,12.0,A,C,red,red,moons,stars,A,C,C,red,stars,708.0999999996,1.0,0.0,NA,right,1056.2000000011,6.0,1.0,0.0,,,,
213,0,,html-keyboard-response,213,470813,0.0-7.13-0.13,l01wn5j792,2022-09-19 13:29:34.278,5bc7a4433dec25000138c626,1,59,65,47,47,42,Male,1708.4000000004,,"
  <table>
  <tr height=300>
    <td width=300 height=300><img src=""static/images/cards/stack_of_red_stars.svg"" width=""175px"" height=""250px""></img></td>
    <td width=300 height=300><img src=""static/images/cards/stack_of_black_stars.svg"" width=""175px"" height=""250px""></img></td>
  </tr>
  <tr height=200>
    <td width=300><img src=""static/images/keys/w.svg"" width=""35%"" height=""75%""></img></td>
    <td width=300><img src=""static/images/keys/o.svg"" width=""35%"" height=""75%""></img></td>
  </tr>
</table>
  ",87.0,,,,,,,,,,,,,,,,,,,,,,,,,1.0,,
214,0,,html-keyboard-response,214,472483,0.0-7.13-1.13,l01wn5j792,2022-09-19 13:29:34.278,5bc7a4433dec25000138c626,1,59,65,47,47,42,Male,1167.0,,"
  <table>
  <tr height=300>
    <td width=300 height=300><img src=""static/images/cards/back_of_red_stars.svg"" width=""175px"" height=""250px""></img></td>
    <td width=300 height=300><img src=""static/images/cards/back_of_red_stars.svg"" width=""175px"" height=""250px""></img></td>
  </tr>
  <tr height=200>
    <td width=300><img src=""static/images/keys/z.svg"" width=""35%"" height=""75%""></img></td>
    <td width=300><img src=""static/images/keys/m.svg"" width=""35%"" height=""75%""></img></td>
  </tr>
</table>
  ",90.0,,,,,,,,,,,,,,,,,,,,,,,,,1.0,,
215,0,,html-keyboard-response,215,473995,0.0-7.13-2.13,l01wn5j792,2022-09-19 13:29:34.278,5bc7a4433dec25000138c626,1,59,65,47,47,42,Male,,,"
  <table>
  <tr height=300>
    <td width=300 height=300><img src=""static/images/cards/1_of_red_stars.svg"" width=""175px"" height=""250px""></img></td>
    <td width=300 height=300><img src=""static/images/cards/back_of_red_stars.svg"" width=""175px"" height=""250px""></img></td>
  </tr>
  <tr height=200>
    <td width=300><img src=""static/images/keys/z.svg"" width=""35%"" height=""75%""></img></td>
    <td width=300><img src=""static/images/keys/m.svg"" width=""35%"" height=""75%""></img></td>
  </tr>
</table>
  ",,,,,,,,,,,,,,,,,,,,,,,,,,,,
216,0,,html-keyboard-response,216,475508,0.0-7.13-3.13,l01wn5j792,2022-09-19 13:29:34.278,5bc7a4433dec25000138c626,1,59,65,47,47,42,Male,,,"<p style=""font-size:50px"">You Lose!
No points this round.</p>",,,,,,,,,,,,,,,,,,,,,,,,,,,,
217,0,,html-keyboard-response,217,476019,0.0-7.13-4.13,l01wn5j792,2022-09-19 13:29:34.278,5bc7a4433dec25000138c626,1,59,65,47,47,42,Male,,,,,1.0,choice,13.0,C,D,red,black,stars,stars,C,D,C,red,stars,1708.4000000004,1.0,0.0,NA,left,1167.0,1.0,0.0,0.0,,,,
218,0,,html-keyboard-response,218,476781,0.0-7.14-0.14,l01wn5j792,2022-09-19 13:29:34.278,5bc7a4433dec25000138c626,1,59,65,47,47,42,Male,761.0,,"
  <table>
  <tr height=300>
    <td width=300 height=300><img src=""static/images/cards/stack_of_red_moons.svg"" width=""175px"" height=""250px""></img></td>
    <td width=300 height=300><img src=""static/images/cards/stack_of_red_stars.svg"" width=""175px"" height=""250px""></img></td>
  </tr>
  <tr height=200>
    <td width=300><img src=""static/images/keys/w.svg"" width=""35%"" height=""75%""></img></td>
    <td width=300><img src=""static/images/keys/o.svg"" width=""35%"" height=""75%""></img></td>
  </tr>
</table>
  ",79.0,,,,,,,,,,,,,,,,,,,,,,,,,1.0,,
219,0,,html-keyboard-response,219,477803,0.0-7.14-1.14,l01wn5j792,2022-09-19 13:29:34.278,5bc7a4433dec25000138c626,1,59,65,47,47,42,Male,516.4000000004,,"
  <table>
  <tr height=300>
    <td width=300 height=300><img src=""static/images/cards/back_of_red_stars.svg"" width=""175px"" height=""250px""></img></td>
    <td width=300 height=300><img src=""static/images/cards/back_of_red_stars.svg"" width=""175px"" height=""250px""></img></td>
  </tr>
  <tr height=200>
    <td width=300><img src=""static/images/keys/z.svg"" width=""35%"" height=""75%""></img></td>
    <td width=300><img src=""static/images/keys/m.svg"" width=""35%"" height=""75%""></img></td>
  </tr>
</table>
  ",90.0,,,,,,,,,,,,,,,,,,,,,,,,,1.0,,
220,0,,html-keyboard-response,220,479310,0.0-7.14-2.14,l01wn5j792,2022-09-19 13:29:34.278,5bc7a4433dec25000138c626,1,59,65,47,47,42,Male,,,"
  <table>
  <tr height=300>
    <td width=300 height=300><img src=""static/images/cards/4_of_red_stars.svg"" width=""175px"" height=""250px""></img></td>
    <td width=300 height=300><img src=""static/images/cards/back_of_red_stars.svg"" width=""175px"" height=""250px""></img></td>
  </tr>
  <tr height=200>
    <td width=300><img src=""static/images/keys/z.svg"" width=""35%"" height=""75%""></img></td>
    <td width=300><img src=""static/images/keys/m.svg"" width=""35%"" height=""75%""></img></td>
  </tr>
</table>
  ",,,,,,,,,,,,,,,,,,,,,,,,,,,,
221,0,,html-keyboard-response,221,480828,0.0-7.14-3.14,l01wn5j792,2022-09-19 13:29:34.278,5bc7a4433dec25000138c626,1,59,65,47,47,42,Male,,,"<p style=""font-size:50px"">You win!
+10 points this round!</p>",,,,,,,,,,,,,,,,,,,,,,,,,,,,
222,0,,html-keyboard-response,222,481348,0.0-7.14-4.14,l01wn5j792,2022-09-19 13:29:34.278,5bc7a4433dec25000138c626,1,59,65,47,47,42,Male,,,,,1.0,choice,14.0,A,C,red,red,moons,stars,A,C,C,red,stars,761.0,1.0,0.0,NA,left,516.4000000004,4.0,0.0,1.0,,,,
223,0,,html-keyboard-response,223,482251,0.0-7.15-0.15,l01wn5j792,2022-09-19 13:29:34.278,5bc7a4433dec25000138c626,1,59,65,47,47,42,Male,900.5999999996,,"
  <table>
  <tr height=300>
    <td width=300 height=300><img src=""static/images/cards/stack_of_red_stars.svg"" width=""175px"" height=""250px""></img></td>
    <td width=300 height=300><img src=""static/images/cards/stack_of_red_moons.svg"" width=""175px"" height=""250px""></img></td>
  </tr>
  <tr height=200>
    <td width=300><img src=""static/images/keys/w.svg"" width=""35%"" height=""75%""></img></td>
    <td width=300><img src=""static/images/keys/o.svg"" width=""35%"" height=""75%""></img></td>
  </tr>
</table>
  ",87.0,,,,,,,,,,,,,,,,,,,,,,,,,1.0,,
224,0,,html-keyboard-response,224,483558,0.0-7.15-1.15,l01wn5j792,2022-09-19 13:29:34.278,5bc7a4433dec25000138c626,1,59,65,47,47,42,Male,794.7999999989,,"
  <table>
  <tr height=300>
    <td width=300 height=300><img src=""static/images/cards/back_of_red_stars.svg"" width=""175px"" height=""250px""></img></td>
    <td width=300 height=300><img src=""static/images/cards/back_of_red_stars.svg"" width=""175px"" height=""250px""></img></td>
  </tr>
  <tr height=200>
    <td width=300><img src=""static/images/keys/z.svg"" width=""35%"" height=""75%""></img></td>
    <td width=300><img src=""static/images/keys/m.svg"" width=""35%"" height=""75%""></img></td>
  </tr>
</table>
  ",90.0,,,,,,,,,,,,,,,,,,,,,,,,,1.0,,
225,0,,html-keyboard-response,225,485072,0.0-7.15-2.15,l01wn5j792,2022-09-19 13:29:34.278,5bc7a4433dec25000138c626,1,59,65,47,47,42,Male,,,"
  <table>
  <tr height=300>
    <td width=300 height=300><img src=""static/images/cards/7_of_red_stars.svg"" width=""175px"" height=""250px""></img></td>
    <td width=300 height=300><img src=""static/images/cards/back_of_red_stars.svg"" width=""175px"" height=""250px""></img></td>
  </tr>
  <tr height=200>
    <td width=300><img src=""static/images/keys/z.svg"" width=""35%"" height=""75%""></img></td>
    <td width=300><img src=""static/images/keys/m.svg"" width=""35%"" height=""75%""></img></td>
  </tr>
</table>
  ",,,,,,,,,,,,,,,,,,,,,,,,,,,,
226,0,,html-keyboard-response,226,486579,0.0-7.15-3.15,l01wn5j792,2022-09-19 13:29:34.278,5bc7a4433dec25000138c626,1,59,65,47,47,42,Male,,,"<p style=""font-size:50px"">You win!
+10 points this round!</p>",,,,,,,,,,,,,,,,,,,,,,,,,,,,
227,0,,html-keyboard-response,227,487097,0.0-7.15-4.15,l01wn5j792,2022-09-19 13:29:34.278,5bc7a4433dec25000138c626,1,59,65,47,47,42,Male,,,,,1.0,choice,15.0,A,C,red,red,stars,moons,C,A,C,red,stars,900.5999999996,1.0,0.0,NA,left,794.7999999989,7.0,1.0,1.0,,,,
228,0,,html-keyboard-response,228,487978,0.0-7.16-0.16,l01wn5j792,2022-09-19 13:29:34.278,5bc7a4433dec25000138c626,1,59,65,47,47,42,Male,879.8000000007,,"
  <table>
  <tr height=300>
    <td width=300 height=300><img src=""static/images/cards/stack_of_black_stars.svg"" width=""175px"" height=""250px""></img></td>
    <td width=300 height=300><img src=""static/images/cards/stack_of_red_stars.svg"" width=""175px"" height=""250px""></img></td>
  </tr>
  <tr height=200>
    <td width=300><img src=""static/images/keys/w.svg"" width=""35%"" height=""75%""></img></td>
    <td width=300><img src=""static/images/keys/o.svg"" width=""35%"" height=""75%""></img></td>
  </tr>
</table>
  ",87.0,,,,,,,,,,,,,,,,,,,,,,,,,1.0,,
229,0,,html-keyboard-response,229,489531,0.0-7.16-1.16,l01wn5j792,2022-09-19 13:29:34.278,5bc7a4433dec25000138c626,1,59,65,47,47,42,Male,1038.5999999996,,"
  <table>
  <tr height=300>
    <td width=300 height=300><img src=""static/images/cards/back_of_black_stars.svg"" width=""175px"" height=""250px""></img></td>
    <td width=300 height=300><img src=""static/images/cards/back_of_black_stars.svg"" width=""175px"" height=""250px""></img></td>
  </tr>
  <tr height=200>
    <td width=300></td>
    <td width=300><img src=""static/images/keys/m.svg"" width=""35%"" height=""75%""></img></td>
  </tr>
</table>
  ",77.0,,,,,,,,,,,,,,,,,,,,,,,,,1.0,,
230,0,,html-keyboard-response,230,491041,0.0-7.16-2.16,l01wn5j792,2022-09-19 13:29:34.278,5bc7a4433dec25000138c626,1,59,65,47,47,42,Male,,,"
  <table>
  <tr height=300>
    <td width=300 height=300><img src=""static/images/cards/back_of_black_stars.svg"" width=""175px"" height=""250px""></img></td>
    <td width=300 height=300><img src=""static/images/cards/9_of_black_stars.svg"" width=""175px"" height=""250px""></img></td>
  </tr>
  <tr height=200>
    <td width=300></td>
    <td width=300><img src=""static/images/keys/m.svg"" width=""35%"" height=""75%""></img></td>
  </tr>
</table>
  ",,,,,,,,,,,,,,,,,,,,,,,,,,,,
231,0,,html-keyboard-response,231,492559,0.0-7.16-3.16,l01wn5j792,2022-09-19 13:29:34.278,5bc7a4433dec25000138c626,1,59,65,47,47,42,Male,,,"<p style=""font-size:50px"">You Lose!
No points this round.</p>",,,,,,,,,,,,,,,,,,,,,,,,,,,,
232,0,,html-keyboard-response,232,493078,0.0-7.16-4.16,l01wn5j792,2022-09-19 13:29:34.278,5bc7a4433dec25000138c626,1,59,65,47,47,42,Male,,,,,1.0,choice,16.0,C,D,black,red,stars,stars,D,C,D,black,stars,879.8000000007,0.0,0.0,0,right,1038.5999999996,9.0,1.0,0.0,,,,
233,0,,html-keyboard-response,233,494114,0.0-7.17-0.17,l01wn5j792,2022-09-19 13:29:34.278,5bc7a4433dec25000138c626,1,59,65,47,47,42,Male,1035.1999999993,,"
  <table>
  <tr height=300>
    <td width=300 height=300><img src=""static/images/cards/stack_of_black_stars.svg"" width=""175px"" height=""250px""></img></td>
    <td width=300 height=300><img src=""static/images/cards/stack_of_red_stars.svg"" width=""175px"" height=""250px""></img></td>
  </tr>
  <tr height=200>
    <td width=300><img src=""static/images/keys/w.svg"" width=""35%"" height=""75%""></img></td>
    <td width=300><img src=""static/images/keys/o.svg"" width=""35%"" height=""75%""></img></td>
  </tr>
</table>
  ",79.0,,,,,,,,,,,,,,,,,,,,,,,,,1.0,,
234,0,,html-keyboard-response,234,495626,0.0-7.17-1.17,l01wn5j792,2022-09-19 13:29:34.278,5bc7a4433dec25000138c626,1,59,65,47,47,42,Male,1005.6000000015,,"
  <table>
  <tr height=300>
    <td width=300 height=300><img src=""static/images/cards/back_of_red_stars.svg"" width=""175px"" height=""250px""></img></td>
