,index,success,trial_type,trial_index,time_elapsed,internal_node_id,subject,date,prol_id,ctbl,sense_of_control_A,sense_of_control_B,sense_of_control_C,sense_of_control_D,age,gender,rt,url,stimulus,key_press,is_data_trial,phase,trial,deck1,deck2,col1,col2,sym1,sym2,deck_l,deck_r,chosen_deck,chosen_col,chosen_sym,deck_rt,choose_choice,mutual_info,hidden_key,chosen_card,card_rt,player_num,win_card,outcome,mock_rating,npress,response,responses
0,0,1.0,fullscreen,0,4694,0.0-0.0,3f9w634i86y,2022-09-19 15:30:57.765,5c4ded8b818d4d00013e69c9,1,64,46,41,39,72,female,,,,,,,,,,,,,,,,,,,,,,,,,,,,,,,
1,0,,external-html,1,31952,0.0-1.0,3f9w634i86y,2022-09-19 15:30:57.765,5c4ded8b818d4d00013e69c9,1,64,46,41,39,72,female,26934.700000003,static/js/sub/consent.html,,,,,,,,,,,,,,,,,,,,,,,,,,,,,
2,0,,call-function,2,31955,0.0-2.0,3f9w634i86y,2022-09-19 15:30:57.765,5c4ded8b818d4d00013e69c9,1,64,46,41,39,72,female,,,,,,,,,,,,,,,,,,,,,,,,,,,,,,,
3,0,,image-keyboard-response,3,47033,0.0-3.0-0.0,3f9w634i86y,2022-09-19 15:30:57.765,5c4ded8b818d4d00013e69c9,1,64,46,41,39,72,female,15074.799999997,,static/images/instructions_CB_1/Slide1.png,39.0,,,,,,,,,,,,,,,,,,,,,,,,,,,
4,0,,image-keyboard-response,4,60579,0.0-3.1-0.1,3f9w634i86y,2022-09-19 15:30:57.765,5c4ded8b818d4d00013e69c9,1,64,46,41,39,72,female,13543.099999994,,static/images/instructions_CB_1/Slide2.png,39.0,,,,,,,,,,,,,,,,,,,,,,,,,,,
5,0,,image-keyboard-response,5,67046,0.0-3.2-0.2,3f9w634i86y,2022-09-19 15:30:57.765,5c4ded8b818d4d00013e69c9,1,64,46,41,39,72,female,6464.0,,static/images/instructions_CB_1/Slide3.png,39.0,,,,,,,,,,,,,,,,,,,,,,,,,,,
6,0,,image-keyboard-response,6,75664,0.0-3.3-0.3,3f9w634i86y,2022-09-19 15:30:57.765,5c4ded8b818d4d00013e69c9,1,64,46,41,39,72,female,8615.299999997,,static/images/instructions_CB_1/Slide4.png,39.0,,,,,,,,,,,,,,,,,,,,,,,,,,,
7,0,,image-keyboard-response,7,83275,0.0-3.4-0.4,3f9w634i86y,2022-09-19 15:30:57.765,5c4ded8b818d4d00013e69c9,1,64,46,41,39,72,female,7609.0,,static/images/instructions_CB_1/Slide5.png,39.0,,,,,,,,,,,,,,,,,,,,,,,,,,,
8,0,,image-keyboard-response,8,86560,0.0-3.5-0.5,3f9w634i86y,2022-09-19 15:30:57.765,5c4ded8b818d4d00013e69c9,1,64,46,41,39,72,female,3283.200000003,,static/images/instructions_CB_1/Slide6.png,39.0,,,,,,,,,,,,,,,,,,,,,,,,,,,
9,0,,image-keyboard-response,9,91188,0.0-3.6-0.6,3f9w634i86y,2022-09-19 15:30:57.765,5c4ded8b818d4d00013e69c9,1,64,46,41,39,72,female,4624.299999997,,static/images/instructions_CB_1/Slide7.png,39.0,,,,,,,,,,,,,,,,,,,,,,,,,,,
10,0,,image-keyboard-response,10,178140,0.0-3.7-0.7,3f9w634i86y,2022-09-19 15:30:57.765,5c4ded8b818d4d00013e69c9,1,64,46,41,39,72,female,86945.6999999881,,static/images/instructions_CB_1/Slide8.png,39.0,,,,,,,,,,,,,,,,,,,,,,,,,,,
11,0,,image-keyboard-response,11,186126,0.0-3.8-0.8,3f9w634i86y,2022-09-19 15:30:57.765,5c4ded8b818d4d00013e69c9,1,64,46,41,39,72,female,7983.099999994,,static/images/instructions_CB_1/Slide9.png,39.0,,,,,,,,,,,,,,,,,,,,,,,,,,,
12,0,,image-keyboard-response,12,222956,0.0-3.9-0.9,3f9w634i86y,2022-09-19 15:30:57.765,5c4ded8b818d4d00013e69c9,1,64,46,41,39,72,female,36827.5,,static/images/instructions_CB_1/Slide10.png,39.0,,,,,,,,,,,,,,,,,,,,,,,,,,,
13,0,,image-keyboard-response,13,228268,0.0-3.10-0.10,3f9w634i86y,2022-09-19 15:30:57.765,5c4ded8b818d4d00013e69c9,1,64,46,41,39,72,female,5309.5,,static/images/instructions_CB_1/Slide11.png,39.0,,,,,,,,,,,,,,,,,,,,,,,,,,,
14,0,,image-keyboard-response,14,237427,0.0-3.11-0.11,3f9w634i86y,2022-09-19 15:30:57.765,5c4ded8b818d4d00013e69c9,1,64,46,41,39,72,female,9155.6000000089,,static/images/instructions_CB_1/Slide12.png,39.0,,,,,,,,,,,,,,,,,,,,,,,,,,,
15,0,,image-keyboard-response,15,296248,0.0-3.12-0.12,3f9w634i86y,2022-09-19 15:30:57.765,5c4ded8b818d4d00013e69c9,1,64,46,41,39,72,female,58818.400000006,,static/images/instructions_CB_1/Slide13.png,39.0,,,,,,,,,,,,,,,,,,,,,,,,,,,
16,0,,image-keyboard-response,16,320578,0.0-3.13-0.13,3f9w634i86y,2022-09-19 15:30:57.765,5c4ded8b818d4d00013e69c9,1,64,46,41,39,72,female,24327.599999994,,static/images/instructions_CB_1/Slide14.png,39.0,,,,,,,,,,,,,,,,,,,,,,,,,,,
17,0,,image-keyboard-response,17,347518,0.0-3.14-0.14,3f9w634i86y,2022-09-19 15:30:57.765,5c4ded8b818d4d00013e69c9,1,64,46,41,39,72,female,26939.1000000089,,static/images/instructions_CB_1/Slide15.png,39.0,,,,,,,,,,,,,,,,,,,,,,,,,,,
18,0,,image-keyboard-response,18,354189,0.0-3.15-0.15,3f9w634i86y,2022-09-19 15:30:57.765,5c4ded8b818d4d00013e69c9,1,64,46,41,39,72,female,6668.8999999911,,static/images/instructions_CB_1/Slide16.png,39.0,,,,,,,,,,,,,,,,,,,,,,,,,,,
19,0,,image-keyboard-response,19,363703,0.0-3.16-0.16,3f9w634i86y,2022-09-19 15:30:57.765,5c4ded8b818d4d00013e69c9,1,64,46,41,39,72,female,9510.200000003,,static/images/instructions_CB_1/Slide17.png,39.0,,,,,,,,,,,,,,,,,,,,,,,,,,,
20,0,,image-keyboard-response,20,378124,0.0-3.17-0.17,3f9w634i86y,2022-09-19 15:30:57.765,5c4ded8b818d4d00013e69c9,1,64,46,41,39,72,female,14418.400000006,,static/images/instructions_CB_1/Slide18.png,39.0,,,,,,,,,,,,,,,,,,,,,,,,,,,
21,0,,image-keyboard-response,21,384295,0.0-3.18-0.18,3f9w634i86y,2022-09-19 15:30:57.765,5c4ded8b818d4d00013e69c9,1,64,46,41,39,72,female,6167.8000000119,,static/images/instructions_CB_1/Slide19.png,39.0,,,,,,,,,,,,,,,,,,,,,,,,,,,
22,0,,html-keyboard-response,22,385807,0.0-4.0-0.0,3f9w634i86y,2022-09-19 15:30:57.765,5c4ded8b818d4d00013e69c9,1,64,46,41,39,72,female,,,"<img src=""static/images/cards/stack_of_red_moons.svg"" width=""175px"" height=""250px""></img>",,,,,,,,,,,,,,,,,,,,,,,,,,,,
23,0,,html-keyboard-response,23,389339,0.0-4.0-1.0,3f9w634i86y,2022-09-19 15:30:57.765,5c4ded8b818d4d00013e69c9,1,64,46,41,39,72,female,,,"
  <table>
  <tr height=300>
    <td width=300 height=300><img src=""static/images/cards/back_of_red_moons.svg"" width=""175px"" height=""250px""></img></td>
    <td width=300 height=300><img src=""static/images/cards/back_of_red_moons.svg"" width=""175px"" height=""250px""></img></td>
  </tr>
  <tr height=200>
    <td width=300><img src=""static/images/keys/z.svg"" width=""35%"" height=""75%""></img></td>
    <td width=300><img src=""static/images/keys/m.svg"" width=""35%"" height=""75%""></img></td>
  </tr>
</table>
  ",,,,,,,,,,,,,,,,,,,,,,,,,,,,
24,0,,html-keyboard-response,24,389342,0.0-4.0-2.0,3f9w634i86y,2022-09-19 15:30:57.765,5c4ded8b818d4d00013e69c9,1,64,46,41,39,72,female,,,,,,,,,,,,,,,,,,,,,,,,,,,,,,,
25,0,,html-keyboard-response,25,390866,0.0-4.0-3.0,3f9w634i86y,2022-09-19 15:30:57.765,5c4ded8b818d4d00013e69c9,1,64,46,41,39,72,female,,,"<p style=""font-size:50px"">Too slow!</p>",,,,,,,,,,,,,,,,,,,,,,,,,,,,
26,0,,html-keyboard-response,26,391382,0.0-4.0-4.0,3f9w634i86y,2022-09-19 15:30:57.765,5c4ded8b818d4d00013e69c9,1,64,46,41,39,72,female,,,,,1.0,learning,0.0,A,,red,,moons,,,,A,red,moons,,1.0,1.0,NA,,,,,,,,,
27,0,,html-keyboard-response,27,392887,0.0-4.1-0.1,3f9w634i86y,2022-09-19 15:30:57.765,5c4ded8b818d4d00013e69c9,1,64,46,41,39,72,female,,,"<img src=""static/images/cards/stack_of_black_moons.svg"" width=""175px"" height=""250px""></img>",,,,,,,,,,,,,,,,,,,,,,,,,,,,
28,0,,html-keyboard-response,28,394472,0.0-4.1-1.1,3f9w634i86y,2022-09-19 15:30:57.765,5c4ded8b818d4d00013e69c9,1,64,46,41,39,72,female,1066.6000000089,,"
  <table>
  <tr height=300>
    <td width=300 height=300><img src=""static/images/cards/back_of_black_moons.svg"" width=""175px"" height=""250px""></img></td>
    <td width=300 height=300><img src=""static/images/cards/back_of_black_moons.svg"" width=""175px"" height=""250px""></img></td>
  </tr>
  <tr height=200>
    <td width=300></td>
    <td width=300><img src=""static/images/keys/m.svg"" width=""35%"" height=""75%""></img></td>
  </tr>
</table>
  ",77.0,,,,,,,,,,,,,,,,,,,,,,,,,1.0,,
29,0,,html-keyboard-response,29,395981,0.0-4.1-2.1,3f9w634i86y,2022-09-19 15:30:57.765,5c4ded8b818d4d00013e69c9,1,64,46,41,39,72,female,,,"
  <table>
  <tr height=300>
    <td width=300 height=300><img src=""static/images/cards/back_of_black_moons.svg"" width=""175px"" height=""250px""></img></td>
    <td width=300 height=300><img src=""static/images/cards/1_of_black_moons.svg"" width=""175px"" height=""250px""></img></td>
  </tr>
  <tr height=200>
    <td width=300></td>
    <td width=300><img src=""static/images/keys/m.svg"" width=""35%"" height=""75%""></img></td>
  </tr>
</table>
  ",,,,,,,,,,,,,,,,,,,,,,,,,,,,
30,0,,html-keyboard-response,30,397509,0.0-4.1-3.1,3f9w634i86y,2022-09-19 15:30:57.765,5c4ded8b818d4d00013e69c9,1,64,46,41,39,72,female,,,"<p style=""font-size:50px"">You Lose!
No points this round.</p>",,,,,,,,,,,,,,,,,,,,,,,,,,,,
31,0,,html-keyboard-response,31,398026,0.0-4.1-4.1,3f9w634i86y,2022-09-19 15:30:57.765,5c4ded8b818d4d00013e69c9,1,64,46,41,39,72,female,,,,,1.0,learning,1.0,B,,black,,moons,,,,B,black,moons,,0.0,1.0,0,right,1066.6000000089,1.0,0.0,0.0,,,,
32,0,,html-keyboard-response,32,399529,0.0-4.2-0.2,3f9w634i86y,2022-09-19 15:30:57.765,5c4ded8b818d4d00013e69c9,1,64,46,41,39,72,female,,,"<img src=""static/images/cards/stack_of_red_stars.svg"" width=""175px"" height=""250px""></img>",,,,,,,,,,,,,,,,,,,,,,,,,,,,
33,0,,html-keyboard-response,33,402177,0.0-4.2-1.2,3f9w634i86y,2022-09-19 15:30:57.765,5c4ded8b818d4d00013e69c9,1,64,46,41,39,72,female,2144.799999997,,"
  <table>
  <tr height=300>
    <td width=300 height=300><img src=""static/images/cards/back_of_red_stars.svg"" width=""175px"" height=""250px""></img></td>
    <td width=300 height=300><img src=""static/images/cards/back_of_red_stars.svg"" width=""175px"" height=""250px""></img></td>
  </tr>
  <tr height=200>
    <td width=300><img src=""static/images/keys/z.svg"" width=""35%"" height=""75%""></img></td>
    <td width=300><img src=""static/images/keys/m.svg"" width=""35%"" height=""75%""></img></td>
  </tr>
</table>
  ",90.0,,,,,,,,,,,,,,,,,,,,,,,,,1.0,,
34,0,,html-keyboard-response,34,403695,0.0-4.2-2.2,3f9w634i86y,2022-09-19 15:30:57.765,5c4ded8b818d4d00013e69c9,1,64,46,41,39,72,female,,,"
  <table>
  <tr height=300>
    <td width=300 height=300><img src=""static/images/cards/6_of_red_stars.svg"" width=""175px"" height=""250px""></img></td>
    <td width=300 height=300><img src=""static/images/cards/back_of_red_stars.svg"" width=""175px"" height=""250px""></img></td>
  </tr>
  <tr height=200>
    <td width=300><img src=""static/images/keys/z.svg"" width=""35%"" height=""75%""></img></td>
    <td width=300><img src=""static/images/keys/m.svg"" width=""35%"" height=""75%""></img></td>
  </tr>
</table>
  ",,,,,,,,,,,,,,,,,,,,,,,,,,,,
35,0,,html-keyboard-response,35,405218,0.0-4.2-3.2,3f9w634i86y,2022-09-19 15:30:57.765,5c4ded8b818d4d00013e69c9,1,64,46,41,39,72,female,,,"<p style=""font-size:50px"">You Lose!
No points this round.</p>",,,,,,,,,,,,,,,,,,,,,,,,,,,,
36,0,,html-keyboard-response,36,405733,0.0-4.2-4.2,3f9w634i86y,2022-09-19 15:30:57.765,5c4ded8b818d4d00013e69c9,1,64,46,41,39,72,female,,,,,1.0,learning,2.0,C,,red,,stars,,,,C,red,stars,,1.0,0.0,NA,left,2144.799999997,6.0,1.0,0.0,,,,
37,0,,html-keyboard-response,37,407247,0.0-4.3-0.3,3f9w634i86y,2022-09-19 15:30:57.765,5c4ded8b818d4d00013e69c9,1,64,46,41,39,72,female,,,"<img src=""static/images/cards/stack_of_black_stars.svg"" width=""175px"" height=""250px""></img>",,,,,,,,,,,,,,,,,,,,,,,,,,,,
38,0,,html-keyboard-response,38,408852,0.0-4.3-1.3,3f9w634i86y,2022-09-19 15:30:57.765,5c4ded8b818d4d00013e69c9,1,64,46,41,39,72,female,1091.1000000089,,"
  <table>
  <tr height=300>
    <td width=300 height=300><img src=""static/images/cards/back_of_black_stars.svg"" width=""175px"" height=""250px""></img></td>
    <td width=300 height=300><img src=""static/images/cards/back_of_black_stars.svg"" width=""175px"" height=""250px""></img></td>
  </tr>
  <tr height=200>
    <td width=300></td>
    <td width=300><img src=""static/images/keys/m.svg"" width=""35%"" height=""75%""></img></td>
  </tr>
</table>
  ",77.0,,,,,,,,,,,,,,,,,,,,,,,,,1.0,,
39,0,,html-keyboard-response,39,410693,0.0-4.3-2.3,3f9w634i86y,2022-09-19 15:30:57.765,5c4ded8b818d4d00013e69c9,1,64,46,41,39,72,female,,,"
  <table>
  <tr height=300>
    <td width=300 height=300><img src=""static/images/cards/back_of_black_stars.svg"" width=""175px"" height=""250px""></img></td>
    <td width=300 height=300><img src=""static/images/cards/10_of_black_stars.svg"" width=""175px"" height=""250px""></img></td>
  </tr>
  <tr height=200>
    <td width=300></td>
    <td width=300><img src=""static/images/keys/m.svg"" width=""35%"" height=""75%""></img></td>
  </tr>
</table>
  ",,,,,,,,,,,,,,,,,,,,,,,,,,,,
40,0,,html-keyboard-response,40,412220,0.0-4.3-3.3,3f9w634i86y,2022-09-19 15:30:57.765,5c4ded8b818d4d00013e69c9,1,64,46,41,39,72,female,,,"<p style=""font-size:50px"">You Lose!
No points this round.</p>",,,,,,,,,,,,,,,,,,,,,,,,,,,,
41,0,,html-keyboard-response,41,412739,0.0-4.3-4.3,3f9w634i86y,2022-09-19 15:30:57.765,5c4ded8b818d4d00013e69c9,1,64,46,41,39,72,female,,,,,1.0,learning,3.0,D,,black,,stars,,,,D,black,stars,,0.0,0.0,0,right,1091.1000000089,10.0,1.0,0.0,,,,
42,0,,html-keyboard-response,42,414256,0.0-4.4-0.4,3f9w634i86y,2022-09-19 15:30:57.765,5c4ded8b818d4d00013e69c9,1,64,46,41,39,72,female,,,"<img src=""static/images/cards/stack_of_red_bolts.svg"" width=""175px"" height=""250px""></img>",,,,,,,,,,,,,,,,,,,,,,,,,,,,
43,0,,html-keyboard-response,43,417784,0.0-4.4-1.4,3f9w634i86y,2022-09-19 15:30:57.765,5c4ded8b818d4d00013e69c9,1,64,46,41,39,72,female,,,"
  <table>
  <tr height=300>
    <td width=300 height=300><img src=""static/images/cards/back_of_red_bolts.svg"" width=""175px"" height=""250px""></img></td>
    <td width=300 height=300><img src=""static/images/cards/back_of_red_bolts.svg"" width=""175px"" height=""250px""></img></td>
  </tr>
  <tr height=200>
    <td width=300><img src=""static/images/keys/z.svg"" width=""35%"" height=""75%""></img></td>
    <td width=300><img src=""static/images/keys/m.svg"" width=""35%"" height=""75%""></img></td>
  </tr>
</table>
  ",,,,,,,,,,,,,,,,,,,,,,,,,,,,
44,0,,html-keyboard-response,44,417791,0.0-4.4-2.4,3f9w634i86y,2022-09-19 15:30:57.765,5c4ded8b818d4d00013e69c9,1,64,46,41,39,72,female,,,,,,,,,,,,,,,,,,,,,,,,,,,,,,,
45,0,,html-keyboard-response,45,419315,0.0-4.4-3.4,3f9w634i86y,2022-09-19 15:30:57.765,5c4ded8b818d4d00013e69c9,1,64,46,41,39,72,female,,,"<p style=""font-size:50px"">Too slow!</p>",,,,,,,,,,,,,,,,,,,,,,,,,,,,
46,0,,html-keyboard-response,46,419822,0.0-4.4-4.4,3f9w634i86y,2022-09-19 15:30:57.765,5c4ded8b818d4d00013e69c9,1,64,46,41,39,72,female,,,,,1.0,learning,4.0,Xc,,red,,bolts,,,,Xc,red,bolts,,1.0,0.0,NA,,,10.0,1.0,0.0,,,,
47,0,,html-keyboard-response,47,421323,0.0-4.5-0.5,3f9w634i86y,2022-09-19 15:30:57.765,5c4ded8b818d4d00013e69c9,1,64,46,41,39,72,female,,,"<img src=""static/images/cards/stack_of_black_bolts.svg"" width=""175px"" height=""250px""></img>",,,,,,,,,,,,,,,,,,,,,,,,,,,,
48,0,,html-keyboard-response,48,422651,0.0-4.5-1.5,3f9w634i86y,2022-09-19 15:30:57.765,5c4ded8b818d4d00013e69c9,1,64,46,41,39,72,female,815.400000006,,"
  <table>
  <tr height=300>
    <td width=300 height=300><img src=""static/images/cards/back_of_black_bolts.svg"" width=""175px"" height=""250px""></img></td>
    <td width=300 height=300><img src=""static/images/cards/back_of_black_bolts.svg"" width=""175px"" height=""250px""></img></td>
  </tr>
  <tr height=200>
    <td width=300></td>
    <td width=300><img src=""static/images/keys/m.svg"" width=""35%"" height=""75%""></img></td>
  </tr>
</table>
  ",77.0,,,,,,,,,,,,,,,,,,,,,,,,,1.0,,
49,0,,html-keyboard-response,49,424156,0.0-4.5-2.5,3f9w634i86y,2022-09-19 15:30:57.765,5c4ded8b818d4d00013e69c9,1,64,46,41,39,72,female,,,"
  <table>
  <tr height=300>
    <td width=300 height=300><img src=""static/images/cards/back_of_black_bolts.svg"" width=""175px"" height=""250px""></img></td>
    <td width=300 height=300><img src=""static/images/cards/4_of_black_bolts.svg"" width=""175px"" height=""250px""></img></td>
  </tr>
  <tr height=200>
    <td width=300></td>
    <td width=300><img src=""static/images/keys/m.svg"" width=""35%"" height=""75%""></img></td>
  </tr>
</table>
  ",,,,,,,,,,,,,,,,,,,,,,,,,,,,
50,0,,html-keyboard-response,50,425681,0.0-4.5-3.5,3f9w634i86y,2022-09-19 15:30:57.765,5c4ded8b818d4d00013e69c9,1,64,46,41,39,72,female,,,"<p style=""font-size:50px"">You win!
+10 points this round!</p>",,,,,,,,,,,,,,,,,,,,,,,,,,,,
51,0,,html-keyboard-response,51,426201,0.0-4.5-4.5,3f9w634i86y,2022-09-19 15:30:57.765,5c4ded8b818d4d00013e69c9,1,64,46,41,39,72,female,,,,,1.0,learning,5.0,Xnc,,black,,bolts,,,,Xnc,black,bolts,,0.0,0.0,0,right,815.400000006,4.0,0.0,1.0,,,,
52,0,,html-keyboard-response,52,427704,0.0-4.6-0.6,3f9w634i86y,2022-09-19 15:30:57.765,5c4ded8b818d4d00013e69c9,1,64,46,41,39,72,female,,,"<img src=""static/images/cards/stack_of_red_moons.svg"" width=""175px"" height=""250px""></img>",,,,,,,,,,,,,,,,,,,,,,,,,,,,
53,0,,html-keyboard-response,53,429633,0.0-4.6-1.6,3f9w634i86y,2022-09-19 15:30:57.765,5c4ded8b818d4d00013e69c9,1,64,46,41,39,72,female,1412.299999997,,"
  <table>
  <tr height=300>
    <td width=300 height=300><img src=""static/images/cards/back_of_red_moons.svg"" width=""175px"" height=""250px""></img></td>
    <td width=300 height=300><img src=""static/images/cards/back_of_red_moons.svg"" width=""175px"" height=""250px""></img></td>
  </tr>
  <tr height=200>
    <td width=300><img src=""static/images/keys/z.svg"" width=""35%"" height=""75%""></img></td>
    <td width=300><img src=""static/images/keys/m.svg"" width=""35%"" height=""75%""></img></td>
  </tr>
</table>
  ",90.0,,,,,,,,,,,,,,,,,,,,,,,,,1.0,,
54,0,,html-keyboard-response,54,431143,0.0-4.6-2.6,3f9w634i86y,2022-09-19 15:30:57.765,5c4ded8b818d4d00013e69c9,1,64,46,41,39,72,female,,,"
  <table>
  <tr height=300>
    <td width=300 height=300><img src=""static/images/cards/1_of_red_moons.svg"" width=""175px"" height=""250px""></img></td>
    <td width=300 height=300><img src=""static/images/cards/back_of_red_moons.svg"" width=""175px"" height=""250px""></img></td>
  </tr>
  <tr height=200>
    <td width=300><img src=""static/images/keys/z.svg"" width=""35%"" height=""75%""></img></td>
    <td width=300><img src=""static/images/keys/m.svg"" width=""35%"" height=""75%""></img></td>
  </tr>
</table>
  ",,,,,,,,,,,,,,,,,,,,,,,,,,,,
55,0,,html-keyboard-response,55,432657,0.0-4.6-3.6,3f9w634i86y,2022-09-19 15:30:57.765,5c4ded8b818d4d00013e69c9,1,64,46,41,39,72,female,,,"<p style=""font-size:50px"">You Lose!
No points this round.</p>",,,,,,,,,,,,,,,,,,,,,,,,,,,,
56,0,,html-keyboard-response,56,433177,0.0-4.6-4.6,3f9w634i86y,2022-09-19 15:30:57.765,5c4ded8b818d4d00013e69c9,1,64,46,41,39,72,female,,,,,1.0,learning,6.0,A,,red,,moons,,,,A,red,moons,,1.0,1.0,NA,left,1412.299999997,1.0,0.0,0.0,,,,
57,0,,html-keyboard-response,57,434681,0.0-4.7-0.7,3f9w634i86y,2022-09-19 15:30:57.765,5c4ded8b818d4d00013e69c9,1,64,46,41,39,72,female,,,"<img src=""static/images/cards/stack_of_black_moons.svg"" width=""175px"" height=""250px""></img>",,,,,,,,,,,,,,,,,,,,,,,,,,,,
58,0,,html-keyboard-response,58,435792,0.0-4.7-1.7,3f9w634i86y,2022-09-19 15:30:57.765,5c4ded8b818d4d00013e69c9,1,64,46,41,39,72,female,605.5,,"
  <table>
  <tr height=300>
    <td width=300 height=300><img src=""static/images/cards/back_of_black_moons.svg"" width=""175px"" height=""250px""></img></td>
    <td width=300 height=300><img src=""static/images/cards/back_of_black_moons.svg"" width=""175px"" height=""250px""></img></td>
  </tr>
  <tr height=200>
    <td width=300><img src=""static/images/keys/z.svg"" width=""35%"" height=""75%""></img></td>
    <td width=300></td>
  </tr>
</table>
  ",90.0,,,,,,,,,,,,,,,,,,,,,,,,,1.0,,
59,0,,html-keyboard-response,59,437295,0.0-4.7-2.7,3f9w634i86y,2022-09-19 15:30:57.765,5c4ded8b818d4d00013e69c9,1,64,46,41,39,72,female,,,"
  <table>
  <tr height=300>
    <td width=300 height=300><img src=""static/images/cards/8_of_black_moons.svg"" width=""175px"" height=""250px""></img></td>
    <td width=300 height=300><img src=""static/images/cards/back_of_black_moons.svg"" width=""175px"" height=""250px""></img></td>
  </tr>
  <tr height=200>
    <td width=300><img src=""static/images/keys/z.svg"" width=""35%"" height=""75%""></img></td>
    <td width=300></td>
  </tr>
</table>
  ",,,,,,,,,,,,,,,,,,,,,,,,,,,,
60,0,,html-keyboard-response,60,438811,0.0-4.7-3.7,3f9w634i86y,2022-09-19 15:30:57.765,5c4ded8b818d4d00013e69c9,1,64,46,41,39,72,female,,,"<p style=""font-size:50px"">You win!
+10 points this round!</p>",,,,,,,,,,,,,,,,,,,,,,,,,,,,
61,0,,html-keyboard-response,61,439321,0.0-4.7-4.7,3f9w634i86y,2022-09-19 15:30:57.765,5c4ded8b818d4d00013e69c9,1,64,46,41,39,72,female,,,,,1.0,learning,7.0,B,,black,,moons,,,,B,black,moons,,0.0,1.0,1,left,605.5,8.0,1.0,1.0,,,,
62,0,,html-keyboard-response,62,440822,0.0-4.8-0.8,3f9w634i86y,2022-09-19 15:30:57.765,5c4ded8b818d4d00013e69c9,1,64,46,41,39,72,female,,,"<img src=""static/images/cards/stack_of_red_stars.svg"" width=""175px"" height=""250px""></img>",,,,,,,,,,,,,,,,,,,,,,,,,,,,
63,0,,html-keyboard-response,63,442067,0.0-4.8-1.8,3f9w634i86y,2022-09-19 15:30:57.765,5c4ded8b818d4d00013e69c9,1,64,46,41,39,72,female,740.5,,"
  <table>
  <tr height=300>
    <td width=300 height=300><img src=""static/images/cards/back_of_red_stars.svg"" width=""175px"" height=""250px""></img></td>
    <td width=300 height=300><img src=""static/images/cards/back_of_red_stars.svg"" width=""175px"" height=""250px""></img></td>
  </tr>
  <tr height=200>
    <td width=300><img src=""static/images/keys/z.svg"" width=""35%"" height=""75%""></img></td>
    <td width=300><img src=""static/images/keys/m.svg"" width=""35%"" height=""75%""></img></td>
  </tr>
</table>
  ",77.0,,,,,,,,,,,,,,,,,,,,,,,,,1.0,,
64,0,,html-keyboard-response,64,443581,0.0-4.8-2.8,3f9w634i86y,2022-09-19 15:30:57.765,5c4ded8b818d4d00013e69c9,1,64,46,41,39,72,female,,,"
  <table>
  <tr height=300>
    <td width=300 height=300><img src=""static/images/cards/back_of_red_stars.svg"" width=""175px"" height=""250px""></img></td>
    <td width=300 height=300><img src=""static/images/cards/2_of_red_stars.svg"" width=""175px"" height=""250px""></img></td>
  </tr>
  <tr height=200>
    <td width=300><img src=""static/images/keys/z.svg"" width=""35%"" height=""75%""></img></td>
    <td width=300><img src=""static/images/keys/m.svg"" width=""35%"" height=""75%""></img></td>
  </tr>
</table>
  ",,,,,,,,,,,,,,,,,,,,,,,,,,,,
65,0,,html-keyboard-response,65,445092,0.0-4.8-3.8,3f9w634i86y,2022-09-19 15:30:57.765,5c4ded8b818d4d00013e69c9,1,64,46,41,39,72,female,,,"<p style=""font-size:50px"">You win!
+10 points this round!</p>",,,,,,,,,,,,,,,,,,,,,,,,,,,,
66,0,,html-keyboard-response,66,445613,0.0-4.8-4.8,3f9w634i86y,2022-09-19 15:30:57.765,5c4ded8b818d4d00013e69c9,1,64,46,41,39,72,female,,,,,1.0,learning,8.0,C,,red,,stars,,,,C,red,stars,,1.0,0.0,NA,right,740.5,2.0,0.0,1.0,,,,
67,0,,html-keyboard-response,67,447117,0.0-4.9-0.9,3f9w634i86y,2022-09-19 15:30:57.765,5c4ded8b818d4d00013e69c9,1,64,46,41,39,72,female,,,"<img src=""static/images/cards/stack_of_black_stars.svg"" width=""175px"" height=""250px""></img>",,,,,,,,,,,,,,,,,,,,,,,,,,,,
68,0,,html-keyboard-response,68,448078,0.0-4.9-1.9,3f9w634i86y,2022-09-19 15:30:57.765,5c4ded8b818d4d00013e69c9,1,64,46,41,39,72,female,442.0,,"
  <table>
  <tr height=300>
    <td width=300 height=300><img src=""static/images/cards/back_of_black_stars.svg"" width=""175px"" height=""250px""></img></td>
    <td width=300 height=300><img src=""static/images/cards/back_of_black_stars.svg"" width=""175px"" height=""250px""></img></td>
  </tr>
  <tr height=200>
    <td width=300><img src=""static/images/keys/z.svg"" width=""35%"" height=""75%""></img></td>
    <td width=300></td>
  </tr>
</table>
  ",90.0,,,,,,,,,,,,,,,,,,,,,,,,,1.0,,
69,0,,html-keyboard-response,69,449581,0.0-4.9-2.9,3f9w634i86y,2022-09-19 15:30:57.765,5c4ded8b818d4d00013e69c9,1,64,46,41,39,72,female,,,"
  <table>
  <tr height=300>
    <td width=300 height=300><img src=""static/images/cards/3_of_black_stars.svg"" width=""175px"" height=""250px""></img></td>
    <td width=300 height=300><img src=""static/images/cards/back_of_black_stars.svg"" width=""175px"" height=""250px""></img></td>
  </tr>
  <tr height=200>
    <td width=300><img src=""static/images/keys/z.svg"" width=""35%"" height=""75%""></img></td>
    <td width=300></td>
  </tr>
</table>
  ",,,,,,,,,,,,,,,,,,,,,,,,,,,,
70,0,,html-keyboard-response,70,451090,0.0-4.9-3.9,3f9w634i86y,2022-09-19 15:30:57.765,5c4ded8b818d4d00013e69c9,1,64,46,41,39,72,female,,,"<p style=""font-size:50px"">You Lose!
No points this round.</p>",,,,,,,,,,,,,,,,,,,,,,,,,,,,
71,0,,html-keyboard-response,71,451597,0.0-4.9-4.9,3f9w634i86y,2022-09-19 15:30:57.765,5c4ded8b818d4d00013e69c9,1,64,46,41,39,72,female,,,,,1.0,learning,9.0,D,,black,,stars,,,,D,black,stars,,0.0,0.0,1,left,442.0,3.0,0.0,0.0,,,,
72,0,,html-keyboard-response,72,453098,0.0-4.10-0.10,3f9w634i86y,2022-09-19 15:30:57.765,5c4ded8b818d4d00013e69c9,1,64,46,41,39,72,female,,,"<img src=""static/images/cards/stack_of_red_bolts.svg"" width=""175px"" height=""250px""></img>",,,,,,,,,,,,,,,,,,,,,,,,,,,,
73,0,,html-keyboard-response,73,453817,0.0-4.10-1.10,3f9w634i86y,2022-09-19 15:30:57.765,5c4ded8b818d4d00013e69c9,1,64,46,41,39,72,female,216.0,,"
  <table>
  <tr height=300>
    <td width=300 height=300><img src=""static/images/cards/back_of_red_bolts.svg"" width=""175px"" height=""250px""></img></td>
    <td width=300 height=300><img src=""static/images/cards/back_of_red_bolts.svg"" width=""175px"" height=""250px""></img></td>
  </tr>
  <tr height=200>
    <td width=300><img src=""static/images/keys/z.svg"" width=""35%"" height=""75%""></img></td>
    <td width=300><img src=""static/images/keys/m.svg"" width=""35%"" height=""75%""></img></td>
  </tr>
</table>
  ",77.0,,,,,,,,,,,,,,,,,,,,,,,,,1.0,,
74,0,,html-keyboard-response,74,455322,0.0-4.10-2.10,3f9w634i86y,2022-09-19 15:30:57.765,5c4ded8b818d4d00013e69c9,1,64,46,41,39,72,female,,,"
  <table>
  <tr height=300>
    <td width=300 height=300><img src=""static/images/cards/back_of_red_bolts.svg"" width=""175px"" height=""250px""></img></td>
    <td width=300 height=300><img src=""static/images/cards/3_of_red_bolts.svg"" width=""175px"" height=""250px""></img></td>
  </tr>
  <tr height=200>
    <td width=300><img src=""static/images/keys/z.svg"" width=""35%"" height=""75%""></img></td>
    <td width=300><img src=""static/images/keys/m.svg"" width=""35%"" height=""75%""></img></td>
  </tr>
</table>
  ",,,,,,,,,,,,,,,,,,,,,,,,,,,,
75,0,,html-keyboard-response,75,456848,0.0-4.10-3.10,3f9w634i86y,2022-09-19 15:30:57.765,5c4ded8b818d4d00013e69c9,1,64,46,41,39,72,female,,,"<p style=""font-size:50px"">You win!
+10 points this round!</p>",,,,,,,,,,,,,,,,,,,,,,,,,,,,
76,0,,html-keyboard-response,76,457369,0.0-4.10-4.10,3f9w634i86y,2022-09-19 15:30:57.765,5c4ded8b818d4d00013e69c9,1,64,46,41,39,72,female,,,,,1.0,learning,10.0,Xc,,red,,bolts,,,,Xc,red,bolts,,1.0,0.0,NA,right,216.0,3.0,0.0,1.0,,,,
77,0,,html-keyboard-response,77,458872,0.0-4.11-0.11,3f9w634i86y,2022-09-19 15:30:57.765,5c4ded8b818d4d00013e69c9,1,64,46,41,39,72,female,,,"<img src=""static/images/cards/stack_of_black_bolts.svg"" width=""175px"" height=""250px""></img>",,,,,,,,,,,,,,,,,,,,,,,,,,,,
78,0,,html-keyboard-response,78,459798,0.0-4.11-1.11,3f9w634i86y,2022-09-19 15:30:57.765,5c4ded8b818d4d00013e69c9,1,64,46,41,39,72,female,412.5,,"
  <table>
  <tr height=300>
    <td width=300 height=300><img src=""static/images/cards/back_of_black_bolts.svg"" width=""175px"" height=""250px""></img></td>
    <td width=300 height=300><img src=""static/images/cards/back_of_black_bolts.svg"" width=""175px"" height=""250px""></img></td>
  </tr>
  <tr height=200>
    <td width=300><img src=""static/images/keys/z.svg"" width=""35%"" height=""75%""></img></td>
    <td width=300></td>
  </tr>
</table>
  ",90.0,,,,,,,,,,,,,,,,,,,,,,,,,1.0,,
79,0,,html-keyboard-response,79,461301,0.0-4.11-2.11,3f9w634i86y,2022-09-19 15:30:57.765,5c4ded8b818d4d00013e69c9,1,64,46,41,39,72,female,,,"
  <table>
  <tr height=300>
    <td width=300 height=300><img src=""static/images/cards/10_of_black_bolts.svg"" width=""175px"" height=""250px""></img></td>
    <td width=300 height=300><img src=""static/images/cards/back_of_black_bolts.svg"" width=""175px"" height=""250px""></img></td>
  </tr>
  <tr height=200>
    <td width=300><img src=""static/images/keys/z.svg"" width=""35%"" height=""75%""></img></td>
    <td width=300></td>
  </tr>
</table>
  ",,,,,,,,,,,,,,,,,,,,,,,,,,,,
80,0,,html-keyboard-response,80,462803,0.0-4.11-3.11,3f9w634i86y,2022-09-19 15:30:57.765,5c4ded8b818d4d00013e69c9,1,64,46,41,39,72,female,,,"<p style=""font-size:50px"">You win!
+10 points this round!</p>",,,,,,,,,,,,,,,,,,,,,,,,,,,,
81,0,,html-keyboard-response,81,463310,0.0-4.11-4.11,3f9w634i86y,2022-09-19 15:30:57.765,5c4ded8b818d4d00013e69c9,1,64,46,41,39,72,female,,,,,1.0,learning,11.0,Xnc,,black,,bolts,,,,Xnc,black,bolts,,0.0,0.0,1,left,412.5,10.0,1.0,1.0,,,,
82,0,,html-keyboard-response,82,464814,0.0-4.12-0.12,3f9w634i86y,2022-09-19 15:30:57.765,5c4ded8b818d4d00013e69c9,1,64,46,41,39,72,female,,,"<img src=""static/images/cards/stack_of_red_moons.svg"" width=""175px"" height=""250px""></img>",,,,,,,,,,,,,,,,,,,,,,,,,,,,
83,0,,html-keyboard-response,83,466115,0.0-4.12-1.12,3f9w634i86y,2022-09-19 15:30:57.765,5c4ded8b818d4d00013e69c9,1,64,46,41,39,72,female,793.299999997,,"
  <table>
  <tr height=300>
    <td width=300 height=300><img src=""static/images/cards/back_of_red_moons.svg"" width=""175px"" height=""250px""></img></td>
    <td width=300 height=300><img src=""static/images/cards/back_of_red_moons.svg"" width=""175px"" height=""250px""></img></td>
  </tr>
  <tr height=200>
    <td width=300><img src=""static/images/keys/z.svg"" width=""35%"" height=""75%""></img></td>
    <td width=300><img src=""static/images/keys/m.svg"" width=""35%"" height=""75%""></img></td>
  </tr>
</table>
  ",90.0,,,,,,,,,,,,,,,,,,,,,,,,,1.0,,
84,0,,html-keyboard-response,84,467624,0.0-4.12-2.12,3f9w634i86y,2022-09-19 15:30:57.765,5c4ded8b818d4d00013e69c9,1,64,46,41,39,72,female,,,"
  <table>
  <tr height=300>
    <td width=300 height=300><img src=""static/images/cards/4_of_red_moons.svg"" width=""175px"" height=""250px""></img></td>
    <td width=300 height=300><img src=""static/images/cards/back_of_red_moons.svg"" width=""175px"" height=""250px""></img></td>
  </tr>
  <tr height=200>
    <td width=300><img src=""static/images/keys/z.svg"" width=""35%"" height=""75%""></img></td>
    <td width=300><img src=""static/images/keys/m.svg"" width=""35%"" height=""75%""></img></td>
  </tr>
</table>
  ",,,,,,,,,,,,,,,,,,,,,,,,,,,,
85,0,,html-keyboard-response,85,469139,0.0-4.12-3.12,3f9w634i86y,2022-09-19 15:30:57.765,5c4ded8b818d4d00013e69c9,1,64,46,41,39,72,female,,,"<p style=""font-size:50px"">You Lose!
No points this round.</p>",,,,,,,,,,,,,,,,,,,,,,,,,,,,
86,0,,html-keyboard-response,86,469651,0.0-4.12-4.12,3f9w634i86y,2022-09-19 15:30:57.765,5c4ded8b818d4d00013e69c9,1,64,46,41,39,72,female,,,,,1.0,learning,12.0,A,,red,,moons,,,,A,red,moons,,1.0,1.0,NA,left,793.299999997,4.0,0.0,0.0,,,,
87,0,,html-keyboard-response,87,471169,0.0-4.13-0.13,3f9w634i86y,2022-09-19 15:30:57.765,5c4ded8b818d4d00013e69c9,1,64,46,41,39,72,female,,,"<img src=""static/images/cards/stack_of_black_moons.svg"" width=""175px"" height=""250px""></img>",,,,,,,,,,,,,,,,,,,,,,,,,,,,
88,0,,html-keyboard-response,88,472162,0.0-4.13-1.13,3f9w634i86y,2022-09-19 15:30:57.765,5c4ded8b818d4d00013e69c9,1,64,46,41,39,72,female,474.099999994,,"
  <table>
  <tr height=300>
    <td width=300 height=300><img src=""static/images/cards/back_of_black_moons.svg"" width=""175px"" height=""250px""></img></td>
    <td width=300 height=300><img src=""static/images/cards/back_of_black_moons.svg"" width=""175px"" height=""250px""></img></td>
  </tr>
  <tr height=200>
    <td width=300><img src=""static/images/keys/z.svg"" width=""35%"" height=""75%""></img></td>
    <td width=300></td>
  </tr>
</table>
  ",90.0,,,,,,,,,,,,,,,,,,,,,,,,,1.0,,
89,0,,html-keyboard-response,89,473666,0.0-4.13-2.13,3f9w634i86y,2022-09-19 15:30:57.765,5c4ded8b818d4d00013e69c9,1,64,46,41,39,72,female,,,"
  <table>
  <tr height=300>
    <td width=300 height=300><img src=""static/images/cards/4_of_black_moons.svg"" width=""175px"" height=""250px""></img></td>
    <td width=300 height=300><img src=""static/images/cards/back_of_black_moons.svg"" width=""175px"" height=""250px""></img></td>
  </tr>
  <tr height=200>
    <td width=300><img src=""static/images/keys/z.svg"" width=""35%"" height=""75%""></img></td>
    <td width=300></td>
  </tr>
</table>
  ",,,,,,,,,,,,,,,,,,,,,,,,,,,,
90,0,,html-keyboard-response,90,475177,0.0-4.13-3.13,3f9w634i86y,2022-09-19 15:30:57.765,5c4ded8b818d4d00013e69c9,1,64,46,41,39,72,female,,,"<p style=""font-size:50px"">You Lose!
No points this round.</p>",,,,,,,,,,,,,,,,,,,,,,,,,,,,
91,0,,html-keyboard-response,91,475684,0.0-4.13-4.13,3f9w634i86y,2022-09-19 15:30:57.765,5c4ded8b818d4d00013e69c9,1,64,46,41,39,72,female,,,,,1.0,learning,13.0,B,,black,,moons,,,,B,black,moons,,0.0,1.0,1,left,474.099999994,4.0,0.0,0.0,,,,
92,0,,html-keyboard-response,92,477203,0.0-4.14-0.14,3f9w634i86y,2022-09-19 15:30:57.765,5c4ded8b818d4d00013e69c9,1,64,46,41,39,72,female,,,"<img src=""static/images/cards/stack_of_red_stars.svg"" width=""175px"" height=""250px""></img>",,,,,,,,,,,,,,,,,,,,,,,,,,,,
93,0,,html-keyboard-response,93,478132,0.0-4.14-1.14,3f9w634i86y,2022-09-19 15:30:57.765,5c4ded8b818d4d00013e69c9,1,64,46,41,39,72,female,426.5,,"
  <table>
  <tr height=300>
    <td width=300 height=300><img src=""static/images/cards/back_of_red_stars.svg"" width=""175px"" height=""250px""></img></td>
    <td width=300 height=300><img src=""static/images/cards/back_of_red_stars.svg"" width=""175px"" height=""250px""></img></td>
  </tr>
  <tr height=200>
    <td width=300><img src=""static/images/keys/z.svg"" width=""35%"" height=""75%""></img></td>
    <td width=300><img src=""static/images/keys/m.svg"" width=""35%"" height=""75%""></img></td>
  </tr>
</table>
  ",77.0,,,,,,,,,,,,,,,,,,,,,,,,,1.0,,
94,0,,html-keyboard-response,94,479645,0.0-4.14-2.14,3f9w634i86y,2022-09-19 15:30:57.765,5c4ded8b818d4d00013e69c9,1,64,46,41,39,72,female,,,"
  <table>
  <tr height=300>
    <td width=300 height=300><img src=""static/images/cards/back_of_red_stars.svg"" width=""175px"" height=""250px""></img></td>
    <td width=300 height=300><img src=""static/images/cards/7_of_red_stars.svg"" width=""175px"" height=""250px""></img></td>
  </tr>
  <tr height=200>
    <td width=300><img src=""static/images/keys/z.svg"" width=""35%"" height=""75%""></img></td>
    <td width=300><img src=""static/images/keys/m.svg"" width=""35%"" height=""75%""></img></td>
  </tr>
</table>
  ",,,,,,,,,,,,,,,,,,,,,,,,,,,,
95,0,,html-keyboard-response,95,481169,0.0-4.14-3.14,3f9w634i86y,2022-09-19 15:30:57.765,5c4ded8b818d4d00013e69c9,1,64,46,41,39,72,female,,,"<p style=""font-size:50px"">You win!
+10 points this round!</p>",,,,,,,,,,,,,,,,,,,,,,,,,,,,
96,0,,html-keyboard-response,96,481690,0.0-4.14-4.14,3f9w634i86y,2022-09-19 15:30:57.765,5c4ded8b818d4d00013e69c9,1,64,46,41,39,72,female,,,,,1.0,learning,14.0,C,,red,,stars,,,,C,red,stars,,1.0,0.0,NA,right,426.5,7.0,1.0,1.0,,,,
97,0,,html-keyboard-response,97,483193,0.0-4.15-0.15,3f9w634i86y,2022-09-19 15:30:57.765,5c4ded8b818d4d00013e69c9,1,64,46,41,39,72,female,,,"<img src=""static/images/cards/stack_of_black_stars.svg"" width=""175px"" height=""250px""></img>",,,,,,,,,,,,,,,,,,,,,,,,,,,,
98,0,,html-keyboard-response,98,484177,0.0-4.15-1.15,3f9w634i86y,2022-09-19 15:30:57.765,5c4ded8b818d4d00013e69c9,1,64,46,41,39,72,female,467.5,,"
  <table>
  <tr height=300>
    <td width=300 height=300><img src=""static/images/cards/back_of_black_stars.svg"" width=""175px"" height=""250px""></img></td>
    <td width=300 height=300><img src=""static/images/cards/back_of_black_stars.svg"" width=""175px"" height=""250px""></img></td>
  </tr>
  <tr height=200>
    <td width=300><img src=""static/images/keys/z.svg"" width=""35%"" height=""75%""></img></td>
    <td width=300></td>
  </tr>
</table>
  ",90.0,,,,,,,,,,,,,,,,,,,,,,,,,1.0,,
99,0,,html-keyboard-response,99,485681,0.0-4.15-2.15,3f9w634i86y,2022-09-19 15:30:57.765,5c4ded8b818d4d00013e69c9,1,64,46,41,39,72,female,,,"
  <table>
  <tr height=300>
    <td width=300 height=300><img src=""static/images/cards/7_of_black_stars.svg"" width=""175px"" height=""250px""></img></td>
    <td width=300 height=300><img src=""static/images/cards/back_of_black_stars.svg"" width=""175px"" height=""250px""></img></td>
  </tr>
  <tr height=200>
    <td width=300><img src=""static/images/keys/z.svg"" width=""35%"" height=""75%""></img></td>
    <td width=300></td>
  </tr>
</table>
  ",,,,,,,,,,,,,,,,,,,,,,,,,,,,
100,0,,html-keyboard-response,100,487187,0.0-4.15-3.15,3f9w634i86y,2022-09-19 15:30:57.765,5c4ded8b818d4d00013e69c9,1,64,46,41,39,72,female,,,"<p style=""font-size:50px"">You Lose!
No points this round.</p>",,,,,,,,,,,,,,,,,,,,,,,,,,,,
101,0,,html-keyboard-response,101,487694,0.0-4.15-4.15,3f9w634i86y,2022-09-19 15:30:57.765,5c4ded8b818d4d00013e69c9,1,64,46,41,39,72,female,,,,,1.0,learning,15.0,D,,black,,stars,,,,D,black,stars,,0.0,0.0,1,left,467.5,7.0,1.0,0.0,,,,
102,0,,html-keyboard-response,102,489201,0.0-4.16-0.16,3f9w634i86y,2022-09-19 15:30:57.765,5c4ded8b818d4d00013e69c9,1,64,46,41,39,72,female,,,"<img src=""static/images/cards/stack_of_red_bolts.svg"" width=""175px"" height=""250px""></img>",,,,,,,,,,,,,,,,,,,,,,,,,,,,
103,0,,html-keyboard-response,103,490307,0.0-4.16-1.16,3f9w634i86y,2022-09-19 15:30:57.765,5c4ded8b818d4d00013e69c9,1,64,46,41,39,72,female,602.6000000089,,"
  <table>
  <tr height=300>
    <td width=300 height=300><img src=""static/images/cards/back_of_red_bolts.svg"" width=""175px"" height=""250px""></img></td>
    <td width=300 height=300><img src=""static/images/cards/back_of_red_bolts.svg"" width=""175px"" height=""250px""></img></td>
  </tr>
  <tr height=200>
    <td width=300><img src=""static/images/keys/z.svg"" width=""35%"" height=""75%""></img></td>
    <td width=300><img src=""static/images/keys/m.svg"" width=""35%"" height=""75%""></img></td>
  </tr>
</table>
  ",77.0,,,,,,,,,,,,,,,,,,,,,,,,,1.0,,
104,0,,html-keyboard-response,104,491813,0.0-4.16-2.16,3f9w634i86y,2022-09-19 15:30:57.765,5c4ded8b818d4d00013e69c9,1,64,46,41,39,72,female,,,"
  <table>
  <tr height=300>
    <td width=300 height=300><img src=""static/images/cards/back_of_red_bolts.svg"" width=""175px"" height=""250px""></img></td>
    <td width=300 height=300><img src=""static/images/cards/6_of_red_bolts.svg"" width=""175px"" height=""250px""></img></td>
  </tr>
  <tr height=200>
    <td width=300><img src=""static/images/keys/z.svg"" width=""35%"" height=""75%""></img></td>
    <td width=300><img src=""static/images/keys/m.svg"" width=""35%"" height=""75%""></img></td>
  </tr>
</table>
  ",,,,,,,,,,,,,,,,,,,,,,,,,,,,
105,0,,html-keyboard-response,105,493316,0.0-4.16-3.16,3f9w634i86y,2022-09-19 15:30:57.765,5c4ded8b818d4d00013e69c9,1,64,46,41,39,72,female,,,"<p style=""font-size:50px"">You win!
+10 points this round!</p>",,,,,,,,,,,,,,,,,,,,,,,,,,,,
106,0,,html-keyboard-response,106,493837,0.0-4.16-4.16,3f9w634i86y,2022-09-19 15:30:57.765,5c4ded8b818d4d00013e69c9,1,64,46,41,39,72,female,,,,,1.0,learning,16.0,Xc,,red,,bolts,,,,Xc,red,bolts,,1.0,0.0,NA,right,602.6000000089,6.0,1.0,1.0,,,,
107,0,,html-keyboard-response,107,495347,0.0-4.17-0.17,3f9w634i86y,2022-09-19 15:30:57.765,5c4ded8b818d4d00013e69c9,1,64,46,41,39,72,female,,,"<img src=""static/images/cards/stack_of_black_bolts.svg"" width=""175px"" height=""250px""></img>",,,,,,,,,,,,,,,,,,,,,,,,,,,,
108,0,,html-keyboard-response,108,496307,0.0-4.17-1.17,3f9w634i86y,2022-09-19 15:30:57.765,5c4ded8b818d4d00013e69c9,1,64,46,41,39,72,female,443.0,,"
  <table>
  <tr height=300>
    <td width=300 height=300><img src=""static/images/cards/back_of_black_bolts.svg"" width=""175px"" height=""250px""></img></td>
    <td width=300 height=300><img src=""static/images/cards/back_of_black_bolts.svg"" width=""175px"" height=""250px""></img></td>
  </tr>
  <tr height=200>
    <td width=300></td>
    <td width=300><img src=""static/images/keys/m.svg"" width=""35%"" height=""75%""></img></td>
  </tr>
</table>
  ",77.0,,,,,,,,,,,,,,,,,,,,,,,,,1.0,,
109,0,,html-keyboard-response,109,497814,0.0-4.17-2.17,3f9w634i86y,2022-09-19 15:30:57.765,5c4ded8b818d4d00013e69c9,1,64,46,41,39,72,female,,,"
  <table>
  <tr height=300>
    <td width=300 height=300><img src=""static/images/cards/back_of_black_bolts.svg"" width=""175px"" height=""250px""></img></td>
    <td width=300 height=300><img src=""static/images/cards/6_of_black_bolts.svg"" width=""175px"" height=""250px""></img></td>
  </tr>
  <tr height=200>
    <td width=300></td>
    <td width=300><img src=""static/images/keys/m.svg"" width=""35%"" height=""75%""></img></td>
  </tr>
</table>
  ",,,,,,,,,,,,,,,,,,,,,,,,,,,,
110,0,,html-keyboard-response,110,499338,0.0-4.17-3.17,3f9w634i86y,2022-09-19 15:30:57.765,5c4ded8b818d4d00013e69c9,1,64,46,41,39,72,female,,,"<p style=""font-size:50px"">You win!
+10 points this round!</p>",,,,,,,,,,,,,,,,,,,,,,,,,,,,
111,0,,html-keyboard-response,111,499858,0.0-4.17-4.17,3f9w634i86y,2022-09-19 15:30:57.765,5c4ded8b818d4d00013e69c9,1,64,46,41,39,72,female,,,,,1.0,learning,17.0,Xnc,,black,,bolts,,,,Xnc,black,bolts,,0.0,0.0,0,right,443.0,6.0,1.0,1.0,,,,
112,0,,html-keyboard-response,112,501375,0.0-4.18-0.18,3f9w634i86y,2022-09-19 15:30:57.765,5c4ded8b818d4d00013e69c9,1,64,46,41,39,72,female,,,"<img src=""static/images/cards/stack_of_red_moons.svg"" width=""175px"" height=""250px""></img>",,,,,,,,,,,,,,,,,,,,,,,,,,,,
113,0,,html-keyboard-response,113,502675,0.0-4.18-1.18,3f9w634i86y,2022-09-19 15:30:57.765,5c4ded8b818d4d00013e69c9,1,64,46,41,39,72,female,785.299999997,,"
  <table>
  <tr height=300>
    <td width=300 height=300><img src=""static/images/cards/back_of_red_moons.svg"" width=""175px"" height=""250px""></img></td>
    <td width=300 height=300><img src=""static/images/cards/back_of_red_moons.svg"" width=""175px"" height=""250px""></img></td>
  </tr>
  <tr height=200>
    <td width=300><img src=""static/images/keys/z.svg"" width=""35%"" height=""75%""></img></td>
    <td width=300><img src=""static/images/keys/m.svg"" width=""35%"" height=""75%""></img></td>
  </tr>
</table>
  ",90.0,,,,,,,,,,,,,,,,,,,,,,,,,1.0,,
114,0,,html-keyboard-response,114,504179,0.0-4.18-2.18,3f9w634i86y,2022-09-19 15:30:57.765,5c4ded8b818d4d00013e69c9,1,64,46,41,39,72,female,,,"
  <table>
  <tr height=300>
    <td width=300 height=300><img src=""static/images/cards/8_of_red_moons.svg"" width=""175px"" height=""250px""></img></td>
    <td width=300 height=300><img src=""static/images/cards/back_of_red_moons.svg"" width=""175px"" height=""250px""></img></td>
  </tr>
  <tr height=200>
    <td width=300><img src=""static/images/keys/z.svg"" width=""35%"" height=""75%""></img></td>
    <td width=300><img src=""static/images/keys/m.svg"" width=""35%"" height=""75%""></img></td>
  </tr>
</table>
  ",,,,,,,,,,,,,,,,,,,,,,,,,,,,
115,0,,html-keyboard-response,115,505707,0.0-4.18-3.18,3f9w634i86y,2022-09-19 15:30:57.765,5c4ded8b818d4d00013e69c9,1,64,46,41,39,72,female,,,"<p style=""font-size:50px"">You win!
+10 points this round!</p>",,,,,,,,,,,,,,,,,,,,,,,,,,,,
116,0,,html-keyboard-response,116,506225,0.0-4.18-4.18,3f9w634i86y,2022-09-19 15:30:57.765,5c4ded8b818d4d00013e69c9,1,64,46,41,39,72,female,,,,,1.0,learning,18.0,A,,red,,moons,,,,A,red,moons,,1.0,1.0,NA,left,785.299999997,8.0,1.0,1.0,,,,
117,0,,html-keyboard-response,117,507729,0.0-4.19-0.19,3f9w634i86y,2022-09-19 15:30:57.765,5c4ded8b818d4d00013e69c9,1,64,46,41,39,72,female,,,"<img src=""static/images/cards/stack_of_black_moons.svg"" width=""175px"" height=""250px""></img>",,,,,,,,,,,,,,,,,,,,,,,,,,,,
118,0,,html-keyboard-response,118,508881,0.0-4.19-1.19,3f9w634i86y,2022-09-19 15:30:57.765,5c4ded8b818d4d00013e69c9,1,64,46,41,39,72,female,637.5,,"
  <table>
  <tr height=300>
    <td width=300 height=300><img src=""static/images/cards/back_of_black_moons.svg"" width=""175px"" height=""250px""></img></td>
    <td width=300 height=300><img src=""static/images/cards/back_of_black_moons.svg"" width=""175px"" height=""250px""></img></td>
  </tr>
  <tr height=200>
    <td width=300><img src=""static/images/keys/z.svg"" width=""35%"" height=""75%""></img></td>
    <td width=300></td>
  </tr>
</table>
  ",90.0,,,,,,,,,,,,,,,,,,,,,,,,,1.0,,
119,0,,html-keyboard-response,119,510390,0.0-4.19-2.19,3f9w634i86y,2022-09-19 15:30:57.765,5c4ded8b818d4d00013e69c9,1,64,46,41,39,72,female,,,"
  <table>
  <tr height=300>
    <td width=300 height=300><img src=""static/images/cards/8_of_black_moons.svg"" width=""175px"" height=""250px""></img></td>
    <td width=300 height=300><img src=""static/images/cards/back_of_black_moons.svg"" width=""175px"" height=""250px""></img></td>
  </tr>
  <tr height=200>
    <td width=300><img src=""static/images/keys/z.svg"" width=""35%"" height=""75%""></img></td>
    <td width=300></td>
  </tr>
</table>
  ",,,,,,,,,,,,,,,,,,,,,,,,,,,,
120,0,,html-keyboard-response,120,511916,0.0-4.19-3.19,3f9w634i86y,2022-09-19 15:30:57.765,5c4ded8b818d4d00013e69c9,1,64,46,41,39,72,female,,,"<p style=""font-size:50px"">You win!
+10 points this round!</p>",,,,,,,,,,,,,,,,,,,,,,,,,,,,
121,0,,html-keyboard-response,121,512435,0.0-4.19-4.19,3f9w634i86y,2022-09-19 15:30:57.765,5c4ded8b818d4d00013e69c9,1,64,46,41,39,72,female,,,,,1.0,learning,19.0,B,,black,,moons,,,,B,black,moons,,0.0,1.0,1,left,637.5,8.0,1.0,1.0,,,,
122,0,,html-keyboard-response,122,513939,0.0-4.20-0.20,3f9w634i86y,2022-09-19 15:30:57.765,5c4ded8b818d4d00013e69c9,1,64,46,41,39,72,female,,,"<img src=""static/images/cards/stack_of_red_stars.svg"" width=""175px"" height=""250px""></img>",,,,,,,,,,,,,,,,,,,,,,,,,,,,
123,0,,html-keyboard-response,123,514933,0.0-4.20-1.20,3f9w634i86y,2022-09-19 15:30:57.765,5c4ded8b818d4d00013e69c9,1,64,46,41,39,72,female,481.900000006,,"
  <table>
  <tr height=300>
    <td width=300 height=300><img src=""static/images/cards/back_of_red_stars.svg"" width=""175px"" height=""250px""></img></td>
    <td width=300 height=300><img src=""static/images/cards/back_of_red_stars.svg"" width=""175px"" height=""250px""></img></td>
  </tr>
  <tr height=200>
    <td width=300><img src=""static/images/keys/z.svg"" width=""35%"" height=""75%""></img></td>
    <td width=300><img src=""static/images/keys/m.svg"" width=""35%"" height=""75%""></img></td>
  </tr>
</table>
  ",90.0,,,,,,,,,,,,,,,,,,,,,,,,,1.0,,
124,0,,html-keyboard-response,124,516447,0.0-4.20-2.20,3f9w634i86y,2022-09-19 15:30:57.765,5c4ded8b818d4d00013e69c9,1,64,46,41,39,72,female,,,"
  <table>
  <tr height=300>
    <td width=300 height=300><img src=""static/images/cards/4_of_red_stars.svg"" width=""175px"" height=""250px""></img></td>
    <td width=300 height=300><img src=""static/images/cards/back_of_red_stars.svg"" width=""175px"" height=""250px""></img></td>
  </tr>
  <tr height=200>
    <td width=300><img src=""static/images/keys/z.svg"" width=""35%"" height=""75%""></img></td>
    <td width=300><img src=""static/images/keys/m.svg"" width=""35%"" height=""75%""></img></td>
  </tr>
</table>
  ",,,,,,,,,,,,,,,,,,,,,,,,,,,,
125,0,,html-keyboard-response,125,517964,0.0-4.20-3.20,3f9w634i86y,2022-09-19 15:30:57.765,5c4ded8b818d4d00013e69c9,1,64,46,41,39,72,female,,,"<p style=""font-size:50px"">You Lose!
No points this round.</p>",,,,,,,,,,,,,,,,,,,,,,,,,,,,
126,0,,html-keyboard-response,126,518480,0.0-4.20-4.20,3f9w634i86y,2022-09-19 15:30:57.765,5c4ded8b818d4d00013e69c9,1,64,46,41,39,72,female,,,,,1.0,learning,20.0,C,,red,,stars,,,,C,red,stars,,1.0,0.0,NA,left,481.900000006,4.0,0.0,0.0,,,,
127,0,,html-keyboard-response,127,519997,0.0-4.21-0.21,3f9w634i86y,2022-09-19 15:30:57.765,5c4ded8b818d4d00013e69c9,1,64,46,41,39,72,female,,,"<img src=""static/images/cards/stack_of_black_stars.svg"" width=""175px"" height=""250px""></img>",,,,,,,,,,,,,,,,,,,,,,,,,,,,
128,0,,html-keyboard-response,128,521368,0.0-4.21-1.21,3f9w634i86y,2022-09-19 15:30:57.765,5c4ded8b818d4d00013e69c9,1,64,46,41,39,72,female,852.5,,"
  <table>
  <tr height=300>
    <td width=300 height=300><img src=""static/images/cards/back_of_black_stars.svg"" width=""175px"" height=""250px""></img></td>
    <td width=300 height=300><img src=""static/images/cards/back_of_black_stars.svg"" width=""175px"" height=""250px""></img></td>
  </tr>
  <tr height=200>
    <td width=300><img src=""static/images/keys/z.svg"" width=""35%"" height=""75%""></img></td>
    <td width=300></td>
  </tr>
</table>
  ",90.0,,,,,,,,,,,,,,,,,,,,,,,,,1.0,,
129,0,,html-keyboard-response,129,522877,0.0-4.21-2.21,3f9w634i86y,2022-09-19 15:30:57.765,5c4ded8b818d4d00013e69c9,1,64,46,41,39,72,female,,,"
  <table>
  <tr height=300>
    <td width=300 height=300><img src=""static/images/cards/2_of_black_stars.svg"" width=""175px"" height=""250px""></img></td>
    <td width=300 height=300><img src=""static/images/cards/back_of_black_stars.svg"" width=""175px"" height=""250px""></img></td>
  </tr>
  <tr height=200>
    <td width=300><img src=""static/images/keys/z.svg"" width=""35%"" height=""75%""></img></td>
    <td width=300></td>
  </tr>
</table>
  ",,,,,,,,,,,,,,,,,,,,,,,,,,,,
130,0,,html-keyboard-response,130,524379,0.0-4.21-3.21,3f9w634i86y,2022-09-19 15:30:57.765,5c4ded8b818d4d00013e69c9,1,64,46,41,39,72,female,,,"<p style=""font-size:50px"">You Lose!
No points this round.</p>",,,,,,,,,,,,,,,,,,,,,,,,,,,,
131,0,,html-keyboard-response,131,524886,0.0-4.21-4.21,3f9w634i86y,2022-09-19 15:30:57.765,5c4ded8b818d4d00013e69c9,1,64,46,41,39,72,female,,,,,1.0,learning,21.0,D,,black,,stars,,,,D,black,stars,,0.0,0.0,1,left,852.5,2.0,0.0,0.0,,,,
132,0,,html-keyboard-response,132,526388,0.0-4.22-0.22,3f9w634i86y,2022-09-19 15:30:57.765,5c4ded8b818d4d00013e69c9,1,64,46,41,39,72,female,,,"<img src=""static/images/cards/stack_of_red_bolts.svg"" width=""175px"" height=""250px""></img>",,,,,,,,,,,,,,,,,,,,,,,,,,,,
133,0,,html-keyboard-response,133,527563,0.0-4.22-1.22,3f9w634i86y,2022-09-19 15:30:57.765,5c4ded8b818d4d00013e69c9,1,64,46,41,39,72,female,672.099999994,,"
  <table>
  <tr height=300>
    <td width=300 height=300><img src=""static/images/cards/back_of_red_bolts.svg"" width=""175px"" height=""250px""></img></td>
    <td width=300 height=300><img src=""static/images/cards/back_of_red_bolts.svg"" width=""175px"" height=""250px""></img></td>
  </tr>
  <tr height=200>
    <td width=300><img src=""static/images/keys/z.svg"" width=""35%"" height=""75%""></img></td>
    <td width=300><img src=""static/images/keys/m.svg"" width=""35%"" height=""75%""></img></td>
  </tr>
</table>
  ",77.0,,,,,,,,,,,,,,,,,,,,,,,,,1.0,,
134,0,,html-keyboard-response,134,529068,0.0-4.22-2.22,3f9w634i86y,2022-09-19 15:30:57.765,5c4ded8b818d4d00013e69c9,1,64,46,41,39,72,female,,,"
  <table>
  <tr height=300>
    <td width=300 height=300><img src=""static/images/cards/back_of_red_bolts.svg"" width=""175px"" height=""250px""></img></td>
    <td width=300 height=300><img src=""static/images/cards/7_of_red_bolts.svg"" width=""175px"" height=""250px""></img></td>
  </tr>
  <tr height=200>
    <td width=300><img src=""static/images/keys/z.svg"" width=""35%"" height=""75%""></img></td>
    <td width=300><img src=""static/images/keys/m.svg"" width=""35%"" height=""75%""></img></td>
  </tr>
</table>
  ",,,,,,,,,,,,,,,,,,,,,,,,,,,,
135,0,,html-keyboard-response,135,530587,0.0-4.22-3.22,3f9w634i86y,2022-09-19 15:30:57.765,5c4ded8b818d4d00013e69c9,1,64,46,41,39,72,female,,,"<p style=""font-size:50px"">You win!
+10 points this round!</p>",,,,,,,,,,,,,,,,,,,,,,,,,,,,
136,0,,html-keyboard-response,136,531105,0.0-4.22-4.22,3f9w634i86y,2022-09-19 15:30:57.765,5c4ded8b818d4d00013e69c9,1,64,46,41,39,72,female,,,,,1.0,learning,22.0,Xc,,red,,bolts,,,,Xc,red,bolts,,1.0,0.0,NA,right,672.099999994,7.0,1.0,1.0,,,,
137,0,,html-keyboard-response,137,532607,0.0-4.23-0.23,3f9w634i86y,2022-09-19 15:30:57.765,5c4ded8b818d4d00013e69c9,1,64,46,41,39,72,female,,,"<img src=""static/images/cards/stack_of_black_bolts.svg"" width=""175px"" height=""250px""></img>",,,,,,,,,,,,,,,,,,,,,,,,,,,,
138,0,,html-keyboard-response,138,533769,0.0-4.23-1.23,3f9w634i86y,2022-09-19 15:30:57.765,5c4ded8b818d4d00013e69c9,1,64,46,41,39,72,female,657.299999997,,"
  <table>
  <tr height=300>
    <td width=300 height=300><img src=""static/images/cards/back_of_black_bolts.svg"" width=""175px"" height=""250px""></img></td>
    <td width=300 height=300><img src=""static/images/cards/back_of_black_bolts.svg"" width=""175px"" height=""250px""></img></td>
  </tr>
  <tr height=200>
    <td width=300></td>
    <td width=300><img src=""static/images/keys/m.svg"" width=""35%"" height=""75%""></img></td>
  </tr>
</table>
  ",77.0,,,,,,,,,,,,,,,,,,,,,,,,,1.0,,
139,0,,html-keyboard-response,139,535281,0.0-4.23-2.23,3f9w634i86y,2022-09-19 15:30:57.765,5c4ded8b818d4d00013e69c9,1,64,46,41,39,72,female,,,"
  <table>
  <tr height=300>
    <td width=300 height=300><img src=""static/images/cards/back_of_black_bolts.svg"" width=""175px"" height=""250px""></img></td>
    <td width=300 height=300><img src=""static/images/cards/1_of_black_bolts.svg"" width=""175px"" height=""250px""></img></td>
  </tr>
  <tr height=200>
    <td width=300></td>
    <td width=300><img src=""static/images/keys/m.svg"" width=""35%"" height=""75%""></img></td>
  </tr>
</table>
  ",,,,,,,,,,,,,,,,,,,,,,,,,,,,
140,0,,html-keyboard-response,140,536804,0.0-4.23-3.23,3f9w634i86y,2022-09-19 15:30:57.765,5c4ded8b818d4d00013e69c9,1,64,46,41,39,72,female,,,"<p style=""font-size:50px"">You win!
+10 points this round!</p>",,,,,,,,,,,,,,,,,,,,,,,,,,,,
141,0,,html-keyboard-response,141,537325,0.0-4.23-4.23,3f9w634i86y,2022-09-19 15:30:57.765,5c4ded8b818d4d00013e69c9,1,64,46,41,39,72,female,,,,,1.0,learning,23.0,Xnc,,black,,bolts,,,,Xnc,black,bolts,,0.0,0.0,0,right,657.299999997,1.0,0.0,1.0,,,,
142,0,,call-function,142,537337,0.0-5.0,3f9w634i86y,2022-09-19 15:30:57.765,5c4ded8b818d4d00013e69c9,1,64,46,41,39,72,female,,,,,,,,,,,,,,,,,,,,,,,,,,,,,,,
143,0,,image-keyboard-response,143,551567,0.0-6.0-0.0,3f9w634i86y,2022-09-19 15:30:57.765,5c4ded8b818d4d00013e69c9,1,64,46,41,39,72,female,14226.900000006,,static/images/instructions_CB_1/Slide20.png,39.0,,,,,,,,,,,,,,,,,,,,,,,,,,,
144,0,,image-keyboard-response,144,576479,0.0-6.1-0.1,3f9w634i86y,2022-09-19 15:30:57.765,5c4ded8b818d4d00013e69c9,1,64,46,41,39,72,female,24908.099999994,,static/images/instructions_CB_1/Slide21.png,39.0,,,,,,,,,,,,,,,,,,,,,,,,,,,
145,0,,image-keyboard-response,145,604436,0.0-6.2-0.2,3f9w634i86y,2022-09-19 15:30:57.765,5c4ded8b818d4d00013e69c9,1,64,46,41,39,72,female,27954.6000000089,,static/images/instructions_CB_1/Slide22.png,39.0,,,,,,,,,,,,,,,,,,,,,,,,,,,
146,0,,image-keyboard-response,146,641921,0.0-6.3-0.3,3f9w634i86y,2022-09-19 15:30:57.765,5c4ded8b818d4d00013e69c9,1,64,46,41,39,72,female,37483.1000000089,,static/images/instructions_CB_1/Slide23.png,39.0,,,,,,,,,,,,,,,,,,,,,,,,,,,
147,0,,image-keyboard-response,147,645048,0.0-6.4-0.4,3f9w634i86y,2022-09-19 15:30:57.765,5c4ded8b818d4d00013e69c9,1,64,46,41,39,72,female,3121.900000006,,static/images/instructions_CB_1/Slide24.png,39.0,,,,,,,,,,,,,,,,,,,,,,,,,,,
148,0,,html-keyboard-response,148,649523,0.0-7.0-0.0,3f9w634i86y,2022-09-19 15:30:57.765,5c4ded8b818d4d00013e69c9,1,64,46,41,39,72,female,4472.0,,"
  <table>
  <tr height=300>
    <td width=300 height=300><img src=""static/images/cards/stack_of_black_stars.svg"" width=""175px"" height=""250px""></img></td>
    <td width=300 height=300><img src=""static/images/cards/stack_of_black_moons.svg"" width=""175px"" height=""250px""></img></td>
  </tr>
  <tr height=200>
    <td width=300><img src=""static/images/keys/w.svg"" width=""35%"" height=""75%""></img></td>
    <td width=300><img src=""static/images/keys/o.svg"" width=""35%"" height=""75%""></img></td>
  </tr>
</table>
  ",79.0,,,,,,,,,,,,,,,,,,,,,,,,,1.0,,
149,0,,html-keyboard-response,149,651752,0.0-7.0-1.0,3f9w634i86y,2022-09-19 15:30:57.765,5c4ded8b818d4d00013e69c9,1,64,46,41,39,72,female,1721.6999999881,,"
  <table>
  <tr height=300>
    <td width=300 height=300><img src=""static/images/cards/back_of_black_moons.svg"" width=""175px"" height=""250px""></img></td>
    <td width=300 height=300><img src=""static/images/cards/back_of_black_moons.svg"" width=""175px"" height=""250px""></img></td>
  </tr>
  <tr height=200>
    <td width=300></td>
    <td width=300><img src=""static/images/keys/m.svg"" width=""35%"" height=""75%""></img></td>
  </tr>
</table>
  ",77.0,,,,,,,,,,,,,,,,,,,,,,,,,1.0,,
150,0,,html-keyboard-response,150,653257,0.0-7.0-2.0,3f9w634i86y,2022-09-19 15:30:57.765,5c4ded8b818d4d00013e69c9,1,64,46,41,39,72,female,,,"
  <table>
  <tr height=300>
    <td width=300 height=300><img src=""static/images/cards/back_of_black_moons.svg"" width=""175px"" height=""250px""></img></td>
    <td width=300 height=300><img src=""static/images/cards/2_of_black_moons.svg"" width=""175px"" height=""250px""></img></td>
  </tr>
  <tr height=200>
    <td width=300></td>
    <td width=300><img src=""static/images/keys/m.svg"" width=""35%"" height=""75%""></img></td>
  </tr>
</table>
  ",,,,,,,,,,,,,,,,,,,,,,,,,,,,
151,0,,html-keyboard-response,151,654779,0.0-7.0-3.0,3f9w634i86y,2022-09-19 15:30:57.765,5c4ded8b818d4d00013e69c9,1,64,46,41,39,72,female,,,"<p style=""font-size:50px"">You Lose!
No points this round.</p>",,,,,,,,,,,,,,,,,,,,,,,,,,,,
152,0,,html-keyboard-response,152,655297,0.0-7.0-4.0,3f9w634i86y,2022-09-19 15:30:57.765,5c4ded8b818d4d00013e69c9,1,64,46,41,39,72,female,,,,,1.0,choice,0.0,B,D,black,black,stars,moons,D,B,B,black,moons,4472.0,0.0,1.0,0,right,1721.6999999881,2.0,0.0,0.0,,,,
153,0,,html-keyboard-response,153,658360,0.0-7.1-0.1,3f9w634i86y,2022-09-19 15:30:57.765,5c4ded8b818d4d00013e69c9,1,64,46,41,39,72,female,3058.5,,"
  <table>
  <tr height=300>
    <td width=300 height=300><img src=""static/images/cards/stack_of_black_moons.svg"" width=""175px"" height=""250px""></img></td>
    <td width=300 height=300><img src=""static/images/cards/stack_of_black_stars.svg"" width=""175px"" height=""250px""></img></td>
  </tr>
  <tr height=200>
    <td width=300><img src=""static/images/keys/w.svg"" width=""35%"" height=""75%""></img></td>
    <td width=300><img src=""static/images/keys/o.svg"" width=""35%"" height=""75%""></img></td>
  </tr>
</table>
  ",87.0,,,,,,,,,,,,,,,,,,,,,,,,,1.0,,
154,0,,html-keyboard-response,154,660597,0.0-7.1-1.1,3f9w634i86y,2022-09-19 15:30:57.765,5c4ded8b818d4d00013e69c9,1,64,46,41,39,72,female,1730.3999999911,,"
  <table>
  <tr height=300>
    <td width=300 height=300><img src=""static/images/cards/back_of_black_moons.svg"" width=""175px"" height=""250px""></img></td>
    <td width=300 height=300><img src=""static/images/cards/back_of_black_moons.svg"" width=""175px"" height=""250px""></img></td>
  </tr>
  <tr height=200>
    <td width=300><img src=""static/images/keys/z.svg"" width=""35%"" height=""75%""></img></td>
    <td width=300></td>
  </tr>
</table>
  ",90.0,,,,,,,,,,,,,,,,,,,,,,,,,1.0,,
155,0,,html-keyboard-response,155,662113,0.0-7.1-2.1,3f9w634i86y,2022-09-19 15:30:57.765,5c4ded8b818d4d00013e69c9,1,64,46,41,39,72,female,,,"
  <table>
  <tr height=300>
    <td width=300 height=300><img src=""static/images/cards/3_of_black_moons.svg"" width=""175px"" height=""250px""></img></td>
    <td width=300 height=300><img src=""static/images/cards/back_of_black_moons.svg"" width=""175px"" height=""250px""></img></td>
  </tr>
  <tr height=200>
    <td width=300><img src=""static/images/keys/z.svg"" width=""35%"" height=""75%""></img></td>
    <td width=300></td>
  </tr>
</table>
  ",,,,,,,,,,,,,,,,,,,,,,,,,,,,
156,0,,html-keyboard-response,156,663636,0.0-7.1-3.1,3f9w634i86y,2022-09-19 15:30:57.765,5c4ded8b818d4d00013e69c9,1,64,46,41,39,72,female,,,"<p style=""font-size:50px"">You Lose!
No points this round.</p>",,,,,,,,,,,,,,,,,,,,,,,,,,,,
157,0,,html-keyboard-response,157,664154,0.0-7.1-4.1,3f9w634i86y,2022-09-19 15:30:57.765,5c4ded8b818d4d00013e69c9,1,64,46,41,39,72,female,,,,,1.0,choice,1.0,B,D,black,black,moons,stars,B,D,B,black,moons,3058.5,0.0,1.0,1,left,1730.3999999911,3.0,0.0,0.0,,,,
158,0,,html-keyboard-response,158,666506,0.0-7.2-0.2,3f9w634i86y,2022-09-19 15:30:57.765,5c4ded8b818d4d00013e69c9,1,64,46,41,39,72,female,2347.5,,"
  <table>
  <tr height=300>
    <td width=300 height=300><img src=""static/images/cards/stack_of_red_bolts.svg"" width=""175px"" height=""250px""></img></td>
    <td width=300 height=300><img src=""static/images/cards/stack_of_red_moons.svg"" width=""175px"" height=""250px""></img></td>
  </tr>
  <tr height=200>
    <td width=300><img src=""static/images/keys/w.svg"" width=""35%"" height=""75%""></img></td>
    <td width=300><img src=""static/images/keys/o.svg"" width=""35%"" height=""75%""></img></td>
  </tr>
</table>
  ",79.0,,,,,,,,,,,,,,,,,,,,,,,,,1.0,,
159,0,,html-keyboard-response,159,669280,0.0-7.2-1.2,3f9w634i86y,2022-09-19 15:30:57.765,5c4ded8b818d4d00013e69c9,1,64,46,41,39,72,female,2271.700000003,,"
  <table>
  <tr height=300>
    <td width=300 height=300><img src=""static/images/cards/back_of_red_moons.svg"" width=""175px"" height=""250px""></img></td>
    <td width=300 height=300><img src=""static/images/cards/back_of_red_moons.svg"" width=""175px"" height=""250px""></img></td>
  </tr>
  <tr height=200>
    <td width=300><img src=""static/images/keys/z.svg"" width=""35%"" height=""75%""></img></td>
    <td width=300><img src=""static/images/keys/m.svg"" width=""35%"" height=""75%""></img></td>
  </tr>
</table>
  ",90.0,,,,,,,,,,,,,,,,,,,,,,,,,1.0,,
160,0,,html-keyboard-response,160,670795,0.0-7.2-2.2,3f9w634i86y,2022-09-19 15:30:57.765,5c4ded8b818d4d00013e69c9,1,64,46,41,39,72,female,,,"
  <table>
  <tr height=300>
    <td width=300 height=300><img src=""static/images/cards/6_of_red_moons.svg"" width=""175px"" height=""250px""></img></td>
    <td width=300 height=300><img src=""static/images/cards/back_of_red_moons.svg"" width=""175px"" height=""250px""></img></td>
  </tr>
  <tr height=200>
    <td width=300><img src=""static/images/keys/z.svg"" width=""35%"" height=""75%""></img></td>
    <td width=300><img src=""static/images/keys/m.svg"" width=""35%"" height=""75%""></img></td>
  </tr>
</table>
  ",,,,,,,,,,,,,,,,,,,,,,,,,,,,
161,0,,html-keyboard-response,161,672318,0.0-7.2-3.2,3f9w634i86y,2022-09-19 15:30:57.765,5c4ded8b818d4d00013e69c9,1,64,46,41,39,72,female,,,"<p style=""font-size:50px"">You win!
+10 points this round!</p>",,,,,,,,,,,,,,,,,,,,,,,,,,,,
162,0,,html-keyboard-response,162,672837,0.0-7.2-4.2,3f9w634i86y,2022-09-19 15:30:57.765,5c4ded8b818d4d00013e69c9,1,64,46,41,39,72,female,,,,,1.0,choice,2.0,A,Xc,red,red,bolts,moons,Xc,A,A,red,moons,2347.5,1.0,1.0,NA,left,2271.700000003,6.0,1.0,1.0,,,,
163,0,,html-keyboard-response,163,675220,0.0-7.3-0.3,3f9w634i86y,2022-09-19 15:30:57.765,5c4ded8b818d4d00013e69c9,1,64,46,41,39,72,female,2380.700000003,,"
  <table>
  <tr height=300>
    <td width=300 height=300><img src=""static/images/cards/stack_of_red_stars.svg"" width=""175px"" height=""250px""></img></td>
    <td width=300 height=300><img src=""static/images/cards/stack_of_red_moons.svg"" width=""175px"" height=""250px""></img></td>
  </tr>
  <tr height=200>
    <td width=300><img src=""static/images/keys/w.svg"" width=""35%"" height=""75%""></img></td>
    <td width=300><img src=""static/images/keys/o.svg"" width=""35%"" height=""75%""></img></td>
  </tr>
</table>
  ",87.0,,,,,,,,,,,,,,,,,,,,,,,,,1.0,,
164,0,,html-keyboard-response,164,677373,0.0-7.3-1.3,3f9w634i86y,2022-09-19 15:30:57.765,5c4ded8b818d4d00013e69c9,1,64,46,41,39,72,female,1638.0,,"
  <table>
  <tr height=300>
    <td width=300 height=300><img src=""static/images/cards/back_of_red_stars.svg"" width=""175px"" height=""250px""></img></td>
    <td width=300 height=300><img src=""static/images/cards/back_of_red_stars.svg"" width=""175px"" height=""250px""></img></td>
  </tr>
  <tr height=200>
    <td width=300><img src=""static/images/keys/z.svg"" width=""35%"" height=""75%""></img></td>
    <td width=300><img src=""static/images/keys/m.svg"" width=""35%"" height=""75%""></img></td>
  </tr>
</table>
  ",90.0,,,,,,,,,,,,,,,,,,,,,,,,,1.0,,
165,0,,html-keyboard-response,165,678892,0.0-7.3-2.3,3f9w634i86y,2022-09-19 15:30:57.765,5c4ded8b818d4d00013e69c9,1,64,46,41,39,72,female,,,"
  <table>
  <tr height=300>
    <td width=300 height=300><img src=""static/images/cards/6_of_red_stars.svg"" width=""175px"" height=""250px""></img></td>
    <td width=300 height=300><img src=""static/images/cards/back_of_red_stars.svg"" width=""175px"" height=""250px""></img></td>
  </tr>
  <tr height=200>
    <td width=300><img src=""static/images/keys/z.svg"" width=""35%"" height=""75%""></img></td>
    <td width=300><img src=""static/images/keys/m.svg"" width=""35%"" height=""75%""></img></td>
  </tr>
</table>
  ",,,,,,,,,,,,,,,,,,,,,,,,,,,,
166,0,,html-keyboard-response,166,680415,0.0-7.3-3.3,3f9w634i86y,2022-09-19 15:30:57.765,5c4ded8b818d4d00013e69c9,1,64,46,41,39,72,female,,,"<p style=""font-size:50px"">You Lose!
No points this round.</p>",,,,,,,,,,,,,,,,,,,,,,,,,,,,
167,0,,html-keyboard-response,167,680932,0.0-7.3-4.3,3f9w634i86y,2022-09-19 15:30:57.765,5c4ded8b818d4d00013e69c9,1,64,46,41,39,72,female,,,,,1.0,choice,3.0,A,C,red,red,stars,moons,C,A,C,red,stars,2380.700000003,1.0,0.0,NA,left,1638.0,6.0,1.0,0.0,,,,
168,0,,html-keyboard-response,168,682723,0.0-7.4-0.4,3f9w634i86y,2022-09-19 15:30:57.765,5c4ded8b818d4d00013e69c9,1,64,46,41,39,72,female,1786.900000006,,"
  <table>
  <tr height=300>
    <td width=300 height=300><img src=""static/images/cards/stack_of_black_moons.svg"" width=""175px"" height=""250px""></img></td>
    <td width=300 height=300><img src=""static/images/cards/stack_of_red_moons.svg"" width=""175px"" height=""250px""></img></td>
  </tr>
  <tr height=200>
    <td width=300><img src=""static/images/keys/w.svg"" width=""35%"" height=""75%""></img></td>
    <td width=300><img src=""static/images/keys/o.svg"" width=""35%"" height=""75%""></img></td>
  </tr>
</table>
  ",79.0,,,,,,,,,,,,,,,,,,,,,,,,,1.0,,
169,0,,html-keyboard-response,169,684763,0.0-7.4-1.4,3f9w634i86y,2022-09-19 15:30:57.765,5c4ded8b818d4d00013e69c9,1,64,46,41,39,72,female,1529.0,,"
  <table>
  <tr height=300>
    <td width=300 height=300><img src=""static/images/cards/back_of_red_moons.svg"" width=""175px"" height=""250px""></img></td>
    <td width=300 height=300><img src=""static/images/cards/back_of_red_moons.svg"" width=""175px"" height=""250px""></img></td>
  </tr>
  <tr height=200>
    <td width=300><img src=""static/images/keys/z.svg"" width=""35%"" height=""75%""></img></td>
    <td width=300><img src=""static/images/keys/m.svg"" width=""35%"" height=""75%""></img></td>
  </tr>
</table>
  ",77.0,,,,,,,,,,,,,,,,,,,,,,,,,1.0,,
170,0,,html-keyboard-response,170,686274,0.0-7.4-2.4,3f9w634i86y,2022-09-19 15:30:57.765,5c4ded8b818d4d00013e69c9,1,64,46,41,39,72,female,,,"
  <table>
  <tr height=300>
    <td width=300 height=300><img src=""static/images/cards/back_of_red_moons.svg"" width=""175px"" height=""250px""></img></td>
    <td width=300 height=300><img src=""static/images/cards/3_of_red_moons.svg"" width=""175px"" height=""250px""></img></td>
  </tr>
  <tr height=200>
    <td width=300><img src=""static/images/keys/z.svg"" width=""35%"" height=""75%""></img></td>
    <td width=300><img src=""static/images/keys/m.svg"" width=""35%"" height=""75%""></img></td>
  </tr>
</table>
  ",,,,,,,,,,,,,,,,,,,,,,,,,,,,
171,0,,html-keyboard-response,171,687796,0.0-7.4-3.4,3f9w634i86y,2022-09-19 15:30:57.765,5c4ded8b818d4d00013e69c9,1,64,46,41,39,72,female,,,"<p style=""font-size:50px"">You Lose!
No points this round.</p>",,,,,,,,,,,,,,,,,,,,,,,,,,,,
172,0,,html-keyboard-response,172,688316,0.0-7.4-4.4,3f9w634i86y,2022-09-19 15:30:57.765,5c4ded8b818d4d00013e69c9,1,64,46,41,39,72,female,,,,,1.0,choice,4.0,A,B,black,red,moons,moons,B,A,A,red,moons,1786.900000006,1.0,1.0,NA,right,1529.0,3.0,0.0,0.0,,,,
173,0,,html-keyboard-response,173,690685,0.0-7.5-0.5,3f9w634i86y,2022-09-19 15:30:57.765,5c4ded8b818d4d00013e69c9,1,64,46,41,39,72,female,2366.0,,"
  <table>
  <tr height=300>
    <td width=300 height=300><img src=""static/images/cards/stack_of_black_moons.svg"" width=""175px"" height=""250px""></img></td>
    <td width=300 height=300><img src=""static/images/cards/stack_of_red_moons.svg"" width=""175px"" height=""250px""></img></td>
  </tr>
  <tr height=200>
    <td width=300><img src=""static/images/keys/w.svg"" width=""35%"" height=""75%""></img></td>
    <td width=300><img src=""static/images/keys/o.svg"" width=""35%"" height=""75%""></img></td>
  </tr>
</table>
  ",87.0,,,,,,,,,,,,,,,,,,,,,,,,,1.0,,
174,0,,html-keyboard-response,174,692460,0.0-7.5-1.5,3f9w634i86y,2022-09-19 15:30:57.765,5c4ded8b818d4d00013e69c9,1,64,46,41,39,72,female,1256.599999994,,"
  <table>
  <tr height=300>
    <td width=300 height=300><img src=""static/images/cards/back_of_black_moons.svg"" width=""175px"" height=""250px""></img></td>
    <td width=300 height=300><img src=""static/images/cards/back_of_black_moons.svg"" width=""175px"" height=""250px""></img></td>
  </tr>
  <tr height=200>
    <td width=300><img src=""static/images/keys/z.svg"" width=""35%"" height=""75%""></img></td>
    <td width=300></td>
  </tr>
</table>
  ",90.0,,,,,,,,,,,,,,,,,,,,,,,,,1.0,,
175,0,,html-keyboard-response,175,693964,0.0-7.5-2.5,3f9w634i86y,2022-09-19 15:30:57.765,5c4ded8b818d4d00013e69c9,1,64,46,41,39,72,female,,,"
  <table>
  <tr height=300>
    <td width=300 height=300><img src=""static/images/cards/10_of_black_moons.svg"" width=""175px"" height=""250px""></img></td>
    <td width=300 height=300><img src=""static/images/cards/back_of_black_moons.svg"" width=""175px"" height=""250px""></img></td>
  </tr>
  <tr height=200>
    <td width=300><img src=""static/images/keys/z.svg"" width=""35%"" height=""75%""></img></td>
    <td width=300></td>
  </tr>
</table>
  ",,,,,,,,,,,,,,,,,,,,,,,,,,,,
176,0,,html-keyboard-response,176,695489,0.0-7.5-3.5,3f9w634i86y,2022-09-19 15:30:57.765,5c4ded8b818d4d00013e69c9,1,64,46,41,39,72,female,,,"<p style=""font-size:50px"">You win!
+10 points this round!</p>",,,,,,,,,,,,,,,,,,,,,,,,,,,,
177,0,,html-keyboard-response,177,696004,0.0-7.5-4.5,3f9w634i86y,2022-09-19 15:30:57.765,5c4ded8b818d4d00013e69c9,1,64,46,41,39,72,female,,,,,1.0,choice,5.0,A,B,black,red,moons,moons,B,A,B,black,moons,2366.0,0.0,1.0,1,left,1256.599999994,10.0,1.0,1.0,,,,
178,0,,html-keyboard-response,178,697709,0.0-7.6-0.6,3f9w634i86y,2022-09-19 15:30:57.765,5c4ded8b818d4d00013e69c9,1,64,46,41,39,72,female,1701.6000000089,,"
  <table>
  <tr height=300>
    <td width=300 height=300><img src=""static/images/cards/stack_of_red_stars.svg"" width=""175px"" height=""250px""></img></td>
    <td width=300 height=300><img src=""static/images/cards/stack_of_black_moons.svg"" width=""175px"" height=""250px""></img></td>
  </tr>
  <tr height=200>
    <td width=300><img src=""static/images/keys/w.svg"" width=""35%"" height=""75%""></img></td>
    <td width=300><img src=""static/images/keys/o.svg"" width=""35%"" height=""75%""></img></td>
  </tr>
</table>
  ",79.0,,,,,,,,,,,,,,,,,,,,,,,,,1.0,,
179,0,,html-keyboard-response,179,699514,0.0-7.6-1.6,3f9w634i86y,2022-09-19 15:30:57.765,5c4ded8b818d4d00013e69c9,1,64,46,41,39,72,female,1298.099999994,,"
  <table>
  <tr height=300>
    <td width=300 height=300><img src=""static/images/cards/back_of_black_moons.svg"" width=""175px"" height=""250px""></img></td>
    <td width=300 height=300><img src=""static/images/cards/back_of_black_moons.svg"" width=""175px"" height=""250px""></img></td>
  </tr>
  <tr height=200>
    <td width=300></td>
    <td width=300><img src=""static/images/keys/m.svg"" width=""35%"" height=""75%""></img></td>
  </tr>
</table>
  ",77.0,,,,,,,,,,,,,,,,,,,,,,,,,1.0,,
180,0,,html-keyboard-response,180,701029,0.0-7.6-2.6,3f9w634i86y,2022-09-19 15:30:57.765,5c4ded8b818d4d00013e69c9,1,64,46,41,39,72,female,,,"
  <table>
  <tr height=300>
    <td width=300 height=300><img src=""static/images/cards/back_of_black_moons.svg"" width=""175px"" height=""250px""></img></td>
    <td width=300 height=300><img src=""static/images/cards/2_of_black_moons.svg"" width=""175px"" height=""250px""></img></td>
  </tr>
  <tr height=200>
    <td width=300></td>
    <td width=300><img src=""static/images/keys/m.svg"" width=""35%"" height=""75%""></img></td>
  </tr>
</table>
  ",,,,,,,,,,,,,,,,,,,,,,,,,,,,
181,0,,html-keyboard-response,181,702555,0.0-7.6-3.6,3f9w634i86y,2022-09-19 15:30:57.765,5c4ded8b818d4d00013e69c9,1,64,46,41,39,72,female,,,"<p style=""font-size:50px"">You Lose!
No points this round.</p>",,,,,,,,,,,,,,,,,,,,,,,,,,,,
182,0,,html-keyboard-response,182,703074,0.0-7.6-4.6,3f9w634i86y,2022-09-19 15:30:57.765,5c4ded8b818d4d00013e69c9,1,64,46,41,39,72,female,,,,,1.0,choice,6.0,B,C,red,black,stars,moons,C,B,B,black,moons,1701.6000000089,0.0,1.0,0,right,1298.099999994,2.0,0.0,0.0,,,,
183,0,,html-keyboard-response,183,705706,0.0-7.7-0.7,3f9w634i86y,2022-09-19 15:30:57.765,5c4ded8b818d4d00013e69c9,1,64,46,41,39,72,female,2627.099999994,,"
  <table>
  <tr height=300>
    <td width=300 height=300><img src=""static/images/cards/stack_of_black_stars.svg"" width=""175px"" height=""250px""></img></td>
    <td width=300 height=300><img src=""static/images/cards/stack_of_black_moons.svg"" width=""175px"" height=""250px""></img></td>
  </tr>
  <tr height=200>
    <td width=300><img src=""static/images/keys/w.svg"" width=""35%"" height=""75%""></img></td>
    <td width=300><img src=""static/images/keys/o.svg"" width=""35%"" height=""75%""></img></td>
  </tr>
</table>
  ",79.0,,,,,,,,,,,,,,,,,,,,,,,,,1.0,,
184,0,,html-keyboard-response,184,707681,0.0-7.7-1.7,3f9w634i86y,2022-09-19 15:30:57.765,5c4ded8b818d4d00013e69c9,1,64,46,41,39,72,female,1467.1000000089,,"
  <table>
  <tr height=300>
    <td width=300 height=300><img src=""static/images/cards/back_of_black_moons.svg"" width=""175px"" height=""250px""></img></td>
    <td width=300 height=300><img src=""static/images/cards/back_of_black_moons.svg"" width=""175px"" height=""250px""></img></td>
  </tr>
  <tr height=200>
    <td width=300><img src=""static/images/keys/z.svg"" width=""35%"" height=""75%""></img></td>
    <td width=300></td>
  </tr>
</table>
  ",90.0,,,,,,,,,,,,,,,,,,,,,,,,,1.0,,
185,0,,html-keyboard-response,185,709194,0.0-7.7-2.7,3f9w634i86y,2022-09-19 15:30:57.765,5c4ded8b818d4d00013e69c9,1,64,46,41,39,72,female,,,"
  <table>
  <tr height=300>
    <td width=300 height=300><img src=""static/images/cards/8_of_black_moons.svg"" width=""175px"" height=""250px""></img></td>
    <td width=300 height=300><img src=""static/images/cards/back_of_black_moons.svg"" width=""175px"" height=""250px""></img></td>
  </tr>
  <tr height=200>
    <td width=300><img src=""static/images/keys/z.svg"" width=""35%"" height=""75%""></img></td>
    <td width=300></td>
  </tr>
</table>
  ",,,,,,,,,,,,,,,,,,,,,,,,,,,,
186,0,,html-keyboard-response,186,710714,0.0-7.7-3.7,3f9w634i86y,2022-09-19 15:30:57.765,5c4ded8b818d4d00013e69c9,1,64,46,41,39,72,female,,,"<p style=""font-size:50px"">You win!
+10 points this round!</p>",,,,,,,,,,,,,,,,,,,,,,,,,,,,
187,0,,html-keyboard-response,187,711235,0.0-7.7-4.7,3f9w634i86y,2022-09-19 15:30:57.765,5c4ded8b818d4d00013e69c9,1,64,46,41,39,72,female,,,,,1.0,choice,7.0,B,D,black,black,stars,moons,D,B,B,black,moons,2627.099999994,0.0,1.0,1,left,1467.1000000089,8.0,1.0,1.0,,,,
188,0,,html-keyboard-response,188,713410,0.0-7.8-0.8,3f9w634i86y,2022-09-19 15:30:57.765,5c4ded8b818d4d00013e69c9,1,64,46,41,39,72,female,2171.200000003,,"
  <table>
  <tr height=300>
    <td width=300 height=300><img src=""static/images/cards/stack_of_red_stars.svg"" width=""175px"" height=""250px""></img></td>
    <td width=300 height=300><img src=""static/images/cards/stack_of_black_stars.svg"" width=""175px"" height=""250px""></img></td>
  </tr>
  <tr height=200>
    <td width=300><img src=""static/images/keys/w.svg"" width=""35%"" height=""75%""></img></td>
    <td width=300><img src=""static/images/keys/o.svg"" width=""35%"" height=""75%""></img></td>
  </tr>
</table>
  ",87.0,,,,,,,,,,,,,,,,,,,,,,,,,1.0,,
189,0,,html-keyboard-response,189,715009,0.0-7.8-1.8,3f9w634i86y,2022-09-19 15:30:57.765,5c4ded8b818d4d00013e69c9,1,64,46,41,39,72,female,1088.700000003,,"
  <table>
  <tr height=300>
    <td width=300 height=300><img src=""static/images/cards/back_of_red_stars.svg"" width=""175px"" height=""250px""></img></td>
    <td width=300 height=300><img src=""static/images/cards/back_of_red_stars.svg"" width=""175px"" height=""250px""></img></td>
  </tr>
  <tr height=200>
    <td width=300><img src=""static/images/keys/z.svg"" width=""35%"" height=""75%""></img></td>
    <td width=300><img src=""static/images/keys/m.svg"" width=""35%"" height=""75%""></img></td>
  </tr>
</table>
  ",90.0,,,,,,,,,,,,,,,,,,,,,,,,,1.0,,
190,0,,html-keyboard-response,190,716526,0.0-7.8-2.8,3f9w634i86y,2022-09-19 15:30:57.765,5c4ded8b818d4d00013e69c9,1,64,46,41,39,72,female,,,"
  <table>
  <tr height=300>
    <td width=300 height=300><img src=""static/images/cards/6_of_red_stars.svg"" width=""175px"" height=""250px""></img></td>
    <td width=300 height=300><img src=""static/images/cards/back_of_red_stars.svg"" width=""175px"" height=""250px""></img></td>
  </tr>
  <tr height=200>
    <td width=300><img src=""static/images/keys/z.svg"" width=""35%"" height=""75%""></img></td>
    <td width=300><img src=""static/images/keys/m.svg"" width=""35%"" height=""75%""></img></td>
  </tr>
</table>
  ",,,,,,,,,,,,,,,,,,,,,,,,,,,,
191,0,,html-keyboard-response,191,718051,0.0-7.8-3.8,3f9w634i86y,2022-09-19 15:30:57.765,5c4ded8b818d4d00013e69c9,1,64,46,41,39,72,female,,,"<p style=""font-size:50px"">You Lose!
No points this round.</p>",,,,,,,,,,,,,,,,,,,,,,,,,,,,
192,0,,html-keyboard-response,192,718567,0.0-7.8-4.8,3f9w634i86y,2022-09-19 15:30:57.765,5c4ded8b818d4d00013e69c9,1,64,46,41,39,72,female,,,,,1.0,choice,8.0,C,D,red,black,stars,stars,C,D,C,red,stars,2171.200000003,1.0,0.0,NA,left,1088.700000003,6.0,1.0,0.0,,,,
193,0,,html-keyboard-response,193,720885,0.0-7.9-0.9,3f9w634i86y,2022-09-19 15:30:57.765,5c4ded8b818d4d00013e69c9,1,64,46,41,39,72,female,2313.599999994,,"
  <table>
  <tr height=300>
    <td width=300 height=300><img src=""static/images/cards/stack_of_black_stars.svg"" width=""175px"" height=""250px""></img></td>
    <td width=300 height=300><img src=""static/images/cards/stack_of_red_stars.svg"" width=""175px"" height=""250px""></img></td>
  </tr>
  <tr height=200>
    <td width=300><img src=""static/images/keys/w.svg"" width=""35%"" height=""75%""></img></td>
    <td width=300><img src=""static/images/keys/o.svg"" width=""35%"" height=""75%""></img></td>
  </tr>
</table>
  ",79.0,,,,,,,,,,,,,,,,,,,,,,,,,1.0,,
194,0,,html-keyboard-response,194,722766,0.0-7.9-1.9,3f9w634i86y,2022-09-19 15:30:57.765,5c4ded8b818d4d00013e69c9,1,64,46,41,39,72,female,1362.400000006,,"
  <table>
  <tr height=300>
    <td width=300 height=300><img src=""static/images/cards/back_of_red_stars.svg"" width=""175px"" height=""250px""></img></td>
    <td width=300 height=300><img src=""static/images/cards/back_of_red_stars.svg"" width=""175px"" height=""250px""></img></td>
  </tr>
  <tr height=200>
    <td width=300><img src=""static/images/keys/z.svg"" width=""35%"" height=""75%""></img></td>
    <td width=300><img src=""static/images/keys/m.svg"" width=""35%"" height=""75%""></img></td>
  </tr>
</table>
  ",77.0,,,,,,,,,,,,,,,,,,,,,,,,,1.0,,
195,0,,html-keyboard-response,195,724284,0.0-7.9-2.9,3f9w634i86y,2022-09-19 15:30:57.765,5c4ded8b818d4d00013e69c9,1,64,46,41,39,72,female,,,"
  <table>
  <tr height=300>
    <td width=300 height=300><img src=""static/images/cards/back_of_red_stars.svg"" width=""175px"" height=""250px""></img></td>
    <td width=300 height=300><img src=""static/images/cards/3_of_red_stars.svg"" width=""175px"" height=""250px""></img></td>
  </tr>
  <tr height=200>
    <td width=300><img src=""static/images/keys/z.svg"" width=""35%"" height=""75%""></img></td>
    <td width=300><img src=""static/images/keys/m.svg"" width=""35%"" height=""75%""></img></td>
  </tr>
</table>
  ",,,,,,,,,,,,,,,,,,,,,,,,,,,,
196,0,,html-keyboard-response,196,725796,0.0-7.9-3.9,3f9w634i86y,2022-09-19 15:30:57.765,5c4ded8b818d4d00013e69c9,1,64,46,41,39,72,female,,,"<p style=""font-size:50px"">You win!
+10 points this round!</p>",,,,,,,,,,,,,,,,,,,,,,,,,,,,
197,0,,html-keyboard-response,197,726315,0.0-7.9-4.9,3f9w634i86y,2022-09-19 15:30:57.765,5c4ded8b818d4d00013e69c9,1,64,46,41,39,72,female,,,,,1.0,choice,9.0,C,D,black,red,stars,stars,D,C,C,red,stars,2313.599999994,1.0,0.0,NA,right,1362.400000006,3.0,0.0,1.0,,,,
198,0,,html-keyboard-response,198,729188,0.0-7.10-0.10,3f9w634i86y,2022-09-19 15:30:57.765,5c4ded8b818d4d00013e69c9,1,64,46,41,39,72,female,2870.799999997,,"
  <table>
  <tr height=300>
    <td width=300 height=300><img src=""static/images/cards/stack_of_black_stars.svg"" width=""175px"" height=""250px""></img></td>
    <td width=300 height=300><img src=""static/images/cards/stack_of_red_moons.svg"" width=""175px"" height=""250px""></img></td>
  </tr>
  <tr height=200>
    <td width=300><img src=""static/images/keys/w.svg"" width=""35%"" height=""75%""></img></td>
    <td width=300><img src=""static/images/keys/o.svg"" width=""35%"" height=""75%""></img></td>
  </tr>
</table>
  ",87.0,,,,,,,,,,,,,,,,,,,,,,,,,1.0,,
199,0,,html-keyboard-response,199,731140,0.0-7.10-1.10,3f9w634i86y,2022-09-19 15:30:57.765,5c4ded8b818d4d00013e69c9,1,64,46,41,39,72,female,1446.599999994,,"
  <table>
  <tr height=300>
    <td width=300 height=300><img src=""static/images/cards/back_of_black_stars.svg"" width=""175px"" height=""250px""></img></td>
    <td width=300 height=300><img src=""static/images/cards/back_of_black_stars.svg"" width=""175px"" height=""250px""></img></td>
  </tr>
  <tr height=200>
    <td width=300><img src=""static/images/keys/z.svg"" width=""35%"" height=""75%""></img></td>
    <td width=300></td>
  </tr>
</table>
  ",90.0,,,,,,,,,,,,,,,,,,,,,,,,,1.0,,
200,0,,html-keyboard-response,200,732658,0.0-7.10-2.10,3f9w634i86y,2022-09-19 15:30:57.765,5c4ded8b818d4d00013e69c9,1,64,46,41,39,72,female,,,"
  <table>
  <tr height=300>
    <td width=300 height=300><img src=""static/images/cards/1_of_black_stars.svg"" width=""175px"" height=""250px""></img></td>
    <td width=300 height=300><img src=""static/images/cards/back_of_black_stars.svg"" width=""175px"" height=""250px""></img></td>
  </tr>
  <tr height=200>
    <td width=300><img src=""static/images/keys/z.svg"" width=""35%"" height=""75%""></img></td>
    <td width=300></td>
  </tr>
</table>
  ",,,,,,,,,,,,,,,,,,,,,,,,,,,,
201,0,,html-keyboard-response,201,734183,0.0-7.10-3.10,3f9w634i86y,2022-09-19 15:30:57.765,5c4ded8b818d4d00013e69c9,1,64,46,41,39,72,female,,,"<p style=""font-size:50px"">You win!
+10 points this round!</p>",,,,,,,,,,,,,,,,,,,,,,,,,,,,
202,0,,html-keyboard-response,202,734704,0.0-7.10-4.10,3f9w634i86y,2022-09-19 15:30:57.765,5c4ded8b818d4d00013e69c9,1,64,46,41,39,72,female,,,,,1.0,choice,10.0,A,D,black,red,stars,moons,D,A,D,black,stars,2870.799999997,0.0,0.0,1,left,1446.599999994,1.0,0.0,1.0,,,,
203,0,,html-keyboard-response,203,736613,0.0-7.11-0.11,3f9w634i86y,2022-09-19 15:30:57.765,5c4ded8b818d4d00013e69c9,1,64,46,41,39,72,female,1904.6999999881,,"
  <table>
  <tr height=300>
    <td width=300 height=300><img src=""static/images/cards/stack_of_red_bolts.svg"" width=""175px"" height=""250px""></img></td>
    <td width=300 height=300><img src=""static/images/cards/stack_of_black_stars.svg"" width=""175px"" height=""250px""></img></td>
  </tr>
  <tr height=200>
    <td width=300><img src=""static/images/keys/w.svg"" width=""35%"" height=""75%""></img></td>
    <td width=300><img src=""static/images/keys/o.svg"" width=""35%"" height=""75%""></img></td>
  </tr>
</table>
  ",87.0,,,,,,,,,,,,,,,,,,,,,,,,,1.0,,
204,0,,html-keyboard-response,204,739150,0.0-7.11-1.11,3f9w634i86y,2022-09-19 15:30:57.765,5c4ded8b818d4d00013e69c9,1,64,46,41,39,72,female,2014.799999997,,"
  <table>
  <tr height=300>
    <td width=300 height=300><img src=""static/images/cards/back_of_red_bolts.svg"" width=""175px"" height=""250px""></img></td>
    <td width=300 height=300><img src=""static/images/cards/back_of_red_bolts.svg"" width=""175px"" height=""250px""></img></td>
  </tr>
  <tr height=200>
    <td width=300><img src=""static/images/keys/z.svg"" width=""35%"" height=""75%""></img></td>
    <td width=300><img src=""static/images/keys/m.svg"" width=""35%"" height=""75%""></img></td>
  </tr>
</table>
  ",90.0,,,,,,,,,,,,,,,,,,,,,,,,,1.0,,
205,0,,html-keyboard-response,205,740661,0.0-7.11-2.11,3f9w634i86y,2022-09-19 15:30:57.765,5c4ded8b818d4d00013e69c9,1,64,46,41,39,72,female,,,"
  <table>
  <tr height=300>
    <td width=300 height=300><img src=""static/images/cards/2_of_red_bolts.svg"" width=""175px"" height=""250px""></img></td>
    <td width=300 height=300><img src=""static/images/cards/back_of_red_bolts.svg"" width=""175px"" height=""250px""></img></td>
  </tr>
  <tr height=200>
    <td width=300><img src=""static/images/keys/z.svg"" width=""35%"" height=""75%""></img></td>
    <td width=300><img src=""static/images/keys/m.svg"" width=""35%"" height=""75%""></img></td>
  </tr>
</table>
  ",,,,,,,,,,,,,,,,,,,,,,,,,,,,
206,0,,html-keyboard-response,206,742183,0.0-7.11-3.11,3f9w634i86y,2022-09-19 15:30:57.765,5c4ded8b818d4d00013e69c9,1,64,46,41,39,72,female,,,"<p style=""font-size:50px"">You win!
+10 points this round!</p>",,,,,,,,,,,,,,,,,,,,,,,,,,,,
207,0,,html-keyboard-response,207,742700,0.0-7.11-4.11,3f9w634i86y,2022-09-19 15:30:57.765,5c4ded8b818d4d00013e69c9,1,64,46,41,39,72,female,,,,,1.0,choice,11.0,D,Xc,red,black,bolts,stars,Xc,D,Xc,red,bolts,1904.6999999881,1.0,0.0,NA,left,2014.799999997,2.0,0.0,1.0,,,,
208,0,,html-keyboard-response,208,744537,0.0-7.12-0.12,3f9w634i86y,2022-09-19 15:30:57.765,5c4ded8b818d4d00013e69c9,1,64,46,41,39,72,female,1831.900000006,,"
  <table>
  <tr height=300>
    <td width=300 height=300><img src=""static/images/cards/stack_of_black_stars.svg"" width=""175px"" height=""250px""></img></td>
    <td width=300 height=300><img src=""static/images/cards/stack_of_black_moons.svg"" width=""175px"" height=""250px""></img></td>
  </tr>
  <tr height=200>
    <td width=300><img src=""static/images/keys/w.svg"" width=""35%"" height=""75%""></img></td>
    <td width=300><img src=""static/images/keys/o.svg"" width=""35%"" height=""75%""></img></td>
  </tr>
</table>
  ",87.0,,,,,,,,,,,,,,,,,,,,,,,,,1.0,,
209,0,,html-keyboard-response,209,746053,0.0-7.12-1.12,3f9w634i86y,2022-09-19 15:30:57.765,5c4ded8b818d4d00013e69c9,1,64,46,41,39,72,female,1011.200000003,,"
  <table>
  <tr height=300>
    <td width=300 height=300><img src=""static/images/cards/back_of_black_stars.svg"" width=""175px"" height=""250px""></img></td>
    <td width=300 height=300><img src=""static/images/cards/back_of_black_stars.svg"" width=""175px"" height=""250px""></img></td>
  </tr>
  <tr height=200>
    <td width=300></td>
    <td width=300><img src=""static/images/keys/m.svg"" width=""35%"" height=""75%""></img></td>
  </tr>
</table>
  ",77.0,,,,,,,,,,,,,,,,,,,,,,,,,1.0,,
210,0,,html-keyboard-response,210,747570,0.0-7.12-2.12,3f9w634i86y,2022-09-19 15:30:57.765,5c4ded8b818d4d00013e69c9,1,64,46,41,39,72,female,,,"
  <table>
  <tr height=300>
    <td width=300 height=300><img src=""static/images/cards/back_of_black_stars.svg"" width=""175px"" height=""250px""></img></td>
    <td width=300 height=300><img src=""static/images/cards/2_of_black_stars.svg"" width=""175px"" height=""250px""></img></td>
  </tr>
  <tr height=200>
    <td width=300></td>
    <td width=300><img src=""static/images/keys/m.svg"" width=""35%"" height=""75%""></img></td>
  </tr>
</table>
  ",,,,,,,,,,,,,,,,,,,,,,,,,,,,
211,0,,html-keyboard-response,211,749095,0.0-7.12-3.12,3f9w634i86y,2022-09-19 15:30:57.765,5c4ded8b818d4d00013e69c9,1,64,46,41,39,72,female,,,"<p style=""font-size:50px"">You win!
+10 points this round!</p>",,,,,,,,,,,,,,,,,,,,,,,,,,,,
212,0,,html-keyboard-response,212,749612,0.0-7.12-4.12,3f9w634i86y,2022-09-19 15:30:57.765,5c4ded8b818d4d00013e69c9,1,64,46,41,39,72,female,,,,,1.0,choice,12.0,B,D,black,black,stars,moons,D,B,D,black,stars,1831.900000006,0.0,0.0,0,right,1011.200000003,2.0,0.0,1.0,,,,
213,0,,html-keyboard-response,213,750750,0.0-7.13-0.13,3f9w634i86y,2022-09-19 15:30:57.765,5c4ded8b818d4d00013e69c9,1,64,46,41,39,72,female,1132.1000000089,,"
  <table>
  <tr height=300>
    <td width=300 height=300><img src=""static/images/cards/stack_of_red_moons.svg"" width=""175px"" height=""250px""></img></td>
    <td width=300 height=300><img src=""static/images/cards/stack_of_black_stars.svg"" width=""175px"" height=""250px""></img></td>
  </tr>
  <tr height=200>
    <td width=300><img src=""static/images/keys/w.svg"" width=""35%"" height=""75%""></img></td>
    <td width=300><img src=""static/images/keys/o.svg"" width=""35%"" height=""75%""></img></td>
  </tr>
</table>
  ",87.0,,,,,,,,,,,,,,,,,,,,,,,,,1.0,,
214,0,,html-keyboard-response,214,752376,0.0-7.13-1.13,3f9w634i86y,2022-09-19 15:30:57.765,5c4ded8b818d4d00013e69c9,1,64,46,41,39,72,female,1111.5,,"
  <table>
  <tr height=300>
    <td width=300 height=300><img src=""static/images/cards/back_of_red_moons.svg"" width=""175px"" height=""250px""></img></td>
    <td width=300 height=300><img src=""static/images/cards/back_of_red_moons.svg"" width=""175px"" height=""250px""></img></td>
  </tr>
  <tr height=200>
    <td width=300><img src=""static/images/keys/z.svg"" width=""35%"" height=""75%""></img></td>
    <td width=300><img src=""static/images/keys/m.svg"" width=""35%"" height=""75%""></img></td>
  </tr>
</table>
  ",90.0,,,,,,,,,,,,,,,,,,,,,,,,,1.0,,
215,0,,html-keyboard-response,215,753892,0.0-7.13-2.13,3f9w634i86y,2022-09-19 15:30:57.765,5c4ded8b818d4d00013e69c9,1,64,46,41,39,72,female,,,"
  <table>
  <tr height=300>
    <td width=300 height=300><img src=""static/images/cards/10_of_red_moons.svg"" width=""175px"" height=""250px""></img></td>
    <td width=300 height=300><img src=""static/images/cards/back_of_red_moons.svg"" width=""175px"" height=""250px""></img></td>
  </tr>
  <tr height=200>
    <td width=300><img src=""static/images/keys/z.svg"" width=""35%"" height=""75%""></img></td>
    <td width=300><img src=""static/images/keys/m.svg"" width=""35%"" height=""75%""></img></td>
  </tr>
</table>
  ",,,,,,,,,,,,,,,,,,,,,,,,,,,,
216,0,,html-keyboard-response,216,755413,0.0-7.13-3.13,3f9w634i86y,2022-09-19 15:30:57.765,5c4ded8b818d4d00013e69c9,1,64,46,41,39,72,female,,,"<p style=""font-size:50px"">You win!
+10 points this round!</p>",,,,,,,,,,,,,,,,,,,,,,,,,,,,
217,0,,html-keyboard-response,217,755929,0.0-7.13-4.13,3f9w634i86y,2022-09-19 15:30:57.765,5c4ded8b818d4d00013e69c9,1,64,46,41,39,72,female,,,,,1.0,choice,13.0,A,D,red,black,moons,stars,A,D,A,red,moons,1132.1000000089,1.0,1.0,NA,left,1111.5,10.0,1.0,1.0,,,,
218,0,,html-keyboard-response,218,757767,0.0-7.14-0.14,3f9w634i86y,2022-09-19 15:30:57.765,5c4ded8b818d4d00013e69c9,1,64,46,41,39,72,female,1835.3999999911,,"
  <table>
  <tr height=300>
    <td width=300 height=300><img src=""static/images/cards/stack_of_black_moons.svg"" width=""175px"" height=""250px""></img></td>
    <td width=300 height=300><img src=""static/images/cards/stack_of_red_stars.svg"" width=""175px"" height=""250px""></img></td>
  </tr>
  <tr height=200>
    <td width=300><img src=""static/images/keys/w.svg"" width=""35%"" height=""75%""></img></td>
    <td width=300><img src=""static/images/keys/o.svg"" width=""35%"" height=""75%""></img></td>
  </tr>
</table>
  ",79.0,,,,,,,,,,,,,,,,,,,,,,,,,1.0,,
219,0,,html-keyboard-response,219,759457,0.0-7.14-1.14,3f9w634i86y,2022-09-19 15:30:57.765,5c4ded8b818d4d00013e69c9,1,64,46,41,39,72,female,1181.799999997,,"
  <table>
  <tr height=300>
    <td width=300 height=300><img src=""static/images/cards/back_of_red_stars.svg"" width=""175px"" height=""250px""></img></td>
    <td width=300 height=300><img src=""static/images/cards/back_of_red_stars.svg"" width=""175px"" height=""250px""></img></td>
  </tr>
  <tr height=200>
    <td width=300><img src=""static/images/keys/z.svg"" width=""35%"" height=""75%""></img></td>
    <td width=300><img src=""static/images/keys/m.svg"" width=""35%"" height=""75%""></img></td>
  </tr>
</table>
  ",90.0,,,,,,,,,,,,,,,,,,,,,,,,,1.0,,
220,0,,html-keyboard-response,220,760976,0.0-7.14-2.14,3f9w634i86y,2022-09-19 15:30:57.765,5c4ded8b818d4d00013e69c9,1,64,46,41,39,72,female,,,"
  <table>
  <tr height=300>
    <td width=300 height=300><img src=""static/images/cards/8_of_red_stars.svg"" width=""175px"" height=""250px""></img></td>
    <td width=300 height=300><img src=""static/images/cards/back_of_red_stars.svg"" width=""175px"" height=""250px""></img></td>
  </tr>
  <tr height=200>
    <td width=300><img src=""static/images/keys/z.svg"" width=""35%"" height=""75%""></img></td>
    <td width=300><img src=""static/images/keys/m.svg"" width=""35%"" height=""75%""></img></td>
  </tr>
</table>
  ",,,,,,,,,,,,,,,,,,,,,,,,,,,,
221,0,,html-keyboard-response,221,762503,0.0-7.14-3.14,3f9w634i86y,2022-09-19 15:30:57.765,5c4ded8b818d4d00013e69c9,1,64,46,41,39,72,female,,,"<p style=""font-size:50px"">You win!
+10 points this round!</p>",,,,,,,,,,,,,,,,,,,,,,,,,,,,
222,0,,html-keyboard-response,222,763016,0.0-7.14-4.14,3f9w634i86y,2022-09-19 15:30:57.765,5c4ded8b818d4d00013e69c9,1,64,46,41,39,72,female,,,,,1.0,choice,14.0,B,C,black,red,moons,stars,B,C,C,red,stars,1835.3999999911,1.0,0.0,NA,left,1181.799999997,8.0,1.0,1.0,,,,
223,0,,html-keyboard-response,223,764343,0.0-7.15-0.15,3f9w634i86y,2022-09-19 15:30:57.765,5c4ded8b818d4d00013e69c9,1,64,46,41,39,72,female,1323.3000000119,,"
  <table>
  <tr height=300>
    <td width=300 height=300><img src=""static/images/cards/stack_of_red_stars.svg"" width=""175px"" height=""250px""></img></td>
    <td width=300 height=300><img src=""static/images/cards/stack_of_black_stars.svg"" width=""175px"" height=""250px""></img></td>
  </tr>
  <tr height=200>
    <td width=300><img src=""static/images/keys/w.svg"" width=""35%"" height=""75%""></img></td>
    <td width=300><img src=""static/images/keys/o.svg"" width=""35%"" height=""75%""></img></td>
  </tr>
</table>
  ",79.0,,,,,,,,,,,,,,,,,,,,,,,,,1.0,,
224,0,,html-keyboard-response,224,766117,0.0-7.15-1.15,3f9w634i86y,2022-09-19 15:30:57.765,5c4ded8b818d4d00013e69c9,1,64,46,41,39,72,female,1256.099999994,,"
  <table>
  <tr height=300>
    <td width=300 height=300><img src=""static/images/cards/back_of_black_stars.svg"" width=""175px"" height=""250px""></img></td>
    <td width=300 height=300><img src=""static/images/cards/back_of_black_stars.svg"" width=""175px"" height=""250px""></img></td>
  </tr>
  <tr height=200>
    <td width=300></td>
    <td width=300><img src=""static/images/keys/m.svg"" width=""35%"" height=""75%""></img></td>
  </tr>
</table>
  ",77.0,,,,,,,,,,,,,,,,,,,,,,,,,1.0,,
225,0,,html-keyboard-response,225,767625,0.0-7.15-2.15,3f9w634i86y,2022-09-19 15:30:57.765,5c4ded8b818d4d00013e69c9,1,64,46,41,39,72,female,,,"
  <table>
  <tr height=300>
    <td width=300 height=300><img src=""static/images/cards/back_of_black_stars.svg"" width=""175px"" height=""250px""></img></td>
    <td width=300 height=300><img src=""static/images/cards/3_of_black_stars.svg"" width=""175px"" height=""250px""></img></td>
  </tr>
  <tr height=200>
    <td width=300></td>
    <td width=300><img src=""static/images/keys/m.svg"" width=""35%"" height=""75%""></img></td>
  </tr>
</table>
  ",,,,,,,,,,,,,,,,,,,,,,,,,,,,
226,0,,html-keyboard-response,226,769148,0.0-7.15-3.15,3f9w634i86y,2022-09-19 15:30:57.765,5c4ded8b818d4d00013e69c9,1,64,46,41,39,72,female,,,"<p style=""font-size:50px"">You win!
+10 points this round!</p>",,,,,,,,,,,,,,,,,,,,,,,,,,,,
227,0,,html-keyboard-response,227,769663,0.0-7.15-4.15,3f9w634i86y,2022-09-19 15:30:57.765,5c4ded8b818d4d00013e69c9,1,64,46,41,39,72,female,,,,,1.0,choice,15.0,C,D,red,black,stars,stars,C,D,D,black,stars,1323.3000000119,0.0,0.0,0,right,1256.099999994,3.0,0.0,1.0,,,,
228,0,,html-keyboard-response,228,770875,0.0-7.16-0.16,3f9w634i86y,2022-09-19 15:30:57.765,5c4ded8b818d4d00013e69c9,1,64,46,41,39,72,female,1206.6000000089,,"
  <table>
  <tr height=300>
    <td width=300 height=300><img src=""static/images/cards/stack_of_red_moons.svg"" width=""175px"" height=""250px""></img></td>
    <td width=300 height=300><img src=""static/images/cards/stack_of_black_stars.svg"" width=""175px"" height=""250px""></img></td>
  </tr>
  <tr height=200>
    <td width=300><img src=""static/images/keys/w.svg"" width=""35%"" height=""75%""></img></td>
    <td width=300><img src=""static/images/keys/o.svg"" width=""35%"" height=""75%""></img></td>
  </tr>
</table>
  ",87.0,,,,,,,,,,,,,,,,,,,,,,,,,1.0,,
229,0,,html-keyboard-response,229,772537,0.0-7.16-1.16,3f9w634i86y,2022-09-19 15:30:57.765,5c4ded8b818d4d00013e69c9,1,64,46,41,39,72,female,1156.0,,"
  <table>
  <tr height=300>
    <td width=300 height=300><img src=""static/images/cards/back_of_red_moons.svg"" width=""175px"" height=""250px""></img></td>
    <td width=300 height=300><img src=""static/images/cards/back_of_red_moons.svg"" width=""175px"" height=""250px""></img></td>
  </tr>
  <tr height=200>
    <td width=300><img src=""static/images/keys/z.svg"" width=""35%"" height=""75%""></img></td>
    <td width=300><img src=""static/images/keys/m.svg"" width=""35%"" height=""75%""></img></td>
  </tr>
</table>
  ",90.0,,,,,,,,,,,,,,,,,,,,,,,,,1.0,,
230,0,,html-keyboard-response,230,774042,0.0-7.16-2.16,3f9w634i86y,2022-09-19 15:30:57.765,5c4ded8b818d4d00013e69c9,1,64,46,41,39,72,female,,,"
  <table>
  <tr height=300>
    <td width=300 height=300><img src=""static/images/cards/10_of_red_moons.svg"" width=""175px"" height=""250px""></img></td>
    <td width=300 height=300><img src=""static/images/cards/back_of_red_moons.svg"" width=""175px"" height=""250px""></img></td>
  </tr>
  <tr height=200>
    <td width=300><img src=""static/images/keys/z.svg"" width=""35%"" height=""75%""></img></td>
    <td width=300><img src=""static/images/keys/m.svg"" width=""35%"" height=""75%""></img></td>
  </tr>
</table>
  ",,,,,,,,,,,,,,,,,,,,,,,,,,,,
231,0,,html-keyboard-response,231,775564,0.0-7.16-3.16,3f9w634i86y,2022-09-19 15:30:57.765,5c4ded8b818d4d00013e69c9,1,64,46,41,39,72,female,,,"<p style=""font-size:50px"">You win!
+10 points this round!</p>",,,,,,,,,,,,,,,,,,,,,,,,,,,,
232,0,,html-keyboard-response,232,776084,0.0-7.16-4.16,3f9w634i86y,2022-09-19 15:30:57.765,5c4ded8b818d4d00013e69c9,1,64,46,41,39,72,female,,,,,1.0,choice,16.0,A,D,red,black,moons,stars,A,D,A,red,moons,1206.6000000089,1.0,1.0,NA,left,1156.0,10.0,1.0,1.0,,,,
233,0,,html-keyboard-response,233,777133,0.0-7.17-0.17,3f9w634i86y,2022-09-19 15:30:57.765,5c4ded8b818d4d00013e69c9,1,64,46,41,39,72,female,1046.200000003,,"
  <table>
  <tr height=300>
    <td width=300 height=300><img src=""static/images/cards/stack_of_black_moons.svg"" width=""175px"" height=""250px""></img></td>
    <td width=300 height=300><img src=""static/images/cards/stack_of_red_moons.svg"" width=""175px"" height=""250px""></img></td>
  </tr>
  <tr height=200>
    <td width=300><img src=""static/images/keys/w.svg"" width=""35%"" height=""75%""></img></td>
    <td width=300><img src=""static/images/keys/o.svg"" width=""35%"" height=""75%""></img></td>
  </tr>
</table>
  ",79.0,,,,,,,,,,,,,,,,,,,,,,,,,1.0,,
234,0,,html-keyboard-response,234,779006,0.0-7.17-1.17,3f9w634i86y,2022-09-19 15:30:57.765,5c4ded8b818d4d00013e69c9,1,64,46,41,39,72,female,1365.3000000119,,"
  <table>
  <tr height=300>
    <td width=300 height=300><img src=""static/images/cards/back_of_red_moons.svg"" width=""175px"" height=""250px""></img></td>
    <td width=300 height=300><img src=""static/images/cards/back_of_red_moons.svg"" width=""175px"" height=""250px""></img></td>
  </tr>
  <tr height=200>
