,index,success,trial_type,trial_index,time_elapsed,internal_node_id,subject,date,prol_id,ctbl,sense_of_control_A,sense_of_control_B,sense_of_control_C,sense_of_control_D,age,gender,rt,url,stimulus,key_press,is_data_trial,phase,trial,deck1,deck2,col1,col2,sym1,sym2,deck_l,deck_r,chosen_deck,chosen_col,chosen_sym,deck_rt,choose_choice,mutual_info,hidden_key,chosen_card,card_rt,player_num,win_card,outcome,mock_rating,npress,response,responses
0,0,1.0,fullscreen,0,3951,0.0-0.0,yoktqpms48,2022-09-19 14:52:50.406,5c7eb988ac63960015004d03,0,44,41,30,33,62,male,,,,,,,,,,,,,,,,,,,,,,,,,,,,,,,
1,0,,external-html,1,36065,0.0-1.0,yoktqpms48,2022-09-19 14:52:50.406,5c7eb988ac63960015004d03,0,44,41,30,33,62,male,31993.5,static/js/sub/consent.html,,,,,,,,,,,,,,,,,,,,,,,,,,,,,
2,0,,call-function,2,36068,0.0-2.0,yoktqpms48,2022-09-19 14:52:50.406,5c7eb988ac63960015004d03,0,44,41,30,33,62,male,,,,,,,,,,,,,,,,,,,,,,,,,,,,,,,
3,0,,image-keyboard-response,3,47764,0.0-3.0-0.0,yoktqpms48,2022-09-19 14:52:50.406,5c7eb988ac63960015004d03,0,44,41,30,33,62,male,11694.6999999881,,static/images/instructions_CB_0/Slide1.png,39.0,,,,,,,,,,,,,,,,,,,,,,,,,,,
4,0,,image-keyboard-response,4,63577,0.0-3.1-0.1,yoktqpms48,2022-09-19 14:52:50.406,5c7eb988ac63960015004d03,0,44,41,30,33,62,male,15812.099999994,,static/images/instructions_CB_0/Slide2.png,39.0,,,,,,,,,,,,,,,,,,,,,,,,,,,
5,0,,image-keyboard-response,5,76369,0.0-3.2-0.2,yoktqpms48,2022-09-19 14:52:50.406,5c7eb988ac63960015004d03,0,44,41,30,33,62,male,12790.7999999821,,static/images/instructions_CB_0/Slide3.png,39.0,,,,,,,,,,,,,,,,,,,,,,,,,,,
6,0,,image-keyboard-response,6,82684,0.0-3.3-0.3,yoktqpms48,2022-09-19 14:52:50.406,5c7eb988ac63960015004d03,0,44,41,30,33,62,male,6314.7000000179,,static/images/instructions_CB_0/Slide4.png,39.0,,,,,,,,,,,,,,,,,,,,,,,,,,,
7,0,,image-keyboard-response,7,90812,0.0-3.4-0.4,yoktqpms48,2022-09-19 14:52:50.406,5c7eb988ac63960015004d03,0,44,41,30,33,62,male,8127.7999999821,,static/images/instructions_CB_0/Slide5.png,39.0,,,,,,,,,,,,,,,,,,,,,,,,,,,
8,0,,image-keyboard-response,8,93384,0.0-3.5-0.5,yoktqpms48,2022-09-19 14:52:50.406,5c7eb988ac63960015004d03,0,44,41,30,33,62,male,2571.099999994,,static/images/instructions_CB_0/Slide6.png,39.0,,,,,,,,,,,,,,,,,,,,,,,,,,,
9,0,,image-keyboard-response,9,100125,0.0-3.6-0.6,yoktqpms48,2022-09-19 14:52:50.406,5c7eb988ac63960015004d03,0,44,41,30,33,62,male,6741.0,,static/images/instructions_CB_0/Slide7.png,39.0,,,,,,,,,,,,,,,,,,,,,,,,,,,
10,0,,image-keyboard-response,10,117292,0.0-3.7-0.7,yoktqpms48,2022-09-19 14:52:50.406,5c7eb988ac63960015004d03,0,44,41,30,33,62,male,17165.7000000179,,static/images/instructions_CB_0/Slide8.png,39.0,,,,,,,,,,,,,,,,,,,,,,,,,,,
11,0,,image-keyboard-response,11,125524,0.0-3.8-0.8,yoktqpms48,2022-09-19 14:52:50.406,5c7eb988ac63960015004d03,0,44,41,30,33,62,male,8231.5,,static/images/instructions_CB_0/Slide9.png,39.0,,,,,,,,,,,,,,,,,,,,,,,,,,,
12,0,,image-keyboard-response,12,149290,0.0-3.9-0.9,yoktqpms48,2022-09-19 14:52:50.406,5c7eb988ac63960015004d03,0,44,41,30,33,62,male,23764.599999994,,static/images/instructions_CB_0/Slide10.png,39.0,,,,,,,,,,,,,,,,,,,,,,,,,,,
13,0,,image-keyboard-response,13,157072,0.0-3.10-0.10,yoktqpms48,2022-09-19 14:52:50.406,5c7eb988ac63960015004d03,0,44,41,30,33,62,male,7782.400000006,,static/images/instructions_CB_0/Slide11.png,39.0,,,,,,,,,,,,,,,,,,,,,,,,,,,
14,0,,image-keyboard-response,14,168309,0.0-3.11-0.11,yoktqpms48,2022-09-19 14:52:50.406,5c7eb988ac63960015004d03,0,44,41,30,33,62,male,11236.400000006,,static/images/instructions_CB_0/Slide12.png,39.0,,,,,,,,,,,,,,,,,,,,,,,,,,,
15,0,,image-keyboard-response,15,197311,0.0-3.12-0.12,yoktqpms48,2022-09-19 14:52:50.406,5c7eb988ac63960015004d03,0,44,41,30,33,62,male,29001.400000006,,static/images/instructions_CB_0/Slide13.png,39.0,,,,,,,,,,,,,,,,,,,,,,,,,,,
16,0,,image-keyboard-response,16,203419,0.0-3.13-0.13,yoktqpms48,2022-09-19 14:52:50.406,5c7eb988ac63960015004d03,0,44,41,30,33,62,male,6107.599999994,,static/images/instructions_CB_0/Slide14.png,39.0,,,,,,,,,,,,,,,,,,,,,,,,,,,
17,0,,image-keyboard-response,17,210263,0.0-3.14-0.14,yoktqpms48,2022-09-19 14:52:50.406,5c7eb988ac63960015004d03,0,44,41,30,33,62,male,6843.5,,static/images/instructions_CB_0/Slide15.png,39.0,,,,,,,,,,,,,,,,,,,,,,,,,,,
18,0,,image-keyboard-response,18,227418,0.0-3.15-0.15,yoktqpms48,2022-09-19 14:52:50.406,5c7eb988ac63960015004d03,0,44,41,30,33,62,male,17154.0,,static/images/instructions_CB_0/Slide16.png,39.0,,,,,,,,,,,,,,,,,,,,,,,,,,,
19,0,,image-keyboard-response,19,237148,0.0-3.16-0.16,yoktqpms48,2022-09-19 14:52:50.406,5c7eb988ac63960015004d03,0,44,41,30,33,62,male,9729.2999999821,,static/images/instructions_CB_0/Slide17.png,39.0,,,,,,,,,,,,,,,,,,,,,,,,,,,
20,0,,image-keyboard-response,20,255744,0.0-3.17-0.17,yoktqpms48,2022-09-19 14:52:50.406,5c7eb988ac63960015004d03,0,44,41,30,33,62,male,18595.400000006,,static/images/instructions_CB_0/Slide18.png,39.0,,,,,,,,,,,,,,,,,,,,,,,,,,,
21,0,,image-keyboard-response,21,263768,0.0-3.18-0.18,yoktqpms48,2022-09-19 14:52:50.406,5c7eb988ac63960015004d03,0,44,41,30,33,62,male,8023.599999994,,static/images/instructions_CB_0/Slide19.png,39.0,,,,,,,,,,,,,,,,,,,,,,,,,,,
22,0,,html-keyboard-response,22,265269,0.0-4.0-0.0,yoktqpms48,2022-09-19 14:52:50.406,5c7eb988ac63960015004d03,0,44,41,30,33,62,male,,,"<img src=""static/images/cards/stack_of_red_stars.svg"" width=""175px"" height=""250px""></img>",,,,,,,,,,,,,,,,,,,,,,,,,,,,
23,0,,html-keyboard-response,23,268771,0.0-4.0-1.0,yoktqpms48,2022-09-19 14:52:50.406,5c7eb988ac63960015004d03,0,44,41,30,33,62,male,,,"
  <table>
  <tr height=300>
    <td width=300 height=300><img src=""static/images/cards/back_of_red_stars.svg"" width=""175px"" height=""250px""></img></td>
    <td width=300 height=300><img src=""static/images/cards/back_of_red_stars.svg"" width=""175px"" height=""250px""></img></td>
  </tr>
  <tr height=200>
    <td width=300><img src=""static/images/keys/z.svg"" width=""35%"" height=""75%""></img></td>
    <td width=300><img src=""static/images/keys/m.svg"" width=""35%"" height=""75%""></img></td>
  </tr>
</table>
  ",,,,,,,,,,,,,,,,,,,,,,,,,,,,
24,0,,html-keyboard-response,24,268773,0.0-4.0-2.0,yoktqpms48,2022-09-19 14:52:50.406,5c7eb988ac63960015004d03,0,44,41,30,33,62,male,,,,,,,,,,,,,,,,,,,,,,,,,,,,,,,
25,0,,html-keyboard-response,25,270275,0.0-4.0-3.0,yoktqpms48,2022-09-19 14:52:50.406,5c7eb988ac63960015004d03,0,44,41,30,33,62,male,,,"<p style=""font-size:50px"">Too slow!</p>",,,,,,,,,,,,,,,,,,,,,,,,,,,,
26,0,,html-keyboard-response,26,270780,0.0-4.0-4.0,yoktqpms48,2022-09-19 14:52:50.406,5c7eb988ac63960015004d03,0,44,41,30,33,62,male,,,,,1.0,learning,0.0,A,,red,,stars,,,,A,red,stars,,1.0,1.0,NA,,,,,,,,,
27,0,,html-keyboard-response,27,272282,0.0-4.1-0.1,yoktqpms48,2022-09-19 14:52:50.406,5c7eb988ac63960015004d03,0,44,41,30,33,62,male,,,"<img src=""static/images/cards/stack_of_black_stars.svg"" width=""175px"" height=""250px""></img>",,,,,,,,,,,,,,,,,,,,,,,,,,,,
28,0,,html-keyboard-response,28,273995,0.0-4.1-1.1,yoktqpms48,2022-09-19 14:52:50.406,5c7eb988ac63960015004d03,0,44,41,30,33,62,male,1210.599999994,,"
  <table>
  <tr height=300>
    <td width=300 height=300><img src=""static/images/cards/back_of_black_stars.svg"" width=""175px"" height=""250px""></img></td>
    <td width=300 height=300><img src=""static/images/cards/back_of_black_stars.svg"" width=""175px"" height=""250px""></img></td>
  </tr>
  <tr height=200>
    <td width=300></td>
    <td width=300><img src=""static/images/keys/m.svg"" width=""35%"" height=""75%""></img></td>
  </tr>
</table>
  ",77.0,,,,,,,,,,,,,,,,,,,,,,,,,1.0,,
29,0,,html-keyboard-response,29,275496,0.0-4.1-2.1,yoktqpms48,2022-09-19 14:52:50.406,5c7eb988ac63960015004d03,0,44,41,30,33,62,male,,,"
  <table>
  <tr height=300>
    <td width=300 height=300><img src=""static/images/cards/back_of_black_stars.svg"" width=""175px"" height=""250px""></img></td>
    <td width=300 height=300><img src=""static/images/cards/4_of_black_stars.svg"" width=""175px"" height=""250px""></img></td>
  </tr>
  <tr height=200>
    <td width=300></td>
    <td width=300><img src=""static/images/keys/m.svg"" width=""35%"" height=""75%""></img></td>
  </tr>
</table>
  ",,,,,,,,,,,,,,,,,,,,,,,,,,,,
30,0,,html-keyboard-response,30,276998,0.0-4.1-3.1,yoktqpms48,2022-09-19 14:52:50.406,5c7eb988ac63960015004d03,0,44,41,30,33,62,male,,,"<p style=""font-size:50px"">You Lose!
No points this round.</p>",,,,,,,,,,,,,,,,,,,,,,,,,,,,
31,0,,html-keyboard-response,31,277504,0.0-4.1-4.1,yoktqpms48,2022-09-19 14:52:50.406,5c7eb988ac63960015004d03,0,44,41,30,33,62,male,,,,,1.0,learning,1.0,B,,black,,stars,,,,B,black,stars,,0.0,1.0,0,right,1210.599999994,4.0,0.0,0.0,,,,
32,0,,html-keyboard-response,32,279005,0.0-4.2-0.2,yoktqpms48,2022-09-19 14:52:50.406,5c7eb988ac63960015004d03,0,44,41,30,33,62,male,,,"<img src=""static/images/cards/stack_of_red_moons.svg"" width=""175px"" height=""250px""></img>",,,,,,,,,,,,,,,,,,,,,,,,,,,,
33,0,,html-keyboard-response,33,280581,0.0-4.2-1.2,yoktqpms48,2022-09-19 14:52:50.406,5c7eb988ac63960015004d03,0,44,41,30,33,62,male,1074.8000000119,,"
  <table>
  <tr height=300>
    <td width=300 height=300><img src=""static/images/cards/back_of_red_moons.svg"" width=""175px"" height=""250px""></img></td>
    <td width=300 height=300><img src=""static/images/cards/back_of_red_moons.svg"" width=""175px"" height=""250px""></img></td>
  </tr>
  <tr height=200>
    <td width=300><img src=""static/images/keys/z.svg"" width=""35%"" height=""75%""></img></td>
    <td width=300><img src=""static/images/keys/m.svg"" width=""35%"" height=""75%""></img></td>
  </tr>
</table>
  ",90.0,,,,,,,,,,,,,,,,,,,,,,,,,1.0,,
34,0,,html-keyboard-response,34,282083,0.0-4.2-2.2,yoktqpms48,2022-09-19 14:52:50.406,5c7eb988ac63960015004d03,0,44,41,30,33,62,male,,,"
  <table>
  <tr height=300>
    <td width=300 height=300><img src=""static/images/cards/3_of_red_moons.svg"" width=""175px"" height=""250px""></img></td>
    <td width=300 height=300><img src=""static/images/cards/back_of_red_moons.svg"" width=""175px"" height=""250px""></img></td>
  </tr>
  <tr height=200>
    <td width=300><img src=""static/images/keys/z.svg"" width=""35%"" height=""75%""></img></td>
    <td width=300><img src=""static/images/keys/m.svg"" width=""35%"" height=""75%""></img></td>
  </tr>
</table>
  ",,,,,,,,,,,,,,,,,,,,,,,,,,,,
35,0,,html-keyboard-response,35,283584,0.0-4.2-3.2,yoktqpms48,2022-09-19 14:52:50.406,5c7eb988ac63960015004d03,0,44,41,30,33,62,male,,,"<p style=""font-size:50px"">You win!
+10 points this round!</p>",,,,,,,,,,,,,,,,,,,,,,,,,,,,
36,0,,html-keyboard-response,36,284091,0.0-4.2-4.2,yoktqpms48,2022-09-19 14:52:50.406,5c7eb988ac63960015004d03,0,44,41,30,33,62,male,,,,,1.0,learning,2.0,C,,red,,moons,,,,C,red,moons,,1.0,0.0,NA,left,1074.8000000119,3.0,0.0,1.0,,,,
37,0,,html-keyboard-response,37,285592,0.0-4.3-0.3,yoktqpms48,2022-09-19 14:52:50.406,5c7eb988ac63960015004d03,0,44,41,30,33,62,male,,,"<img src=""static/images/cards/stack_of_black_moons.svg"" width=""175px"" height=""250px""></img>",,,,,,,,,,,,,,,,,,,,,,,,,,,,
38,0,,html-keyboard-response,38,286754,0.0-4.3-1.3,yoktqpms48,2022-09-19 14:52:50.406,5c7eb988ac63960015004d03,0,44,41,30,33,62,male,661.2000000179,,"
  <table>
  <tr height=300>
    <td width=300 height=300><img src=""static/images/cards/back_of_black_moons.svg"" width=""175px"" height=""250px""></img></td>
    <td width=300 height=300><img src=""static/images/cards/back_of_black_moons.svg"" width=""175px"" height=""250px""></img></td>
  </tr>
  <tr height=200>
    <td width=300></td>
    <td width=300><img src=""static/images/keys/m.svg"" width=""35%"" height=""75%""></img></td>
  </tr>
</table>
  ",77.0,,,,,,,,,,,,,,,,,,,,,,,,,1.0,,
39,0,,html-keyboard-response,39,288256,0.0-4.3-2.3,yoktqpms48,2022-09-19 14:52:50.406,5c7eb988ac63960015004d03,0,44,41,30,33,62,male,,,"
  <table>
  <tr height=300>
    <td width=300 height=300><img src=""static/images/cards/back_of_black_moons.svg"" width=""175px"" height=""250px""></img></td>
    <td width=300 height=300><img src=""static/images/cards/9_of_black_moons.svg"" width=""175px"" height=""250px""></img></td>
  </tr>
  <tr height=200>
    <td width=300></td>
    <td width=300><img src=""static/images/keys/m.svg"" width=""35%"" height=""75%""></img></td>
  </tr>
</table>
  ",,,,,,,,,,,,,,,,,,,,,,,,,,,,
40,0,,html-keyboard-response,40,289757,0.0-4.3-3.3,yoktqpms48,2022-09-19 14:52:50.406,5c7eb988ac63960015004d03,0,44,41,30,33,62,male,,,"<p style=""font-size:50px"">You Lose!
No points this round.</p>",,,,,,,,,,,,,,,,,,,,,,,,,,,,
41,0,,html-keyboard-response,41,290263,0.0-4.3-4.3,yoktqpms48,2022-09-19 14:52:50.406,5c7eb988ac63960015004d03,0,44,41,30,33,62,male,,,,,1.0,learning,3.0,D,,black,,moons,,,,D,black,moons,,0.0,0.0,0,right,661.2000000179,9.0,1.0,0.0,,,,
42,0,,html-keyboard-response,42,291764,0.0-4.4-0.4,yoktqpms48,2022-09-19 14:52:50.406,5c7eb988ac63960015004d03,0,44,41,30,33,62,male,,,"<img src=""static/images/cards/stack_of_red_bolts.svg"" width=""175px"" height=""250px""></img>",,,,,,,,,,,,,,,,,,,,,,,,,,,,
43,0,,html-keyboard-response,43,293652,0.0-4.4-1.4,yoktqpms48,2022-09-19 14:52:50.406,5c7eb988ac63960015004d03,0,44,41,30,33,62,male,1380.599999994,,"
  <table>
  <tr height=300>
    <td width=300 height=300><img src=""static/images/cards/back_of_red_bolts.svg"" width=""175px"" height=""250px""></img></td>
    <td width=300 height=300><img src=""static/images/cards/back_of_red_bolts.svg"" width=""175px"" height=""250px""></img></td>
  </tr>
  <tr height=200>
    <td width=300><img src=""static/images/keys/z.svg"" width=""35%"" height=""75%""></img></td>
    <td width=300><img src=""static/images/keys/m.svg"" width=""35%"" height=""75%""></img></td>
  </tr>
</table>
  ",90.0,,,,,,,,,,,,,,,,,,,,,,,,,1.0,,
44,0,,html-keyboard-response,44,295165,0.0-4.4-2.4,yoktqpms48,2022-09-19 14:52:50.406,5c7eb988ac63960015004d03,0,44,41,30,33,62,male,,,"
  <table>
  <tr height=300>
    <td width=300 height=300><img src=""static/images/cards/4_of_red_bolts.svg"" width=""175px"" height=""250px""></img></td>
    <td width=300 height=300><img src=""static/images/cards/back_of_red_bolts.svg"" width=""175px"" height=""250px""></img></td>
  </tr>
  <tr height=200>
    <td width=300><img src=""static/images/keys/z.svg"" width=""35%"" height=""75%""></img></td>
    <td width=300><img src=""static/images/keys/m.svg"" width=""35%"" height=""75%""></img></td>
  </tr>
</table>
  ",,,,,,,,,,,,,,,,,,,,,,,,,,,,
45,0,,html-keyboard-response,45,296668,0.0-4.4-3.4,yoktqpms48,2022-09-19 14:52:50.406,5c7eb988ac63960015004d03,0,44,41,30,33,62,male,,,"<p style=""font-size:50px"">You win!
+10 points this round!</p>",,,,,,,,,,,,,,,,,,,,,,,,,,,,
46,0,,html-keyboard-response,46,297174,0.0-4.4-4.4,yoktqpms48,2022-09-19 14:52:50.406,5c7eb988ac63960015004d03,0,44,41,30,33,62,male,,,,,1.0,learning,4.0,Xc,,red,,bolts,,,,Xc,red,bolts,,1.0,0.0,NA,left,1380.599999994,4.0,0.0,1.0,,,,
47,0,,html-keyboard-response,47,298676,0.0-4.5-0.5,yoktqpms48,2022-09-19 14:52:50.406,5c7eb988ac63960015004d03,0,44,41,30,33,62,male,,,"<img src=""static/images/cards/stack_of_black_bolts.svg"" width=""175px"" height=""250px""></img>",,,,,,,,,,,,,,,,,,,,,,,,,,,,
48,0,,html-keyboard-response,48,300199,0.0-4.5-1.5,yoktqpms48,2022-09-19 14:52:50.406,5c7eb988ac63960015004d03,0,44,41,30,33,62,male,1021.599999994,,"
  <table>
  <tr height=300>
    <td width=300 height=300><img src=""static/images/cards/back_of_black_bolts.svg"" width=""175px"" height=""250px""></img></td>
    <td width=300 height=300><img src=""static/images/cards/back_of_black_bolts.svg"" width=""175px"" height=""250px""></img></td>
  </tr>
  <tr height=200>
    <td width=300></td>
    <td width=300><img src=""static/images/keys/m.svg"" width=""35%"" height=""75%""></img></td>
  </tr>
</table>
  ",77.0,,,,,,,,,,,,,,,,,,,,,,,,,1.0,,
49,0,,html-keyboard-response,49,301700,0.0-4.5-2.5,yoktqpms48,2022-09-19 14:52:50.406,5c7eb988ac63960015004d03,0,44,41,30,33,62,male,,,"
  <table>
  <tr height=300>
    <td width=300 height=300><img src=""static/images/cards/back_of_black_bolts.svg"" width=""175px"" height=""250px""></img></td>
    <td width=300 height=300><img src=""static/images/cards/2_of_black_bolts.svg"" width=""175px"" height=""250px""></img></td>
  </tr>
  <tr height=200>
    <td width=300></td>
    <td width=300><img src=""static/images/keys/m.svg"" width=""35%"" height=""75%""></img></td>
  </tr>
</table>
  ",,,,,,,,,,,,,,,,,,,,,,,,,,,,
50,0,,html-keyboard-response,50,303203,0.0-4.5-3.5,yoktqpms48,2022-09-19 14:52:50.406,5c7eb988ac63960015004d03,0,44,41,30,33,62,male,,,"<p style=""font-size:50px"">You win!
+10 points this round!</p>",,,,,,,,,,,,,,,,,,,,,,,,,,,,
51,0,,html-keyboard-response,51,303709,0.0-4.5-4.5,yoktqpms48,2022-09-19 14:52:50.406,5c7eb988ac63960015004d03,0,44,41,30,33,62,male,,,,,1.0,learning,5.0,Xnc,,black,,bolts,,,,Xnc,black,bolts,,0.0,0.0,0,right,1021.599999994,2.0,0.0,1.0,,,,
52,0,,html-keyboard-response,52,305211,0.0-4.6-0.6,yoktqpms48,2022-09-19 14:52:50.406,5c7eb988ac63960015004d03,0,44,41,30,33,62,male,,,"<img src=""static/images/cards/stack_of_red_stars.svg"" width=""175px"" height=""250px""></img>",,,,,,,,,,,,,,,,,,,,,,,,,,,,
53,0,,html-keyboard-response,53,306734,0.0-4.6-1.6,yoktqpms48,2022-09-19 14:52:50.406,5c7eb988ac63960015004d03,0,44,41,30,33,62,male,1021.8999999762,,"
  <table>
  <tr height=300>
    <td width=300 height=300><img src=""static/images/cards/back_of_red_stars.svg"" width=""175px"" height=""250px""></img></td>
    <td width=300 height=300><img src=""static/images/cards/back_of_red_stars.svg"" width=""175px"" height=""250px""></img></td>
  </tr>
  <tr height=200>
    <td width=300><img src=""static/images/keys/z.svg"" width=""35%"" height=""75%""></img></td>
    <td width=300><img src=""static/images/keys/m.svg"" width=""35%"" height=""75%""></img></td>
  </tr>
</table>
  ",90.0,,,,,,,,,,,,,,,,,,,,,,,,,1.0,,
54,0,,html-keyboard-response,54,308236,0.0-4.6-2.6,yoktqpms48,2022-09-19 14:52:50.406,5c7eb988ac63960015004d03,0,44,41,30,33,62,male,,,"
  <table>
  <tr height=300>
    <td width=300 height=300><img src=""static/images/cards/4_of_red_stars.svg"" width=""175px"" height=""250px""></img></td>
    <td width=300 height=300><img src=""static/images/cards/back_of_red_stars.svg"" width=""175px"" height=""250px""></img></td>
  </tr>
  <tr height=200>
    <td width=300><img src=""static/images/keys/z.svg"" width=""35%"" height=""75%""></img></td>
    <td width=300><img src=""static/images/keys/m.svg"" width=""35%"" height=""75%""></img></td>
  </tr>
</table>
  ",,,,,,,,,,,,,,,,,,,,,,,,,,,,
55,0,,html-keyboard-response,55,309738,0.0-4.6-3.6,yoktqpms48,2022-09-19 14:52:50.406,5c7eb988ac63960015004d03,0,44,41,30,33,62,male,,,"<p style=""font-size:50px"">You Lose!
No points this round.</p>",,,,,,,,,,,,,,,,,,,,,,,,,,,,
56,0,,html-keyboard-response,56,310245,0.0-4.6-4.6,yoktqpms48,2022-09-19 14:52:50.406,5c7eb988ac63960015004d03,0,44,41,30,33,62,male,,,,,1.0,learning,6.0,A,,red,,stars,,,,A,red,stars,,1.0,1.0,NA,left,1021.8999999762,4.0,0.0,0.0,,,,
57,0,,html-keyboard-response,57,311746,0.0-4.7-0.7,yoktqpms48,2022-09-19 14:52:50.406,5c7eb988ac63960015004d03,0,44,41,30,33,62,male,,,"<img src=""static/images/cards/stack_of_black_stars.svg"" width=""175px"" height=""250px""></img>",,,,,,,,,,,,,,,,,,,,,,,,,,,,
58,0,,html-keyboard-response,58,313811,0.0-4.7-1.7,yoktqpms48,2022-09-19 14:52:50.406,5c7eb988ac63960015004d03,0,44,41,30,33,62,male,1563.3999999762,,"
  <table>
  <tr height=300>
    <td width=300 height=300><img src=""static/images/cards/back_of_black_stars.svg"" width=""175px"" height=""250px""></img></td>
    <td width=300 height=300><img src=""static/images/cards/back_of_black_stars.svg"" width=""175px"" height=""250px""></img></td>
  </tr>
  <tr height=200>
    <td width=300><img src=""static/images/keys/z.svg"" width=""35%"" height=""75%""></img></td>
    <td width=300></td>
  </tr>
</table>
  ",90.0,,,,,,,,,,,,,,,,,,,,,,,,,2.0,,
59,0,,html-keyboard-response,59,315313,0.0-4.7-2.7,yoktqpms48,2022-09-19 14:52:50.406,5c7eb988ac63960015004d03,0,44,41,30,33,62,male,,,"
  <table>
  <tr height=300>
    <td width=300 height=300><img src=""static/images/cards/3_of_black_stars.svg"" width=""175px"" height=""250px""></img></td>
    <td width=300 height=300><img src=""static/images/cards/back_of_black_stars.svg"" width=""175px"" height=""250px""></img></td>
  </tr>
  <tr height=200>
    <td width=300><img src=""static/images/keys/z.svg"" width=""35%"" height=""75%""></img></td>
    <td width=300></td>
  </tr>
</table>
  ",,,,,,,,,,,,,,,,,,,,,,,,,,,,
60,0,,html-keyboard-response,60,316814,0.0-4.7-3.7,yoktqpms48,2022-09-19 14:52:50.406,5c7eb988ac63960015004d03,0,44,41,30,33,62,male,,,"<p style=""font-size:50px"">You Lose!
No points this round.</p>",,,,,,,,,,,,,,,,,,,,,,,,,,,,
61,0,,html-keyboard-response,61,317321,0.0-4.7-4.7,yoktqpms48,2022-09-19 14:52:50.406,5c7eb988ac63960015004d03,0,44,41,30,33,62,male,,,,,1.0,learning,7.0,B,,black,,stars,,,,B,black,stars,,0.0,1.0,1,left,1563.3999999762,3.0,0.0,0.0,,,,
62,0,,html-keyboard-response,62,318822,0.0-4.8-0.8,yoktqpms48,2022-09-19 14:52:50.406,5c7eb988ac63960015004d03,0,44,41,30,33,62,male,,,"<img src=""static/images/cards/stack_of_red_moons.svg"" width=""175px"" height=""250px""></img>",,,,,,,,,,,,,,,,,,,,,,,,,,,,
63,0,,html-keyboard-response,63,320715,0.0-4.8-1.8,yoktqpms48,2022-09-19 14:52:50.406,5c7eb988ac63960015004d03,0,44,41,30,33,62,male,1391.7999999821,,"
  <table>
  <tr height=300>
    <td width=300 height=300><img src=""static/images/cards/back_of_red_moons.svg"" width=""175px"" height=""250px""></img></td>
    <td width=300 height=300><img src=""static/images/cards/back_of_red_moons.svg"" width=""175px"" height=""250px""></img></td>
  </tr>
  <tr height=200>
    <td width=300><img src=""static/images/keys/z.svg"" width=""35%"" height=""75%""></img></td>
    <td width=300><img src=""static/images/keys/m.svg"" width=""35%"" height=""75%""></img></td>
  </tr>
</table>
  ",90.0,,,,,,,,,,,,,,,,,,,,,,,,,1.0,,
64,0,,html-keyboard-response,64,322217,0.0-4.8-2.8,yoktqpms48,2022-09-19 14:52:50.406,5c7eb988ac63960015004d03,0,44,41,30,33,62,male,,,"
  <table>
  <tr height=300>
    <td width=300 height=300><img src=""static/images/cards/3_of_red_moons.svg"" width=""175px"" height=""250px""></img></td>
    <td width=300 height=300><img src=""static/images/cards/back_of_red_moons.svg"" width=""175px"" height=""250px""></img></td>
  </tr>
  <tr height=200>
    <td width=300><img src=""static/images/keys/z.svg"" width=""35%"" height=""75%""></img></td>
    <td width=300><img src=""static/images/keys/m.svg"" width=""35%"" height=""75%""></img></td>
  </tr>
</table>
  ",,,,,,,,,,,,,,,,,,,,,,,,,,,,
65,0,,html-keyboard-response,65,323719,0.0-4.8-3.8,yoktqpms48,2022-09-19 14:52:50.406,5c7eb988ac63960015004d03,0,44,41,30,33,62,male,,,"<p style=""font-size:50px"">You win!
+10 points this round!</p>",,,,,,,,,,,,,,,,,,,,,,,,,,,,
66,0,,html-keyboard-response,66,324227,0.0-4.8-4.8,yoktqpms48,2022-09-19 14:52:50.406,5c7eb988ac63960015004d03,0,44,41,30,33,62,male,,,,,1.0,learning,8.0,C,,red,,moons,,,,C,red,moons,,1.0,0.0,NA,left,1391.7999999821,3.0,0.0,1.0,,,,
67,0,,html-keyboard-response,67,325728,0.0-4.9-0.9,yoktqpms48,2022-09-19 14:52:50.406,5c7eb988ac63960015004d03,0,44,41,30,33,62,male,,,"<img src=""static/images/cards/stack_of_black_moons.svg"" width=""175px"" height=""250px""></img>",,,,,,,,,,,,,,,,,,,,,,,,,,,,
68,0,,html-keyboard-response,68,326985,0.0-4.9-1.9,yoktqpms48,2022-09-19 14:52:50.406,5c7eb988ac63960015004d03,0,44,41,30,33,62,male,754.8000000119,,"
  <table>
  <tr height=300>
    <td width=300 height=300><img src=""static/images/cards/back_of_black_moons.svg"" width=""175px"" height=""250px""></img></td>
    <td width=300 height=300><img src=""static/images/cards/back_of_black_moons.svg"" width=""175px"" height=""250px""></img></td>
  </tr>
  <tr height=200>
    <td width=300></td>
    <td width=300><img src=""static/images/keys/m.svg"" width=""35%"" height=""75%""></img></td>
  </tr>
</table>
  ",77.0,,,,,,,,,,,,,,,,,,,,,,,,,1.0,,
69,0,,html-keyboard-response,69,328486,0.0-4.9-2.9,yoktqpms48,2022-09-19 14:52:50.406,5c7eb988ac63960015004d03,0,44,41,30,33,62,male,,,"
  <table>
  <tr height=300>
    <td width=300 height=300><img src=""static/images/cards/back_of_black_moons.svg"" width=""175px"" height=""250px""></img></td>
    <td width=300 height=300><img src=""static/images/cards/1_of_black_moons.svg"" width=""175px"" height=""250px""></img></td>
  </tr>
  <tr height=200>
    <td width=300></td>
    <td width=300><img src=""static/images/keys/m.svg"" width=""35%"" height=""75%""></img></td>
  </tr>
</table>
  ",,,,,,,,,,,,,,,,,,,,,,,,,,,,
70,0,,html-keyboard-response,70,329988,0.0-4.9-3.9,yoktqpms48,2022-09-19 14:52:50.406,5c7eb988ac63960015004d03,0,44,41,30,33,62,male,,,"<p style=""font-size:50px"">You Lose!
No points this round.</p>",,,,,,,,,,,,,,,,,,,,,,,,,,,,
71,0,,html-keyboard-response,71,330494,0.0-4.9-4.9,yoktqpms48,2022-09-19 14:52:50.406,5c7eb988ac63960015004d03,0,44,41,30,33,62,male,,,,,1.0,learning,9.0,D,,black,,moons,,,,D,black,moons,,0.0,0.0,0,right,754.8000000119,1.0,0.0,0.0,,,,
72,0,,html-keyboard-response,72,331995,0.0-4.10-0.10,yoktqpms48,2022-09-19 14:52:50.406,5c7eb988ac63960015004d03,0,44,41,30,33,62,male,,,"<img src=""static/images/cards/stack_of_red_bolts.svg"" width=""175px"" height=""250px""></img>",,,,,,,,,,,,,,,,,,,,,,,,,,,,
73,0,,html-keyboard-response,73,333635,0.0-4.10-1.10,yoktqpms48,2022-09-19 14:52:50.406,5c7eb988ac63960015004d03,0,44,41,30,33,62,male,1137.1000000238,,"
  <table>
  <tr height=300>
    <td width=300 height=300><img src=""static/images/cards/back_of_red_bolts.svg"" width=""175px"" height=""250px""></img></td>
    <td width=300 height=300><img src=""static/images/cards/back_of_red_bolts.svg"" width=""175px"" height=""250px""></img></td>
  </tr>
  <tr height=200>
    <td width=300><img src=""static/images/keys/z.svg"" width=""35%"" height=""75%""></img></td>
    <td width=300><img src=""static/images/keys/m.svg"" width=""35%"" height=""75%""></img></td>
  </tr>
</table>
  ",77.0,,,,,,,,,,,,,,,,,,,,,,,,,1.0,,
74,0,,html-keyboard-response,74,335136,0.0-4.10-2.10,yoktqpms48,2022-09-19 14:52:50.406,5c7eb988ac63960015004d03,0,44,41,30,33,62,male,,,"
  <table>
  <tr height=300>
    <td width=300 height=300><img src=""static/images/cards/back_of_red_bolts.svg"" width=""175px"" height=""250px""></img></td>
    <td width=300 height=300><img src=""static/images/cards/9_of_red_bolts.svg"" width=""175px"" height=""250px""></img></td>
  </tr>
  <tr height=200>
    <td width=300><img src=""static/images/keys/z.svg"" width=""35%"" height=""75%""></img></td>
    <td width=300><img src=""static/images/keys/m.svg"" width=""35%"" height=""75%""></img></td>
  </tr>
</table>
  ",,,,,,,,,,,,,,,,,,,,,,,,,,,,
75,0,,html-keyboard-response,75,336639,0.0-4.10-3.10,yoktqpms48,2022-09-19 14:52:50.406,5c7eb988ac63960015004d03,0,44,41,30,33,62,male,,,"<p style=""font-size:50px"">You win!
+10 points this round!</p>",,,,,,,,,,,,,,,,,,,,,,,,,,,,
76,0,,html-keyboard-response,76,337146,0.0-4.10-4.10,yoktqpms48,2022-09-19 14:52:50.406,5c7eb988ac63960015004d03,0,44,41,30,33,62,male,,,,,1.0,learning,10.0,Xc,,red,,bolts,,,,Xc,red,bolts,,1.0,0.0,NA,right,1137.1000000238,9.0,1.0,1.0,,,,
77,0,,html-keyboard-response,77,338647,0.0-4.11-0.11,yoktqpms48,2022-09-19 14:52:50.406,5c7eb988ac63960015004d03,0,44,41,30,33,62,male,,,"<img src=""static/images/cards/stack_of_black_bolts.svg"" width=""175px"" height=""250px""></img>",,,,,,,,,,,,,,,,,,,,,,,,,,,,
78,0,,html-keyboard-response,78,339999,0.0-4.11-1.11,yoktqpms48,2022-09-19 14:52:50.406,5c7eb988ac63960015004d03,0,44,41,30,33,62,male,850.7999999821,,"
  <table>
  <tr height=300>
    <td width=300 height=300><img src=""static/images/cards/back_of_black_bolts.svg"" width=""175px"" height=""250px""></img></td>
    <td width=300 height=300><img src=""static/images/cards/back_of_black_bolts.svg"" width=""175px"" height=""250px""></img></td>
  </tr>
  <tr height=200>
    <td width=300><img src=""static/images/keys/z.svg"" width=""35%"" height=""75%""></img></td>
    <td width=300></td>
  </tr>
</table>
  ",90.0,,,,,,,,,,,,,,,,,,,,,,,,,1.0,,
79,0,,html-keyboard-response,79,341502,0.0-4.11-2.11,yoktqpms48,2022-09-19 14:52:50.406,5c7eb988ac63960015004d03,0,44,41,30,33,62,male,,,"
  <table>
  <tr height=300>
    <td width=300 height=300><img src=""static/images/cards/10_of_black_bolts.svg"" width=""175px"" height=""250px""></img></td>
    <td width=300 height=300><img src=""static/images/cards/back_of_black_bolts.svg"" width=""175px"" height=""250px""></img></td>
  </tr>
  <tr height=200>
    <td width=300><img src=""static/images/keys/z.svg"" width=""35%"" height=""75%""></img></td>
    <td width=300></td>
  </tr>
</table>
  ",,,,,,,,,,,,,,,,,,,,,,,,,,,,
80,0,,html-keyboard-response,80,343005,0.0-4.11-3.11,yoktqpms48,2022-09-19 14:52:50.406,5c7eb988ac63960015004d03,0,44,41,30,33,62,male,,,"<p style=""font-size:50px"">You win!
+10 points this round!</p>",,,,,,,,,,,,,,,,,,,,,,,,,,,,
81,0,,html-keyboard-response,81,343510,0.0-4.11-4.11,yoktqpms48,2022-09-19 14:52:50.406,5c7eb988ac63960015004d03,0,44,41,30,33,62,male,,,,,1.0,learning,11.0,Xnc,,black,,bolts,,,,Xnc,black,bolts,,0.0,0.0,1,left,850.7999999821,10.0,1.0,1.0,,,,
82,0,,html-keyboard-response,82,345011,0.0-4.12-0.12,yoktqpms48,2022-09-19 14:52:50.406,5c7eb988ac63960015004d03,0,44,41,30,33,62,male,,,"<img src=""static/images/cards/stack_of_red_stars.svg"" width=""175px"" height=""250px""></img>",,,,,,,,,,,,,,,,,,,,,,,,,,,,
83,0,,html-keyboard-response,83,346289,0.0-4.12-1.12,yoktqpms48,2022-09-19 14:52:50.406,5c7eb988ac63960015004d03,0,44,41,30,33,62,male,776.3000000119,,"
  <table>
  <tr height=300>
    <td width=300 height=300><img src=""static/images/cards/back_of_red_stars.svg"" width=""175px"" height=""250px""></img></td>
    <td width=300 height=300><img src=""static/images/cards/back_of_red_stars.svg"" width=""175px"" height=""250px""></img></td>
  </tr>
  <tr height=200>
    <td width=300><img src=""static/images/keys/z.svg"" width=""35%"" height=""75%""></img></td>
    <td width=300><img src=""static/images/keys/m.svg"" width=""35%"" height=""75%""></img></td>
  </tr>
</table>
  ",77.0,,,,,,,,,,,,,,,,,,,,,,,,,1.0,,
84,0,,html-keyboard-response,84,347791,0.0-4.12-2.12,yoktqpms48,2022-09-19 14:52:50.406,5c7eb988ac63960015004d03,0,44,41,30,33,62,male,,,"
  <table>
  <tr height=300>
    <td width=300 height=300><img src=""static/images/cards/back_of_red_stars.svg"" width=""175px"" height=""250px""></img></td>
    <td width=300 height=300><img src=""static/images/cards/7_of_red_stars.svg"" width=""175px"" height=""250px""></img></td>
  </tr>
  <tr height=200>
    <td width=300><img src=""static/images/keys/z.svg"" width=""35%"" height=""75%""></img></td>
    <td width=300><img src=""static/images/keys/m.svg"" width=""35%"" height=""75%""></img></td>
  </tr>
</table>
  ",,,,,,,,,,,,,,,,,,,,,,,,,,,,
85,0,,html-keyboard-response,85,349293,0.0-4.12-3.12,yoktqpms48,2022-09-19 14:52:50.406,5c7eb988ac63960015004d03,0,44,41,30,33,62,male,,,"<p style=""font-size:50px"">You win!
+10 points this round!</p>",,,,,,,,,,,,,,,,,,,,,,,,,,,,
86,0,,html-keyboard-response,86,349799,0.0-4.12-4.12,yoktqpms48,2022-09-19 14:52:50.406,5c7eb988ac63960015004d03,0,44,41,30,33,62,male,,,,,1.0,learning,12.0,A,,red,,stars,,,,A,red,stars,,1.0,1.0,NA,right,776.3000000119,7.0,1.0,1.0,,,,
87,0,,html-keyboard-response,87,351301,0.0-4.13-0.13,yoktqpms48,2022-09-19 14:52:50.406,5c7eb988ac63960015004d03,0,44,41,30,33,62,male,,,"<img src=""static/images/cards/stack_of_black_stars.svg"" width=""175px"" height=""250px""></img>",,,,,,,,,,,,,,,,,,,,,,,,,,,,
88,0,,html-keyboard-response,88,352682,0.0-4.13-1.13,yoktqpms48,2022-09-19 14:52:50.406,5c7eb988ac63960015004d03,0,44,41,30,33,62,male,879.900000006,,"
  <table>
  <tr height=300>
    <td width=300 height=300><img src=""static/images/cards/back_of_black_stars.svg"" width=""175px"" height=""250px""></img></td>
    <td width=300 height=300><img src=""static/images/cards/back_of_black_stars.svg"" width=""175px"" height=""250px""></img></td>
  </tr>
  <tr height=200>
    <td width=300><img src=""static/images/keys/z.svg"" width=""35%"" height=""75%""></img></td>
    <td width=300></td>
  </tr>
</table>
  ",90.0,,,,,,,,,,,,,,,,,,,,,,,,,1.0,,
89,0,,html-keyboard-response,89,354184,0.0-4.13-2.13,yoktqpms48,2022-09-19 14:52:50.406,5c7eb988ac63960015004d03,0,44,41,30,33,62,male,,,"
  <table>
  <tr height=300>
    <td width=300 height=300><img src=""static/images/cards/9_of_black_stars.svg"" width=""175px"" height=""250px""></img></td>
    <td width=300 height=300><img src=""static/images/cards/back_of_black_stars.svg"" width=""175px"" height=""250px""></img></td>
  </tr>
  <tr height=200>
    <td width=300><img src=""static/images/keys/z.svg"" width=""35%"" height=""75%""></img></td>
    <td width=300></td>
  </tr>
</table>
  ",,,,,,,,,,,,,,,,,,,,,,,,,,,,
90,0,,html-keyboard-response,90,355687,0.0-4.13-3.13,yoktqpms48,2022-09-19 14:52:50.406,5c7eb988ac63960015004d03,0,44,41,30,33,62,male,,,"<p style=""font-size:50px"">You win!
+10 points this round!</p>",,,,,,,,,,,,,,,,,,,,,,,,,,,,
91,0,,html-keyboard-response,91,356193,0.0-4.13-4.13,yoktqpms48,2022-09-19 14:52:50.406,5c7eb988ac63960015004d03,0,44,41,30,33,62,male,,,,,1.0,learning,13.0,B,,black,,stars,,,,B,black,stars,,0.0,1.0,1,left,879.900000006,9.0,1.0,1.0,,,,
92,0,,html-keyboard-response,92,357694,0.0-4.14-0.14,yoktqpms48,2022-09-19 14:52:50.406,5c7eb988ac63960015004d03,0,44,41,30,33,62,male,,,"<img src=""static/images/cards/stack_of_red_moons.svg"" width=""175px"" height=""250px""></img>",,,,,,,,,,,,,,,,,,,,,,,,,,,,
93,0,,html-keyboard-response,93,358834,0.0-4.14-1.14,yoktqpms48,2022-09-19 14:52:50.406,5c7eb988ac63960015004d03,0,44,41,30,33,62,male,638.3999999762,,"
  <table>
  <tr height=300>
    <td width=300 height=300><img src=""static/images/cards/back_of_red_moons.svg"" width=""175px"" height=""250px""></img></td>
    <td width=300 height=300><img src=""static/images/cards/back_of_red_moons.svg"" width=""175px"" height=""250px""></img></td>
  </tr>
  <tr height=200>
    <td width=300><img src=""static/images/keys/z.svg"" width=""35%"" height=""75%""></img></td>
    <td width=300><img src=""static/images/keys/m.svg"" width=""35%"" height=""75%""></img></td>
  </tr>
</table>
  ",77.0,,,,,,,,,,,,,,,,,,,,,,,,,1.0,,
94,0,,html-keyboard-response,94,360336,0.0-4.14-2.14,yoktqpms48,2022-09-19 14:52:50.406,5c7eb988ac63960015004d03,0,44,41,30,33,62,male,,,"
  <table>
  <tr height=300>
    <td width=300 height=300><img src=""static/images/cards/back_of_red_moons.svg"" width=""175px"" height=""250px""></img></td>
    <td width=300 height=300><img src=""static/images/cards/8_of_red_moons.svg"" width=""175px"" height=""250px""></img></td>
  </tr>
  <tr height=200>
    <td width=300><img src=""static/images/keys/z.svg"" width=""35%"" height=""75%""></img></td>
    <td width=300><img src=""static/images/keys/m.svg"" width=""35%"" height=""75%""></img></td>
  </tr>
</table>
  ",,,,,,,,,,,,,,,,,,,,,,,,,,,,
95,0,,html-keyboard-response,95,361839,0.0-4.14-3.14,yoktqpms48,2022-09-19 14:52:50.406,5c7eb988ac63960015004d03,0,44,41,30,33,62,male,,,"<p style=""font-size:50px"">You win!
+10 points this round!</p>",,,,,,,,,,,,,,,,,,,,,,,,,,,,
96,0,,html-keyboard-response,96,362345,0.0-4.14-4.14,yoktqpms48,2022-09-19 14:52:50.406,5c7eb988ac63960015004d03,0,44,41,30,33,62,male,,,,,1.0,learning,14.0,C,,red,,moons,,,,C,red,moons,,1.0,0.0,NA,right,638.3999999762,8.0,1.0,1.0,,,,
97,0,,html-keyboard-response,97,363846,0.0-4.15-0.15,yoktqpms48,2022-09-19 14:52:50.406,5c7eb988ac63960015004d03,0,44,41,30,33,62,male,,,"<img src=""static/images/cards/stack_of_black_moons.svg"" width=""175px"" height=""250px""></img>",,,,,,,,,,,,,,,,,,,,,,,,,,,,
98,0,,html-keyboard-response,98,364945,0.0-4.15-1.15,yoktqpms48,2022-09-19 14:52:50.406,5c7eb988ac63960015004d03,0,44,41,30,33,62,male,598.400000006,,"
  <table>
  <tr height=300>
    <td width=300 height=300><img src=""static/images/cards/back_of_black_moons.svg"" width=""175px"" height=""250px""></img></td>
    <td width=300 height=300><img src=""static/images/cards/back_of_black_moons.svg"" width=""175px"" height=""250px""></img></td>
  </tr>
  <tr height=200>
    <td width=300></td>
    <td width=300><img src=""static/images/keys/m.svg"" width=""35%"" height=""75%""></img></td>
  </tr>
</table>
  ",77.0,,,,,,,,,,,,,,,,,,,,,,,,,1.0,,
99,0,,html-keyboard-response,99,366447,0.0-4.15-2.15,yoktqpms48,2022-09-19 14:52:50.406,5c7eb988ac63960015004d03,0,44,41,30,33,62,male,,,"
  <table>
  <tr height=300>
    <td width=300 height=300><img src=""static/images/cards/back_of_black_moons.svg"" width=""175px"" height=""250px""></img></td>
    <td width=300 height=300><img src=""static/images/cards/9_of_black_moons.svg"" width=""175px"" height=""250px""></img></td>
  </tr>
  <tr height=200>
    <td width=300></td>
    <td width=300><img src=""static/images/keys/m.svg"" width=""35%"" height=""75%""></img></td>
  </tr>
</table>
  ",,,,,,,,,,,,,,,,,,,,,,,,,,,,
100,0,,html-keyboard-response,100,367949,0.0-4.15-3.15,yoktqpms48,2022-09-19 14:52:50.406,5c7eb988ac63960015004d03,0,44,41,30,33,62,male,,,"<p style=""font-size:50px"">You Lose!
No points this round.</p>",,,,,,,,,,,,,,,,,,,,,,,,,,,,
101,0,,html-keyboard-response,101,368455,0.0-4.15-4.15,yoktqpms48,2022-09-19 14:52:50.406,5c7eb988ac63960015004d03,0,44,41,30,33,62,male,,,,,1.0,learning,15.0,D,,black,,moons,,,,D,black,moons,,0.0,0.0,0,right,598.400000006,9.0,1.0,0.0,,,,
102,0,,html-keyboard-response,102,369957,0.0-4.16-0.16,yoktqpms48,2022-09-19 14:52:50.406,5c7eb988ac63960015004d03,0,44,41,30,33,62,male,,,"<img src=""static/images/cards/stack_of_red_bolts.svg"" width=""175px"" height=""250px""></img>",,,,,,,,,,,,,,,,,,,,,,,,,,,,
103,0,,html-keyboard-response,103,370948,0.0-4.16-1.16,yoktqpms48,2022-09-19 14:52:50.406,5c7eb988ac63960015004d03,0,44,41,30,33,62,male,488.7000000179,,"
  <table>
  <tr height=300>
    <td width=300 height=300><img src=""static/images/cards/back_of_red_bolts.svg"" width=""175px"" height=""250px""></img></td>
    <td width=300 height=300><img src=""static/images/cards/back_of_red_bolts.svg"" width=""175px"" height=""250px""></img></td>
  </tr>
  <tr height=200>
    <td width=300><img src=""static/images/keys/z.svg"" width=""35%"" height=""75%""></img></td>
    <td width=300><img src=""static/images/keys/m.svg"" width=""35%"" height=""75%""></img></td>
  </tr>
</table>
  ",77.0,,,,,,,,,,,,,,,,,,,,,,,,,1.0,,
104,0,,html-keyboard-response,104,372449,0.0-4.16-2.16,yoktqpms48,2022-09-19 14:52:50.406,5c7eb988ac63960015004d03,0,44,41,30,33,62,male,,,"
  <table>
  <tr height=300>
    <td width=300 height=300><img src=""static/images/cards/back_of_red_bolts.svg"" width=""175px"" height=""250px""></img></td>
    <td width=300 height=300><img src=""static/images/cards/1_of_red_bolts.svg"" width=""175px"" height=""250px""></img></td>
  </tr>
  <tr height=200>
    <td width=300><img src=""static/images/keys/z.svg"" width=""35%"" height=""75%""></img></td>
    <td width=300><img src=""static/images/keys/m.svg"" width=""35%"" height=""75%""></img></td>
  </tr>
</table>
  ",,,,,,,,,,,,,,,,,,,,,,,,,,,,
105,0,,html-keyboard-response,105,373951,0.0-4.16-3.16,yoktqpms48,2022-09-19 14:52:50.406,5c7eb988ac63960015004d03,0,44,41,30,33,62,male,,,"<p style=""font-size:50px"">You win!
+10 points this round!</p>",,,,,,,,,,,,,,,,,,,,,,,,,,,,
106,0,,html-keyboard-response,106,374457,0.0-4.16-4.16,yoktqpms48,2022-09-19 14:52:50.406,5c7eb988ac63960015004d03,0,44,41,30,33,62,male,,,,,1.0,learning,16.0,Xc,,red,,bolts,,,,Xc,red,bolts,,1.0,0.0,NA,right,488.7000000179,1.0,0.0,1.0,,,,
107,0,,html-keyboard-response,107,375958,0.0-4.17-0.17,yoktqpms48,2022-09-19 14:52:50.406,5c7eb988ac63960015004d03,0,44,41,30,33,62,male,,,"<img src=""static/images/cards/stack_of_black_bolts.svg"" width=""175px"" height=""250px""></img>",,,,,,,,,,,,,,,,,,,,,,,,,,,,
108,0,,html-keyboard-response,108,377045,0.0-4.17-1.17,yoktqpms48,2022-09-19 14:52:50.406,5c7eb988ac63960015004d03,0,44,41,30,33,62,male,585.3000000119,,"
  <table>
  <tr height=300>
    <td width=300 height=300><img src=""static/images/cards/back_of_black_bolts.svg"" width=""175px"" height=""250px""></img></td>
    <td width=300 height=300><img src=""static/images/cards/back_of_black_bolts.svg"" width=""175px"" height=""250px""></img></td>
  </tr>
  <tr height=200>
    <td width=300></td>
    <td width=300><img src=""static/images/keys/m.svg"" width=""35%"" height=""75%""></img></td>
  </tr>
</table>
  ",77.0,,,,,,,,,,,,,,,,,,,,,,,,,1.0,,
109,0,,html-keyboard-response,109,378546,0.0-4.17-2.17,yoktqpms48,2022-09-19 14:52:50.406,5c7eb988ac63960015004d03,0,44,41,30,33,62,male,,,"
  <table>
  <tr height=300>
    <td width=300 height=300><img src=""static/images/cards/back_of_black_bolts.svg"" width=""175px"" height=""250px""></img></td>
    <td width=300 height=300><img src=""static/images/cards/2_of_black_bolts.svg"" width=""175px"" height=""250px""></img></td>
  </tr>
  <tr height=200>
    <td width=300></td>
    <td width=300><img src=""static/images/keys/m.svg"" width=""35%"" height=""75%""></img></td>
  </tr>
</table>
  ",,,,,,,,,,,,,,,,,,,,,,,,,,,,
110,0,,html-keyboard-response,110,380048,0.0-4.17-3.17,yoktqpms48,2022-09-19 14:52:50.406,5c7eb988ac63960015004d03,0,44,41,30,33,62,male,,,"<p style=""font-size:50px"">You win!
+10 points this round!</p>",,,,,,,,,,,,,,,,,,,,,,,,,,,,
111,0,,html-keyboard-response,111,380555,0.0-4.17-4.17,yoktqpms48,2022-09-19 14:52:50.406,5c7eb988ac63960015004d03,0,44,41,30,33,62,male,,,,,1.0,learning,17.0,Xnc,,black,,bolts,,,,Xnc,black,bolts,,0.0,0.0,0,right,585.3000000119,2.0,0.0,1.0,,,,
112,0,,html-keyboard-response,112,382056,0.0-4.18-0.18,yoktqpms48,2022-09-19 14:52:50.406,5c7eb988ac63960015004d03,0,44,41,30,33,62,male,,,"<img src=""static/images/cards/stack_of_red_stars.svg"" width=""175px"" height=""250px""></img>",,,,,,,,,,,,,,,,,,,,,,,,,,,,
113,0,,html-keyboard-response,113,383647,0.0-4.18-1.18,yoktqpms48,2022-09-19 14:52:50.406,5c7eb988ac63960015004d03,0,44,41,30,33,62,male,1090.099999994,,"
  <table>
  <tr height=300>
    <td width=300 height=300><img src=""static/images/cards/back_of_red_stars.svg"" width=""175px"" height=""250px""></img></td>
    <td width=300 height=300><img src=""static/images/cards/back_of_red_stars.svg"" width=""175px"" height=""250px""></img></td>
  </tr>
  <tr height=200>
    <td width=300><img src=""static/images/keys/z.svg"" width=""35%"" height=""75%""></img></td>
    <td width=300><img src=""static/images/keys/m.svg"" width=""35%"" height=""75%""></img></td>
  </tr>
</table>
  ",90.0,,,,,,,,,,,,,,,,,,,,,,,,,1.0,,
114,0,,html-keyboard-response,114,385148,0.0-4.18-2.18,yoktqpms48,2022-09-19 14:52:50.406,5c7eb988ac63960015004d03,0,44,41,30,33,62,male,,,"
  <table>
  <tr height=300>
    <td width=300 height=300><img src=""static/images/cards/7_of_red_stars.svg"" width=""175px"" height=""250px""></img></td>
    <td width=300 height=300><img src=""static/images/cards/back_of_red_stars.svg"" width=""175px"" height=""250px""></img></td>
  </tr>
  <tr height=200>
    <td width=300><img src=""static/images/keys/z.svg"" width=""35%"" height=""75%""></img></td>
    <td width=300><img src=""static/images/keys/m.svg"" width=""35%"" height=""75%""></img></td>
  </tr>
</table>
  ",,,,,,,,,,,,,,,,,,,,,,,,,,,,
115,0,,html-keyboard-response,115,386650,0.0-4.18-3.18,yoktqpms48,2022-09-19 14:52:50.406,5c7eb988ac63960015004d03,0,44,41,30,33,62,male,,,"<p style=""font-size:50px"">You win!
+10 points this round!</p>",,,,,,,,,,,,,,,,,,,,,,,,,,,,
116,0,,html-keyboard-response,116,387156,0.0-4.18-4.18,yoktqpms48,2022-09-19 14:52:50.406,5c7eb988ac63960015004d03,0,44,41,30,33,62,male,,,,,1.0,learning,18.0,A,,red,,stars,,,,A,red,stars,,1.0,1.0,NA,left,1090.099999994,7.0,1.0,1.0,,,,
117,0,,html-keyboard-response,117,388658,0.0-4.19-0.19,yoktqpms48,2022-09-19 14:52:50.406,5c7eb988ac63960015004d03,0,44,41,30,33,62,male,,,"<img src=""static/images/cards/stack_of_black_stars.svg"" width=""175px"" height=""250px""></img>",,,,,,,,,,,,,,,,,,,,,,,,,,,,
118,0,,html-keyboard-response,118,390043,0.0-4.19-1.19,yoktqpms48,2022-09-19 14:52:50.406,5c7eb988ac63960015004d03,0,44,41,30,33,62,male,883.099999994,,"
  <table>
  <tr height=300>
    <td width=300 height=300><img src=""static/images/cards/back_of_black_stars.svg"" width=""175px"" height=""250px""></img></td>
    <td width=300 height=300><img src=""static/images/cards/back_of_black_stars.svg"" width=""175px"" height=""250px""></img></td>
  </tr>
  <tr height=200>
    <td width=300><img src=""static/images/keys/z.svg"" width=""35%"" height=""75%""></img></td>
    <td width=300></td>
  </tr>
</table>
  ",90.0,,,,,,,,,,,,,,,,,,,,,,,,,1.0,,
119,0,,html-keyboard-response,119,391545,0.0-4.19-2.19,yoktqpms48,2022-09-19 14:52:50.406,5c7eb988ac63960015004d03,0,44,41,30,33,62,male,,,"
  <table>
  <tr height=300>
    <td width=300 height=300><img src=""static/images/cards/9_of_black_stars.svg"" width=""175px"" height=""250px""></img></td>
    <td width=300 height=300><img src=""static/images/cards/back_of_black_stars.svg"" width=""175px"" height=""250px""></img></td>
  </tr>
  <tr height=200>
    <td width=300><img src=""static/images/keys/z.svg"" width=""35%"" height=""75%""></img></td>
    <td width=300></td>
  </tr>
</table>
  ",,,,,,,,,,,,,,,,,,,,,,,,,,,,
120,0,,html-keyboard-response,120,393047,0.0-4.19-3.19,yoktqpms48,2022-09-19 14:52:50.406,5c7eb988ac63960015004d03,0,44,41,30,33,62,male,,,"<p style=""font-size:50px"">You win!
+10 points this round!</p>",,,,,,,,,,,,,,,,,,,,,,,,,,,,
121,0,,html-keyboard-response,121,393552,0.0-4.19-4.19,yoktqpms48,2022-09-19 14:52:50.406,5c7eb988ac63960015004d03,0,44,41,30,33,62,male,,,,,1.0,learning,19.0,B,,black,,stars,,,,B,black,stars,,0.0,1.0,1,left,883.099999994,9.0,1.0,1.0,,,,
122,0,,html-keyboard-response,122,395054,0.0-4.20-0.20,yoktqpms48,2022-09-19 14:52:50.406,5c7eb988ac63960015004d03,0,44,41,30,33,62,male,,,"<img src=""static/images/cards/stack_of_red_moons.svg"" width=""175px"" height=""250px""></img>",,,,,,,,,,,,,,,,,,,,,,,,,,,,
123,0,,html-keyboard-response,123,396795,0.0-4.20-1.20,yoktqpms48,2022-09-19 14:52:50.406,5c7eb988ac63960015004d03,0,44,41,30,33,62,male,1239.7000000179,,"
  <table>
  <tr height=300>
    <td width=300 height=300><img src=""static/images/cards/back_of_red_moons.svg"" width=""175px"" height=""250px""></img></td>
    <td width=300 height=300><img src=""static/images/cards/back_of_red_moons.svg"" width=""175px"" height=""250px""></img></td>
  </tr>
  <tr height=200>
    <td width=300><img src=""static/images/keys/z.svg"" width=""35%"" height=""75%""></img></td>
    <td width=300><img src=""static/images/keys/m.svg"" width=""35%"" height=""75%""></img></td>
  </tr>
</table>
  ",77.0,,,,,,,,,,,,,,,,,,,,,,,,,1.0,,
124,0,,html-keyboard-response,124,398297,0.0-4.20-2.20,yoktqpms48,2022-09-19 14:52:50.406,5c7eb988ac63960015004d03,0,44,41,30,33,62,male,,,"
  <table>
  <tr height=300>
    <td width=300 height=300><img src=""static/images/cards/back_of_red_moons.svg"" width=""175px"" height=""250px""></img></td>
    <td width=300 height=300><img src=""static/images/cards/9_of_red_moons.svg"" width=""175px"" height=""250px""></img></td>
  </tr>
  <tr height=200>
    <td width=300><img src=""static/images/keys/z.svg"" width=""35%"" height=""75%""></img></td>
    <td width=300><img src=""static/images/keys/m.svg"" width=""35%"" height=""75%""></img></td>
  </tr>
</table>
  ",,,,,,,,,,,,,,,,,,,,,,,,,,,,
125,0,,html-keyboard-response,125,399799,0.0-4.20-3.20,yoktqpms48,2022-09-19 14:52:50.406,5c7eb988ac63960015004d03,0,44,41,30,33,62,male,,,"<p style=""font-size:50px"">You win!
+10 points this round!</p>",,,,,,,,,,,,,,,,,,,,,,,,,,,,
126,0,,html-keyboard-response,126,400304,0.0-4.20-4.20,yoktqpms48,2022-09-19 14:52:50.406,5c7eb988ac63960015004d03,0,44,41,30,33,62,male,,,,,1.0,learning,20.0,C,,red,,moons,,,,C,red,moons,,1.0,0.0,NA,right,1239.7000000179,9.0,1.0,1.0,,,,
127,0,,html-keyboard-response,127,401806,0.0-4.21-0.21,yoktqpms48,2022-09-19 14:52:50.406,5c7eb988ac63960015004d03,0,44,41,30,33,62,male,,,"<img src=""static/images/cards/stack_of_black_moons.svg"" width=""175px"" height=""250px""></img>",,,,,,,,,,,,,,,,,,,,,,,,,,,,
128,0,,html-keyboard-response,128,403026,0.0-4.21-1.21,yoktqpms48,2022-09-19 14:52:50.406,5c7eb988ac63960015004d03,0,44,41,30,33,62,male,718.400000006,,"
  <table>
  <tr height=300>
    <td width=300 height=300><img src=""static/images/cards/back_of_black_moons.svg"" width=""175px"" height=""250px""></img></td>
    <td width=300 height=300><img src=""static/images/cards/back_of_black_moons.svg"" width=""175px"" height=""250px""></img></td>
  </tr>
  <tr height=200>
    <td width=300></td>
    <td width=300><img src=""static/images/keys/m.svg"" width=""35%"" height=""75%""></img></td>
  </tr>
</table>
  ",77.0,,,,,,,,,,,,,,,,,,,,,,,,,1.0,,
129,0,,html-keyboard-response,129,404527,0.0-4.21-2.21,yoktqpms48,2022-09-19 14:52:50.406,5c7eb988ac63960015004d03,0,44,41,30,33,62,male,,,"
  <table>
  <tr height=300>
    <td width=300 height=300><img src=""static/images/cards/back_of_black_moons.svg"" width=""175px"" height=""250px""></img></td>
    <td width=300 height=300><img src=""static/images/cards/4_of_black_moons.svg"" width=""175px"" height=""250px""></img></td>
  </tr>
  <tr height=200>
    <td width=300></td>
    <td width=300><img src=""static/images/keys/m.svg"" width=""35%"" height=""75%""></img></td>
  </tr>
</table>
  ",,,,,,,,,,,,,,,,,,,,,,,,,,,,
130,0,,html-keyboard-response,130,406030,0.0-4.21-3.21,yoktqpms48,2022-09-19 14:52:50.406,5c7eb988ac63960015004d03,0,44,41,30,33,62,male,,,"<p style=""font-size:50px"">You Lose!
No points this round.</p>",,,,,,,,,,,,,,,,,,,,,,,,,,,,
131,0,,html-keyboard-response,131,406537,0.0-4.21-4.21,yoktqpms48,2022-09-19 14:52:50.406,5c7eb988ac63960015004d03,0,44,41,30,33,62,male,,,,,1.0,learning,21.0,D,,black,,moons,,,,D,black,moons,,0.0,0.0,0,right,718.400000006,4.0,0.0,0.0,,,,
132,0,,html-keyboard-response,132,408038,0.0-4.22-0.22,yoktqpms48,2022-09-19 14:52:50.406,5c7eb988ac63960015004d03,0,44,41,30,33,62,male,,,"<img src=""static/images/cards/stack_of_red_bolts.svg"" width=""175px"" height=""250px""></img>",,,,,,,,,,,,,,,,,,,,,,,,,,,,
133,0,,html-keyboard-response,133,409007,0.0-4.22-1.22,yoktqpms48,2022-09-19 14:52:50.406,5c7eb988ac63960015004d03,0,44,41,30,33,62,male,468.5,,"
  <table>
  <tr height=300>
    <td width=300 height=300><img src=""static/images/cards/back_of_red_bolts.svg"" width=""175px"" height=""250px""></img></td>
    <td width=300 height=300><img src=""static/images/cards/back_of_red_bolts.svg"" width=""175px"" height=""250px""></img></td>
  </tr>
  <tr height=200>
    <td width=300><img src=""static/images/keys/z.svg"" width=""35%"" height=""75%""></img></td>
    <td width=300><img src=""static/images/keys/m.svg"" width=""35%"" height=""75%""></img></td>
  </tr>
</table>
  ",90.0,,,,,,,,,,,,,,,,,,,,,,,,,1.0,,
134,0,,html-keyboard-response,134,410509,0.0-4.22-2.22,yoktqpms48,2022-09-19 14:52:50.406,5c7eb988ac63960015004d03,0,44,41,30,33,62,male,,,"
  <table>
  <tr height=300>
    <td width=300 height=300><img src=""static/images/cards/9_of_red_bolts.svg"" width=""175px"" height=""250px""></img></td>
    <td width=300 height=300><img src=""static/images/cards/back_of_red_bolts.svg"" width=""175px"" height=""250px""></img></td>
  </tr>
  <tr height=200>
    <td width=300><img src=""static/images/keys/z.svg"" width=""35%"" height=""75%""></img></td>
    <td width=300><img src=""static/images/keys/m.svg"" width=""35%"" height=""75%""></img></td>
  </tr>
</table>
  ",,,,,,,,,,,,,,,,,,,,,,,,,,,,
135,0,,html-keyboard-response,135,412011,0.0-4.22-3.22,yoktqpms48,2022-09-19 14:52:50.406,5c7eb988ac63960015004d03,0,44,41,30,33,62,male,,,"<p style=""font-size:50px"">You win!
+10 points this round!</p>",,,,,,,,,,,,,,,,,,,,,,,,,,,,
136,0,,html-keyboard-response,136,412517,0.0-4.22-4.22,yoktqpms48,2022-09-19 14:52:50.406,5c7eb988ac63960015004d03,0,44,41,30,33,62,male,,,,,1.0,learning,22.0,Xc,,red,,bolts,,,,Xc,red,bolts,,1.0,0.0,NA,left,468.5,9.0,1.0,1.0,,,,
137,0,,html-keyboard-response,137,414018,0.0-4.23-0.23,yoktqpms48,2022-09-19 14:52:50.406,5c7eb988ac63960015004d03,0,44,41,30,33,62,male,,,"<img src=""static/images/cards/stack_of_black_bolts.svg"" width=""175px"" height=""250px""></img>",,,,,,,,,,,,,,,,,,,,,,,,,,,,
138,0,,html-keyboard-response,138,415048,0.0-4.23-1.23,yoktqpms48,2022-09-19 14:52:50.406,5c7eb988ac63960015004d03,0,44,41,30,33,62,male,528.599999994,,"
  <table>
  <tr height=300>
    <td width=300 height=300><img src=""static/images/cards/back_of_black_bolts.svg"" width=""175px"" height=""250px""></img></td>
    <td width=300 height=300><img src=""static/images/cards/back_of_black_bolts.svg"" width=""175px"" height=""250px""></img></td>
  </tr>
  <tr height=200>
    <td width=300></td>
    <td width=300><img src=""static/images/keys/m.svg"" width=""35%"" height=""75%""></img></td>
  </tr>
</table>
  ",77.0,,,,,,,,,,,,,,,,,,,,,,,,,1.0,,
139,0,,html-keyboard-response,139,416549,0.0-4.23-2.23,yoktqpms48,2022-09-19 14:52:50.406,5c7eb988ac63960015004d03,0,44,41,30,33,62,male,,,"
  <table>
  <tr height=300>
    <td width=300 height=300><img src=""static/images/cards/back_of_black_bolts.svg"" width=""175px"" height=""250px""></img></td>
    <td width=300 height=300><img src=""static/images/cards/9_of_black_bolts.svg"" width=""175px"" height=""250px""></img></td>
  </tr>
  <tr height=200>
    <td width=300></td>
    <td width=300><img src=""static/images/keys/m.svg"" width=""35%"" height=""75%""></img></td>
  </tr>
</table>
  ",,,,,,,,,,,,,,,,,,,,,,,,,,,,
140,0,,html-keyboard-response,140,418051,0.0-4.23-3.23,yoktqpms48,2022-09-19 14:52:50.406,5c7eb988ac63960015004d03,0,44,41,30,33,62,male,,,"<p style=""font-size:50px"">You win!
+10 points this round!</p>",,,,,,,,,,,,,,,,,,,,,,,,,,,,
141,0,,html-keyboard-response,141,418556,0.0-4.23-4.23,yoktqpms48,2022-09-19 14:52:50.406,5c7eb988ac63960015004d03,0,44,41,30,33,62,male,,,,,1.0,learning,23.0,Xnc,,black,,bolts,,,,Xnc,black,bolts,,0.0,0.0,0,right,528.599999994,9.0,1.0,1.0,,,,
142,0,,call-function,142,418560,0.0-5.0,yoktqpms48,2022-09-19 14:52:50.406,5c7eb988ac63960015004d03,0,44,41,30,33,62,male,,,,,,,,,,,,,,,,,,,,,,,,,,,,,,,
143,0,,image-keyboard-response,143,425872,0.0-6.0-0.0,yoktqpms48,2022-09-19 14:52:50.406,5c7eb988ac63960015004d03,0,44,41,30,33,62,male,7311.5,,static/images/instructions_CB_0/Slide20.png,39.0,,,,,,,,,,,,,,,,,,,,,,,,,,,
144,0,,image-keyboard-response,144,444565,0.0-6.1-0.1,yoktqpms48,2022-09-19 14:52:50.406,5c7eb988ac63960015004d03,0,44,41,30,33,62,male,18692.2999999821,,static/images/instructions_CB_0/Slide21.png,37.0,,,,,,,,,,,,,,,,,,,,,,,,,,,
145,0,,image-keyboard-response,145,450831,0.0-6.2-0.2,yoktqpms48,2022-09-19 14:52:50.406,5c7eb988ac63960015004d03,0,44,41,30,33,62,male,6265.5,,static/images/instructions_CB_0/Slide20.png,39.0,,,,,,,,,,,,,,,,,,,,,,,,,,,
146,0,,image-keyboard-response,146,454102,0.0-6.3-0.3,yoktqpms48,2022-09-19 14:52:50.406,5c7eb988ac63960015004d03,0,44,41,30,33,62,male,3270.8000000119,,static/images/instructions_CB_0/Slide21.png,39.0,,,,,,,,,,,,,,,,,,,,,,,,,,,
147,0,,image-keyboard-response,147,472706,0.0-6.4-0.4,yoktqpms48,2022-09-19 14:52:50.406,5c7eb988ac63960015004d03,0,44,41,30,33,62,male,18603.5,,static/images/instructions_CB_0/Slide22.png,39.0,,,,,,,,,,,,,,,,,,,,,,,,,,,
148,0,,image-keyboard-response,148,481164,0.0-6.5-0.5,yoktqpms48,2022-09-19 14:52:50.406,5c7eb988ac63960015004d03,0,44,41,30,33,62,male,8457.400000006,,static/images/instructions_CB_0/Slide23.png,39.0,,,,,,,,,,,,,,,,,,,,,,,,,,,
149,0,,image-keyboard-response,149,485568,0.0-6.6-0.6,yoktqpms48,2022-09-19 14:52:50.406,5c7eb988ac63960015004d03,0,44,41,30,33,62,male,4402.900000006,,static/images/instructions_CB_0/Slide24.png,39.0,,,,,,,,,,,,,,,,,,,,,,,,,,,
150,0,,html-keyboard-response,150,488687,0.0-7.0-0.0,yoktqpms48,2022-09-19 14:52:50.406,5c7eb988ac63960015004d03,0,44,41,30,33,62,male,3118.599999994,,"
  <table>
  <tr height=300>
    <td width=300 height=300><img src=""static/images/cards/stack_of_black_stars.svg"" width=""175px"" height=""250px""></img></td>
    <td width=300 height=300><img src=""static/images/cards/stack_of_black_moons.svg"" width=""175px"" height=""250px""></img></td>
  </tr>
  <tr height=200>
    <td width=300><img src=""static/images/keys/w.svg"" width=""35%"" height=""75%""></img></td>
    <td width=300><img src=""static/images/keys/o.svg"" width=""35%"" height=""75%""></img></td>
  </tr>
</table>
  ",87.0,,,,,,,,,,,,,,,,,,,,,,,,,1.0,,
151,0,,html-keyboard-response,151,490588,0.0-7.0-1.0,yoktqpms48,2022-09-19 14:52:50.406,5c7eb988ac63960015004d03,0,44,41,30,33,62,male,1398.6999999881,,"
  <table>
  <tr height=300>
    <td width=300 height=300><img src=""static/images/cards/back_of_black_stars.svg"" width=""175px"" height=""250px""></img></td>
    <td width=300 height=300><img src=""static/images/cards/back_of_black_stars.svg"" width=""175px"" height=""250px""></img></td>
  </tr>
  <tr height=200>
    <td width=300><img src=""static/images/keys/z.svg"" width=""35%"" height=""75%""></img></td>
    <td width=300></td>
  </tr>
</table>
  ",90.0,,,,,,,,,,,,,,,,,,,,,,,,,1.0,,
152,0,,html-keyboard-response,152,492090,0.0-7.0-2.0,yoktqpms48,2022-09-19 14:52:50.406,5c7eb988ac63960015004d03,0,44,41,30,33,62,male,,,"
  <table>
  <tr height=300>
    <td width=300 height=300><img src=""static/images/cards/1_of_black_stars.svg"" width=""175px"" height=""250px""></img></td>
    <td width=300 height=300><img src=""static/images/cards/back_of_black_stars.svg"" width=""175px"" height=""250px""></img></td>
  </tr>
  <tr height=200>
    <td width=300><img src=""static/images/keys/z.svg"" width=""35%"" height=""75%""></img></td>
    <td width=300></td>
  </tr>
</table>
  ",,,,,,,,,,,,,,,,,,,,,,,,,,,,
153,0,,html-keyboard-response,153,493592,0.0-7.0-3.0,yoktqpms48,2022-09-19 14:52:50.406,5c7eb988ac63960015004d03,0,44,41,30,33,62,male,,,"<p style=""font-size:50px"">You Lose!
No points this round.</p>",,,,,,,,,,,,,,,,,,,,,,,,,,,,
154,0,,html-keyboard-response,154,494098,0.0-7.0-4.0,yoktqpms48,2022-09-19 14:52:50.406,5c7eb988ac63960015004d03,0,44,41,30,33,62,male,,,,,1.0,choice,0.0,B,D,black,black,stars,moons,B,D,B,black,stars,3118.599999994,0.0,1.0,1,left,1398.6999999881,1.0,0.0,0.0,,,,
155,0,,html-keyboard-response,155,496114,0.0-7.1-0.1,yoktqpms48,2022-09-19 14:52:50.406,5c7eb988ac63960015004d03,0,44,41,30,33,62,male,2015.900000006,,"
  <table>
  <tr height=300>
    <td width=300 height=300><img src=""static/images/cards/stack_of_red_stars.svg"" width=""175px"" height=""250px""></img></td>
    <td width=300 height=300><img src=""static/images/cards/stack_of_black_stars.svg"" width=""175px"" height=""250px""></img></td>
  </tr>
  <tr height=200>
    <td width=300><img src=""static/images/keys/w.svg"" width=""35%"" height=""75%""></img></td>
    <td width=300><img src=""static/images/keys/o.svg"" width=""35%"" height=""75%""></img></td>
  </tr>
</table>
  ",87.0,,,,,,,,,,,,,,,,,,,,,,,,,1.0,,
156,0,,html-keyboard-response,156,497981,0.0-7.1-1.1,yoktqpms48,2022-09-19 14:52:50.406,5c7eb988ac63960015004d03,0,44,41,30,33,62,male,1364.6999999881,,"
  <table>
  <tr height=300>
    <td width=300 height=300><img src=""static/images/cards/back_of_red_stars.svg"" width=""175px"" height=""250px""></img></td>
    <td width=300 height=300><img src=""static/images/cards/back_of_red_stars.svg"" width=""175px"" height=""250px""></img></td>
  </tr>
  <tr height=200>
    <td width=300><img src=""static/images/keys/z.svg"" width=""35%"" height=""75%""></img></td>
    <td width=300><img src=""static/images/keys/m.svg"" width=""35%"" height=""75%""></img></td>
  </tr>
</table>
  ",90.0,,,,,,,,,,,,,,,,,,,,,,,,,1.0,,
157,0,,html-keyboard-response,157,499482,0.0-7.1-2.1,yoktqpms48,2022-09-19 14:52:50.406,5c7eb988ac63960015004d03,0,44,41,30,33,62,male,,,"
  <table>
  <tr height=300>
    <td width=300 height=300><img src=""static/images/cards/1_of_red_stars.svg"" width=""175px"" height=""250px""></img></td>
    <td width=300 height=300><img src=""static/images/cards/back_of_red_stars.svg"" width=""175px"" height=""250px""></img></td>
  </tr>
  <tr height=200>
    <td width=300><img src=""static/images/keys/z.svg"" width=""35%"" height=""75%""></img></td>
    <td width=300><img src=""static/images/keys/m.svg"" width=""35%"" height=""75%""></img></td>
  </tr>
</table>
  ",,,,,,,,,,,,,,,,,,,,,,,,,,,,
158,0,,html-keyboard-response,158,500986,0.0-7.1-3.1,yoktqpms48,2022-09-19 14:52:50.406,5c7eb988ac63960015004d03,0,44,41,30,33,62,male,,,"<p style=""font-size:50px"">You Lose!
No points this round.</p>",,,,,,,,,,,,,,,,,,,,,,,,,,,,
159,0,,html-keyboard-response,159,501492,0.0-7.1-4.1,yoktqpms48,2022-09-19 14:52:50.406,5c7eb988ac63960015004d03,0,44,41,30,33,62,male,,,,,1.0,choice,1.0,A,B,red,black,stars,stars,A,B,A,red,stars,2015.900000006,1.0,1.0,NA,left,1364.6999999881,1.0,0.0,0.0,,,,
160,0,,html-keyboard-response,160,502989,0.0-7.2-0.2,yoktqpms48,2022-09-19 14:52:50.406,5c7eb988ac63960015004d03,0,44,41,30,33,62,male,1496.1999999881,,"
  <table>
  <tr height=300>
    <td width=300 height=300><img src=""static/images/cards/stack_of_red_stars.svg"" width=""175px"" height=""250px""></img></td>
    <td width=300 height=300><img src=""static/images/cards/stack_of_black_bolts.svg"" width=""175px"" height=""250px""></img></td>
  </tr>
  <tr height=200>
    <td width=300><img src=""static/images/keys/w.svg"" width=""35%"" height=""75%""></img></td>
    <td width=300><img src=""static/images/keys/o.svg"" width=""35%"" height=""75%""></img></td>
  </tr>
</table>
  ",79.0,,,,,,,,,,,,,,,,,,,,,,,,,1.0,,
161,0,,html-keyboard-response,161,504625,0.0-7.2-1.2,yoktqpms48,2022-09-19 14:52:50.406,5c7eb988ac63960015004d03,0,44,41,30,33,62,male,1133.599999994,,"
  <table>
  <tr height=300>
    <td width=300 height=300><img src=""static/images/cards/back_of_black_bolts.svg"" width=""175px"" height=""250px""></img></td>
    <td width=300 height=300><img src=""static/images/cards/back_of_black_bolts.svg"" width=""175px"" height=""250px""></img></td>
  </tr>
  <tr height=200>
    <td width=300><img src=""static/images/keys/z.svg"" width=""35%"" height=""75%""></img></td>
    <td width=300></td>
  </tr>
</table>
  ",90.0,,,,,,,,,,,,,,,,,,,,,,,,,1.0,,
162,0,,html-keyboard-response,162,506126,0.0-7.2-2.2,yoktqpms48,2022-09-19 14:52:50.406,5c7eb988ac63960015004d03,0,44,41,30,33,62,male,,,"
  <table>
  <tr height=300>
    <td width=300 height=300><img src=""static/images/cards/6_of_black_bolts.svg"" width=""175px"" height=""250px""></img></td>
    <td width=300 height=300><img src=""static/images/cards/back_of_black_bolts.svg"" width=""175px"" height=""250px""></img></td>
  </tr>
  <tr height=200>
    <td width=300><img src=""static/images/keys/z.svg"" width=""35%"" height=""75%""></img></td>
    <td width=300></td>
  </tr>
</table>
  ",,,,,,,,,,,,,,,,,,,,,,,,,,,,
163,0,,html-keyboard-response,163,507628,0.0-7.2-3.2,yoktqpms48,2022-09-19 14:52:50.406,5c7eb988ac63960015004d03,0,44,41,30,33,62,male,,,"<p style=""font-size:50px"">You win!
+10 points this round!</p>",,,,,,,,,,,,,,,,,,,,,,,,,,,,
164,0,,html-keyboard-response,164,508136,0.0-7.2-4.2,yoktqpms48,2022-09-19 14:52:50.406,5c7eb988ac63960015004d03,0,44,41,30,33,62,male,,,,,1.0,choice,2.0,A,Xnc,red,black,stars,bolts,A,Xnc,Xnc,black,bolts,1496.1999999881,0.0,0.0,1,left,1133.599999994,6.0,1.0,1.0,,,,
165,0,,html-keyboard-response,165,509343,0.0-7.3-0.3,yoktqpms48,2022-09-19 14:52:50.406,5c7eb988ac63960015004d03,0,44,41,30,33,62,male,1206.099999994,,"
  <table>
  <tr height=300>
    <td width=300 height=300><img src=""static/images/cards/stack_of_red_stars.svg"" width=""175px"" height=""250px""></img></td>
    <td width=300 height=300><img src=""static/images/cards/stack_of_black_stars.svg"" width=""175px"" height=""250px""></img></td>
  </tr>
  <tr height=200>
    <td width=300><img src=""static/images/keys/w.svg"" width=""35%"" height=""75%""></img></td>
    <td width=300><img src=""static/images/keys/o.svg"" width=""35%"" height=""75%""></img></td>
  </tr>
</table>
  ",79.0,,,,,,,,,,,,,,,,,,,,,,,,,1.0,,
166,0,,html-keyboard-response,166,511050,0.0-7.3-1.3,yoktqpms48,2022-09-19 14:52:50.406,5c7eb988ac63960015004d03,0,44,41,30,33,62,male,1205.7999999821,,"
  <table>
  <tr height=300>
    <td width=300 height=300><img src=""static/images/cards/back_of_black_stars.svg"" width=""175px"" height=""250px""></img></td>
    <td width=300 height=300><img src=""static/images/cards/back_of_black_stars.svg"" width=""175px"" height=""250px""></img></td>
  </tr>
  <tr height=200>
    <td width=300></td>
    <td width=300><img src=""static/images/keys/m.svg"" width=""35%"" height=""75%""></img></td>
  </tr>
</table>
  ",77.0,,,,,,,,,,,,,,,,,,,,,,,,,1.0,,
167,0,,html-keyboard-response,167,512551,0.0-7.3-2.3,yoktqpms48,2022-09-19 14:52:50.406,5c7eb988ac63960015004d03,0,44,41,30,33,62,male,,,"
  <table>
  <tr height=300>
    <td width=300 height=300><img src=""static/images/cards/back_of_black_stars.svg"" width=""175px"" height=""250px""></img></td>
    <td width=300 height=300><img src=""static/images/cards/1_of_black_stars.svg"" width=""175px"" height=""250px""></img></td>
  </tr>
  <tr height=200>
    <td width=300></td>
    <td width=300><img src=""static/images/keys/m.svg"" width=""35%"" height=""75%""></img></td>
  </tr>
</table>
  ",,,,,,,,,,,,,,,,,,,,,,,,,,,,
168,0,,html-keyboard-response,168,514054,0.0-7.3-3.3,yoktqpms48,2022-09-19 14:52:50.406,5c7eb988ac63960015004d03,0,44,41,30,33,62,male,,,"<p style=""font-size:50px"">You Lose!
No points this round.</p>",,,,,,,,,,,,,,,,,,,,,,,,,,,,
169,0,,html-keyboard-response,169,514559,0.0-7.3-4.3,yoktqpms48,2022-09-19 14:52:50.406,5c7eb988ac63960015004d03,0,44,41,30,33,62,male,,,,,1.0,choice,3.0,A,B,red,black,stars,stars,A,B,B,black,stars,1206.099999994,0.0,1.0,0,right,1205.7999999821,1.0,0.0,0.0,,,,
170,0,,html-keyboard-response,170,516178,0.0-7.4-0.4,yoktqpms48,2022-09-19 14:52:50.406,5c7eb988ac63960015004d03,0,44,41,30,33,62,male,1617.5,,"
  <table>
  <tr height=300>
    <td width=300 height=300><img src=""static/images/cards/stack_of_red_stars.svg"" width=""175px"" height=""250px""></img></td>
    <td width=300 height=300><img src=""static/images/cards/stack_of_black_moons.svg"" width=""175px"" height=""250px""></img></td>
  </tr>
  <tr height=200>
    <td width=300><img src=""static/images/keys/w.svg"" width=""35%"" height=""75%""></img></td>
    <td width=300><img src=""static/images/keys/o.svg"" width=""35%"" height=""75%""></img></td>
  </tr>
</table>
  ",87.0,,,,,,,,,,,,,,,,,,,,,,,,,1.0,,
171,0,,html-keyboard-response,171,517619,0.0-7.4-1.4,yoktqpms48,2022-09-19 14:52:50.406,5c7eb988ac63960015004d03,0,44,41,30,33,62,male,939.599999994,,"
  <table>
  <tr height=300>
    <td width=300 height=300><img src=""static/images/cards/back_of_red_stars.svg"" width=""175px"" height=""250px""></img></td>
    <td width=300 height=300><img src=""static/images/cards/back_of_red_stars.svg"" width=""175px"" height=""250px""></img></td>
  </tr>
  <tr height=200>
    <td width=300><img src=""static/images/keys/z.svg"" width=""35%"" height=""75%""></img></td>
    <td width=300><img src=""static/images/keys/m.svg"" width=""35%"" height=""75%""></img></td>
  </tr>
</table>
  ",90.0,,,,,,,,,,,,,,,,,,,,,,,,,1.0,,
172,0,,html-keyboard-response,172,519120,0.0-7.4-2.4,yoktqpms48,2022-09-19 14:52:50.406,5c7eb988ac63960015004d03,0,44,41,30,33,62,male,,,"
  <table>
  <tr height=300>
    <td width=300 height=300><img src=""static/images/cards/4_of_red_stars.svg"" width=""175px"" height=""250px""></img></td>
    <td width=300 height=300><img src=""static/images/cards/back_of_red_stars.svg"" width=""175px"" height=""250px""></img></td>
  </tr>
  <tr height=200>
    <td width=300><img src=""static/images/keys/z.svg"" width=""35%"" height=""75%""></img></td>
    <td width=300><img src=""static/images/keys/m.svg"" width=""35%"" height=""75%""></img></td>
  </tr>
</table>
  ",,,,,,,,,,,,,,,,,,,,,,,,,,,,
173,0,,html-keyboard-response,173,520623,0.0-7.4-3.4,yoktqpms48,2022-09-19 14:52:50.406,5c7eb988ac63960015004d03,0,44,41,30,33,62,male,,,"<p style=""font-size:50px"">You Lose!
No points this round.</p>",,,,,,,,,,,,,,,,,,,,,,,,,,,,
174,0,,html-keyboard-response,174,521130,0.0-7.4-4.4,yoktqpms48,2022-09-19 14:52:50.406,5c7eb988ac63960015004d03,0,44,41,30,33,62,male,,,,,1.0,choice,4.0,A,D,red,black,stars,moons,A,D,A,red,stars,1617.5,1.0,1.0,NA,left,939.599999994,4.0,0.0,0.0,,,,
175,0,,html-keyboard-response,175,522726,0.0-7.5-0.5,yoktqpms48,2022-09-19 14:52:50.406,5c7eb988ac63960015004d03,0,44,41,30,33,62,male,1594.5,,"
  <table>
  <tr height=300>
    <td width=300 height=300><img src=""static/images/cards/stack_of_red_stars.svg"" width=""175px"" height=""250px""></img></td>
    <td width=300 height=300><img src=""static/images/cards/stack_of_red_moons.svg"" width=""175px"" height=""250px""></img></td>
  </tr>
  <tr height=200>
    <td width=300><img src=""static/images/keys/w.svg"" width=""35%"" height=""75%""></img></td>
    <td width=300><img src=""static/images/keys/o.svg"" width=""35%"" height=""75%""></img></td>
  </tr>
</table>
  ",79.0,,,,,,,,,,,,,,,,,,,,,,,,,1.0,,
176,0,,html-keyboard-response,176,524299,0.0-7.5-1.5,yoktqpms48,2022-09-19 14:52:50.406,5c7eb988ac63960015004d03,0,44,41,30,33,62,male,1060.8000000119,,"
  <table>
  <tr height=300>
    <td width=300 height=300><img src=""static/images/cards/back_of_red_moons.svg"" width=""175px"" height=""250px""></img></td>
    <td width=300 height=300><img src=""static/images/cards/back_of_red_moons.svg"" width=""175px"" height=""250px""></img></td>
  </tr>
  <tr height=200>
    <td width=300><img src=""static/images/keys/z.svg"" width=""35%"" height=""75%""></img></td>
    <td width=300><img src=""static/images/keys/m.svg"" width=""35%"" height=""75%""></img></td>
  </tr>
</table>
  ",77.0,,,,,,,,,,,,,,,,,,,,,,,,,1.0,,
177,0,,html-keyboard-response,177,525801,0.0-7.5-2.5,yoktqpms48,2022-09-19 14:52:50.406,5c7eb988ac63960015004d03,0,44,41,30,33,62,male,,,"
  <table>
  <tr height=300>
    <td width=300 height=300><img src=""static/images/cards/back_of_red_moons.svg"" width=""175px"" height=""250px""></img></td>
    <td width=300 height=300><img src=""static/images/cards/2_of_red_moons.svg"" width=""175px"" height=""250px""></img></td>
  </tr>
  <tr height=200>
    <td width=300><img src=""static/images/keys/z.svg"" width=""35%"" height=""75%""></img></td>
    <td width=300><img src=""static/images/keys/m.svg"" width=""35%"" height=""75%""></img></td>
  </tr>
</table>
  ",,,,,,,,,,,,,,,,,,,,,,,,,,,,
178,0,,html-keyboard-response,178,527304,0.0-7.5-3.5,yoktqpms48,2022-09-19 14:52:50.406,5c7eb988ac63960015004d03,0,44,41,30,33,62,male,,,"<p style=""font-size:50px"">You win!
+10 points this round!</p>",,,,,,,,,,,,,,,,,,,,,,,,,,,,
179,0,,html-keyboard-response,179,527811,0.0-7.5-4.5,yoktqpms48,2022-09-19 14:52:50.406,5c7eb988ac63960015004d03,0,44,41,30,33,62,male,,,,,1.0,choice,5.0,A,C,red,red,stars,moons,A,C,C,red,moons,1594.5,1.0,0.0,NA,right,1060.8000000119,2.0,0.0,1.0,,,,
180,0,,html-keyboard-response,180,529184,0.0-7.6-0.6,yoktqpms48,2022-09-19 14:52:50.406,5c7eb988ac63960015004d03,0,44,41,30,33,62,male,1371.7000000179,,"
  <table>
  <tr height=300>
    <td width=300 height=300><img src=""static/images/cards/stack_of_black_stars.svg"" width=""175px"" height=""250px""></img></td>
    <td width=300 height=300><img src=""static/images/cards/stack_of_red_bolts.svg"" width=""175px"" height=""250px""></img></td>
  </tr>
  <tr height=200>
    <td width=300><img src=""static/images/keys/w.svg"" width=""35%"" height=""75%""></img></td>
    <td width=300><img src=""static/images/keys/o.svg"" width=""35%"" height=""75%""></img></td>
  </tr>
</table>
  ",79.0,,,,,,,,,,,,,,,,,,,,,,,,,1.0,,
181,0,,html-keyboard-response,181,530502,0.0-7.6-1.6,yoktqpms48,2022-09-19 14:52:50.406,5c7eb988ac63960015004d03,0,44,41,30,33,62,male,816.3000000119,,"
  <table>
  <tr height=300>
    <td width=300 height=300><img src=""static/images/cards/back_of_red_bolts.svg"" width=""175px"" height=""250px""></img></td>
    <td width=300 height=300><img src=""static/images/cards/back_of_red_bolts.svg"" width=""175px"" height=""250px""></img></td>
  </tr>
  <tr height=200>
    <td width=300><img src=""static/images/keys/z.svg"" width=""35%"" height=""75%""></img></td>
    <td width=300><img src=""static/images/keys/m.svg"" width=""35%"" height=""75%""></img></td>
  </tr>
</table>
  ",77.0,,,,,,,,,,,,,,,,,,,,,,,,,1.0,,
182,0,,html-keyboard-response,182,532004,0.0-7.6-2.6,yoktqpms48,2022-09-19 14:52:50.406,5c7eb988ac63960015004d03,0,44,41,30,33,62,male,,,"
  <table>
  <tr height=300>
    <td width=300 height=300><img src=""static/images/cards/back_of_red_bolts.svg"" width=""175px"" height=""250px""></img></td>
    <td width=300 height=300><img src=""static/images/cards/6_of_red_bolts.svg"" width=""175px"" height=""250px""></img></td>
  </tr>
  <tr height=200>
    <td width=300><img src=""static/images/keys/z.svg"" width=""35%"" height=""75%""></img></td>
    <td width=300><img src=""static/images/keys/m.svg"" width=""35%"" height=""75%""></img></td>
  </tr>
</table>
  ",,,,,,,,,,,,,,,,,,,,,,,,,,,,
183,0,,html-keyboard-response,183,533507,0.0-7.6-3.6,yoktqpms48,2022-09-19 14:52:50.406,5c7eb988ac63960015004d03,0,44,41,30,33,62,male,,,"<p style=""font-size:50px"">You win!
+10 points this round!</p>",,,,,,,,,,,,,,,,,,,,,,,,,,,,
184,0,,html-keyboard-response,184,534014,0.0-7.6-4.6,yoktqpms48,2022-09-19 14:52:50.406,5c7eb988ac63960015004d03,0,44,41,30,33,62,male,,,,,1.0,choice,6.0,B,Xc,black,red,stars,bolts,B,Xc,Xc,red,bolts,1371.7000000179,1.0,0.0,NA,right,816.3000000119,6.0,1.0,1.0,,,,
185,0,,html-keyboard-response,185,534873,0.0-7.7-0.7,yoktqpms48,2022-09-19 14:52:50.406,5c7eb988ac63960015004d03,0,44,41,30,33,62,male,859.099999994,,"
  <table>
  <tr height=300>
    <td width=300 height=300><img src=""static/images/cards/stack_of_black_moons.svg"" width=""175px"" height=""250px""></img></td>
    <td width=300 height=300><img src=""static/images/cards/stack_of_red_stars.svg"" width=""175px"" height=""250px""></img></td>
  </tr>
  <tr height=200>
    <td width=300><img src=""static/images/keys/w.svg"" width=""35%"" height=""75%""></img></td>
    <td width=300><img src=""static/images/keys/o.svg"" width=""35%"" height=""75%""></img></td>
  </tr>
</table>
  ",79.0,,,,,,,,,,,,,,,,,,,,,,,,,1.0,,
186,0,,html-keyboard-response,186,536192,0.0-7.7-1.7,yoktqpms48,2022-09-19 14:52:50.406,5c7eb988ac63960015004d03,0,44,41,30,33,62,male,817.400000006,,"
  <table>
  <tr height=300>
    <td width=300 height=300><img src=""static/images/cards/back_of_red_stars.svg"" width=""175px"" height=""250px""></img></td>
    <td width=300 height=300><img src=""static/images/cards/back_of_red_stars.svg"" width=""175px"" height=""250px""></img></td>
  </tr>
  <tr height=200>
    <td width=300><img src=""static/images/keys/z.svg"" width=""35%"" height=""75%""></img></td>
    <td width=300><img src=""static/images/keys/m.svg"" width=""35%"" height=""75%""></img></td>
  </tr>
</table>
  ",77.0,,,,,,,,,,,,,,,,,,,,,,,,,1.0,,
187,0,,html-keyboard-response,187,537694,0.0-7.7-2.7,yoktqpms48,2022-09-19 14:52:50.406,5c7eb988ac63960015004d03,0,44,41,30,33,62,male,,,"
  <table>
  <tr height=300>
    <td width=300 height=300><img src=""static/images/cards/back_of_red_stars.svg"" width=""175px"" height=""250px""></img></td>
    <td width=300 height=300><img src=""static/images/cards/3_of_red_stars.svg"" width=""175px"" height=""250px""></img></td>
  </tr>
  <tr height=200>
    <td width=300><img src=""static/images/keys/z.svg"" width=""35%"" height=""75%""></img></td>
    <td width=300><img src=""static/images/keys/m.svg"" width=""35%"" height=""75%""></img></td>
  </tr>
</table>
  ",,,,,,,,,,,,,,,,,,,,,,,,,,,,
188,0,,html-keyboard-response,188,539197,0.0-7.7-3.7,yoktqpms48,2022-09-19 14:52:50.406,5c7eb988ac63960015004d03,0,44,41,30,33,62,male,,,"<p style=""font-size:50px"">You Lose!
No points this round.</p>",,,,,,,,,,,,,,,,,,,,,,,,,,,,
189,0,,html-keyboard-response,189,539703,0.0-7.7-4.7,yoktqpms48,2022-09-19 14:52:50.406,5c7eb988ac63960015004d03,0,44,41,30,33,62,male,,,,,1.0,choice,7.0,A,D,black,red,moons,stars,D,A,A,red,stars,859.099999994,1.0,1.0,NA,right,817.400000006,3.0,0.0,0.0,,,,
190,0,,html-keyboard-response,190,541526,0.0-7.8-0.8,yoktqpms48,2022-09-19 14:52:50.406,5c7eb988ac63960015004d03,0,44,41,30,33,62,male,1820.900000006,,"
  <table>
  <tr height=300>
    <td width=300 height=300><img src=""static/images/cards/stack_of_red_stars.svg"" width=""175px"" height=""250px""></img></td>
    <td width=300 height=300><img src=""static/images/cards/stack_of_black_moons.svg"" width=""175px"" height=""250px""></img></td>
  </tr>
  <tr height=200>
    <td width=300><img src=""static/images/keys/w.svg"" width=""35%"" height=""75%""></img></td>
    <td width=300><img src=""static/images/keys/o.svg"" width=""35%"" height=""75%""></img></td>
  </tr>
</table>
  ",87.0,,,,,,,,,,,,,,,,,,,,,,,,,1.0,,
191,0,,html-keyboard-response,191,543208,0.0-7.8-1.8,yoktqpms48,2022-09-19 14:52:50.406,5c7eb988ac63960015004d03,0,44,41,30,33,62,male,1181.3999999762,,"
  <table>
  <tr height=300>
    <td width=300 height=300><img src=""static/images/cards/back_of_red_stars.svg"" width=""175px"" height=""250px""></img></td>
    <td width=300 height=300><img src=""static/images/cards/back_of_red_stars.svg"" width=""175px"" height=""250px""></img></td>
  </tr>
  <tr height=200>
    <td width=300><img src=""static/images/keys/z.svg"" width=""35%"" height=""75%""></img></td>
    <td width=300><img src=""static/images/keys/m.svg"" width=""35%"" height=""75%""></img></td>
  </tr>
</table>
  ",90.0,,,,,,,,,,,,,,,,,,,,,,,,,1.0,,
192,0,,html-keyboard-response,192,544709,0.0-7.8-2.8,yoktqpms48,2022-09-19 14:52:50.406,5c7eb988ac63960015004d03,0,44,41,30,33,62,male,,,"
  <table>
  <tr height=300>
    <td width=300 height=300><img src=""static/images/cards/4_of_red_stars.svg"" width=""175px"" height=""250px""></img></td>
    <td width=300 height=300><img src=""static/images/cards/back_of_red_stars.svg"" width=""175px"" height=""250px""></img></td>
  </tr>
  <tr height=200>
    <td width=300><img src=""static/images/keys/z.svg"" width=""35%"" height=""75%""></img></td>
    <td width=300><img src=""static/images/keys/m.svg"" width=""35%"" height=""75%""></img></td>
  </tr>
</table>
  ",,,,,,,,,,,,,,,,,,,,,,,,,,,,
193,0,,html-keyboard-response,193,546211,0.0-7.8-3.8,yoktqpms48,2022-09-19 14:52:50.406,5c7eb988ac63960015004d03,0,44,41,30,33,62,male,,,"<p style=""font-size:50px"">You Lose!
No points this round.</p>",,,,,,,,,,,,,,,,,,,,,,,,,,,,
194,0,,html-keyboard-response,194,546717,0.0-7.8-4.8,yoktqpms48,2022-09-19 14:52:50.406,5c7eb988ac63960015004d03,0,44,41,30,33,62,male,,,,,1.0,choice,8.0,A,D,red,black,stars,moons,A,D,A,red,stars,1820.900000006,1.0,1.0,NA,left,1181.3999999762,4.0,0.0,0.0,,,,
195,0,,html-keyboard-response,195,547676,0.0-7.9-0.9,yoktqpms48,2022-09-19 14:52:50.406,5c7eb988ac63960015004d03,0,44,41,30,33,62,male,957.599999994,,"
  <table>
  <tr height=300>
    <td width=300 height=300><img src=""static/images/cards/stack_of_black_moons.svg"" width=""175px"" height=""250px""></img></td>
    <td width=300 height=300><img src=""static/images/cards/stack_of_black_stars.svg"" width=""175px"" height=""250px""></img></td>
  </tr>
  <tr height=200>
    <td width=300><img src=""static/images/keys/w.svg"" width=""35%"" height=""75%""></img></td>
    <td width=300><img src=""static/images/keys/o.svg"" width=""35%"" height=""75%""></img></td>
  </tr>
</table>
  ",79.0,,,,,,,,,,,,,,,,,,,,,,,,,1.0,,
196,0,,html-keyboard-response,196,548922,0.0-7.9-1.9,yoktqpms48,2022-09-19 14:52:50.406,5c7eb988ac63960015004d03,0,44,41,30,33,62,male,744.7000000179,,"
  <table>
  <tr height=300>
    <td width=300 height=300><img src=""static/images/cards/back_of_black_stars.svg"" width=""175px"" height=""250px""></img></td>
    <td width=300 height=300><img src=""static/images/cards/back_of_black_stars.svg"" width=""175px"" height=""250px""></img></td>
  </tr>
  <tr height=200>
    <td width=300></td>
    <td width=300><img src=""static/images/keys/m.svg"" width=""35%"" height=""75%""></img></td>
  </tr>
</table>
  ",77.0,,,,,,,,,,,,,,,,,,,,,,,,,1.0,,
197,0,,html-keyboard-response,197,550436,0.0-7.9-2.9,yoktqpms48,2022-09-19 14:52:50.406,5c7eb988ac63960015004d03,0,44,41,30,33,62,male,,,"
  <table>
  <tr height=300>
    <td width=300 height=300><img src=""static/images/cards/back_of_black_stars.svg"" width=""175px"" height=""250px""></img></td>
    <td width=300 height=300><img src=""static/images/cards/7_of_black_stars.svg"" width=""175px"" height=""250px""></img></td>
  </tr>
  <tr height=200>
    <td width=300></td>
    <td width=300><img src=""static/images/keys/m.svg"" width=""35%"" height=""75%""></img></td>
  </tr>
</table>
  ",,,,,,,,,,,,,,,,,,,,,,,,,,,,
198,0,,html-keyboard-response,198,551938,0.0-7.9-3.9,yoktqpms48,2022-09-19 14:52:50.406,5c7eb988ac63960015004d03,0,44,41,30,33,62,male,,,"<p style=""font-size:50px"">You win!
+10 points this round!</p>",,,,,,,,,,,,,,,,,,,,,,,,,,,,
199,0,,html-keyboard-response,199,552443,0.0-7.9-4.9,yoktqpms48,2022-09-19 14:52:50.406,5c7eb988ac63960015004d03,0,44,41,30,33,62,male,,,,,1.0,choice,9.0,B,D,black,black,moons,stars,D,B,B,black,stars,957.599999994,0.0,1.0,0,right,744.7000000179,7.0,1.0,1.0,,,,
200,0,,html-keyboard-response,200,553391,0.0-7.10-0.10,yoktqpms48,2022-09-19 14:52:50.406,5c7eb988ac63960015004d03,0,44,41,30,33,62,male,947.099999994,,"
  <table>
  <tr height=300>
    <td width=300 height=300><img src=""static/images/cards/stack_of_red_stars.svg"" width=""175px"" height=""250px""></img></td>
    <td width=300 height=300><img src=""static/images/cards/stack_of_black_stars.svg"" width=""175px"" height=""250px""></img></td>
  </tr>
  <tr height=200>
    <td width=300><img src=""static/images/keys/w.svg"" width=""35%"" height=""75%""></img></td>
    <td width=300><img src=""static/images/keys/o.svg"" width=""35%"" height=""75%""></img></td>
  </tr>
</table>
  ",79.0,,,,,,,,,,,,,,,,,,,,,,,,,1.0,,
201,0,,html-keyboard-response,201,554641,0.0-7.10-1.10,yoktqpms48,2022-09-19 14:52:50.406,5c7eb988ac63960015004d03,0,44,41,30,33,62,male,735.8999999762,,"
  <table>
  <tr height=300>
    <td width=300 height=300><img src=""static/images/cards/back_of_black_stars.svg"" width=""175px"" height=""250px""></img></td>
    <td width=300 height=300><img src=""static/images/cards/back_of_black_stars.svg"" width=""175px"" height=""250px""></img></td>
  </tr>
  <tr height=200>
    <td width=300></td>
    <td width=300><img src=""static/images/keys/m.svg"" width=""35%"" height=""75%""></img></td>
  </tr>
</table>
  ",77.0,,,,,,,,,,,,,,,,,,,,,,,,,1.0,,
202,0,,html-keyboard-response,202,556142,0.0-7.10-2.10,yoktqpms48,2022-09-19 14:52:50.406,5c7eb988ac63960015004d03,0,44,41,30,33,62,male,,,"
  <table>
  <tr height=300>
    <td width=300 height=300><img src=""static/images/cards/back_of_black_stars.svg"" width=""175px"" height=""250px""></img></td>
    <td width=300 height=300><img src=""static/images/cards/6_of_black_stars.svg"" width=""175px"" height=""250px""></img></td>
  </tr>
  <tr height=200>
    <td width=300></td>
    <td width=300><img src=""static/images/keys/m.svg"" width=""35%"" height=""75%""></img></td>
  </tr>
</table>
  ",,,,,,,,,,,,,,,,,,,,,,,,,,,,
203,0,,html-keyboard-response,203,557657,0.0-7.10-3.10,yoktqpms48,2022-09-19 14:52:50.406,5c7eb988ac63960015004d03,0,44,41,30,33,62,male,,,"<p style=""font-size:50px"">You win!
+10 points this round!</p>",,,,,,,,,,,,,,,,,,,,,,,,,,,,
204,0,,html-keyboard-response,204,558163,0.0-7.10-4.10,yoktqpms48,2022-09-19 14:52:50.406,5c7eb988ac63960015004d03,0,44,41,30,33,62,male,,,,,1.0,choice,10.0,A,B,red,black,stars,stars,A,B,B,black,stars,947.099999994,0.0,1.0,0,right,735.8999999762,6.0,1.0,1.0,,,,
205,0,,html-keyboard-response,205,559119,0.0-7.11-0.11,yoktqpms48,2022-09-19 14:52:50.406,5c7eb988ac63960015004d03,0,44,41,30,33,62,male,955.6000000238,,"
  <table>
  <tr height=300>
    <td width=300 height=300><img src=""static/images/cards/stack_of_black_stars.svg"" width=""175px"" height=""250px""></img></td>
    <td width=300 height=300><img src=""static/images/cards/stack_of_red_moons.svg"" width=""175px"" height=""250px""></img></td>
  </tr>
  <tr height=200>
    <td width=300><img src=""static/images/keys/w.svg"" width=""35%"" height=""75%""></img></td>
    <td width=300><img src=""static/images/keys/o.svg"" width=""35%"" height=""75%""></img></td>
  </tr>
</table>
  ",79.0,,,,,,,,,,,,,,,,,,,,,,,,,1.0,,
206,0,,html-keyboard-response,206,560395,0.0-7.11-1.11,yoktqpms48,2022-09-19 14:52:50.406,5c7eb988ac63960015004d03,0,44,41,30,33,62,male,774.6000000238,,"
  <table>
  <tr height=300>
    <td width=300 height=300><img src=""static/images/cards/back_of_red_moons.svg"" width=""175px"" height=""250px""></img></td>
    <td width=300 height=300><img src=""static/images/cards/back_of_red_moons.svg"" width=""175px"" height=""250px""></img></td>
  </tr>
  <tr height=200>
    <td width=300><img src=""static/images/keys/z.svg"" width=""35%"" height=""75%""></img></td>
    <td width=300><img src=""static/images/keys/m.svg"" width=""35%"" height=""75%""></img></td>
  </tr>
</table>
  ",77.0,,,,,,,,,,,,,,,,,,,,,,,,,1.0,,
207,0,,html-keyboard-response,207,561897,0.0-7.11-2.11,yoktqpms48,2022-09-19 14:52:50.406,5c7eb988ac63960015004d03,0,44,41,30,33,62,male,,,"
  <table>
  <tr height=300>
    <td width=300 height=300><img src=""static/images/cards/back_of_red_moons.svg"" width=""175px"" height=""250px""></img></td>
    <td width=300 height=300><img src=""static/images/cards/10_of_red_moons.svg"" width=""175px"" height=""250px""></img></td>
  </tr>
  <tr height=200>
    <td width=300><img src=""static/images/keys/z.svg"" width=""35%"" height=""75%""></img></td>
    <td width=300><img src=""static/images/keys/m.svg"" width=""35%"" height=""75%""></img></td>
  </tr>
</table>
  ",,,,,,,,,,,,,,,,,,,,,,,,,,,,
208,0,,html-keyboard-response,208,563398,0.0-7.11-3.11,yoktqpms48,2022-09-19 14:52:50.406,5c7eb988ac63960015004d03,0,44,41,30,33,62,male,,,"<p style=""font-size:50px"">You Lose!
No points this round.</p>",,,,,,,,,,,,,,,,,,,,,,,,,,,,
209,0,,html-keyboard-response,209,563904,0.0-7.11-4.11,yoktqpms48,2022-09-19 14:52:50.406,5c7eb988ac63960015004d03,0,44,41,30,33,62,male,,,,,1.0,choice,11.0,B,C,black,red,stars,moons,B,C,C,red,moons,955.6000000238,1.0,0.0,NA,right,774.6000000238,10.0,1.0,0.0,,,,
210,0,,html-keyboard-response,210,565176,0.0-7.12-0.12,yoktqpms48,2022-09-19 14:52:50.406,5c7eb988ac63960015004d03,0,44,41,30,33,62,male,1271.400000006,,"
  <table>
  <tr height=300>
    <td width=300 height=300><img src=""static/images/cards/stack_of_red_moons.svg"" width=""175px"" height=""250px""></img></td>
    <td width=300 height=300><img src=""static/images/cards/stack_of_black_moons.svg"" width=""175px"" height=""250px""></img></td>
  </tr>
  <tr height=200>
    <td width=300><img src=""static/images/keys/w.svg"" width=""35%"" height=""75%""></img></td>
    <td width=300><img src=""static/images/keys/o.svg"" width=""35%"" height=""75%""></img></td>
  </tr>
</table>
  ",79.0,,,,,,,,,,,,,,,,,,,,,,,,,1.0,,
211,0,,html-keyboard-response,211,566697,0.0-7.12-1.12,yoktqpms48,2022-09-19 14:52:50.406,5c7eb988ac63960015004d03,0,44,41,30,33,62,male,1019.7999999821,,"
  <table>
  <tr height=300>
    <td width=300 height=300><img src=""static/images/cards/back_of_black_moons.svg"" width=""175px"" height=""250px""></img></td>
    <td width=300 height=300><img src=""static/images/cards/back_of_black_moons.svg"" width=""175px"" height=""250px""></img></td>
  </tr>
  <tr height=200>
    <td width=300><img src=""static/images/keys/z.svg"" width=""35%"" height=""75%""></img></td>
    <td width=300></td>
  </tr>
</table>
  ",90.0,,,,,,,,,,,,,,,,,,,,,,,,,1.0,,
212,0,,html-keyboard-response,212,568198,0.0-7.12-2.12,yoktqpms48,2022-09-19 14:52:50.406,5c7eb988ac63960015004d03,0,44,41,30,33,62,male,,,"
  <table>
  <tr height=300>
    <td width=300 height=300><img src=""static/images/cards/3_of_black_moons.svg"" width=""175px"" height=""250px""></img></td>
    <td width=300 height=300><img src=""static/images/cards/back_of_black_moons.svg"" width=""175px"" height=""250px""></img></td>
  </tr>
  <tr height=200>
    <td width=300><img src=""static/images/keys/z.svg"" width=""35%"" height=""75%""></img></td>
    <td width=300></td>
  </tr>
</table>
  ",,,,,,,,,,,,,,,,,,,,,,,,,,,,
213,0,,html-keyboard-response,213,569701,0.0-7.12-3.12,yoktqpms48,2022-09-19 14:52:50.406,5c7eb988ac63960015004d03,0,44,41,30,33,62,male,,,"<p style=""font-size:50px"">You win!
+10 points this round!</p>",,,,,,,,,,,,,,,,,,,,,,,,,,,,
214,0,,html-keyboard-response,214,570208,0.0-7.12-4.12,yoktqpms48,2022-09-19 14:52:50.406,5c7eb988ac63960015004d03,0,44,41,30,33,62,male,,,,,1.0,choice,12.0,C,D,red,black,moons,moons,C,D,D,black,moons,1271.400000006,0.0,0.0,1,left,1019.7999999821,3.0,0.0,1.0,,,,
215,0,,html-keyboard-response,215,571914,0.0-7.13-0.13,yoktqpms48,2022-09-19 14:52:50.406,5c7eb988ac63960015004d03,0,44,41,30,33,62,male,1704.5,,"
  <table>
  <tr height=300>
    <td width=300 height=300><img src=""static/images/cards/stack_of_black_stars.svg"" width=""175px"" height=""250px""></img></td>
    <td width=300 height=300><img src=""static/images/cards/stack_of_red_stars.svg"" width=""175px"" height=""250px""></img></td>
  </tr>
  <tr height=200>
    <td width=300><img src=""static/images/keys/w.svg"" width=""35%"" height=""75%""></img></td>
    <td width=300><img src=""static/images/keys/o.svg"" width=""35%"" height=""75%""></img></td>
  </tr>
</table>
  ",87.0,,,,,,,,,,,,,,,,,,,,,,,,,1.0,,
216,0,,html-keyboard-response,216,573285,0.0-7.13-1.13,yoktqpms48,2022-09-19 14:52:50.406,5c7eb988ac63960015004d03,0,44,41,30,33,62,male,870.3000000119,,"
  <table>
  <tr height=300>
    <td width=300 height=300><img src=""static/images/cards/back_of_black_stars.svg"" width=""175px"" height=""250px""></img></td>
    <td width=300 height=300><img src=""static/images/cards/back_of_black_stars.svg"" width=""175px"" height=""250px""></img></td>
  </tr>
  <tr height=200>
    <td width=300><img src=""static/images/keys/z.svg"" width=""35%"" height=""75%""></img></td>
    <td width=300></td>
  </tr>
</table>
  ",90.0,,,,,,,,,,,,,,,,,,,,,,,,,1.0,,
217,0,,html-keyboard-response,217,574786,0.0-7.13-2.13,yoktqpms48,2022-09-19 14:52:50.406,5c7eb988ac63960015004d03,0,44,41,30,33,62,male,,,"
  <table>
  <tr height=300>
    <td width=300 height=300><img src=""static/images/cards/7_of_black_stars.svg"" width=""175px"" height=""250px""></img></td>
    <td width=300 height=300><img src=""static/images/cards/back_of_black_stars.svg"" width=""175px"" height=""250px""></img></td>
  </tr>
  <tr height=200>
    <td width=300><img src=""static/images/keys/z.svg"" width=""35%"" height=""75%""></img></td>
    <td width=300></td>
  </tr>
</table>
  ",,,,,,,,,,,,,,,,,,,,,,,,,,,,
218,0,,html-keyboard-response,218,576289,0.0-7.13-3.13,yoktqpms48,2022-09-19 14:52:50.406,5c7eb988ac63960015004d03,0,44,41,30,33,62,male,,,"<p style=""font-size:50px"">You win!
+10 points this round!</p>",,,,,,,,,,,,,,,,,,,,,,,,,,,,
219,0,,html-keyboard-response,219,576795,0.0-7.13-4.13,yoktqpms48,2022-09-19 14:52:50.406,5c7eb988ac63960015004d03,0,44,41,30,33,62,male,,,,,1.0,choice,13.0,A,B,black,red,stars,stars,B,A,B,black,stars,1704.5,0.0,1.0,1,left,870.3000000119,7.0,1.0,1.0,,,,
220,0,,html-keyboard-response,220,577831,0.0-7.14-0.14,yoktqpms48,2022-09-19 14:52:50.406,5c7eb988ac63960015004d03,0,44,41,30,33,62,male,1035.1999999881,,"
  <table>
  <tr height=300>
    <td width=300 height=300><img src=""static/images/cards/stack_of_black_moons.svg"" width=""175px"" height=""250px""></img></td>
    <td width=300 height=300><img src=""static/images/cards/stack_of_black_stars.svg"" width=""175px"" height=""250px""></img></td>
  </tr>
  <tr height=200>
    <td width=300><img src=""static/images/keys/w.svg"" width=""35%"" height=""75%""></img></td>
    <td width=300><img src=""static/images/keys/o.svg"" width=""35%"" height=""75%""></img></td>
  </tr>
</table>
  ",87.0,,,,,,,,,,,,,,,,,,,,,,,,,1.0,,
221,0,,html-keyboard-response,221,579880,0.0-7.14-1.14,yoktqpms48,2022-09-19 14:52:50.406,5c7eb988ac63960015004d03,0,44,41,30,33,62,male,1547.599999994,,"
  <table>
  <tr height=300>
    <td width=300 height=300><img src=""static/images/cards/back_of_black_moons.svg"" width=""175px"" height=""250px""></img></td>
    <td width=300 height=300><img src=""static/images/cards/back_of_black_moons.svg"" width=""175px"" height=""250px""></img></td>
  </tr>
  <tr height=200>
    <td width=300></td>
    <td width=300><img src=""static/images/keys/m.svg"" width=""35%"" height=""75%""></img></td>
  </tr>
</table>
  ",77.0,,,,,,,,,,,,,,,,,,,,,,,,,1.0,,
222,0,,html-keyboard-response,222,581381,0.0-7.14-2.14,yoktqpms48,2022-09-19 14:52:50.406,5c7eb988ac63960015004d03,0,44,41,30,33,62,male,,,"
  <table>
  <tr height=300>
    <td width=300 height=300><img src=""static/images/cards/back_of_black_moons.svg"" width=""175px"" height=""250px""></img></td>
    <td width=300 height=300><img src=""static/images/cards/4_of_black_moons.svg"" width=""175px"" height=""250px""></img></td>
  </tr>
  <tr height=200>
    <td width=300></td>
    <td width=300><img src=""static/images/keys/m.svg"" width=""35%"" height=""75%""></img></td>
  </tr>
</table>
  ",,,,,,,,,,,,,,,,,,,,,,,,,,,,
223,0,,html-keyboard-response,223,582883,0.0-7.14-3.14,yoktqpms48,2022-09-19 14:52:50.406,5c7eb988ac63960015004d03,0,44,41,30,33,62,male,,,"<p style=""font-size:50px"">You Lose!
No points this round.</p>",,,,,,,,,,,,,,,,,,,,,,,,,,,,
224,0,,html-keyboard-response,224,583391,0.0-7.14-4.14,yoktqpms48,2022-09-19 14:52:50.406,5c7eb988ac63960015004d03,0,44,41,30,33,62,male,,,,,1.0,choice,14.0,B,D,black,black,moons,stars,D,B,D,black,moons,1035.1999999881,0.0,0.0,0,right,1547.599999994,4.0,0.0,0.0,,,,
225,0,,html-keyboard-response,225,584952,0.0-7.15-0.15,yoktqpms48,2022-09-19 14:52:50.406,5c7eb988ac63960015004d03,0,44,41,30,33,62,male,1560.900000006,,"
  <table>
  <tr height=300>
    <td width=300 height=300><img src=""static/images/cards/stack_of_black_stars.svg"" width=""175px"" height=""250px""></img></td>
    <td width=300 height=300><img src=""static/images/cards/stack_of_red_moons.svg"" width=""175px"" height=""250px""></img></td>
  </tr>
  <tr height=200>
    <td width=300><img src=""static/images/keys/w.svg"" width=""35%"" height=""75%""></img></td>
    <td width=300><img src=""static/images/keys/o.svg"" width=""35%"" height=""75%""></img></td>
  </tr>
</table>
  ",87.0,,,,,,,,,,,,,,,,,,,,,,,,,1.0,,
226,0,,html-keyboard-response,226,586349,0.0-7.15-1.15,yoktqpms48,2022-09-19 14:52:50.406,5c7eb988ac63960015004d03,0,44,41,30,33,62,male,894.599999994,,"
  <table>
  <tr height=300>
    <td width=300 height=300><img src=""static/images/cards/back_of_black_stars.svg"" width=""175px"" height=""250px""></img></td>
    <td width=300 height=300><img src=""static/images/cards/back_of_black_stars.svg"" width=""175px"" height=""250px""></img></td>
  </tr>
  <tr height=200>
    <td width=300><img src=""static/images/keys/z.svg"" width=""35%"" height=""75%""></img></td>
    <td width=300></td>
  </tr>
</table>
  ",90.0,,,,,,,,,,,,,,,,,,,,,,,,,1.0,,
227,0,,html-keyboard-response,227,587850,0.0-7.15-2.15,yoktqpms48,2022-09-19 14:52:50.406,5c7eb988ac63960015004d03,0,44,41,30,33,62,male,,,"
  <table>
  <tr height=300>
    <td width=300 height=300><img src=""static/images/cards/7_of_black_stars.svg"" width=""175px"" height=""250px""></img></td>
    <td width=300 height=300><img src=""static/images/cards/back_of_black_stars.svg"" width=""175px"" height=""250px""></img></td>
  </tr>
  <tr height=200>
    <td width=300><img src=""static/images/keys/z.svg"" width=""35%"" height=""75%""></img></td>
    <td width=300></td>
  </tr>
</table>
  ",,,,,,,,,,,,,,,,,,,,,,,,,,,,
228,0,,html-keyboard-response,228,589352,0.0-7.15-3.15,yoktqpms48,2022-09-19 14:52:50.406,5c7eb988ac63960015004d03,0,44,41,30,33,62,male,,,"<p style=""font-size:50px"">You win!
+10 points this round!</p>",,,,,,,,,,,,,,,,,,,,,,,,,,,,
229,0,,html-keyboard-response,229,589858,0.0-7.15-4.15,yoktqpms48,2022-09-19 14:52:50.406,5c7eb988ac63960015004d03,0,44,41,30,33,62,male,,,,,1.0,choice,15.0,B,C,black,red,stars,moons,B,C,B,black,stars,1560.900000006,0.0,1.0,1,left,894.599999994,7.0,1.0,1.0,,,,
230,0,,html-keyboard-response,230,591002,0.0-7.16-0.16,yoktqpms48,2022-09-19 14:52:50.406,5c7eb988ac63960015004d03,0,44,41,30,33,62,male,1142.8999999762,,"
  <table>
  <tr height=300>
    <td width=300 height=300><img src=""static/images/cards/stack_of_black_moons.svg"" width=""175px"" height=""250px""></img></td>
    <td width=300 height=300><img src=""static/images/cards/stack_of_black_stars.svg"" width=""175px"" height=""250px""></img></td>
  </tr>
  <tr height=200>
    <td width=300><img src=""static/images/keys/w.svg"" width=""35%"" height=""75%""></img></td>
    <td width=300><img src=""static/images/keys/o.svg"" width=""35%"" height=""75%""></img></td>
  </tr>
</table>
  ",87.0,,,,,,,,,,,,,,,,,,,,,,,,,1.0,,
231,0,,html-keyboard-response,231,592309,0.0-7.16-1.16,yoktqpms48,2022-09-19 14:52:50.406,5c7eb988ac63960015004d03,0,44,41,30,33,62,male,805.6999999881,,"
  <table>
  <tr height=300>
    <td width=300 height=300><img src=""static/images/cards/back_of_black_moons.svg"" width=""175px"" height=""250px""></img></td>
    <td width=300 height=300><img src=""static/images/cards/back_of_black_moons.svg"" width=""175px"" height=""250px""></img></td>
  </tr>
  <tr height=200>
    <td width=300><img src=""static/images/keys/z.svg"" width=""35%"" height=""75%""></img></td>
    <td width=300></td>
  </tr>
</table>
  ",90.0,,,,,,,,,,,,,,,,,,,,,,,,,1.0,,
232,0,,html-keyboard-response,232,593811,0.0-7.16-2.16,yoktqpms48,2022-09-19 14:52:50.406,5c7eb988ac63960015004d03,0,44,41,30,33,62,male,,,"
  <table>
  <tr height=300>
    <td width=300 height=300><img src=""static/images/cards/10_of_black_moons.svg"" width=""175px"" height=""250px""></img></td>
    <td width=300 height=300><img src=""static/images/cards/back_of_black_moons.svg"" width=""175px"" height=""250px""></img></td>
  </tr>
  <tr height=200>
    <td width=300><img src=""static/images/keys/z.svg"" width=""35%"" height=""75%""></img></td>
    <td width=300></td>
  </tr>
</table>
  ",,,,,,,,,,,,,,,,,,,,,,,,,,,,
233,0,,html-keyboard-response,233,595313,0.0-7.16-3.16,yoktqpms48,2022-09-19 14:52:50.406,5c7eb988ac63960015004d03,0,44,41,30,33,62,male,,,"<p style=""font-size:50px"">You Lose!
No points this round.</p>",,,,,,,,,,,,,,,,,,,,,,,,,,,,
234,0,,html-keyboard-response,234,595821,0.0-7.16-4.16,yoktqpms48,2022-09-19 14:52:50.406,5c7eb988ac63960015004d03,0,44,41,30,33,62,male,,,,,1.0,choice,16.0,B,D,black,black,moons,stars,D,B,D,black,moons,1142.8999999762,0.0,0.0,1,left,805.6999999881,10.0,1.0,0.0,,,,
235,0,,html-keyboard-response,235,598822,0.0-7.17-0.17,yoktqpms48,2022-09-19 14:52:50.406,5c7eb988ac63960015004d03,0,44,41,30,33,62,male,3000.900000006,,"
  <table>
  <tr height=300>
    <td width=300 height=300><img src=""static/images/cards/stack_of_red_stars.svg"" width=""175px"" height=""250px""></img></td>
    <td width=300 height=300><img src=""static/images/cards/stack_of_black_stars.svg"" width=""175px"" height=""250px""></img></td>
  </tr>
  <tr height=200>
    <td width=300><img src=""static/images/keys/w.svg"" width=""35%"" height=""75%""></img></td>
    <td width=300><img src=""static/images/keys/o.svg"" width=""35%"" height=""75%""></img></td>
  </tr>
</table>
  ",87.0,,,,,,,,,,,,,,,,,,,,,,,,,1.0,,
236,0,,html-keyboard-response,236,600189,0.0-7.17-1.17,yoktqpms48,2022-09-19 14:52:50.406,5c7eb988ac63960015004d03,0,44,41,30,33,62,male,866.099999994,,"
  <table>
  <tr height=300>
